SpectraSuite Data File
++++++++++++++++++++++++++++++++++++
Date: Tue Jan 29 16:57:01 EST 2013
User: group
Dark Spectrum Present: No
Reference Spectrum Present: No
Number of Sampled Component Spectra: 1
Spectrometers: USB2E7196
Integration Time (usec): 65000 (USB2E7196)
Spectra Averaged: 100 (USB2E7196)
Boxcar Smoothing: 10 (USB2E7196)
Correct for Electrical Dark: No (USB2E7196)
Strobe/Lamp Enabled: No (USB2E7196)
Correct for Detector Non-linearity: No (USB2E7196)
Correct for Stray Light: No (USB2E7196)
Number of Pixels in Processed Spectrum: 2048
>>>>>Begin Processed Spectral Data<<<<<
339.09	0.00
339.48	201.13
339.86	202.66
340.24	204.39
340.63	205.52
341.01	210.68
341.39	208.81
341.78	210.19
342.16	211.21
342.54	211.37
342.93	200.79
343.31	210.94
343.69	211.51
344.07	211.98
344.46	212.41
344.84	212.81
345.22	212.95
345.60	213.21
345.99	213.37
346.37	213.50
346.75	213.64
347.13	213.72
347.52	213.79
347.90	213.89
348.28	213.93
348.66	213.99
349.05	213.95
349.43	214.01
349.81	214.08
350.19	214.14
350.57	214.20
350.96	214.31
351.34	214.39
351.72	214.48
352.10	214.60
352.48	214.68
352.87	214.75
353.25	214.83
353.63	214.86
354.01	214.92
354.39	215.02
354.77	215.07
355.15	215.16
355.54	215.19
355.92	215.18
356.30	215.22
356.68	215.46
357.06	215.55
357.44	215.55
357.82	215.57
358.20	215.68
358.58	215.75
358.97	215.79
359.35	215.89
359.73	215.96
360.11	215.98
360.49	216.05
360.87	216.05
361.25	216.10
361.63	216.25
362.01	216.32
362.39	216.34
362.77	216.39
363.15	216.43
363.53	216.48
363.91	216.55
364.29	216.57
364.67	216.37
365.05	216.39
365.43	216.44
365.81	216.50
366.19	216.57
366.57	216.64
366.95	216.65
367.33	216.59
367.71	216.60
368.09	216.69
368.47	216.68
368.85	216.69
369.23	216.73
369.61	216.61
369.99	216.65
370.37	216.64
370.75	216.72
371.13	216.67
371.51	216.62
371.89	216.61
372.27	216.61
372.65	216.59
373.03	216.58
373.41	216.53
373.78	216.48
374.16	216.35
374.54	216.26
374.92	216.22
375.30	216.22
375.68	216.13
376.06	216.06
376.44	216.02
376.82	216.00
377.19	215.96
377.57	215.94
377.95	215.83
378.33	215.80
378.71	215.66
379.09	215.67
379.47	215.64
379.84	215.56
380.22	215.50
380.60	215.43
380.98	215.39
381.36	215.35
381.73	215.31
382.11	215.30
382.49	215.26
382.87	215.18
383.25	215.14
383.62	215.39
384.00	215.31
384.38	215.28
384.76	215.28
385.13	215.32
385.51	215.30
385.89	215.28
386.27	215.26
386.64	215.22
387.02	215.12
387.40	215.09
387.78	215.07
388.15	215.05
388.53	215.04
388.91	215.01
389.29	214.99
389.66	214.95
390.04	214.93
390.42	214.95
390.79	214.97
391.17	214.96
391.55	214.67
391.92	214.66
392.30	214.66
392.68	214.61
393.05	214.59
393.43	214.59
393.81	214.60
394.18	214.56
394.56	214.58
394.94	214.64
395.31	214.64
395.69	214.76
396.06	214.80
396.44	214.83
396.82	214.79
397.19	214.90
397.57	214.93
397.95	214.98
398.32	214.97
398.70	215.01
399.07	215.11
399.45	215.18
399.82	215.27
400.20	215.28
400.58	215.33
400.95	215.32
401.33	215.39
401.70	215.58
402.08	215.66
402.45	215.78
402.83	215.92
403.20	216.03
403.58	216.09
403.95	216.25
404.33	216.38
404.71	216.55
405.08	216.80
405.46	216.97
405.83	217.16
406.21	217.35
406.58	217.58
406.96	217.75
407.33	217.99
407.70	218.28
408.08	218.77
408.45	219.15
408.83	219.53
409.20	219.90
409.58	220.19
409.95	220.65
410.33	221.14
410.70	221.54
411.08	222.10
411.45	222.66
411.82	223.23
412.20	223.94
412.57	224.80
412.95	225.40
413.32	226.28
413.69	227.11
414.07	228.03
414.44	229.05
414.82	230.11
415.19	231.29
415.56	232.48
415.94	233.69
416.31	235.09
416.68	236.51
417.06	238.10
417.43	239.66
417.81	241.41
418.18	243.22
418.55	245.21
418.93	247.26
419.30	249.36
419.67	251.62
420.04	253.91
420.42	256.28
420.79	259.08
421.16	261.88
421.54	264.82
421.91	267.82
422.28	270.94
422.66	274.26
423.03	277.57
423.40	280.97
423.77	284.58
424.15	288.30
424.52	292.20
424.89	296.43
425.26	300.53
425.64	304.49
426.01	308.79
426.38	313.28
426.75	317.86
427.13	322.64
427.50	327.65
427.87	332.89
428.24	338.15
428.61	343.18
428.99	348.73
429.36	354.77
429.73	360.72
430.10	366.61
430.47	372.75
430.85	379.07
431.22	385.84
431.59	393.00
431.96	399.82
432.33	407.32
432.70	414.59
433.08	423.18
433.45	431.25
433.82	439.27
434.19	448.18
434.56	456.96
434.93	465.38
435.30	473.63
435.68	482.83
436.05	491.84
436.42	500.83
436.79	509.04
437.16	517.86
437.53	527.22
437.90	536.49
438.27	545.53
438.64	554.80
439.01	563.38
439.38	570.96
439.75	578.34
440.13	586.86
440.50	594.85
440.87	601.38
441.24	608.04
441.61	615.47
441.98	620.92
442.35	627.30
442.72	633.67
443.09	639.82
443.46	643.54
443.83	646.17
444.20	648.32
444.57	651.55
444.94	653.03
445.31	654.48
445.68	655.83
446.05	656.38
446.42	655.62
446.79	654.68
447.16	653.66
447.53	652.98
447.90	649.62
448.27	646.41
448.64	641.70
449.01	638.39
449.37	632.43
449.74	626.77
450.11	619.81
450.48	612.34
450.85	604.87
451.22	598.42
451.59	592.17
451.96	586.40
452.33	578.43
452.70	571.25
453.07	562.75
453.43	554.11
453.80	545.74
454.17	537.70
454.54	530.13
454.91	521.88
455.28	513.82
455.65	506.28
456.02	498.67
456.38	492.29
456.75	484.30
457.12	477.66
457.49	471.03
457.86	464.77
458.23	459.35
458.59	453.38
458.96	447.33
459.33	441.96
459.70	436.51
460.07	432.23
460.43	427.34
460.80	422.70
461.17	418.61
461.54	414.36
461.91	410.34
462.27	406.15
462.64	402.66
463.01	398.76
463.38	395.03
463.74	391.30
464.11	388.03
464.48	385.24
464.85	382.18
465.21	379.76
465.58	377.15
465.95	373.98
466.32	371.33
466.68	368.73
467.05	366.11
467.42	363.52
467.78	360.80
468.15	358.18
468.52	356.19
468.88	353.71
469.25	351.53
469.62	349.68
469.98	347.69
470.35	345.83
470.72	344.18
471.08	342.40
471.45	340.87
471.82	339.32
472.18	337.60
472.55	336.37
472.92	334.90
473.28	333.63
473.65	332.45
474.02	331.37
474.38	330.37
474.75	329.64
475.11	328.80
475.48	328.20
475.85	327.71
476.21	327.21
476.58	326.83
476.94	326.55
477.31	326.20
477.67	325.91
478.04	325.76
478.41	325.67
478.77	325.80
479.14	325.77
479.50	325.88
479.87	326.19
480.23	326.52
480.60	326.82
480.96	327.08
481.33	327.64
481.69	328.14
482.06	328.67
482.42	329.11
482.79	329.70
483.15	330.50
483.52	331.48
483.88	332.36
484.25	333.27
484.61	334.29
484.98	335.33
485.34	336.67
485.71	338.02
486.07	339.47
486.44	340.83
486.80	342.41
487.17	344.06
487.53	345.90
487.90	347.69
488.26	349.69
488.62	351.83
488.99	353.91
489.35	356.07
489.72	358.49
490.08	361.03
490.44	363.60
490.81	366.25
491.17	368.94
491.54	371.93
491.90	375.04
492.26	378.26
492.63	381.67
492.99	385.13
493.36	388.77
493.72	392.63
494.08	396.62
494.45	400.82
494.81	405.19
495.17	409.55
495.54	414.26
495.90	419.02
496.26	423.99
496.63	429.16
496.99	434.56
497.35	440.11
497.72	445.94
498.08	451.88
498.44	457.97
498.80	464.41
499.17	470.88
499.53	477.50
499.89	484.42
500.26	491.41
500.62	498.51
500.98	505.89
501.34	513.36
501.71	521.10
502.07	528.90
502.43	536.86
502.79	545.04
503.16	553.40
503.52	561.99
503.88	570.64
504.24	579.56
504.60	588.59
504.97	597.80
505.33	607.03
505.69	616.84
506.05	626.64
506.41	636.46
506.78	646.50
507.14	656.72
507.50	667.13
507.86	677.81
508.22	688.50
508.59	699.16
508.95	710.13
509.31	721.33
509.67	732.77
510.03	744.02
510.39	755.64
510.75	767.44
511.12	779.34
511.48	791.38
511.84	803.60
512.20	815.88
512.56	828.41
512.92	841.16
513.28	853.77
513.64	866.49
514.00	879.24
514.37	892.21
514.73	905.33
515.09	918.18
515.45	931.09
515.81	944.14
516.17	957.50
516.53	970.80
516.89	983.94
517.25	997.09
517.61	1010.76
517.97	1024.16
518.33	1037.43
518.69	1050.92
519.05	1064.69
519.41	1078.31
519.77	1092.23
520.13	1105.55
520.49	1118.64
520.85	1132.00
521.21	1145.44
521.57	1159.10
521.93	1172.19
522.29	1185.94
522.65	1199.63
523.01	1213.14
523.37	1226.35
523.73	1239.74
524.09	1252.91
524.45	1266.23
524.81	1279.69
525.17	1293.03
525.53	1306.25
525.89	1319.44
526.25	1332.61
526.61	1345.45
526.97	1358.64
527.33	1371.69
527.68	1385.12
528.04	1398.74
528.40	1411.97
528.76	1425.35
529.12	1438.33
529.48	1451.64
529.84	1463.94
530.20	1476.79
530.56	1489.44
530.91	1502.64
531.27	1515.50
531.63	1528.12
531.99	1540.89
532.35	1553.17
532.71	1565.56
533.07	1578.61
533.42	1590.89
533.78	1603.11
534.14	1615.11
534.50	1626.41
534.86	1637.87
535.21	1648.83
535.57	1660.46
535.93	1671.72
536.29	1682.86
536.65	1694.31
537.00	1705.30
537.36	1716.64
537.72	1727.73
538.08	1739.21
538.44	1750.32
538.79	1761.49
539.15	1772.73
539.51	1783.73
539.87	1795.19
540.22	1806.14
540.58	1817.14
540.94	1828.20
541.29	1838.55
541.65	1848.53
542.01	1859.02
542.37	1869.29
542.72	1879.57
543.08	1889.17
543.44	1899.80
543.79	1909.08
544.15	1918.57
544.51	1928.70
544.87	1938.70
545.22	1948.04
545.58	1956.90
545.94	1965.79
546.29	1974.32
546.65	1982.63
547.01	1990.81
547.36	1998.42
547.72	2006.20
548.07	2013.66
548.43	2021.41
548.79	2029.20
549.14	2037.44
549.50	2046.10
549.86	2054.17
550.21	2061.62
550.57	2069.42
550.92	2076.12
551.28	2083.58
551.64	2090.81
551.99	2098.19
552.35	2105.32
552.70	2112.20
553.06	2118.88
553.41	2125.23
553.77	2131.76
554.13	2138.19
554.48	2145.26
554.84	2152.35
555.19	2158.95
555.55	2165.35
555.90	2171.60
556.26	2178.43
556.61	2184.58
556.97	2189.23
557.32	2194.81
557.68	2201.08
558.03	2206.97
558.39	2212.53
558.74	2218.56
559.10	2224.19
559.45	2229.67
559.81	2235.19
560.16	2240.58
560.52	2246.53
560.87	2252.75
561.23	2258.39
561.58	2264.81
561.94	2270.13
562.29	2274.72
562.64	2280.57
563.00	2286.32
563.35	2291.96
563.71	2297.58
564.06	2303.18
564.42	2309.10
564.77	2314.04
565.12	2319.33
565.48	2324.09
565.83	2329.27
566.19	2334.37
566.54	2339.47
566.89	2344.01
567.25	2348.49
567.60	2354.09
567.96	2358.97
568.31	2363.48
568.66	2367.88
569.02	2371.72
569.37	2375.32
569.72	2379.64
570.08	2383.05
570.43	2385.96
570.78	2388.80
571.14	2391.32
571.49	2394.18
571.84	2397.48
572.20	2400.28
572.55	2403.20
572.90	2405.53
573.26	2408.07
573.61	2410.73
573.96	2413.00
574.31	2414.92
574.67	2416.68
575.02	2417.28
575.37	2418.67
575.72	2419.28
576.08	2420.52
576.43	2420.57
576.78	2420.72
577.13	2422.10
577.49	2423.16
577.84	2423.95
578.19	2424.95
578.54	2425.31
578.90	2425.61
579.25	2425.37
579.60	2425.05
579.95	2424.01
580.30	2423.72
580.66	2423.03
581.01	2421.08
581.36	2418.27
581.71	2416.59
582.06	2415.20
582.42	2414.02
582.77	2411.46
583.12	2409.64
583.47	2407.78
583.82	2407.02
584.17	2405.54
584.53	2403.28
584.88	2401.02
585.23	2398.93
585.58	2396.59
585.93	2394.38
586.28	2392.17
586.63	2389.46
586.98	2387.11
587.34	2384.90
587.69	2382.31
588.04	2379.98
588.39	2378.25
588.74	2375.51
589.09	2372.64
589.44	2369.12
589.79	2366.50
590.14	2364.31
590.49	2361.21
590.84	2357.52
591.19	2354.08
591.54	2350.81
591.89	2346.64
592.25	2343.10
592.60	2338.94
592.95	2334.56
593.30	2330.37
593.65	2325.79
594.00	2321.25
594.35	2318.09
594.70	2313.41
595.05	2308.85
595.40	2303.25
595.75	2297.37
596.10	2293.92
596.45	2288.97
596.80	2284.48
597.15	2279.26
597.50	2273.38
597.85	2268.32
598.19	2262.98
598.54	2257.24
598.89	2251.82
599.24	2247.10
599.59	2241.04
599.94	2234.82
600.29	2228.74
600.64	2222.72
600.99	2215.75
601.34	2210.17
601.69	2203.26
602.04	2196.81
602.39	2190.07
602.74	2183.92
603.08	2178.40
603.43	2171.84
603.78	2164.95
604.13	2157.85
604.48	2150.38
604.83	2144.30
605.18	2138.23
605.53	2131.46
605.87	2124.44
606.22	2117.85
606.57	2109.92
606.92	2102.02
607.27	2095.21
607.62	2088.83
607.96	2081.83
608.31	2075.59
608.66	2067.79
609.01	2060.08
609.36	2052.99
609.70	2045.39
610.05	2037.61
610.40	2029.43
610.75	2021.05
611.10	2013.29
611.44	2004.33
611.79	1995.85
612.14	1985.99
612.49	1975.21
612.83	1965.71
613.18	1956.32
613.53	1946.89
613.88	1937.28
614.22	1928.64
614.57	1918.87
614.92	1908.13
615.27	1897.94
615.61	1887.74
615.96	1878.22
616.31	1868.64
616.65	1859.09
617.00	1849.55
617.35	1840.14
617.70	1830.31
618.04	1820.52
618.39	1810.66
618.74	1801.12
619.08	1791.55
619.43	1782.82
619.78	1774.67
620.12	1766.25
620.47	1756.92
620.82	1746.61
621.16	1737.00
621.51	1727.21
621.85	1717.65
622.20	1707.61
622.55	1697.16
622.89	1687.32
623.24	1677.77
623.59	1668.05
623.93	1658.12
624.28	1648.30
624.62	1638.32
624.97	1628.33
625.32	1618.45
625.66	1609.46
626.01	1600.87
626.35	1591.68
626.70	1581.75
627.04	1571.91
627.39	1561.77
627.73	1552.62
628.08	1543.91
628.43	1534.62
628.77	1525.45
629.12	1516.55
629.46	1508.74
629.81	1500.61
630.15	1491.41
630.50	1481.76
630.84	1471.49
631.19	1461.70
631.53	1452.63
631.88	1442.59
632.22	1432.65
632.57	1423.40
632.91	1413.60
633.26	1403.86
633.60	1394.39
633.95	1385.30
634.29	1375.87
634.64	1366.82
634.98	1356.92
635.32	1347.78
635.67	1339.42
636.01	1330.30
636.36	1320.73
636.70	1311.32
637.05	1302.01
637.39	1293.22
637.73	1284.77
638.08	1277.24
638.42	1269.32
638.77	1260.64
639.11	1252.46
639.45	1244.80
639.80	1236.55
640.14	1227.92
640.49	1219.21
640.83	1210.49
641.17	1202.33
641.52	1194.40
641.86	1185.94
642.20	1178.25
642.55	1169.63
642.89	1160.90
643.23	1152.31
643.58	1144.29
643.92	1135.43
644.26	1126.78
644.61	1118.38
644.95	1109.59
645.29	1100.55
645.64	1091.44
645.98	1082.89
646.32	1075.13
646.66	1066.76
647.01	1058.53
647.35	1050.40
647.69	1042.25
648.04	1034.20
648.38	1025.51
648.72	1016.88
649.06	1008.49
649.41	1000.36
649.75	992.55
650.09	984.71
650.43	976.86
650.78	968.62
651.12	960.90
651.46	953.56
651.80	946.38
652.14	939.17
652.49	931.73
652.83	924.53
653.17	917.04
653.51	909.40
653.85	902.24
654.20	895.05
654.54	887.79
654.88	880.59
655.22	873.26
655.56	866.36
655.90	859.54
656.25	852.91
656.59	846.18
656.93	839.28
657.27	832.22
657.61	825.26
657.95	819.16
658.29	813.28
658.64	807.31
658.98	800.88
659.32	794.43
659.66	788.28
660.00	782.00
660.34	775.95
660.68	769.95
661.02	763.56
661.36	757.55
661.70	751.78
662.05	746.18
662.39	740.75
662.73	735.31
663.07	730.01
663.41	724.43
663.75	718.64
664.09	712.95
664.43	707.51
664.77	702.16
665.11	696.49
665.45	690.68
665.79	684.82
666.13	679.20
666.47	673.76
666.81	668.26
667.15	662.88
667.49	657.71
667.83	652.44
668.17	647.26
668.51	642.22
668.85	637.20
669.19	632.33
669.53	627.26
669.87	622.18
670.21	617.36
670.55	612.65
670.89	608.13
671.23	603.77
671.57	599.40
671.91	595.13
672.25	590.86
672.58	586.70
672.92	582.63
673.26	578.72
673.60	574.77
673.94	571.02
674.28	567.41
674.62	563.67
674.96	559.93
675.30	556.45
675.64	552.73
675.97	549.11
676.31	545.47
676.65	541.94
676.99	538.56
677.33	534.74
677.67	531.13
678.01	527.36
678.34	523.73
678.68	520.20
679.02	516.67
679.36	513.05
679.70	509.41
680.04	505.88
680.37	502.40
680.71	499.07
681.05	495.86
681.39	492.53
681.73	489.29
682.06	486.25
682.40	483.10
682.74	479.93
683.08	476.76
683.42	473.53
683.75	470.45
684.09	467.32
684.43	464.51
684.77	461.57
685.10	458.71
685.44	455.80
685.78	452.90
686.12	450.04
686.45	447.27
686.79	444.62
687.13	442.02
687.46	439.41
687.80	436.70
688.14	433.85
688.48	431.20
688.81	428.50
689.15	425.88
689.49	423.24
689.82	420.67
690.16	418.06
690.50	415.61
690.83	413.13
691.17	410.58
691.51	408.07
691.84	405.76
692.18	403.50
692.52	401.26
692.85	399.03
693.19	396.91
693.52	394.71
693.86	392.40
694.20	390.18
694.53	387.97
694.87	385.79
695.21	383.64
695.54	381.48
695.88	379.34
696.21	377.09
696.55	374.94
696.88	372.94
697.22	370.97
697.56	369.04
697.89	367.11
698.23	365.38
698.56	363.55
698.90	361.73
699.23	359.83
699.57	357.96
699.90	356.05
700.24	354.14
700.58	352.39
700.91	350.72
701.25	349.14
701.58	347.58
701.92	345.95
702.25	344.31
702.59	342.66
702.92	341.08
703.26	339.56
703.59	338.10
703.93	336.75
704.26	335.27
704.60	333.74
704.93	332.24
705.26	330.69
705.60	329.19
705.93	327.63
706.27	326.28
706.60	324.96
706.94	323.78
707.27	322.40
707.61	321.03
707.94	319.66
708.27	318.11
708.61	316.61
708.94	315.25
709.28	313.94
709.61	312.65
709.94	311.43
710.28	310.16
710.61	308.98
710.95	307.55
711.28	306.48
711.61	305.33
711.95	304.17
712.28	302.99
712.61	301.80
712.95	300.75
713.28	299.68
713.61	298.53
713.95	297.29
714.28	296.28
714.61	295.22
714.95	294.17
715.28	293.15
715.61	292.10
715.95	291.12
716.28	290.14
716.61	289.20
716.95	288.19
717.28	287.25
717.61	286.25
717.94	285.31
718.28	284.24
718.61	283.35
718.94	282.45
719.27	281.53
719.61	280.72
719.94	279.86
720.27	278.89
720.60	278.01
720.94	277.21
721.27	276.40
721.60	275.69
721.93	274.98
722.27	274.33
722.60	273.70
722.93	272.98
723.26	272.32
723.59	271.61
723.93	270.97
724.26	270.34
724.59	269.65
724.92	269.06
725.25	268.47
725.59	267.85
725.92	267.32
726.25	266.76
726.58	266.17
726.91	265.51
727.24	264.98
727.57	264.43
727.91	263.80
728.24	263.25
728.57	262.63
728.90	262.08
729.23	261.43
729.56	260.95
729.89	260.39
730.22	259.79
730.55	259.22
730.89	258.65
731.22	258.08
731.55	257.58
731.88	257.04
732.21	256.50
732.54	255.96
732.87	255.43
733.20	254.94
733.53	254.46
733.86	254.01
734.19	253.48
734.52	253.04
734.85	252.77
735.18	252.31
735.51	251.95
735.84	251.51
736.17	251.13
736.50	250.60
736.83	250.39
737.16	250.04
737.49	249.69
737.82	249.28
738.15	248.90
738.48	248.51
738.81	248.08
739.14	247.66
739.47	247.25
739.80	246.86
740.13	246.50
740.46	246.09
740.79	245.73
741.12	245.38
741.45	245.00
741.78	244.55
742.11	244.26
742.44	243.86
742.77	243.53
743.10	243.19
743.43	242.81
743.75	242.27
744.08	242.16
744.41	241.77
744.74	241.40
745.07	241.07
745.40	240.74
745.73	240.50
746.06	240.17
746.39	239.86
746.71	239.51
747.04	239.14
747.37	238.79
747.70	238.45
748.03	238.13
748.36	237.83
748.68	237.50
749.01	237.12
749.34	236.81
749.67	236.51
750.00	236.24
750.33	236.14
750.65	235.89
750.98	235.33
751.31	235.08
751.64	234.91
751.97	234.77
752.29	234.52
752.62	234.17
752.95	233.93
753.28	233.65
753.60	233.40
753.93	233.24
754.26	233.03
754.59	232.77
754.91	232.50
755.24	232.27
755.57	232.03
755.90	231.80
756.22	231.59
756.55	231.35
756.88	231.07
757.20	230.71
757.53	230.41
757.86	230.21
758.19	230.01
758.51	229.75
758.84	229.39
759.17	229.17
759.49	229.02
759.82	228.91
760.15	228.77
760.47	228.59
760.80	228.34
761.13	228.19
761.45	228.02
761.78	227.87
762.11	227.69
762.43	227.48
762.76	227.33
763.08	227.16
763.41	226.99
763.74	226.85
764.06	226.67
764.39	226.56
764.71	226.37
765.04	226.24
765.37	226.08
765.69	225.94
766.02	225.81
766.34	225.65
766.67	225.46
767.00	225.34
767.32	225.33
767.65	225.29
767.97	225.16
768.30	225.02
768.62	224.90
768.95	224.77
769.27	224.63
769.60	224.50
769.92	224.35
770.25	224.20
770.57	224.04
770.90	223.94
771.22	223.78
771.55	223.69
771.87	223.55
772.20	223.43
772.52	223.50
772.85	223.63
773.17	223.53
773.50	223.38
773.82	223.25
774.15	223.05
774.47	222.85
774.80	222.71
775.12	222.60
775.45	222.46
775.77	222.35
776.09	222.31
776.42	222.21
776.74	222.17
777.07	222.08
777.39	222.02
777.72	221.91
778.04	221.87
778.36	221.78
778.69	221.69
779.01	221.64
779.33	221.39
779.66	221.05
779.98	220.97
780.31	220.93
780.63	220.91
780.95	220.84
781.28	220.75
781.60	220.68
781.92	220.64
782.25	220.60
782.57	220.54
782.89	220.46
783.22	220.40
783.54	220.29
783.86	220.25
784.19	220.20
784.51	220.20
784.83	220.08
785.16	220.00
785.48	219.93
785.80	219.87
786.12	219.82
786.45	219.79
786.77	219.74
787.09	219.64
787.42	219.54
787.74	219.50
788.06	219.46
788.38	219.37
788.71	219.29
789.03	219.28
789.35	219.24
789.67	219.15
789.99	219.11
790.32	219.05
790.64	218.99
790.96	219.08
791.28	218.94
791.61	218.88
791.93	218.87
792.25	218.83
792.57	218.91
792.89	218.80
793.21	218.74
793.54	218.66
793.86	218.61
794.18	218.57
794.50	218.47
794.82	218.41
795.14	218.42
795.47	218.44
795.79	218.34
796.11	218.25
796.43	218.20
796.75	218.16
797.07	218.12
797.39	218.10
797.71	217.91
798.04	217.89
798.36	217.88
798.68	217.84
799.00	217.81
799.32	217.62
799.64	217.64
799.96	217.61
800.28	217.59
800.60	217.56
800.92	217.54
801.24	217.51
801.56	217.48
801.89	217.41
802.21	217.36
802.53	217.32
802.85	217.34
803.17	217.40
803.49	217.37
803.81	217.33
804.13	217.27
804.45	217.22
804.77	217.20
805.09	217.17
805.41	217.11
805.73	217.06
806.05	216.99
806.37	216.96
806.69	216.92
807.01	216.91
807.33	216.90
807.65	216.80
807.97	216.89
808.28	216.84
808.60	216.80
808.92	216.72
809.24	216.82
809.56	216.77
809.88	216.67
810.20	216.64
810.52	216.65
810.84	216.58
811.16	216.54
811.48	216.50
811.80	216.54
812.12	216.52
812.43	216.56
812.75	216.55
813.07	216.52
813.39	216.49
813.71	216.43
814.03	216.37
814.35	216.35
814.67	216.21
814.98	216.19
815.30	216.20
815.62	216.19
815.94	216.04
816.26	215.99
816.58	215.92
816.89	215.91
817.21	215.86
817.53	215.88
817.85	215.87
818.17	215.82
818.48	215.72
818.80	215.74
819.12	215.64
819.44	215.60
819.76	215.55
820.07	215.55
820.39	215.54
820.71	215.55
821.03	215.55
821.34	215.54
821.66	215.57
821.98	215.56
822.30	215.54
822.61	215.67
822.93	215.63
823.25	215.63
823.57	215.60
823.88	215.62
824.20	215.61
824.52	215.62
824.83	215.62
825.15	215.58
825.47	215.53
825.79	215.58
826.10	215.58
826.42	215.55
826.74	215.54
827.05	215.52
827.37	215.52
827.69	215.48
828.00	215.48
828.32	215.39
828.64	215.32
828.95	215.40
829.27	215.32
829.58	215.33
829.90	215.36
830.22	215.38
830.53	215.32
830.85	215.26
831.17	215.20
831.48	215.19
831.80	215.21
832.11	215.21
832.43	215.17
832.75	215.14
833.06	215.26
833.38	215.19
833.69	215.17
834.01	215.15
834.32	215.15
834.64	215.10
834.96	215.12
835.27	215.14
835.59	215.05
835.90	214.99
836.22	214.97
836.53	214.89
836.85	214.84
837.16	215.04
837.48	215.08
837.79	215.15
838.11	215.18
838.42	215.16
838.74	215.14
839.05	215.12
839.37	215.14
839.68	215.01
840.00	215.01
840.31	215.05
840.63	215.05
840.94	215.02
841.26	215.00
841.57	215.03
841.88	215.03
842.20	215.01
842.51	214.99
842.83	214.97
843.14	215.14
843.46	215.14
843.77	214.99
844.08	214.94
844.40	214.88
844.71	214.84
845.03	214.77
845.34	214.73
845.65	214.72
845.97	214.71
846.28	214.69
846.60	214.69
846.91	214.61
847.22	214.59
847.54	214.63
847.85	214.68
848.16	214.62
848.48	214.62
848.79	214.70
849.10	214.71
849.42	214.73
849.73	214.56
850.04	214.55
850.36	214.48
850.67	214.54
850.98	214.55
851.30	214.55
851.61	214.59
851.92	214.62
852.23	214.64
852.55	214.64
852.86	214.62
853.17	214.66
853.49	214.71
853.80	214.75
854.11	214.74
854.42	214.75
854.74	214.74
855.05	214.70
855.36	214.60
855.67	214.61
855.99	214.64
856.30	214.91
856.61	214.90
856.92	214.89
857.23	214.83
857.55	214.78
857.86	214.80
858.17	214.80
858.48	214.78
858.79	214.78
859.11	214.81
859.42	214.82
859.73	214.76
860.04	214.72
860.35	214.65
860.66	214.57
860.98	214.55
861.29	214.56
861.60	214.54
861.91	214.57
862.22	214.51
862.53	214.45
862.84	214.18
863.16	214.20
863.47	214.19
863.78	214.17
864.09	214.17
864.40	214.16
864.71	214.16
865.02	214.15
865.33	214.12
865.64	214.04
865.95	214.04
866.27	214.20
866.58	214.19
866.89	214.21
867.20	214.23
867.51	214.14
867.82	214.15
868.13	214.25
868.44	214.19
868.75	214.26
869.06	214.26
869.37	214.28
869.68	214.21
869.99	214.25
870.30	214.28
870.61	214.30
870.92	214.25
871.23	214.25
871.54	214.27
871.85	214.28
872.16	214.32
872.47	214.30
872.78	214.16
873.09	214.19
873.40	214.16
873.71	214.14
874.02	214.19
874.33	214.14
874.64	214.07
874.95	214.12
875.26	214.06
875.56	214.08
875.87	214.07
876.18	214.06
876.49	214.23
876.80	214.19
877.11	214.17
877.42	214.17
877.73	214.18
878.04	214.17
878.35	214.18
878.66	214.17
878.96	214.17
879.27	214.17
879.58	214.14
879.89	214.14
880.20	214.24
880.51	214.21
880.82	214.24
881.12	214.27
881.43	214.22
881.74	214.22
882.05	214.19
882.36	214.22
882.67	214.23
882.97	214.03
883.28	214.03
883.59	214.03
883.90	214.05
884.21	214.08
884.51	214.06
884.82	214.01
885.13	214.03
885.44	214.03
885.74	214.02
886.05	214.04
886.36	214.06
886.67	213.97
886.98	214.07
887.28	214.09
887.59	214.08
887.90	214.09
888.20	214.05
888.51	214.09
888.82	214.03
889.13	214.05
889.43	214.23
889.74	214.21
890.05	214.20
890.35	214.18
890.66	214.12
890.97	214.10
891.28	214.11
891.58	214.10
891.89	214.11
892.20	214.10
892.50	214.07
892.81	214.05
893.12	214.04
893.42	213.95
893.73	213.93
894.04	213.94
894.34	213.95
894.65	213.96
894.95	213.95
895.26	213.97
895.57	214.08
895.87	213.88
896.18	213.95
896.48	213.99
896.79	213.98
897.10	214.02
897.40	214.05
897.71	214.07
898.01	214.05
898.32	214.07
898.63	214.05
898.93	214.08
899.24	214.10
899.54	214.09
899.85	214.09
900.15	214.12
900.46	214.10
900.76	214.11
901.07	214.09
901.38	214.05
901.68	214.07
901.99	213.94
902.29	213.95
902.60	213.93
902.90	213.91
903.21	213.96
903.51	213.96
903.82	213.97
904.12	213.99
904.43	214.02
904.73	214.02
905.03	214.02
905.34	214.20
905.64	214.16
905.95	214.15
906.25	214.18
906.56	214.12
906.86	214.10
907.17	214.08
907.47	214.12
907.77	214.12
908.08	214.10
908.38	214.13
908.69	214.13
908.99	214.16
909.30	214.16
909.60	214.12
909.90	214.09
910.21	214.06
910.51	213.98
910.81	213.98
911.12	213.98
911.42	214.00
911.73	213.79
912.03	213.82
912.33	213.86
912.64	213.83
912.94	213.83
913.24	213.78
913.55	213.79
913.85	213.74
914.15	213.78
914.46	213.77
914.76	213.76
915.06	213.74
915.37	213.70
915.67	213.68
915.97	213.70
916.27	213.64
916.58	213.63
916.88	213.67
917.18	213.65
917.49	213.77
917.79	213.75
918.09	213.76
918.39	213.82
918.70	213.81
919.00	213.83
919.30	213.94
919.60	213.97
919.91	213.93
920.21	213.96
920.51	213.90
920.81	213.90
921.12	213.90
921.42	213.89
921.72	213.89
922.02	213.92
922.32	213.94
922.63	213.98
922.93	214.08
923.23	214.07
923.53	214.05
923.83	213.91
924.13	213.91
924.44	213.95
924.74	213.95
925.04	213.98
925.34	214.00
925.64	213.89
925.94	213.87
926.24	214.00
926.55	213.98
926.85	214.04
927.15	214.03
927.45	214.03
927.75	214.04
928.05	214.05
928.35	214.04
928.65	214.09
928.95	214.09
929.26	213.98
929.56	214.05
929.86	214.08
930.16	214.06
930.46	214.08
930.76	214.06
931.06	213.99
931.36	213.95
931.66	213.98
931.96	214.03
932.26	214.04
932.56	213.97
932.86	214.01
933.16	214.00
933.46	213.97
933.76	213.96
934.06	214.00
934.36	214.06
934.66	214.04
934.96	213.97
935.26	213.99
935.56	214.04
935.86	213.96
936.16	213.93
936.46	213.94
936.76	213.89
937.06	213.85
937.36	213.84
937.66	213.80
937.96	213.78
938.26	213.72
938.56	213.69
938.86	213.69
939.16	213.71
939.46	213.71
939.76	213.72
940.06	213.72
940.35	213.69
940.65	213.57
940.95	213.61
941.25	213.58
941.55	213.55
941.85	213.55
942.15	213.62
942.45	213.65
942.75	213.61
943.04	213.63
943.34	213.68
943.64	213.67
943.94	213.68
944.24	213.69
944.54	213.70
944.84	213.70
945.13	213.65
945.43	213.58
945.73	213.57
946.03	213.56
946.33	213.55
946.62	213.52
946.92	213.56
947.22	213.55
947.52	213.54
947.82	213.59
948.11	213.54
948.41	213.48
948.71	213.42
949.01	213.44
949.31	213.43
949.60	213.40
949.90	213.43
950.20	213.42
950.50	213.38
950.79	213.36
951.09	213.40
951.39	213.39
951.69	213.40
951.98	213.44
952.28	213.47
952.58	213.45
952.87	213.41
953.17	213.41
953.47	213.37
953.76	213.38
954.06	213.35
954.36	213.33
954.66	213.33
954.95	213.36
955.25	213.39
955.55	213.42
955.84	213.37
956.14	213.41
956.44	213.45
956.73	213.46
957.03	213.49
957.32	213.48
957.62	213.49
957.92	213.51
958.21	213.49
958.51	213.72
958.81	213.74
959.10	213.79
959.40	213.84
959.69	213.88
959.99	213.90
960.29	213.87
960.58	213.87
960.88	213.92
961.17	213.93
961.47	213.93
961.76	213.95
962.06	214.02
962.36	213.93
962.65	213.91
962.95	213.89
963.24	213.90
963.54	213.94
963.83	213.93
964.13	213.96
964.42	213.90
964.72	213.74
965.01	213.74
965.31	213.71
965.60	213.65
965.90	213.78
966.19	213.77
966.49	213.80
966.78	213.79
967.08	213.76
967.37	213.75
967.67	213.72
967.96	213.74
968.26	213.73
968.55	213.79
968.85	213.78
969.14	213.81
969.43	213.81
969.73	213.77
970.02	213.77
970.32	213.76
970.61	213.78
970.91	213.74
971.20	213.72
971.49	213.74
971.79	213.80
972.08	213.64
972.38	213.65
972.67	213.62
972.96	213.66
973.26	213.64
973.55	213.70
973.85	213.70
974.14	213.68
974.43	213.69
974.73	213.64
975.02	213.62
975.31	213.57
975.61	213.60
975.90	213.58
976.19	213.58
976.49	213.55
976.78	213.55
977.07	213.53
977.37	213.53
977.66	213.53
977.95	213.49
978.24	213.51
978.54	213.55
978.83	213.51
979.12	213.51
979.42	213.52
979.71	213.48
980.00	213.45
980.29	213.43
980.59	213.38
980.88	213.45
981.17	213.47
981.46	213.50
981.76	213.45
982.05	213.49
982.34	213.51
982.63	213.53
982.93	213.53
983.22	213.57
983.51	213.59
983.80	213.62
984.09	213.63
984.39	213.64
984.68	213.61
984.97	213.66
985.26	213.64
985.55	213.65
985.85	213.61
986.14	213.64
986.43	213.67
986.72	213.67
987.01	213.61
987.30	213.62
987.59	213.60
987.89	213.60
988.18	213.57
988.47	213.53
988.76	213.50
989.05	213.49
989.34	213.44
989.63	213.49
989.92	213.45
990.22	213.43
990.51	213.42
990.80	213.39
991.09	213.40
991.38	213.44
991.67	213.41
991.96	213.38
992.25	213.43
992.54	213.36
992.83	213.35
993.12	213.34
993.41	213.36
993.70	213.48
993.99	213.53
994.28	213.55
994.58	213.58
994.87	213.57
995.16	213.56
995.45	213.55
995.74	213.50
996.03	213.54
996.32	213.58
996.61	213.62
996.90	213.60
997.19	213.58
997.48	213.59
997.77	213.59
998.06	213.60
998.34	213.56
998.63	213.61
998.92	213.62
999.21	213.66
999.50	213.66
999.79	213.59
1000.08	213.55
1000.37	213.56
1000.66	213.55
1000.95	213.63
1001.24	213.65
1001.53	213.67
1001.82	213.66
1002.11	213.59
1002.40	213.59
1002.68	213.64
1002.97	213.81
1003.26	213.80
1003.55	213.75
1003.84	213.77
1004.13	213.88
1004.42	213.86
1004.71	213.84
1004.99	213.85
1005.28	213.88
1005.57	213.86
1005.86	213.83
1006.15	213.83
1006.44	213.80
1006.72	213.81
1007.01	213.74
1007.30	213.76
1007.59	213.74
1007.88	213.72
1008.17	213.73
1008.45	213.71
1008.74	213.59
1009.03	213.47
1009.32	213.46
1009.60	213.47
1009.89	213.42
1010.18	213.30
1010.47	213.31
1010.76	213.31
1011.04	213.29
1011.33	213.33
1011.62	213.33
1011.91	213.36
1012.19	213.34
1012.48	213.34
1012.77	213.33
1013.05	213.43
1013.34	213.47
1013.63	213.46
1013.92	213.47
1014.20	213.47
1014.49	213.48
1014.78	213.53
1015.06	213.50
1015.35	213.51
1015.64	213.54
1015.92	213.59
1016.21	213.59
1016.50	213.57
1016.78	213.60
1017.07	213.63
1017.36	213.58
1017.64	213.55
1017.93	213.54
1018.22	213.56
1018.50	213.54
1018.79	213.54
1019.08	213.44
1019.36	213.40
1019.65	213.40
1019.93	213.47
1020.22	213.47
1020.51	213.56
1020.79	213.54
1021.08	213.66
1021.36	212.75
1021.65	213.43
1021.94	213.23
1022.22	213.49
1022.51	213.08
1022.79	214.42
1023.08	213.43
1023.36	215.86
1023.65	213.19
>>>>>End Processed Spectral Data<<<<<
