SpectraSuite Data File
++++++++++++++++++++++++++++++++++++
Date: Tue Jan 29 16:20:59 EST 2013
User: group
Dark Spectrum Present: No
Reference Spectrum Present: No
Number of Sampled Component Spectra: 1
Spectrometers: USB2E7196
Integration Time (usec): 65000 (USB2E7196)
Spectra Averaged: 100 (USB2E7196)
Boxcar Smoothing: 10 (USB2E7196)
Correct for Electrical Dark: No (USB2E7196)
Strobe/Lamp Enabled: No (USB2E7196)
Correct for Detector Non-linearity: No (USB2E7196)
Correct for Stray Light: No (USB2E7196)
Number of Pixels in Processed Spectrum: 2048
>>>>>Begin Processed Spectral Data<<<<<
339.09	0.00
339.48	202.20
339.86	203.44
340.24	204.94
340.63	206.28
341.01	210.77
341.39	208.86
341.78	210.74
342.16	212.09
342.54	211.22
342.93	201.41
343.31	211.58
343.69	212.14
344.07	212.62
344.46	213.08
344.84	213.50
345.22	213.67
345.60	213.95
345.99	214.16
346.37	214.29
346.75	214.46
347.13	214.52
347.52	214.56
347.90	214.69
348.28	214.70
348.66	214.81
349.05	214.79
349.43	214.84
349.81	214.93
350.19	214.95
350.57	215.00
350.96	215.07
351.34	215.22
351.72	215.31
352.10	215.42
352.48	215.47
352.87	215.53
353.25	215.60
353.63	215.65
354.01	215.68
354.39	215.80
354.77	215.86
355.15	216.02
355.54	216.11
355.92	216.10
356.30	216.14
356.68	216.33
357.06	216.42
357.44	216.44
357.82	216.48
358.20	216.60
358.58	216.67
358.97	216.73
359.35	216.80
359.73	216.90
360.11	216.95
360.49	217.02
360.87	217.08
361.25	217.17
361.63	217.29
362.01	217.37
362.39	217.37
362.77	217.47
363.15	217.50
363.53	217.54
363.91	217.60
364.29	217.64
364.67	217.45
365.05	217.49
365.43	217.56
365.81	217.62
366.19	217.69
366.57	217.77
366.95	217.75
367.33	217.72
367.71	217.72
368.09	217.77
368.47	217.76
368.85	217.74
369.23	217.78
369.61	217.72
369.99	217.80
370.37	217.78
370.75	217.82
371.13	217.76
371.51	217.70
371.89	217.71
372.27	217.72
372.65	217.73
373.03	217.68
373.41	217.63
373.78	217.58
374.16	217.46
374.54	217.38
374.92	217.37
375.30	217.32
375.68	217.27
376.06	217.20
376.44	217.13
376.82	217.11
377.19	217.02
377.57	216.99
377.95	216.84
378.33	216.83
378.71	216.69
379.09	216.66
379.47	216.63
379.84	216.55
380.22	216.49
380.60	216.41
380.98	216.38
381.36	216.35
381.73	216.28
382.11	216.30
382.49	216.27
382.87	216.18
383.25	216.13
383.62	216.29
384.00	216.21
384.38	216.20
384.76	216.21
385.13	216.27
385.51	216.21
385.89	216.14
386.27	216.08
386.64	216.06
387.02	216.02
387.40	215.99
387.78	215.97
388.15	215.92
388.53	215.87
388.91	215.82
389.29	215.78
389.66	215.78
390.04	215.72
390.42	215.71
390.79	215.74
391.17	215.75
391.55	215.51
391.92	215.55
392.30	215.55
392.68	215.47
393.05	215.43
393.43	215.43
393.81	215.48
394.18	215.45
394.56	215.46
394.94	215.50
395.31	215.50
395.69	215.58
396.06	215.62
396.44	215.69
396.82	215.67
397.19	215.79
397.57	215.84
397.95	215.90
398.32	215.87
398.70	215.91
399.07	215.96
399.45	216.01
399.82	216.04
400.20	216.07
400.58	216.15
400.95	216.13
401.33	216.25
401.70	216.46
402.08	216.57
402.45	216.67
402.83	216.83
403.20	216.96
403.58	217.04
403.95	217.16
404.33	217.33
404.71	217.51
405.08	217.76
405.46	217.90
405.83	218.11
406.21	218.35
406.58	218.60
406.96	218.81
407.33	219.10
407.70	219.42
408.08	219.88
408.45	220.21
408.83	220.62
409.20	220.94
409.58	221.21
409.95	221.67
410.33	222.14
410.70	222.54
411.08	223.11
411.45	223.69
411.82	224.28
412.20	224.93
412.57	225.76
412.95	226.36
413.32	227.17
413.69	227.98
414.07	228.87
414.44	229.82
414.82	230.84
415.19	231.99
415.56	233.13
415.94	234.32
416.31	235.73
416.68	237.12
417.06	238.68
417.43	240.16
417.81	241.88
418.18	243.65
418.55	245.58
418.93	247.55
419.30	249.60
419.67	251.80
420.04	254.04
420.42	256.39
420.79	259.14
421.16	261.91
421.54	264.79
421.91	267.73
422.28	270.83
422.66	274.08
423.03	277.31
423.40	280.65
423.77	284.17
424.15	287.82
424.52	291.60
424.89	295.75
425.26	299.83
425.64	303.67
426.01	307.88
426.38	312.31
426.75	316.79
427.13	321.51
427.50	326.42
427.87	331.56
428.24	336.74
428.61	341.68
428.99	347.13
429.36	353.10
429.73	358.95
430.10	364.74
430.47	370.71
430.85	376.92
431.22	383.52
431.59	390.55
431.96	397.29
432.33	404.72
432.70	411.87
433.08	420.24
433.45	428.20
433.82	436.07
434.19	444.82
434.56	453.41
434.93	461.64
435.30	469.85
435.68	478.93
436.05	487.78
436.42	496.52
436.79	504.59
437.16	513.18
437.53	522.39
437.90	531.41
438.27	540.23
438.64	549.29
439.01	557.70
439.38	565.22
439.75	572.50
440.13	580.84
440.50	588.72
440.87	595.11
441.24	601.65
441.61	608.90
441.98	614.24
442.35	620.48
442.72	626.67
443.09	632.60
443.46	636.26
443.83	638.72
444.20	640.98
444.57	644.10
444.94	645.54
445.31	646.87
445.68	648.23
446.05	648.84
446.42	648.14
446.79	647.26
447.16	646.13
447.53	645.29
447.90	641.96
448.27	638.70
448.64	634.15
449.01	630.86
449.37	625.09
449.74	619.46
450.11	612.57
450.48	605.32
450.85	597.96
451.22	591.53
451.59	585.45
451.96	579.59
452.33	571.77
452.70	564.72
453.07	556.31
453.43	547.77
453.80	539.64
454.17	531.73
454.54	524.23
454.91	516.21
455.28	508.37
455.65	501.00
456.02	493.66
456.38	487.38
456.75	479.62
457.12	473.18
457.49	466.77
457.86	460.77
458.23	455.41
458.59	449.58
458.96	443.66
459.33	438.44
459.70	433.13
460.07	428.92
460.43	424.15
460.80	419.62
461.17	415.72
461.54	411.59
461.91	407.59
462.27	403.52
462.64	400.12
463.01	396.38
463.38	392.80
463.74	389.07
464.11	385.86
464.48	383.06
464.85	379.96
465.21	377.55
465.58	374.93
465.95	371.81
466.32	369.21
466.68	366.69
467.05	364.11
467.42	361.61
467.78	359.02
468.15	356.52
468.52	354.69
468.88	352.23
469.25	350.00
469.62	348.22
469.98	346.31
470.35	344.50
470.72	342.79
471.08	341.00
471.45	339.51
471.82	337.98
472.18	336.34
472.55	335.15
472.92	333.81
473.28	332.62
473.65	331.53
474.02	330.49
474.38	329.64
474.75	328.94
475.11	328.17
475.48	327.60
475.85	327.12
476.21	326.61
476.58	326.30
476.94	326.10
477.31	325.85
477.67	325.64
478.04	325.49
478.41	325.51
478.77	325.73
479.14	325.71
479.50	325.84
479.87	326.16
480.23	326.45
480.60	326.68
480.96	326.99
481.33	327.57
481.69	328.15
482.06	328.66
482.42	329.17
482.79	329.74
483.15	330.49
483.52	331.52
483.88	332.45
484.25	333.40
484.61	334.40
484.98	335.44
485.34	336.67
485.71	338.08
486.07	339.49
486.44	340.80
486.80	342.41
487.17	344.04
487.53	345.86
487.90	347.75
488.26	349.80
488.62	351.97
488.99	354.04
489.35	356.16
489.72	358.52
490.08	361.03
490.44	363.65
490.81	366.38
491.17	369.03
491.54	372.02
491.90	375.10
492.26	378.35
492.63	381.78
492.99	385.32
493.36	389.00
493.72	392.89
494.08	396.92
494.45	401.20
494.81	405.65
495.17	410.10
495.54	414.88
495.90	419.73
496.26	424.62
496.63	429.85
496.99	435.28
497.35	440.81
497.72	446.64
498.08	452.57
498.44	458.67
498.80	465.14
499.17	471.61
499.53	478.34
499.89	485.27
500.26	492.28
500.62	499.42
500.98	506.82
501.34	514.37
501.71	522.13
502.07	529.96
502.43	537.94
502.79	546.14
503.16	554.56
503.52	563.23
503.88	572.07
504.24	581.09
504.60	590.23
504.97	599.54
505.33	608.91
505.69	618.72
506.05	628.67
506.41	638.56
506.78	648.75
507.14	659.05
507.50	669.52
507.86	680.27
508.22	691.06
508.59	701.76
508.95	712.84
509.31	724.12
509.67	735.70
510.03	747.21
510.39	759.05
510.75	770.91
511.12	782.94
511.48	795.10
511.84	807.44
512.20	819.79
512.56	832.53
512.92	845.38
513.28	858.17
513.64	871.01
514.00	883.89
514.37	896.85
514.73	910.05
515.09	923.15
515.45	936.09
515.81	949.25
516.17	962.74
516.53	976.10
516.89	989.37
517.25	1002.61
517.61	1016.19
517.97	1029.62
518.33	1042.81
518.69	1056.29
519.05	1070.07
519.41	1083.75
519.77	1097.66
520.13	1110.98
520.49	1124.21
520.85	1137.80
521.21	1151.25
521.57	1164.97
521.93	1178.22
522.29	1192.05
522.65	1205.83
523.01	1219.58
523.37	1232.86
523.73	1246.23
524.09	1259.53
524.45	1272.93
524.81	1286.43
525.17	1299.86
525.53	1313.04
525.89	1326.39
526.25	1339.59
526.61	1352.34
526.97	1365.52
527.33	1378.61
527.68	1392.14
528.04	1405.77
528.40	1418.83
528.76	1432.26
529.12	1445.20
529.48	1458.44
529.84	1470.74
530.20	1483.44
530.56	1496.02
530.91	1509.25
531.27	1522.12
531.63	1534.77
531.99	1547.56
532.35	1559.86
532.71	1572.30
533.07	1585.19
533.42	1597.50
533.78	1609.67
534.14	1621.87
534.50	1633.24
534.86	1644.76
535.21	1655.64
535.57	1667.15
535.93	1678.48
536.29	1689.51
536.65	1701.06
537.00	1712.15
537.36	1723.47
537.72	1734.50
538.08	1745.99
538.44	1756.94
538.79	1767.97
539.15	1778.81
539.51	1789.72
539.87	1801.02
540.22	1811.73
540.58	1822.63
540.94	1833.58
541.29	1843.86
541.65	1853.69
542.01	1864.10
542.37	1874.22
542.72	1884.41
543.08	1894.10
543.44	1904.53
543.79	1913.84
544.15	1923.25
544.51	1933.21
544.87	1943.02
545.22	1952.25
545.58	1961.11
545.94	1970.11
546.29	1978.66
546.65	1987.05
547.01	1995.27
547.36	2002.89
547.72	2010.73
548.07	2018.35
548.43	2026.13
548.79	2034.04
549.14	2042.14
549.50	2050.68
549.86	2058.50
550.21	2065.97
550.57	2073.73
550.92	2080.49
551.28	2088.05
551.64	2095.33
551.99	2102.71
552.35	2109.93
552.70	2116.82
553.06	2123.42
553.41	2129.58
553.77	2136.12
554.13	2142.67
554.48	2149.64
554.84	2156.82
555.19	2163.36
555.55	2169.91
555.90	2176.22
556.26	2182.98
556.61	2189.14
556.97	2193.93
557.32	2199.81
557.68	2206.27
558.03	2212.05
558.39	2217.43
558.74	2223.50
559.10	2229.09
559.45	2234.75
559.81	2240.39
560.16	2245.97
560.52	2251.89
560.87	2258.43
561.23	2264.35
561.58	2270.98
561.94	2276.29
562.29	2280.95
562.64	2287.15
563.00	2292.81
563.35	2298.34
563.71	2304.19
564.06	2309.77
564.42	2315.70
564.77	2320.86
565.12	2326.19
565.48	2331.24
565.83	2336.97
566.19	2342.34
566.54	2347.74
566.89	2352.55
567.25	2357.24
567.60	2362.96
567.96	2368.20
568.31	2372.78
568.66	2377.30
569.02	2381.41
569.37	2385.33
569.72	2390.06
570.08	2393.59
570.43	2396.78
570.78	2400.00
571.14	2402.59
571.49	2405.98
571.84	2409.64
572.20	2412.70
572.55	2415.77
572.90	2418.29
573.26	2421.07
573.61	2423.74
573.96	2425.98
574.31	2428.09
574.67	2430.13
575.02	2431.05
575.37	2432.60
575.72	2433.36
576.08	2434.89
576.43	2435.00
576.78	2435.54
577.13	2437.08
577.49	2438.28
577.84	2439.62
578.19	2441.01
578.54	2441.83
578.90	2442.58
579.25	2442.68
579.60	2442.73
579.95	2442.09
580.30	2442.23
580.66	2441.73
581.01	2440.17
581.36	2437.96
581.71	2436.60
582.06	2435.60
582.42	2434.89
582.77	2432.83
583.12	2431.33
583.47	2430.08
583.82	2429.66
584.17	2428.48
584.53	2426.62
584.88	2424.86
585.23	2423.01
585.58	2421.03
585.93	2419.11
586.28	2417.15
586.63	2414.71
586.98	2412.62
587.34	2410.82
587.69	2408.53
588.04	2406.68
588.39	2405.36
588.74	2402.99
589.09	2400.48
589.44	2397.30
589.79	2394.92
590.14	2393.06
590.49	2390.38
590.84	2386.65
591.19	2383.59
591.54	2380.50
591.89	2376.52
592.25	2373.32
592.60	2369.08
592.95	2364.83
593.30	2360.50
593.65	2356.24
594.00	2351.94
594.35	2348.87
594.70	2344.11
595.05	2339.60
595.40	2334.04
595.75	2328.29
596.10	2324.77
596.45	2319.91
596.80	2315.42
597.15	2310.16
597.50	2304.09
597.85	2299.10
598.19	2293.91
598.54	2288.11
598.89	2282.88
599.24	2278.24
599.59	2271.94
599.94	2266.25
600.29	2260.43
600.64	2254.57
600.99	2247.67
601.34	2242.20
601.69	2235.21
602.04	2228.97
602.39	2222.32
602.74	2216.19
603.08	2210.64
603.43	2204.01
603.78	2197.07
604.13	2190.05
604.48	2182.89
604.83	2176.84
605.18	2170.83
605.53	2163.77
605.87	2156.63
606.22	2149.67
606.57	2141.75
606.92	2133.79
607.27	2126.71
607.62	2119.96
607.96	2113.04
608.31	2106.45
608.66	2098.56
609.01	2090.84
609.36	2083.66
609.70	2075.97
610.05	2068.30
610.40	2059.89
610.75	2051.65
611.10	2044.02
611.44	2034.92
611.79	2026.11
612.14	2016.16
612.49	2005.35
612.83	1996.05
613.18	1986.80
613.53	1977.44
613.88	1967.60
614.22	1958.94
614.57	1949.12
614.92	1938.46
615.27	1928.11
615.61	1918.03
615.96	1908.31
616.31	1898.66
616.65	1889.04
617.00	1879.15
617.35	1869.28
617.70	1859.48
618.04	1849.32
618.39	1839.08
618.74	1829.50
619.08	1819.78
619.43	1811.00
619.78	1802.50
620.12	1793.85
620.47	1784.19
620.82	1773.76
621.16	1764.07
621.51	1754.06
621.85	1744.12
622.20	1733.68
622.55	1723.12
622.89	1713.02
623.24	1703.16
623.59	1693.28
623.93	1683.19
624.28	1673.38
624.62	1663.17
624.97	1652.79
625.32	1642.91
625.66	1633.82
626.01	1624.82
626.35	1615.26
626.70	1605.05
627.04	1595.02
627.39	1584.66
627.73	1575.27
628.08	1566.29
628.43	1556.50
628.77	1547.25
629.12	1538.21
629.46	1530.28
629.81	1521.71
630.15	1512.10
630.50	1502.28
630.84	1491.61
631.19	1481.54
631.53	1472.12
631.88	1461.96
632.22	1451.87
632.57	1442.41
632.91	1432.17
633.26	1422.15
633.60	1412.59
633.95	1403.16
634.29	1393.64
634.64	1384.25
634.98	1374.20
635.32	1364.73
635.67	1356.23
636.01	1346.77
636.36	1336.96
636.70	1327.28
637.05	1317.88
637.39	1308.95
637.73	1300.15
638.08	1292.58
638.42	1284.22
638.77	1275.22
639.11	1266.77
639.45	1258.95
639.80	1250.21
640.14	1241.48
640.49	1232.66
640.83	1223.79
641.17	1215.50
641.52	1207.09
641.86	1198.37
642.20	1190.35
642.55	1181.61
642.89	1172.58
643.23	1163.84
643.58	1155.61
643.92	1146.42
644.26	1137.61
644.61	1128.98
644.95	1120.08
645.29	1110.79
645.64	1101.50
645.98	1092.92
646.32	1084.89
646.66	1076.13
647.01	1067.71
647.35	1059.31
647.69	1050.83
648.04	1042.28
648.38	1033.30
648.72	1024.51
649.06	1015.93
649.41	1007.60
649.75	999.56
650.09	991.62
650.43	983.44
650.78	974.98
651.12	967.23
651.46	959.66
651.80	952.34
652.14	944.93
652.49	937.19
652.83	929.76
653.17	921.99
653.51	914.19
653.85	906.90
654.20	899.61
654.54	892.09
654.88	884.73
655.22	877.50
655.56	870.46
655.90	863.56
656.25	856.84
656.59	849.95
656.93	842.83
657.27	835.57
657.61	828.54
657.95	822.37
658.29	816.36
658.64	810.21
658.98	803.64
659.32	797.13
659.66	790.84
660.00	784.57
660.34	778.46
660.68	772.33
661.02	765.84
661.36	759.71
661.70	753.82
662.05	748.08
662.39	742.53
662.73	737.07
663.07	731.60
663.41	725.93
663.75	720.09
664.09	714.36
664.43	708.88
664.77	703.52
665.11	697.69
665.45	691.78
665.79	685.84
666.13	680.12
666.47	674.50
666.81	669.03
667.15	663.53
667.49	658.27
667.83	653.00
668.17	647.75
668.51	642.61
668.85	637.62
669.19	632.69
669.53	627.55
669.87	622.33
670.21	617.54
670.55	612.76
670.89	608.28
671.23	603.97
671.57	599.55
671.91	595.18
672.25	590.93
672.58	586.70
672.92	582.58
673.26	578.62
673.60	574.66
673.94	570.80
674.28	567.13
674.62	563.39
674.96	559.55
675.30	556.04
675.64	552.34
675.97	548.73
676.31	545.10
676.65	541.48
676.99	538.08
677.33	534.16
677.67	530.47
678.01	526.61
678.34	522.92
678.68	519.35
679.02	515.73
679.36	511.94
679.70	508.28
680.04	504.67
680.37	501.16
680.71	497.79
681.05	494.52
681.39	491.22
681.73	487.93
682.06	484.87
682.40	481.66
682.74	478.51
683.08	475.29
683.42	472.02
683.75	468.93
684.09	465.85
684.43	463.00
684.77	460.07
685.10	457.17
685.44	454.23
685.78	451.27
686.12	448.51
686.45	445.78
686.79	443.10
687.13	440.59
687.46	437.95
687.80	435.31
688.14	432.47
688.48	429.83
688.81	427.18
689.15	424.59
689.49	421.98
689.82	419.37
690.16	416.74
690.50	414.31
690.83	411.83
691.17	409.29
691.51	406.81
691.84	404.54
692.18	402.32
692.52	400.07
692.85	397.94
693.19	395.73
693.52	393.59
693.86	391.31
694.20	389.06
694.53	386.93
694.87	384.67
695.21	382.56
695.54	380.38
695.88	378.18
696.21	375.94
696.55	373.86
696.88	371.78
697.22	369.78
697.56	367.83
697.89	365.93
698.23	364.09
698.56	362.28
698.90	360.43
699.23	358.54
699.57	356.65
699.90	354.73
700.24	352.91
700.58	351.10
700.91	349.43
701.25	347.86
701.58	346.21
701.92	344.66
702.25	343.04
702.59	341.45
702.92	339.91
703.26	338.36
703.59	336.87
703.93	335.61
704.26	334.21
704.60	332.69
704.93	331.21
705.26	329.75
705.60	328.28
705.93	326.80
706.27	325.43
706.60	324.22
706.94	323.04
707.27	321.68
707.61	320.37
707.94	319.04
708.27	317.51
708.61	316.02
708.94	314.61
709.28	313.34
709.61	312.02
709.94	310.81
710.28	309.64
710.61	308.42
710.95	307.00
711.28	305.87
711.61	304.71
711.95	303.60
712.28	302.41
712.61	301.18
712.95	300.12
713.28	299.07
713.61	297.88
713.95	296.68
714.28	295.64
714.61	294.61
714.95	293.59
715.28	292.59
715.61	291.58
715.95	290.66
716.28	289.69
716.61	288.74
716.95	287.73
717.28	286.74
717.61	285.78
717.94	284.87
718.28	283.90
718.61	283.00
718.94	282.04
719.27	281.16
719.61	280.40
719.94	279.53
720.27	278.56
720.60	277.68
720.94	276.89
721.27	276.12
721.60	275.42
721.93	274.70
722.27	274.05
722.60	273.39
722.93	272.67
723.26	272.00
723.59	271.33
723.93	270.70
724.26	270.05
724.59	269.39
724.92	268.78
725.25	268.19
725.59	267.61
725.92	267.13
726.25	266.62
726.58	266.02
726.91	265.43
727.24	264.92
727.57	264.38
727.91	263.75
728.24	263.25
728.57	262.66
728.90	262.09
729.23	261.50
729.56	261.08
729.89	260.52
730.22	259.96
730.55	259.43
730.89	258.92
731.22	258.40
731.55	257.89
731.88	257.39
732.21	256.87
732.54	256.36
732.87	255.83
733.20	255.25
733.53	254.80
733.86	254.38
734.19	253.87
734.52	253.49
734.85	253.20
735.18	252.70
735.51	252.32
735.84	251.89
736.17	251.48
736.50	250.92
736.83	250.78
737.16	250.35
737.49	249.99
737.82	249.60
738.15	249.26
738.48	248.88
738.81	248.46
739.14	248.05
739.47	247.65
739.80	247.27
740.13	246.95
740.46	246.53
740.79	246.09
741.12	245.72
741.45	245.33
741.78	244.89
742.11	244.62
742.44	244.22
742.77	243.92
743.10	243.57
743.43	243.24
743.75	242.66
744.08	242.60
744.41	242.23
744.74	241.83
745.07	241.45
745.40	241.15
745.73	240.93
746.06	240.63
746.39	240.36
746.71	240.01
747.04	239.66
747.37	239.34
747.70	239.07
748.03	238.78
748.36	238.50
748.68	238.22
749.01	237.81
749.34	237.53
749.67	237.25
750.00	237.00
750.33	236.84
750.65	236.59
750.98	236.06
751.31	235.81
751.64	235.60
751.97	235.45
752.29	235.18
752.62	234.82
752.95	234.51
753.28	234.21
753.60	233.98
753.93	233.79
754.26	233.58
754.59	233.32
754.91	233.07
755.24	232.83
755.57	232.54
755.90	232.36
756.22	232.13
756.55	231.87
756.88	231.60
757.20	231.29
757.53	231.02
757.86	230.82
758.19	230.60
758.51	230.41
758.84	230.10
759.17	229.90
759.49	229.74
759.82	229.69
760.15	229.53
760.47	229.33
760.80	229.07
761.13	228.95
761.45	228.74
761.78	228.56
762.11	228.37
762.43	228.19
762.76	227.99
763.08	227.85
763.41	227.71
763.74	227.58
764.06	227.42
764.39	227.27
764.71	227.10
765.04	226.93
765.37	226.76
765.69	226.61
766.02	226.45
766.34	226.29
766.67	226.05
767.00	225.95
767.32	225.97
767.65	225.99
767.97	225.81
768.30	225.69
768.62	225.58
768.95	225.45
769.27	225.37
769.60	225.29
769.92	225.12
770.25	224.97
770.57	224.85
770.90	224.72
771.22	224.60
771.55	224.49
771.87	224.37
772.20	224.24
772.52	224.32
772.85	224.48
773.17	224.39
773.50	224.27
773.82	224.13
774.15	223.88
774.47	223.68
774.80	223.60
775.12	223.51
775.45	223.42
775.77	223.34
776.09	223.25
776.42	223.17
776.74	223.14
777.07	223.04
777.39	222.94
777.72	222.85
778.04	222.82
778.36	222.73
778.69	222.68
779.01	222.61
779.33	222.33
779.66	221.98
779.98	221.91
780.31	221.84
780.63	221.87
780.95	221.83
781.28	221.76
781.60	221.63
781.92	221.55
782.25	221.51
782.57	221.45
782.89	221.36
783.22	221.27
783.54	221.16
783.86	221.09
784.19	221.02
784.51	221.02
784.83	220.88
785.16	220.83
785.48	220.74
785.80	220.68
786.12	220.66
786.45	220.63
786.77	220.59
787.09	220.53
787.42	220.38
787.74	220.32
788.06	220.26
788.38	220.20
788.71	220.12
789.03	220.03
789.35	219.98
789.67	219.92
789.99	219.88
790.32	219.80
790.64	219.80
790.96	219.89
791.28	219.74
791.61	219.73
791.93	219.70
792.25	219.64
792.57	219.76
792.89	219.66
793.21	219.63
793.54	219.54
793.86	219.47
794.18	219.42
794.50	219.35
794.82	219.31
795.14	219.31
795.47	219.31
795.79	219.30
796.11	219.23
796.43	219.16
796.75	219.12
797.07	219.10
797.39	219.05
797.71	218.87
798.04	218.86
798.36	218.84
798.68	218.77
799.00	218.76
799.32	218.61
799.64	218.62
799.96	218.56
800.28	218.57
800.60	218.51
800.92	218.50
801.24	218.45
801.56	218.43
801.89	218.37
802.21	218.34
802.53	218.27
802.85	218.31
803.17	218.40
803.49	218.29
803.81	218.22
804.13	218.16
804.45	218.11
804.77	218.09
805.09	218.03
805.41	218.01
805.73	217.96
806.05	217.88
806.37	217.84
806.69	217.82
807.01	217.76
807.33	217.78
807.65	217.70
807.97	217.79
808.28	217.76
808.60	217.72
808.92	217.65
809.24	217.75
809.56	217.63
809.88	217.51
810.20	217.50
810.52	217.55
810.84	217.51
811.16	217.45
811.48	217.40
811.80	217.46
812.12	217.42
812.43	217.43
812.75	217.43
813.07	217.40
813.39	217.38
813.71	217.34
814.03	217.27
814.35	217.24
814.67	217.08
814.98	217.00
815.30	217.02
815.62	216.99
815.94	216.85
816.26	216.88
816.58	216.85
816.89	216.87
817.21	216.77
817.53	216.76
817.85	216.79
818.17	216.75
818.48	216.65
818.80	216.67
819.12	216.61
819.44	216.51
819.76	216.46
820.07	216.44
820.39	216.41
820.71	216.41
821.03	216.38
821.34	216.36
821.66	216.38
821.98	216.39
822.30	216.36
822.61	216.45
822.93	216.39
823.25	216.36
823.57	216.30
823.88	216.33
824.20	216.34
824.52	216.33
824.83	216.32
825.15	216.29
825.47	216.25
825.79	216.26
826.10	216.25
826.42	216.25
826.74	216.24
827.05	216.25
827.37	216.28
827.69	216.28
828.00	216.28
828.32	216.27
828.64	216.21
828.95	216.30
829.27	216.25
829.58	216.22
829.90	216.24
830.22	216.27
830.53	216.24
830.85	216.22
831.17	216.17
831.48	216.17
831.80	216.16
832.11	216.15
832.43	216.08
832.75	216.11
833.06	216.19
833.38	216.11
833.69	216.06
834.01	216.03
834.32	216.01
834.64	215.99
834.96	216.00
835.27	215.95
835.59	215.87
835.90	215.78
836.22	215.78
836.53	215.73
836.85	215.71
837.16	215.91
837.48	215.86
837.79	215.93
838.11	215.92
838.42	215.89
838.74	215.91
839.05	215.89
839.37	215.84
839.68	215.71
840.00	215.73
840.31	215.78
840.63	215.76
840.94	215.73
841.26	215.71
841.57	215.66
841.88	215.72
842.20	215.67
842.51	215.69
842.83	215.69
843.14	215.87
843.46	215.87
843.77	215.72
844.08	215.75
844.40	215.66
844.71	215.60
845.03	215.60
845.34	215.56
845.65	215.57
845.97	215.61
846.28	215.65
846.60	215.65
846.91	215.60
847.22	215.58
847.54	215.61
847.85	215.61
848.16	215.61
848.48	215.54
848.79	215.67
849.10	215.66
849.42	215.65
849.73	215.45
850.04	215.42
850.36	215.34
850.67	215.37
850.98	215.39
851.30	215.41
851.61	215.42
851.92	215.42
852.23	215.48
852.55	215.49
852.86	215.46
853.17	215.48
853.49	215.50
853.80	215.56
854.11	215.58
854.42	215.62
854.74	215.59
855.05	215.63
855.36	215.49
855.67	215.45
855.99	215.47
856.30	215.68
856.61	215.69
856.92	215.72
857.23	215.70
857.55	215.68
857.86	215.65
858.17	215.68
858.48	215.68
858.79	215.62
859.11	215.64
859.42	215.64
859.73	215.63
860.04	215.61
860.35	215.51
860.66	215.45
860.98	215.43
861.29	215.47
861.60	215.45
861.91	215.51
862.22	215.55
862.53	215.48
862.84	215.24
863.16	215.27
863.47	215.22
863.78	215.18
864.09	215.21
864.40	215.22
864.71	215.20
865.02	215.19
865.33	215.15
865.64	215.08
865.95	215.03
866.27	215.16
866.58	215.15
866.89	215.21
867.20	215.17
867.51	215.12
867.82	215.11
868.13	215.15
868.44	215.09
868.75	215.09
869.06	215.12
869.37	215.15
869.68	215.10
869.99	215.12
870.30	215.15
870.61	215.13
870.92	215.08
871.23	215.07
871.54	215.10
871.85	215.14
872.16	215.17
872.47	215.17
872.78	215.04
873.09	215.07
873.40	215.03
873.71	215.05
874.02	215.08
874.33	215.04
874.64	214.99
874.95	215.02
875.26	214.99
875.56	214.96
875.87	214.94
876.18	214.94
876.49	215.12
876.80	215.11
877.11	215.11
877.42	215.12
877.73	215.15
878.04	215.11
878.35	215.12
878.66	215.13
878.96	215.15
879.27	215.15
879.58	215.10
879.89	215.10
880.20	215.17
880.51	215.15
880.82	215.14
881.12	215.16
881.43	215.13
881.74	215.09
882.05	215.13
882.36	215.17
882.67	215.15
882.97	214.94
883.28	214.91
883.59	214.90
883.90	214.96
884.21	214.96
884.51	214.96
884.82	214.91
885.13	214.89
885.44	214.87
885.74	214.88
886.05	214.88
886.36	214.88
886.67	214.81
886.98	214.90
887.28	214.94
887.59	214.92
887.90	214.91
888.20	214.90
888.51	214.89
888.82	214.84
889.13	214.85
889.43	215.04
889.74	215.01
890.05	215.03
890.35	215.02
890.66	214.97
890.97	214.94
891.28	214.93
891.58	214.92
891.89	214.93
892.20	214.88
892.50	214.86
892.81	214.87
893.12	214.84
893.42	214.75
893.73	214.74
894.04	214.72
894.34	214.75
894.65	214.76
894.95	214.76
895.26	214.78
895.57	214.89
895.87	214.67
896.18	214.73
896.48	214.71
896.79	214.69
897.10	214.68
897.40	214.73
897.71	214.75
898.01	214.78
898.32	214.81
898.63	214.81
898.93	214.84
899.24	214.85
899.54	214.87
899.85	214.86
900.15	214.87
900.46	214.90
900.76	214.89
901.07	214.88
901.38	214.88
901.68	214.88
901.99	214.77
902.29	214.78
902.60	214.75
902.90	214.73
903.21	214.72
903.51	214.72
903.82	214.77
904.12	214.79
904.43	214.81
904.73	214.77
905.03	214.80
905.34	214.99
905.64	214.99
905.95	215.00
906.25	215.01
906.56	215.00
906.86	215.00
907.17	215.03
907.47	215.06
907.77	215.03
908.08	214.98
908.38	215.02
908.69	215.05
908.99	215.10
909.30	215.12
909.60	215.12
909.90	215.16
910.21	215.07
910.51	215.03
910.81	215.01
911.12	215.05
911.42	215.06
911.73	214.86
912.03	214.87
912.33	214.90
912.64	214.92
912.94	214.89
913.24	214.84
913.55	214.76
913.85	214.76
914.15	214.79
914.46	214.82
914.76	214.80
915.06	214.76
915.37	214.71
915.67	214.70
915.97	214.72
916.27	214.65
916.58	214.71
916.88	214.69
917.18	214.69
917.49	214.76
917.79	214.73
918.09	214.78
918.39	214.80
918.70	214.77
919.00	214.77
919.30	214.91
919.60	214.93
919.91	214.96
920.21	214.97
920.51	214.93
920.81	214.96
921.12	214.97
921.42	215.00
921.72	215.02
922.02	215.00
922.32	215.02
922.63	215.05
922.93	215.11
923.23	215.13
923.53	215.08
923.83	214.99
924.13	215.03
924.44	214.98
924.74	214.99
925.04	215.03
925.34	215.00
925.64	214.88
925.94	214.87
926.24	214.96
926.55	214.93
926.85	214.97
927.15	214.96
927.45	214.95
927.75	214.93
928.05	214.95
928.35	214.94
928.65	214.97
928.95	214.97
929.26	214.92
929.56	214.96
929.86	215.00
930.16	214.95
930.46	214.91
930.76	214.93
931.06	214.89
931.36	214.82
931.66	214.85
931.96	214.88
932.26	214.87
932.56	214.77
932.86	214.77
933.16	214.78
933.46	214.72
933.76	214.70
934.06	214.73
934.36	214.83
934.66	214.84
934.96	214.80
935.26	214.78
935.56	214.79
935.86	214.74
936.16	214.72
936.46	214.74
936.76	214.74
937.06	214.73
937.36	214.72
937.66	214.76
937.96	214.75
938.26	214.73
938.56	214.75
938.86	214.78
939.16	214.84
939.46	214.83
939.76	214.86
940.06	214.87
940.35	214.84
940.65	214.71
940.95	214.70
941.25	214.69
941.55	214.69
941.85	214.69
942.15	214.73
942.45	214.79
942.75	214.75
943.04	214.76
943.34	214.77
943.64	214.75
943.94	214.73
944.24	214.74
944.54	214.76
944.84	214.73
945.13	214.69
945.43	214.64
945.73	214.63
946.03	214.62
946.33	214.59
946.62	214.54
946.92	214.56
947.22	214.58
947.52	214.57
947.82	214.59
948.11	214.55
948.41	214.52
948.71	214.46
949.01	214.47
949.31	214.46
949.60	214.45
949.90	214.49
950.20	214.44
950.50	214.43
950.79	214.37
951.09	214.42
951.39	214.45
951.69	214.43
951.98	214.46
952.28	214.45
952.58	214.46
952.87	214.48
953.17	214.51
953.47	214.47
953.76	214.49
954.06	214.46
954.36	214.43
954.66	214.42
954.95	214.46
955.25	214.49
955.55	214.49
955.84	214.43
956.14	214.48
956.44	214.51
956.73	214.46
957.03	214.51
957.32	214.49
957.62	214.43
957.92	214.45
958.21	214.45
958.51	214.70
958.81	214.74
959.10	214.78
959.40	214.77
959.69	214.81
959.99	214.80
960.29	214.82
960.58	214.84
960.88	214.92
961.17	214.90
961.47	214.90
961.76	214.89
962.06	214.95
962.36	214.87
962.65	214.90
962.95	214.91
963.24	214.90
963.54	214.91
963.83	214.97
964.13	215.00
964.42	214.94
964.72	214.76
965.01	214.75
965.31	214.73
965.60	214.68
965.90	214.77
966.19	214.73
966.49	214.75
966.78	214.74
967.08	214.70
967.37	214.73
967.67	214.71
967.96	214.77
968.26	214.74
968.55	214.77
968.85	214.73
969.14	214.75
969.43	214.72
969.73	214.73
970.02	214.70
970.32	214.64
970.61	214.64
970.91	214.58
971.20	214.54
971.49	214.52
971.79	214.57
972.08	214.43
972.38	214.43
972.67	214.43
972.96	214.48
973.26	214.44
973.55	214.53
973.85	214.49
974.14	214.44
974.43	214.47
974.73	214.43
975.02	214.42
975.31	214.40
975.61	214.41
975.90	214.36
976.19	214.34
976.49	214.38
976.78	214.39
977.07	214.36
977.37	214.37
977.66	214.37
977.95	214.36
978.24	214.41
978.54	214.42
978.83	214.40
979.12	214.39
979.42	214.39
979.71	214.31
980.00	214.34
980.29	214.39
980.59	214.36
980.88	214.44
981.17	214.49
981.46	214.49
981.76	214.53
982.05	214.61
982.34	214.68
982.63	214.68
982.93	214.69
983.22	214.79
983.51	214.80
983.80	214.87
984.09	214.87
984.39	214.85
984.68	214.85
984.97	214.86
985.26	214.81
985.55	214.81
985.85	214.76
986.14	214.77
986.43	214.79
986.72	214.77
987.01	214.66
987.30	214.65
987.59	214.67
987.89	214.65
988.18	214.58
988.47	214.55
988.76	214.55
989.05	214.52
989.34	214.47
989.63	214.54
989.92	214.50
990.22	214.49
990.51	214.47
990.80	214.45
991.09	214.47
991.38	214.49
991.67	214.50
991.96	214.49
992.25	214.52
992.54	214.48
992.83	214.46
993.12	214.47
993.41	214.50
993.70	214.55
993.99	214.58
994.28	214.59
994.58	214.63
994.87	214.60
995.16	214.61
995.45	214.58
995.74	214.51
996.03	214.54
996.32	214.58
996.61	214.64
996.90	214.66
997.19	214.64
997.48	214.66
997.77	214.62
998.06	214.60
998.34	214.57
998.63	214.57
998.92	214.59
999.21	214.63
999.50	214.61
999.79	214.53
1000.08	214.55
1000.37	214.54
1000.66	214.48
1000.95	214.53
1001.24	214.52
1001.53	214.57
1001.82	214.53
1002.11	214.50
1002.40	214.47
1002.68	214.49
1002.97	214.63
1003.26	214.60
1003.55	214.57
1003.84	214.57
1004.13	214.66
1004.42	214.67
1004.71	214.69
1004.99	214.70
1005.28	214.75
1005.57	214.76
1005.86	214.74
1006.15	214.71
1006.44	214.69
1006.72	214.74
1007.01	214.70
1007.30	214.71
1007.59	214.68
1007.88	214.71
1008.17	214.71
1008.45	214.68
1008.74	214.59
1009.03	214.53
1009.32	214.52
1009.60	214.54
1009.89	214.56
1010.18	214.49
1010.47	214.46
1010.76	214.44
1011.04	214.44
1011.33	214.42
1011.62	214.45
1011.91	214.45
1012.19	214.49
1012.48	214.49
1012.77	214.46
1013.05	214.55
1013.34	214.56
1013.63	214.54
1013.92	214.57
1014.20	214.52
1014.49	214.53
1014.78	214.54
1015.06	214.44
1015.35	214.45
1015.64	214.47
1015.92	214.47
1016.21	214.47
1016.50	214.48
1016.78	214.46
1017.07	214.46
1017.36	214.40
1017.64	214.37
1017.93	214.39
1018.22	214.34
1018.50	214.35
1018.79	214.36
1019.08	214.25
1019.36	214.28
1019.65	214.29
1019.93	214.32
1020.22	214.38
1020.51	214.48
1020.79	214.48
1021.08	214.13
1021.36	214.18
1021.65	214.57
1021.94	214.08
1022.22	215.09
1022.51	214.36
1022.79	215.32
1023.08	214.56
1023.36	216.55
1023.65	214.10
>>>>>End Processed Spectral Data<<<<<
