SpectraSuite Data File
++++++++++++++++++++++++++++++++++++
Date: Tue Jan 29 16:55:01 EST 2013
User: group
Dark Spectrum Present: No
Reference Spectrum Present: No
Number of Sampled Component Spectra: 1
Spectrometers: USB2E7196
Integration Time (usec): 65000 (USB2E7196)
Spectra Averaged: 100 (USB2E7196)
Boxcar Smoothing: 10 (USB2E7196)
Correct for Electrical Dark: No (USB2E7196)
Strobe/Lamp Enabled: No (USB2E7196)
Correct for Detector Non-linearity: No (USB2E7196)
Correct for Stray Light: No (USB2E7196)
Number of Pixels in Processed Spectrum: 2048
>>>>>Begin Processed Spectral Data<<<<<
339.09	0.00
339.48	201.31
339.86	202.67
340.24	204.72
340.63	206.23
341.01	210.41
341.39	208.07
341.78	210.20
342.16	211.32
342.54	212.00
342.93	200.92
343.31	211.08
343.69	211.64
344.07	212.12
344.46	212.53
344.84	212.92
345.22	213.09
345.60	213.39
345.99	213.59
346.37	213.75
346.75	213.83
347.13	213.91
347.52	213.95
347.90	214.04
348.28	214.09
348.66	214.13
349.05	214.06
349.43	214.12
349.81	214.20
350.19	214.29
350.57	214.31
350.96	214.43
351.34	214.49
351.72	214.59
352.10	214.71
352.48	214.81
352.87	214.84
353.25	214.90
353.63	214.94
354.01	215.01
354.39	215.06
354.77	215.17
355.15	215.28
355.54	215.35
355.92	215.35
356.30	215.40
356.68	215.65
357.06	215.76
357.44	215.76
357.82	215.79
358.20	215.89
358.58	215.95
358.97	215.96
359.35	216.08
359.73	216.16
360.11	216.20
360.49	216.23
360.87	216.30
361.25	216.37
361.63	216.50
362.01	216.54
362.39	216.56
362.77	216.60
363.15	216.63
363.53	216.63
363.91	216.66
364.29	216.70
364.67	216.52
365.05	216.56
365.43	216.61
365.81	216.67
366.19	216.74
366.57	216.84
366.95	216.86
367.33	216.81
367.71	216.82
368.09	216.85
368.47	216.85
368.85	216.85
369.23	216.87
369.61	216.78
369.99	216.84
370.37	216.83
370.75	216.88
371.13	216.79
371.51	216.75
371.89	216.74
372.27	216.72
372.65	216.65
373.03	216.63
373.41	216.58
373.78	216.53
374.16	216.42
374.54	216.31
374.92	216.27
375.30	216.23
375.68	216.16
376.06	216.10
376.44	216.04
376.82	215.98
377.19	215.93
377.57	215.87
377.95	215.73
378.33	215.68
378.71	215.55
379.09	215.55
379.47	215.54
379.84	215.51
380.22	215.44
380.60	215.42
380.98	215.30
381.36	215.27
381.73	215.20
382.11	215.19
382.49	215.15
382.87	215.07
383.25	215.03
383.62	215.23
384.00	215.17
384.38	215.15
384.76	215.17
385.13	215.22
385.51	215.20
385.89	215.15
386.27	215.14
386.64	215.11
387.02	215.07
387.40	215.03
387.78	215.00
388.15	215.00
388.53	214.94
388.91	214.96
389.29	214.91
389.66	214.93
390.04	214.85
390.42	214.88
390.79	214.87
391.17	214.90
391.55	214.64
391.92	214.63
392.30	214.64
392.68	214.58
393.05	214.53
393.43	214.56
393.81	214.60
394.18	214.55
394.56	214.57
394.94	214.65
395.31	214.64
395.69	214.72
396.06	214.74
396.44	214.79
396.82	214.77
397.19	214.93
397.57	214.95
397.95	215.00
398.32	214.99
398.70	215.05
399.07	215.10
399.45	215.12
399.82	215.19
400.20	215.23
400.58	215.28
400.95	215.27
401.33	215.36
401.70	215.58
402.08	215.69
402.45	215.75
402.83	215.86
403.20	215.96
403.58	216.03
403.95	216.21
404.33	216.34
404.71	216.50
405.08	216.74
405.46	216.90
405.83	217.10
406.21	217.32
406.58	217.55
406.96	217.78
407.33	218.07
407.70	218.40
408.08	218.88
408.45	219.24
408.83	219.63
409.20	219.97
409.58	220.27
409.95	220.72
410.33	221.21
410.70	221.64
411.08	222.22
411.45	222.78
411.82	223.32
412.20	224.02
412.57	224.88
412.95	225.45
413.32	226.31
413.69	227.15
414.07	228.03
414.44	229.04
414.82	230.07
415.19	231.23
415.56	232.38
415.94	233.57
416.31	234.99
416.68	236.42
417.06	238.04
417.43	239.58
417.81	241.33
418.18	243.12
418.55	245.08
418.93	247.13
419.30	249.26
419.67	251.50
420.04	253.81
420.42	256.17
420.79	259.03
421.16	261.79
421.54	264.75
421.91	267.73
422.28	270.84
422.66	274.14
423.03	277.40
423.40	280.81
423.77	284.44
424.15	288.17
424.52	292.04
424.89	296.26
425.26	300.37
425.64	304.27
426.01	308.63
426.38	313.12
426.75	317.71
427.13	322.48
427.50	327.52
427.87	332.75
428.24	337.99
428.61	342.99
428.99	348.54
429.36	354.54
429.73	360.56
430.10	366.50
430.47	372.63
430.85	379.05
431.22	385.81
431.59	392.96
431.96	399.77
432.33	407.28
432.70	414.52
433.08	423.12
433.45	431.24
433.82	439.32
434.19	448.27
434.56	457.02
434.93	465.42
435.30	473.74
435.68	482.96
436.05	492.07
436.42	500.99
436.79	509.21
437.16	518.05
437.53	527.35
437.90	536.52
438.27	545.54
438.64	554.74
439.01	563.31
439.38	570.96
439.75	578.34
440.13	586.82
440.50	594.89
440.87	601.36
441.24	608.04
441.61	615.41
441.98	620.88
442.35	627.23
442.72	633.54
443.09	639.64
443.46	643.47
443.83	645.96
444.20	648.20
444.57	651.36
444.94	652.75
445.31	654.22
445.68	655.68
446.05	656.26
446.42	655.49
446.79	654.53
447.16	653.45
447.53	652.74
447.90	649.47
448.27	646.14
448.64	641.47
449.01	638.17
449.37	632.23
449.74	626.44
450.11	619.49
450.48	612.12
450.85	604.67
451.22	598.12
451.59	591.93
451.96	586.06
452.33	578.21
452.70	571.14
453.07	562.55
453.43	553.88
453.80	545.59
454.17	537.59
454.54	530.02
454.91	521.73
455.28	513.65
455.65	506.06
456.02	498.48
456.38	492.06
456.75	484.09
457.12	477.47
457.49	470.93
457.86	464.64
458.23	459.20
458.59	453.18
458.96	447.07
459.33	441.75
459.70	436.34
460.07	432.02
460.43	427.08
460.80	422.50
461.17	418.42
461.54	414.16
461.91	410.06
462.27	405.84
462.64	402.38
463.01	398.58
463.38	394.97
463.74	391.25
464.11	387.99
464.48	385.17
464.85	382.03
465.21	379.59
465.58	376.98
465.95	373.85
466.32	371.20
466.68	368.57
467.05	365.94
467.42	363.34
467.78	360.63
468.15	358.07
468.52	356.16
468.88	353.65
469.25	351.40
469.62	349.61
469.98	347.70
470.35	345.86
470.72	344.12
471.08	342.25
471.45	340.74
471.82	339.19
472.18	337.45
472.55	336.25
472.92	334.86
473.28	333.66
473.65	332.43
474.02	331.31
474.38	330.41
474.75	329.68
475.11	328.89
475.48	328.24
475.85	327.74
476.21	327.25
476.58	326.88
476.94	326.62
477.31	326.27
477.67	326.00
478.04	325.82
478.41	325.75
478.77	325.90
479.14	325.86
479.50	325.99
479.87	326.33
480.23	326.65
480.60	326.90
480.96	327.20
481.33	327.79
481.69	328.34
482.06	328.89
482.42	329.33
482.79	329.90
483.15	330.69
483.52	331.64
483.88	332.49
484.25	333.44
484.61	334.47
484.98	335.51
485.34	336.82
485.71	338.23
486.07	339.69
486.44	341.01
486.80	342.64
487.17	344.29
487.53	346.08
487.90	347.93
488.26	349.91
488.62	352.04
488.99	354.07
489.35	356.26
489.72	358.60
490.08	361.12
490.44	363.69
490.81	366.43
491.17	369.15
491.54	372.09
491.90	375.16
492.26	378.41
492.63	381.87
492.99	385.33
493.36	388.92
493.72	392.82
494.08	396.84
494.45	401.08
494.81	405.42
495.17	409.88
495.54	414.62
495.90	419.46
496.26	424.35
496.63	429.52
496.99	434.91
497.35	440.49
497.72	446.32
498.08	452.26
498.44	458.37
498.80	464.79
499.17	471.33
499.53	477.99
499.89	484.88
500.26	491.81
500.62	498.89
500.98	506.29
501.34	513.72
501.71	521.50
502.07	529.27
502.43	537.29
502.79	545.40
503.16	553.75
503.52	562.32
503.88	570.99
504.24	579.96
504.60	588.97
504.97	598.09
505.33	607.26
505.69	617.13
506.05	626.86
506.41	636.74
506.78	646.74
507.14	656.96
507.50	667.38
507.86	678.07
508.22	688.77
508.59	699.45
508.95	710.41
509.31	721.48
509.67	732.84
510.03	744.17
510.39	755.85
510.75	767.65
511.12	779.44
511.48	791.40
511.84	803.59
512.20	815.84
512.56	828.53
512.92	841.34
513.28	853.89
513.64	866.72
514.00	879.55
514.37	892.54
514.73	905.61
515.09	918.60
515.45	931.55
515.81	944.65
516.17	957.99
516.53	971.27
516.89	984.35
517.25	997.50
517.61	1011.11
517.97	1024.57
518.33	1037.59
518.69	1051.10
519.05	1064.92
519.41	1078.66
519.77	1092.57
520.13	1105.83
520.49	1118.95
520.85	1132.33
521.21	1145.63
521.57	1159.12
521.93	1172.18
522.29	1185.84
522.65	1199.40
523.01	1212.92
523.37	1226.13
523.73	1239.42
524.09	1252.64
524.45	1266.16
524.81	1279.75
525.17	1293.00
525.53	1306.11
525.89	1319.54
526.25	1332.77
526.61	1345.61
526.97	1358.73
527.33	1371.80
527.68	1385.39
528.04	1398.96
528.40	1412.15
528.76	1425.57
529.12	1438.61
529.48	1451.93
529.84	1464.32
530.20	1477.19
530.56	1489.83
530.91	1503.13
531.27	1516.00
531.63	1528.75
531.99	1541.62
532.35	1553.83
532.71	1566.31
533.07	1579.26
533.42	1591.58
533.78	1603.72
534.14	1615.84
534.50	1627.15
534.86	1638.69
535.21	1649.63
535.57	1661.30
535.93	1672.59
536.29	1683.74
536.65	1695.31
537.00	1706.37
537.36	1717.82
537.72	1728.86
538.08	1740.37
538.44	1751.49
538.79	1762.67
539.15	1773.66
539.51	1784.53
539.87	1796.02
540.22	1806.92
540.58	1818.05
540.94	1829.04
541.29	1839.36
541.65	1849.27
542.01	1859.72
542.37	1869.88
542.72	1880.08
543.08	1889.80
543.44	1900.35
543.79	1909.63
544.15	1919.14
544.51	1929.18
544.87	1939.17
545.22	1948.47
545.58	1957.40
545.94	1966.25
546.29	1974.96
546.65	1983.51
547.01	1991.76
547.36	1999.41
547.72	2007.21
548.07	2014.72
548.43	2022.41
548.79	2030.42
549.14	2038.72
549.50	2047.30
549.86	2055.28
550.21	2062.75
550.57	2070.55
550.92	2077.43
551.28	2085.05
551.64	2092.27
551.99	2099.75
552.35	2106.97
552.70	2113.94
553.06	2120.48
553.41	2126.87
553.77	2133.24
554.13	2139.55
554.48	2146.54
554.84	2153.75
555.19	2160.41
555.55	2166.75
555.90	2173.13
556.26	2180.03
556.61	2185.96
556.97	2190.84
557.32	2196.50
557.68	2202.81
558.03	2208.52
558.39	2213.96
558.74	2219.91
559.10	2225.36
559.45	2230.84
559.81	2236.35
560.16	2241.65
560.52	2247.71
560.87	2254.01
561.23	2259.82
561.58	2266.35
561.94	2271.52
562.29	2276.00
562.64	2281.77
563.00	2287.52
563.35	2292.96
563.71	2298.51
564.06	2304.22
564.42	2310.09
564.77	2315.18
565.12	2320.43
565.48	2325.34
565.83	2330.66
566.19	2335.70
566.54	2340.94
566.89	2345.51
567.25	2349.86
567.60	2355.61
567.96	2360.42
568.31	2364.75
568.66	2369.21
569.02	2372.98
569.37	2376.61
569.72	2381.06
570.08	2384.51
570.43	2387.59
570.78	2390.66
571.14	2392.97
571.49	2395.92
571.84	2399.34
572.20	2402.13
572.55	2404.89
572.90	2407.28
573.26	2409.92
573.61	2412.59
573.96	2414.64
574.31	2416.57
574.67	2418.39
575.02	2418.80
575.37	2420.18
575.72	2420.74
576.08	2421.80
576.43	2421.89
576.78	2422.09
577.13	2423.29
577.49	2424.39
577.84	2425.18
578.19	2426.21
578.54	2426.72
578.90	2427.09
579.25	2426.76
579.60	2426.42
579.95	2425.56
580.30	2425.22
580.66	2424.39
581.01	2422.56
581.36	2419.94
581.71	2418.27
582.06	2416.79
582.42	2415.82
582.77	2413.43
583.12	2411.66
583.47	2409.93
583.82	2409.08
584.17	2407.69
584.53	2405.32
584.88	2403.00
585.23	2400.83
585.58	2398.32
585.93	2396.04
586.28	2393.63
586.63	2390.86
586.98	2388.44
587.34	2386.26
587.69	2383.60
588.04	2381.15
588.39	2379.34
588.74	2376.87
589.09	2373.95
589.44	2370.47
589.79	2367.83
590.14	2365.49
590.49	2362.46
590.84	2358.57
591.19	2355.19
591.54	2351.79
591.89	2347.86
592.25	2344.55
592.60	2340.15
592.95	2336.00
593.30	2331.79
593.65	2327.47
594.00	2322.91
594.35	2319.87
594.70	2315.19
595.05	2310.68
595.40	2305.24
595.75	2299.30
596.10	2295.59
596.45	2290.75
596.80	2286.31
597.15	2281.04
597.50	2275.32
597.85	2270.33
598.19	2265.19
598.54	2259.49
598.89	2254.21
599.24	2249.35
599.59	2242.97
599.94	2237.11
600.29	2230.97
600.64	2225.03
600.99	2218.09
601.34	2212.62
601.69	2205.55
602.04	2199.08
602.39	2192.24
602.74	2186.11
603.08	2180.68
603.43	2174.20
603.78	2167.23
604.13	2160.16
604.48	2152.80
604.83	2146.44
605.18	2140.16
605.53	2133.30
605.87	2126.31
606.22	2119.60
606.57	2111.75
606.92	2103.88
607.27	2096.88
607.62	2090.34
607.96	2083.31
608.31	2076.98
608.66	2069.27
609.01	2061.65
609.36	2054.58
609.70	2046.99
610.05	2039.17
610.40	2030.83
610.75	2022.38
611.10	2014.55
611.44	2005.51
611.79	1996.96
612.14	1987.16
612.49	1976.55
612.83	1967.01
613.18	1957.59
613.53	1948.24
613.88	1938.67
614.22	1929.97
614.57	1920.26
614.92	1909.61
615.27	1899.29
615.61	1889.03
615.96	1879.45
616.31	1869.88
616.65	1860.29
617.00	1850.77
617.35	1841.24
617.70	1831.65
618.04	1821.67
618.39	1811.70
618.74	1802.27
619.08	1792.59
619.43	1783.92
619.78	1775.71
620.12	1767.26
620.47	1757.99
620.82	1747.70
621.16	1738.07
621.51	1728.38
621.85	1718.74
622.20	1708.54
622.55	1698.25
622.89	1688.35
623.24	1678.68
623.59	1669.01
623.93	1659.12
624.28	1649.29
624.62	1639.31
624.97	1629.11
625.32	1619.46
625.66	1610.71
626.01	1602.09
626.35	1592.92
626.70	1583.04
627.04	1573.19
627.39	1563.05
627.73	1553.70
628.08	1545.00
628.43	1535.58
628.77	1526.53
629.12	1517.67
629.46	1509.99
629.81	1501.83
630.15	1492.68
630.50	1482.95
630.84	1472.55
631.19	1462.82
631.53	1453.88
631.88	1443.90
632.22	1434.06
632.57	1424.75
632.91	1414.76
633.26	1404.94
633.60	1395.40
633.95	1386.32
634.29	1376.94
634.64	1367.82
634.98	1358.03
635.32	1348.89
635.67	1340.58
636.01	1331.42
636.36	1321.84
636.70	1312.54
637.05	1303.13
637.39	1294.35
637.73	1285.99
638.08	1278.52
638.42	1270.49
638.77	1261.71
639.11	1253.53
639.45	1245.83
639.80	1237.60
640.14	1229.03
640.49	1220.36
640.83	1211.66
641.17	1203.46
641.52	1195.39
641.86	1187.09
642.20	1179.30
642.55	1170.66
642.89	1161.90
643.23	1153.27
643.58	1145.28
643.92	1136.20
644.26	1127.68
644.61	1119.33
644.95	1110.53
645.29	1101.53
645.64	1092.41
645.98	1083.97
646.32	1076.19
646.66	1067.76
647.01	1059.56
647.35	1051.51
647.69	1043.33
648.04	1035.22
648.38	1026.55
648.72	1017.93
649.06	1009.48
649.41	1001.38
649.75	993.62
650.09	985.81
650.43	977.94
650.78	969.69
651.12	962.06
651.46	954.66
651.80	947.48
652.14	940.30
652.49	932.83
652.83	925.59
653.17	917.93
653.51	910.33
653.85	903.18
654.20	895.96
654.54	888.57
654.88	881.36
655.22	874.07
655.56	867.15
655.90	860.32
656.25	853.67
656.59	846.85
656.93	839.85
657.27	832.78
657.61	825.77
657.95	819.72
658.29	813.76
658.64	807.71
658.98	801.25
659.32	794.75
659.66	788.56
660.00	782.36
660.34	776.34
660.68	770.31
661.02	763.97
661.36	757.87
661.70	752.14
662.05	746.54
662.39	741.21
662.73	735.74
663.07	730.43
663.41	724.88
663.75	719.13
664.09	713.43
664.43	708.03
664.77	702.72
665.11	696.93
665.45	691.12
665.79	685.36
666.13	679.71
666.47	674.19
666.81	668.71
667.15	663.26
667.49	658.09
667.83	652.82
668.17	647.61
668.51	642.47
668.85	637.46
669.19	632.54
669.53	627.53
669.87	622.49
670.21	617.69
670.55	612.95
670.89	608.52
671.23	604.18
671.57	599.78
671.91	595.49
672.25	591.31
672.58	587.24
672.92	583.14
673.26	579.18
673.60	575.20
673.94	571.41
674.28	567.72
674.62	563.97
674.96	560.18
675.30	556.71
675.64	553.12
675.97	549.54
676.31	545.90
676.65	542.32
676.99	538.86
677.33	535.02
677.67	531.44
678.01	527.64
678.34	524.06
678.68	520.53
679.02	516.92
679.36	513.25
679.70	509.49
680.04	505.88
680.37	502.43
680.71	499.15
681.05	495.89
681.39	492.61
681.73	489.37
682.06	486.38
682.40	483.23
682.74	480.07
683.08	476.86
683.42	473.67
683.75	470.56
684.09	467.47
684.43	464.69
684.77	461.69
685.10	458.78
685.44	455.80
685.78	452.80
686.12	450.00
686.45	447.23
686.79	444.55
687.13	442.01
687.46	439.39
687.80	436.71
688.14	433.86
688.48	431.18
688.81	428.49
689.15	425.82
689.49	423.19
689.82	420.55
690.16	417.93
690.50	415.44
690.83	412.95
691.17	410.42
691.51	407.84
691.84	405.51
692.18	403.26
692.52	401.03
692.85	398.94
693.19	396.75
693.52	394.59
693.86	392.38
694.20	390.15
694.53	387.93
694.87	385.71
695.21	383.57
695.54	381.44
695.88	379.24
696.21	377.02
696.55	374.85
696.88	372.81
697.22	370.83
697.56	368.90
697.89	367.00
698.23	365.20
698.56	363.43
698.90	361.66
699.23	359.79
699.57	357.93
699.90	355.97
700.24	354.14
700.58	352.34
700.91	350.65
701.25	349.09
701.58	347.48
701.92	345.92
702.25	344.28
702.59	342.65
702.92	341.08
703.26	339.55
703.59	338.07
703.93	336.77
704.26	335.33
704.60	333.82
704.93	332.33
705.26	330.80
705.60	329.33
705.93	327.75
706.27	326.39
706.60	325.10
706.94	323.89
707.27	322.52
707.61	321.15
707.94	319.75
708.27	318.22
708.61	316.72
708.94	315.31
709.28	314.01
709.61	312.73
709.94	311.55
710.28	310.31
710.61	309.10
710.95	307.66
711.28	306.53
711.61	305.32
711.95	304.12
712.28	302.95
712.61	301.75
712.95	300.72
713.28	299.64
713.61	298.47
713.95	297.30
714.28	296.22
714.61	295.18
714.95	294.16
715.28	293.11
715.61	292.10
715.95	291.07
716.28	290.11
716.61	289.15
716.95	288.10
717.28	287.16
717.61	286.16
717.94	285.27
718.28	284.23
718.61	283.34
718.94	282.45
719.27	281.55
719.61	280.72
719.94	279.84
720.27	278.85
720.60	277.97
720.94	277.13
721.27	276.38
721.60	275.69
721.93	274.96
722.27	274.31
722.60	273.63
722.93	272.94
723.26	272.23
723.59	271.51
723.93	270.89
724.26	270.22
724.59	269.59
724.92	268.97
725.25	268.37
725.59	267.76
725.92	267.19
726.25	266.58
726.58	265.98
726.91	265.36
727.24	264.80
727.57	264.22
727.91	263.62
728.24	263.01
728.57	262.38
728.90	261.82
729.23	261.17
729.56	260.73
729.89	260.17
730.22	259.60
730.55	259.04
730.89	258.48
731.22	257.95
731.55	257.37
731.88	256.81
732.21	256.28
732.54	255.78
732.87	255.26
733.20	254.79
733.53	254.32
733.86	253.85
734.19	253.37
734.52	252.95
734.85	252.66
735.18	252.19
735.51	251.81
735.84	251.42
736.17	251.02
736.50	250.48
736.83	250.32
737.16	249.92
737.49	249.55
737.82	249.12
738.15	248.72
738.48	248.35
738.81	247.96
739.14	247.54
739.47	247.12
739.80	246.73
740.13	246.41
740.46	246.03
740.79	245.64
741.12	245.27
741.45	244.89
741.78	244.42
742.11	244.16
742.44	243.77
742.77	243.42
743.10	243.07
743.43	242.73
743.75	242.15
744.08	242.07
744.41	241.68
744.74	241.33
745.07	240.97
745.40	240.69
745.73	240.45
746.06	240.15
746.39	239.87
746.71	239.51
747.04	239.16
747.37	238.78
747.70	238.51
748.03	238.21
748.36	237.95
748.68	237.65
749.01	237.29
749.34	236.98
749.67	236.70
750.00	236.46
750.33	236.35
750.65	236.09
750.98	235.61
751.31	235.38
751.64	235.20
751.97	235.08
752.29	234.78
752.62	234.42
752.95	234.14
753.28	233.87
753.60	233.67
753.93	233.48
754.26	233.27
754.59	232.98
754.91	232.75
755.24	232.48
755.57	232.24
755.90	232.00
756.22	231.77
756.55	231.52
756.88	231.24
757.20	230.90
757.53	230.67
757.86	230.40
758.19	230.18
758.51	229.92
758.84	229.62
759.17	229.44
759.49	229.29
759.82	229.19
760.15	229.07
760.47	228.84
760.80	228.58
761.13	228.44
761.45	228.23
761.78	228.06
762.11	227.87
762.43	227.65
762.76	227.49
763.08	227.36
763.41	227.22
763.74	227.07
764.06	226.89
764.39	226.73
764.71	226.60
765.04	226.45
765.37	226.29
765.69	226.09
766.02	225.89
766.34	225.73
766.67	225.49
767.00	225.36
767.32	225.31
767.65	225.32
767.97	225.15
768.30	225.05
768.62	224.90
768.95	224.79
769.27	224.72
769.60	224.61
769.92	224.44
770.25	224.23
770.57	224.08
770.90	223.95
771.22	223.82
771.55	223.69
771.87	223.58
772.20	223.45
772.52	223.52
772.85	223.67
773.17	223.57
773.50	223.44
773.82	223.27
774.15	223.13
774.47	222.86
774.80	222.77
775.12	222.66
775.45	222.58
775.77	222.49
776.09	222.38
776.42	222.27
776.74	222.23
777.07	222.14
777.39	222.06
777.72	221.97
778.04	221.90
778.36	221.79
778.69	221.74
779.01	221.68
779.33	221.42
779.66	221.15
779.98	221.05
780.31	221.01
780.63	221.03
780.95	221.00
781.28	220.96
781.60	220.84
781.92	220.76
782.25	220.69
782.57	220.63
782.89	220.55
783.22	220.47
783.54	220.35
783.86	220.34
784.19	220.25
784.51	220.25
784.83	220.17
785.16	220.10
785.48	220.00
785.80	219.95
786.12	219.93
786.45	219.84
786.77	219.82
787.09	219.72
787.42	219.57
787.74	219.49
788.06	219.42
788.38	219.37
788.71	219.33
789.03	219.24
789.35	219.20
789.67	219.14
789.99	219.11
790.32	219.06
790.64	219.03
790.96	219.16
791.28	219.03
791.61	218.95
791.93	218.94
792.25	218.89
792.57	218.98
792.89	218.87
793.21	218.84
793.54	218.78
793.86	218.74
794.18	218.72
794.50	218.61
794.82	218.59
795.14	218.60
795.47	218.57
795.79	218.55
796.11	218.44
796.43	218.37
796.75	218.33
797.07	218.27
797.39	218.21
797.71	218.03
798.04	218.03
798.36	218.03
798.68	217.98
799.00	217.94
799.32	217.78
799.64	217.81
799.96	217.78
800.28	217.76
800.60	217.69
800.92	217.67
801.24	217.63
801.56	217.58
801.89	217.49
802.21	217.48
802.53	217.40
802.85	217.45
803.17	217.51
803.49	217.43
803.81	217.38
804.13	217.31
804.45	217.23
804.77	217.18
805.09	217.14
805.41	217.10
805.73	217.03
806.05	216.93
806.37	216.91
806.69	216.84
807.01	216.82
807.33	216.82
807.65	216.71
807.97	216.77
808.28	216.75
808.60	216.74
808.92	216.66
809.24	216.77
809.56	216.67
809.88	216.54
810.20	216.52
810.52	216.55
810.84	216.51
811.16	216.48
811.48	216.43
811.80	216.50
812.12	216.45
812.43	216.49
812.75	216.49
813.07	216.44
813.39	216.43
813.71	216.36
814.03	216.33
814.35	216.34
814.67	216.25
814.98	216.21
815.30	216.16
815.62	216.13
815.94	215.98
816.26	215.99
816.58	215.99
816.89	216.00
817.21	215.93
817.53	215.93
817.85	215.94
818.17	215.93
818.48	215.83
818.80	215.84
819.12	215.79
819.44	215.75
819.76	215.68
820.07	215.66
820.39	215.64
820.71	215.65
821.03	215.62
821.34	215.61
821.66	215.62
821.98	215.60
822.30	215.58
822.61	215.67
822.93	215.62
823.25	215.58
823.57	215.54
823.88	215.57
824.20	215.55
824.52	215.56
824.83	215.53
825.15	215.50
825.47	215.45
825.79	215.43
826.10	215.39
826.42	215.39
826.74	215.43
827.05	215.39
827.37	215.37
827.69	215.32
828.00	215.29
828.32	215.29
828.64	215.25
828.95	215.33
829.27	215.25
829.58	215.24
829.90	215.30
830.22	215.29
830.53	215.24
830.85	215.22
831.17	215.14
831.48	215.14
831.80	215.12
832.11	215.13
832.43	215.08
832.75	215.08
833.06	215.20
833.38	215.12
833.69	215.11
834.01	215.12
834.32	215.14
834.64	215.12
834.96	215.09
835.27	215.10
835.59	215.06
835.90	215.00
836.22	215.00
836.53	214.94
836.85	214.95
837.16	215.14
837.48	215.13
837.79	215.19
838.11	215.19
838.42	215.22
838.74	215.25
839.05	215.26
839.37	215.24
839.68	215.11
840.00	215.06
840.31	215.08
840.63	215.06
840.94	215.06
841.26	215.02
841.57	215.02
841.88	215.05
842.20	214.99
842.51	214.99
842.83	215.00
843.14	215.20
843.46	215.16
843.77	215.02
844.08	214.97
844.40	214.94
844.71	214.89
845.03	214.81
845.34	214.77
845.65	214.73
845.97	214.71
846.28	214.72
846.60	214.72
846.91	214.72
847.22	214.69
847.54	214.69
847.85	214.68
848.16	214.66
848.48	214.57
848.79	214.65
849.10	214.63
849.42	214.62
849.73	214.36
850.04	214.38
850.36	214.29
850.67	214.36
850.98	214.35
851.30	214.39
851.61	214.43
851.92	214.44
852.23	214.53
852.55	214.56
852.86	214.58
853.17	214.64
853.49	214.65
853.80	214.70
854.11	214.72
854.42	214.74
854.74	214.70
855.05	214.72
855.36	214.63
855.67	214.64
855.99	214.61
856.30	214.88
856.61	214.85
856.92	214.88
857.23	214.85
857.55	214.80
857.86	214.77
858.17	214.79
858.48	214.75
858.79	214.68
859.11	214.68
859.42	214.61
859.73	214.56
860.04	214.51
860.35	214.46
860.66	214.38
860.98	214.41
861.29	214.46
861.60	214.45
861.91	214.49
862.22	214.47
862.53	214.45
862.84	214.21
863.16	214.25
863.47	214.20
863.78	214.21
864.09	214.22
864.40	214.24
864.71	214.20
865.02	214.22
865.33	214.18
865.64	214.16
865.95	214.16
866.27	214.26
866.58	214.23
866.89	214.25
867.20	214.26
867.51	214.22
867.82	214.18
868.13	214.22
868.44	214.18
868.75	214.22
869.06	214.24
869.37	214.27
869.68	214.22
869.99	214.25
870.30	214.24
870.61	214.25
870.92	214.22
871.23	214.20
871.54	214.24
871.85	214.33
872.16	214.35
872.47	214.37
872.78	214.30
873.09	214.33
873.40	214.31
873.71	214.34
874.02	214.35
874.33	214.31
874.64	214.26
874.95	214.33
875.26	214.25
875.56	214.24
875.87	214.24
876.18	214.23
876.49	214.40
876.80	214.40
877.11	214.37
877.42	214.36
877.73	214.36
878.04	214.31
878.35	214.29
878.66	214.30
878.96	214.27
879.27	214.24
879.58	214.23
879.89	214.20
880.20	214.24
880.51	214.20
880.82	214.25
881.12	214.28
881.43	214.19
881.74	214.19
882.05	214.17
882.36	214.15
882.67	214.15
882.97	213.95
883.28	213.92
883.59	213.90
883.90	213.93
884.21	213.95
884.51	213.93
884.82	213.90
885.13	213.86
885.44	213.88
885.74	213.85
886.05	213.84
886.36	213.83
886.67	213.79
886.98	213.87
887.28	213.88
887.59	213.88
887.90	213.89
888.20	213.90
888.51	213.96
888.82	213.92
889.13	213.96
889.43	214.12
889.74	214.10
890.05	214.09
890.35	214.06
890.66	214.00
890.97	214.00
891.28	213.95
891.58	213.96
891.89	213.92
892.20	213.92
892.50	213.90
892.81	213.92
893.12	213.91
893.42	213.83
893.73	213.84
894.04	213.83
894.34	213.84
894.65	213.80
894.95	213.73
895.26	213.73
895.57	213.77
895.87	213.60
896.18	213.64
896.48	213.68
896.79	213.67
897.10	213.72
897.40	213.72
897.71	213.76
898.01	213.79
898.32	213.83
898.63	213.84
898.93	213.85
899.24	213.85
899.54	213.82
899.85	213.80
900.15	213.78
900.46	213.75
900.76	213.76
901.07	213.80
901.38	213.82
901.68	213.85
901.99	213.77
902.29	213.78
902.60	213.77
902.90	213.77
903.21	213.77
903.51	213.75
903.82	213.84
904.12	213.84
904.43	213.82
904.73	213.79
905.03	213.80
905.34	214.00
905.64	214.01
905.95	214.01
906.25	214.02
906.56	214.02
906.86	214.04
907.17	214.05
907.47	214.05
907.77	214.03
908.08	213.99
908.38	214.03
908.69	214.00
908.99	214.02
909.30	214.01
909.60	214.04
909.90	214.09
910.21	214.02
910.51	214.00
910.81	213.99
911.12	214.01
911.42	214.00
911.73	213.80
912.03	213.79
912.33	213.86
912.64	213.87
912.94	213.85
913.24	213.81
913.55	213.79
913.85	213.77
914.15	213.83
914.46	213.84
914.76	213.81
915.06	213.81
915.37	213.78
915.67	213.77
915.97	213.74
916.27	213.68
916.58	213.70
916.88	213.69
917.18	213.68
917.49	213.86
917.79	213.85
918.09	213.87
918.39	213.92
918.70	213.87
919.00	213.86
919.30	213.97
919.60	213.99
919.91	213.96
920.21	214.00
920.51	213.94
920.81	213.95
921.12	214.00
921.42	214.01
921.72	214.04
922.02	214.03
922.32	214.07
922.63	214.10
922.93	214.17
923.23	214.21
923.53	214.18
923.83	214.01
924.13	214.05
924.44	214.02
924.74	214.07
925.04	214.15
925.34	214.15
925.64	214.06
925.94	214.03
926.24	214.15
926.55	214.10
926.85	214.15
927.15	214.17
927.45	214.18
927.75	214.19
928.05	214.19
928.35	214.17
928.65	214.18
928.95	214.19
929.26	214.09
929.56	214.10
929.86	214.18
930.16	214.16
930.46	214.12
930.76	214.14
931.06	214.00
931.36	213.92
931.66	213.95
931.96	213.98
932.26	214.00
932.56	213.91
932.86	213.91
933.16	213.89
933.46	213.83
933.76	213.78
934.06	213.83
934.36	213.91
934.66	213.93
934.96	213.91
935.26	213.90
935.56	213.96
935.86	213.91
936.16	213.85
936.46	213.85
936.76	213.87
937.06	213.83
937.36	213.86
937.66	213.88
937.96	213.89
938.26	213.82
938.56	213.82
938.86	213.82
939.16	213.89
939.46	213.90
939.76	213.92
940.06	213.91
940.35	213.83
940.65	213.72
940.95	213.73
941.25	213.69
941.55	213.66
941.85	213.65
942.15	213.71
942.45	213.77
942.75	213.74
943.04	213.75
943.34	213.77
943.64	213.76
943.94	213.69
944.24	213.68
944.54	213.73
944.84	213.73
945.13	213.71
945.43	213.67
945.73	213.66
946.03	213.66
946.33	213.65
946.62	213.66
946.92	213.64
947.22	213.64
947.52	213.64
947.82	213.67
948.11	213.66
948.41	213.60
948.71	213.54
949.01	213.57
949.31	213.56
949.60	213.55
949.90	213.60
950.20	213.60
950.50	213.58
950.79	213.51
951.09	213.51
951.39	213.52
951.69	213.52
951.98	213.55
952.28	213.56
952.58	213.56
952.87	213.56
953.17	213.57
953.47	213.54
953.76	213.55
954.06	213.51
954.36	213.47
954.66	213.48
954.95	213.53
955.25	213.55
955.55	213.56
955.84	213.55
956.14	213.56
956.44	213.60
956.73	213.57
957.03	213.63
957.32	213.64
957.62	213.64
957.92	213.67
958.21	213.67
958.51	213.93
958.81	213.93
959.10	213.95
959.40	214.01
959.69	214.05
959.99	214.09
960.29	214.13
960.58	214.14
960.88	214.21
961.17	214.19
961.47	214.20
961.76	214.15
962.06	214.19
962.36	214.15
962.65	214.18
962.95	214.19
963.24	214.17
963.54	214.18
963.83	214.19
964.13	214.19
964.42	214.17
964.72	213.99
965.01	213.99
965.31	213.96
965.60	213.90
965.90	214.03
966.19	213.98
966.49	213.96
966.78	213.92
967.08	213.90
967.37	213.90
967.67	213.83
967.96	213.89
968.26	213.87
968.55	213.90
968.85	213.88
969.14	213.91
969.43	213.89
969.73	213.87
970.02	213.86
970.32	213.83
970.61	213.80
970.91	213.74
971.20	213.76
971.49	213.78
971.79	213.81
972.08	213.66
972.38	213.66
972.67	213.66
972.96	213.74
973.26	213.70
973.55	213.75
973.85	213.77
974.14	213.77
974.43	213.78
974.73	213.73
975.02	213.69
975.31	213.64
975.61	213.62
975.90	213.62
976.19	213.59
976.49	213.64
976.78	213.61
977.07	213.61
977.37	213.61
977.66	213.59
977.95	213.59
978.24	213.60
978.54	213.66
978.83	213.64
979.12	213.60
979.42	213.58
979.71	213.52
980.00	213.51
980.29	213.51
980.59	213.45
980.88	213.47
981.17	213.47
981.46	213.51
981.76	213.52
982.05	213.54
982.34	213.54
982.63	213.51
982.93	213.54
983.22	213.58
983.51	213.58
983.80	213.64
984.09	213.62
984.39	213.61
984.68	213.57
984.97	213.59
985.26	213.57
985.55	213.62
985.85	213.62
986.14	213.66
986.43	213.66
986.72	213.69
987.01	213.66
987.30	213.70
987.59	213.65
987.89	213.69
988.18	213.64
988.47	213.64
988.76	213.59
989.05	213.58
989.34	213.55
989.63	213.57
989.92	213.53
990.22	213.57
990.51	213.56
990.80	213.56
991.09	213.56
991.38	213.61
991.67	213.56
991.96	213.52
992.25	213.51
992.54	213.47
992.83	213.48
993.12	213.48
993.41	213.48
993.70	213.58
993.99	213.60
994.28	213.64
994.58	213.70
994.87	213.72
995.16	213.71
995.45	213.67
995.74	213.64
996.03	213.65
996.32	213.63
996.61	213.68
996.90	213.67
997.19	213.64
997.48	213.60
997.77	213.56
998.06	213.56
998.34	213.56
998.63	213.58
998.92	213.57
999.21	213.61
999.50	213.58
999.79	213.50
1000.08	213.50
1000.37	213.51
1000.66	213.44
1000.95	213.47
1001.24	213.53
1001.53	213.60
1001.82	213.59
1002.11	213.54
1002.40	213.55
1002.68	213.59
1002.97	213.73
1003.26	213.71
1003.55	213.71
1003.84	213.75
1004.13	213.85
1004.42	213.84
1004.71	213.83
1004.99	213.80
1005.28	213.86
1005.57	213.87
1005.86	213.83
1006.15	213.79
1006.44	213.74
1006.72	213.81
1007.01	213.75
1007.30	213.71
1007.59	213.64
1007.88	213.64
1008.17	213.64
1008.45	213.61
1008.74	213.55
1009.03	213.46
1009.32	213.49
1009.60	213.50
1009.89	213.44
1010.18	213.34
1010.47	213.33
1010.76	213.32
1011.04	213.35
1011.33	213.34
1011.62	213.36
1011.91	213.42
1012.19	213.42
1012.48	213.44
1012.77	213.43
1013.05	213.55
1013.34	213.58
1013.63	213.62
1013.92	213.61
1014.20	213.59
1014.49	213.59
1014.78	213.57
1015.06	213.53
1015.35	213.52
1015.64	213.57
1015.92	213.62
1016.21	213.62
1016.50	213.61
1016.78	213.63
1017.07	213.62
1017.36	213.59
1017.64	213.54
1017.93	213.52
1018.22	213.51
1018.50	213.46
1018.79	213.44
1019.08	213.33
1019.36	213.30
1019.65	213.23
1019.93	213.31
1020.22	213.35
1020.51	213.43
1020.79	213.43
1021.08	213.23
1021.36	212.39
1021.65	213.41
1021.94	213.37
1022.22	213.24
1022.51	212.66
1022.79	214.41
1023.08	213.65
1023.36	215.43
1023.65	213.23
>>>>>End Processed Spectral Data<<<<<
