SpectraSuite Data File
++++++++++++++++++++++++++++++++++++
Date: Tue Jan 29 16:38:50 EST 2013
User: group
Dark Spectrum Present: No
Reference Spectrum Present: No
Number of Sampled Component Spectra: 1
Spectrometers: USB2E7196
Integration Time (usec): 65000 (USB2E7196)
Spectra Averaged: 100 (USB2E7196)
Boxcar Smoothing: 10 (USB2E7196)
Correct for Electrical Dark: No (USB2E7196)
Strobe/Lamp Enabled: No (USB2E7196)
Correct for Detector Non-linearity: No (USB2E7196)
Correct for Stray Light: No (USB2E7196)
Number of Pixels in Processed Spectrum: 2048
>>>>>Begin Processed Spectral Data<<<<<
339.09	0.00
339.48	201.58
339.86	203.26
340.24	204.63
340.63	206.40
341.01	210.39
341.39	208.70
341.78	211.17
342.16	211.80
342.54	211.93
342.93	201.07
343.31	211.24
343.69	211.78
344.07	212.23
344.46	212.69
344.84	213.10
345.22	213.28
345.60	213.55
345.99	213.68
346.37	213.83
346.75	213.92
347.13	214.00
347.52	214.09
347.90	214.20
348.28	214.26
348.66	214.38
349.05	214.36
349.43	214.41
349.81	214.45
350.19	214.52
350.57	214.59
350.96	214.70
351.34	214.81
351.72	214.92
352.10	215.08
352.48	215.14
352.87	215.19
353.25	215.29
353.63	215.34
354.01	215.42
354.39	215.50
354.77	215.60
355.15	215.72
355.54	215.74
355.92	215.74
356.30	215.82
356.68	215.97
357.06	216.07
357.44	216.12
357.82	216.20
358.20	216.28
358.58	216.36
358.97	216.40
359.35	216.49
359.73	216.57
360.11	216.57
360.49	216.62
360.87	216.65
361.25	216.72
361.63	216.85
362.01	216.93
362.39	216.93
362.77	216.97
363.15	216.99
363.53	216.99
363.91	217.05
364.29	217.06
364.67	216.92
365.05	216.93
365.43	216.98
365.81	217.04
366.19	217.14
366.57	217.24
366.95	217.23
367.33	217.19
367.71	217.23
368.09	217.28
368.47	217.30
368.85	217.29
369.23	217.31
369.61	217.22
369.99	217.26
370.37	217.27
370.75	217.34
371.13	217.27
371.51	217.25
371.89	217.23
372.27	217.20
372.65	217.18
373.03	217.16
373.41	217.11
373.78	217.04
374.16	216.91
374.54	216.80
374.92	216.76
375.30	216.73
375.68	216.63
376.06	216.62
376.44	216.54
376.82	216.51
377.19	216.46
377.57	216.45
377.95	216.31
378.33	216.22
378.71	216.08
379.09	216.08
379.47	216.05
379.84	215.96
380.22	215.90
380.60	215.84
380.98	215.78
381.36	215.73
381.73	215.68
382.11	215.67
382.49	215.61
382.87	215.57
383.25	215.51
383.62	215.68
384.00	215.58
384.38	215.55
384.76	215.54
385.13	215.57
385.51	215.52
385.89	215.47
386.27	215.47
386.64	215.45
387.02	215.39
387.40	215.37
387.78	215.40
388.15	215.41
388.53	215.39
388.91	215.39
389.29	215.34
389.66	215.35
390.04	215.28
390.42	215.31
390.79	215.30
391.17	215.28
391.55	215.06
391.92	215.09
392.30	215.10
392.68	215.08
393.05	215.06
393.43	215.06
393.81	215.06
394.18	215.04
394.56	215.04
394.94	215.12
395.31	215.14
395.69	215.19
396.06	215.22
396.44	215.22
396.82	215.21
397.19	215.38
397.57	215.38
397.95	215.46
398.32	215.43
398.70	215.48
399.07	215.55
399.45	215.61
399.82	215.61
400.20	215.68
400.58	215.72
400.95	215.69
401.33	215.80
401.70	216.04
402.08	216.13
402.45	216.23
402.83	216.36
403.20	216.47
403.58	216.57
403.95	216.72
404.33	216.89
404.71	217.03
405.08	217.25
405.46	217.42
405.83	217.60
406.21	217.81
406.58	218.03
406.96	218.27
407.33	218.53
407.70	218.86
408.08	219.31
408.45	219.65
408.83	220.03
409.20	220.40
409.58	220.71
409.95	221.18
410.33	221.67
410.70	222.08
411.08	222.63
411.45	223.18
411.82	223.76
412.20	224.46
412.57	225.29
412.95	225.87
413.32	226.73
413.69	227.58
414.07	228.51
414.44	229.50
414.82	230.57
415.19	231.73
415.56	232.93
415.94	234.11
416.31	235.53
416.68	236.96
417.06	238.54
417.43	240.07
417.81	241.81
418.18	243.60
418.55	245.55
418.93	247.58
419.30	249.71
419.67	251.91
420.04	254.20
420.42	256.60
420.79	259.44
421.16	262.21
421.54	265.12
421.91	268.11
422.28	271.24
422.66	274.50
423.03	277.77
423.40	281.11
423.77	284.71
424.15	288.38
424.52	292.24
424.89	296.44
425.26	300.51
425.64	304.44
426.01	308.71
426.38	313.17
426.75	317.76
427.13	322.47
427.50	327.47
427.87	332.67
428.24	337.90
428.61	342.91
428.99	348.44
429.36	354.48
429.73	360.38
430.10	366.25
430.47	372.33
430.85	378.67
431.22	385.40
431.59	392.54
431.96	399.42
432.33	406.98
432.70	414.24
433.08	422.77
433.45	430.83
433.82	438.93
434.19	447.85
434.56	456.57
434.93	464.92
435.30	473.21
435.68	482.36
436.05	491.36
436.42	500.31
436.79	508.46
437.16	517.34
437.53	526.65
437.90	535.87
438.27	544.88
438.64	554.14
439.01	562.68
439.38	570.24
439.75	577.51
440.13	585.92
440.50	593.89
440.87	600.38
441.24	607.03
441.61	614.37
441.98	619.77
442.35	626.11
442.72	632.50
443.09	638.63
443.46	642.38
443.83	644.90
444.20	647.04
444.57	650.27
444.94	651.63
445.31	653.17
445.68	654.47
446.05	655.04
446.42	654.33
446.79	653.35
447.16	652.31
447.53	651.55
447.90	648.22
448.27	644.94
448.64	640.27
449.01	636.92
449.37	630.98
449.74	625.28
450.11	618.33
450.48	610.92
450.85	603.37
451.22	596.88
451.59	590.80
451.96	585.04
452.33	577.16
452.70	570.05
453.07	561.49
453.43	552.94
453.80	544.62
454.17	536.52
454.54	528.99
454.91	520.76
455.28	512.79
455.65	505.29
456.02	497.75
456.38	491.39
456.75	483.54
457.12	476.95
457.49	470.41
457.86	464.23
458.23	458.82
458.59	452.90
458.96	446.89
459.33	441.49
459.70	436.03
460.07	431.74
460.43	426.80
460.80	422.20
461.17	418.16
461.54	413.98
461.91	409.94
462.27	405.83
462.64	402.39
463.01	398.57
463.38	394.88
463.74	391.13
464.11	387.90
464.48	385.04
464.85	381.94
465.21	379.52
465.58	376.85
465.95	373.69
466.32	371.06
466.68	368.42
467.05	365.86
467.42	363.32
467.78	360.60
468.15	358.05
468.52	356.11
468.88	353.62
469.25	351.40
469.62	349.62
469.98	347.66
470.35	345.83
470.72	344.15
471.08	342.36
471.45	340.87
471.82	339.32
472.18	337.64
472.55	336.42
472.92	334.98
473.28	333.77
473.65	332.65
474.02	331.53
474.38	330.68
474.75	329.88
475.11	329.08
475.48	328.48
475.85	328.01
476.21	327.47
476.58	327.11
476.94	326.84
477.31	326.50
477.67	326.24
478.04	326.07
478.41	326.03
478.77	326.23
479.14	326.17
479.50	326.32
479.87	326.65
480.23	327.01
480.60	327.26
480.96	327.52
481.33	328.11
481.69	328.67
482.06	329.14
482.42	329.62
482.79	330.22
483.15	331.01
483.52	331.95
483.88	332.88
484.25	333.81
484.61	334.87
484.98	335.95
485.34	337.23
485.71	338.62
486.07	340.04
486.44	341.33
486.80	342.92
487.17	344.57
487.53	346.35
487.90	348.18
488.26	350.23
488.62	352.42
488.99	354.43
489.35	356.58
489.72	359.02
490.08	361.55
490.44	364.10
490.81	366.83
491.17	369.56
491.54	372.54
491.90	375.60
492.26	378.80
492.63	382.23
492.99	385.68
493.36	389.37
493.72	393.27
494.08	397.26
494.45	401.55
494.81	405.94
495.17	410.38
495.54	415.14
495.90	419.95
496.26	424.87
496.63	430.12
496.99	435.56
497.35	441.12
497.72	446.97
498.08	452.91
498.44	459.00
498.80	465.45
499.17	471.95
499.53	478.65
499.89	485.58
500.26	492.51
500.62	499.70
500.98	507.12
501.34	514.60
501.71	522.34
502.07	530.11
502.43	538.10
502.79	546.29
503.16	554.64
503.52	563.28
503.88	572.04
504.24	580.99
504.60	590.10
504.97	599.33
505.33	608.66
505.69	618.52
506.05	628.42
506.41	638.25
506.78	648.34
507.14	658.65
507.50	669.17
507.86	679.91
508.22	690.68
508.59	701.33
508.95	712.38
509.31	723.64
509.67	735.17
510.03	746.64
510.39	758.41
510.75	770.32
511.12	782.32
511.48	794.38
511.84	806.62
512.20	818.98
512.56	831.61
512.92	844.42
513.28	857.11
513.64	869.91
514.00	882.88
514.37	895.89
514.73	909.02
515.09	921.99
515.45	935.04
515.81	948.16
516.17	961.70
516.53	975.02
516.89	988.29
517.25	1001.56
517.61	1015.07
517.97	1028.55
518.33	1041.85
518.69	1055.39
519.05	1069.29
519.41	1083.05
519.77	1096.89
520.13	1110.39
520.49	1123.53
520.85	1137.09
521.21	1150.42
521.57	1164.13
521.93	1177.27
522.29	1191.08
522.65	1204.80
523.01	1218.35
523.37	1231.57
523.73	1244.86
524.09	1258.12
524.45	1271.65
524.81	1285.20
525.17	1298.70
525.53	1311.95
525.89	1325.24
526.25	1338.48
526.61	1351.35
526.97	1364.62
527.33	1377.83
527.68	1391.39
528.04	1405.03
528.40	1418.07
528.76	1431.68
529.12	1444.68
529.48	1458.08
529.84	1470.49
530.20	1483.43
530.56	1496.26
530.91	1509.68
531.27	1522.64
531.63	1535.53
531.99	1548.38
532.35	1560.63
532.71	1573.15
533.07	1586.20
533.42	1598.55
533.78	1610.85
534.14	1623.06
534.50	1634.47
534.86	1646.03
535.21	1657.01
535.57	1668.70
535.93	1680.17
536.29	1691.30
536.65	1702.89
537.00	1714.09
537.36	1725.57
537.72	1736.67
538.08	1748.21
538.44	1759.28
538.79	1770.60
539.15	1781.61
539.51	1792.53
539.87	1804.03
540.22	1814.95
540.58	1825.87
540.94	1836.92
541.29	1847.24
541.65	1857.09
542.01	1867.61
542.37	1877.81
542.72	1887.99
543.08	1897.87
543.44	1908.45
543.79	1917.87
544.15	1927.47
544.51	1937.47
544.87	1947.50
545.22	1956.69
545.58	1965.59
545.94	1974.56
546.29	1983.12
546.65	1991.60
547.01	1999.84
547.36	2007.63
547.72	2015.45
548.07	2023.13
548.43	2030.99
548.79	2038.88
549.14	2047.13
549.50	2055.65
549.86	2063.50
550.21	2071.05
550.57	2078.71
550.92	2085.59
551.28	2093.18
551.64	2100.52
551.99	2108.03
552.35	2115.25
552.70	2122.39
553.06	2129.12
553.41	2135.43
553.77	2141.99
554.13	2148.39
554.48	2155.51
554.84	2162.63
555.19	2169.33
555.55	2175.85
555.90	2182.11
556.26	2189.07
556.61	2195.21
556.97	2200.11
557.32	2206.09
557.68	2212.54
558.03	2218.47
558.39	2223.87
558.74	2229.75
559.10	2235.15
559.45	2240.79
559.81	2246.37
560.16	2251.80
560.52	2257.64
560.87	2264.14
561.23	2270.08
561.58	2276.78
561.94	2282.15
562.29	2286.89
562.64	2292.84
563.00	2298.47
563.35	2304.02
563.71	2309.78
564.06	2315.50
564.42	2321.39
564.77	2326.45
565.12	2331.72
565.48	2336.82
565.83	2342.24
566.19	2347.64
566.54	2352.98
566.89	2357.51
567.25	2361.99
567.60	2367.63
567.96	2372.74
568.31	2377.21
568.66	2381.37
569.02	2385.21
569.37	2388.66
569.72	2393.15
570.08	2396.56
570.43	2399.70
570.78	2402.70
571.14	2405.08
571.49	2408.03
571.84	2411.53
572.20	2414.26
572.55	2417.10
572.90	2419.26
573.26	2422.08
573.61	2424.62
573.96	2426.86
574.31	2428.77
574.67	2430.62
575.02	2431.38
575.37	2432.77
575.72	2433.35
576.08	2434.82
576.43	2434.92
576.78	2435.28
577.13	2436.61
577.49	2437.78
577.84	2438.88
578.19	2440.22
578.54	2440.68
578.90	2441.18
579.25	2440.94
579.60	2440.89
579.95	2439.94
580.30	2439.79
580.66	2438.91
581.01	2437.07
581.36	2434.54
581.71	2432.88
582.06	2431.56
582.42	2430.52
582.77	2428.16
583.12	2426.41
583.47	2424.79
583.82	2424.07
584.17	2422.90
584.53	2420.57
584.88	2418.34
585.23	2416.12
585.58	2413.63
585.93	2411.46
586.28	2409.34
586.63	2406.75
586.98	2404.34
587.34	2402.33
587.69	2399.73
588.04	2397.54
588.39	2396.02
588.74	2393.33
589.09	2390.61
589.44	2387.31
589.79	2384.71
590.14	2382.64
590.49	2379.81
590.84	2375.93
591.19	2372.58
591.54	2369.03
591.89	2364.96
592.25	2361.65
592.60	2357.29
592.95	2353.09
593.30	2348.85
593.65	2344.40
594.00	2340.04
594.35	2336.93
594.70	2332.11
595.05	2327.59
595.40	2321.84
595.75	2315.83
596.10	2312.19
596.45	2307.40
596.80	2302.64
597.15	2297.37
597.50	2291.33
597.85	2286.29
598.19	2280.98
598.54	2275.22
598.89	2270.12
599.24	2265.52
599.59	2259.19
599.94	2253.30
600.29	2247.32
600.64	2241.47
600.99	2234.50
601.34	2228.92
601.69	2221.94
602.04	2215.57
602.39	2208.91
602.74	2203.02
603.08	2197.57
603.43	2190.93
603.78	2184.06
604.13	2177.01
604.48	2169.72
604.83	2163.56
605.18	2157.18
605.53	2150.25
605.87	2143.10
606.22	2136.22
606.57	2128.30
606.92	2120.30
607.27	2113.37
607.62	2106.72
607.96	2099.58
608.31	2093.16
608.66	2085.28
609.01	2077.67
609.36	2070.56
609.70	2062.88
610.05	2054.96
610.40	2046.57
610.75	2038.42
611.10	2030.47
611.44	2021.62
611.79	2012.90
612.14	2002.87
612.49	1992.32
612.83	1982.82
613.18	1973.60
613.53	1964.12
613.88	1954.52
614.22	1945.86
614.57	1936.03
614.92	1925.30
615.27	1915.09
615.61	1904.88
615.96	1895.32
616.31	1885.66
616.65	1876.27
617.00	1866.51
617.35	1857.00
617.70	1847.33
618.04	1837.31
618.39	1827.34
618.74	1817.71
619.08	1808.09
619.43	1799.55
619.78	1791.19
620.12	1782.67
620.47	1773.08
620.82	1762.85
621.16	1753.08
621.51	1743.32
621.85	1733.41
622.20	1723.30
622.55	1712.77
622.89	1702.83
623.24	1693.07
623.59	1683.25
623.93	1673.05
624.28	1663.32
624.62	1653.23
624.97	1642.98
625.32	1633.10
625.66	1624.20
626.01	1615.46
626.35	1606.02
626.70	1595.89
627.04	1585.88
627.39	1575.79
627.73	1566.53
628.08	1557.66
628.43	1548.09
628.77	1538.81
629.12	1529.95
629.46	1522.04
629.81	1513.65
630.15	1504.16
630.50	1494.36
630.84	1483.98
631.19	1474.04
631.53	1464.73
631.88	1454.55
632.22	1444.64
632.57	1435.24
632.91	1425.16
633.26	1415.22
633.60	1405.77
633.95	1396.50
634.29	1387.11
634.64	1377.84
634.98	1367.87
635.32	1358.55
635.67	1350.12
636.01	1340.93
636.36	1331.18
636.70	1321.61
637.05	1312.29
637.39	1303.39
637.73	1294.80
638.08	1287.24
638.42	1279.20
638.77	1270.34
639.11	1262.08
639.45	1254.17
639.80	1245.67
640.14	1236.81
640.49	1228.03
640.83	1219.20
641.17	1211.01
641.52	1202.84
641.86	1194.33
642.20	1186.50
642.55	1177.88
642.89	1168.99
643.23	1160.40
643.58	1152.32
643.92	1143.31
644.26	1134.63
644.61	1126.22
644.95	1117.38
645.29	1108.14
645.64	1098.99
645.98	1090.50
646.32	1082.59
646.66	1074.08
647.01	1065.69
647.35	1057.61
647.69	1049.38
648.04	1041.00
648.38	1032.17
648.72	1023.34
649.06	1014.78
649.41	1006.56
649.75	998.62
650.09	990.71
650.43	982.63
650.78	974.36
651.12	966.59
651.46	959.23
651.80	951.99
652.14	944.71
652.49	937.16
652.83	929.78
653.17	922.11
653.51	914.52
653.85	907.30
654.20	900.06
654.54	892.58
654.88	885.23
655.22	878.01
655.56	871.00
655.90	864.18
656.25	857.49
656.59	850.58
656.93	843.51
657.27	836.34
657.61	829.31
657.95	823.16
658.29	817.24
658.64	811.02
658.98	804.53
659.32	797.96
659.66	791.68
660.00	785.26
660.34	779.23
660.68	773.03
661.02	766.66
661.36	760.66
661.70	754.79
662.05	749.12
662.39	743.69
662.73	738.23
663.07	732.86
663.41	727.24
663.75	721.57
664.09	715.88
664.43	710.47
664.77	705.10
665.11	699.36
665.45	693.43
665.79	687.57
666.13	681.87
666.47	676.36
666.81	670.91
667.15	665.53
667.49	660.29
667.83	654.93
668.17	649.64
668.51	644.54
668.85	639.66
669.19	634.73
669.53	629.69
669.87	624.55
670.21	619.78
670.55	615.03
670.89	610.50
671.23	606.11
671.57	601.64
671.91	597.29
672.25	593.06
672.58	588.89
672.92	584.75
673.26	580.74
673.60	576.82
673.94	572.96
674.28	569.36
674.62	565.59
674.96	561.88
675.30	558.35
675.64	554.64
675.97	551.05
676.31	547.44
676.65	543.70
676.99	540.26
677.33	536.36
677.67	532.67
678.01	528.75
678.34	525.12
678.68	521.58
679.02	517.92
679.36	514.18
679.70	510.44
680.04	506.87
680.37	503.39
680.71	500.01
681.05	496.76
681.39	493.44
681.73	490.21
682.06	487.21
682.40	484.09
682.74	480.87
683.08	477.57
683.42	474.35
683.75	471.34
684.09	468.27
684.43	465.42
684.77	462.50
685.10	459.64
685.44	456.70
685.78	453.76
686.12	450.94
686.45	448.17
686.79	445.54
687.13	443.04
687.46	440.41
687.80	437.71
688.14	434.84
688.48	432.24
688.81	429.44
689.15	426.71
689.49	424.05
689.82	421.49
690.16	418.87
690.50	416.34
690.83	413.79
691.17	411.15
691.51	408.61
691.84	406.30
692.18	404.06
692.52	401.81
692.85	399.68
693.19	397.56
693.52	395.32
693.86	393.07
694.20	390.80
694.53	388.64
694.87	386.42
695.21	384.29
695.54	382.04
695.88	379.86
696.21	377.67
696.55	375.53
696.88	373.46
697.22	371.43
697.56	369.56
697.89	367.66
698.23	365.93
698.56	364.12
698.90	362.30
699.23	360.34
699.57	358.49
699.90	356.58
700.24	354.73
700.58	352.94
700.91	351.27
701.25	349.67
701.58	348.00
701.92	346.40
702.25	344.77
702.59	343.15
702.92	341.66
703.26	340.06
703.59	338.58
703.93	337.30
704.26	335.91
704.60	334.33
704.93	332.85
705.26	331.30
705.60	329.85
705.93	328.35
706.27	327.00
706.60	325.69
706.94	324.45
707.27	323.02
707.61	321.68
707.94	320.29
708.27	318.79
708.61	317.31
708.94	315.90
709.28	314.58
709.61	313.29
709.94	312.05
710.28	310.84
710.61	309.60
710.95	308.12
711.28	306.98
711.61	305.80
711.95	304.63
712.28	303.42
712.61	302.21
712.95	301.09
713.28	300.04
713.61	298.82
713.95	297.63
714.28	296.58
714.61	295.46
714.95	294.38
715.28	293.34
715.61	292.31
715.95	291.35
716.28	290.36
716.61	289.36
716.95	288.35
717.28	287.38
717.61	286.42
717.94	285.51
718.28	284.44
718.61	283.54
718.94	282.61
719.27	281.77
719.61	280.93
719.94	280.10
720.27	279.13
720.60	278.29
720.94	277.44
721.27	276.66
721.60	275.99
721.93	275.27
722.27	274.59
722.60	273.93
722.93	273.17
723.26	272.51
723.59	271.81
723.93	271.16
724.26	270.48
724.59	269.83
724.92	269.24
725.25	268.71
725.59	268.16
725.92	267.62
726.25	267.03
726.58	266.46
726.91	265.81
727.24	265.27
727.57	264.70
727.91	264.10
728.24	263.52
728.57	262.95
728.90	262.41
729.23	261.79
729.56	261.32
729.89	260.79
730.22	260.20
730.55	259.69
730.89	259.13
731.22	258.62
731.55	258.07
731.88	257.52
732.21	256.95
732.54	256.34
732.87	255.81
733.20	255.30
733.53	254.80
733.86	254.37
734.19	253.85
734.52	253.43
734.85	253.13
735.18	252.68
735.51	252.28
735.84	251.83
736.17	251.46
736.50	250.93
736.83	250.77
737.16	250.39
737.49	249.97
737.82	249.58
738.15	249.20
738.48	248.80
738.81	248.38
739.14	247.97
739.47	247.63
739.80	247.24
740.13	246.92
740.46	246.53
740.79	246.11
741.12	245.75
741.45	245.35
741.78	244.89
742.11	244.60
742.44	244.21
742.77	243.88
743.10	243.56
743.43	243.21
743.75	242.64
744.08	242.54
744.41	242.18
744.74	241.83
745.07	241.46
745.40	241.18
745.73	240.95
746.06	240.61
746.39	240.31
746.71	239.95
747.04	239.59
747.37	239.25
747.70	238.97
748.03	238.66
748.36	238.42
748.68	238.14
749.01	237.76
749.34	237.47
749.67	237.18
750.00	236.88
750.33	236.75
750.65	236.52
750.98	236.00
751.31	235.77
751.64	235.52
751.97	235.36
752.29	235.10
752.62	234.75
752.95	234.52
753.28	234.23
753.60	234.04
753.93	233.83
754.26	233.59
754.59	233.31
754.91	233.05
755.24	232.77
755.57	232.47
755.90	232.27
756.22	232.02
756.55	231.78
756.88	231.51
757.20	231.18
757.53	230.89
757.86	230.67
758.19	230.43
758.51	230.24
758.84	229.95
759.17	229.75
759.49	229.60
759.82	229.50
760.15	229.34
760.47	229.13
760.80	228.87
761.13	228.77
761.45	228.54
761.78	228.37
762.11	228.20
762.43	228.00
762.76	227.80
763.08	227.65
763.41	227.48
763.74	227.30
764.06	227.12
764.39	226.99
764.71	226.83
765.04	226.69
765.37	226.51
765.69	226.36
766.02	226.20
766.34	226.02
766.67	225.79
767.00	225.70
767.32	225.67
767.65	225.67
767.97	225.51
768.30	225.43
768.62	225.32
768.95	225.17
769.27	225.08
769.60	225.03
769.92	224.88
770.25	224.76
770.57	224.61
770.90	224.50
771.22	224.36
771.55	224.24
771.87	224.12
772.20	224.00
772.52	224.05
772.85	224.16
773.17	224.07
773.50	223.95
773.82	223.79
774.15	223.58
774.47	223.37
774.80	223.22
775.12	223.12
775.45	223.01
775.77	222.94
776.09	222.87
776.42	222.74
776.74	222.71
777.07	222.58
777.39	222.54
777.72	222.42
778.04	222.36
778.36	222.29
778.69	222.21
779.01	222.12
779.33	221.85
779.66	221.53
779.98	221.42
780.31	221.35
780.63	221.36
780.95	221.31
781.28	221.21
781.60	221.15
781.92	221.07
782.25	221.00
782.57	220.91
782.89	220.82
783.22	220.73
783.54	220.60
783.86	220.57
784.19	220.47
784.51	220.47
784.83	220.37
785.16	220.28
785.48	220.21
785.80	220.17
786.12	220.14
786.45	220.10
786.77	220.07
787.09	219.99
787.42	219.86
787.74	219.81
788.06	219.74
788.38	219.66
788.71	219.60
789.03	219.54
789.35	219.53
789.67	219.45
789.99	219.42
790.32	219.35
790.64	219.31
790.96	219.41
791.28	219.31
791.61	219.26
791.93	219.24
792.25	219.15
792.57	219.23
792.89	219.16
793.21	219.13
793.54	219.05
793.86	218.98
794.18	218.91
794.50	218.82
794.82	218.80
795.14	218.80
795.47	218.81
795.79	218.80
796.11	218.70
796.43	218.66
796.75	218.64
797.07	218.61
797.39	218.57
797.71	218.39
798.04	218.37
798.36	218.34
798.68	218.30
799.00	218.29
799.32	218.15
799.64	218.15
799.96	218.11
800.28	218.11
800.60	218.09
800.92	218.11
801.24	218.07
801.56	218.06
801.89	217.98
802.21	217.92
802.53	217.83
802.85	217.84
803.17	217.89
803.49	217.80
803.81	217.75
804.13	217.67
804.45	217.60
804.77	217.58
805.09	217.57
805.41	217.50
805.73	217.46
806.05	217.37
806.37	217.33
806.69	217.29
807.01	217.25
807.33	217.24
807.65	217.17
807.97	217.24
808.28	217.18
808.60	217.15
808.92	217.08
809.24	217.22
809.56	217.17
809.88	217.09
810.20	217.08
810.52	217.11
810.84	217.07
811.16	217.02
811.48	216.95
811.80	216.95
812.12	216.91
812.43	216.92
812.75	216.92
813.07	216.86
813.39	216.86
813.71	216.77
814.03	216.73
814.35	216.64
814.67	216.53
814.98	216.48
815.30	216.45
815.62	216.41
815.94	216.20
816.26	216.18
816.58	216.12
816.89	216.12
817.21	216.06
817.53	216.04
817.85	216.08
818.17	216.11
818.48	216.02
818.80	216.05
819.12	216.02
819.44	215.98
819.76	215.95
820.07	215.90
820.39	215.87
820.71	215.88
821.03	215.91
821.34	215.89
821.66	215.92
821.98	215.93
822.30	215.93
822.61	216.05
822.93	216.00
823.25	215.98
823.57	215.92
823.88	215.92
824.20	215.91
824.52	215.87
824.83	215.83
825.15	215.78
825.47	215.76
825.79	215.75
826.10	215.68
826.42	215.69
826.74	215.73
827.05	215.75
827.37	215.73
827.69	215.69
828.00	215.67
828.32	215.66
828.64	215.61
828.95	215.72
829.27	215.65
829.58	215.65
829.90	215.69
830.22	215.72
830.53	215.65
830.85	215.63
831.17	215.60
831.48	215.58
831.80	215.62
832.11	215.56
832.43	215.50
832.75	215.53
833.06	215.62
833.38	215.54
833.69	215.50
834.01	215.50
834.32	215.51
834.64	215.49
834.96	215.49
835.27	215.52
835.59	215.42
835.90	215.39
836.22	215.39
836.53	215.37
836.85	215.36
837.16	215.59
837.48	215.57
837.79	215.63
838.11	215.64
838.42	215.59
838.74	215.64
839.05	215.63
839.37	215.63
839.68	215.48
840.00	215.49
840.31	215.52
840.63	215.49
840.94	215.44
841.26	215.42
841.57	215.39
841.88	215.38
842.20	215.36
842.51	215.32
842.83	215.31
843.14	215.48
843.46	215.48
843.77	215.32
844.08	215.31
844.40	215.21
844.71	215.19
845.03	215.19
845.34	215.15
845.65	215.14
845.97	215.13
846.28	215.14
846.60	215.13
846.91	215.09
847.22	215.07
847.54	215.07
847.85	215.08
848.16	215.07
848.48	214.99
848.79	215.05
849.10	215.08
849.42	215.07
849.73	214.83
850.04	214.79
850.36	214.74
850.67	214.79
850.98	214.82
851.30	214.84
851.61	214.85
851.92	214.85
852.23	214.91
852.55	214.93
852.86	214.94
853.17	214.93
853.49	214.99
853.80	215.06
854.11	215.12
854.42	215.14
854.74	215.13
855.05	215.15
855.36	215.04
855.67	215.06
855.99	215.05
856.30	215.29
856.61	215.29
856.92	215.31
857.23	215.30
857.55	215.25
857.86	215.23
858.17	215.26
858.48	215.25
858.79	215.19
859.11	215.21
859.42	215.21
859.73	215.20
860.04	215.17
860.35	215.06
860.66	215.00
860.98	214.98
861.29	215.00
861.60	215.00
861.91	215.03
862.22	215.00
862.53	215.00
862.84	214.77
863.16	214.83
863.47	214.78
863.78	214.73
864.09	214.78
864.40	214.79
864.71	214.79
865.02	214.78
865.33	214.77
865.64	214.72
865.95	214.68
866.27	214.82
866.58	214.79
866.89	214.84
867.20	214.84
867.51	214.82
867.82	214.82
868.13	214.88
868.44	214.85
868.75	214.89
869.06	214.89
869.37	214.91
869.68	214.81
869.99	214.86
870.30	214.91
870.61	214.91
870.92	214.88
871.23	214.84
871.54	214.87
871.85	214.90
872.16	214.93
872.47	214.91
872.78	214.79
873.09	214.81
873.40	214.76
873.71	214.78
874.02	214.79
874.33	214.75
874.64	214.70
874.95	214.75
875.26	214.69
875.56	214.68
875.87	214.68
876.18	214.67
876.49	214.86
876.80	214.80
877.11	214.75
877.42	214.74
877.73	214.78
878.04	214.73
878.35	214.71
878.66	214.73
878.96	214.74
879.27	214.70
879.58	214.70
879.89	214.70
880.20	214.74
880.51	214.74
880.82	214.76
881.12	214.77
881.43	214.71
881.74	214.68
882.05	214.66
882.36	214.67
882.67	214.68
882.97	214.44
883.28	214.44
883.59	214.44
883.90	214.49
884.21	214.49
884.51	214.50
884.82	214.47
885.13	214.45
885.44	214.45
885.74	214.50
886.05	214.47
886.36	214.47
886.67	214.42
886.98	214.53
887.28	214.53
887.59	214.54
887.90	214.56
888.20	214.54
888.51	214.56
888.82	214.56
889.13	214.59
889.43	214.77
889.74	214.77
890.05	214.81
890.35	214.75
890.66	214.70
890.97	214.68
891.28	214.65
891.58	214.64
891.89	214.66
892.20	214.60
892.50	214.61
892.81	214.59
893.12	214.58
893.42	214.45
893.73	214.46
894.04	214.45
894.34	214.44
894.65	214.44
894.95	214.42
895.26	214.44
895.57	214.56
895.87	214.34
896.18	214.36
896.48	214.34
896.79	214.37
897.10	214.42
897.40	214.41
897.71	214.46
898.01	214.44
898.32	214.43
898.63	214.47
898.93	214.43
899.24	214.47
899.54	214.42
899.85	214.43
900.15	214.42
900.46	214.42
900.76	214.47
901.07	214.49
901.38	214.46
901.68	214.46
901.99	214.29
902.29	214.32
902.60	214.32
902.90	214.31
903.21	214.28
903.51	214.26
903.82	214.30
904.12	214.29
904.43	214.32
904.73	214.32
905.03	214.31
905.34	214.55
905.64	214.49
905.95	214.51
906.25	214.52
906.56	214.49
906.86	214.50
907.17	214.45
907.47	214.47
907.77	214.44
908.08	214.37
908.38	214.44
908.69	214.44
908.99	214.51
909.30	214.53
909.60	214.55
909.90	214.55
910.21	214.50
910.51	214.47
910.81	214.47
911.12	214.45
911.42	214.45
911.73	214.24
912.03	214.28
912.33	214.34
912.64	214.31
912.94	214.31
913.24	214.26
913.55	214.21
913.85	214.22
914.15	214.28
914.46	214.31
914.76	214.26
915.06	214.25
915.37	214.21
915.67	214.19
915.97	214.17
916.27	214.13
916.58	214.15
916.88	214.14
917.18	214.15
917.49	214.31
917.79	214.32
918.09	214.33
918.39	214.37
918.70	214.33
919.00	214.37
919.30	214.45
919.60	214.45
919.91	214.47
920.21	214.47
920.51	214.43
920.81	214.43
921.12	214.45
921.42	214.46
921.72	214.45
922.02	214.45
922.32	214.48
922.63	214.50
922.93	214.61
923.23	214.62
923.53	214.57
923.83	214.42
924.13	214.43
924.44	214.44
924.74	214.46
925.04	214.50
925.34	214.47
925.64	214.36
925.94	214.39
926.24	214.48
926.55	214.45
926.85	214.49
927.15	214.48
927.45	214.50
927.75	214.47
928.05	214.46
928.35	214.42
928.65	214.43
928.95	214.44
929.26	214.36
929.56	214.38
929.86	214.42
930.16	214.40
930.46	214.38
930.76	214.38
931.06	214.27
931.36	214.22
931.66	214.26
931.96	214.27
932.26	214.25
932.56	214.18
932.86	214.19
933.16	214.19
933.46	214.16
933.76	214.10
934.06	214.18
934.36	214.28
934.66	214.31
934.96	214.28
935.26	214.28
935.56	214.30
935.86	214.25
936.16	214.22
936.46	214.22
936.76	214.20
937.06	214.17
937.36	214.23
937.66	214.23
937.96	214.19
938.26	214.15
938.56	214.17
938.86	214.17
939.16	214.20
939.46	214.17
939.76	214.20
940.06	214.26
940.35	214.20
940.65	214.05
940.95	214.06
941.25	214.03
941.55	214.00
941.85	213.99
942.15	214.03
942.45	214.07
942.75	214.06
943.04	214.12
943.34	214.16
943.64	214.11
943.94	214.12
944.24	214.12
944.54	214.16
944.84	214.10
945.13	214.10
945.43	214.09
945.73	214.12
946.03	214.08
946.33	214.02
946.62	214.00
946.92	214.01
947.22	214.01
947.52	214.02
947.82	214.03
948.11	214.02
948.41	214.00
948.71	213.92
949.01	213.94
949.31	213.88
949.60	213.85
949.90	213.87
950.20	213.87
950.50	213.89
950.79	213.89
951.09	213.95
951.39	213.92
951.69	213.86
951.98	213.91
952.28	213.96
952.58	213.99
952.87	213.98
953.17	214.00
953.47	214.00
953.76	214.01
954.06	213.98
954.36	213.94
954.66	213.94
954.95	214.01
955.25	213.99
955.55	214.00
955.84	213.95
956.14	213.96
956.44	213.97
956.73	213.90
957.03	213.90
957.32	213.90
957.62	213.89
957.92	213.94
958.21	213.90
958.51	214.11
958.81	214.08
959.10	214.14
959.40	214.20
959.69	214.21
959.99	214.23
960.29	214.25
960.58	214.23
960.88	214.30
961.17	214.30
961.47	214.32
961.76	214.34
962.06	214.44
962.36	214.42
962.65	214.41
962.95	214.44
963.24	214.43
963.54	214.44
963.83	214.47
964.13	214.49
964.42	214.44
964.72	214.27
965.01	214.32
965.31	214.29
965.60	214.20
965.90	214.32
966.19	214.25
966.49	214.25
966.78	214.26
967.08	214.23
967.37	214.21
967.67	214.18
967.96	214.19
968.26	214.14
968.55	214.17
968.85	214.15
969.14	214.14
969.43	214.15
969.73	214.13
970.02	214.12
970.32	214.08
970.61	214.10
970.91	214.05
971.20	214.03
971.49	213.99
971.79	214.04
972.08	213.88
972.38	213.94
972.67	213.94
972.96	214.01
973.26	214.00
973.55	214.07
973.85	214.09
974.14	214.06
974.43	214.09
974.73	214.07
975.02	214.07
975.31	214.05
975.61	214.05
975.90	214.03
976.19	214.00
976.49	214.05
976.78	214.02
977.07	214.03
977.37	214.02
977.66	214.07
977.95	214.02
978.24	214.06
978.54	214.09
978.83	214.07
979.12	214.01
979.42	214.00
979.71	213.95
980.00	213.94
980.29	213.96
980.59	213.93
980.88	213.96
981.17	213.96
981.46	214.01
981.76	213.99
982.05	214.06
982.34	214.09
982.63	214.06
982.93	214.05
983.22	214.08
983.51	214.07
983.80	214.08
984.09	214.11
984.39	214.09
984.68	214.06
984.97	214.08
985.26	214.07
985.55	214.10
985.85	214.07
986.14	214.10
986.43	214.10
986.72	214.08
987.01	214.02
987.30	214.03
987.59	213.99
987.89	214.00
988.18	213.92
988.47	213.89
988.76	213.83
989.05	213.84
989.34	213.80
989.63	213.88
989.92	213.83
990.22	213.82
990.51	213.80
990.80	213.81
991.09	213.80
991.38	213.84
991.67	213.80
991.96	213.77
992.25	213.75
992.54	213.74
992.83	213.72
993.12	213.74
993.41	213.76
993.70	213.81
993.99	213.86
994.28	213.91
994.58	213.92
994.87	213.95
995.16	213.94
995.45	213.95
995.74	213.87
996.03	213.93
996.32	213.96
996.61	214.04
996.90	213.99
997.19	213.96
997.48	213.95
997.77	213.94
998.06	213.93
998.34	213.92
998.63	213.91
998.92	213.95
999.21	213.97
999.50	213.98
999.79	213.92
1000.08	213.89
1000.37	213.89
1000.66	213.90
1000.95	213.96
1001.24	214.00
1001.53	214.02
1001.82	214.03
1002.11	213.96
1002.40	213.96
1002.68	213.99
1002.97	214.17
1003.26	214.16
1003.55	214.13
1003.84	214.16
1004.13	214.28
1004.42	214.28
1004.71	214.27
1004.99	214.23
1005.28	214.25
1005.57	214.26
1005.86	214.25
1006.15	214.23
1006.44	214.18
1006.72	214.19
1007.01	214.14
1007.30	214.13
1007.59	214.11
1007.88	214.05
1008.17	214.06
1008.45	214.03
1008.74	213.90
1009.03	213.78
1009.32	213.78
1009.60	213.82
1009.89	213.79
1010.18	213.70
1010.47	213.67
1010.76	213.65
1011.04	213.68
1011.33	213.70
1011.62	213.69
1011.91	213.69
1012.19	213.69
1012.48	213.73
1012.77	213.73
1013.05	213.85
1013.34	213.84
1013.63	213.85
1013.92	213.89
1014.20	213.89
1014.49	213.87
1014.78	213.94
1015.06	213.89
1015.35	213.88
1015.64	213.91
1015.92	213.92
1016.21	213.92
1016.50	213.94
1016.78	213.98
1017.07	213.97
1017.36	213.92
1017.64	213.92
1017.93	213.95
1018.22	213.96
1018.50	213.95
1018.79	213.93
1019.08	213.83
1019.36	213.84
1019.65	213.84
1019.93	213.89
1020.22	213.93
1020.51	214.06
1020.79	214.02
1021.08	213.80
1021.36	213.74
1021.65	213.75
1021.94	214.18
1022.22	214.12
1022.51	214.03
1022.79	214.61
1023.08	214.29
1023.36	216.28
1023.65	213.39
>>>>>End Processed Spectral Data<<<<<
