SpectraSuite Data File
++++++++++++++++++++++++++++++++++++
Date: Tue Jan 29 16:09:42 EST 2013
User: group
Dark Spectrum Present: No
Reference Spectrum Present: No
Number of Sampled Component Spectra: 1
Spectrometers: USB2E7196
Integration Time (usec): 65000 (USB2E7196)
Spectra Averaged: 100 (USB2E7196)
Boxcar Smoothing: 10 (USB2E7196)
Correct for Electrical Dark: No (USB2E7196)
Strobe/Lamp Enabled: No (USB2E7196)
Correct for Detector Non-linearity: No (USB2E7196)
Correct for Stray Light: No (USB2E7196)
Number of Pixels in Processed Spectrum: 2048
>>>>>Begin Processed Spectral Data<<<<<
339.09	0.00
339.48	202.66
339.86	204.14
340.24	205.26
340.63	207.25
341.01	211.43
341.39	210.11
341.78	211.26
342.16	212.61
342.54	212.31
342.93	201.82
343.31	212.03
343.69	212.57
344.07	213.03
344.46	213.49
344.84	213.87
345.22	214.02
345.60	214.29
345.99	214.44
346.37	214.57
346.75	214.71
347.13	214.78
347.52	214.89
347.90	215.00
348.28	215.04
348.66	215.14
349.05	215.12
349.43	215.19
349.81	215.22
350.19	215.31
350.57	215.40
350.96	215.48
351.34	215.57
351.72	215.66
352.10	215.78
352.48	215.86
352.87	215.92
353.25	216.00
353.63	216.04
354.01	216.15
354.39	216.23
354.77	216.28
355.15	216.37
355.54	216.36
355.92	216.36
356.30	216.45
356.68	216.67
357.06	216.76
357.44	216.81
357.82	216.87
358.20	216.96
358.58	217.03
358.97	217.09
359.35	217.20
359.73	217.31
360.11	217.37
360.49	217.42
360.87	217.47
361.25	217.54
361.63	217.65
362.01	217.72
362.39	217.77
362.77	217.86
363.15	217.93
363.53	218.01
363.91	218.04
364.29	218.06
364.67	217.88
365.05	217.93
365.43	217.97
365.81	218.03
366.19	218.12
366.57	218.20
366.95	218.23
367.33	218.18
367.71	218.15
368.09	218.19
368.47	218.19
368.85	218.20
369.23	218.27
369.61	218.19
369.99	218.21
370.37	218.20
370.75	218.28
371.13	218.21
371.51	218.17
371.89	218.18
372.27	218.17
372.65	218.15
373.03	218.12
373.41	218.04
373.78	218.01
374.16	217.83
374.54	217.71
374.92	217.66
375.30	217.63
375.68	217.59
376.06	217.56
376.44	217.53
376.82	217.48
377.19	217.38
377.57	217.32
377.95	217.22
378.33	217.15
378.71	216.96
379.09	216.95
379.47	216.93
379.84	216.85
380.22	216.78
380.60	216.68
380.98	216.62
381.36	216.59
381.73	216.55
382.11	216.59
382.49	216.57
382.87	216.51
383.25	216.47
383.62	216.66
384.00	216.59
384.38	216.54
384.76	216.54
385.13	216.59
385.51	216.58
385.89	216.54
386.27	216.51
386.64	216.53
387.02	216.47
387.40	216.42
387.78	216.42
388.15	216.41
388.53	216.37
388.91	216.33
389.29	216.31
389.66	216.25
390.04	216.22
390.42	216.23
390.79	216.19
391.17	216.18
391.55	215.90
391.92	215.87
392.30	215.87
392.68	215.81
393.05	215.76
393.43	215.77
393.81	215.78
394.18	215.78
394.56	215.78
394.94	215.82
395.31	215.81
395.69	215.88
396.06	215.92
396.44	216.01
396.82	216.01
397.19	216.13
397.57	216.16
397.95	216.22
398.32	216.20
398.70	216.26
399.07	216.32
399.45	216.35
399.82	216.42
400.20	216.48
400.58	216.54
400.95	216.55
401.33	216.64
401.70	216.85
402.08	216.90
402.45	216.97
402.83	217.09
403.20	217.20
403.58	217.30
403.95	217.43
404.33	217.56
404.71	217.66
405.08	217.92
405.46	218.08
405.83	218.21
406.21	218.41
406.58	218.63
406.96	218.88
407.33	219.20
407.70	219.49
408.08	219.94
408.45	220.30
408.83	220.68
409.20	221.02
409.58	221.27
409.95	221.72
410.33	222.19
410.70	222.58
411.08	223.10
411.45	223.64
411.82	224.20
412.20	224.84
412.57	225.70
412.95	226.22
413.32	227.01
413.69	227.84
414.07	228.75
414.44	229.73
414.82	230.70
415.19	231.78
415.56	232.91
415.94	234.04
416.31	235.37
416.68	236.73
417.06	238.25
417.43	239.78
417.81	241.45
418.18	243.18
418.55	245.10
418.93	247.08
419.30	249.07
419.67	251.22
420.04	253.44
420.42	255.73
420.79	258.51
421.16	261.21
421.54	264.03
421.91	266.88
422.28	269.85
422.66	273.01
423.03	276.15
423.40	279.41
423.77	282.87
424.15	286.38
424.52	290.07
424.89	294.12
425.26	298.01
425.64	301.76
426.01	305.88
426.38	310.18
426.75	314.56
427.13	319.12
427.50	323.95
427.87	328.97
428.24	334.02
428.61	338.74
428.99	344.10
429.36	349.90
429.73	355.61
430.10	361.28
430.47	367.17
430.85	373.26
431.22	379.74
431.59	386.62
431.96	393.25
432.33	400.53
432.70	407.51
433.08	415.76
433.45	423.58
433.82	431.37
434.19	439.97
434.56	448.38
434.93	456.44
435.30	464.44
435.68	473.21
436.05	481.87
436.42	490.52
436.79	498.33
437.16	506.79
437.53	515.74
437.90	524.57
438.27	533.21
438.64	542.12
439.01	550.31
439.38	557.62
439.75	564.64
440.13	572.81
440.50	580.47
440.87	586.67
441.24	593.00
441.61	600.06
441.98	605.21
442.35	611.29
442.72	617.37
443.09	623.18
443.46	626.81
443.83	629.19
444.20	631.26
444.57	634.32
444.94	635.74
445.31	637.10
445.68	638.35
446.05	638.91
446.42	638.11
446.79	637.18
447.16	636.08
447.53	635.34
447.90	632.09
448.27	628.90
448.64	624.40
449.01	621.13
449.37	615.40
449.74	609.92
450.11	603.24
450.48	596.14
450.85	588.92
451.22	582.64
451.59	576.79
451.96	571.15
452.33	563.52
452.70	556.62
453.07	548.40
453.43	540.11
453.80	532.17
454.17	524.53
454.54	517.29
454.91	509.44
455.28	501.77
455.65	494.61
456.02	487.39
456.38	481.36
456.75	473.89
457.12	467.59
457.49	461.41
457.86	455.48
458.23	450.31
458.59	444.63
458.96	438.93
459.33	433.76
459.70	428.62
460.07	424.58
460.43	419.88
460.80	415.51
461.17	411.75
461.54	407.64
461.91	403.74
462.27	399.75
462.64	396.41
463.01	392.76
463.38	389.20
463.74	385.62
464.11	382.47
464.48	379.76
464.85	376.78
465.21	374.40
465.58	371.86
465.95	368.82
466.32	366.24
466.68	363.68
467.05	361.23
467.42	358.82
467.78	356.27
468.15	353.83
468.52	351.99
468.88	349.60
469.25	347.53
469.62	345.80
469.98	343.97
470.35	342.26
470.72	340.68
471.08	338.97
471.45	337.58
471.82	336.09
472.18	334.46
472.55	333.29
472.92	331.94
473.28	330.78
473.65	329.73
474.02	328.77
474.38	327.94
474.75	327.23
475.11	326.43
475.48	325.85
475.85	325.42
476.21	324.98
476.58	324.60
476.94	324.39
477.31	324.12
477.67	323.90
478.04	323.78
478.41	323.77
478.77	323.95
479.14	323.88
479.50	324.05
479.87	324.39
480.23	324.77
480.60	325.01
480.96	325.33
481.33	325.93
481.69	326.49
482.06	327.02
482.42	327.53
482.79	328.17
483.15	328.97
483.52	329.95
483.88	330.84
484.25	331.84
484.61	332.89
484.98	334.00
485.34	335.31
485.71	336.72
486.07	338.11
486.44	339.42
486.80	341.06
487.17	342.74
487.53	344.57
487.90	346.39
488.26	348.43
488.62	350.57
488.99	352.60
489.35	354.71
489.72	357.07
490.08	359.54
490.44	362.11
490.81	364.79
491.17	367.52
491.54	370.49
491.90	373.52
492.26	376.73
492.63	380.08
492.99	383.56
493.36	387.19
493.72	391.05
494.08	395.06
494.45	399.24
494.81	403.55
495.17	407.98
495.54	412.71
495.90	417.49
496.26	422.37
496.63	427.55
496.99	432.98
497.35	438.54
497.72	444.38
498.08	450.26
498.44	456.32
498.80	462.67
499.17	469.12
499.53	475.74
499.89	482.60
500.26	489.53
500.62	496.50
500.98	503.87
501.34	511.26
501.71	518.96
502.07	526.76
502.43	534.79
502.79	542.88
503.16	551.17
503.52	559.75
503.88	568.41
504.24	577.35
504.60	586.39
504.97	595.56
505.33	604.75
505.69	614.54
506.05	624.41
506.41	634.18
506.78	644.25
507.14	654.42
507.50	664.81
507.86	675.57
508.22	686.33
508.59	696.86
508.95	707.97
509.31	719.21
509.67	730.62
510.03	741.94
510.39	753.62
510.75	765.51
511.12	777.27
511.48	789.35
511.84	801.43
512.20	813.65
512.56	826.26
512.92	839.00
513.28	851.59
513.64	864.14
514.00	876.92
514.37	889.74
514.73	902.78
515.09	915.64
515.45	928.24
515.81	941.12
516.17	954.51
516.53	967.41
516.89	980.35
517.25	993.37
517.61	1006.76
517.97	1019.93
518.33	1032.79
518.69	1046.20
519.05	1059.81
519.41	1073.23
519.77	1086.91
520.13	1099.96
520.49	1112.85
520.85	1125.98
521.21	1139.15
521.57	1152.51
521.93	1165.39
522.29	1178.90
522.65	1192.39
523.01	1205.82
523.37	1218.81
523.73	1231.76
524.09	1244.79
524.45	1257.95
524.81	1271.10
525.17	1284.15
525.53	1297.15
525.89	1310.25
526.25	1323.12
526.61	1335.57
526.97	1348.49
527.33	1361.00
527.68	1374.23
528.04	1387.44
528.40	1400.27
528.76	1413.39
529.12	1426.02
529.48	1439.02
529.84	1450.98
530.20	1463.37
530.56	1475.77
530.91	1488.79
531.27	1501.27
531.63	1513.74
531.99	1526.08
532.35	1538.06
532.71	1550.15
533.07	1562.70
533.42	1574.52
533.78	1586.36
534.14	1598.11
534.50	1609.06
534.86	1620.45
535.21	1630.91
535.57	1642.11
535.93	1653.22
536.29	1663.95
536.65	1675.01
537.00	1685.73
537.36	1696.82
537.72	1707.37
538.08	1718.27
538.44	1728.89
538.79	1739.72
539.15	1750.25
539.51	1760.77
539.87	1771.71
540.22	1782.10
540.58	1792.58
540.94	1803.28
541.29	1813.17
541.65	1822.64
542.01	1832.82
542.37	1842.56
542.72	1852.50
543.08	1861.97
543.44	1871.98
543.79	1881.10
544.15	1890.40
544.51	1900.04
544.87	1909.64
545.22	1918.70
545.58	1927.51
545.94	1936.05
546.29	1944.23
546.65	1952.43
547.01	1960.38
547.36	1968.10
547.72	1975.68
548.07	1983.15
548.43	1990.64
548.79	1998.27
549.14	2006.35
549.50	2014.56
549.86	2022.11
550.21	2029.36
550.57	2036.90
550.92	2043.48
551.28	2050.62
551.64	2057.65
551.99	2065.03
552.35	2072.01
552.70	2078.52
553.06	2084.77
553.41	2090.90
553.77	2097.23
554.13	2103.39
554.48	2110.30
554.84	2117.03
555.19	2123.36
555.55	2129.61
555.90	2135.86
556.26	2142.45
556.61	2148.16
556.97	2152.92
557.32	2158.68
557.68	2164.86
558.03	2170.33
558.39	2175.55
558.74	2181.48
559.10	2187.04
559.45	2192.45
559.81	2198.01
560.16	2203.63
560.52	2209.60
560.87	2215.99
561.23	2222.03
561.58	2228.77
561.94	2233.87
562.29	2238.64
562.64	2244.95
563.00	2250.59
563.35	2256.07
563.71	2261.86
564.06	2267.45
564.42	2273.41
564.77	2278.65
565.12	2284.03
565.48	2289.38
565.83	2294.99
566.19	2300.47
566.54	2305.86
566.89	2310.62
567.25	2315.16
567.60	2320.86
567.96	2326.08
568.31	2330.55
568.66	2334.80
569.02	2338.59
569.37	2342.46
569.72	2346.79
570.08	2350.29
570.43	2353.45
570.78	2356.68
571.14	2359.37
571.49	2362.57
571.84	2366.17
572.20	2368.96
572.55	2372.04
572.90	2374.39
573.26	2377.40
573.61	2380.07
573.96	2382.23
574.31	2384.12
574.67	2386.04
575.02	2387.01
575.37	2388.49
575.72	2389.54
576.08	2391.18
576.43	2391.57
576.78	2392.34
577.13	2394.31
577.49	2395.45
577.84	2396.80
578.19	2398.30
578.54	2399.19
578.90	2400.36
579.25	2400.50
579.60	2400.84
579.95	2400.30
580.30	2400.72
580.66	2400.19
581.01	2398.55
581.36	2396.61
581.71	2395.52
582.06	2394.74
582.42	2394.07
582.77	2392.12
583.12	2390.57
583.47	2389.48
583.82	2388.99
584.17	2388.01
584.53	2385.96
584.88	2384.18
585.23	2382.43
585.58	2380.19
585.93	2378.15
586.28	2376.07
586.63	2373.83
586.98	2371.74
587.34	2369.93
587.69	2367.71
588.04	2365.84
588.39	2364.77
588.74	2362.48
589.09	2360.05
589.44	2357.04
589.79	2354.84
590.14	2353.18
590.49	2350.58
590.84	2346.95
591.19	2344.17
591.54	2340.91
591.89	2336.93
592.25	2333.80
592.60	2329.66
592.95	2325.81
593.30	2321.95
593.65	2317.80
594.00	2313.59
594.35	2310.67
594.70	2306.22
595.05	2301.58
595.40	2296.24
595.75	2290.59
596.10	2286.91
596.45	2282.20
596.80	2277.77
597.15	2272.55
597.50	2266.59
597.85	2261.72
598.19	2256.60
598.54	2250.77
598.89	2245.66
599.24	2241.35
599.59	2235.36
599.94	2229.89
600.29	2224.11
600.64	2218.29
600.99	2211.71
601.34	2206.12
601.69	2199.23
602.04	2192.78
602.39	2186.48
602.74	2180.57
603.08	2175.13
603.43	2168.82
603.78	2162.03
604.13	2155.07
604.48	2147.98
604.83	2142.10
605.18	2135.90
605.53	2129.03
605.87	2122.21
606.22	2115.53
606.57	2107.68
606.92	2099.89
607.27	2093.03
607.62	2086.37
607.96	2079.35
608.31	2072.74
608.66	2065.21
609.01	2057.66
609.36	2050.80
609.70	2043.13
610.05	2035.34
610.40	2027.05
610.75	2018.82
611.10	2011.35
611.44	2002.61
611.79	1994.04
612.14	1984.01
612.49	1973.70
612.83	1964.54
613.18	1955.49
613.53	1946.25
613.88	1936.59
614.22	1928.04
614.57	1918.11
614.92	1907.67
615.27	1897.68
615.61	1887.72
615.96	1878.10
616.31	1868.61
616.65	1859.27
617.00	1849.37
617.35	1839.77
617.70	1830.12
618.04	1820.03
618.39	1809.70
618.74	1800.02
619.08	1790.40
619.43	1781.78
619.78	1773.48
620.12	1764.80
620.47	1754.91
620.82	1744.65
621.16	1735.01
621.51	1724.98
621.85	1715.11
622.20	1704.64
622.55	1694.07
622.89	1684.24
623.24	1674.49
623.59	1664.71
623.93	1654.53
624.28	1644.83
624.62	1634.69
624.97	1624.38
625.32	1614.72
625.66	1605.90
626.01	1597.00
626.35	1587.62
626.70	1577.45
627.04	1567.28
627.39	1557.15
627.73	1548.05
628.08	1538.99
628.43	1529.26
628.77	1520.18
629.12	1511.41
629.46	1503.58
629.81	1495.06
630.15	1485.50
630.50	1475.70
630.84	1465.17
631.19	1455.30
631.53	1445.90
631.88	1435.85
632.22	1425.87
632.57	1416.50
632.91	1406.23
633.26	1396.45
633.60	1386.86
633.95	1377.64
634.29	1368.38
634.64	1358.98
634.98	1349.14
635.32	1339.90
635.67	1331.45
636.01	1322.27
636.36	1312.50
636.70	1303.00
637.05	1293.65
637.39	1284.74
637.73	1276.08
638.08	1268.63
638.42	1260.34
638.77	1251.58
639.11	1243.26
639.45	1235.41
639.80	1226.76
640.14	1218.15
640.49	1209.38
640.83	1200.52
641.17	1192.41
641.52	1184.16
641.86	1175.68
642.20	1167.67
642.55	1159.18
642.89	1150.36
643.23	1141.54
643.58	1133.46
643.92	1124.45
644.26	1115.80
644.61	1107.38
644.95	1098.63
645.29	1089.38
645.64	1080.21
645.98	1071.79
646.32	1063.93
646.66	1055.60
647.01	1047.27
647.35	1039.19
647.69	1030.77
648.04	1022.49
648.38	1013.51
648.72	1004.66
649.06	996.21
649.41	988.11
649.75	980.05
650.09	972.26
650.43	964.31
650.78	955.97
651.12	948.34
651.46	941.12
651.80	933.81
652.14	926.49
652.49	918.96
652.83	911.74
653.17	904.15
653.51	896.53
653.85	889.30
654.20	882.09
654.54	874.54
654.88	867.45
655.22	860.34
655.56	853.58
655.90	846.94
656.25	840.33
656.59	833.33
656.93	826.41
657.27	819.35
657.61	812.51
657.95	806.47
658.29	800.65
658.64	794.45
658.98	788.19
659.32	781.69
659.66	775.53
660.00	769.28
660.34	763.25
660.68	757.21
661.02	750.93
661.36	745.15
661.70	739.45
662.05	733.85
662.39	728.42
662.73	723.03
663.07	717.67
663.41	712.10
663.75	706.56
664.09	700.99
664.43	695.59
664.77	690.22
665.11	684.48
665.45	678.55
665.79	672.74
666.13	667.03
666.47	661.60
666.81	656.26
667.15	650.98
667.49	645.86
667.83	640.63
668.17	635.41
668.51	630.25
668.85	625.42
669.19	620.55
669.53	615.55
669.87	610.44
670.21	605.76
670.55	601.10
670.89	596.74
671.23	592.46
671.57	588.16
671.91	583.94
672.25	579.92
672.58	575.90
672.92	571.99
673.26	568.11
673.60	564.35
673.94	560.56
674.28	556.94
674.62	553.24
674.96	549.61
675.30	546.17
675.64	542.62
675.97	539.09
676.31	535.54
676.65	532.04
676.99	528.64
677.33	524.85
677.67	521.21
678.01	517.44
678.34	513.83
678.68	510.38
679.02	506.84
679.36	503.17
679.70	499.53
680.04	496.05
680.37	492.69
680.71	489.46
681.05	486.38
681.39	483.16
681.73	480.08
682.06	477.05
682.40	473.97
682.74	470.81
683.08	467.63
683.42	464.53
683.75	461.61
684.09	458.71
684.43	455.94
684.77	453.09
685.10	450.27
685.44	447.44
685.78	444.56
686.12	441.87
686.45	439.20
686.79	436.62
687.13	434.11
687.46	431.52
687.80	428.86
688.14	426.05
688.48	423.49
688.81	420.85
689.15	418.29
689.49	415.75
689.82	413.27
690.16	410.73
690.50	408.30
690.83	405.82
691.17	403.30
691.51	400.95
691.84	398.81
692.18	396.66
692.52	394.45
692.85	392.31
693.19	390.18
693.52	388.05
693.86	385.90
694.20	383.76
694.53	381.69
694.87	379.56
695.21	377.49
695.54	375.37
695.88	373.24
696.21	371.10
696.55	369.06
696.88	367.04
697.22	365.15
697.56	363.31
697.89	361.48
698.23	359.81
698.56	358.06
698.90	356.28
699.23	354.40
699.57	352.66
699.90	350.88
700.24	349.12
700.58	347.39
700.91	345.79
701.25	344.26
701.58	342.66
701.92	341.08
702.25	339.51
702.59	338.00
702.92	336.52
703.26	335.04
703.59	333.59
703.93	332.38
704.26	331.00
704.60	329.52
704.93	328.08
705.26	326.60
705.60	325.13
705.93	323.68
706.27	322.43
706.60	321.17
706.94	319.98
707.27	318.66
707.61	317.38
707.94	316.06
708.27	314.56
708.61	313.16
708.94	311.85
709.28	310.64
709.61	309.40
709.94	308.18
710.28	307.03
710.61	305.86
710.95	304.49
711.28	303.45
711.61	302.28
711.95	301.18
712.28	299.97
712.61	298.81
712.95	297.81
713.28	296.77
713.61	295.64
713.95	294.50
714.28	293.49
714.61	292.47
714.95	291.45
715.28	290.49
715.61	289.54
715.95	288.60
716.28	287.64
716.61	286.74
716.95	285.85
717.28	284.92
717.61	283.96
717.94	283.08
718.28	282.03
718.61	281.17
718.94	280.27
719.27	279.50
719.61	278.69
719.94	277.79
720.27	276.83
720.60	276.02
720.94	275.30
721.27	274.57
721.60	273.86
721.93	273.19
722.27	272.56
722.60	271.89
722.93	271.21
723.26	270.55
723.59	269.82
723.93	269.18
724.26	268.54
724.59	267.94
724.92	267.37
725.25	266.84
725.59	266.31
725.92	265.82
726.25	265.23
726.58	264.72
726.91	264.14
727.24	263.63
727.57	263.09
727.91	262.46
728.24	261.92
728.57	261.37
728.90	260.80
729.23	260.19
729.56	259.79
729.89	259.24
730.22	258.69
730.55	258.20
730.89	257.69
731.22	257.18
731.55	256.67
731.88	256.16
732.21	255.64
732.54	255.12
732.87	254.60
733.20	254.15
733.53	253.67
733.86	253.22
734.19	252.76
734.52	252.33
734.85	252.05
735.18	251.56
735.51	251.21
735.84	250.82
736.17	250.50
736.50	249.96
736.83	249.83
737.16	249.47
737.49	249.09
737.82	248.69
738.15	248.34
738.48	247.95
738.81	247.54
739.14	247.13
739.47	246.75
739.80	246.41
740.13	246.07
740.46	245.67
740.79	245.30
741.12	244.96
741.45	244.60
741.78	244.16
742.11	243.92
742.44	243.52
742.77	243.23
743.10	242.85
743.43	242.52
743.75	241.95
744.08	241.84
744.41	241.50
744.74	241.18
745.07	240.79
745.40	240.53
745.73	240.34
746.06	240.05
746.39	239.77
746.71	239.43
747.04	239.05
747.37	238.76
747.70	238.52
748.03	238.19
748.36	237.96
748.68	237.64
749.01	237.27
749.34	237.04
749.67	236.70
750.00	236.45
750.33	236.33
750.65	236.08
750.98	235.60
751.31	235.37
751.64	235.14
751.97	235.04
752.29	234.76
752.62	234.38
752.95	234.12
753.28	233.85
753.60	233.65
753.93	233.50
754.26	233.29
754.59	233.01
754.91	232.80
755.24	232.56
755.57	232.35
755.90	232.16
756.22	231.88
756.55	231.65
756.88	231.41
757.20	231.04
757.53	230.78
757.86	230.57
758.19	230.38
758.51	230.16
758.84	229.89
759.17	229.71
759.49	229.56
759.82	229.50
760.15	229.32
760.47	229.10
760.80	228.90
761.13	228.76
761.45	228.55
761.78	228.39
762.11	228.19
762.43	228.02
762.76	227.85
763.08	227.70
763.41	227.58
763.74	227.46
764.06	227.32
764.39	227.20
764.71	227.05
765.04	226.87
765.37	226.71
765.69	226.55
766.02	226.42
766.34	226.28
766.67	226.08
767.00	226.02
767.32	226.01
767.65	226.00
767.97	225.88
768.30	225.81
768.62	225.69
768.95	225.56
769.27	225.42
769.60	225.35
769.92	225.20
770.25	225.06
770.57	224.91
770.90	224.80
771.22	224.68
771.55	224.59
771.87	224.51
772.20	224.39
772.52	224.48
772.85	224.60
773.17	224.52
773.50	224.41
773.82	224.25
774.15	224.03
774.47	223.78
774.80	223.66
775.12	223.50
775.45	223.43
775.77	223.37
776.09	223.34
776.42	223.20
776.74	223.18
777.07	223.10
777.39	223.05
777.72	222.95
778.04	222.87
778.36	222.78
778.69	222.69
779.01	222.65
779.33	222.37
779.66	222.05
779.98	221.97
780.31	221.88
780.63	221.90
780.95	221.86
781.28	221.81
781.60	221.75
781.92	221.72
782.25	221.62
782.57	221.57
782.89	221.50
783.22	221.43
783.54	221.32
783.86	221.27
784.19	221.18
784.51	221.17
784.83	221.09
785.16	221.00
785.48	220.94
785.80	220.89
786.12	220.88
786.45	220.82
786.77	220.74
787.09	220.70
787.42	220.58
787.74	220.56
788.06	220.49
788.38	220.40
788.71	220.33
789.03	220.28
789.35	220.23
789.67	220.12
789.99	220.08
790.32	220.02
790.64	219.98
790.96	220.10
791.28	220.01
791.61	219.95
791.93	219.94
792.25	219.89
792.57	219.93
792.89	219.86
793.21	219.81
793.54	219.76
793.86	219.69
794.18	219.66
794.50	219.58
794.82	219.53
795.14	219.52
795.47	219.54
795.79	219.51
796.11	219.44
796.43	219.40
796.75	219.36
797.07	219.36
797.39	219.31
797.71	219.13
798.04	219.10
798.36	219.06
798.68	218.99
799.00	218.98
799.32	218.86
799.64	218.86
799.96	218.83
800.28	218.88
800.60	218.82
800.92	218.77
801.24	218.72
801.56	218.74
801.89	218.68
802.21	218.64
802.53	218.58
802.85	218.60
803.17	218.69
803.49	218.60
803.81	218.51
804.13	218.46
804.45	218.43
804.77	218.40
805.09	218.36
805.41	218.35
805.73	218.27
806.05	218.18
806.37	218.13
806.69	218.05
807.01	218.00
807.33	217.99
807.65	217.93
807.97	217.99
808.28	217.91
808.60	217.90
808.92	217.82
809.24	217.89
809.56	217.79
809.88	217.69
810.20	217.71
810.52	217.77
810.84	217.72
811.16	217.65
811.48	217.59
811.80	217.66
812.12	217.62
812.43	217.65
812.75	217.64
813.07	217.59
813.39	217.61
813.71	217.52
814.03	217.47
814.35	217.44
814.67	217.33
814.98	217.28
815.30	217.24
815.62	217.20
815.94	217.07
816.26	217.10
816.58	217.02
816.89	217.03
817.21	216.95
817.53	216.93
817.85	216.92
818.17	216.92
818.48	216.82
818.80	216.84
819.12	216.77
819.44	216.73
819.76	216.69
820.07	216.69
820.39	216.68
820.71	216.69
821.03	216.68
821.34	216.65
821.66	216.69
821.98	216.71
822.30	216.68
822.61	216.80
822.93	216.74
823.25	216.72
823.57	216.68
823.88	216.70
824.20	216.67
824.52	216.69
824.83	216.65
825.15	216.60
825.47	216.60
825.79	216.64
826.10	216.61
826.42	216.58
826.74	216.60
827.05	216.54
827.37	216.55
827.69	216.50
828.00	216.53
828.32	216.50
828.64	216.45
828.95	216.55
829.27	216.47
829.58	216.46
829.90	216.49
830.22	216.48
830.53	216.44
830.85	216.42
831.17	216.38
831.48	216.38
831.80	216.42
832.11	216.37
832.43	216.32
832.75	216.32
833.06	216.44
833.38	216.32
833.69	216.35
834.01	216.34
834.32	216.37
834.64	216.34
834.96	216.34
835.27	216.35
835.59	216.28
835.90	216.23
836.22	216.22
836.53	216.18
836.85	216.15
837.16	216.33
837.48	216.32
837.79	216.39
838.11	216.40
838.42	216.40
838.74	216.43
839.05	216.39
839.37	216.37
839.68	216.24
840.00	216.27
840.31	216.29
840.63	216.26
840.94	216.22
841.26	216.18
841.57	216.16
841.88	216.18
842.20	216.14
842.51	216.12
842.83	216.12
843.14	216.26
843.46	216.25
843.77	216.08
844.08	216.12
844.40	216.00
844.71	215.96
845.03	215.88
845.34	215.85
845.65	215.87
845.97	215.89
846.28	215.88
846.60	215.84
846.91	215.83
847.22	215.87
847.54	215.89
847.85	215.91
848.16	215.88
848.48	215.84
848.79	215.90
849.10	215.92
849.42	215.91
849.73	215.71
850.04	215.70
850.36	215.70
850.67	215.68
850.98	215.73
851.30	215.76
851.61	215.73
851.92	215.73
852.23	215.76
852.55	215.73
852.86	215.74
853.17	215.76
853.49	215.76
853.80	215.74
854.11	215.76
854.42	215.75
854.74	215.72
855.05	215.72
855.36	215.61
855.67	215.63
855.99	215.66
856.30	215.91
856.61	215.90
856.92	215.86
857.23	215.89
857.55	215.84
857.86	215.84
858.17	215.88
858.48	215.86
858.79	215.81
859.11	215.85
859.42	215.85
859.73	215.82
860.04	215.84
860.35	215.81
860.66	215.74
860.98	215.74
861.29	215.74
861.60	215.70
861.91	215.75
862.22	215.69
862.53	215.62
862.84	215.38
863.16	215.43
863.47	215.44
863.78	215.41
864.09	215.41
864.40	215.42
864.71	215.43
865.02	215.43
865.33	215.41
865.64	215.39
865.95	215.40
866.27	215.55
866.58	215.49
866.89	215.49
867.20	215.53
867.51	215.49
867.82	215.51
868.13	215.59
868.44	215.55
868.75	215.58
869.06	215.62
869.37	215.64
869.68	215.57
869.99	215.57
870.30	215.58
870.61	215.61
870.92	215.54
871.23	215.53
871.54	215.58
871.85	215.64
872.16	215.65
872.47	215.62
872.78	215.50
873.09	215.51
873.40	215.47
873.71	215.46
874.02	215.45
874.33	215.43
874.64	215.36
874.95	215.39
875.26	215.35
875.56	215.32
875.87	215.33
876.18	215.32
876.49	215.51
876.80	215.49
877.11	215.46
877.42	215.50
877.73	215.49
878.04	215.46
878.35	215.42
878.66	215.43
878.96	215.42
879.27	215.40
879.58	215.39
879.89	215.42
880.20	215.50
880.51	215.50
880.82	215.50
881.12	215.56
881.43	215.50
881.74	215.46
882.05	215.47
882.36	215.48
882.67	215.51
882.97	215.32
883.28	215.28
883.59	215.26
883.90	215.28
884.21	215.32
884.51	215.31
884.82	215.28
885.13	215.27
885.44	215.27
885.74	215.29
886.05	215.27
886.36	215.27
886.67	215.18
886.98	215.31
887.28	215.36
887.59	215.32
887.90	215.34
888.20	215.33
888.51	215.39
888.82	215.36
889.13	215.34
889.43	215.50
889.74	215.48
890.05	215.48
890.35	215.43
890.66	215.40
890.97	215.34
891.28	215.36
891.58	215.36
891.89	215.34
892.20	215.30
892.50	215.29
892.81	215.26
893.12	215.24
893.42	215.11
893.73	215.07
894.04	215.07
894.34	215.11
894.65	215.11
894.95	215.06
895.26	215.09
895.57	215.21
895.87	215.00
896.18	215.06
896.48	215.03
896.79	215.06
897.10	215.06
897.40	215.08
897.71	215.09
898.01	215.10
898.32	215.10
898.63	215.09
898.93	215.11
899.24	215.11
899.54	215.15
899.85	215.14
900.15	215.15
900.46	215.14
900.76	215.13
901.07	215.15
901.38	215.13
901.68	215.13
901.99	215.02
902.29	215.05
902.60	215.01
902.90	215.01
903.21	215.00
903.51	214.98
903.82	215.06
904.12	215.08
904.43	215.06
904.73	215.04
905.03	215.06
905.34	215.23
905.64	215.23
905.95	215.20
906.25	215.19
906.56	215.19
906.86	215.18
907.17	215.15
907.47	215.15
907.77	215.15
908.08	215.12
908.38	215.14
908.69	215.15
908.99	215.18
909.30	215.21
909.60	215.22
909.90	215.26
910.21	215.18
910.51	215.14
910.81	215.16
911.12	215.22
911.42	215.23
911.73	215.05
912.03	215.07
912.33	215.12
912.64	215.15
912.94	215.13
913.24	215.11
913.55	215.11
913.85	215.09
914.15	215.14
914.46	215.17
914.76	215.14
915.06	215.14
915.37	215.12
915.67	215.12
915.97	215.12
916.27	215.07
916.58	215.09
916.88	215.08
917.18	215.05
917.49	215.17
917.79	215.17
918.09	215.21
918.39	215.24
918.70	215.23
919.00	215.22
919.30	215.28
919.60	215.28
919.91	215.26
920.21	215.27
920.51	215.21
920.81	215.20
921.12	215.22
921.42	215.18
921.72	215.21
922.02	215.22
922.32	215.24
922.63	215.24
922.93	215.32
923.23	215.35
923.53	215.29
923.83	215.12
924.13	215.16
924.44	215.11
924.74	215.17
925.04	215.19
925.34	215.20
925.64	215.14
925.94	215.15
926.24	215.27
926.55	215.30
926.85	215.33
927.15	215.33
927.45	215.33
927.75	215.33
928.05	215.32
928.35	215.30
928.65	215.35
928.95	215.34
929.26	215.28
929.56	215.29
929.86	215.37
930.16	215.35
930.46	215.29
930.76	215.31
931.06	215.19
931.36	215.16
931.66	215.20
931.96	215.24
932.26	215.25
932.56	215.15
932.86	215.14
933.16	215.13
933.46	215.11
933.76	215.10
934.06	215.12
934.36	215.19
934.66	215.21
934.96	215.14
935.26	215.18
935.56	215.21
935.86	215.16
936.16	215.14
936.46	215.12
936.76	215.14
937.06	215.13
937.36	215.13
937.66	215.14
937.96	215.08
938.26	215.01
938.56	214.99
938.86	215.00
939.16	215.04
939.46	215.06
939.76	215.07
940.06	215.10
940.35	215.08
940.65	214.99
940.95	215.02
941.25	214.97
941.55	214.96
941.85	214.93
942.15	214.98
942.45	215.06
942.75	215.09
943.04	215.07
943.34	215.14
943.64	215.13
943.94	215.11
944.24	215.13
944.54	215.16
944.84	215.15
945.13	215.12
945.43	215.08
945.73	215.04
946.03	215.00
946.33	214.93
946.62	214.90
946.92	214.87
947.22	214.84
947.52	214.87
947.82	214.89
948.11	214.90
948.41	214.87
948.71	214.77
949.01	214.79
949.31	214.80
949.60	214.77
949.90	214.82
950.20	214.79
950.50	214.78
950.79	214.77
951.09	214.80
951.39	214.82
951.69	214.79
951.98	214.83
952.28	214.87
952.58	214.89
952.87	214.92
953.17	214.97
953.47	214.96
953.76	214.96
954.06	214.89
954.36	214.84
954.66	214.81
954.95	214.89
955.25	214.88
955.55	214.85
955.84	214.81
956.14	214.82
956.44	214.84
956.73	214.80
957.03	214.80
957.32	214.80
957.62	214.80
957.92	214.84
958.21	214.83
958.51	215.06
958.81	215.05
959.10	215.07
959.40	215.13
959.69	215.13
959.99	215.16
960.29	215.15
960.58	215.14
960.88	215.24
961.17	215.20
961.47	215.22
961.76	215.23
962.06	215.28
962.36	215.22
962.65	215.24
962.95	215.28
963.24	215.26
963.54	215.27
963.83	215.27
964.13	215.25
964.42	215.21
964.72	215.09
965.01	215.11
965.31	215.08
965.60	215.02
965.90	215.15
966.19	215.13
966.49	215.14
966.78	215.14
967.08	215.12
967.37	215.13
967.67	215.09
967.96	215.10
968.26	215.04
968.55	215.08
968.85	215.08
969.14	215.08
969.43	215.07
969.73	215.05
970.02	215.05
970.32	215.05
970.61	215.06
970.91	214.95
971.20	214.94
971.49	214.92
971.79	214.96
972.08	214.79
972.38	214.77
972.67	214.79
972.96	214.82
973.26	214.79
973.55	214.85
973.85	214.85
974.14	214.87
974.43	214.92
974.73	214.89
975.02	214.85
975.31	214.85
975.61	214.84
975.90	214.78
976.19	214.76
976.49	214.78
976.78	214.79
977.07	214.82
977.37	214.82
977.66	214.82
977.95	214.76
978.24	214.78
978.54	214.80
978.83	214.78
979.12	214.78
979.42	214.78
979.71	214.71
980.00	214.72
980.29	214.71
980.59	214.66
980.88	214.71
981.17	214.70
981.46	214.69
981.76	214.71
982.05	214.81
982.34	214.81
982.63	214.79
982.93	214.76
983.22	214.80
983.51	214.80
983.80	214.84
984.09	214.87
984.39	214.85
984.68	214.84
984.97	214.87
985.26	214.84
985.55	214.81
985.85	214.77
986.14	214.82
986.43	214.83
986.72	214.84
987.01	214.75
987.30	214.76
987.59	214.76
987.89	214.75
988.18	214.71
988.47	214.71
988.76	214.70
989.05	214.69
989.34	214.64
989.63	214.68
989.92	214.65
990.22	214.62
990.51	214.63
990.80	214.65
991.09	214.62
991.38	214.63
991.67	214.65
991.96	214.64
992.25	214.62
992.54	214.58
992.83	214.59
993.12	214.61
993.41	214.65
993.70	214.72
993.99	214.78
994.28	214.79
994.58	214.83
994.87	214.82
995.16	214.81
995.45	214.80
995.74	214.73
996.03	214.82
996.32	214.82
996.61	214.88
996.90	214.86
997.19	214.89
997.48	214.90
997.77	214.86
998.06	214.90
998.34	214.88
998.63	214.89
998.92	214.90
999.21	214.94
999.50	214.92
999.79	214.84
1000.08	214.80
1000.37	214.82
1000.66	214.77
1000.95	214.84
1001.24	214.86
1001.53	214.91
1001.82	214.92
1002.11	214.79
1002.40	214.84
1002.68	214.87
1002.97	215.05
1003.26	215.02
1003.55	214.98
1003.84	215.02
1004.13	215.09
1004.42	215.08
1004.71	215.05
1004.99	215.04
1005.28	215.06
1005.57	215.05
1005.86	215.02
1006.15	215.01
1006.44	214.97
1006.72	214.99
1007.01	214.95
1007.30	214.94
1007.59	214.93
1007.88	214.94
1008.17	214.99
1008.45	214.94
1008.74	214.83
1009.03	214.71
1009.32	214.73
1009.60	214.75
1009.89	214.72
1010.18	214.58
1010.47	214.59
1010.76	214.62
1011.04	214.61
1011.33	214.67
1011.62	214.70
1011.91	214.76
1012.19	214.76
1012.48	214.79
1012.77	214.80
1013.05	214.88
1013.34	214.87
1013.63	214.84
1013.92	214.86
1014.20	214.83
1014.49	214.88
1014.78	214.93
1015.06	214.86
1015.35	214.82
1015.64	214.85
1015.92	214.87
1016.21	214.93
1016.50	214.92
1016.78	214.93
1017.07	214.94
1017.36	214.86
1017.64	214.84
1017.93	214.87
1018.22	214.83
1018.50	214.79
1018.79	214.81
1019.08	214.72
1019.36	214.74
1019.65	214.71
1019.93	214.76
1020.22	214.78
1020.51	214.86
1020.79	214.82
1021.08	213.98
1021.36	214.14
1021.65	215.14
1021.94	214.79
1022.22	214.74
1022.51	214.28
1022.79	215.86
1023.08	214.58
1023.36	217.23
1023.65	214.19
>>>>>End Processed Spectral Data<<<<<
