SpectraSuite Data File
++++++++++++++++++++++++++++++++++++
Date: Tue Jan 29 16:55:08 EST 2013
User: group
Dark Spectrum Present: No
Reference Spectrum Present: No
Number of Sampled Component Spectra: 1
Spectrometers: USB2E7196
Integration Time (usec): 65000 (USB2E7196)
Spectra Averaged: 100 (USB2E7196)
Boxcar Smoothing: 10 (USB2E7196)
Correct for Electrical Dark: No (USB2E7196)
Strobe/Lamp Enabled: No (USB2E7196)
Correct for Detector Non-linearity: No (USB2E7196)
Correct for Stray Light: No (USB2E7196)
Number of Pixels in Processed Spectrum: 2048
>>>>>Begin Processed Spectral Data<<<<<
339.09	0.00
339.48	201.51
339.86	202.73
340.24	204.63
340.63	205.66
341.01	210.37
341.39	208.02
341.78	210.65
342.16	212.05
342.54	211.88
342.93	200.75
343.31	210.87
343.69	211.41
344.07	211.87
344.46	212.30
344.84	212.71
345.22	212.87
345.60	213.15
345.99	213.33
346.37	213.42
346.75	213.50
347.13	213.59
347.52	213.66
347.90	213.79
348.28	213.81
348.66	213.87
349.05	213.83
349.43	213.90
349.81	213.98
350.19	214.04
350.57	214.09
350.96	214.17
351.34	214.31
351.72	214.39
352.10	214.51
352.48	214.59
352.87	214.64
353.25	214.72
353.63	214.79
354.01	214.83
354.39	214.92
354.77	214.99
355.15	215.09
355.54	215.15
355.92	215.17
356.30	215.25
356.68	215.45
357.06	215.55
357.44	215.60
357.82	215.67
358.20	215.77
358.58	215.84
358.97	215.92
359.35	215.99
359.73	216.13
360.11	216.18
360.49	216.23
360.87	216.27
361.25	216.31
361.63	216.43
362.01	216.51
362.39	216.56
362.77	216.64
363.15	216.68
363.53	216.72
363.91	216.78
364.29	216.83
364.67	216.69
365.05	216.70
365.43	216.75
365.81	216.79
366.19	216.89
366.57	216.99
366.95	216.98
367.33	216.99
367.71	216.96
368.09	216.99
368.47	217.00
368.85	216.97
369.23	217.01
369.61	216.93
369.99	216.97
370.37	216.97
370.75	217.09
371.13	217.06
371.51	217.00
371.89	216.97
372.27	216.95
372.65	216.92
373.03	216.89
373.41	216.83
373.78	216.75
374.16	216.59
374.54	216.47
374.92	216.40
375.30	216.34
375.68	216.26
376.06	216.21
376.44	216.16
376.82	216.16
377.19	216.15
377.57	216.11
377.95	216.01
378.33	215.94
378.71	215.72
379.09	215.70
379.47	215.71
379.84	215.64
380.22	215.57
380.60	215.47
380.98	215.44
381.36	215.42
381.73	215.38
382.11	215.39
382.49	215.36
382.87	215.30
383.25	215.26
383.62	215.46
384.00	215.40
384.38	215.33
384.76	215.33
385.13	215.33
385.51	215.26
385.89	215.21
386.27	215.17
386.64	215.17
387.02	215.13
387.40	215.07
387.78	215.04
388.15	215.00
388.53	215.00
388.91	215.00
389.29	214.95
389.66	214.92
390.04	214.90
390.42	214.90
390.79	214.90
391.17	214.89
391.55	214.64
391.92	214.62
392.30	214.67
392.68	214.62
393.05	214.58
393.43	214.58
393.81	214.59
394.18	214.59
394.56	214.59
394.94	214.62
395.31	214.63
395.69	214.71
396.06	214.78
396.44	214.80
396.82	214.82
397.19	214.97
397.57	214.99
397.95	215.04
398.32	215.02
398.70	215.12
399.07	215.20
399.45	215.24
399.82	215.27
400.20	215.28
400.58	215.35
400.95	215.36
401.33	215.47
401.70	215.68
402.08	215.79
402.45	215.85
402.83	215.97
403.20	216.07
403.58	216.15
403.95	216.27
404.33	216.42
404.71	216.56
405.08	216.83
405.46	217.00
405.83	217.16
406.21	217.36
406.58	217.54
406.96	217.75
407.33	218.06
407.70	218.37
408.08	218.85
408.45	219.19
408.83	219.58
409.20	219.93
409.58	220.19
409.95	220.64
410.33	221.13
410.70	221.57
411.08	222.13
411.45	222.68
411.82	223.28
412.20	223.98
412.57	224.80
412.95	225.34
413.32	226.20
413.69	227.05
414.07	227.96
414.44	228.96
414.82	229.97
415.19	231.13
415.56	232.33
415.94	233.52
416.31	234.98
416.68	236.41
417.06	238.05
417.43	239.60
417.81	241.35
418.18	243.18
418.55	245.12
418.93	247.18
419.30	249.33
419.67	251.56
420.04	253.86
420.42	256.22
420.79	259.08
421.16	261.84
421.54	264.79
421.91	267.80
422.28	270.92
422.66	274.24
423.03	277.51
423.40	280.89
423.77	284.54
424.15	288.20
424.52	292.01
424.89	296.19
425.26	300.33
425.64	304.25
426.01	308.53
426.38	313.05
426.75	317.62
427.13	322.39
427.50	327.46
427.87	332.70
428.24	337.92
428.61	342.92
428.99	348.49
429.36	354.52
429.73	360.39
430.10	366.29
430.47	372.44
430.85	378.82
431.22	385.56
431.59	392.64
431.96	399.52
432.33	407.09
432.70	414.40
433.08	422.98
433.45	431.09
433.82	439.14
434.19	448.08
434.56	456.85
434.93	465.23
435.30	473.49
435.68	482.57
436.05	491.63
436.42	500.61
436.79	508.87
437.16	517.78
437.53	527.21
437.90	536.47
438.27	545.45
438.64	554.70
439.01	563.29
439.38	570.95
439.75	578.33
440.13	586.83
440.50	594.80
440.87	601.26
441.24	607.91
441.61	615.32
441.98	620.74
442.35	627.11
442.72	633.51
443.09	639.62
443.46	643.48
443.83	646.07
444.20	648.32
444.57	651.45
444.94	652.84
445.31	654.34
445.68	655.74
446.05	656.44
446.42	655.70
446.79	654.74
447.16	653.70
447.53	652.95
447.90	649.59
448.27	646.34
448.64	641.64
449.01	638.38
449.37	632.49
449.74	626.80
450.11	619.88
450.48	612.45
450.85	605.00
451.22	598.51
451.59	592.35
451.96	586.47
452.33	578.58
452.70	571.43
453.07	562.79
453.43	554.11
453.80	545.71
454.17	537.61
454.54	530.00
454.91	521.75
455.28	513.66
455.65	506.16
456.02	498.55
456.38	492.19
456.75	484.25
457.12	477.61
457.49	470.96
457.86	464.66
458.23	459.17
458.59	453.13
458.96	447.04
459.33	441.63
459.70	436.20
460.07	431.89
460.43	426.91
460.80	422.36
461.17	418.36
461.54	414.11
461.91	410.04
462.27	405.95
462.64	402.45
463.01	398.70
463.38	395.00
463.74	391.34
464.11	388.03
464.48	385.18
464.85	382.03
465.21	379.66
465.58	377.08
465.95	373.97
466.32	371.34
466.68	368.74
467.05	366.19
467.42	363.61
467.78	360.89
468.15	358.34
468.52	356.38
468.88	353.83
469.25	351.59
469.62	349.79
469.98	347.75
470.35	345.91
470.72	344.12
471.08	342.31
471.45	340.78
471.82	339.26
472.18	337.53
472.55	336.34
472.92	334.91
473.28	333.70
473.65	332.45
474.02	331.32
474.38	330.40
474.75	329.58
475.11	328.71
475.48	328.14
475.85	327.64
476.21	327.16
476.58	326.78
476.94	326.52
477.31	326.16
477.67	325.97
478.04	325.84
478.41	325.84
478.77	325.97
479.14	325.83
479.50	325.96
479.87	326.21
480.23	326.48
480.60	326.71
480.96	326.91
481.33	327.52
481.69	328.10
482.06	328.59
482.42	329.06
482.79	329.66
483.15	330.46
483.52	331.43
483.88	332.29
484.25	333.26
484.61	334.30
484.98	335.37
485.34	336.64
485.71	337.97
486.07	339.43
486.44	340.75
486.80	342.38
487.17	343.99
487.53	345.88
487.90	347.79
488.26	349.82
488.62	352.01
488.99	354.08
489.35	356.23
489.72	358.61
490.08	361.14
490.44	363.78
490.81	366.43
491.17	369.14
491.54	372.17
491.90	375.20
492.26	378.44
492.63	381.81
492.99	385.31
493.36	389.00
493.72	392.83
494.08	396.85
494.45	401.07
494.81	405.46
495.17	409.86
495.54	414.49
495.90	419.35
496.26	424.28
496.63	429.51
496.99	434.87
497.35	440.39
497.72	446.21
498.08	452.05
498.44	458.13
498.80	464.56
499.17	470.99
499.53	477.68
499.89	484.52
500.26	491.48
500.62	498.50
500.98	505.89
501.34	513.36
501.71	521.12
502.07	528.92
502.43	536.92
502.79	545.09
503.16	553.47
503.52	562.01
503.88	570.65
504.24	579.58
504.60	588.64
504.97	597.90
505.33	607.19
505.69	617.08
506.05	626.91
506.41	636.68
506.78	646.69
507.14	656.90
507.50	667.38
507.86	678.05
508.22	688.81
508.59	699.45
508.95	710.48
509.31	721.62
509.67	733.02
510.03	744.40
510.39	756.07
510.75	767.84
511.12	779.69
511.48	791.75
511.84	803.92
512.20	816.22
512.56	828.81
512.92	841.51
513.28	854.18
513.64	866.94
514.00	879.76
514.37	892.71
514.73	905.73
515.09	918.67
515.45	931.61
515.81	944.66
516.17	957.89
516.53	971.07
516.89	984.29
517.25	997.47
517.61	1010.98
517.97	1024.35
518.33	1037.51
518.69	1051.09
519.05	1064.81
519.41	1078.47
519.77	1092.43
520.13	1105.74
520.49	1118.88
520.85	1132.14
521.21	1145.50
521.57	1159.15
521.93	1172.25
522.29	1186.08
522.65	1199.69
523.01	1213.33
523.37	1226.54
523.73	1239.98
524.09	1253.13
524.45	1266.56
524.81	1280.12
525.17	1293.49
525.53	1306.72
525.89	1320.04
526.25	1333.22
526.61	1346.07
526.97	1359.16
527.33	1372.21
527.68	1385.79
528.04	1399.27
528.40	1412.39
528.76	1425.91
529.12	1438.89
529.48	1452.30
529.84	1464.45
530.20	1477.37
530.56	1490.01
530.91	1503.29
531.27	1516.22
531.63	1529.12
531.99	1541.83
532.35	1554.10
532.71	1566.46
533.07	1579.38
533.42	1591.75
533.78	1603.83
534.14	1615.96
534.50	1627.35
534.86	1638.79
535.21	1649.64
535.57	1661.41
535.93	1672.77
536.29	1683.75
536.65	1695.26
537.00	1706.22
537.36	1717.75
537.72	1728.65
538.08	1740.16
538.44	1751.22
538.79	1762.41
539.15	1773.44
539.51	1784.49
539.87	1795.82
540.22	1806.82
540.58	1817.90
540.94	1828.81
541.29	1839.23
541.65	1849.20
542.01	1859.78
542.37	1869.97
542.72	1880.16
543.08	1889.93
543.44	1900.57
543.79	1909.92
544.15	1919.49
544.51	1929.58
544.87	1939.56
545.22	1949.05
545.58	1957.90
545.94	1966.92
546.29	1975.51
546.65	1983.92
547.01	1992.05
547.36	1999.83
547.72	2007.65
548.07	2015.11
548.43	2022.94
548.79	2030.82
549.14	2038.98
549.50	2047.37
549.86	2055.45
550.21	2063.00
550.57	2070.68
550.92	2077.34
551.28	2084.84
551.64	2092.09
551.99	2099.50
552.35	2106.61
552.70	2113.39
553.06	2120.07
553.41	2126.32
553.77	2132.76
554.13	2139.05
554.48	2145.98
554.84	2153.01
555.19	2159.50
555.55	2165.89
555.90	2172.08
556.26	2178.83
556.61	2184.92
556.97	2189.94
557.32	2195.53
557.68	2201.92
558.03	2207.63
558.39	2213.19
558.74	2219.27
559.10	2224.79
559.45	2230.41
559.81	2236.03
560.16	2241.53
560.52	2247.45
560.87	2253.76
561.23	2259.53
561.58	2266.19
561.94	2271.50
562.29	2276.15
562.64	2281.98
563.00	2287.75
563.35	2293.37
563.71	2298.97
564.06	2304.71
564.42	2310.52
564.77	2315.50
565.12	2320.49
565.48	2325.53
565.83	2330.87
566.19	2335.99
566.54	2341.07
566.89	2345.41
567.25	2349.77
567.60	2355.43
567.96	2360.27
568.31	2364.63
568.66	2368.90
569.02	2372.66
569.37	2376.17
569.72	2380.50
570.08	2384.08
570.43	2387.09
570.78	2390.08
571.14	2392.50
571.49	2395.28
571.84	2398.64
572.20	2401.52
572.55	2404.44
572.90	2406.57
573.26	2409.18
573.61	2411.79
573.96	2414.08
574.31	2416.06
574.67	2418.03
575.02	2418.50
575.37	2419.85
575.72	2420.46
576.08	2421.67
576.43	2421.62
576.78	2421.91
577.13	2423.19
577.49	2424.21
577.84	2424.93
578.19	2426.00
578.54	2426.46
578.90	2426.92
579.25	2426.50
579.60	2426.26
579.95	2425.29
580.30	2425.23
580.66	2424.58
581.01	2422.66
581.36	2419.84
581.71	2418.25
582.06	2416.74
582.42	2415.71
582.77	2413.32
583.12	2411.44
583.47	2409.93
583.82	2409.14
584.17	2407.51
584.53	2405.36
584.88	2403.05
585.23	2401.06
585.58	2398.53
585.93	2396.36
586.28	2394.01
586.63	2391.30
586.98	2388.79
587.34	2386.73
587.69	2383.98
588.04	2381.46
588.39	2379.71
588.74	2377.16
589.09	2374.24
589.44	2370.96
589.79	2368.17
590.14	2365.88
590.49	2363.06
590.84	2359.03
591.19	2355.68
591.54	2352.60
591.89	2348.33
592.25	2345.02
592.60	2340.84
592.95	2336.69
593.30	2332.24
593.65	2327.73
594.00	2323.39
594.35	2320.37
594.70	2315.54
595.05	2311.02
595.40	2305.49
595.75	2299.66
596.10	2295.84
596.45	2290.90
596.80	2286.12
597.15	2280.99
597.50	2275.22
597.85	2270.20
598.19	2264.89
598.54	2259.01
598.89	2253.62
599.24	2248.88
599.59	2242.68
599.94	2236.53
600.29	2230.40
600.64	2224.61
600.99	2217.71
601.34	2211.96
601.69	2204.85
602.04	2198.66
602.39	2191.85
602.74	2185.75
603.08	2180.29
603.43	2173.97
603.78	2167.25
604.13	2160.09
604.48	2152.69
604.83	2146.46
605.18	2140.25
605.53	2133.59
605.87	2126.71
606.22	2119.98
606.57	2112.22
606.92	2104.12
607.27	2097.21
607.62	2090.72
607.96	2083.76
608.31	2077.45
608.66	2069.82
609.01	2062.18
609.36	2054.92
609.70	2047.36
610.05	2039.63
610.40	2031.31
610.75	2022.81
611.10	2014.93
611.44	2006.12
611.79	1997.47
612.14	1987.68
612.49	1976.80
612.83	1967.16
613.18	1957.68
613.53	1948.44
613.88	1938.89
614.22	1930.31
614.57	1920.55
614.92	1909.90
615.27	1899.49
615.61	1889.20
615.96	1879.69
616.31	1870.19
616.65	1860.78
617.00	1851.17
617.35	1841.51
617.70	1831.78
618.04	1821.98
618.39	1811.98
618.74	1802.50
619.08	1792.86
619.43	1784.07
619.78	1775.95
620.12	1767.52
620.47	1758.22
620.82	1747.81
621.16	1738.06
621.51	1728.29
621.85	1718.70
622.20	1708.51
622.55	1698.14
622.89	1688.35
623.24	1678.75
623.59	1668.95
623.93	1658.96
624.28	1649.23
624.62	1639.30
624.97	1629.26
625.32	1619.47
625.66	1610.55
626.01	1601.92
626.35	1592.83
626.70	1582.95
627.04	1573.13
627.39	1563.11
627.73	1554.05
628.08	1545.52
628.43	1536.19
628.77	1527.13
629.12	1518.21
629.46	1510.46
629.81	1502.35
630.15	1493.14
630.50	1483.27
630.84	1473.02
631.19	1463.18
631.53	1454.09
631.88	1444.06
632.22	1434.18
632.57	1424.97
632.91	1415.14
633.26	1405.37
633.60	1395.89
633.95	1386.83
634.29	1377.39
634.64	1368.26
634.98	1358.29
635.32	1348.97
635.67	1340.57
636.01	1331.29
636.36	1321.79
636.70	1312.44
637.05	1303.15
637.39	1294.34
637.73	1285.97
638.08	1278.54
638.42	1270.58
638.77	1261.81
639.11	1253.72
639.45	1245.94
639.80	1237.59
640.14	1228.90
640.49	1220.16
640.83	1211.43
641.17	1203.27
641.52	1195.25
641.86	1186.84
642.20	1179.11
642.55	1170.52
642.89	1161.77
643.23	1153.33
643.58	1145.27
643.92	1136.35
644.26	1127.82
644.61	1119.43
644.95	1110.64
645.29	1101.50
645.64	1092.43
645.98	1083.94
646.32	1076.01
646.66	1067.53
647.01	1059.32
647.35	1051.24
647.69	1043.07
648.04	1034.96
648.38	1026.20
648.72	1017.57
649.06	1009.03
649.41	1000.88
649.75	993.02
650.09	985.22
650.43	977.31
650.78	969.02
651.12	961.28
651.46	953.87
651.80	946.72
652.14	939.59
652.49	932.24
652.83	924.97
653.17	917.44
653.51	909.93
653.85	902.90
654.20	895.66
654.54	888.36
654.88	881.15
655.22	873.92
655.56	866.97
655.90	860.12
656.25	853.61
656.59	846.91
656.93	840.05
657.27	833.03
657.61	826.03
657.95	819.88
658.29	813.93
658.64	807.88
658.98	801.46
659.32	794.93
659.66	788.66
660.00	782.35
660.34	776.25
660.68	770.18
661.02	763.82
661.36	757.79
661.70	752.07
662.05	746.46
662.39	741.02
662.73	735.61
663.07	730.30
663.41	724.75
663.75	719.01
664.09	713.21
664.43	707.71
664.77	702.45
665.11	696.76
665.45	691.00
665.79	685.19
666.13	679.51
666.47	674.00
666.81	668.53
667.15	663.16
667.49	657.97
667.83	652.68
668.17	647.44
668.51	642.43
668.85	637.40
669.19	632.54
669.53	627.54
669.87	622.43
670.21	617.66
670.55	612.88
670.89	608.42
671.23	604.13
671.57	599.72
671.91	595.39
672.25	591.14
672.58	587.07
672.92	582.94
673.26	579.04
673.60	575.17
673.94	571.36
674.28	567.77
674.62	564.06
674.96	560.36
675.30	556.84
675.64	553.10
675.97	549.57
676.31	545.93
676.65	542.31
676.99	538.96
677.33	535.07
677.67	531.49
678.01	527.62
678.34	524.02
678.68	520.51
679.02	516.97
679.36	513.35
679.70	509.64
680.04	506.15
680.37	502.57
680.71	499.25
681.05	496.02
681.39	492.75
681.73	489.56
682.06	486.48
682.40	483.41
682.74	480.26
683.08	476.97
683.42	473.72
683.75	470.70
684.09	467.54
684.43	464.79
684.77	461.85
685.10	458.98
685.44	456.04
685.78	453.17
686.12	450.31
686.45	447.53
686.79	444.81
687.13	442.20
687.46	439.61
687.80	436.93
688.14	434.06
688.48	431.36
688.81	428.59
689.15	426.00
689.49	423.33
689.82	420.80
690.16	418.22
690.50	415.80
690.83	413.26
691.17	410.70
691.51	408.19
691.84	405.79
692.18	403.55
692.52	401.35
692.85	399.15
693.19	397.04
693.52	394.85
693.86	392.60
694.20	390.39
694.53	388.26
694.87	386.01
695.21	383.89
695.54	381.71
695.88	379.60
696.21	377.38
696.55	375.24
696.88	373.13
697.22	371.10
697.56	369.12
697.89	367.21
698.23	365.49
698.56	363.68
698.90	361.97
699.23	360.05
699.57	358.18
699.90	356.24
700.24	354.32
700.58	352.55
700.91	350.86
701.25	349.31
701.58	347.67
701.92	346.11
702.25	344.44
702.59	342.83
702.92	341.24
703.26	339.68
703.59	338.13
703.93	336.84
704.26	335.43
704.60	333.90
704.93	332.42
705.26	330.87
705.60	329.40
705.93	327.81
706.27	326.44
706.60	325.09
706.94	323.89
707.27	322.50
707.61	321.11
707.94	319.76
708.27	318.19
708.61	316.72
708.94	315.27
709.28	313.95
709.61	312.66
709.94	311.45
710.28	310.17
710.61	309.00
710.95	307.56
711.28	306.46
711.61	305.30
711.95	304.19
712.28	302.95
712.61	301.71
712.95	300.68
713.28	299.61
713.61	298.47
713.95	297.28
714.28	296.21
714.61	295.20
714.95	294.15
715.28	293.13
715.61	292.10
715.95	291.13
716.28	290.19
716.61	289.23
716.95	288.21
717.28	287.30
717.61	286.33
717.94	285.43
718.28	284.35
718.61	283.45
718.94	282.49
719.27	281.65
719.61	280.81
719.94	279.88
720.27	278.88
720.60	277.98
720.94	277.18
721.27	276.44
721.60	275.71
721.93	274.98
722.27	274.37
722.60	273.67
722.93	272.95
723.26	272.26
723.59	271.55
723.93	270.88
724.26	270.20
724.59	269.51
724.92	268.89
725.25	268.35
725.59	267.78
725.92	267.22
726.25	266.64
726.58	266.06
726.91	265.44
727.24	264.91
727.57	264.36
727.91	263.73
728.24	263.14
728.57	262.54
728.90	261.94
729.23	261.26
729.56	260.80
729.89	260.23
730.22	259.64
730.55	259.10
730.89	258.59
731.22	258.03
731.55	257.51
731.88	256.98
732.21	256.41
732.54	255.81
732.87	255.26
733.20	254.75
733.53	254.25
733.86	253.84
734.19	253.37
734.52	252.92
734.85	252.64
735.18	252.18
735.51	251.81
735.84	251.42
736.17	251.06
736.50	250.53
736.83	250.37
737.16	249.96
737.49	249.53
737.82	249.11
738.15	248.76
738.48	248.34
738.81	247.92
739.14	247.49
739.47	247.13
739.80	246.80
740.13	246.43
740.46	246.04
740.79	245.60
741.12	245.23
741.45	244.84
741.78	244.39
742.11	244.11
742.44	243.70
742.77	243.36
743.10	242.98
743.43	242.61
743.75	242.00
744.08	241.95
744.41	241.57
744.74	241.22
745.07	240.81
745.40	240.53
745.73	240.30
746.06	239.98
746.39	239.69
746.71	239.31
747.04	239.00
747.37	238.67
747.70	238.39
748.03	238.07
748.36	237.77
748.68	237.44
749.01	237.09
749.34	236.81
749.67	236.52
750.00	236.26
750.33	236.12
750.65	235.92
750.98	235.37
751.31	235.14
751.64	234.94
751.97	234.80
752.29	234.50
752.62	234.13
752.95	233.88
753.28	233.61
753.60	233.38
753.93	233.20
754.26	233.00
754.59	232.71
754.91	232.47
755.24	232.23
755.57	231.99
755.90	231.72
756.22	231.52
756.55	231.27
756.88	231.03
757.20	230.70
757.53	230.43
757.86	230.22
758.19	230.03
758.51	229.82
758.84	229.54
759.17	229.37
759.49	229.22
759.82	229.17
760.15	228.99
760.47	228.81
760.80	228.57
761.13	228.40
761.45	228.20
761.78	228.03
762.11	227.87
762.43	227.68
762.76	227.52
763.08	227.31
763.41	227.15
763.74	226.97
764.06	226.82
764.39	226.68
764.71	226.52
765.04	226.34
765.37	226.14
765.69	226.00
766.02	225.85
766.34	225.67
766.67	225.43
767.00	225.33
767.32	225.28
767.65	225.25
767.97	225.06
768.30	224.95
768.62	224.81
768.95	224.68
769.27	224.54
769.60	224.41
769.92	224.29
770.25	224.12
770.57	223.99
770.90	223.85
771.22	223.69
771.55	223.61
771.87	223.51
772.20	223.38
772.52	223.41
772.85	223.53
773.17	223.44
773.50	223.31
773.82	223.20
774.15	223.00
774.47	222.78
774.80	222.71
775.12	222.61
775.45	222.50
775.77	222.41
776.09	222.33
776.42	222.26
776.74	222.28
777.07	222.19
777.39	222.12
777.72	222.02
778.04	221.95
778.36	221.84
778.69	221.73
779.01	221.69
779.33	221.43
779.66	221.10
779.98	221.00
780.31	220.90
780.63	220.86
780.95	220.82
781.28	220.74
781.60	220.65
781.92	220.62
782.25	220.56
782.57	220.50
782.89	220.43
783.22	220.35
783.54	220.20
783.86	220.14
784.19	220.05
784.51	220.04
784.83	219.99
785.16	219.91
785.48	219.86
785.80	219.80
786.12	219.79
786.45	219.72
786.77	219.70
787.09	219.62
787.42	219.53
787.74	219.46
788.06	219.41
788.38	219.34
788.71	219.26
789.03	219.21
789.35	219.15
789.67	219.08
789.99	219.04
790.32	218.97
790.64	218.96
790.96	219.09
791.28	218.98
791.61	218.92
791.93	218.93
792.25	218.89
792.57	219.00
792.89	218.88
793.21	218.89
793.54	218.82
793.86	218.80
794.18	218.75
794.50	218.68
794.82	218.64
795.14	218.61
795.47	218.59
795.79	218.55
796.11	218.46
796.43	218.41
796.75	218.36
797.07	218.34
797.39	218.27
797.71	218.08
798.04	218.05
798.36	218.02
798.68	217.97
799.00	217.93
799.32	217.78
799.64	217.81
799.96	217.75
800.28	217.77
800.60	217.72
800.92	217.69
801.24	217.63
801.56	217.64
801.89	217.60
802.21	217.60
802.53	217.54
802.85	217.56
803.17	217.61
803.49	217.54
803.81	217.48
804.13	217.46
804.45	217.36
804.77	217.36
805.09	217.29
805.41	217.23
805.73	217.15
806.05	217.07
806.37	217.01
806.69	216.96
807.01	216.91
807.33	216.91
807.65	216.83
807.97	216.87
808.28	216.77
808.60	216.71
808.92	216.64
809.24	216.76
809.56	216.71
809.88	216.62
810.20	216.63
810.52	216.63
810.84	216.57
811.16	216.54
811.48	216.48
811.80	216.57
812.12	216.56
812.43	216.57
812.75	216.57
813.07	216.54
813.39	216.51
813.71	216.44
814.03	216.36
814.35	216.34
814.67	216.25
814.98	216.22
815.30	216.19
815.62	216.14
815.94	215.95
816.26	215.94
816.58	215.90
816.89	215.89
817.21	215.83
817.53	215.84
817.85	215.84
818.17	215.84
818.48	215.70
818.80	215.74
819.12	215.69
819.44	215.65
819.76	215.59
820.07	215.63
820.39	215.61
820.71	215.63
821.03	215.58
821.34	215.58
821.66	215.59
821.98	215.60
822.30	215.59
822.61	215.72
822.93	215.67
823.25	215.63
823.57	215.59
823.88	215.63
824.20	215.59
824.52	215.58
824.83	215.54
825.15	215.53
825.47	215.46
825.79	215.48
826.10	215.43
826.42	215.44
826.74	215.42
827.05	215.41
827.37	215.41
827.69	215.40
828.00	215.37
828.32	215.36
828.64	215.33
828.95	215.42
829.27	215.34
829.58	215.32
829.90	215.38
830.22	215.39
830.53	215.29
830.85	215.27
831.17	215.24
831.48	215.21
831.80	215.22
832.11	215.20
832.43	215.18
832.75	215.18
833.06	215.29
833.38	215.21
833.69	215.17
834.01	215.19
834.32	215.19
834.64	215.17
834.96	215.14
835.27	215.14
835.59	215.03
835.90	214.96
836.22	214.95
836.53	214.85
836.85	214.84
837.16	215.03
837.48	215.05
837.79	215.11
838.11	215.12
838.42	215.09
838.74	215.12
839.05	215.08
839.37	215.06
839.68	214.91
840.00	214.89
840.31	214.91
840.63	214.85
840.94	214.84
841.26	214.83
841.57	214.82
841.88	214.81
842.20	214.79
842.51	214.74
842.83	214.74
843.14	214.94
843.46	214.90
843.77	214.81
844.08	214.73
844.40	214.63
844.71	214.63
845.03	214.61
845.34	214.56
845.65	214.53
845.97	214.53
846.28	214.53
846.60	214.53
846.91	214.51
847.22	214.50
847.54	214.55
847.85	214.57
848.16	214.59
848.48	214.55
848.79	214.67
849.10	214.74
849.42	214.75
849.73	214.53
850.04	214.53
850.36	214.44
850.67	214.51
850.98	214.53
851.30	214.54
851.61	214.56
851.92	214.55
852.23	214.62
852.55	214.63
852.86	214.64
853.17	214.65
853.49	214.70
853.80	214.76
854.11	214.73
854.42	214.76
854.74	214.73
855.05	214.75
855.36	214.61
855.67	214.62
855.99	214.57
856.30	214.85
856.61	214.86
856.92	214.84
857.23	214.85
857.55	214.80
857.86	214.77
858.17	214.78
858.48	214.77
858.79	214.70
859.11	214.71
859.42	214.68
859.73	214.62
860.04	214.59
860.35	214.48
860.66	214.40
860.98	214.37
861.29	214.38
861.60	214.35
861.91	214.38
862.22	214.34
862.53	214.35
862.84	214.09
863.16	214.11
863.47	214.10
863.78	214.07
864.09	214.11
864.40	214.11
864.71	214.11
865.02	214.13
865.33	214.13
865.64	214.10
865.95	214.12
866.27	214.25
866.58	214.22
866.89	214.27
867.20	214.30
867.51	214.26
867.82	214.24
868.13	214.35
868.44	214.31
868.75	214.34
869.06	214.34
869.37	214.33
869.68	214.25
869.99	214.28
870.30	214.27
870.61	214.29
870.92	214.28
871.23	214.26
871.54	214.26
871.85	214.31
872.16	214.34
872.47	214.31
872.78	214.22
873.09	214.25
873.40	214.24
873.71	214.24
874.02	214.25
874.33	214.22
874.64	214.14
874.95	214.17
875.26	214.12
875.56	214.12
875.87	214.13
876.18	214.13
876.49	214.33
876.80	214.32
877.11	214.27
877.42	214.27
877.73	214.28
878.04	214.25
878.35	214.23
878.66	214.20
878.96	214.20
879.27	214.18
879.58	214.15
879.89	214.12
880.20	214.18
880.51	214.15
880.82	214.19
881.12	214.19
881.43	214.14
881.74	214.09
882.05	214.09
882.36	214.11
882.67	214.15
882.97	213.95
883.28	213.93
883.59	213.90
883.90	213.94
884.21	213.94
884.51	213.95
884.82	213.92
885.13	213.94
885.44	213.95
885.74	213.95
886.05	213.94
886.36	213.93
886.67	213.88
886.98	214.01
887.28	214.01
887.59	214.01
887.90	214.01
888.20	214.06
888.51	214.11
888.82	214.08
889.13	214.09
889.43	214.24
889.74	214.25
890.05	214.24
890.35	214.21
890.66	214.16
890.97	214.11
891.28	214.12
891.58	214.16
891.89	214.14
892.20	214.12
892.50	214.13
892.81	214.14
893.12	214.11
893.42	214.03
893.73	214.00
894.04	214.01
894.34	214.02
894.65	213.99
894.95	213.97
895.26	213.97
895.57	214.05
895.87	213.84
896.18	213.87
896.48	213.93
896.79	213.93
897.10	213.97
897.40	214.01
897.71	214.01
898.01	213.96
898.32	213.98
898.63	214.00
898.93	214.02
899.24	214.03
899.54	214.02
899.85	213.99
900.15	214.02
900.46	214.01
900.76	214.02
901.07	214.02
901.38	214.00
901.68	214.03
901.99	213.90
902.29	213.95
902.60	213.94
902.90	213.92
903.21	213.91
903.51	213.91
903.82	213.97
904.12	213.98
904.43	213.99
904.73	214.00
905.03	213.99
905.34	214.16
905.64	214.15
905.95	214.15
906.25	214.15
906.56	214.13
906.86	214.11
907.17	214.11
907.47	214.13
907.77	214.11
908.08	214.07
908.38	214.10
908.69	214.08
908.99	214.09
909.30	214.11
909.60	214.08
909.90	214.11
910.21	214.03
910.51	214.01
910.81	214.02
911.12	214.03
911.42	214.04
911.73	213.83
912.03	213.84
912.33	213.88
912.64	213.91
912.94	213.90
913.24	213.89
913.55	213.89
913.85	213.87
914.15	213.90
914.46	213.92
914.76	213.92
915.06	213.93
915.37	213.90
915.67	213.86
915.97	213.86
916.27	213.78
916.58	213.78
916.88	213.78
917.18	213.72
917.49	213.86
917.79	213.86
918.09	213.91
918.39	213.97
918.70	213.97
919.00	213.97
919.30	214.09
919.60	214.11
919.91	214.08
920.21	214.11
920.51	214.09
920.81	214.06
921.12	214.05
921.42	214.07
921.72	214.09
922.02	214.13
922.32	214.18
922.63	214.20
922.93	214.31
923.23	214.31
923.53	214.35
923.83	214.20
924.13	214.22
924.44	214.20
924.74	214.23
925.04	214.25
925.34	214.24
925.64	214.15
925.94	214.09
926.24	214.21
926.55	214.19
926.85	214.18
927.15	214.19
927.45	214.21
927.75	214.18
928.05	214.18
928.35	214.17
928.65	214.18
928.95	214.19
929.26	214.09
929.56	214.13
929.86	214.12
930.16	214.12
930.46	214.11
930.76	214.09
931.06	213.97
931.36	213.92
931.66	213.93
931.96	213.92
932.26	213.95
932.56	213.86
932.86	213.89
933.16	213.92
933.46	213.93
933.76	213.90
934.06	213.95
934.36	214.02
934.66	213.99
934.96	213.97
935.26	213.98
935.56	213.99
935.86	213.95
936.16	213.92
936.46	213.91
936.76	213.91
937.06	213.88
937.36	213.91
937.66	213.95
937.96	213.95
938.26	213.91
938.56	213.96
938.86	213.95
939.16	213.95
939.46	213.97
939.76	213.93
940.06	213.93
940.35	213.88
940.65	213.76
940.95	213.78
941.25	213.76
941.55	213.75
941.85	213.76
942.15	213.81
942.45	213.85
942.75	213.82
943.04	213.84
943.34	213.89
943.64	213.89
943.94	213.84
944.24	213.82
944.54	213.85
944.84	213.79
945.13	213.79
945.43	213.76
945.73	213.75
946.03	213.74
946.33	213.74
946.62	213.71
946.92	213.72
947.22	213.74
947.52	213.75
947.82	213.77
948.11	213.70
948.41	213.67
948.71	213.58
949.01	213.62
949.31	213.58
949.60	213.57
949.90	213.58
950.20	213.60
950.50	213.60
950.79	213.58
951.09	213.62
951.39	213.58
951.69	213.58
951.98	213.61
952.28	213.65
952.58	213.61
952.87	213.61
953.17	213.66
953.47	213.64
953.76	213.64
954.06	213.57
954.36	213.55
954.66	213.53
954.95	213.65
955.25	213.62
955.55	213.64
955.84	213.58
956.14	213.61
956.44	213.61
956.73	213.59
957.03	213.60
957.32	213.59
957.62	213.62
957.92	213.68
958.21	213.69
958.51	213.92
958.81	213.98
959.10	214.01
959.40	214.03
959.69	214.03
959.99	214.06
960.29	214.08
960.58	214.07
960.88	214.13
961.17	214.09
961.47	214.10
961.76	214.09
962.06	214.15
962.36	214.12
962.65	214.11
962.95	214.12
963.24	214.05
963.54	214.11
963.83	214.10
964.13	214.03
964.42	213.97
964.72	213.78
965.01	213.75
965.31	213.75
965.60	213.67
965.90	213.80
966.19	213.73
966.49	213.74
966.78	213.75
967.08	213.73
967.37	213.71
967.67	213.65
967.96	213.71
968.26	213.68
968.55	213.69
968.85	213.69
969.14	213.68
969.43	213.74
969.73	213.69
970.02	213.67
970.32	213.67
970.61	213.62
970.91	213.56
971.20	213.54
971.49	213.51
971.79	213.54
972.08	213.38
972.38	213.40
972.67	213.40
972.96	213.45
973.26	213.40
973.55	213.50
973.85	213.55
974.14	213.52
974.43	213.55
974.73	213.51
975.02	213.49
975.31	213.47
975.61	213.45
975.90	213.41
976.19	213.38
976.49	213.39
976.78	213.42
977.07	213.42
977.37	213.42
977.66	213.42
977.95	213.38
978.24	213.40
978.54	213.43
978.83	213.40
979.12	213.40
979.42	213.41
979.71	213.35
980.00	213.33
980.29	213.32
980.59	213.26
980.88	213.32
981.17	213.35
981.46	213.35
981.76	213.37
982.05	213.45
982.34	213.50
982.63	213.51
982.93	213.51
983.22	213.58
983.51	213.60
983.80	213.64
984.09	213.67
984.39	213.63
984.68	213.61
984.97	213.61
985.26	213.59
985.55	213.65
985.85	213.58
986.14	213.62
986.43	213.63
986.72	213.64
987.01	213.57
987.30	213.56
987.59	213.57
987.89	213.56
988.18	213.48
988.47	213.44
988.76	213.42
989.05	213.40
989.34	213.36
989.63	213.40
989.92	213.38
990.22	213.34
990.51	213.37
990.80	213.38
991.09	213.41
991.38	213.44
991.67	213.40
991.96	213.38
992.25	213.38
992.54	213.34
992.83	213.30
993.12	213.29
993.41	213.31
993.70	213.39
993.99	213.43
994.28	213.49
994.58	213.53
994.87	213.52
995.16	213.52
995.45	213.48
995.74	213.46
996.03	213.48
996.32	213.51
996.61	213.57
996.90	213.56
997.19	213.56
997.48	213.54
997.77	213.50
998.06	213.53
998.34	213.49
998.63	213.50
998.92	213.56
999.21	213.58
999.50	213.62
999.79	213.55
1000.08	213.53
1000.37	213.55
1000.66	213.55
1000.95	213.61
1001.24	213.65
1001.53	213.71
1001.82	213.67
1002.11	213.64
1002.40	213.68
1002.68	213.72
1002.97	213.87
1003.26	213.84
1003.55	213.84
1003.84	213.88
1004.13	213.96
1004.42	213.97
1004.71	213.95
1004.99	213.92
1005.28	213.96
1005.57	213.90
1005.86	213.89
1006.15	213.86
1006.44	213.80
1006.72	213.80
1007.01	213.76
1007.30	213.75
1007.59	213.73
1007.88	213.75
1008.17	213.72
1008.45	213.66
1008.74	213.55
1009.03	213.44
1009.32	213.46
1009.60	213.44
1009.89	213.40
1010.18	213.31
1010.47	213.32
1010.76	213.32
1011.04	213.32
1011.33	213.34
1011.62	213.39
1011.91	213.37
1012.19	213.41
1012.48	213.43
1012.77	213.42
1013.05	213.50
1013.34	213.48
1013.63	213.46
1013.92	213.44
1014.20	213.45
1014.49	213.45
1014.78	213.51
1015.06	213.45
1015.35	213.44
1015.64	213.48
1015.92	213.53
1016.21	213.57
1016.50	213.55
1016.78	213.58
1017.07	213.62
1017.36	213.58
1017.64	213.54
1017.93	213.57
1018.22	213.53
1018.50	213.52
1018.79	213.53
1019.08	213.44
1019.36	213.46
1019.65	213.45
1019.93	213.55
1020.22	213.59
1020.51	213.71
1020.79	213.67
1021.08	213.33
1021.36	213.08
1021.65	213.59
1021.94	213.38
1022.22	213.52
1022.51	213.37
1022.79	214.93
1023.08	213.76
1023.36	215.96
1023.65	213.11
>>>>>End Processed Spectral Data<<<<<
