SpectraSuite Data File
++++++++++++++++++++++++++++++++++++
Date: Tue Jan 29 15:56:44 EST 2013
User: group
Dark Spectrum Present: No
Reference Spectrum Present: No
Number of Sampled Component Spectra: 1
Spectrometers: USB2E7196
Integration Time (usec): 65000 (USB2E7196)
Spectra Averaged: 100 (USB2E7196)
Boxcar Smoothing: 10 (USB2E7196)
Correct for Electrical Dark: No (USB2E7196)
Strobe/Lamp Enabled: No (USB2E7196)
Correct for Detector Non-linearity: No (USB2E7196)
Correct for Stray Light: No (USB2E7196)
Number of Pixels in Processed Spectrum: 2048
>>>>>Begin Processed Spectral Data<<<<<
339.09	0.00
339.48	202.74
339.86	204.54
340.24	205.51
340.63	206.86
341.01	211.48
341.39	209.71
341.78	211.57
342.16	212.46
342.54	213.41
342.93	202.13
343.31	212.36
343.69	212.91
344.07	213.37
344.46	213.85
344.84	214.27
345.22	214.44
345.60	214.71
345.99	214.93
346.37	215.07
346.75	215.15
347.13	215.24
347.52	215.29
347.90	215.39
348.28	215.44
348.66	215.50
349.05	215.47
349.43	215.56
349.81	215.64
350.19	215.69
350.57	215.74
350.96	215.85
351.34	215.94
351.72	216.05
352.10	216.17
352.48	216.24
352.87	216.31
353.25	216.41
353.63	216.47
354.01	216.50
354.39	216.61
354.77	216.70
355.15	216.80
355.54	216.87
355.92	216.88
356.30	216.98
356.68	217.17
357.06	217.25
357.44	217.28
357.82	217.32
358.20	217.42
358.58	217.48
358.97	217.53
359.35	217.63
359.73	217.70
360.11	217.75
360.49	217.81
360.87	217.84
361.25	217.90
361.63	218.00
362.01	218.09
362.39	218.10
362.77	218.16
363.15	218.19
363.53	218.17
363.91	218.23
364.29	218.21
364.67	218.05
365.05	218.11
365.43	218.15
365.81	218.18
366.19	218.27
366.57	218.39
366.95	218.38
367.33	218.33
367.71	218.31
368.09	218.36
368.47	218.32
368.85	218.33
369.23	218.38
369.61	218.30
369.99	218.31
370.37	218.32
370.75	218.38
371.13	218.33
371.51	218.32
371.89	218.30
372.27	218.29
372.65	218.30
373.03	218.20
373.41	218.15
373.78	218.11
374.16	217.98
374.54	217.88
374.92	217.82
375.30	217.76
375.68	217.69
376.06	217.65
376.44	217.62
376.82	217.58
377.19	217.52
377.57	217.50
377.95	217.39
378.33	217.32
378.71	217.16
379.09	217.13
379.47	217.12
379.84	217.04
380.22	216.99
380.60	216.91
380.98	216.91
381.36	216.88
381.73	216.79
382.11	216.76
382.49	216.68
382.87	216.62
383.25	216.59
383.62	216.78
384.00	216.72
384.38	216.67
384.76	216.66
385.13	216.70
385.51	216.62
385.89	216.57
386.27	216.57
386.64	216.57
387.02	216.54
387.40	216.49
387.78	216.51
388.15	216.51
388.53	216.47
388.91	216.40
389.29	216.34
389.66	216.36
390.04	216.32
390.42	216.35
390.79	216.37
391.17	216.39
391.55	216.15
391.92	216.11
392.30	216.12
392.68	216.07
393.05	216.04
393.43	216.06
393.81	216.06
394.18	216.03
394.56	216.01
394.94	216.06
395.31	216.06
395.69	216.11
396.06	216.09
396.44	216.12
396.82	216.11
397.19	216.22
397.57	216.20
397.95	216.26
398.32	216.21
398.70	216.23
399.07	216.32
399.45	216.34
399.82	216.40
400.20	216.41
400.58	216.48
400.95	216.44
401.33	216.55
401.70	216.77
402.08	216.85
402.45	216.95
402.83	217.06
403.20	217.16
403.58	217.26
403.95	217.45
404.33	217.57
404.71	217.73
405.08	217.98
405.46	218.17
405.83	218.35
406.21	218.57
406.58	218.81
406.96	218.97
407.33	219.23
407.70	219.50
408.08	220.00
408.45	220.32
408.83	220.73
409.20	221.05
409.58	221.29
409.95	221.73
410.33	222.18
410.70	222.60
411.08	223.12
411.45	223.63
411.82	224.19
412.20	224.83
412.57	225.67
412.95	226.24
413.32	227.06
413.69	227.84
414.07	228.74
414.44	229.69
414.82	230.68
415.19	231.83
415.56	232.96
415.94	234.05
416.31	235.38
416.68	236.71
417.06	238.21
417.43	239.70
417.81	241.37
418.18	243.07
418.55	244.92
418.93	246.82
419.30	248.87
419.67	250.96
420.04	253.19
420.42	255.47
420.79	258.17
421.16	260.81
421.54	263.62
421.91	266.48
422.28	269.45
422.66	272.60
423.03	275.69
423.40	278.91
423.77	282.35
424.15	285.87
424.52	289.52
424.89	293.54
425.26	297.43
425.64	301.18
426.01	305.26
426.38	309.54
426.75	313.97
427.13	318.52
427.50	323.32
427.87	328.33
428.24	333.33
428.61	338.10
428.99	343.42
429.36	349.19
429.73	354.86
430.10	360.51
430.47	366.36
430.85	372.42
431.22	378.88
431.59	385.78
431.96	392.36
432.33	399.61
432.70	406.61
433.08	414.83
433.45	422.54
433.82	430.31
434.19	438.86
434.56	447.28
434.93	455.22
435.30	463.21
435.68	471.94
436.05	480.52
436.42	489.07
436.79	496.86
437.16	505.27
437.53	514.19
437.90	522.97
438.27	531.55
438.64	540.48
439.01	548.69
439.38	555.91
439.75	562.92
440.13	570.97
440.50	578.58
440.87	584.78
441.24	591.15
441.61	598.17
441.98	603.33
442.35	609.37
442.72	615.52
443.09	621.27
443.46	624.84
443.83	627.30
444.20	629.39
444.57	632.39
444.94	633.68
445.31	635.06
445.68	636.35
446.05	636.95
446.42	636.14
446.79	635.20
447.16	634.18
447.53	633.46
447.90	630.30
448.27	627.16
448.64	622.64
449.01	619.50
449.37	613.85
449.74	608.44
450.11	601.78
450.48	594.64
450.85	587.44
451.22	581.20
451.59	575.22
451.96	569.67
452.33	562.13
452.70	555.44
453.07	547.28
453.43	539.07
453.80	531.07
454.17	523.42
454.54	516.18
454.91	508.33
455.28	500.66
455.65	493.54
456.02	486.36
456.38	480.36
456.75	472.83
457.12	466.55
457.49	460.26
457.86	454.33
458.23	449.23
458.59	443.65
458.96	437.94
459.33	432.95
459.70	427.79
460.07	423.76
460.43	419.06
460.80	414.66
461.17	410.84
461.54	406.91
461.91	403.06
462.27	399.11
462.64	395.81
463.01	392.20
463.38	388.64
463.74	385.06
464.11	381.87
464.48	379.13
464.85	376.10
465.21	373.85
465.58	371.35
465.95	368.35
466.32	365.81
466.68	363.32
467.05	360.82
467.42	358.36
467.78	355.80
468.15	353.37
468.52	351.55
468.88	349.16
469.25	347.04
469.62	345.34
469.98	343.54
470.35	341.83
470.72	340.21
471.08	338.50
471.45	337.11
471.82	335.72
472.18	334.13
472.55	333.09
472.92	331.72
473.28	330.57
473.65	329.44
474.02	328.40
474.38	327.61
474.75	326.95
475.11	326.20
475.48	325.67
475.85	325.25
476.21	324.84
476.58	324.47
476.94	324.25
477.31	323.96
477.67	323.78
478.04	323.66
478.41	323.70
478.77	323.93
479.14	323.91
479.50	324.10
479.87	324.42
480.23	324.69
480.60	324.97
480.96	325.25
481.33	325.90
481.69	326.52
482.06	327.04
482.42	327.53
482.79	328.16
483.15	328.95
483.52	329.92
483.88	330.83
484.25	331.83
484.61	332.86
484.98	333.95
485.34	335.21
485.71	336.57
486.07	337.96
486.44	339.25
486.80	340.86
487.17	342.52
487.53	344.39
487.90	346.29
488.26	348.36
488.62	350.57
488.99	352.62
489.35	354.76
489.72	357.14
490.08	359.66
490.44	362.23
490.81	364.98
491.17	367.68
491.54	370.65
491.90	373.73
492.26	376.94
492.63	380.36
492.99	383.85
493.36	387.56
493.72	391.42
494.08	395.42
494.45	399.63
494.81	404.00
495.17	408.42
495.54	413.07
495.90	417.85
496.26	422.75
496.63	427.94
496.99	433.30
497.35	438.81
497.72	444.60
498.08	450.52
498.44	456.52
498.80	462.91
499.17	469.35
499.53	476.00
499.89	482.92
500.26	489.86
500.62	496.93
500.98	504.24
501.34	511.69
501.71	519.43
502.07	527.25
502.43	535.24
502.79	543.32
503.16	551.67
503.52	560.23
503.88	568.85
504.24	577.78
504.60	586.83
504.97	596.06
505.33	605.32
505.69	615.18
506.05	625.07
506.41	634.95
506.78	644.97
507.14	655.19
507.50	665.53
507.86	676.16
508.22	686.88
508.59	697.56
508.95	708.58
509.31	719.81
509.67	731.22
510.03	742.57
510.39	754.29
510.75	766.07
511.12	777.88
511.48	789.95
511.84	802.07
512.20	814.31
512.56	826.93
512.92	839.48
513.28	852.00
513.64	864.72
514.00	877.31
514.37	890.14
514.73	903.02
515.09	915.89
515.45	928.63
515.81	941.54
516.17	954.77
516.53	967.91
516.89	980.86
517.25	993.82
517.61	1007.19
517.97	1020.30
518.33	1033.26
518.69	1046.72
519.05	1060.29
519.41	1073.85
519.77	1087.49
520.13	1100.54
520.49	1113.69
520.85	1126.83
521.21	1139.80
521.57	1153.34
521.93	1166.29
522.29	1179.95
522.65	1193.39
523.01	1206.74
523.37	1219.73
523.73	1232.74
524.09	1245.45
524.45	1258.67
524.81	1271.86
525.17	1284.82
525.53	1297.72
525.89	1310.76
526.25	1323.53
526.61	1336.02
526.97	1348.78
527.33	1361.47
527.68	1374.54
528.04	1387.61
528.40	1400.48
528.76	1413.54
529.12	1426.08
529.48	1439.03
529.84	1450.99
530.20	1463.33
530.56	1475.69
530.91	1488.62
531.27	1501.17
531.63	1513.69
531.99	1525.95
532.35	1537.90
532.71	1550.12
533.07	1562.59
533.42	1574.48
533.78	1586.36
534.14	1598.16
534.50	1609.05
534.86	1620.19
535.21	1630.76
535.57	1641.96
535.93	1652.93
536.29	1663.74
536.65	1674.66
537.00	1685.16
537.36	1696.14
537.72	1706.83
538.08	1717.73
538.44	1728.22
538.79	1738.79
539.15	1749.35
539.51	1759.79
539.87	1770.79
540.22	1781.19
540.58	1791.82
540.94	1802.24
541.29	1812.07
541.65	1821.46
542.01	1831.69
542.37	1841.63
542.72	1851.53
543.08	1860.90
543.44	1870.77
543.79	1879.63
544.15	1888.89
544.51	1898.69
544.87	1908.18
545.22	1917.02
545.58	1925.63
545.94	1934.20
546.29	1942.59
546.65	1950.62
547.01	1958.56
547.36	1965.86
547.72	1973.26
548.07	1980.55
548.43	1988.01
548.79	1995.62
549.14	2003.42
549.50	2011.47
549.86	2018.71
550.21	2025.75
550.57	2033.07
550.92	2039.76
551.28	2047.03
551.64	2054.15
551.99	2061.43
552.35	2068.30
552.70	2075.06
553.06	2081.63
553.41	2087.66
553.77	2093.91
554.13	2100.21
554.48	2106.99
554.84	2113.95
555.19	2120.30
555.55	2126.68
555.90	2132.89
556.26	2139.43
556.61	2145.34
556.97	2150.01
557.32	2155.95
557.68	2162.31
558.03	2167.89
558.39	2172.93
558.74	2178.80
559.10	2184.33
559.45	2189.69
559.81	2195.15
560.16	2200.63
560.52	2206.49
560.87	2212.89
561.23	2218.77
561.58	2225.33
561.94	2230.61
562.29	2235.45
562.64	2241.63
563.00	2247.18
563.35	2252.82
563.71	2258.71
564.06	2264.33
564.42	2270.29
564.77	2275.39
565.12	2280.59
565.48	2286.04
565.83	2291.79
566.19	2297.51
566.54	2302.76
566.89	2307.55
567.25	2312.23
567.60	2317.98
567.96	2323.15
568.31	2327.78
568.66	2332.11
569.02	2336.04
569.37	2339.99
569.72	2344.24
570.08	2347.81
570.43	2350.81
570.78	2353.86
571.14	2356.58
571.49	2359.79
571.84	2363.47
572.20	2366.42
572.55	2369.65
572.90	2371.79
573.26	2374.92
573.61	2377.26
573.96	2379.57
574.31	2381.51
574.67	2383.50
575.02	2384.60
575.37	2386.09
575.72	2387.09
576.08	2388.59
576.43	2388.93
576.78	2389.69
577.13	2391.70
577.49	2392.99
577.84	2394.65
578.19	2396.53
578.54	2397.30
578.90	2398.54
579.25	2398.75
579.60	2399.04
579.95	2398.61
580.30	2399.20
580.66	2398.60
581.01	2397.26
581.36	2395.37
581.71	2394.42
582.06	2393.70
582.42	2392.95
582.77	2391.16
583.12	2389.74
583.47	2388.75
583.82	2388.56
584.17	2387.51
584.53	2385.51
584.88	2383.74
585.23	2382.05
585.58	2379.92
585.93	2378.09
586.28	2375.99
586.63	2373.78
586.98	2371.97
587.34	2370.22
587.69	2368.15
588.04	2366.49
588.39	2365.34
588.74	2363.17
589.09	2360.81
589.44	2358.00
589.79	2355.94
590.14	2354.39
590.49	2351.78
590.84	2348.30
591.19	2345.55
591.54	2342.46
591.89	2338.65
592.25	2335.75
592.60	2331.79
592.95	2327.95
593.30	2324.06
593.65	2319.80
594.00	2315.76
594.35	2312.69
594.70	2308.13
595.05	2303.70
595.40	2298.38
595.75	2292.99
596.10	2289.50
596.45	2284.79
596.80	2280.37
597.15	2275.04
597.50	2268.96
597.85	2264.25
598.19	2259.24
598.54	2253.48
598.89	2248.55
599.24	2244.23
599.59	2238.15
599.94	2232.62
600.29	2226.73
600.64	2220.92
600.99	2214.56
601.34	2209.07
601.69	2202.19
602.04	2195.92
602.39	2189.51
602.74	2183.52
603.08	2177.96
603.43	2171.41
603.78	2164.60
604.13	2157.54
604.48	2150.58
604.83	2144.76
605.18	2138.40
605.53	2131.57
605.87	2124.60
606.22	2117.89
606.57	2110.05
606.92	2102.17
607.27	2095.31
607.62	2088.81
607.96	2081.81
608.31	2075.28
608.66	2067.61
609.01	2060.10
609.36	2053.17
609.70	2045.49
610.05	2037.89
610.40	2029.72
610.75	2021.64
611.10	2014.17
611.44	2005.65
611.79	1996.93
612.14	1987.00
612.49	1976.66
612.83	1967.43
613.18	1958.36
613.53	1949.11
613.88	1939.52
614.22	1931.07
614.57	1921.05
614.92	1910.56
615.27	1900.50
615.61	1890.54
615.96	1880.95
616.31	1871.46
616.65	1862.15
617.00	1852.33
617.35	1842.63
617.70	1832.93
618.04	1822.81
618.39	1812.48
618.74	1802.63
619.08	1793.01
619.43	1784.28
619.78	1776.13
620.12	1767.47
620.47	1757.63
620.82	1747.30
621.16	1737.57
621.51	1727.56
621.85	1717.75
622.20	1707.15
622.55	1696.53
622.89	1686.69
623.24	1677.00
623.59	1667.27
623.93	1657.06
624.28	1647.28
624.62	1637.13
624.97	1626.75
625.32	1617.13
625.66	1608.41
626.01	1599.56
626.35	1590.11
626.70	1579.91
627.04	1569.55
627.39	1559.42
627.73	1550.18
628.08	1541.05
628.43	1531.45
628.77	1522.16
629.12	1513.25
629.46	1505.46
629.81	1496.99
630.15	1487.33
630.50	1477.37
630.84	1466.84
631.19	1456.89
631.53	1447.48
631.88	1437.29
632.22	1427.33
632.57	1417.78
632.91	1407.44
633.26	1397.57
633.60	1387.98
633.95	1378.63
634.29	1369.41
634.64	1360.02
634.98	1350.08
635.32	1340.87
635.67	1332.22
636.01	1323.00
636.36	1313.17
636.70	1303.53
637.05	1294.09
637.39	1285.00
637.73	1276.50
638.08	1268.93
638.42	1260.61
638.77	1251.82
639.11	1243.60
639.45	1235.77
639.80	1227.13
640.14	1218.45
640.49	1209.56
640.83	1200.79
641.17	1192.81
641.52	1184.43
641.86	1175.81
642.20	1167.87
642.55	1159.13
642.89	1150.37
643.23	1141.65
643.58	1133.52
643.92	1124.49
644.26	1115.92
644.61	1107.61
644.95	1098.59
645.29	1089.28
645.64	1080.10
645.98	1071.68
646.32	1063.74
646.66	1055.21
647.01	1046.77
647.35	1038.57
647.69	1030.21
648.04	1021.85
648.38	1012.76
648.72	1003.99
649.06	995.60
649.41	987.57
649.75	979.67
650.09	971.66
650.43	963.64
650.78	955.45
651.12	947.85
651.46	940.46
651.80	933.10
652.14	925.87
652.49	918.39
652.83	911.15
653.17	903.40
653.51	895.68
653.85	888.45
654.20	881.23
654.54	873.72
654.88	866.57
655.22	859.47
655.56	852.64
655.90	845.93
656.25	839.27
656.59	832.21
656.93	825.11
657.27	818.11
657.61	811.29
657.95	805.26
658.29	799.41
658.64	793.21
658.98	786.81
659.32	780.25
659.66	774.05
660.00	767.75
660.34	761.80
660.68	755.76
661.02	749.44
661.36	743.65
661.70	737.94
662.05	732.30
662.39	726.81
662.73	721.42
663.07	716.07
663.41	710.56
663.75	704.98
664.09	699.45
664.43	694.07
664.77	688.72
665.11	682.87
665.45	676.91
665.79	671.24
666.13	665.57
666.47	660.24
666.81	654.89
667.15	649.67
667.49	644.45
667.83	639.26
668.17	634.09
668.51	628.99
668.85	624.17
669.19	619.27
669.53	614.25
669.87	609.19
670.21	604.48
670.55	599.71
670.89	595.37
671.23	591.16
671.57	586.86
671.91	582.58
672.25	578.58
672.58	574.56
672.92	570.57
673.26	566.75
673.60	562.90
673.94	559.14
674.28	555.44
674.62	551.77
674.96	548.10
675.30	544.65
675.64	541.01
675.97	537.44
676.31	533.93
676.65	530.47
676.99	527.17
677.33	523.41
677.67	519.84
678.01	515.99
678.34	512.38
678.68	508.90
679.02	505.34
679.36	501.62
679.70	498.06
680.04	494.61
680.37	491.21
680.71	487.99
681.05	484.87
681.39	481.77
681.73	478.67
682.06	475.66
682.40	472.61
682.74	469.49
683.08	466.36
683.42	463.29
683.75	460.34
684.09	457.36
684.43	454.58
684.77	451.72
685.10	448.97
685.44	446.13
685.78	443.30
686.12	440.59
686.45	437.96
686.79	435.38
687.13	432.90
687.46	430.34
687.80	427.68
688.14	424.89
688.48	422.31
688.81	419.73
689.15	417.21
689.49	414.69
689.82	412.26
690.16	409.74
690.50	407.33
690.83	404.87
691.17	402.42
691.51	400.03
691.84	397.87
692.18	395.75
692.52	393.63
692.85	391.54
693.19	389.49
693.52	387.36
693.86	385.19
694.20	383.07
694.53	381.00
694.87	378.86
695.21	376.81
695.54	374.68
695.88	372.61
696.21	370.49
696.55	368.41
696.88	366.44
697.22	364.50
697.56	362.65
697.89	360.86
698.23	359.14
698.56	357.41
698.90	355.67
699.23	353.74
699.57	351.87
699.90	350.07
700.24	348.33
700.58	346.63
700.91	345.02
701.25	343.47
701.58	341.88
701.92	340.38
702.25	338.81
702.59	337.28
702.92	335.77
703.26	334.29
703.59	332.90
703.93	331.67
704.26	330.29
704.60	328.85
704.93	327.39
705.26	325.88
705.60	324.45
705.93	323.01
706.27	321.78
706.60	320.58
706.94	319.35
707.27	317.95
707.61	316.64
707.94	315.31
708.27	313.86
708.61	312.46
708.94	311.11
709.28	309.87
709.61	308.61
709.94	307.47
710.28	306.26
710.61	305.05
710.95	303.63
711.28	302.63
711.61	301.41
711.95	300.32
712.28	299.16
712.61	298.04
712.95	297.03
713.28	296.02
713.61	294.86
713.95	293.79
714.28	292.82
714.61	291.82
714.95	290.83
715.28	289.84
715.61	288.90
715.95	287.95
716.28	287.04
716.61	286.12
716.95	285.12
717.28	284.23
717.61	283.34
717.94	282.53
718.28	281.49
718.61	280.70
718.94	279.84
719.27	279.07
719.61	278.23
719.94	277.36
720.27	276.41
720.60	275.62
720.94	274.83
721.27	274.09
721.60	273.42
721.93	272.74
722.27	272.14
722.60	271.50
722.93	270.87
723.26	270.20
723.59	269.55
723.93	268.94
724.26	268.32
724.59	267.67
724.92	267.08
725.25	266.60
725.59	266.03
725.92	265.49
726.25	264.93
726.58	264.38
726.91	263.83
727.24	263.35
727.57	262.82
727.91	262.23
728.24	261.72
728.57	261.16
728.90	260.62
729.23	260.01
729.56	259.54
729.89	258.98
730.22	258.46
730.55	257.93
730.89	257.42
731.22	256.92
731.55	256.43
731.88	255.90
732.21	255.39
732.54	254.92
732.87	254.43
733.20	253.95
733.53	253.55
733.86	253.13
734.19	252.64
734.52	252.26
734.85	251.98
735.18	251.50
735.51	251.16
735.84	250.75
736.17	250.40
736.50	249.90
736.83	249.76
737.16	249.38
737.49	249.04
737.82	248.65
738.15	248.28
738.48	247.93
738.81	247.60
739.14	247.16
739.47	246.75
739.80	246.37
740.13	246.02
740.46	245.62
740.79	245.26
741.12	244.94
741.45	244.55
741.78	244.11
742.11	243.87
742.44	243.43
742.77	243.16
743.10	242.82
743.43	242.47
743.75	241.93
744.08	241.88
744.41	241.51
744.74	241.17
745.07	240.82
745.40	240.54
745.73	240.30
746.06	240.00
746.39	239.74
746.71	239.47
747.04	239.16
747.37	238.83
747.70	238.53
748.03	238.23
748.36	237.98
748.68	237.72
749.01	237.37
749.34	237.11
749.67	236.79
750.00	236.53
750.33	236.42
750.65	236.16
750.98	235.63
751.31	235.42
751.64	235.17
751.97	235.07
752.29	234.81
752.62	234.44
752.95	234.20
753.28	233.94
753.60	233.67
753.93	233.49
754.26	233.32
754.59	233.07
754.91	232.85
755.24	232.60
755.57	232.35
755.90	232.17
756.22	231.94
756.55	231.72
756.88	231.46
757.20	231.17
757.53	230.92
757.86	230.74
758.19	230.53
758.51	230.34
758.84	230.01
759.17	229.79
759.49	229.65
759.82	229.57
760.15	229.39
760.47	229.24
760.80	229.01
761.13	228.84
761.45	228.63
761.78	228.42
762.11	228.26
762.43	228.08
762.76	227.92
763.08	227.79
763.41	227.67
763.74	227.54
764.06	227.37
764.39	227.24
764.71	227.07
765.04	226.93
765.37	226.80
765.69	226.70
766.02	226.57
766.34	226.45
766.67	226.23
767.00	226.15
767.32	226.10
767.65	226.07
767.97	225.91
768.30	225.83
768.62	225.76
768.95	225.64
769.27	225.53
769.60	225.39
769.92	225.22
770.25	225.06
770.57	224.91
770.90	224.79
771.22	224.66
771.55	224.53
771.87	224.46
772.20	224.34
772.52	224.42
772.85	224.58
773.17	224.48
773.50	224.36
773.82	224.21
774.15	224.04
774.47	223.81
774.80	223.70
775.12	223.60
775.45	223.50
775.77	223.41
776.09	223.33
776.42	223.23
776.74	223.21
777.07	223.13
777.39	223.06
777.72	222.98
778.04	222.93
778.36	222.89
778.69	222.80
779.01	222.77
779.33	222.47
779.66	222.15
779.98	222.06
780.31	222.01
780.63	222.02
780.95	221.98
781.28	221.91
781.60	221.83
781.92	221.76
782.25	221.70
782.57	221.64
782.89	221.58
783.22	221.51
783.54	221.42
783.86	221.37
784.19	221.29
784.51	221.28
784.83	221.20
785.16	221.11
785.48	221.05
785.80	220.97
786.12	220.94
786.45	220.91
786.77	220.88
787.09	220.81
787.42	220.67
787.74	220.60
788.06	220.58
788.38	220.54
788.71	220.46
789.03	220.37
789.35	220.36
789.67	220.31
789.99	220.27
790.32	220.18
790.64	220.18
790.96	220.27
791.28	220.15
791.61	220.06
791.93	220.01
792.25	219.95
792.57	220.03
792.89	219.94
793.21	219.89
793.54	219.82
793.86	219.75
794.18	219.73
794.50	219.65
794.82	219.59
795.14	219.56
795.47	219.55
795.79	219.53
796.11	219.44
796.43	219.37
796.75	219.31
797.07	219.28
797.39	219.23
797.71	219.08
798.04	219.06
798.36	219.05
798.68	218.99
799.00	218.96
799.32	218.84
799.64	218.86
799.96	218.83
800.28	218.82
800.60	218.82
800.92	218.80
801.24	218.77
801.56	218.76
801.89	218.73
802.21	218.71
802.53	218.69
802.85	218.69
803.17	218.75
803.49	218.69
803.81	218.69
804.13	218.66
804.45	218.60
804.77	218.57
805.09	218.59
805.41	218.59
805.73	218.55
806.05	218.46
806.37	218.39
806.69	218.34
807.01	218.28
807.33	218.24
807.65	218.13
807.97	218.20
808.28	218.15
808.60	218.07
808.92	218.06
809.24	218.11
809.56	218.04
809.88	217.97
810.20	217.97
810.52	217.96
810.84	217.90
811.16	217.87
811.48	217.86
811.80	217.88
812.12	217.84
812.43	217.85
812.75	217.88
813.07	217.86
813.39	217.83
813.71	217.79
814.03	217.76
814.35	217.77
814.67	217.70
814.98	217.66
815.30	217.67
815.62	217.62
815.94	217.45
816.26	217.45
816.58	217.38
816.89	217.36
817.21	217.29
817.53	217.28
817.85	217.26
818.17	217.23
818.48	217.13
818.80	217.14
819.12	217.09
819.44	217.02
819.76	216.95
820.07	216.95
820.39	216.93
820.71	216.95
821.03	216.92
821.34	216.86
821.66	216.89
821.98	216.88
822.30	216.82
822.61	216.94
822.93	216.89
823.25	216.87
823.57	216.84
823.88	216.89
824.20	216.83
824.52	216.88
824.83	216.86
825.15	216.81
825.47	216.76
825.79	216.74
826.10	216.71
826.42	216.71
826.74	216.71
827.05	216.72
827.37	216.68
827.69	216.68
828.00	216.68
828.32	216.66
828.64	216.62
828.95	216.76
829.27	216.71
829.58	216.71
829.90	216.73
830.22	216.74
830.53	216.65
830.85	216.65
831.17	216.56
831.48	216.53
831.80	216.53
832.11	216.54
832.43	216.50
832.75	216.50
833.06	216.62
833.38	216.55
833.69	216.52
834.01	216.54
834.32	216.51
834.64	216.51
834.96	216.52
835.27	216.56
835.59	216.48
835.90	216.41
836.22	216.40
836.53	216.33
836.85	216.30
837.16	216.53
837.48	216.52
837.79	216.61
838.11	216.65
838.42	216.65
838.74	216.66
839.05	216.67
839.37	216.68
839.68	216.53
840.00	216.55
840.31	216.55
840.63	216.50
840.94	216.47
841.26	216.40
841.57	216.37
841.88	216.34
842.20	216.27
842.51	216.25
842.83	216.26
843.14	216.47
843.46	216.47
843.77	216.32
844.08	216.30
844.40	216.22
844.71	216.16
845.03	216.15
845.34	216.11
845.65	216.08
845.97	216.04
846.28	216.05
846.60	216.02
846.91	216.01
847.22	216.00
847.54	216.03
847.85	216.07
848.16	216.06
848.48	216.00
848.79	216.10
849.10	216.11
849.42	216.11
849.73	215.92
850.04	215.93
850.36	215.88
850.67	215.92
850.98	215.93
851.30	215.97
851.61	215.96
851.92	215.97
852.23	216.03
852.55	216.09
852.86	216.09
853.17	216.09
853.49	216.13
853.80	216.15
854.11	216.16
854.42	216.18
854.74	216.17
855.05	216.18
855.36	216.06
855.67	216.06
855.99	216.07
856.30	216.29
856.61	216.26
856.92	216.26
857.23	216.24
857.55	216.20
857.86	216.17
858.17	216.21
858.48	216.17
858.79	216.09
859.11	216.10
859.42	216.06
859.73	216.03
860.04	215.99
860.35	215.95
860.66	215.90
860.98	215.87
861.29	215.88
861.60	215.87
861.91	215.93
862.22	215.88
862.53	215.83
862.84	215.58
863.16	215.65
863.47	215.59
863.78	215.54
864.09	215.57
864.40	215.53
864.71	215.53
865.02	215.55
865.33	215.53
865.64	215.47
865.95	215.49
866.27	215.65
866.58	215.64
866.89	215.68
867.20	215.69
867.51	215.68
867.82	215.67
868.13	215.74
868.44	215.69
868.75	215.73
869.06	215.75
869.37	215.77
869.68	215.67
869.99	215.74
870.30	215.78
870.61	215.78
870.92	215.78
871.23	215.74
871.54	215.76
871.85	215.81
872.16	215.85
872.47	215.82
872.78	215.67
873.09	215.67
873.40	215.63
873.71	215.60
874.02	215.56
874.33	215.55
874.64	215.52
874.95	215.54
875.26	215.51
875.56	215.53
875.87	215.55
876.18	215.57
876.49	215.76
876.80	215.72
877.11	215.70
877.42	215.71
877.73	215.74
878.04	215.70
878.35	215.72
878.66	215.71
878.96	215.75
879.27	215.76
879.58	215.75
879.89	215.72
880.20	215.78
880.51	215.80
880.82	215.80
881.12	215.80
881.43	215.75
881.74	215.71
882.05	215.70
882.36	215.66
882.67	215.65
882.97	215.42
883.28	215.41
883.59	215.43
883.90	215.39
884.21	215.39
884.51	215.39
884.82	215.33
885.13	215.30
885.44	215.28
885.74	215.32
886.05	215.31
886.36	215.33
886.67	215.28
886.98	215.39
887.28	215.38
887.59	215.36
887.90	215.40
888.20	215.40
888.51	215.43
888.82	215.43
889.13	215.45
889.43	215.62
889.74	215.63
890.05	215.60
890.35	215.60
890.66	215.60
890.97	215.55
891.28	215.57
891.58	215.57
891.89	215.56
892.20	215.49
892.50	215.46
892.81	215.46
893.12	215.43
893.42	215.34
893.73	215.34
894.04	215.35
894.34	215.34
894.65	215.34
894.95	215.31
895.26	215.31
895.57	215.39
895.87	215.21
896.18	215.25
896.48	215.28
896.79	215.27
897.10	215.29
897.40	215.33
897.71	215.33
898.01	215.30
898.32	215.31
898.63	215.34
898.93	215.39
899.24	215.43
899.54	215.46
899.85	215.43
900.15	215.42
900.46	215.43
900.76	215.44
901.07	215.48
901.38	215.46
901.68	215.49
901.99	215.38
902.29	215.40
902.60	215.34
902.90	215.30
903.21	215.33
903.51	215.28
903.82	215.33
904.12	215.35
904.43	215.38
904.73	215.34
905.03	215.31
905.34	215.50
905.64	215.45
905.95	215.44
906.25	215.45
906.56	215.49
906.86	215.48
907.17	215.47
907.47	215.48
907.77	215.48
908.08	215.41
908.38	215.43
908.69	215.43
908.99	215.46
909.30	215.47
909.60	215.45
909.90	215.48
910.21	215.40
910.51	215.37
910.81	215.35
911.12	215.42
911.42	215.47
911.73	215.25
912.03	215.28
912.33	215.30
912.64	215.28
912.94	215.24
913.24	215.17
913.55	215.12
913.85	215.07
914.15	215.13
914.46	215.13
914.76	215.11
915.06	215.10
915.37	215.06
915.67	215.07
915.97	215.06
916.27	215.03
916.58	215.07
916.88	215.05
917.18	215.06
917.49	215.18
917.79	215.18
918.09	215.23
918.39	215.25
918.70	215.27
919.00	215.28
919.30	215.42
919.60	215.41
919.91	215.41
920.21	215.43
920.51	215.37
920.81	215.39
921.12	215.41
921.42	215.41
921.72	215.44
922.02	215.43
922.32	215.49
922.63	215.47
922.93	215.55
923.23	215.58
923.53	215.56
923.83	215.42
924.13	215.42
924.44	215.39
924.74	215.44
925.04	215.47
925.34	215.45
925.64	215.33
925.94	215.34
926.24	215.48
926.55	215.48
926.85	215.53
927.15	215.53
927.45	215.51
927.75	215.51
928.05	215.52
928.35	215.56
928.65	215.56
928.95	215.60
929.26	215.49
929.56	215.50
929.86	215.52
930.16	215.52
930.46	215.51
930.76	215.49
931.06	215.39
931.36	215.31
931.66	215.36
931.96	215.39
932.26	215.43
932.56	215.33
932.86	215.32
933.16	215.31
933.46	215.30
933.76	215.29
934.06	215.33
934.36	215.38
934.66	215.33
934.96	215.31
935.26	215.30
935.56	215.34
935.86	215.33
936.16	215.31
936.46	215.25
936.76	215.24
937.06	215.24
937.36	215.24
937.66	215.26
937.96	215.23
938.26	215.18
938.56	215.15
938.86	215.16
939.16	215.20
939.46	215.21
939.76	215.20
940.06	215.19
940.35	215.18
940.65	215.09
940.95	215.12
941.25	215.05
941.55	215.05
941.85	215.03
942.15	215.08
942.45	215.10
942.75	215.10
943.04	215.14
943.34	215.19
943.64	215.20
943.94	215.16
944.24	215.20
944.54	215.19
944.84	215.20
945.13	215.17
945.43	215.12
945.73	215.10
946.03	215.12
946.33	215.08
946.62	215.06
946.92	215.07
947.22	215.07
947.52	215.12
947.82	215.15
948.11	215.14
948.41	215.05
948.71	215.05
949.01	215.11
949.31	215.07
949.60	215.04
949.90	215.07
950.20	215.04
950.50	215.05
950.79	215.05
951.09	215.06
951.39	215.07
951.69	215.08
951.98	215.15
952.28	215.15
952.58	215.16
952.87	215.19
953.17	215.20
953.47	215.19
953.76	215.17
954.06	215.10
954.36	215.08
954.66	215.08
954.95	215.10
955.25	215.07
955.55	215.08
955.84	215.04
956.14	215.02
956.44	215.05
956.73	215.00
957.03	215.01
957.32	215.03
957.62	215.01
957.92	215.04
958.21	214.99
958.51	215.20
958.81	215.22
959.10	215.23
959.40	215.26
959.69	215.26
959.99	215.28
960.29	215.34
960.58	215.32
960.88	215.45
961.17	215.42
961.47	215.46
961.76	215.39
962.06	215.45
962.36	215.46
962.65	215.45
962.95	215.46
963.24	215.45
963.54	215.43
963.83	215.47
964.13	215.44
964.42	215.37
964.72	215.24
965.01	215.26
965.31	215.23
965.60	215.20
965.90	215.32
966.19	215.28
966.49	215.27
966.78	215.27
967.08	215.24
967.37	215.24
967.67	215.23
967.96	215.30
968.26	215.27
968.55	215.30
968.85	215.31
969.14	215.32
969.43	215.33
969.73	215.31
970.02	215.30
970.32	215.32
970.61	215.35
970.91	215.27
971.20	215.24
971.49	215.21
971.79	215.23
972.08	215.10
972.38	215.15
972.67	215.14
972.96	215.17
973.26	215.11
973.55	215.17
973.85	215.15
974.14	215.12
974.43	215.15
974.73	215.08
975.02	215.06
975.31	215.06
975.61	215.05
975.90	215.04
976.19	215.02
976.49	215.00
976.78	214.99
977.07	214.99
977.37	215.00
977.66	215.01
977.95	214.97
978.24	214.99
978.54	215.01
978.83	214.98
979.12	214.99
979.42	215.00
979.71	214.95
980.00	214.95
980.29	214.98
980.59	214.93
980.88	214.98
981.17	215.00
981.46	214.98
981.76	214.98
982.05	215.06
982.34	215.06
982.63	215.07
982.93	215.06
983.22	215.11
983.51	215.11
983.80	215.16
984.09	215.18
984.39	215.16
984.68	215.14
984.97	215.16
985.26	215.13
985.55	215.13
985.85	215.11
986.14	215.14
986.43	215.15
986.72	215.13
987.01	215.11
987.30	215.07
987.59	215.07
987.89	215.07
988.18	214.98
988.47	214.96
988.76	214.95
989.05	214.93
989.34	214.90
989.63	214.93
989.92	214.90
990.22	214.85
990.51	214.87
990.80	214.88
991.09	214.87
991.38	214.89
991.67	214.88
991.96	214.87
992.25	214.88
992.54	214.84
992.83	214.88
993.12	214.87
993.41	214.90
993.70	214.99
993.99	215.04
994.28	215.08
994.58	215.10
994.87	215.08
995.16	215.14
995.45	215.10
995.74	215.02
996.03	215.05
996.32	215.10
996.61	215.12
996.90	215.08
997.19	215.09
997.48	215.09
997.77	215.08
998.06	215.06
998.34	215.00
998.63	215.03
998.92	214.99
999.21	215.02
999.50	215.03
999.79	214.93
1000.08	214.90
1000.37	214.91
1000.66	214.90
1000.95	214.96
1001.24	214.94
1001.53	214.96
1001.82	214.96
1002.11	214.93
1002.40	214.96
1002.68	214.98
1002.97	215.12
1003.26	215.09
1003.55	215.06
1003.84	215.08
1004.13	215.14
1004.42	215.16
1004.71	215.14
1004.99	215.16
1005.28	215.18
1005.57	215.16
1005.86	215.17
1006.15	215.18
1006.44	215.14
1006.72	215.16
1007.01	215.13
1007.30	215.17
1007.59	215.18
1007.88	215.19
1008.17	215.19
1008.45	215.14
1008.74	215.05
1009.03	214.96
1009.32	214.99
1009.60	214.98
1009.89	214.95
1010.18	214.89
1010.47	214.88
1010.76	214.89
1011.04	214.86
1011.33	214.89
1011.62	214.91
1011.91	214.91
1012.19	214.89
1012.48	214.89
1012.77	214.89
1013.05	214.99
1013.34	214.94
1013.63	214.90
1013.92	214.91
1014.20	214.90
1014.49	214.91
1014.78	214.97
1015.06	214.91
1015.35	214.89
1015.64	214.91
1015.92	214.95
1016.21	214.96
1016.50	214.96
1016.78	214.98
1017.07	214.98
1017.36	214.91
1017.64	214.85
1017.93	214.89
1018.22	214.89
1018.50	214.89
1018.79	214.87
1019.08	214.75
1019.36	214.78
1019.65	214.76
1019.93	214.80
1020.22	214.81
1020.51	214.93
1020.79	214.89
1021.08	214.48
1021.36	214.52
1021.65	215.00
1021.94	214.87
1022.22	214.79
1022.51	214.11
1022.79	215.45
1023.08	214.94
1023.36	217.70
1023.65	214.34
>>>>>End Processed Spectral Data<<<<<
