SpectraSuite Data File
++++++++++++++++++++++++++++++++++++
Date: Tue Jan 29 16:32:15 EST 2013
User: group
Dark Spectrum Present: No
Reference Spectrum Present: No
Number of Sampled Component Spectra: 1
Spectrometers: USB2E7196
Integration Time (usec): 65000 (USB2E7196)
Spectra Averaged: 100 (USB2E7196)
Boxcar Smoothing: 10 (USB2E7196)
Correct for Electrical Dark: No (USB2E7196)
Strobe/Lamp Enabled: No (USB2E7196)
Correct for Detector Non-linearity: No (USB2E7196)
Correct for Stray Light: No (USB2E7196)
Number of Pixels in Processed Spectrum: 2048
>>>>>Begin Processed Spectral Data<<<<<
339.09	0.00
339.48	202.03
339.86	203.05
340.24	204.37
340.63	205.66
341.01	210.18
341.39	209.09
341.78	210.65
342.16	211.35
342.54	211.80
342.93	201.03
343.31	211.17
343.69	211.69
344.07	212.18
344.46	212.63
344.84	213.03
345.22	213.23
345.60	213.49
345.99	213.70
346.37	213.85
346.75	213.99
347.13	214.06
347.52	214.12
347.90	214.24
348.28	214.27
348.66	214.36
349.05	214.32
349.43	214.37
349.81	214.47
350.19	214.58
350.57	214.67
350.96	214.74
351.34	214.89
351.72	215.00
352.10	215.11
352.48	215.20
352.87	215.32
353.25	215.40
353.63	215.47
354.01	215.55
354.39	215.64
354.77	215.73
355.15	215.89
355.54	216.00
355.92	216.03
356.30	216.11
356.68	216.31
357.06	216.40
357.44	216.48
357.82	216.51
358.20	216.58
358.58	216.64
358.97	216.71
359.35	216.79
359.73	216.93
360.11	216.99
360.49	217.06
360.87	217.10
361.25	217.17
361.63	217.28
362.01	217.33
362.39	217.39
362.77	217.42
363.15	217.45
363.53	217.48
363.91	217.54
364.29	217.58
364.67	217.42
365.05	217.44
365.43	217.47
365.81	217.54
366.19	217.64
366.57	217.72
366.95	217.74
367.33	217.71
367.71	217.66
368.09	217.70
368.47	217.71
368.85	217.67
369.23	217.70
369.61	217.63
369.99	217.66
370.37	217.65
370.75	217.74
371.13	217.67
371.51	217.61
371.89	217.56
372.27	217.56
372.65	217.52
373.03	217.52
373.41	217.46
373.78	217.38
374.16	217.22
374.54	217.14
374.92	217.07
375.30	217.02
375.68	216.93
376.06	216.87
376.44	216.79
376.82	216.81
377.19	216.75
377.57	216.67
377.95	216.55
378.33	216.48
378.71	216.29
379.09	216.28
379.47	216.27
379.84	216.21
380.22	216.13
380.60	216.06
380.98	216.02
381.36	215.99
381.73	215.94
382.11	215.93
382.49	215.89
382.87	215.84
383.25	215.79
383.62	216.00
384.00	215.94
384.38	215.91
384.76	215.88
385.13	215.92
385.51	215.91
385.89	215.87
386.27	215.85
386.64	215.85
387.02	215.79
387.40	215.71
387.78	215.69
388.15	215.68
388.53	215.65
388.91	215.60
389.29	215.55
389.66	215.56
390.04	215.53
390.42	215.49
390.79	215.46
391.17	215.45
391.55	215.24
391.92	215.24
392.30	215.25
392.68	215.18
393.05	215.14
393.43	215.11
393.81	215.11
394.18	215.06
394.56	215.02
394.94	215.05
395.31	215.06
395.69	215.15
396.06	215.15
396.44	215.18
396.82	215.17
397.19	215.30
397.57	215.28
397.95	215.34
398.32	215.34
398.70	215.41
399.07	215.50
399.45	215.52
399.82	215.59
400.20	215.63
400.58	215.71
400.95	215.68
401.33	215.80
401.70	216.02
402.08	216.14
402.45	216.28
402.83	216.44
403.20	216.56
403.58	216.62
403.95	216.79
404.33	216.98
404.71	217.13
405.08	217.38
405.46	217.56
405.83	217.75
406.21	217.96
406.58	218.16
406.96	218.37
407.33	218.63
407.70	218.92
408.08	219.34
408.45	219.71
408.83	220.11
409.20	220.48
409.58	220.75
409.95	221.21
410.33	221.70
410.70	222.12
411.08	222.69
411.45	223.28
411.82	223.86
412.20	224.53
412.57	225.38
412.95	225.97
413.32	226.79
413.69	227.60
414.07	228.51
414.44	229.53
414.82	230.58
415.19	231.76
415.56	232.91
415.94	234.13
416.31	235.50
416.68	236.92
417.06	238.48
417.43	240.03
417.81	241.80
418.18	243.57
418.55	245.51
418.93	247.55
419.30	249.65
419.67	251.86
420.04	254.12
420.42	256.49
420.79	259.31
421.16	262.12
421.54	265.06
421.91	268.04
422.28	271.14
422.66	274.40
423.03	277.65
423.40	281.05
423.77	284.62
424.15	288.33
424.52	292.14
424.89	296.32
425.26	300.39
425.64	304.25
426.01	308.53
426.38	312.99
426.75	317.54
427.13	322.30
427.50	327.28
427.87	332.56
428.24	337.74
428.61	342.72
428.99	348.22
429.36	354.27
429.73	360.18
430.10	366.03
430.47	372.12
430.85	378.42
431.22	385.13
431.59	392.27
431.96	399.07
432.33	406.57
432.70	413.80
433.08	422.29
433.45	430.37
433.82	438.38
434.19	447.26
434.56	455.92
434.93	464.27
435.30	472.53
435.68	481.55
436.05	490.57
436.42	499.51
436.79	507.70
437.16	516.37
437.53	525.65
437.90	534.82
438.27	543.79
438.64	553.02
439.01	561.53
439.38	569.09
439.75	576.40
440.13	584.89
440.50	592.87
440.87	599.38
441.24	605.96
441.61	613.31
441.98	618.65
442.35	625.01
442.72	631.35
443.09	637.40
443.46	641.13
443.83	643.64
444.20	645.80
444.57	649.01
444.94	650.53
445.31	651.93
445.68	653.29
446.05	653.90
446.42	653.17
446.79	652.24
447.16	651.14
447.53	650.49
447.90	647.09
448.27	643.78
448.64	639.14
449.01	635.83
449.37	629.92
449.74	624.33
450.11	617.39
450.48	609.98
450.85	602.55
451.22	596.10
451.59	589.95
451.96	584.14
452.33	576.17
452.70	569.08
453.07	560.61
453.43	552.06
453.80	543.80
454.17	535.80
454.54	528.21
454.91	520.05
455.28	511.97
455.65	504.60
456.02	497.11
456.38	490.80
456.75	482.96
457.12	476.38
457.49	469.77
457.86	463.59
458.23	458.14
458.59	452.18
458.96	446.23
459.33	440.93
459.70	435.50
460.07	431.27
460.43	426.31
460.80	421.76
461.17	417.72
461.54	413.46
461.91	409.40
462.27	405.31
462.64	401.87
463.01	398.08
463.38	394.39
463.74	390.70
464.11	387.39
464.48	384.56
464.85	381.47
465.21	379.13
465.58	376.52
465.95	373.37
466.32	370.73
466.68	368.10
467.05	365.49
467.42	362.93
467.78	360.19
468.15	357.69
468.52	355.75
468.88	353.26
469.25	351.04
469.62	349.23
469.98	347.27
470.35	345.42
470.72	343.75
471.08	341.90
471.45	340.36
471.82	338.85
472.18	337.21
472.55	336.00
472.92	334.58
473.28	333.35
473.65	332.22
474.02	331.12
474.38	330.25
474.75	329.55
475.11	328.76
475.48	328.21
475.85	327.71
476.21	327.20
476.58	326.84
476.94	326.56
477.31	326.23
477.67	325.96
478.04	325.83
478.41	325.79
478.77	325.96
479.14	325.91
479.50	326.01
479.87	326.26
480.23	326.57
480.60	326.80
480.96	327.09
481.33	327.71
481.69	328.30
482.06	328.82
482.42	329.29
482.79	329.85
483.15	330.66
483.52	331.62
483.88	332.51
484.25	333.51
484.61	334.57
484.98	335.68
485.34	337.01
485.71	338.42
486.07	339.84
486.44	341.21
486.80	342.88
487.17	344.59
487.53	346.43
487.90	348.32
488.26	350.39
488.62	352.55
488.99	354.61
489.35	356.73
489.72	359.10
490.08	361.61
490.44	364.24
490.81	366.91
491.17	369.61
491.54	372.66
491.90	375.68
492.26	378.90
492.63	382.27
492.99	385.76
493.36	389.39
493.72	393.24
494.08	397.28
494.45	401.44
494.81	405.77
495.17	410.23
495.54	414.99
495.90	419.82
496.26	424.76
496.63	429.93
496.99	435.37
497.35	441.04
497.72	446.87
498.08	452.81
498.44	458.96
498.80	465.39
499.17	471.88
499.53	478.67
499.89	485.62
500.26	492.68
500.62	499.78
500.98	507.18
501.34	514.75
501.71	522.47
502.07	530.31
502.43	538.36
502.79	546.57
503.16	554.95
503.52	563.58
503.88	572.38
504.24	581.40
504.60	590.51
504.97	599.72
505.33	609.03
505.69	618.97
506.05	628.87
506.41	638.78
506.78	648.87
507.14	659.17
507.50	669.63
507.86	680.35
508.22	691.15
508.59	701.92
508.95	712.98
509.31	724.37
509.67	735.95
510.03	747.40
510.39	759.12
510.75	770.99
511.12	782.98
511.48	795.06
511.84	807.38
512.20	819.81
512.56	832.60
512.92	845.44
513.28	858.16
513.64	871.02
514.00	884.02
514.37	897.02
514.73	910.19
515.09	923.33
515.45	936.24
515.81	949.41
516.17	962.88
516.53	976.20
516.89	989.34
517.25	1002.57
517.61	1016.23
517.97	1029.73
518.33	1043.01
518.69	1056.67
519.05	1070.63
519.41	1084.38
519.77	1098.32
520.13	1111.59
520.49	1125.01
520.85	1138.51
521.21	1151.97
521.57	1165.75
521.93	1178.97
522.29	1192.79
522.65	1206.46
523.01	1220.31
523.37	1233.74
523.73	1247.14
524.09	1260.48
524.45	1274.07
524.81	1287.76
525.17	1301.24
525.53	1314.56
525.89	1328.06
526.25	1341.24
526.61	1354.21
526.97	1367.42
527.33	1380.57
527.68	1394.25
528.04	1407.73
528.40	1420.93
528.76	1434.30
529.12	1447.20
529.48	1460.62
529.84	1473.00
530.20	1485.91
530.56	1498.65
530.91	1511.96
531.27	1525.00
531.63	1537.83
531.99	1550.71
532.35	1563.01
532.71	1575.55
533.07	1588.63
533.42	1600.95
533.78	1613.18
534.14	1625.26
534.50	1636.58
534.86	1648.17
535.21	1659.10
535.57	1670.71
535.93	1682.06
536.29	1693.26
536.65	1704.97
537.00	1716.05
537.36	1727.66
537.72	1738.71
538.08	1750.13
538.44	1761.13
538.79	1772.29
539.15	1783.35
539.51	1794.17
539.87	1805.69
540.22	1816.67
540.58	1827.63
540.94	1838.58
541.29	1849.03
541.65	1858.83
542.01	1869.43
542.37	1879.56
542.72	1889.87
543.08	1899.76
543.44	1910.53
543.79	1919.98
544.15	1929.44
544.51	1939.58
544.87	1949.54
545.22	1958.88
545.58	1967.87
545.94	1976.99
546.29	1985.54
546.65	1994.02
547.01	2002.34
547.36	2009.92
547.72	2017.66
548.07	2025.30
548.43	2033.18
548.79	2041.12
549.14	2049.34
549.50	2058.02
549.86	2066.14
550.21	2073.70
550.57	2081.47
550.92	2088.17
551.28	2095.75
551.64	2103.12
551.99	2110.61
552.35	2117.86
552.70	2124.91
553.06	2131.68
553.41	2137.86
553.77	2144.41
554.13	2150.79
554.48	2157.93
554.84	2165.28
555.19	2171.92
555.55	2178.50
555.90	2184.96
556.26	2191.72
556.61	2197.99
556.97	2202.78
557.32	2208.35
557.68	2214.71
558.03	2220.47
558.39	2225.84
558.74	2231.86
559.10	2237.29
559.45	2243.03
559.81	2248.59
560.16	2254.18
560.52	2260.13
560.87	2266.78
561.23	2272.81
561.58	2279.45
561.94	2284.69
562.29	2289.34
562.64	2295.39
563.00	2301.20
563.35	2306.69
563.71	2312.55
564.06	2318.05
564.42	2324.00
564.77	2329.24
565.12	2334.60
565.48	2339.80
565.83	2345.24
566.19	2350.66
566.54	2356.27
566.89	2360.72
567.25	2365.23
567.60	2370.87
567.96	2375.97
568.31	2380.39
568.66	2384.67
569.02	2388.62
569.37	2392.24
569.72	2396.55
570.08	2400.09
570.43	2402.86
570.78	2405.93
571.14	2408.39
571.49	2411.63
571.84	2415.32
572.20	2418.13
572.55	2421.06
572.90	2423.28
573.26	2426.23
573.61	2428.59
573.96	2430.50
574.31	2432.64
574.67	2434.49
575.02	2435.27
575.37	2436.54
575.72	2437.17
576.08	2438.66
576.43	2438.84
576.78	2439.31
577.13	2440.88
577.49	2441.86
577.84	2443.05
578.19	2444.33
578.54	2444.91
578.90	2445.59
579.25	2445.24
579.60	2445.34
579.95	2444.54
580.30	2444.64
580.66	2443.97
581.01	2442.47
581.36	2440.15
581.71	2438.67
582.06	2437.53
582.42	2436.52
582.77	2434.34
583.12	2432.79
583.47	2431.27
583.82	2430.62
584.17	2429.50
584.53	2427.21
584.88	2425.13
585.23	2423.25
585.58	2420.86
585.93	2418.75
586.28	2416.51
586.63	2413.98
586.98	2411.67
587.34	2409.53
587.69	2407.08
588.04	2404.77
588.39	2403.25
588.74	2400.69
589.09	2397.94
589.44	2394.65
589.79	2392.13
590.14	2390.17
590.49	2387.17
590.84	2383.29
591.19	2380.03
591.54	2376.56
591.89	2372.61
592.25	2369.41
592.60	2365.07
592.95	2360.89
593.30	2356.73
593.65	2352.21
594.00	2347.78
594.35	2344.51
594.70	2339.93
595.05	2335.30
595.40	2329.79
595.75	2323.90
596.10	2320.26
596.45	2315.25
596.80	2310.48
597.15	2305.25
597.50	2299.16
597.85	2294.18
598.19	2288.94
598.54	2283.13
598.89	2277.92
599.24	2273.25
599.59	2266.87
599.94	2260.96
600.29	2255.00
600.64	2248.95
600.99	2242.14
601.34	2236.61
601.69	2229.65
602.04	2223.15
602.39	2216.33
602.74	2210.29
603.08	2204.79
603.43	2198.17
603.78	2191.31
604.13	2184.39
604.48	2177.00
604.83	2170.89
605.18	2164.55
605.53	2157.52
605.87	2150.30
606.22	2143.46
606.57	2135.51
606.92	2127.61
607.27	2120.67
607.62	2114.07
607.96	2107.01
608.31	2100.48
608.66	2092.75
609.01	2085.22
609.36	2078.07
609.70	2070.39
610.05	2062.55
610.40	2054.10
610.75	2045.73
611.10	2038.01
611.44	2029.10
611.79	2020.30
612.14	2010.18
612.49	1999.38
612.83	1990.03
613.18	1980.93
613.53	1971.58
613.88	1962.04
614.22	1953.39
614.57	1943.39
614.92	1932.69
615.27	1922.29
615.61	1912.23
615.96	1902.46
616.31	1892.71
616.65	1883.23
617.00	1873.47
617.35	1863.72
617.70	1853.95
618.04	1844.04
618.39	1833.79
618.74	1824.01
619.08	1814.50
619.43	1805.95
619.78	1797.87
620.12	1789.15
620.47	1779.43
620.82	1768.97
621.16	1759.01
621.51	1749.05
621.85	1739.14
622.20	1728.78
622.55	1718.31
622.89	1708.27
623.24	1698.46
623.59	1688.70
623.93	1678.46
624.28	1668.62
624.62	1658.49
624.97	1648.26
625.32	1638.34
625.66	1629.30
626.01	1620.50
626.35	1611.10
626.70	1600.90
627.04	1590.81
627.39	1580.70
627.73	1571.39
628.08	1562.49
628.43	1552.93
628.77	1543.72
629.12	1534.91
629.46	1527.12
629.81	1518.72
630.15	1509.19
630.50	1499.31
630.84	1488.78
631.19	1478.93
631.53	1469.62
631.88	1459.42
632.22	1449.26
632.57	1439.87
632.91	1429.71
633.26	1419.80
633.60	1410.13
633.95	1400.90
634.29	1391.35
634.64	1381.86
634.98	1371.90
635.32	1362.51
635.67	1353.99
636.01	1344.63
636.36	1334.75
636.70	1325.02
637.05	1315.61
637.39	1306.62
637.73	1298.00
638.08	1290.38
638.42	1282.15
638.77	1273.37
639.11	1265.07
639.45	1257.30
639.80	1248.74
640.14	1240.03
640.49	1231.16
640.83	1222.37
641.17	1214.10
641.52	1205.77
641.86	1197.27
642.20	1189.43
642.55	1180.77
642.89	1171.82
643.23	1163.06
643.58	1155.00
643.92	1145.94
644.26	1137.21
644.61	1128.78
644.95	1120.01
645.29	1110.76
645.64	1101.63
645.98	1093.07
646.32	1085.13
646.66	1076.52
647.01	1068.18
647.35	1060.15
647.69	1051.69
648.04	1043.18
648.38	1034.35
648.72	1025.64
649.06	1017.13
649.41	1008.77
649.75	1000.75
650.09	992.91
650.43	984.89
650.78	976.44
651.12	968.74
651.46	961.29
651.80	953.98
652.14	946.65
652.49	939.08
652.83	931.57
653.17	923.75
653.51	916.07
653.85	908.83
654.20	901.43
654.54	893.78
654.88	886.51
655.22	879.29
655.56	872.18
655.90	865.31
656.25	858.66
656.59	851.67
656.93	844.66
657.27	837.43
657.61	830.41
657.95	824.28
658.29	818.31
658.64	812.15
658.98	805.62
659.32	798.93
659.66	792.58
660.00	786.26
660.34	780.25
660.68	774.10
661.02	767.65
661.36	761.65
661.70	755.81
662.05	750.16
662.39	744.61
662.73	739.24
663.07	733.79
663.41	728.11
663.75	722.40
664.09	716.67
664.43	711.19
664.77	705.84
665.11	699.99
665.45	694.01
665.79	688.11
666.13	682.43
666.47	676.91
666.81	671.48
667.15	666.03
667.49	660.70
667.83	655.39
668.17	650.13
668.51	644.97
668.85	640.05
669.19	635.10
669.53	630.11
669.87	624.83
670.21	619.98
670.55	615.22
670.89	610.77
671.23	606.40
671.57	602.02
671.91	597.63
672.25	593.50
672.58	589.30
672.92	585.27
673.26	581.28
673.60	577.38
673.94	573.58
674.28	569.91
674.62	566.15
674.96	562.36
675.30	558.75
675.64	555.06
675.97	551.39
676.31	547.77
676.65	544.07
676.99	540.64
677.33	536.77
677.67	533.07
678.01	529.13
678.34	525.41
678.68	521.80
679.02	518.18
679.36	514.34
679.70	510.66
680.04	507.04
680.37	503.49
680.71	500.11
681.05	496.82
681.39	493.55
681.73	490.30
682.06	487.24
682.40	484.16
682.74	480.87
683.08	477.60
683.42	474.30
683.75	471.30
684.09	468.21
684.43	465.36
684.77	462.42
685.10	459.53
685.44	456.62
685.78	453.68
686.12	450.92
686.45	448.21
686.79	445.50
687.13	442.92
687.46	440.26
687.80	437.56
688.14	434.65
688.48	431.94
688.81	429.25
689.15	426.60
689.49	423.96
689.82	421.41
690.16	418.80
690.50	416.33
690.83	413.77
691.17	411.20
691.51	408.71
691.84	406.36
692.18	404.17
692.52	401.89
692.85	399.69
693.19	397.45
693.52	395.22
693.86	392.99
694.20	390.79
694.53	388.62
694.87	386.37
695.21	384.20
695.54	382.06
695.88	379.87
696.21	377.66
696.55	375.47
696.88	373.40
697.22	371.41
697.56	369.50
697.89	367.60
698.23	365.81
698.56	363.99
698.90	362.21
699.23	360.20
699.57	358.32
699.90	356.43
700.24	354.61
700.58	352.81
700.91	351.12
701.25	349.47
701.58	347.81
701.92	346.20
702.25	344.63
702.59	342.97
702.92	341.40
703.26	339.78
703.59	338.32
703.93	337.05
704.26	335.62
704.60	334.09
704.93	332.55
705.26	331.03
705.60	329.57
705.93	328.03
706.27	326.73
706.60	325.45
706.94	324.18
707.27	322.76
707.61	321.39
707.94	320.05
708.27	318.54
708.61	317.06
708.94	315.67
709.28	314.37
709.61	313.11
709.94	311.88
710.28	310.65
710.61	309.44
710.95	307.99
711.28	306.85
711.61	305.63
711.95	304.47
712.28	303.23
712.61	302.00
712.95	300.92
713.28	299.89
713.61	298.67
713.95	297.52
714.28	296.44
714.61	295.40
714.95	294.35
715.28	293.32
715.61	292.32
715.95	291.33
716.28	290.33
716.61	289.32
716.95	288.31
717.28	287.39
717.61	286.37
717.94	285.45
718.28	284.38
718.61	283.51
718.94	282.60
719.27	281.73
719.61	280.90
719.94	279.97
720.27	278.93
720.60	278.10
720.94	277.31
721.27	276.55
721.60	275.82
721.93	275.10
722.27	274.48
722.60	273.81
722.93	273.15
723.26	272.47
723.59	271.77
723.93	271.15
724.26	270.49
724.59	269.85
724.92	269.27
725.25	268.80
725.59	268.24
725.92	267.72
726.25	267.17
726.58	266.57
726.91	266.00
727.24	265.48
727.57	264.92
727.91	264.30
728.24	263.74
728.57	263.16
728.90	262.56
729.23	261.89
729.56	261.43
729.89	260.84
730.22	260.26
730.55	259.73
730.89	259.15
731.22	258.58
731.55	258.09
731.88	257.54
732.21	256.94
732.54	256.36
732.87	255.83
733.20	255.33
733.53	254.84
733.86	254.38
734.19	253.89
734.52	253.44
734.85	253.13
735.18	252.63
735.51	252.30
735.84	251.87
736.17	251.52
736.50	250.98
736.83	250.83
737.16	250.44
737.49	250.02
737.82	249.61
738.15	249.28
738.48	248.86
738.81	248.46
739.14	248.02
739.47	247.63
739.80	247.24
740.13	246.88
740.46	246.48
740.79	246.08
741.12	245.70
741.45	245.35
741.78	244.88
742.11	244.61
742.44	244.16
742.77	243.88
743.10	243.49
743.43	243.12
743.75	242.54
744.08	242.47
744.41	242.09
744.74	241.74
745.07	241.34
745.40	241.03
745.73	240.75
746.06	240.44
746.39	240.11
746.71	239.74
747.04	239.37
747.37	239.04
747.70	238.79
748.03	238.49
748.36	238.17
748.68	237.90
749.01	237.53
749.34	237.21
749.67	236.87
750.00	236.62
750.33	236.50
750.65	236.24
750.98	235.69
751.31	235.47
751.64	235.28
751.97	235.15
752.29	234.89
752.62	234.53
752.95	234.28
753.28	234.01
753.60	233.81
753.93	233.65
754.26	233.44
754.59	233.14
754.91	232.89
755.24	232.66
755.57	232.41
755.90	232.16
756.22	231.95
756.55	231.69
756.88	231.41
757.20	231.07
757.53	230.81
757.86	230.61
758.19	230.43
758.51	230.17
758.84	229.85
759.17	229.62
759.49	229.47
759.82	229.36
760.15	229.21
760.47	229.00
760.80	228.75
761.13	228.61
761.45	228.40
761.78	228.22
762.11	228.02
762.43	227.81
762.76	227.65
763.08	227.48
763.41	227.34
763.74	227.21
764.06	227.04
764.39	226.89
764.71	226.72
765.04	226.55
765.37	226.38
765.69	226.24
766.02	226.12
766.34	226.00
766.67	225.80
767.00	225.70
767.32	225.70
767.65	225.68
767.97	225.52
768.30	225.44
768.62	225.31
768.95	225.20
769.27	225.10
769.60	225.01
769.92	224.86
770.25	224.70
770.57	224.55
770.90	224.43
771.22	224.28
771.55	224.17
771.87	224.07
772.20	223.98
772.52	224.05
772.85	224.16
773.17	224.02
773.50	223.90
773.82	223.75
774.15	223.54
774.47	223.34
774.80	223.21
775.12	223.07
775.45	222.97
775.77	222.86
776.09	222.80
776.42	222.69
776.74	222.67
777.07	222.58
777.39	222.50
777.72	222.39
778.04	222.33
778.36	222.25
778.69	222.18
779.01	222.06
779.33	221.81
779.66	221.48
779.98	221.39
780.31	221.33
780.63	221.36
780.95	221.32
781.28	221.22
781.60	221.13
781.92	221.09
782.25	221.02
782.57	220.99
782.89	220.89
783.22	220.85
783.54	220.73
783.86	220.68
784.19	220.61
784.51	220.63
784.83	220.55
785.16	220.48
785.48	220.40
785.80	220.36
786.12	220.31
786.45	220.27
786.77	220.26
787.09	220.18
787.42	220.04
787.74	219.97
788.06	219.93
788.38	219.89
788.71	219.79
789.03	219.76
789.35	219.69
789.67	219.62
789.99	219.59
790.32	219.53
790.64	219.51
790.96	219.66
791.28	219.53
791.61	219.45
791.93	219.42
792.25	219.37
792.57	219.48
792.89	219.37
793.21	219.33
793.54	219.24
793.86	219.20
794.18	219.15
794.50	219.06
794.82	219.00
795.14	218.99
795.47	219.02
795.79	218.95
796.11	218.87
796.43	218.76
796.75	218.67
797.07	218.66
797.39	218.60
797.71	218.38
798.04	218.35
798.36	218.36
798.68	218.29
799.00	218.26
799.32	218.08
799.64	218.11
799.96	218.08
800.28	218.05
800.60	218.00
800.92	218.00
801.24	217.96
801.56	217.95
801.89	217.88
802.21	217.84
802.53	217.81
802.85	217.81
803.17	217.95
803.49	217.91
803.81	217.83
804.13	217.76
804.45	217.72
804.77	217.70
805.09	217.64
805.41	217.59
805.73	217.53
806.05	217.48
806.37	217.44
806.69	217.37
807.01	217.35
807.33	217.35
807.65	217.25
807.97	217.32
808.28	217.29
808.60	217.28
808.92	217.22
809.24	217.29
809.56	217.27
809.88	217.15
810.20	217.13
810.52	217.17
810.84	217.16
811.16	217.10
811.48	217.07
811.80	217.13
812.12	217.10
812.43	217.13
812.75	217.07
813.07	217.01
813.39	217.00
813.71	216.96
814.03	216.90
814.35	216.87
814.67	216.74
814.98	216.73
815.30	216.68
815.62	216.63
815.94	216.47
816.26	216.44
816.58	216.39
816.89	216.38
817.21	216.28
817.53	216.26
817.85	216.24
818.17	216.21
818.48	216.10
818.80	216.11
819.12	216.06
819.44	216.02
819.76	216.01
820.07	216.00
820.39	215.95
820.71	215.95
821.03	215.94
821.34	215.92
821.66	215.89
821.98	215.88
822.30	215.82
822.61	215.93
822.93	215.86
823.25	215.83
823.57	215.79
823.88	215.84
824.20	215.80
824.52	215.84
824.83	215.81
825.15	215.80
825.47	215.76
825.79	215.76
826.10	215.73
826.42	215.71
826.74	215.73
827.05	215.72
827.37	215.70
827.69	215.66
828.00	215.65
828.32	215.63
828.64	215.56
828.95	215.70
829.27	215.63
829.58	215.62
829.90	215.66
830.22	215.65
830.53	215.60
830.85	215.58
831.17	215.49
831.48	215.48
831.80	215.48
832.11	215.44
832.43	215.41
832.75	215.40
833.06	215.51
833.38	215.42
833.69	215.42
834.01	215.44
834.32	215.46
834.64	215.42
834.96	215.42
835.27	215.43
835.59	215.35
835.90	215.34
836.22	215.35
836.53	215.27
836.85	215.23
837.16	215.42
837.48	215.41
837.79	215.46
838.11	215.48
838.42	215.46
838.74	215.49
839.05	215.46
839.37	215.46
839.68	215.34
840.00	215.32
840.31	215.37
840.63	215.34
840.94	215.31
841.26	215.32
841.57	215.34
841.88	215.39
842.20	215.36
842.51	215.32
842.83	215.30
843.14	215.52
843.46	215.55
843.77	215.42
844.08	215.41
844.40	215.36
844.71	215.35
845.03	215.33
845.34	215.30
845.65	215.31
845.97	215.31
846.28	215.31
846.60	215.29
846.91	215.28
847.22	215.24
847.54	215.29
847.85	215.28
848.16	215.23
848.48	215.18
848.79	215.27
849.10	215.29
849.42	215.32
849.73	215.08
850.04	215.08
850.36	215.02
850.67	215.06
850.98	215.08
851.30	215.07
851.61	215.10
851.92	215.09
852.23	215.14
852.55	215.16
852.86	215.16
853.17	215.21
853.49	215.21
853.80	215.30
854.11	215.27
854.42	215.28
854.74	215.28
855.05	215.29
855.36	215.19
855.67	215.16
855.99	215.14
856.30	215.41
856.61	215.38
856.92	215.38
857.23	215.37
857.55	215.34
857.86	215.32
858.17	215.33
858.48	215.31
858.79	215.27
859.11	215.29
859.42	215.27
859.73	215.25
860.04	215.23
860.35	215.13
860.66	215.10
860.98	215.10
861.29	215.09
861.60	215.06
861.91	215.09
862.22	215.05
862.53	215.03
862.84	214.76
863.16	214.84
863.47	214.82
863.78	214.80
864.09	214.81
864.40	214.81
864.71	214.79
865.02	214.83
865.33	214.80
865.64	214.73
865.95	214.74
866.27	214.87
866.58	214.84
866.89	214.85
867.20	214.84
867.51	214.79
867.82	214.80
868.13	214.86
868.44	214.80
868.75	214.87
869.06	214.87
869.37	214.91
869.68	214.81
869.99	214.83
870.30	214.82
870.61	214.84
870.92	214.82
871.23	214.82
871.54	214.86
871.85	214.91
872.16	214.94
872.47	214.92
872.78	214.79
873.09	214.83
873.40	214.81
873.71	214.81
874.02	214.85
874.33	214.82
874.64	214.77
874.95	214.81
875.26	214.74
875.56	214.77
875.87	214.74
876.18	214.75
876.49	214.96
876.80	214.95
877.11	214.93
877.42	214.91
877.73	214.92
878.04	214.86
878.35	214.85
878.66	214.85
878.96	214.83
879.27	214.84
879.58	214.78
879.89	214.78
880.20	214.84
880.51	214.82
880.82	214.83
881.12	214.83
881.43	214.79
881.74	214.78
882.05	214.75
882.36	214.74
882.67	214.74
882.97	214.50
883.28	214.48
883.59	214.49
883.90	214.52
884.21	214.53
884.51	214.51
884.82	214.47
885.13	214.49
885.44	214.47
885.74	214.45
886.05	214.46
886.36	214.48
886.67	214.39
886.98	214.49
887.28	214.54
887.59	214.53
887.90	214.54
888.20	214.52
888.51	214.54
888.82	214.53
889.13	214.58
889.43	214.73
889.74	214.76
890.05	214.73
890.35	214.73
890.66	214.72
890.97	214.71
891.28	214.70
891.58	214.69
891.89	214.73
892.20	214.68
892.50	214.64
892.81	214.62
893.12	214.65
893.42	214.53
893.73	214.51
894.04	214.51
894.34	214.54
894.65	214.54
894.95	214.53
895.26	214.53
895.57	214.61
895.87	214.44
896.18	214.48
896.48	214.49
896.79	214.49
897.10	214.49
897.40	214.48
897.71	214.53
898.01	214.53
898.32	214.54
898.63	214.54
898.93	214.56
899.24	214.57
899.54	214.57
899.85	214.55
900.15	214.53
900.46	214.52
900.76	214.54
901.07	214.56
901.38	214.55
901.68	214.57
901.99	214.46
902.29	214.47
902.60	214.42
902.90	214.40
903.21	214.38
903.51	214.33
903.82	214.41
904.12	214.38
904.43	214.36
904.73	214.33
905.03	214.38
905.34	214.61
905.64	214.62
905.95	214.60
906.25	214.61
906.56	214.63
906.86	214.66
907.17	214.61
907.47	214.60
907.77	214.58
908.08	214.53
908.38	214.55
908.69	214.53
908.99	214.58
909.30	214.57
909.60	214.59
909.90	214.63
910.21	214.54
910.51	214.49
910.81	214.50
911.12	214.52
911.42	214.51
911.73	214.28
912.03	214.25
912.33	214.30
912.64	214.30
912.94	214.25
913.24	214.19
913.55	214.18
913.85	214.19
914.15	214.24
914.46	214.26
914.76	214.21
915.06	214.23
915.37	214.16
915.67	214.15
915.97	214.11
916.27	214.07
916.58	214.08
916.88	214.12
917.18	214.14
917.49	214.27
917.79	214.28
918.09	214.31
918.39	214.38
918.70	214.37
919.00	214.36
919.30	214.50
919.60	214.50
919.91	214.49
920.21	214.48
920.51	214.45
920.81	214.43
921.12	214.46
921.42	214.44
921.72	214.49
922.02	214.53
922.32	214.57
922.63	214.58
922.93	214.70
923.23	214.70
923.53	214.65
923.83	214.48
924.13	214.48
924.44	214.49
924.74	214.48
925.04	214.49
925.34	214.51
925.64	214.39
925.94	214.40
926.24	214.53
926.55	214.51
926.85	214.52
927.15	214.53
927.45	214.54
927.75	214.56
928.05	214.56
928.35	214.55
928.65	214.61
928.95	214.65
929.26	214.55
929.56	214.59
929.86	214.62
930.16	214.64
930.46	214.66
930.76	214.63
931.06	214.58
931.36	214.55
931.66	214.58
931.96	214.59
932.26	214.61
932.56	214.49
932.86	214.50
933.16	214.51
933.46	214.51
933.76	214.47
934.06	214.49
934.36	214.54
934.66	214.51
934.96	214.45
935.26	214.44
935.56	214.44
935.86	214.40
936.16	214.40
936.46	214.35
936.76	214.35
937.06	214.33
937.36	214.32
937.66	214.31
937.96	214.31
938.26	214.31
938.56	214.27
938.86	214.31
939.16	214.36
939.46	214.40
939.76	214.41
940.06	214.40
940.35	214.36
940.65	214.24
940.95	214.27
941.25	214.21
941.55	214.19
941.85	214.21
942.15	214.23
942.45	214.24
942.75	214.26
943.04	214.23
943.34	214.25
943.64	214.22
943.94	214.20
944.24	214.19
944.54	214.20
944.84	214.21
945.13	214.22
945.43	214.17
945.73	214.15
946.03	214.12
946.33	214.14
946.62	214.12
946.92	214.14
947.22	214.15
947.52	214.18
947.82	214.16
948.11	214.12
948.41	214.06
948.71	214.03
949.01	214.05
949.31	214.07
949.60	214.07
949.90	214.11
950.20	214.09
950.50	214.08
950.79	214.03
951.09	214.03
951.39	214.00
951.69	214.01
951.98	214.04
952.28	214.05
952.58	214.02
952.87	214.04
953.17	214.06
953.47	214.03
953.76	214.05
954.06	214.03
954.36	214.04
954.66	214.08
954.95	214.13
955.25	214.11
955.55	214.11
955.84	214.12
956.14	214.12
956.44	214.17
956.73	214.13
957.03	214.12
957.32	214.15
957.62	214.17
957.92	214.20
958.21	214.18
958.51	214.41
958.81	214.42
959.10	214.46
959.40	214.50
959.69	214.52
959.99	214.52
960.29	214.53
960.58	214.50
960.88	214.58
961.17	214.54
961.47	214.59
961.76	214.58
962.06	214.58
962.36	214.57
962.65	214.56
962.95	214.62
963.24	214.63
963.54	214.64
963.83	214.65
964.13	214.65
964.42	214.60
964.72	214.45
965.01	214.44
965.31	214.40
965.60	214.37
965.90	214.51
966.19	214.46
966.49	214.49
966.78	214.48
967.08	214.43
967.37	214.45
967.67	214.42
967.96	214.46
968.26	214.45
968.55	214.46
968.85	214.47
969.14	214.44
969.43	214.44
969.73	214.41
970.02	214.36
970.32	214.33
970.61	214.31
970.91	214.24
971.20	214.23
971.49	214.26
971.79	214.28
972.08	214.13
972.38	214.17
972.67	214.15
972.96	214.18
973.26	214.13
973.55	214.16
973.85	214.11
974.14	214.08
974.43	214.09
974.73	214.06
975.02	214.03
975.31	214.02
975.61	214.01
975.90	214.01
976.19	213.97
976.49	213.99
976.78	214.00
977.07	214.01
977.37	214.02
977.66	214.01
977.95	213.96
978.24	213.97
978.54	213.99
978.83	213.96
979.12	213.94
979.42	213.93
979.71	213.91
980.00	213.91
980.29	213.90
980.59	213.86
980.88	213.93
981.17	213.95
981.46	213.97
981.76	213.96
982.05	213.99
982.34	214.05
982.63	214.05
982.93	214.06
983.22	214.07
983.51	214.10
983.80	214.12
984.09	214.17
984.39	214.14
984.68	214.08
984.97	214.12
985.26	214.09
985.55	214.13
985.85	214.11
986.14	214.17
986.43	214.22
986.72	214.21
987.01	214.11
987.30	214.07
987.59	214.05
987.89	214.06
988.18	214.03
988.47	214.01
988.76	213.95
989.05	213.93
989.34	213.91
989.63	213.93
989.92	213.91
990.22	213.86
990.51	213.89
990.80	213.94
991.09	213.93
991.38	214.01
991.67	213.98
991.96	213.95
992.25	213.96
992.54	213.90
992.83	213.90
993.12	213.93
993.41	213.99
993.70	214.08
993.99	214.11
994.28	214.10
994.58	214.13
994.87	214.13
995.16	214.13
995.45	214.12
995.74	214.06
996.03	214.07
996.32	214.12
996.61	214.14
996.90	214.12
997.19	214.13
997.48	214.12
997.77	214.10
998.06	214.13
998.34	214.07
998.63	214.09
998.92	214.11
999.21	214.14
999.50	214.14
999.79	214.05
1000.08	214.07
1000.37	214.09
1000.66	214.05
1000.95	214.12
1001.24	214.17
1001.53	214.20
1001.82	214.22
1002.11	214.16
1002.40	214.16
1002.68	214.21
1002.97	214.36
1003.26	214.33
1003.55	214.30
1003.84	214.32
1004.13	214.38
1004.42	214.39
1004.71	214.40
1004.99	214.38
1005.28	214.41
1005.57	214.42
1005.86	214.42
1006.15	214.40
1006.44	214.38
1006.72	214.42
1007.01	214.38
1007.30	214.36
1007.59	214.32
1007.88	214.33
1008.17	214.35
1008.45	214.32
1008.74	214.23
1009.03	214.11
1009.32	214.09
1009.60	214.10
1009.89	214.09
1010.18	214.02
1010.47	214.00
1010.76	214.02
1011.04	214.03
1011.33	214.04
1011.62	214.07
1011.91	214.07
1012.19	214.08
1012.48	214.09
1012.77	214.08
1013.05	214.21
1013.34	214.22
1013.63	214.20
1013.92	214.23
1014.20	214.21
1014.49	214.22
1014.78	214.24
1015.06	214.21
1015.35	214.22
1015.64	214.23
1015.92	214.25
1016.21	214.26
1016.50	214.27
1016.78	214.27
1017.07	214.27
1017.36	214.25
1017.64	214.17
1017.93	214.18
1018.22	214.16
1018.50	214.14
1018.79	214.14
1019.08	213.97
1019.36	213.95
1019.65	213.91
1019.93	213.96
1020.22	213.99
1020.51	214.10
1020.79	214.08
1021.08	213.88
1021.36	213.74
1021.65	214.06
1021.94	212.98
1022.22	213.81
1022.51	213.05
1022.79	215.20
1023.08	214.20
1023.36	216.65
1023.65	213.51
>>>>>End Processed Spectral Data<<<<<
