SpectraSuite Data File
++++++++++++++++++++++++++++++++++++
Date: Tue Jan 29 16:18:32 EST 2013
User: group
Dark Spectrum Present: No
Reference Spectrum Present: No
Number of Sampled Component Spectra: 1
Spectrometers: USB2E7196
Integration Time (usec): 65000 (USB2E7196)
Spectra Averaged: 100 (USB2E7196)
Boxcar Smoothing: 10 (USB2E7196)
Correct for Electrical Dark: No (USB2E7196)
Strobe/Lamp Enabled: No (USB2E7196)
Correct for Detector Non-linearity: No (USB2E7196)
Correct for Stray Light: No (USB2E7196)
Number of Pixels in Processed Spectrum: 2048
>>>>>Begin Processed Spectral Data<<<<<
339.09	0.00
339.48	202.51
339.86	203.67
340.24	204.89
340.63	206.64
341.01	210.72
341.39	209.08
341.78	211.00
342.16	212.27
342.54	212.72
342.93	201.63
343.31	211.83
343.69	212.39
344.07	212.86
344.46	213.34
344.84	213.74
345.22	213.95
345.60	214.28
345.99	214.47
346.37	214.60
346.75	214.72
347.13	214.80
347.52	214.90
347.90	215.07
348.28	215.13
348.66	215.20
349.05	215.20
349.43	215.31
349.81	215.38
350.19	215.44
350.57	215.55
350.96	215.65
351.34	215.77
351.72	215.86
352.10	215.98
352.48	216.06
352.87	216.13
353.25	216.20
353.63	216.25
354.01	216.31
354.39	216.40
354.77	216.47
355.15	216.60
355.54	216.62
355.92	216.62
356.30	216.69
356.68	216.90
357.06	217.01
357.44	217.03
357.82	217.08
358.20	217.15
358.58	217.22
358.97	217.27
359.35	217.33
359.73	217.44
360.11	217.46
360.49	217.51
360.87	217.55
361.25	217.64
361.63	217.72
362.01	217.78
362.39	217.81
362.77	217.85
363.15	217.84
363.53	217.87
363.91	217.88
364.29	217.89
364.67	217.68
365.05	217.69
365.43	217.71
365.81	217.77
366.19	217.84
366.57	217.90
366.95	217.91
367.33	217.87
367.71	217.85
368.09	217.91
368.47	217.88
368.85	217.88
369.23	217.85
369.61	217.75
369.99	217.79
370.37	217.79
370.75	217.86
371.13	217.79
371.51	217.75
371.89	217.72
372.27	217.69
372.65	217.67
373.03	217.60
373.41	217.52
373.78	217.44
374.16	217.34
374.54	217.24
374.92	217.15
375.30	217.12
375.68	217.03
376.06	217.01
376.44	216.94
376.82	216.89
377.19	216.86
377.57	216.81
377.95	216.73
378.33	216.68
378.71	216.53
379.09	216.53
379.47	216.48
379.84	216.42
380.22	216.35
380.60	216.28
380.98	216.26
381.36	216.23
381.73	216.16
382.11	216.17
382.49	216.12
382.87	216.08
383.25	216.03
383.62	216.25
384.00	216.14
384.38	216.13
384.76	216.14
385.13	216.18
385.51	216.17
385.89	216.08
386.27	216.03
386.64	216.02
387.02	215.99
387.40	215.97
387.78	215.96
388.15	215.93
388.53	215.93
388.91	215.89
389.29	215.87
389.66	215.86
390.04	215.79
390.42	215.81
390.79	215.80
391.17	215.78
391.55	215.53
391.92	215.52
392.30	215.55
392.68	215.50
393.05	215.49
393.43	215.47
393.81	215.50
394.18	215.49
394.56	215.47
394.94	215.48
395.31	215.49
395.69	215.57
396.06	215.65
396.44	215.67
396.82	215.71
397.19	215.87
397.57	215.89
397.95	215.99
398.32	215.98
398.70	216.03
399.07	216.12
399.45	216.15
399.82	216.21
400.20	216.22
400.58	216.26
400.95	216.24
401.33	216.39
401.70	216.62
402.08	216.73
402.45	216.82
402.83	216.99
403.20	217.08
403.58	217.17
403.95	217.31
404.33	217.46
404.71	217.59
405.08	217.79
405.46	217.95
405.83	218.08
406.21	218.30
406.58	218.52
406.96	218.71
407.33	218.96
407.70	219.26
408.08	219.74
408.45	220.08
408.83	220.45
409.20	220.76
409.58	221.00
409.95	221.43
410.33	221.90
410.70	222.29
411.08	222.85
411.45	223.39
411.82	223.93
412.20	224.58
412.57	225.39
412.95	225.97
413.32	226.79
413.69	227.62
414.07	228.45
414.44	229.41
414.82	230.42
415.19	231.57
415.56	232.71
415.94	233.86
416.31	235.23
416.68	236.57
417.06	238.11
417.43	239.60
417.81	241.27
418.18	243.03
418.55	244.91
418.93	246.83
419.30	248.86
419.67	251.01
420.04	253.22
420.42	255.50
420.79	258.21
421.16	260.89
421.54	263.67
421.91	266.58
422.28	269.60
422.66	272.74
423.03	275.89
423.40	279.15
423.77	282.59
424.15	286.10
424.52	289.84
424.89	293.87
425.26	297.84
425.64	301.63
426.01	305.74
426.38	310.10
426.75	314.53
427.13	319.08
427.50	323.90
427.87	328.92
428.24	333.97
428.61	338.78
428.99	344.14
429.36	349.95
429.73	355.62
430.10	361.27
430.47	367.15
430.85	373.25
431.22	379.64
431.59	386.55
431.96	393.18
432.33	400.37
432.70	407.39
433.08	415.66
433.45	423.44
433.82	431.16
434.19	439.75
434.56	448.20
434.93	456.28
435.30	464.26
435.68	473.06
436.05	481.68
436.42	490.27
436.79	498.16
437.16	506.63
437.53	515.60
437.90	524.49
438.27	533.11
438.64	542.03
439.01	550.38
439.38	557.69
439.75	564.79
440.13	572.98
440.50	580.69
440.87	586.83
441.24	593.22
441.61	600.32
441.98	605.48
442.35	611.53
442.72	617.59
443.09	623.41
443.46	627.08
443.83	629.61
444.20	631.74
444.57	634.76
444.94	636.16
445.31	637.55
445.68	638.85
446.05	639.50
446.42	638.69
446.79	637.77
447.16	636.70
447.53	635.87
447.90	632.56
448.27	629.35
448.64	624.85
449.01	621.65
449.37	615.99
449.74	610.50
450.11	603.80
450.48	596.70
450.85	589.56
451.22	583.23
451.59	577.22
451.96	571.60
452.33	564.04
452.70	557.13
453.07	549.00
453.43	540.69
453.80	532.67
454.17	524.92
454.54	517.55
454.91	509.65
455.28	502.08
455.65	495.00
456.02	487.75
456.38	481.63
456.75	474.08
457.12	467.75
457.49	461.48
457.86	455.58
458.23	450.38
458.59	444.66
458.96	438.93
459.33	433.87
459.70	428.68
460.07	424.53
460.43	419.85
460.80	415.35
461.17	411.48
461.54	407.45
461.91	403.64
462.27	399.75
462.64	396.46
463.01	392.72
463.38	389.14
463.74	385.62
464.11	382.55
464.48	379.80
464.85	376.79
465.21	374.50
465.58	371.94
465.95	368.95
466.32	366.41
466.68	363.84
467.05	361.31
467.42	358.84
467.78	356.27
468.15	353.85
468.52	352.06
468.88	349.69
469.25	347.57
469.62	345.82
469.98	343.94
470.35	342.22
470.72	340.60
471.08	338.87
471.45	337.40
471.82	335.92
472.18	334.32
472.55	333.14
472.92	331.79
473.28	330.64
473.65	329.50
474.02	328.48
474.38	327.67
474.75	326.97
475.11	326.23
475.48	325.68
475.85	325.20
476.21	324.80
476.58	324.49
476.94	324.25
477.31	323.98
477.67	323.74
478.04	323.60
478.41	323.56
478.77	323.78
479.14	323.75
479.50	323.92
479.87	324.21
480.23	324.58
480.60	324.81
480.96	325.08
481.33	325.73
481.69	326.32
482.06	326.84
482.42	327.34
482.79	327.96
483.15	328.77
483.52	329.75
483.88	330.59
484.25	331.53
484.61	332.58
484.98	333.62
485.34	334.93
485.71	336.30
486.07	337.77
486.44	339.06
486.80	340.68
487.17	342.31
487.53	344.14
487.90	346.00
488.26	348.09
488.62	350.26
488.99	352.24
489.35	354.37
489.72	356.71
490.08	359.20
490.44	361.74
490.81	364.45
491.17	367.16
491.54	370.13
491.90	373.20
492.26	376.44
492.63	379.84
492.99	383.35
493.36	387.00
493.72	390.91
494.08	394.95
494.45	399.14
494.81	403.50
495.17	407.90
495.54	412.57
495.90	417.29
496.26	422.20
496.63	427.40
496.99	432.74
497.35	438.26
497.72	444.10
498.08	450.07
498.44	456.11
498.80	462.49
499.17	468.95
499.53	475.61
499.89	482.44
500.26	489.39
500.62	496.42
500.98	503.78
501.34	511.07
501.71	518.77
502.07	526.48
502.43	534.39
502.79	542.54
503.16	550.85
503.52	559.42
503.88	568.05
504.24	576.90
504.60	585.92
504.97	595.15
505.33	604.27
505.69	613.97
506.05	623.77
506.41	633.57
506.78	643.50
507.14	653.64
507.50	663.97
507.86	674.56
508.22	685.25
508.59	695.87
508.95	706.97
509.31	718.17
509.67	729.57
510.03	740.92
510.39	752.47
510.75	764.21
511.12	775.98
511.48	787.96
511.84	800.12
512.20	812.35
512.56	824.81
512.92	837.50
513.28	849.99
513.64	862.52
514.00	875.20
514.37	888.00
514.73	900.92
515.09	913.81
515.45	926.54
515.81	939.42
516.17	952.61
516.53	965.58
516.89	978.51
517.25	991.50
517.61	1004.89
517.97	1018.15
518.33	1031.05
518.69	1044.41
519.05	1057.93
519.41	1071.40
519.77	1085.04
520.13	1098.07
520.49	1111.05
520.85	1124.21
521.21	1137.34
521.57	1150.80
521.93	1163.67
522.29	1177.23
522.65	1190.55
523.01	1203.90
523.37	1216.87
523.73	1229.89
524.09	1242.80
524.45	1255.83
524.81	1269.08
525.17	1282.04
525.53	1294.92
525.89	1308.04
526.25	1320.90
526.61	1333.43
526.97	1346.17
527.33	1358.89
527.68	1372.09
528.04	1385.30
528.40	1398.08
528.76	1411.03
529.12	1423.52
529.48	1436.51
529.84	1448.43
530.20	1460.82
530.56	1473.12
530.91	1486.02
531.27	1498.49
531.63	1510.78
531.99	1523.27
532.35	1535.06
532.71	1547.13
533.07	1559.64
533.42	1571.47
533.78	1583.18
534.14	1594.99
534.50	1605.93
534.86	1617.13
535.21	1627.72
535.57	1638.84
535.93	1649.76
536.29	1660.55
536.65	1671.72
537.00	1682.42
537.36	1693.35
537.72	1704.00
538.08	1715.00
538.44	1725.58
538.79	1736.30
539.15	1746.98
539.51	1757.40
539.87	1768.42
540.22	1778.92
540.58	1789.47
540.94	1800.06
541.29	1810.08
541.65	1819.58
542.01	1829.85
542.37	1839.51
542.72	1849.41
543.08	1858.91
543.44	1869.01
543.79	1877.99
544.15	1887.07
544.51	1896.60
544.87	1906.24
545.22	1915.19
545.58	1923.72
545.94	1932.27
546.29	1940.45
546.65	1948.54
547.01	1956.40
547.36	1963.83
547.72	1971.25
548.07	1978.63
548.43	1985.95
548.79	1993.51
549.14	2001.24
549.50	2009.27
549.86	2016.93
550.21	2024.07
550.57	2031.48
550.92	2038.03
551.28	2045.17
551.64	2052.18
551.99	2059.47
552.35	2066.45
552.70	2073.06
553.06	2079.64
553.41	2085.83
553.77	2092.15
554.13	2098.38
554.48	2105.30
554.84	2112.29
555.19	2118.78
555.55	2124.94
555.90	2131.27
556.26	2137.92
556.61	2143.83
556.97	2148.58
557.32	2154.22
557.68	2160.53
558.03	2166.10
558.39	2171.47
558.74	2177.54
559.10	2183.15
559.45	2188.62
559.81	2194.22
560.16	2199.87
560.52	2205.53
560.87	2211.80
561.23	2217.62
561.58	2224.11
561.94	2229.28
562.29	2233.80
562.64	2239.75
563.00	2245.52
563.35	2251.01
563.71	2256.65
564.06	2262.39
564.42	2268.39
564.77	2273.34
565.12	2278.59
565.48	2283.70
565.83	2289.22
566.19	2294.67
566.54	2299.96
566.89	2304.59
567.25	2309.07
567.60	2314.69
567.96	2319.95
568.31	2324.41
568.66	2328.91
569.02	2332.92
569.37	2336.71
569.72	2341.29
570.08	2344.84
570.43	2347.88
570.78	2351.00
571.14	2353.64
571.49	2356.82
571.84	2360.48
572.20	2363.67
572.55	2366.75
572.90	2369.11
573.26	2371.97
573.61	2374.72
573.96	2376.97
574.31	2379.11
574.67	2381.03
575.02	2381.87
575.37	2383.53
575.72	2384.42
576.08	2385.83
576.43	2386.15
576.78	2386.76
577.13	2388.37
577.49	2389.79
577.84	2391.06
578.19	2392.57
578.54	2393.41
578.90	2394.32
579.25	2394.29
579.60	2394.43
579.95	2393.80
580.30	2394.16
580.66	2393.73
581.01	2392.05
581.36	2390.04
581.71	2388.87
582.06	2387.90
582.42	2387.29
582.77	2385.15
583.12	2383.74
583.47	2382.63
583.82	2382.20
584.17	2381.11
584.53	2379.28
584.88	2377.25
585.23	2375.61
585.58	2373.41
585.93	2371.57
586.28	2369.55
586.63	2367.21
586.98	2365.13
587.34	2363.38
587.69	2361.11
588.04	2359.15
588.39	2357.91
588.74	2355.54
589.09	2353.07
589.44	2350.17
589.79	2347.74
590.14	2345.92
590.49	2343.13
590.84	2339.43
591.19	2336.46
591.54	2333.50
591.89	2329.62
592.25	2326.54
592.60	2322.49
592.95	2318.73
593.30	2314.75
593.65	2310.53
594.00	2306.42
594.35	2303.53
594.70	2298.95
595.05	2294.50
595.40	2289.21
595.75	2283.51
596.10	2279.95
596.45	2275.24
596.80	2270.82
597.15	2265.77
597.50	2259.97
597.85	2255.32
598.19	2250.41
598.54	2244.71
598.89	2239.46
599.24	2234.99
599.59	2228.92
599.94	2223.21
600.29	2217.22
600.64	2211.28
600.99	2204.64
601.34	2199.09
601.69	2192.07
602.04	2185.86
602.39	2179.41
602.74	2173.37
603.08	2168.06
603.43	2161.68
603.78	2154.95
604.13	2147.89
604.48	2140.83
604.83	2134.80
605.18	2128.68
605.53	2121.78
605.87	2114.85
606.22	2108.22
606.57	2100.32
606.92	2092.50
607.27	2085.72
607.62	2079.23
607.96	2072.37
608.31	2065.98
608.66	2058.26
609.01	2050.86
609.36	2043.89
609.70	2036.26
610.05	2028.64
610.40	2020.29
610.75	2011.89
611.10	2004.08
611.44	1995.27
611.79	1986.68
612.14	1976.82
612.49	1966.23
612.83	1956.94
613.18	1947.66
613.53	1938.42
613.88	1928.94
614.22	1920.52
614.57	1910.71
614.92	1900.11
615.27	1889.94
615.61	1879.85
615.96	1870.43
616.31	1860.86
616.65	1851.46
617.00	1841.66
617.35	1832.07
617.70	1822.45
618.04	1812.62
618.39	1802.66
618.74	1793.10
619.08	1783.47
619.43	1774.85
619.78	1766.68
620.12	1758.18
620.47	1748.78
620.82	1738.50
621.16	1728.86
621.51	1718.94
621.85	1709.07
622.20	1698.79
622.55	1688.29
622.89	1678.53
623.24	1668.77
623.59	1658.96
623.93	1648.86
624.28	1639.17
624.62	1629.06
624.97	1618.81
625.32	1609.06
625.66	1600.10
626.01	1591.44
626.35	1582.07
626.70	1572.05
627.04	1561.99
627.39	1551.76
627.73	1542.48
628.08	1533.55
628.43	1523.96
628.77	1514.78
629.12	1505.92
629.46	1498.20
629.81	1489.89
630.15	1480.32
630.50	1470.72
630.84	1460.28
631.19	1450.46
631.53	1441.29
631.88	1431.18
632.22	1421.31
632.57	1411.95
632.91	1401.92
633.26	1391.99
633.60	1382.51
633.95	1373.28
634.29	1363.91
634.64	1354.69
634.98	1344.87
635.32	1335.76
635.67	1327.31
636.01	1318.13
636.36	1308.47
636.70	1298.90
637.05	1289.57
637.39	1280.76
637.73	1272.13
638.08	1264.75
638.42	1256.59
638.77	1247.75
639.11	1239.59
639.45	1231.80
639.80	1223.47
640.14	1214.85
640.49	1206.13
640.83	1197.37
641.17	1189.25
641.52	1181.11
641.86	1172.60
642.20	1164.65
642.55	1155.98
642.89	1147.14
643.23	1138.48
643.58	1130.44
643.92	1121.50
644.26	1112.84
644.61	1104.35
644.95	1095.66
645.29	1086.41
645.64	1077.34
645.98	1068.94
646.32	1061.10
646.66	1052.60
647.01	1044.17
647.35	1035.91
647.69	1027.56
648.04	1019.37
648.38	1010.59
648.72	1001.93
649.06	993.53
649.41	985.45
649.75	977.54
650.09	969.78
650.43	961.85
650.78	953.60
651.12	946.03
651.46	938.83
651.80	931.70
652.14	924.41
652.49	916.93
652.83	909.68
653.17	902.08
653.51	894.55
653.85	887.39
654.20	880.23
654.54	873.02
654.88	865.92
655.22	858.73
655.56	851.74
655.90	845.04
656.25	838.45
656.59	831.66
656.93	824.81
657.27	817.76
657.61	810.87
657.95	804.87
658.29	799.02
658.64	792.87
658.98	786.45
659.32	779.92
659.66	773.78
660.00	767.51
660.34	761.53
660.68	755.52
661.02	749.33
661.36	743.42
661.70	737.76
662.05	732.18
662.39	726.75
662.73	721.47
663.07	716.10
663.41	710.62
663.75	704.98
664.09	699.30
664.43	694.00
664.77	688.77
665.11	683.03
665.45	677.17
665.79	671.44
666.13	665.90
666.47	660.51
666.81	655.21
667.15	649.88
667.49	644.76
667.83	639.55
668.17	634.36
668.51	629.30
668.85	624.35
669.19	619.51
669.53	614.60
669.87	609.59
670.21	604.91
670.55	600.26
670.89	595.89
671.23	591.70
671.57	587.36
671.91	583.10
672.25	578.99
672.58	574.97
672.92	570.99
673.26	567.07
673.60	563.31
673.94	559.55
674.28	555.99
674.62	552.31
674.96	548.60
675.30	545.14
675.64	541.60
675.97	538.08
676.31	534.62
676.65	531.07
676.99	527.74
677.33	523.98
677.67	520.43
678.01	516.67
678.34	513.06
678.68	509.59
679.02	506.07
679.36	502.45
679.70	498.77
680.04	495.25
680.37	491.89
680.71	488.59
681.05	485.44
681.39	482.21
681.73	479.08
682.06	476.14
682.40	473.14
682.74	470.04
683.08	466.92
683.42	463.74
683.75	460.80
684.09	457.81
684.43	455.09
684.77	452.21
685.10	449.42
685.44	446.58
685.78	443.75
686.12	441.04
686.45	438.36
686.79	435.86
687.13	433.46
687.46	430.91
687.80	428.32
688.14	425.58
688.48	423.02
688.81	420.40
689.15	417.90
689.49	415.35
689.82	412.83
690.16	410.28
690.50	407.89
690.83	405.44
691.17	402.97
691.51	400.51
691.84	398.28
692.18	396.15
692.52	393.98
692.85	391.88
693.19	389.76
693.52	387.70
693.86	385.52
694.20	383.35
694.53	381.27
694.87	379.10
695.21	377.06
695.54	375.00
695.88	372.91
696.21	370.74
696.55	368.66
696.88	366.67
697.22	364.82
697.56	362.94
697.89	361.15
698.23	359.38
698.56	357.67
698.90	355.93
699.23	354.06
699.57	352.25
699.90	350.46
700.24	348.68
700.58	346.93
700.91	345.33
701.25	343.77
701.58	342.19
701.92	340.65
702.25	339.07
702.59	337.51
702.92	336.00
703.26	334.51
703.59	333.09
703.93	331.91
704.26	330.44
704.60	329.05
704.93	327.64
705.26	326.22
705.60	324.77
705.93	323.31
706.27	322.03
706.60	320.79
706.94	319.59
707.27	318.28
707.61	316.99
707.94	315.67
708.27	314.19
708.61	312.79
708.94	311.46
709.28	310.18
709.61	308.89
709.94	307.72
710.28	306.53
710.61	305.32
710.95	303.85
711.28	302.82
711.61	301.70
711.95	300.55
712.28	299.40
712.61	298.26
712.95	297.26
713.28	296.23
713.61	295.15
713.95	294.06
714.28	293.04
714.61	292.05
714.95	291.03
715.28	290.04
715.61	289.08
715.95	288.13
716.28	287.18
716.61	286.28
716.95	285.31
717.28	284.44
717.61	283.57
717.94	282.74
718.28	281.75
718.61	280.85
718.94	280.02
719.27	279.18
719.61	278.42
719.94	277.55
720.27	276.61
720.60	275.76
720.94	274.98
721.27	274.25
721.60	273.56
721.93	272.88
722.27	272.29
722.60	271.64
722.93	270.96
723.26	270.37
723.59	269.74
723.93	269.11
724.26	268.43
724.59	267.79
724.92	267.21
725.25	266.68
725.59	266.11
725.92	265.58
726.25	265.03
726.58	264.43
726.91	263.86
727.24	263.34
727.57	262.75
727.91	262.14
728.24	261.57
728.57	261.02
728.90	260.48
729.23	259.86
729.56	259.39
729.89	258.87
730.22	258.26
730.55	257.71
730.89	257.19
731.22	256.68
731.55	256.18
731.88	255.66
732.21	255.12
732.54	254.62
732.87	254.09
733.20	253.63
733.53	253.20
733.86	252.80
734.19	252.34
734.52	251.95
734.85	251.66
735.18	251.23
735.51	250.87
735.84	250.45
736.17	250.13
736.50	249.63
736.83	249.49
737.16	249.17
737.49	248.81
737.82	248.42
738.15	248.08
738.48	247.70
738.81	247.32
739.14	246.91
739.47	246.56
739.80	246.22
740.13	245.91
740.46	245.50
740.79	245.08
741.12	244.73
741.45	244.40
741.78	243.95
742.11	243.66
742.44	243.28
742.77	243.01
743.10	242.64
743.43	242.35
743.75	241.77
744.08	241.68
744.41	241.33
744.74	240.99
745.07	240.62
745.40	240.32
745.73	240.11
746.06	239.81
746.39	239.51
746.71	239.15
747.04	238.81
747.37	238.48
747.70	238.24
748.03	237.95
748.36	237.66
748.68	237.39
749.01	237.06
749.34	236.77
749.67	236.45
750.00	236.23
750.33	236.09
750.65	235.90
750.98	235.38
751.31	235.17
751.64	234.97
751.97	234.86
752.29	234.62
752.62	234.25
752.95	234.03
753.28	233.77
753.60	233.57
753.93	233.39
754.26	233.22
754.59	232.95
754.91	232.71
755.24	232.45
755.57	232.25
755.90	232.02
756.22	231.78
756.55	231.57
756.88	231.30
757.20	230.98
757.53	230.71
757.86	230.53
758.19	230.34
758.51	230.10
758.84	229.78
759.17	229.62
759.49	229.48
759.82	229.42
760.15	229.26
760.47	229.04
760.80	228.78
761.13	228.62
761.45	228.45
761.78	228.29
762.11	228.14
762.43	227.93
762.76	227.79
763.08	227.68
763.41	227.53
763.74	227.40
764.06	227.25
764.39	227.09
764.71	226.94
765.04	226.80
765.37	226.69
765.69	226.60
766.02	226.44
766.34	226.27
766.67	226.02
767.00	225.92
767.32	225.91
767.65	225.91
767.97	225.74
768.30	225.63
768.62	225.50
768.95	225.39
769.27	225.31
769.60	225.21
769.92	225.03
770.25	224.87
770.57	224.71
770.90	224.55
771.22	224.41
771.55	224.27
771.87	224.14
772.20	224.00
772.52	224.04
772.85	224.18
773.17	224.09
773.50	223.99
773.82	223.90
774.15	223.71
774.47	223.50
774.80	223.41
775.12	223.31
775.45	223.24
775.77	223.14
776.09	223.03
776.42	222.93
776.74	222.93
777.07	222.82
777.39	222.74
777.72	222.68
778.04	222.65
778.36	222.56
778.69	222.50
779.01	222.43
779.33	222.14
779.66	221.82
779.98	221.71
780.31	221.63
780.63	221.62
780.95	221.58
781.28	221.53
781.60	221.46
781.92	221.39
782.25	221.33
782.57	221.26
782.89	221.20
783.22	221.09
783.54	221.00
783.86	220.96
784.19	220.87
784.51	220.87
784.83	220.76
785.16	220.73
785.48	220.67
785.80	220.60
786.12	220.58
786.45	220.53
786.77	220.51
787.09	220.44
787.42	220.31
787.74	220.26
788.06	220.17
788.38	220.08
788.71	219.99
789.03	219.90
789.35	219.85
789.67	219.76
789.99	219.72
790.32	219.65
790.64	219.63
790.96	219.75
791.28	219.64
791.61	219.57
791.93	219.50
792.25	219.45
792.57	219.56
792.89	219.49
793.21	219.45
793.54	219.37
793.86	219.31
794.18	219.23
794.50	219.12
794.82	219.08
795.14	219.08
795.47	219.06
795.79	219.03
796.11	218.96
796.43	218.93
796.75	218.91
797.07	218.87
797.39	218.81
797.71	218.62
798.04	218.60
798.36	218.61
798.68	218.57
799.00	218.52
799.32	218.37
799.64	218.34
799.96	218.31
800.28	218.33
800.60	218.27
800.92	218.26
801.24	218.22
801.56	218.18
801.89	218.13
802.21	218.10
802.53	218.04
802.85	218.06
803.17	218.14
803.49	218.05
803.81	217.99
804.13	217.95
804.45	217.88
804.77	217.86
805.09	217.84
805.41	217.79
805.73	217.73
806.05	217.66
806.37	217.61
806.69	217.54
807.01	217.46
807.33	217.48
807.65	217.41
807.97	217.41
808.28	217.39
808.60	217.35
808.92	217.30
809.24	217.37
809.56	217.29
809.88	217.21
810.20	217.17
810.52	217.18
810.84	217.11
811.16	217.09
811.48	217.03
811.80	217.05
812.12	217.03
812.43	217.05
812.75	217.05
813.07	217.04
813.39	217.05
813.71	217.01
814.03	216.99
814.35	216.96
814.67	216.92
814.98	216.91
815.30	216.90
815.62	216.87
815.94	216.76
816.26	216.74
816.58	216.66
816.89	216.72
817.21	216.68
817.53	216.70
817.85	216.69
818.17	216.71
818.48	216.65
818.80	216.67
819.12	216.62
819.44	216.58
819.76	216.53
820.07	216.52
820.39	216.50
820.71	216.52
821.03	216.51
821.34	216.48
821.66	216.50
821.98	216.48
822.30	216.45
822.61	216.58
822.93	216.56
823.25	216.57
823.57	216.50
823.88	216.51
824.20	216.49
824.52	216.50
824.83	216.44
825.15	216.36
825.47	216.35
825.79	216.37
826.10	216.32
826.42	216.31
826.74	216.34
827.05	216.31
827.37	216.27
827.69	216.25
828.00	216.25
828.32	216.21
828.64	216.21
828.95	216.31
829.27	216.18
829.58	216.17
829.90	216.15
830.22	216.17
830.53	216.11
830.85	216.10
831.17	216.06
831.48	216.06
831.80	216.10
832.11	216.10
832.43	216.05
832.75	216.05
833.06	216.18
833.38	216.09
833.69	216.12
834.01	216.10
834.32	216.10
834.64	216.06
834.96	216.02
835.27	215.97
835.59	215.91
835.90	215.89
836.22	215.88
836.53	215.86
836.85	215.82
837.16	216.04
837.48	216.01
837.79	216.06
838.11	216.07
838.42	216.06
838.74	216.05
839.05	216.01
839.37	216.01
839.68	215.87
840.00	215.87
840.31	215.86
840.63	215.86
840.94	215.82
841.26	215.78
841.57	215.81
841.88	215.84
842.20	215.81
842.51	215.78
842.83	215.77
843.14	215.93
843.46	215.96
843.77	215.82
844.08	215.81
844.40	215.72
844.71	215.70
845.03	215.68
845.34	215.62
845.65	215.62
845.97	215.63
846.28	215.62
846.60	215.60
846.91	215.56
847.22	215.55
847.54	215.61
847.85	215.65
848.16	215.60
848.48	215.59
848.79	215.67
849.10	215.68
849.42	215.72
849.73	215.53
850.04	215.50
850.36	215.42
850.67	215.48
850.98	215.47
851.30	215.48
851.61	215.45
851.92	215.47
852.23	215.53
852.55	215.52
852.86	215.51
853.17	215.55
853.49	215.59
853.80	215.62
854.11	215.62
854.42	215.67
854.74	215.68
855.05	215.67
855.36	215.55
855.67	215.58
855.99	215.56
856.30	215.81
856.61	215.77
856.92	215.78
857.23	215.78
857.55	215.79
857.86	215.77
858.17	215.79
858.48	215.75
858.79	215.70
859.11	215.74
859.42	215.74
859.73	215.70
860.04	215.71
860.35	215.64
860.66	215.56
860.98	215.55
861.29	215.55
861.60	215.51
861.91	215.56
862.22	215.52
862.53	215.48
862.84	215.23
863.16	215.31
863.47	215.29
863.78	215.25
864.09	215.27
864.40	215.26
864.71	215.27
865.02	215.27
865.33	215.24
865.64	215.18
865.95	215.18
866.27	215.33
866.58	215.28
866.89	215.33
867.20	215.34
867.51	215.28
867.82	215.26
868.13	215.33
868.44	215.25
868.75	215.27
869.06	215.28
869.37	215.33
869.68	215.25
869.99	215.27
870.30	215.28
870.61	215.30
870.92	215.25
871.23	215.21
871.54	215.25
871.85	215.30
872.16	215.33
872.47	215.30
872.78	215.16
873.09	215.15
873.40	215.09
873.71	215.12
874.02	215.17
874.33	215.14
874.64	215.09
874.95	215.12
875.26	215.08
875.56	215.05
875.87	215.04
876.18	215.03
876.49	215.22
876.80	215.19
877.11	215.15
877.42	215.18
877.73	215.18
878.04	215.18
878.35	215.21
878.66	215.20
878.96	215.20
879.27	215.20
879.58	215.20
879.89	215.21
880.20	215.25
880.51	215.20
880.82	215.21
881.12	215.22
881.43	215.24
881.74	215.21
882.05	215.23
882.36	215.18
882.67	215.20
882.97	214.95
883.28	214.96
883.59	214.92
883.90	214.97
884.21	214.99
884.51	214.96
884.82	214.90
885.13	214.88
885.44	214.89
885.74	214.89
886.05	214.90
886.36	214.89
886.67	214.81
886.98	214.95
887.28	214.97
887.59	214.95
887.90	214.94
888.20	214.92
888.51	214.96
888.82	214.95
889.13	214.99
889.43	215.18
889.74	215.17
890.05	215.20
890.35	215.14
890.66	215.11
890.97	215.11
891.28	215.10
891.58	215.14
891.89	215.13
892.20	215.09
892.50	215.06
892.81	215.03
893.12	215.03
893.42	214.92
893.73	214.91
894.04	214.92
894.34	214.89
894.65	214.89
894.95	214.88
895.26	214.90
895.57	214.96
895.87	214.76
896.18	214.80
896.48	214.80
896.79	214.80
897.10	214.83
897.40	214.84
897.71	214.86
898.01	214.83
898.32	214.86
898.63	214.90
898.93	214.92
899.24	214.96
899.54	214.96
899.85	214.92
900.15	214.97
900.46	214.93
900.76	214.97
901.07	214.97
901.38	214.94
901.68	214.98
901.99	214.89
902.29	214.91
902.60	214.89
902.90	214.88
903.21	214.91
903.51	214.91
903.82	214.95
904.12	214.99
904.43	214.98
904.73	214.97
905.03	214.94
905.34	215.12
905.64	215.08
905.95	215.11
906.25	215.11
906.56	215.08
906.86	215.12
907.17	215.11
907.47	215.13
907.77	215.14
908.08	215.11
908.38	215.11
908.69	215.12
908.99	215.17
909.30	215.17
909.60	215.15
909.90	215.15
910.21	215.09
910.51	215.02
910.81	215.02
911.12	215.01
911.42	215.03
911.73	214.83
912.03	214.86
912.33	214.87
912.64	214.88
912.94	214.84
913.24	214.83
913.55	214.83
913.85	214.80
914.15	214.83
914.46	214.82
914.76	214.78
915.06	214.78
915.37	214.73
915.67	214.70
915.97	214.68
916.27	214.62
916.58	214.63
916.88	214.59
917.18	214.59
917.49	214.74
917.79	214.71
918.09	214.76
918.39	214.80
918.70	214.80
919.00	214.78
919.30	214.88
919.60	214.85
919.91	214.81
920.21	214.82
920.51	214.76
920.81	214.76
921.12	214.80
921.42	214.79
921.72	214.79
922.02	214.81
922.32	214.88
922.63	214.93
922.93	215.03
923.23	215.06
923.53	215.03
923.83	214.86
924.13	214.92
924.44	214.89
924.74	214.94
925.04	214.99
925.34	215.04
925.64	214.92
925.94	214.93
926.24	215.06
926.55	215.06
926.85	215.08
927.15	215.11
927.45	215.13
927.75	215.11
928.05	215.11
928.35	215.09
928.65	215.13
928.95	215.14
929.26	215.07
929.56	215.08
929.86	215.13
930.16	215.12
930.46	215.07
930.76	215.11
931.06	215.01
931.36	214.95
931.66	214.93
931.96	214.97
932.26	214.96
932.56	214.83
932.86	214.86
933.16	214.88
933.46	214.86
933.76	214.80
934.06	214.84
934.36	214.91
934.66	214.95
934.96	214.91
935.26	214.90
935.56	214.92
935.86	214.91
936.16	214.89
936.46	214.89
936.76	214.90
937.06	214.85
937.36	214.85
937.66	214.86
937.96	214.87
938.26	214.83
938.56	214.81
938.86	214.84
939.16	214.85
939.46	214.88
939.76	214.87
940.06	214.89
940.35	214.86
940.65	214.79
940.95	214.76
941.25	214.71
941.55	214.72
941.85	214.71
942.15	214.74
942.45	214.81
942.75	214.79
943.04	214.77
943.34	214.81
943.64	214.77
943.94	214.73
944.24	214.74
944.54	214.79
944.84	214.83
945.13	214.80
945.43	214.78
945.73	214.74
946.03	214.73
946.33	214.70
946.62	214.67
946.92	214.62
947.22	214.60
947.52	214.63
947.82	214.62
948.11	214.57
948.41	214.54
948.71	214.47
949.01	214.51
949.31	214.48
949.60	214.48
949.90	214.55
950.20	214.53
950.50	214.52
950.79	214.49
951.09	214.48
951.39	214.48
951.69	214.48
951.98	214.52
952.28	214.54
952.58	214.54
952.87	214.57
953.17	214.65
953.47	214.64
953.76	214.65
954.06	214.62
954.36	214.60
954.66	214.60
954.95	214.64
955.25	214.64
955.55	214.69
955.84	214.64
956.14	214.62
956.44	214.64
956.73	214.63
957.03	214.61
957.32	214.64
957.62	214.66
957.92	214.67
958.21	214.62
958.51	214.84
958.81	214.86
959.10	214.86
959.40	214.87
959.69	214.91
959.99	214.90
960.29	214.90
960.58	214.90
960.88	214.99
961.17	214.97
961.47	214.96
961.76	214.91
962.06	214.94
962.36	214.95
962.65	214.94
962.95	214.96
963.24	214.93
963.54	214.90
963.83	214.89
964.13	214.88
964.42	214.86
964.72	214.70
965.01	214.73
965.31	214.73
965.60	214.69
965.90	214.83
966.19	214.80
966.49	214.84
966.78	214.84
967.08	214.80
967.37	214.82
967.67	214.80
967.96	214.83
968.26	214.84
968.55	214.86
968.85	214.85
969.14	214.79
969.43	214.82
969.73	214.80
970.02	214.79
970.32	214.76
970.61	214.73
970.91	214.65
971.20	214.60
971.49	214.58
971.79	214.59
972.08	214.41
972.38	214.43
972.67	214.39
972.96	214.44
973.26	214.41
973.55	214.44
973.85	214.44
974.14	214.43
974.43	214.45
974.73	214.41
975.02	214.40
975.31	214.41
975.61	214.41
975.90	214.38
976.19	214.38
976.49	214.44
976.78	214.50
977.07	214.52
977.37	214.54
977.66	214.56
977.95	214.54
978.24	214.57
978.54	214.58
978.83	214.57
979.12	214.55
979.42	214.57
979.71	214.53
980.00	214.54
980.29	214.56
980.59	214.49
980.88	214.55
981.17	214.56
981.46	214.57
981.76	214.60
982.05	214.65
982.34	214.65
982.63	214.64
982.93	214.59
983.22	214.62
983.51	214.67
983.80	214.70
984.09	214.73
984.39	214.72
984.68	214.69
984.97	214.72
985.26	214.72
985.55	214.70
985.85	214.68
986.14	214.72
986.43	214.74
986.72	214.72
987.01	214.67
987.30	214.67
987.59	214.64
987.89	214.63
988.18	214.60
988.47	214.61
988.76	214.58
989.05	214.58
989.34	214.57
989.63	214.62
989.92	214.56
990.22	214.51
990.51	214.47
990.80	214.49
991.09	214.49
991.38	214.51
991.67	214.48
991.96	214.46
992.25	214.46
992.54	214.44
992.83	214.43
993.12	214.39
993.41	214.43
993.70	214.53
993.99	214.53
994.28	214.56
994.58	214.60
994.87	214.55
995.16	214.54
995.45	214.52
995.74	214.39
996.03	214.46
996.32	214.50
996.61	214.56
996.90	214.53
997.19	214.51
997.48	214.53
997.77	214.51
998.06	214.50
998.34	214.46
998.63	214.42
998.92	214.49
999.21	214.55
999.50	214.56
999.79	214.49
1000.08	214.50
1000.37	214.50
1000.66	214.44
1000.95	214.50
1001.24	214.53
1001.53	214.57
1001.82	214.57
1002.11	214.53
1002.40	214.55
1002.68	214.60
1002.97	214.75
1003.26	214.73
1003.55	214.65
1003.84	214.70
1004.13	214.80
1004.42	214.81
1004.71	214.82
1004.99	214.77
1005.28	214.83
1005.57	214.80
1005.86	214.80
1006.15	214.79
1006.44	214.77
1006.72	214.82
1007.01	214.75
1007.30	214.78
1007.59	214.75
1007.88	214.76
1008.17	214.75
1008.45	214.70
1008.74	214.65
1009.03	214.55
1009.32	214.55
1009.60	214.58
1009.89	214.52
1010.18	214.42
1010.47	214.40
1010.76	214.39
1011.04	214.39
1011.33	214.39
1011.62	214.43
1011.91	214.41
1012.19	214.42
1012.48	214.42
1012.77	214.43
1013.05	214.57
1013.34	214.55
1013.63	214.54
1013.92	214.55
1014.20	214.54
1014.49	214.54
1014.78	214.55
1015.06	214.48
1015.35	214.49
1015.64	214.53
1015.92	214.60
1016.21	214.64
1016.50	214.64
1016.78	214.69
1017.07	214.70
1017.36	214.65
1017.64	214.61
1017.93	214.64
1018.22	214.61
1018.50	214.62
1018.79	214.57
1019.08	214.47
1019.36	214.47
1019.65	214.46
1019.93	214.49
1020.22	214.53
1020.51	214.63
1020.79	214.60
1021.08	213.87
1021.36	214.31
1021.65	214.30
1021.94	214.39
1022.22	214.49
1022.51	214.20
1022.79	214.86
1023.08	214.89
1023.36	216.46
1023.65	214.32
>>>>>End Processed Spectral Data<<<<<
