SpectraSuite Data File
++++++++++++++++++++++++++++++++++++
Date: Tue Jan 29 16:50:26 EST 2013
User: group
Dark Spectrum Present: No
Reference Spectrum Present: No
Number of Sampled Component Spectra: 1
Spectrometers: USB2E7196
Integration Time (usec): 65000 (USB2E7196)
Spectra Averaged: 100 (USB2E7196)
Boxcar Smoothing: 10 (USB2E7196)
Correct for Electrical Dark: No (USB2E7196)
Strobe/Lamp Enabled: No (USB2E7196)
Correct for Detector Non-linearity: No (USB2E7196)
Correct for Stray Light: No (USB2E7196)
Number of Pixels in Processed Spectrum: 2048
>>>>>Begin Processed Spectral Data<<<<<
339.09	0.00
339.48	201.54
339.86	203.26
340.24	204.74
340.63	206.10
341.01	210.29
341.39	208.58
341.78	209.94
342.16	211.32
342.54	211.95
342.93	200.97
343.31	211.14
343.69	211.72
344.07	212.18
344.46	212.64
344.84	213.04
345.22	213.22
345.60	213.53
345.99	213.75
346.37	213.90
346.75	214.01
347.13	214.04
347.52	214.10
347.90	214.25
348.28	214.30
348.66	214.37
349.05	214.35
349.43	214.40
349.81	214.45
350.19	214.49
350.57	214.53
350.96	214.63
351.34	214.72
351.72	214.79
352.10	214.91
352.48	214.95
352.87	215.01
353.25	215.09
353.63	215.09
354.01	215.11
354.39	215.19
354.77	215.24
355.15	215.39
355.54	215.42
355.92	215.39
356.30	215.46
356.68	215.65
357.06	215.70
357.44	215.75
357.82	215.81
358.20	215.91
358.58	215.96
358.97	216.00
359.35	216.09
359.73	216.15
360.11	216.17
360.49	216.18
360.87	216.21
361.25	216.25
361.63	216.36
362.01	216.41
362.39	216.43
362.77	216.47
363.15	216.47
363.53	216.46
363.91	216.51
364.29	216.54
364.67	216.35
365.05	216.34
365.43	216.39
365.81	216.42
366.19	216.46
366.57	216.55
366.95	216.52
367.33	216.44
367.71	216.44
368.09	216.46
368.47	216.42
368.85	216.42
369.23	216.45
369.61	216.38
369.99	216.45
370.37	216.46
370.75	216.51
371.13	216.45
371.51	216.43
371.89	216.38
372.27	216.35
372.65	216.34
373.03	216.33
373.41	216.26
373.78	216.19
374.16	216.08
374.54	215.99
374.92	215.94
375.30	215.92
375.68	215.84
376.06	215.82
376.44	215.80
376.82	215.76
377.19	215.72
377.57	215.68
377.95	215.55
378.33	215.48
378.71	215.35
379.09	215.35
379.47	215.36
379.84	215.30
380.22	215.25
380.60	215.17
380.98	215.12
381.36	215.11
381.73	215.07
382.11	215.08
382.49	215.02
382.87	214.97
383.25	214.91
383.62	215.12
384.00	215.06
384.38	215.06
384.76	215.08
385.13	215.10
385.51	215.08
385.89	215.02
386.27	214.98
386.64	214.97
387.02	214.92
387.40	214.89
387.78	214.89
388.15	214.87
388.53	214.83
388.91	214.83
389.29	214.77
389.66	214.74
390.04	214.71
390.42	214.74
390.79	214.75
391.17	214.75
391.55	214.55
391.92	214.54
392.30	214.54
392.68	214.50
393.05	214.48
393.43	214.46
393.81	214.49
394.18	214.47
394.56	214.52
394.94	214.58
395.31	214.56
395.69	214.64
396.06	214.64
396.44	214.72
396.82	214.72
397.19	214.89
397.57	214.92
397.95	214.98
398.32	214.95
398.70	215.04
399.07	215.12
399.45	215.13
399.82	215.19
400.20	215.20
400.58	215.25
400.95	215.26
401.33	215.38
401.70	215.58
402.08	215.69
402.45	215.74
402.83	215.89
403.20	216.02
403.58	216.12
403.95	216.29
404.33	216.46
404.71	216.64
405.08	216.88
405.46	217.04
405.83	217.24
406.21	217.48
406.58	217.71
406.96	217.94
407.33	218.21
407.70	218.50
408.08	218.98
408.45	219.35
408.83	219.74
409.20	220.08
409.58	220.37
409.95	220.81
410.33	221.30
410.70	221.69
411.08	222.23
411.45	222.80
411.82	223.40
412.20	224.09
412.57	224.93
412.95	225.48
413.32	226.34
413.69	227.15
414.07	228.03
414.44	229.00
414.82	230.07
415.19	231.28
415.56	232.53
415.94	233.75
416.31	235.16
416.68	236.56
417.06	238.19
417.43	239.76
417.81	241.55
418.18	243.34
418.55	245.32
418.93	247.37
419.30	249.50
419.67	251.74
420.04	254.02
420.42	256.38
420.79	259.27
421.16	262.09
421.54	265.03
421.91	268.05
422.28	271.18
422.66	274.48
423.03	277.75
423.40	281.08
423.77	284.70
424.15	288.36
424.52	292.24
424.89	296.42
425.26	300.53
425.64	304.40
426.01	308.73
426.38	313.24
426.75	317.78
427.13	322.53
427.50	327.55
427.87	332.77
428.24	337.99
428.61	342.98
428.99	348.51
429.36	354.57
429.73	360.47
430.10	366.38
430.47	372.46
430.85	378.75
431.22	385.43
431.59	392.55
431.96	399.43
432.33	406.99
432.70	414.26
433.08	422.81
433.45	430.92
433.82	438.97
434.19	447.93
434.56	456.72
434.93	465.08
435.30	473.37
435.68	482.49
436.05	491.52
436.42	500.53
436.79	508.69
437.16	517.50
437.53	526.90
437.90	536.11
438.27	545.11
438.64	554.38
439.01	563.00
439.38	570.62
439.75	577.95
440.13	586.33
440.50	594.33
440.87	600.80
441.24	607.50
441.61	614.84
441.98	620.22
442.35	626.57
442.72	632.91
443.09	639.02
443.46	642.83
443.83	645.39
444.20	647.54
444.57	650.79
444.94	652.25
445.31	653.68
445.68	655.05
446.05	655.70
446.42	655.02
446.79	654.11
447.16	653.03
447.53	652.33
447.90	649.08
448.27	645.79
448.64	641.17
449.01	637.88
449.37	632.01
449.74	626.30
450.11	619.39
450.48	611.99
450.85	604.49
451.22	598.04
451.59	591.86
451.96	586.00
452.33	578.08
452.70	570.93
453.07	562.41
453.43	553.71
453.80	545.40
454.17	537.36
454.54	529.76
454.91	521.58
455.28	513.50
455.65	506.05
456.02	498.51
456.38	492.12
456.75	484.14
457.12	477.51
457.49	470.96
457.86	464.69
458.23	459.27
458.59	453.28
458.96	447.21
459.33	441.84
459.70	436.46
460.07	432.12
460.43	427.17
460.80	422.51
461.17	418.53
461.54	414.27
461.91	410.15
462.27	405.99
462.64	402.50
463.01	398.74
463.38	394.99
463.74	391.26
464.11	388.02
464.48	385.16
464.85	382.06
465.21	379.64
465.58	377.03
465.95	373.89
466.32	371.27
466.68	368.66
467.05	366.06
467.42	363.52
467.78	360.82
468.15	358.30
468.52	356.40
468.88	353.87
469.25	351.64
469.62	349.87
469.98	347.89
470.35	346.04
470.72	344.36
471.08	342.54
471.45	341.04
471.82	339.43
472.18	337.76
472.55	336.53
472.92	335.08
473.28	333.83
473.65	332.67
474.02	331.53
474.38	330.65
474.75	329.90
475.11	329.03
475.48	328.44
475.85	327.93
476.21	327.45
476.58	327.12
476.94	326.85
477.31	326.48
477.67	326.23
478.04	326.06
478.41	325.95
478.77	326.09
479.14	326.01
479.50	326.14
479.87	326.41
480.23	326.69
480.60	326.92
480.96	327.21
481.33	327.78
481.69	328.34
482.06	328.82
482.42	329.30
482.79	329.86
483.15	330.62
483.52	331.56
483.88	332.41
484.25	333.31
484.61	334.32
484.98	335.39
485.34	336.68
485.71	338.06
486.07	339.52
486.44	340.87
486.80	342.49
487.17	344.19
487.53	346.04
487.90	347.91
488.26	349.93
488.62	352.06
488.99	354.11
489.35	356.29
489.72	358.67
490.08	361.17
490.44	363.73
490.81	366.43
491.17	369.11
491.54	372.09
491.90	375.11
492.26	378.38
492.63	381.82
492.99	385.28
493.36	388.98
493.72	392.85
494.08	396.79
494.45	401.00
494.81	405.29
495.17	409.71
495.54	414.40
495.90	419.21
496.26	424.13
496.63	429.32
496.99	434.73
497.35	440.29
497.72	446.07
498.08	452.04
498.44	458.19
498.80	464.70
499.17	471.18
499.53	477.89
499.89	484.72
500.26	491.63
500.62	498.70
500.98	506.01
501.34	513.44
501.71	521.19
502.07	529.01
502.43	537.01
502.79	545.05
503.16	553.40
503.52	561.97
503.88	570.71
504.24	579.66
504.60	588.68
504.97	597.92
505.33	607.25
505.69	617.03
506.05	626.88
506.41	636.63
506.78	646.65
507.14	656.91
507.50	667.38
507.86	678.10
508.22	688.88
508.59	699.56
508.95	710.57
509.31	721.79
509.67	733.20
510.03	744.58
510.39	756.30
510.75	768.13
511.12	780.01
511.48	792.00
511.84	804.17
512.20	816.43
512.56	828.95
512.92	841.70
513.28	854.30
513.64	867.04
514.00	879.78
514.37	892.83
514.73	905.84
515.09	918.86
515.45	931.83
515.81	944.85
516.17	958.24
516.53	971.52
516.89	984.72
517.25	997.92
517.61	1011.54
517.97	1025.02
518.33	1038.21
518.69	1051.82
519.05	1065.66
519.41	1079.44
519.77	1093.39
520.13	1106.74
520.49	1119.93
520.85	1133.35
521.21	1146.58
521.57	1160.38
521.93	1173.33
522.29	1187.27
522.65	1200.78
523.01	1214.30
523.37	1227.52
523.73	1240.91
524.09	1254.13
524.45	1267.54
524.81	1280.93
525.17	1294.34
525.53	1307.56
525.89	1320.83
526.25	1333.94
526.61	1346.77
526.97	1359.83
527.33	1372.84
527.68	1386.47
528.04	1400.07
528.40	1413.28
528.76	1426.83
529.12	1439.75
529.48	1453.28
529.84	1465.42
530.20	1478.39
530.56	1490.98
530.91	1504.38
531.27	1517.18
531.63	1529.90
531.99	1542.72
532.35	1554.95
532.71	1567.36
533.07	1580.37
533.42	1592.77
533.78	1604.93
534.14	1617.07
534.50	1628.37
534.86	1639.95
535.21	1650.78
535.57	1662.40
535.93	1673.67
536.29	1684.77
536.65	1696.32
537.00	1707.33
537.36	1718.86
537.72	1729.87
538.08	1741.51
538.44	1752.48
538.79	1763.77
539.15	1774.87
539.51	1785.79
539.87	1797.28
540.22	1808.25
540.58	1819.17
540.94	1830.27
541.29	1840.77
541.65	1850.53
542.01	1861.07
542.37	1871.12
542.72	1881.30
543.08	1891.04
543.44	1901.69
543.79	1911.05
544.15	1920.59
544.51	1930.48
544.87	1940.46
545.22	1949.77
545.58	1958.62
545.94	1967.58
546.29	1976.13
546.65	1984.53
547.01	1992.65
547.36	2000.49
547.72	2008.18
548.07	2015.80
548.43	2023.47
548.79	2031.29
549.14	2039.63
549.50	2048.24
549.86	2056.34
550.21	2063.84
550.57	2071.62
550.92	2078.36
551.28	2085.89
551.64	2093.17
551.99	2100.81
552.35	2107.95
552.70	2114.83
553.06	2121.56
553.41	2127.85
553.77	2134.42
554.13	2140.81
554.48	2147.79
554.84	2155.00
555.19	2161.78
555.55	2168.20
555.90	2174.50
556.26	2181.34
556.61	2187.46
556.97	2192.06
557.32	2197.84
557.68	2204.48
558.03	2210.24
558.39	2215.69
558.74	2221.67
559.10	2227.24
559.45	2232.84
559.81	2238.43
560.16	2243.90
560.52	2249.74
560.87	2256.12
561.23	2261.82
561.58	2268.40
561.94	2273.67
562.29	2278.17
562.64	2283.87
563.00	2289.42
563.35	2294.84
563.71	2300.39
564.06	2305.91
564.42	2312.00
564.77	2316.95
565.12	2321.96
565.48	2326.87
565.83	2332.28
566.19	2337.51
566.54	2342.78
566.89	2347.13
567.25	2351.64
567.60	2357.27
567.96	2362.27
568.31	2366.65
568.66	2370.95
569.02	2374.75
569.37	2378.51
569.72	2382.71
570.08	2386.16
570.43	2389.17
570.78	2392.29
571.14	2394.76
571.49	2397.82
571.84	2401.13
572.20	2403.94
572.55	2406.89
572.90	2409.17
573.26	2411.72
573.61	2414.12
573.96	2416.11
574.31	2418.04
574.67	2419.73
575.02	2420.23
575.37	2421.49
575.72	2421.99
576.08	2423.33
576.43	2423.53
576.78	2423.71
577.13	2425.14
577.49	2426.20
577.84	2427.15
578.19	2428.15
578.54	2428.53
578.90	2428.90
579.25	2428.62
579.60	2428.40
579.95	2427.30
580.30	2427.18
580.66	2426.41
581.01	2424.76
581.36	2422.16
581.71	2420.60
582.06	2419.17
582.42	2418.21
582.77	2415.83
583.12	2414.14
583.47	2412.42
583.82	2411.40
584.17	2410.01
584.53	2407.79
584.88	2405.43
585.23	2403.34
585.58	2400.82
585.93	2398.70
586.28	2396.47
586.63	2393.90
586.98	2391.56
587.34	2389.41
587.69	2386.73
588.04	2384.39
588.39	2382.63
588.74	2379.98
589.09	2377.05
589.44	2373.84
589.79	2371.19
590.14	2368.98
590.49	2365.97
590.84	2362.08
591.19	2358.73
591.54	2355.33
591.89	2351.17
592.25	2347.93
592.60	2343.71
592.95	2339.65
593.30	2335.44
593.65	2331.06
594.00	2326.58
594.35	2323.38
594.70	2318.84
595.05	2314.26
595.40	2308.78
595.75	2302.94
596.10	2299.20
596.45	2294.27
596.80	2289.57
597.15	2284.33
597.50	2278.63
597.85	2273.54
598.19	2268.33
598.54	2262.64
598.89	2257.35
599.24	2252.67
599.59	2246.49
599.94	2240.43
600.29	2234.39
600.64	2228.29
600.99	2221.30
601.34	2215.68
601.69	2208.80
602.04	2202.12
602.39	2195.47
602.74	2189.34
603.08	2183.84
603.43	2177.31
603.78	2170.52
604.13	2163.48
604.48	2156.02
604.83	2149.73
605.18	2143.57
605.53	2136.52
605.87	2129.51
606.22	2122.81
606.57	2114.97
606.92	2106.91
607.27	2100.13
607.62	2093.49
607.96	2086.65
608.31	2080.30
608.66	2072.54
609.01	2064.77
609.36	2057.79
609.70	2050.16
610.05	2042.27
610.40	2033.86
610.75	2025.59
611.10	2017.86
611.44	2008.91
611.79	2000.43
612.14	1990.53
612.49	1979.79
612.83	1970.42
613.18	1961.01
613.53	1951.59
613.88	1941.96
614.22	1933.30
614.57	1923.44
614.92	1912.87
615.27	1902.49
615.61	1892.30
615.96	1882.67
616.31	1873.16
616.65	1863.74
617.00	1853.96
617.35	1844.54
617.70	1834.86
618.04	1824.99
618.39	1814.93
618.74	1805.35
619.08	1795.70
619.43	1786.98
619.78	1778.97
620.12	1770.56
620.47	1761.16
620.82	1751.01
621.16	1741.32
621.51	1731.56
621.85	1721.72
622.20	1711.55
622.55	1701.17
622.89	1691.30
623.24	1681.72
623.59	1671.92
623.93	1661.85
624.28	1652.21
624.62	1642.11
624.97	1632.02
625.32	1622.21
625.66	1613.37
626.01	1604.80
626.35	1595.68
626.70	1585.75
627.04	1575.72
627.39	1565.47
627.73	1556.26
628.08	1547.39
628.43	1537.97
628.77	1528.88
629.12	1520.17
629.46	1512.34
629.81	1504.04
630.15	1494.73
630.50	1484.97
630.84	1474.66
631.19	1464.86
631.53	1455.60
631.88	1445.60
632.22	1435.67
632.57	1426.42
632.91	1416.35
633.26	1406.43
633.60	1396.81
633.95	1387.66
634.29	1378.22
634.64	1369.11
634.98	1359.30
635.32	1350.16
635.67	1341.76
636.01	1332.50
636.36	1322.89
636.70	1313.53
637.05	1304.32
637.39	1295.53
637.73	1287.06
638.08	1279.54
638.42	1271.44
638.77	1262.81
639.11	1254.67
639.45	1247.03
639.80	1238.63
640.14	1230.02
640.49	1221.37
640.83	1212.59
641.17	1204.44
641.52	1196.52
641.86	1188.06
642.20	1180.35
642.55	1171.74
642.89	1163.00
643.23	1154.54
643.58	1146.44
643.92	1137.43
644.26	1128.80
644.61	1120.38
644.95	1111.65
645.29	1102.46
645.64	1093.44
645.98	1085.01
646.32	1077.21
646.66	1068.70
647.01	1060.47
647.35	1052.45
647.69	1044.22
648.04	1036.10
648.38	1027.38
648.72	1018.64
649.06	1010.31
649.41	1002.08
649.75	994.25
650.09	986.45
650.43	978.55
650.78	970.21
651.12	962.51
651.46	955.12
651.80	947.89
652.14	940.63
652.49	933.27
652.83	925.99
653.17	918.29
653.51	910.65
653.85	903.50
654.20	896.28
654.54	888.83
654.88	881.61
655.22	874.41
655.56	867.35
655.90	860.55
656.25	853.82
656.59	846.92
656.93	839.90
657.27	832.77
657.61	825.77
657.95	819.73
658.29	813.82
658.64	807.80
658.98	801.41
659.32	794.91
659.66	788.71
660.00	782.44
660.34	776.37
660.68	770.26
661.02	763.87
661.36	757.85
661.70	752.11
662.05	746.53
662.39	741.05
662.73	735.80
663.07	730.45
663.41	724.92
663.75	719.23
664.09	713.55
664.43	708.08
664.77	702.81
665.11	697.05
665.45	691.22
665.79	685.38
666.13	679.71
666.47	674.21
666.81	668.75
667.15	663.33
667.49	658.14
667.83	652.93
668.17	647.68
668.51	642.59
668.85	637.64
669.19	632.70
669.53	627.77
669.87	622.60
670.21	617.86
670.55	613.15
670.89	608.69
671.23	604.36
671.57	600.05
671.91	595.75
672.25	591.61
672.58	587.51
672.92	583.45
673.26	579.45
673.60	575.57
673.94	571.73
674.28	568.15
674.62	564.43
674.96	560.66
675.30	557.16
675.64	553.46
675.97	549.89
676.31	546.33
676.65	542.63
676.99	539.15
677.33	535.25
677.67	531.58
678.01	527.72
678.34	524.15
678.68	520.55
679.02	516.92
679.36	513.23
679.70	509.52
680.04	505.93
680.37	502.46
680.71	499.18
681.05	495.98
681.39	492.61
681.73	489.44
682.06	486.40
682.40	483.31
682.74	480.17
683.08	476.93
683.42	473.63
683.75	470.67
684.09	467.62
684.43	464.80
684.77	461.81
685.10	458.97
685.44	456.00
685.78	453.16
686.12	450.36
686.45	447.59
686.79	444.89
687.13	442.36
687.46	439.71
687.80	437.00
688.14	434.11
688.48	431.49
688.81	428.72
689.15	426.13
689.49	423.49
689.82	420.90
690.16	418.31
690.50	415.84
690.83	413.28
691.17	410.70
691.51	408.22
691.84	405.97
692.18	403.81
692.52	401.54
692.85	399.26
693.19	397.09
693.52	394.89
693.86	392.68
694.20	390.46
694.53	388.31
694.87	386.09
695.21	383.98
695.54	381.77
695.88	379.62
696.21	377.35
696.55	375.20
696.88	373.12
697.22	371.09
697.56	369.21
697.89	367.29
698.23	365.52
698.56	363.70
698.90	361.87
699.23	359.91
699.57	358.04
699.90	356.13
700.24	354.26
700.58	352.52
700.91	350.82
701.25	349.20
701.58	347.59
701.92	345.95
702.25	344.34
702.59	342.73
702.92	341.19
703.26	339.62
703.59	338.12
703.93	336.83
704.26	335.38
704.60	333.84
704.93	332.36
705.26	330.86
705.60	329.38
705.93	327.88
706.27	326.52
706.60	325.19
706.94	324.03
707.27	322.65
707.61	321.26
707.94	319.85
708.27	318.31
708.61	316.83
708.94	315.44
709.28	314.13
709.61	312.88
709.94	311.62
710.28	310.42
710.61	309.19
710.95	307.75
711.28	306.64
711.61	305.42
711.95	304.27
712.28	303.04
712.61	301.82
712.95	300.74
713.28	299.68
713.61	298.56
713.95	297.34
714.28	296.33
714.61	295.29
714.95	294.29
715.28	293.29
715.61	292.24
715.95	291.24
716.28	290.23
716.61	289.25
716.95	288.20
717.28	287.27
717.61	286.31
717.94	285.41
718.28	284.39
718.61	283.47
718.94	282.51
719.27	281.68
719.61	280.84
719.94	279.96
720.27	278.99
720.60	278.14
720.94	277.33
721.27	276.51
721.60	275.80
721.93	275.07
722.27	274.40
722.60	273.77
722.93	273.07
723.26	272.39
723.59	271.65
723.93	271.03
724.26	270.37
724.59	269.69
724.92	269.05
725.25	268.52
725.59	267.95
725.92	267.43
726.25	266.86
726.58	266.25
726.91	265.61
727.24	265.03
727.57	264.44
727.91	263.82
728.24	263.28
728.57	262.67
728.90	262.12
729.23	261.48
729.56	261.02
729.89	260.47
730.22	259.89
730.55	259.36
730.89	258.80
731.22	258.24
731.55	257.75
731.88	257.23
732.21	256.65
732.54	256.09
732.87	255.54
733.20	255.02
733.53	254.56
733.86	254.14
734.19	253.63
734.52	253.19
734.85	252.89
735.18	252.42
735.51	252.04
735.84	251.59
736.17	251.19
736.50	250.63
736.83	250.45
737.16	250.06
737.49	249.68
737.82	249.26
738.15	248.90
738.48	248.52
738.81	248.11
739.14	247.70
739.47	247.33
739.80	246.94
740.13	246.59
740.46	246.16
740.79	245.70
741.12	245.36
741.45	245.00
741.78	244.55
742.11	244.24
742.44	243.89
742.77	243.59
743.10	243.24
743.43	242.93
743.75	242.35
744.08	242.25
744.41	241.84
744.74	241.53
745.07	241.12
745.40	240.78
745.73	240.54
746.06	240.21
746.39	239.85
746.71	239.52
747.04	239.16
747.37	238.85
747.70	238.63
748.03	238.30
748.36	238.01
748.68	237.70
749.01	237.34
749.34	236.98
749.67	236.66
750.00	236.37
750.33	236.20
750.65	235.94
750.98	235.42
751.31	235.21
751.64	234.98
751.97	234.84
752.29	234.61
752.62	234.25
752.95	233.97
753.28	233.77
753.60	233.51
753.93	233.33
754.26	233.11
754.59	232.81
754.91	232.58
755.24	232.34
755.57	232.09
755.90	231.84
756.22	231.63
756.55	231.39
756.88	231.15
757.20	230.82
757.53	230.58
757.86	230.40
758.19	230.21
758.51	230.02
758.84	229.69
759.17	229.45
759.49	229.29
759.82	229.24
760.15	229.05
760.47	228.87
760.80	228.60
761.13	228.44
761.45	228.23
761.78	228.06
762.11	227.86
762.43	227.72
762.76	227.56
763.08	227.39
763.41	227.23
763.74	227.08
764.06	226.90
764.39	226.74
764.71	226.54
765.04	226.35
765.37	226.15
765.69	226.04
766.02	225.92
766.34	225.79
766.67	225.54
767.00	225.41
767.32	225.38
767.65	225.39
767.97	225.22
768.30	225.13
768.62	224.98
768.95	224.82
769.27	224.64
769.60	224.54
769.92	224.38
770.25	224.21
770.57	224.05
770.90	223.92
771.22	223.79
771.55	223.69
771.87	223.59
772.20	223.50
772.52	223.55
772.85	223.66
773.17	223.53
773.50	223.43
773.82	223.31
774.15	223.12
774.47	222.87
774.80	222.80
775.12	222.66
775.45	222.57
775.77	222.49
776.09	222.42
776.42	222.33
776.74	222.31
777.07	222.22
777.39	222.14
777.72	222.07
778.04	221.99
778.36	221.88
778.69	221.80
779.01	221.74
779.33	221.47
779.66	221.15
779.98	221.04
780.31	220.98
780.63	220.97
780.95	220.93
781.28	220.85
781.60	220.72
781.92	220.66
782.25	220.60
782.57	220.52
782.89	220.45
783.22	220.38
783.54	220.26
783.86	220.23
784.19	220.14
784.51	220.14
784.83	220.09
785.16	220.04
785.48	219.96
785.80	219.90
786.12	219.83
786.45	219.76
786.77	219.72
787.09	219.63
787.42	219.50
787.74	219.41
788.06	219.42
788.38	219.37
788.71	219.31
789.03	219.26
789.35	219.22
789.67	219.14
789.99	219.08
790.32	219.02
790.64	218.98
790.96	219.07
791.28	218.93
791.61	218.84
791.93	218.81
792.25	218.76
792.57	218.89
792.89	218.82
793.21	218.79
793.54	218.72
793.86	218.69
794.18	218.66
794.50	218.59
794.82	218.53
795.14	218.50
795.47	218.51
795.79	218.49
796.11	218.41
796.43	218.37
796.75	218.36
797.07	218.32
797.39	218.27
797.71	218.12
798.04	218.09
798.36	218.11
798.68	218.06
799.00	218.00
799.32	217.84
799.64	217.83
799.96	217.80
800.28	217.85
800.60	217.79
800.92	217.74
801.24	217.68
801.56	217.63
801.89	217.56
802.21	217.52
802.53	217.44
802.85	217.48
803.17	217.53
803.49	217.43
803.81	217.39
804.13	217.35
804.45	217.29
804.77	217.25
805.09	217.18
805.41	217.15
805.73	217.10
806.05	216.99
806.37	216.95
806.69	216.89
807.01	216.78
807.33	216.76
807.65	216.70
807.97	216.80
808.28	216.77
808.60	216.78
808.92	216.69
809.24	216.78
809.56	216.70
809.88	216.58
810.20	216.60
810.52	216.62
810.84	216.55
811.16	216.52
811.48	216.46
811.80	216.52
812.12	216.47
812.43	216.49
812.75	216.48
813.07	216.46
813.39	216.46
813.71	216.43
814.03	216.38
814.35	216.36
814.67	216.21
814.98	216.15
815.30	216.13
815.62	216.13
815.94	215.97
816.26	215.95
816.58	215.94
816.89	215.92
817.21	215.83
817.53	215.84
817.85	215.82
818.17	215.84
818.48	215.74
818.80	215.79
819.12	215.70
819.44	215.67
819.76	215.63
820.07	215.60
820.39	215.57
820.71	215.58
821.03	215.54
821.34	215.55
821.66	215.57
821.98	215.55
822.30	215.51
822.61	215.65
822.93	215.61
823.25	215.59
823.57	215.55
823.88	215.61
824.20	215.59
824.52	215.60
824.83	215.55
825.15	215.51
825.47	215.46
825.79	215.51
826.10	215.47
826.42	215.46
826.74	215.45
827.05	215.43
827.37	215.40
827.69	215.38
828.00	215.36
828.32	215.31
828.64	215.27
828.95	215.37
829.27	215.32
829.58	215.31
829.90	215.32
830.22	215.33
830.53	215.22
830.85	215.19
831.17	215.13
831.48	215.13
831.80	215.13
832.11	215.11
832.43	215.07
832.75	215.08
833.06	215.21
833.38	215.14
833.69	215.13
834.01	215.12
834.32	215.16
834.64	215.16
834.96	215.19
835.27	215.21
835.59	215.12
835.90	215.07
836.22	215.05
836.53	215.02
836.85	214.96
837.16	215.19
837.48	215.20
837.79	215.28
838.11	215.27
838.42	215.26
838.74	215.28
839.05	215.26
839.37	215.20
839.68	215.06
840.00	215.05
840.31	215.11
840.63	215.11
840.94	215.03
841.26	214.98
841.57	214.95
841.88	214.93
842.20	214.90
842.51	214.85
842.83	214.83
843.14	215.01
843.46	215.03
843.77	214.89
844.08	214.86
844.40	214.79
844.71	214.76
845.03	214.73
845.34	214.71
845.65	214.70
845.97	214.72
846.28	214.72
846.60	214.73
846.91	214.66
847.22	214.61
847.54	214.66
847.85	214.67
848.16	214.65
848.48	214.62
848.79	214.69
849.10	214.70
849.42	214.72
849.73	214.51
850.04	214.52
850.36	214.43
850.67	214.46
850.98	214.48
851.30	214.51
851.61	214.49
851.92	214.50
852.23	214.56
852.55	214.54
852.86	214.55
853.17	214.57
853.49	214.62
853.80	214.66
854.11	214.70
854.42	214.73
854.74	214.71
855.05	214.72
855.36	214.60
855.67	214.62
855.99	214.60
856.30	214.84
856.61	214.83
856.92	214.82
857.23	214.84
857.55	214.78
857.86	214.76
858.17	214.79
858.48	214.71
858.79	214.65
859.11	214.67
859.42	214.67
859.73	214.61
860.04	214.61
860.35	214.53
860.66	214.45
860.98	214.44
861.29	214.46
861.60	214.47
861.91	214.51
862.22	214.47
862.53	214.47
862.84	214.23
863.16	214.26
863.47	214.23
863.78	214.15
864.09	214.19
864.40	214.21
864.71	214.24
865.02	214.31
865.33	214.31
865.64	214.25
865.95	214.22
866.27	214.38
866.58	214.34
866.89	214.38
867.20	214.41
867.51	214.37
867.82	214.35
868.13	214.36
868.44	214.34
868.75	214.41
869.06	214.41
869.37	214.41
869.68	214.34
869.99	214.37
870.30	214.40
870.61	214.41
870.92	214.38
871.23	214.38
871.54	214.39
871.85	214.44
872.16	214.50
872.47	214.49
872.78	214.35
873.09	214.37
873.40	214.32
873.71	214.30
874.02	214.33
874.33	214.31
874.64	214.25
874.95	214.28
875.26	214.22
875.56	214.19
875.87	214.20
876.18	214.21
876.49	214.40
876.80	214.39
877.11	214.33
877.42	214.31
877.73	214.28
878.04	214.24
878.35	214.19
878.66	214.16
878.96	214.15
879.27	214.15
879.58	214.14
879.89	214.18
880.20	214.25
880.51	214.23
880.82	214.23
881.12	214.29
881.43	214.24
881.74	214.22
882.05	214.23
882.36	214.26
882.67	214.26
882.97	214.04
883.28	214.00
883.59	214.03
883.90	214.09
884.21	214.11
884.51	214.08
884.82	214.08
885.13	214.05
885.44	214.05
885.74	214.06
886.05	214.05
886.36	214.04
886.67	213.98
886.98	214.05
887.28	214.09
887.59	214.07
887.90	214.07
888.20	214.05
888.51	214.04
888.82	213.99
889.13	213.99
889.43	214.16
889.74	214.17
890.05	214.13
890.35	214.09
890.66	214.04
890.97	214.05
891.28	214.04
891.58	214.06
891.89	214.04
892.20	214.02
892.50	213.98
892.81	213.97
893.12	213.94
893.42	213.87
893.73	213.85
894.04	213.86
894.34	213.88
894.65	213.88
894.95	213.88
895.26	213.88
895.57	213.97
895.87	213.79
896.18	213.81
896.48	213.84
896.79	213.82
897.10	213.88
897.40	213.89
897.71	213.94
898.01	213.96
898.32	213.99
898.63	214.01
898.93	214.07
899.24	214.10
899.54	214.09
899.85	214.08
900.15	214.10
900.46	214.09
900.76	214.11
901.07	214.13
901.38	214.13
901.68	214.17
901.99	214.11
902.29	214.11
902.60	214.11
902.90	214.09
903.21	214.09
903.51	214.06
903.82	214.10
904.12	214.06
904.43	214.04
904.73	214.04
905.03	214.05
905.34	214.23
905.64	214.19
905.95	214.20
906.25	214.20
906.56	214.18
906.86	214.17
907.17	214.16
907.47	214.16
907.77	214.16
908.08	214.09
908.38	214.08
908.69	214.12
908.99	214.19
909.30	214.20
909.60	214.22
909.90	214.26
910.21	214.22
910.51	214.21
910.81	214.22
911.12	214.24
911.42	214.25
911.73	214.04
912.03	214.06
912.33	214.10
912.64	214.09
912.94	214.06
913.24	214.01
913.55	214.00
913.85	213.98
914.15	214.02
914.46	214.04
914.76	214.04
915.06	213.99
915.37	213.93
915.67	213.93
915.97	213.92
916.27	213.83
916.58	213.82
916.88	213.80
917.18	213.80
917.49	213.96
917.79	213.92
918.09	213.97
918.39	214.03
918.70	214.01
919.00	214.01
919.30	214.11
919.60	214.12
919.91	214.12
920.21	214.12
920.51	214.05
920.81	214.05
921.12	214.06
921.42	214.06
921.72	214.06
922.02	214.07
922.32	214.08
922.63	214.09
922.93	214.20
923.23	214.20
923.53	214.15
923.83	213.97
924.13	213.96
924.44	213.92
924.74	213.93
925.04	213.98
925.34	213.97
925.64	213.90
925.94	213.90
926.24	213.99
926.55	213.97
926.85	214.02
927.15	214.01
927.45	214.01
927.75	214.01
928.05	214.01
928.35	213.99
928.65	214.03
928.95	214.07
929.26	213.98
929.56	214.02
929.86	214.06
930.16	214.06
930.46	214.03
930.76	214.04
931.06	213.94
931.36	213.88
931.66	213.94
931.96	213.94
932.26	213.97
932.56	213.89
932.86	213.93
933.16	213.92
933.46	213.90
933.76	213.86
934.06	213.89
934.36	213.99
934.66	214.00
934.96	213.97
935.26	213.96
935.56	214.01
935.86	213.94
936.16	213.92
936.46	213.92
936.76	213.94
937.06	213.90
937.36	213.90
937.66	213.92
937.96	213.90
938.26	213.89
938.56	213.89
938.86	213.89
939.16	213.93
939.46	213.95
939.76	213.99
940.06	214.03
940.35	213.99
940.65	213.86
940.95	213.88
941.25	213.83
941.55	213.81
941.85	213.78
942.15	213.89
942.45	213.95
942.75	213.94
943.04	213.96
943.34	214.05
943.64	214.08
943.94	214.02
944.24	214.02
944.54	214.02
944.84	213.96
945.13	213.94
945.43	213.89
945.73	213.85
946.03	213.85
946.33	213.81
946.62	213.83
946.92	213.81
947.22	213.81
947.52	213.82
947.82	213.88
948.11	213.85
948.41	213.78
948.71	213.69
949.01	213.69
949.31	213.68
949.60	213.67
949.90	213.66
950.20	213.66
950.50	213.68
950.79	213.66
951.09	213.74
951.39	213.74
951.69	213.72
951.98	213.78
952.28	213.78
952.58	213.78
952.87	213.74
953.17	213.78
953.47	213.77
953.76	213.78
954.06	213.73
954.36	213.69
954.66	213.68
954.95	213.77
955.25	213.79
955.55	213.81
955.84	213.73
956.14	213.76
956.44	213.79
956.73	213.76
957.03	213.78
957.32	213.78
957.62	213.76
957.92	213.81
958.21	213.77
958.51	213.99
958.81	214.02
959.10	214.07
959.40	214.12
959.69	214.11
959.99	214.14
960.29	214.13
960.58	214.14
960.88	214.21
961.17	214.17
961.47	214.15
961.76	214.13
962.06	214.21
962.36	214.17
962.65	214.18
962.95	214.19
963.24	214.18
963.54	214.15
963.83	214.18
964.13	214.17
964.42	214.11
964.72	213.97
965.01	213.96
965.31	213.93
965.60	213.87
965.90	213.98
966.19	213.94
966.49	213.98
966.78	213.99
967.08	213.96
967.37	213.95
967.67	213.94
967.96	213.99
968.26	213.92
968.55	213.96
968.85	213.94
969.14	213.91
969.43	213.89
969.73	213.87
970.02	213.85
970.32	213.82
970.61	213.82
970.91	213.75
971.20	213.72
971.49	213.72
971.79	213.76
972.08	213.63
972.38	213.64
972.67	213.60
972.96	213.63
973.26	213.58
973.55	213.64
973.85	213.62
974.14	213.56
974.43	213.61
974.73	213.57
975.02	213.57
975.31	213.56
975.61	213.58
975.90	213.55
976.19	213.54
976.49	213.54
976.78	213.55
977.07	213.56
977.37	213.57
977.66	213.58
977.95	213.53
978.24	213.53
978.54	213.58
978.83	213.58
979.12	213.57
979.42	213.57
979.71	213.51
980.00	213.49
980.29	213.51
980.59	213.44
980.88	213.50
981.17	213.49
981.46	213.48
981.76	213.47
982.05	213.57
982.34	213.59
982.63	213.58
982.93	213.59
983.22	213.62
983.51	213.63
983.80	213.62
984.09	213.66
984.39	213.65
984.68	213.61
984.97	213.61
985.26	213.58
985.55	213.62
985.85	213.61
986.14	213.65
986.43	213.69
986.72	213.71
987.01	213.64
987.30	213.63
987.59	213.65
987.89	213.67
988.18	213.58
988.47	213.53
988.76	213.54
989.05	213.51
989.34	213.50
989.63	213.53
989.92	213.52
990.22	213.49
990.51	213.48
990.80	213.47
991.09	213.45
991.38	213.49
991.67	213.43
991.96	213.40
992.25	213.40
992.54	213.34
992.83	213.34
993.12	213.35
993.41	213.41
993.70	213.46
993.99	213.50
994.28	213.54
994.58	213.59
994.87	213.55
995.16	213.56
995.45	213.53
995.74	213.47
996.03	213.49
996.32	213.50
996.61	213.56
996.90	213.58
997.19	213.59
997.48	213.61
997.77	213.61
998.06	213.61
998.34	213.61
998.63	213.62
998.92	213.61
999.21	213.62
999.50	213.61
999.79	213.57
1000.08	213.53
1000.37	213.55
1000.66	213.53
1000.95	213.61
1001.24	213.61
1001.53	213.65
1001.82	213.65
1002.11	213.61
1002.40	213.67
1002.68	213.70
1002.97	213.84
1003.26	213.83
1003.55	213.78
1003.84	213.82
1004.13	213.92
1004.42	213.90
1004.71	213.88
1004.99	213.87
1005.28	213.93
1005.57	213.92
1005.86	213.88
1006.15	213.87
1006.44	213.81
1006.72	213.88
1007.01	213.82
1007.30	213.85
1007.59	213.82
1007.88	213.83
1008.17	213.84
1008.45	213.78
1008.74	213.72
1009.03	213.62
1009.32	213.62
1009.60	213.61
1009.89	213.58
1010.18	213.47
1010.47	213.48
1010.76	213.48
1011.04	213.50
1011.33	213.49
1011.62	213.49
1011.91	213.53
1012.19	213.54
1012.48	213.55
1012.77	213.54
1013.05	213.61
1013.34	213.58
1013.63	213.60
1013.92	213.59
1014.20	213.58
1014.49	213.57
1014.78	213.57
1015.06	213.49
1015.35	213.49
1015.64	213.48
1015.92	213.50
1016.21	213.53
1016.50	213.51
1016.78	213.55
1017.07	213.55
1017.36	213.47
1017.64	213.45
1017.93	213.48
1018.22	213.50
1018.50	213.53
1018.79	213.47
1019.08	213.36
1019.36	213.39
1019.65	213.35
1019.93	213.41
1020.22	213.44
1020.51	213.52
1020.79	213.47
1021.08	213.72
1021.36	213.90
1021.65	212.81
1021.94	212.68
1022.22	213.70
1022.51	213.24
1022.79	214.28
1023.08	213.56
1023.36	215.29
1023.65	212.59
>>>>>End Processed Spectral Data<<<<<
