SpectraSuite Data File
++++++++++++++++++++++++++++++++++++
Date: Tue Jan 29 16:26:53 EST 2013
User: group
Dark Spectrum Present: No
Reference Spectrum Present: No
Number of Sampled Component Spectra: 1
Spectrometers: USB2E7196
Integration Time (usec): 65000 (USB2E7196)
Spectra Averaged: 100 (USB2E7196)
Boxcar Smoothing: 10 (USB2E7196)
Correct for Electrical Dark: No (USB2E7196)
Strobe/Lamp Enabled: No (USB2E7196)
Correct for Detector Non-linearity: No (USB2E7196)
Correct for Stray Light: No (USB2E7196)
Number of Pixels in Processed Spectrum: 2048
>>>>>Begin Processed Spectral Data<<<<<
339.09	0.00
339.48	202.56
339.86	203.45
340.24	205.31
340.63	206.24
341.01	211.61
341.39	209.33
341.78	211.28
342.16	211.90
342.54	212.87
342.93	201.56
343.31	211.71
343.69	212.21
344.07	212.71
344.46	213.13
344.84	213.57
345.22	213.70
345.60	213.98
345.99	214.15
346.37	214.29
346.75	214.36
347.13	214.40
347.52	214.50
347.90	214.65
348.28	214.66
348.66	214.74
349.05	214.69
349.43	214.79
349.81	214.84
350.19	214.88
350.57	214.99
350.96	215.03
351.34	215.17
351.72	215.27
352.10	215.33
352.48	215.40
352.87	215.42
353.25	215.49
353.63	215.54
354.01	215.60
354.39	215.67
354.77	215.76
355.15	215.87
355.54	215.86
355.92	215.84
356.30	215.92
356.68	216.12
357.06	216.19
357.44	216.19
357.82	216.26
358.20	216.34
358.58	216.38
358.97	216.46
359.35	216.56
359.73	216.67
360.11	216.76
360.49	216.81
360.87	216.87
361.25	216.93
361.63	217.03
362.01	217.11
362.39	217.14
362.77	217.19
363.15	217.23
363.53	217.28
363.91	217.30
364.29	217.33
364.67	217.15
365.05	217.19
365.43	217.26
365.81	217.32
366.19	217.40
366.57	217.49
366.95	217.51
367.33	217.46
367.71	217.46
368.09	217.49
368.47	217.49
368.85	217.47
369.23	217.50
369.61	217.44
369.99	217.47
370.37	217.48
370.75	217.56
371.13	217.48
371.51	217.41
371.89	217.43
372.27	217.43
372.65	217.42
373.03	217.40
373.41	217.35
373.78	217.27
374.16	217.12
374.54	217.03
374.92	216.97
375.30	216.96
375.68	216.89
376.06	216.84
376.44	216.77
376.82	216.76
377.19	216.72
377.57	216.66
377.95	216.56
378.33	216.49
378.71	216.32
379.09	216.31
379.47	216.32
379.84	216.25
380.22	216.16
380.60	216.10
380.98	216.05
381.36	216.00
381.73	215.93
382.11	215.96
382.49	215.93
382.87	215.86
383.25	215.79
383.62	215.97
384.00	215.89
384.38	215.89
384.76	215.92
385.13	215.95
385.51	215.89
385.89	215.82
386.27	215.84
386.64	215.84
387.02	215.81
387.40	215.75
387.78	215.77
388.15	215.74
388.53	215.68
388.91	215.67
389.29	215.59
389.66	215.62
390.04	215.62
390.42	215.63
390.79	215.64
391.17	215.59
391.55	215.38
391.92	215.39
392.30	215.37
392.68	215.28
393.05	215.24
393.43	215.28
393.81	215.32
394.18	215.27
394.56	215.29
394.94	215.35
395.31	215.34
395.69	215.38
396.06	215.43
396.44	215.47
396.82	215.49
397.19	215.67
397.57	215.65
397.95	215.64
398.32	215.62
398.70	215.67
399.07	215.81
399.45	215.85
399.82	215.88
400.20	215.91
400.58	215.98
400.95	215.97
401.33	216.07
401.70	216.27
402.08	216.39
402.45	216.47
402.83	216.60
403.20	216.73
403.58	216.82
403.95	216.99
404.33	217.17
404.71	217.27
405.08	217.48
405.46	217.64
405.83	217.89
406.21	218.05
406.58	218.29
406.96	218.48
407.33	218.73
407.70	219.03
408.08	219.51
408.45	219.85
408.83	220.24
409.20	220.55
409.58	220.84
409.95	221.23
410.33	221.71
410.70	222.10
411.08	222.64
411.45	223.21
411.82	223.77
412.20	224.43
412.57	225.29
412.95	225.92
413.32	226.79
413.69	227.61
414.07	228.54
414.44	229.52
414.82	230.59
415.19	231.78
415.56	232.95
415.94	234.12
416.31	235.56
416.68	236.95
417.06	238.58
417.43	240.10
417.81	241.85
418.18	243.64
418.55	245.61
418.93	247.60
419.30	249.69
419.67	251.90
420.04	254.21
420.42	256.54
420.79	259.35
421.16	262.13
421.54	265.06
421.91	268.05
422.28	271.10
422.66	274.33
423.03	277.53
423.40	280.87
423.77	284.48
424.15	288.11
424.52	291.95
424.89	296.10
425.26	300.18
425.64	304.09
426.01	308.33
426.38	312.81
426.75	317.35
427.13	322.08
427.50	327.09
427.87	332.25
428.24	337.44
428.61	342.43
428.99	347.91
429.36	353.86
429.73	359.72
430.10	365.61
430.47	371.65
430.85	377.93
431.22	384.68
431.59	391.76
431.96	398.61
432.33	406.08
432.70	413.30
433.08	421.75
433.45	429.77
433.82	437.78
434.19	446.61
434.56	455.29
434.93	463.57
435.30	471.80
435.68	480.90
436.05	489.91
436.42	498.73
436.79	506.82
437.16	515.57
437.53	524.78
437.90	533.91
438.27	542.84
438.64	552.07
439.01	560.50
439.38	568.03
439.75	575.33
440.13	583.70
440.50	591.60
440.87	598.05
441.24	604.64
441.61	612.00
441.98	617.36
442.35	623.73
442.72	630.05
443.09	636.14
443.46	639.85
443.83	642.33
444.20	644.52
444.57	647.63
444.94	649.08
445.31	650.52
445.68	651.91
446.05	652.56
446.42	651.74
446.79	650.78
447.16	649.75
447.53	648.95
447.90	645.63
448.27	642.40
448.64	637.75
449.01	634.43
449.37	628.49
449.74	622.84
450.11	615.91
450.48	608.57
450.85	601.06
451.22	594.56
451.59	588.43
451.96	582.63
452.33	574.83
452.70	567.71
453.07	559.31
453.43	550.75
453.80	542.49
454.17	534.50
454.54	526.99
454.91	518.78
455.28	510.79
455.65	503.42
456.02	495.94
456.38	489.66
456.75	481.86
457.12	475.28
457.49	468.75
457.86	462.58
458.23	457.21
458.59	451.31
458.96	445.33
459.33	440.04
459.70	434.66
460.07	430.42
460.43	425.56
460.80	420.96
461.17	416.95
461.54	412.75
461.91	408.77
462.27	404.70
462.64	401.28
463.01	397.52
463.38	393.83
463.74	390.16
464.11	386.90
464.48	384.06
464.85	381.05
465.21	378.65
465.58	376.01
465.95	372.82
466.32	370.23
466.68	367.65
467.05	365.07
467.42	362.55
467.78	359.86
468.15	357.33
468.52	355.48
468.88	353.00
469.25	350.76
469.62	348.98
469.98	347.10
470.35	345.32
470.72	343.68
471.08	341.87
471.45	340.34
471.82	338.85
472.18	337.24
472.55	335.99
472.92	334.59
473.28	333.42
473.65	332.30
474.02	331.16
474.38	330.26
474.75	329.52
475.11	328.69
475.48	328.13
475.85	327.64
476.21	327.10
476.58	326.74
476.94	326.54
477.31	326.25
477.67	325.97
478.04	325.84
478.41	325.80
478.77	325.98
479.14	325.94
479.50	326.07
479.87	326.34
480.23	326.70
480.60	327.00
480.96	327.25
481.33	327.87
481.69	328.47
482.06	329.05
482.42	329.56
482.79	330.17
483.15	331.01
483.52	331.95
483.88	332.81
484.25	333.72
484.61	334.75
484.98	335.80
485.34	337.13
485.71	338.49
486.07	339.94
486.44	341.24
486.80	342.86
487.17	344.55
487.53	346.34
487.90	348.19
488.26	350.19
488.62	352.37
488.99	354.41
489.35	356.57
489.72	358.94
490.08	361.47
490.44	364.08
490.81	366.76
491.17	369.49
491.54	372.50
491.90	375.60
492.26	378.85
492.63	382.25
492.99	385.71
493.36	389.38
493.72	393.25
494.08	397.32
494.45	401.54
494.81	405.93
495.17	410.40
495.54	415.12
495.90	419.97
496.26	424.93
496.63	430.20
496.99	435.63
497.35	441.23
497.72	447.00
498.08	452.96
498.44	459.13
498.80	465.61
499.17	472.14
499.53	478.87
499.89	485.76
500.26	492.73
500.62	499.84
500.98	507.29
501.34	514.83
501.71	522.63
502.07	530.52
502.43	538.60
502.79	546.81
503.16	555.25
503.52	563.95
503.88	572.71
504.24	581.69
504.60	590.86
504.97	600.15
505.33	609.50
505.69	619.37
506.05	629.27
506.41	639.19
506.78	649.31
507.14	659.70
507.50	670.25
507.86	681.03
508.22	691.95
508.59	702.69
508.95	713.78
509.31	725.15
509.67	736.72
510.03	748.19
510.39	759.96
510.75	771.90
511.12	783.88
511.48	796.06
511.84	808.36
512.20	820.63
512.56	833.37
512.92	846.36
513.28	859.09
513.64	871.90
514.00	884.81
514.37	897.83
514.73	910.94
515.09	924.10
515.45	937.09
515.81	950.22
516.17	963.70
516.53	977.03
516.89	990.20
517.25	1003.39
517.61	1017.11
517.97	1030.63
518.33	1043.93
518.69	1057.52
519.05	1071.36
519.41	1085.17
519.77	1099.26
520.13	1112.67
520.49	1126.00
520.85	1139.49
521.21	1153.01
521.57	1166.90
521.93	1180.02
522.29	1193.91
522.65	1207.52
523.01	1221.35
523.37	1234.64
523.73	1248.06
524.09	1261.40
524.45	1274.84
524.81	1288.56
525.17	1301.87
525.53	1315.20
525.89	1328.63
526.25	1341.91
526.61	1354.85
526.97	1368.13
527.33	1381.29
527.68	1394.81
528.04	1408.35
528.40	1421.63
528.76	1435.13
529.12	1448.15
529.48	1461.74
529.84	1474.11
530.20	1487.17
530.56	1499.77
530.91	1513.17
531.27	1526.20
531.63	1539.01
531.99	1551.98
532.35	1564.28
532.71	1576.87
533.07	1589.89
533.42	1602.23
533.78	1614.54
534.14	1626.82
534.50	1638.13
534.86	1649.73
535.21	1660.84
535.57	1672.43
535.93	1683.94
536.29	1695.10
536.65	1706.58
537.00	1717.66
537.36	1729.26
537.72	1740.21
538.08	1751.75
538.44	1762.70
538.79	1773.89
539.15	1784.94
539.51	1795.78
539.87	1807.09
540.22	1817.94
540.58	1828.88
540.94	1839.87
541.29	1850.22
541.65	1860.11
542.01	1870.69
542.37	1880.75
542.72	1891.02
543.08	1900.87
543.44	1911.30
543.79	1920.72
544.15	1930.18
544.51	1940.23
544.87	1950.15
545.22	1959.44
545.58	1968.43
545.94	1977.53
546.29	1986.06
546.65	1994.50
547.01	2002.83
547.36	2010.68
547.72	2018.47
548.07	2026.19
548.43	2033.93
548.79	2041.86
549.14	2049.93
549.50	2058.47
549.86	2066.54
550.21	2073.96
550.57	2081.76
550.92	2088.64
551.28	2096.23
551.64	2103.61
551.99	2111.14
552.35	2118.31
552.70	2125.22
553.06	2131.86
553.41	2138.14
553.77	2144.64
554.13	2151.13
554.48	2158.31
554.84	2165.52
555.19	2172.16
555.55	2178.66
555.90	2185.08
556.26	2191.74
556.61	2197.89
556.97	2202.69
557.32	2208.50
557.68	2215.03
558.03	2220.92
558.39	2226.24
558.74	2232.13
559.10	2237.71
559.45	2243.32
559.81	2248.93
560.16	2254.63
560.52	2260.73
560.87	2267.22
561.23	2273.30
561.58	2280.01
561.94	2285.04
562.29	2289.79
562.64	2295.98
563.00	2301.65
563.35	2307.27
563.71	2313.23
564.06	2319.01
564.42	2325.06
564.77	2330.14
565.12	2335.46
565.48	2340.40
565.83	2346.13
566.19	2351.70
566.54	2357.21
566.89	2361.94
567.25	2366.67
567.60	2372.38
567.96	2377.40
568.31	2381.98
568.66	2386.38
569.02	2390.19
569.37	2394.13
569.72	2398.68
570.08	2402.17
570.43	2405.47
570.78	2408.74
571.14	2411.30
571.49	2414.47
571.84	2418.14
572.20	2421.10
572.55	2424.00
572.90	2426.40
573.26	2429.15
573.61	2431.75
573.96	2433.86
574.31	2435.86
574.67	2437.64
575.02	2438.47
575.37	2440.06
575.72	2440.76
576.08	2442.16
576.43	2442.45
576.78	2442.90
577.13	2444.29
577.49	2445.45
577.84	2446.41
578.19	2447.57
578.54	2448.24
578.90	2448.90
579.25	2448.80
579.60	2448.84
579.95	2448.20
580.30	2448.41
580.66	2447.85
581.01	2446.06
581.36	2443.72
581.71	2442.37
582.06	2441.34
582.42	2440.42
582.77	2438.13
583.12	2436.54
583.47	2435.22
583.82	2434.48
584.17	2433.33
584.53	2431.28
584.88	2429.22
585.23	2427.42
585.58	2425.17
585.93	2423.10
586.28	2420.85
586.63	2418.21
586.98	2415.99
587.34	2413.82
587.69	2411.28
588.04	2409.08
588.39	2407.69
588.74	2405.41
589.09	2402.64
589.44	2399.38
589.79	2396.97
590.14	2394.96
590.49	2392.12
590.84	2388.26
591.19	2385.15
591.54	2381.78
591.89	2377.74
592.25	2374.60
592.60	2370.32
592.95	2366.21
593.30	2362.05
593.65	2357.70
594.00	2353.37
594.35	2350.29
594.70	2345.70
595.05	2341.18
595.40	2335.62
595.75	2329.81
596.10	2326.01
596.45	2321.24
596.80	2316.64
597.15	2311.29
597.50	2305.34
597.85	2300.36
598.19	2295.08
598.54	2289.35
598.89	2284.17
599.24	2279.61
599.59	2273.33
599.94	2267.43
600.29	2261.33
600.64	2255.35
600.99	2248.56
601.34	2243.09
601.69	2235.99
602.04	2229.49
602.39	2222.71
602.74	2216.64
603.08	2211.06
603.43	2204.34
603.78	2197.27
604.13	2190.17
604.48	2182.95
604.83	2176.89
605.18	2170.61
605.53	2163.66
605.87	2156.44
606.22	2149.69
606.57	2141.69
606.92	2133.68
607.27	2126.71
607.62	2120.06
607.96	2112.98
608.31	2106.56
608.66	2098.66
609.01	2091.06
609.36	2084.10
609.70	2076.35
610.05	2068.55
610.40	2060.34
610.75	2052.07
611.10	2044.32
611.44	2035.30
611.79	2026.49
612.14	2016.33
612.49	2005.65
612.83	1996.12
613.18	1986.89
613.53	1977.38
613.88	1967.75
614.22	1959.12
614.57	1949.27
614.92	1938.70
615.27	1928.35
615.61	1918.01
615.96	1908.32
616.31	1898.66
616.65	1889.14
617.00	1879.40
617.35	1869.67
617.70	1859.73
618.04	1849.69
618.39	1839.48
618.74	1829.75
619.08	1820.06
619.43	1811.39
619.78	1803.06
620.12	1794.50
620.47	1784.76
620.82	1774.50
621.16	1764.62
621.51	1754.55
621.85	1744.56
622.20	1734.08
622.55	1723.39
622.89	1713.42
623.24	1703.62
623.59	1693.68
623.93	1683.42
624.28	1673.63
624.62	1663.51
624.97	1653.07
625.32	1643.20
625.66	1634.22
626.01	1625.46
626.35	1615.98
626.70	1605.78
627.04	1595.53
627.39	1585.36
627.73	1576.05
628.08	1566.92
628.43	1557.19
628.77	1547.94
629.12	1538.88
629.46	1530.88
629.81	1522.61
630.15	1513.01
630.50	1503.10
630.84	1492.54
631.19	1482.60
631.53	1473.10
631.88	1462.74
632.22	1452.75
632.57	1443.25
632.91	1433.11
633.26	1423.16
633.60	1413.51
633.95	1404.17
634.29	1394.65
634.64	1385.15
634.98	1375.17
635.32	1365.85
635.67	1357.28
636.01	1347.94
636.36	1338.15
636.70	1328.66
637.05	1319.24
637.39	1310.27
637.73	1301.55
638.08	1294.00
638.42	1285.65
638.77	1276.85
639.11	1268.60
639.45	1260.69
639.80	1252.01
640.14	1243.17
640.49	1234.23
640.83	1225.38
641.17	1217.14
641.52	1208.97
641.86	1200.38
642.20	1192.43
642.55	1183.63
642.89	1174.64
643.23	1165.92
643.58	1157.80
643.92	1148.51
644.26	1139.55
644.61	1131.00
644.95	1122.18
645.29	1112.79
645.64	1103.58
645.98	1094.97
646.32	1086.93
646.66	1078.29
647.01	1069.97
647.35	1061.76
647.69	1053.30
648.04	1044.92
648.38	1035.99
648.72	1027.06
649.06	1018.49
649.41	1010.17
649.75	1002.16
650.09	994.28
650.43	986.05
650.78	977.59
651.12	969.91
651.46	962.46
651.80	955.18
652.14	947.80
652.49	940.23
652.83	932.78
653.17	924.89
653.51	917.12
653.85	909.92
654.20	902.49
654.54	894.94
654.88	887.61
655.22	880.28
655.56	873.19
655.90	866.33
656.25	859.56
656.59	852.61
656.93	845.49
657.27	838.20
657.61	831.17
657.95	824.97
658.29	818.98
658.64	812.79
658.98	806.17
659.32	799.56
659.66	793.24
660.00	786.85
660.34	780.82
660.68	774.63
661.02	768.16
661.36	762.15
661.70	756.35
662.05	750.72
662.39	745.14
662.73	739.69
663.07	734.22
663.41	728.49
663.75	722.72
664.09	717.02
664.43	711.58
664.77	706.15
665.11	700.27
665.45	694.27
665.79	688.43
666.13	682.76
666.47	677.15
666.81	671.63
667.15	666.18
667.49	660.95
667.83	655.64
668.17	650.25
668.51	645.12
668.85	640.10
669.19	635.13
669.53	630.07
669.87	624.88
670.21	620.05
670.55	615.29
670.89	610.74
671.23	606.35
671.57	601.92
671.91	597.57
672.25	593.46
672.58	589.35
672.92	585.21
673.26	581.19
673.60	577.21
673.94	573.34
674.28	569.70
674.62	565.88
674.96	562.11
675.30	558.56
675.64	554.77
675.97	551.06
676.31	547.37
676.65	543.68
676.99	540.20
677.33	536.34
677.67	532.69
678.01	528.78
678.34	525.10
678.68	521.53
679.02	517.89
679.36	514.09
679.70	510.31
680.04	506.78
680.37	503.24
680.71	499.88
681.05	496.63
681.39	493.31
681.73	490.10
682.06	487.01
682.40	483.87
682.74	480.69
683.08	477.46
683.42	474.21
683.75	471.21
684.09	468.15
684.43	465.26
684.77	462.27
685.10	459.38
685.44	456.39
685.78	453.41
686.12	450.60
686.45	447.88
686.79	445.18
687.13	442.56
687.46	439.94
687.80	437.25
688.14	434.39
688.48	431.70
688.81	428.99
689.15	426.36
689.49	423.69
689.82	421.04
690.16	418.38
690.50	415.86
690.83	413.31
691.17	410.71
691.51	408.22
691.84	405.91
692.18	403.75
692.52	401.53
692.85	399.37
693.19	397.21
693.52	394.98
693.86	392.77
694.20	390.53
694.53	388.32
694.87	386.14
695.21	383.98
695.54	381.76
695.88	379.52
696.21	377.29
696.55	375.20
696.88	373.17
697.22	371.22
697.56	369.35
697.89	367.48
698.23	365.73
698.56	363.88
698.90	362.08
699.23	360.10
699.57	358.18
699.90	356.24
700.24	354.44
700.58	352.65
700.91	350.92
701.25	349.33
701.58	347.69
701.92	346.08
702.25	344.42
702.59	342.82
702.92	341.31
703.26	339.71
703.59	338.19
703.93	336.87
704.26	335.42
704.60	333.85
704.93	332.30
705.26	330.74
705.60	329.26
705.93	327.73
706.27	326.36
706.60	325.10
706.94	323.89
707.27	322.43
707.61	321.06
707.94	319.70
708.27	318.17
708.61	316.71
708.94	315.25
709.28	313.97
709.61	312.70
709.94	311.49
710.28	310.27
710.61	309.09
710.95	307.67
711.28	306.57
711.61	305.33
711.95	304.19
712.28	303.01
712.61	301.80
712.95	300.73
713.28	299.65
713.61	298.51
713.95	297.34
714.28	296.36
714.61	295.31
714.95	294.30
715.28	293.26
715.61	292.20
715.95	291.27
716.28	290.28
716.61	289.36
716.95	288.31
717.28	287.39
717.61	286.42
717.94	285.52
718.28	284.45
718.61	283.60
718.94	282.67
719.27	281.82
719.61	281.03
719.94	280.16
720.27	279.22
720.60	278.34
720.94	277.50
721.27	276.70
721.60	275.99
721.93	275.26
722.27	274.61
722.60	273.95
722.93	273.20
723.26	272.53
723.59	271.78
723.93	271.16
724.26	270.47
724.59	269.81
724.92	269.20
725.25	268.68
725.59	268.06
725.92	267.52
726.25	266.92
726.58	266.32
726.91	265.70
727.24	265.16
727.57	264.59
727.91	263.95
728.24	263.42
728.57	262.81
728.90	262.22
729.23	261.59
729.56	261.17
729.89	260.64
730.22	260.08
730.55	259.49
730.89	258.93
731.22	258.41
731.55	257.89
731.88	257.37
732.21	256.81
732.54	256.29
732.87	255.77
733.20	255.29
733.53	254.79
733.86	254.33
734.19	253.81
734.52	253.41
734.85	253.15
735.18	252.64
735.51	252.27
735.84	251.86
736.17	251.48
736.50	250.88
736.83	250.75
737.16	250.35
737.49	250.00
737.82	249.59
738.15	249.24
738.48	248.82
738.81	248.44
739.14	248.00
739.47	247.62
739.80	247.25
740.13	246.89
740.46	246.50
740.79	246.10
741.12	245.76
741.45	245.32
741.78	244.89
742.11	244.65
742.44	244.24
742.77	243.90
743.10	243.53
743.43	243.22
743.75	242.61
744.08	242.54
744.41	242.17
744.74	241.80
745.07	241.41
745.40	241.13
745.73	240.83
746.06	240.50
746.39	240.20
746.71	239.86
747.04	239.50
747.37	239.17
747.70	238.89
748.03	238.60
748.36	238.34
748.68	238.02
749.01	237.65
749.34	237.36
749.67	237.08
750.00	236.84
750.33	236.67
750.65	236.44
750.98	235.94
751.31	235.68
751.64	235.44
751.97	235.30
752.29	235.04
752.62	234.70
752.95	234.45
753.28	234.19
753.60	233.96
753.93	233.81
754.26	233.59
754.59	233.30
754.91	233.01
755.24	232.81
755.57	232.55
755.90	232.31
756.22	232.08
756.55	231.82
756.88	231.57
757.20	231.26
757.53	231.01
757.86	230.75
758.19	230.55
758.51	230.35
758.84	230.05
759.17	229.87
759.49	229.69
759.82	229.63
760.15	229.45
760.47	229.27
760.80	229.00
761.13	228.84
761.45	228.68
761.78	228.52
762.11	228.32
762.43	228.16
762.76	227.97
763.08	227.84
763.41	227.69
763.74	227.56
764.06	227.37
764.39	227.22
764.71	227.05
765.04	226.89
765.37	226.76
765.69	226.60
766.02	226.41
766.34	226.28
766.67	226.06
767.00	225.94
767.32	225.92
767.65	225.91
767.97	225.77
768.30	225.66
768.62	225.57
768.95	225.41
769.27	225.28
769.60	225.22
769.92	225.07
770.25	224.94
770.57	224.79
770.90	224.68
771.22	224.56
771.55	224.44
771.87	224.35
772.20	224.23
772.52	224.29
772.85	224.45
773.17	224.33
773.50	224.21
773.82	224.09
774.15	223.86
774.47	223.61
774.80	223.52
775.12	223.41
775.45	223.28
775.77	223.20
776.09	223.11
776.42	222.99
776.74	222.93
777.07	222.84
777.39	222.74
777.72	222.63
778.04	222.53
778.36	222.48
778.69	222.39
779.01	222.28
779.33	222.01
779.66	221.65
779.98	221.53
780.31	221.47
780.63	221.45
780.95	221.41
781.28	221.35
781.60	221.22
781.92	221.16
782.25	221.09
782.57	221.03
782.89	220.95
783.22	220.87
783.54	220.74
783.86	220.70
784.19	220.62
784.51	220.62
784.83	220.54
785.16	220.46
785.48	220.39
785.80	220.36
786.12	220.34
786.45	220.32
786.77	220.29
787.09	220.22
787.42	220.10
787.74	220.04
788.06	220.03
788.38	219.94
788.71	219.90
789.03	219.85
789.35	219.82
789.67	219.75
789.99	219.74
790.32	219.69
790.64	219.65
790.96	219.78
791.28	219.66
791.61	219.64
791.93	219.61
792.25	219.56
792.57	219.66
792.89	219.57
793.21	219.48
793.54	219.43
793.86	219.37
794.18	219.38
794.50	219.27
794.82	219.18
795.14	219.20
795.47	219.16
795.79	219.12
796.11	219.02
796.43	218.98
796.75	218.91
797.07	218.90
797.39	218.85
797.71	218.65
798.04	218.61
798.36	218.56
798.68	218.49
799.00	218.45
799.32	218.31
799.64	218.31
799.96	218.28
800.28	218.28
800.60	218.23
800.92	218.19
801.24	218.13
801.56	218.13
801.89	218.07
802.21	218.04
802.53	217.98
802.85	217.98
803.17	218.01
803.49	217.94
803.81	217.88
804.13	217.82
804.45	217.79
804.77	217.80
805.09	217.77
805.41	217.75
805.73	217.68
806.05	217.60
806.37	217.55
806.69	217.51
807.01	217.46
807.33	217.45
807.65	217.34
807.97	217.42
808.28	217.38
808.60	217.34
808.92	217.29
809.24	217.40
809.56	217.37
809.88	217.28
810.20	217.25
810.52	217.25
810.84	217.20
811.16	217.13
811.48	217.07
811.80	217.12
812.12	217.06
812.43	217.08
812.75	217.10
813.07	217.07
813.39	217.10
813.71	217.04
814.03	216.96
814.35	216.94
814.67	216.84
814.98	216.78
815.30	216.76
815.62	216.70
815.94	216.53
816.26	216.48
816.58	216.43
816.89	216.46
817.21	216.39
817.53	216.36
817.85	216.35
818.17	216.35
818.48	216.24
818.80	216.31
819.12	216.24
819.44	216.15
819.76	216.08
820.07	216.02
820.39	216.00
820.71	216.03
821.03	216.03
821.34	215.99
821.66	216.00
821.98	215.99
822.30	215.98
822.61	216.11
822.93	216.12
823.25	216.09
823.57	216.04
823.88	216.09
824.20	216.09
824.52	216.11
824.83	216.10
825.15	216.08
825.47	216.02
825.79	216.05
826.10	216.02
826.42	216.02
826.74	216.06
827.05	216.03
827.37	216.01
827.69	215.96
828.00	215.96
828.32	215.97
828.64	215.97
828.95	216.06
829.27	215.94
829.58	215.92
829.90	215.94
830.22	215.96
830.53	215.85
830.85	215.81
831.17	215.76
831.48	215.69
831.80	215.68
832.11	215.65
832.43	215.61
832.75	215.61
833.06	215.76
833.38	215.68
833.69	215.71
834.01	215.71
834.32	215.73
834.64	215.68
834.96	215.66
835.27	215.64
835.59	215.55
835.90	215.53
836.22	215.52
836.53	215.48
836.85	215.41
837.16	215.66
837.48	215.65
837.79	215.71
838.11	215.75
838.42	215.75
838.74	215.78
839.05	215.74
839.37	215.73
839.68	215.56
840.00	215.55
840.31	215.56
840.63	215.55
840.94	215.50
841.26	215.48
841.57	215.45
841.88	215.44
842.20	215.43
842.51	215.41
842.83	215.41
843.14	215.61
843.46	215.61
843.77	215.51
844.08	215.51
844.40	215.44
844.71	215.40
845.03	215.40
845.34	215.36
845.65	215.40
845.97	215.40
846.28	215.41
846.60	215.42
846.91	215.38
847.22	215.39
847.54	215.42
847.85	215.48
848.16	215.51
848.48	215.45
848.79	215.56
849.10	215.59
849.42	215.57
849.73	215.35
850.04	215.35
850.36	215.23
850.67	215.26
850.98	215.28
851.30	215.33
851.61	215.29
851.92	215.28
852.23	215.32
852.55	215.34
852.86	215.38
853.17	215.39
853.49	215.44
853.80	215.46
854.11	215.51
854.42	215.51
854.74	215.45
855.05	215.45
855.36	215.29
855.67	215.24
855.99	215.26
856.30	215.49
856.61	215.48
856.92	215.53
857.23	215.49
857.55	215.43
857.86	215.40
858.17	215.46
858.48	215.44
858.79	215.40
859.11	215.38
859.42	215.35
859.73	215.31
860.04	215.28
860.35	215.23
860.66	215.16
860.98	215.16
861.29	215.18
861.60	215.18
861.91	215.23
862.22	215.24
862.53	215.17
862.84	214.94
863.16	215.00
863.47	214.94
863.78	214.95
864.09	214.97
864.40	214.98
864.71	214.98
865.02	214.98
865.33	214.93
865.64	214.92
865.95	214.91
866.27	215.06
866.58	215.03
866.89	215.05
867.20	215.01
867.51	214.96
867.82	214.96
868.13	215.02
868.44	214.97
868.75	214.99
869.06	215.03
869.37	215.07
869.68	214.98
869.99	215.03
870.30	215.03
870.61	215.05
870.92	215.01
871.23	214.99
871.54	215.02
871.85	215.09
872.16	215.14
872.47	215.07
872.78	214.93
873.09	214.96
873.40	214.92
873.71	214.95
874.02	214.98
874.33	214.98
874.64	214.92
874.95	214.97
875.26	214.92
875.56	214.93
875.87	214.90
876.18	214.91
876.49	215.10
876.80	215.07
877.11	215.05
877.42	215.09
877.73	215.07
878.04	215.05
878.35	215.04
878.66	215.02
878.96	215.07
879.27	215.04
879.58	215.01
879.89	215.00
880.20	215.08
880.51	215.02
880.82	215.03
881.12	215.04
881.43	214.99
881.74	214.95
882.05	214.90
882.36	214.90
882.67	214.90
882.97	214.65
883.28	214.62
883.59	214.59
883.90	214.59
884.21	214.61
884.51	214.62
884.82	214.61
885.13	214.58
885.44	214.57
885.74	214.59
886.05	214.60
886.36	214.62
886.67	214.54
886.98	214.67
887.28	214.65
887.59	214.68
887.90	214.73
888.20	214.76
888.51	214.83
888.82	214.79
889.13	214.85
889.43	215.03
889.74	215.03
890.05	215.03
890.35	215.02
890.66	214.98
890.97	214.93
891.28	214.87
891.58	214.87
891.89	214.86
892.20	214.83
892.50	214.82
892.81	214.78
893.12	214.77
893.42	214.68
893.73	214.73
894.04	214.71
894.34	214.70
894.65	214.67
894.95	214.62
895.26	214.63
895.57	214.69
895.87	214.51
896.18	214.55
896.48	214.60
896.79	214.58
897.10	214.60
897.40	214.62
897.71	214.66
898.01	214.66
898.32	214.67
898.63	214.66
898.93	214.68
899.24	214.70
899.54	214.69
899.85	214.64
900.15	214.58
900.46	214.57
900.76	214.55
901.07	214.57
901.38	214.55
901.68	214.59
901.99	214.48
902.29	214.51
902.60	214.48
902.90	214.43
903.21	214.47
903.51	214.46
903.82	214.49
904.12	214.47
904.43	214.46
904.73	214.47
905.03	214.47
905.34	214.66
905.64	214.66
905.95	214.69
906.25	214.71
906.56	214.71
906.86	214.73
907.17	214.70
907.47	214.69
907.77	214.71
908.08	214.67
908.38	214.65
908.69	214.66
908.99	214.68
909.30	214.70
909.60	214.66
909.90	214.68
910.21	214.63
910.51	214.59
910.81	214.64
911.12	214.64
911.42	214.64
911.73	214.39
912.03	214.36
912.33	214.38
912.64	214.39
912.94	214.38
913.24	214.34
913.55	214.38
913.85	214.39
914.15	214.42
914.46	214.46
914.76	214.44
915.06	214.45
915.37	214.41
915.67	214.40
915.97	214.43
916.27	214.39
916.58	214.42
916.88	214.45
917.18	214.41
917.49	214.53
917.79	214.54
918.09	214.60
918.39	214.68
918.70	214.71
919.00	214.76
919.30	214.87
919.60	214.82
919.91	214.77
920.21	214.76
920.51	214.72
920.81	214.69
921.12	214.75
921.42	214.72
921.72	214.74
922.02	214.75
922.32	214.78
922.63	214.77
922.93	214.85
923.23	214.87
923.53	214.85
923.83	214.73
924.13	214.76
924.44	214.75
924.74	214.78
925.04	214.77
925.34	214.73
925.64	214.64
925.94	214.69
926.24	214.81
926.55	214.79
926.85	214.80
927.15	214.80
927.45	214.79
927.75	214.77
928.05	214.78
928.35	214.75
928.65	214.79
928.95	214.83
929.26	214.72
929.56	214.74
929.86	214.75
930.16	214.73
930.46	214.69
930.76	214.71
931.06	214.62
931.36	214.57
931.66	214.58
931.96	214.59
932.26	214.62
932.56	214.52
932.86	214.54
933.16	214.54
933.46	214.51
933.76	214.48
934.06	214.53
934.36	214.58
934.66	214.58
934.96	214.51
935.26	214.51
935.56	214.53
935.86	214.49
936.16	214.48
936.46	214.45
936.76	214.43
937.06	214.39
937.36	214.40
937.66	214.41
937.96	214.40
938.26	214.35
938.56	214.32
938.86	214.38
939.16	214.39
939.46	214.41
939.76	214.45
940.06	214.44
940.35	214.38
940.65	214.30
940.95	214.31
941.25	214.29
941.55	214.22
941.85	214.22
942.15	214.23
942.45	214.30
942.75	214.31
943.04	214.35
943.34	214.40
943.64	214.37
943.94	214.33
944.24	214.32
944.54	214.34
944.84	214.33
945.13	214.26
945.43	214.25
945.73	214.20
946.03	214.17
946.33	214.16
946.62	214.15
946.92	214.17
947.22	214.19
947.52	214.21
947.82	214.28
948.11	214.27
948.41	214.27
948.71	214.20
949.01	214.25
949.31	214.22
949.60	214.19
949.90	214.25
950.20	214.24
950.50	214.26
950.79	214.25
951.09	214.27
951.39	214.26
951.69	214.24
951.98	214.31
952.28	214.31
952.58	214.29
952.87	214.33
953.17	214.34
953.47	214.29
953.76	214.29
954.06	214.25
954.36	214.23
954.66	214.21
954.95	214.28
955.25	214.29
955.55	214.32
955.84	214.28
956.14	214.27
956.44	214.30
956.73	214.25
957.03	214.25
957.32	214.24
957.62	214.26
957.92	214.30
958.21	214.28
958.51	214.54
958.81	214.54
959.10	214.56
959.40	214.63
959.69	214.65
959.99	214.69
960.29	214.69
960.58	214.67
960.88	214.75
961.17	214.71
961.47	214.70
961.76	214.67
962.06	214.72
962.36	214.74
962.65	214.76
962.95	214.80
963.24	214.78
963.54	214.79
963.83	214.78
964.13	214.77
964.42	214.70
964.72	214.54
965.01	214.57
965.31	214.57
965.60	214.49
965.90	214.60
966.19	214.55
966.49	214.59
966.78	214.57
967.08	214.56
967.37	214.56
967.67	214.50
967.96	214.56
968.26	214.55
968.55	214.55
968.85	214.53
969.14	214.50
969.43	214.48
969.73	214.48
970.02	214.47
970.32	214.47
970.61	214.48
970.91	214.41
971.20	214.38
971.49	214.35
971.79	214.38
972.08	214.25
972.38	214.32
972.67	214.28
972.96	214.34
973.26	214.26
973.55	214.34
973.85	214.36
974.14	214.35
974.43	214.36
974.73	214.29
975.02	214.29
975.31	214.30
975.61	214.31
975.90	214.31
976.19	214.31
976.49	214.33
976.78	214.33
977.07	214.33
977.37	214.35
977.66	214.35
977.95	214.31
978.24	214.32
978.54	214.31
978.83	214.27
979.12	214.24
979.42	214.31
979.71	214.26
980.00	214.25
980.29	214.24
980.59	214.18
980.88	214.26
981.17	214.23
981.46	214.25
981.76	214.26
982.05	214.33
982.34	214.33
982.63	214.29
982.93	214.33
983.22	214.37
983.51	214.38
983.80	214.39
984.09	214.44
984.39	214.44
984.68	214.41
984.97	214.45
985.26	214.42
985.55	214.42
985.85	214.40
986.14	214.42
986.43	214.43
986.72	214.45
987.01	214.37
987.30	214.38
987.59	214.37
987.89	214.39
988.18	214.29
988.47	214.30
988.76	214.31
989.05	214.26
989.34	214.24
989.63	214.32
989.92	214.30
990.22	214.27
990.51	214.23
990.80	214.21
991.09	214.24
991.38	214.29
991.67	214.25
991.96	214.19
992.25	214.22
992.54	214.16
992.83	214.17
993.12	214.17
993.41	214.20
993.70	214.29
993.99	214.29
994.28	214.33
994.58	214.34
994.87	214.32
995.16	214.30
995.45	214.30
995.74	214.17
996.03	214.19
996.32	214.19
996.61	214.25
996.90	214.26
997.19	214.22
997.48	214.21
997.77	214.19
998.06	214.22
998.34	214.20
998.63	214.21
998.92	214.19
999.21	214.23
999.50	214.21
999.79	214.11
1000.08	214.11
1000.37	214.08
1000.66	214.05
1000.95	214.11
1001.24	214.15
1001.53	214.16
1001.82	214.19
1002.11	214.13
1002.40	214.18
1002.68	214.22
1002.97	214.34
1003.26	214.33
1003.55	214.29
1003.84	214.32
1004.13	214.37
1004.42	214.35
1004.71	214.35
1004.99	214.33
1005.28	214.38
1005.57	214.37
1005.86	214.39
1006.15	214.40
1006.44	214.39
1006.72	214.41
1007.01	214.38
1007.30	214.37
1007.59	214.39
1007.88	214.36
1008.17	214.38
1008.45	214.32
1008.74	214.27
1009.03	214.17
1009.32	214.19
1009.60	214.23
1009.89	214.19
1010.18	214.14
1010.47	214.09
1010.76	214.10
1011.04	214.13
1011.33	214.12
1011.62	214.15
1011.91	214.14
1012.19	214.15
1012.48	214.17
1012.77	214.17
1013.05	214.26
1013.34	214.25
1013.63	214.23
1013.92	214.29
1014.20	214.26
1014.49	214.28
1014.78	214.31
1015.06	214.25
1015.35	214.25
1015.64	214.27
1015.92	214.32
1016.21	214.30
1016.50	214.33
1016.78	214.36
1017.07	214.38
1017.36	214.35
1017.64	214.33
1017.93	214.36
1018.22	214.31
1018.50	214.31
1018.79	214.29
1019.08	214.19
1019.36	214.23
1019.65	214.20
1019.93	214.25
1020.22	214.28
1020.51	214.38
1020.79	214.30
1021.08	213.58
1021.36	213.91
1021.65	214.27
1021.94	214.00
1022.22	214.60
1022.51	213.68
1022.79	215.45
1023.08	214.30
1023.36	216.53
1023.65	212.93
>>>>>End Processed Spectral Data<<<<<
