SpectraSuite Data File
++++++++++++++++++++++++++++++++++++
Date: Tue Jan 29 16:27:54 EST 2013
User: group
Dark Spectrum Present: No
Reference Spectrum Present: No
Number of Sampled Component Spectra: 1
Spectrometers: USB2E7196
Integration Time (usec): 65000 (USB2E7196)
Spectra Averaged: 100 (USB2E7196)
Boxcar Smoothing: 10 (USB2E7196)
Correct for Electrical Dark: No (USB2E7196)
Strobe/Lamp Enabled: No (USB2E7196)
Correct for Detector Non-linearity: No (USB2E7196)
Correct for Stray Light: No (USB2E7196)
Number of Pixels in Processed Spectrum: 2048
>>>>>Begin Processed Spectral Data<<<<<
339.09	0.00
339.48	201.13
339.86	203.63
340.24	204.56
340.63	205.61
341.01	211.17
341.39	209.32
341.78	210.87
342.16	211.85
342.54	212.21
342.93	201.28
343.31	211.47
343.69	212.07
344.07	212.53
344.46	213.00
344.84	213.45
345.22	213.61
345.60	213.86
345.99	214.05
346.37	214.18
346.75	214.29
347.13	214.43
347.52	214.50
347.90	214.61
348.28	214.62
348.66	214.65
349.05	214.63
349.43	214.72
349.81	214.80
350.19	214.84
350.57	214.93
350.96	215.01
351.34	215.10
351.72	215.22
352.10	215.33
352.48	215.38
352.87	215.42
353.25	215.50
353.63	215.57
354.01	215.66
354.39	215.76
354.77	215.83
355.15	215.94
355.54	215.99
355.92	215.99
356.30	216.10
356.68	216.33
357.06	216.41
357.44	216.46
357.82	216.51
358.20	216.63
358.58	216.70
358.97	216.77
359.35	216.89
359.73	216.97
360.11	217.04
360.49	217.11
360.87	217.14
361.25	217.20
361.63	217.30
362.01	217.35
362.39	217.36
362.77	217.45
363.15	217.48
363.53	217.52
363.91	217.56
364.29	217.57
364.67	217.40
365.05	217.42
365.43	217.46
365.81	217.53
366.19	217.59
366.57	217.69
366.95	217.72
367.33	217.67
367.71	217.63
368.09	217.68
368.47	217.68
368.85	217.70
369.23	217.77
369.61	217.71
369.99	217.77
370.37	217.79
370.75	217.86
371.13	217.80
371.51	217.75
371.89	217.72
372.27	217.72
372.65	217.70
373.03	217.64
373.41	217.56
373.78	217.50
374.16	217.36
374.54	217.24
374.92	217.18
375.30	217.14
375.68	217.07
376.06	217.03
376.44	216.95
376.82	216.96
377.19	216.87
377.57	216.81
377.95	216.70
378.33	216.62
378.71	216.48
379.09	216.44
379.47	216.42
379.84	216.35
380.22	216.27
380.60	216.20
380.98	216.14
381.36	216.11
381.73	216.05
382.11	216.04
382.49	215.99
382.87	215.86
383.25	215.82
383.62	216.04
384.00	215.95
384.38	215.90
384.76	215.88
385.13	215.94
385.51	215.93
385.89	215.85
386.27	215.82
386.64	215.78
387.02	215.72
387.40	215.69
387.78	215.68
388.15	215.64
388.53	215.62
388.91	215.64
389.29	215.58
389.66	215.62
390.04	215.61
390.42	215.65
390.79	215.69
391.17	215.66
391.55	215.40
391.92	215.37
392.30	215.39
392.68	215.33
393.05	215.27
393.43	215.24
393.81	215.26
394.18	215.24
394.56	215.26
394.94	215.31
395.31	215.30
395.69	215.37
396.06	215.45
396.44	215.50
396.82	215.48
397.19	215.62
397.57	215.56
397.95	215.59
398.32	215.54
398.70	215.59
399.07	215.68
399.45	215.74
399.82	215.78
400.20	215.83
400.58	215.92
400.95	215.90
401.33	216.01
401.70	216.23
402.08	216.34
402.45	216.41
402.83	216.51
403.20	216.63
403.58	216.70
403.95	216.85
404.33	216.98
404.71	217.14
405.08	217.42
405.46	217.63
405.83	217.86
406.21	218.09
406.58	218.33
406.96	218.55
407.33	218.81
407.70	219.17
408.08	219.62
408.45	219.95
408.83	220.32
409.20	220.67
409.58	220.94
409.95	221.37
410.33	221.86
410.70	222.29
411.08	222.82
411.45	223.39
411.82	223.97
412.20	224.67
412.57	225.50
412.95	226.06
413.32	226.85
413.69	227.65
414.07	228.56
414.44	229.54
414.82	230.57
415.19	231.72
415.56	232.88
415.94	234.05
416.31	235.45
416.68	236.90
417.06	238.50
417.43	240.07
417.81	241.81
418.18	243.57
418.55	245.54
418.93	247.59
419.30	249.71
419.67	251.92
420.04	254.18
420.42	256.54
420.79	259.35
421.16	262.15
421.54	265.07
421.91	268.05
422.28	271.18
422.66	274.47
423.03	277.75
423.40	281.11
423.77	284.69
424.15	288.34
424.52	292.16
424.89	296.32
425.26	300.38
425.64	304.27
426.01	308.56
426.38	313.06
426.75	317.62
427.13	322.34
427.50	327.29
427.87	332.49
428.24	337.67
428.61	342.61
428.99	348.08
429.36	354.07
429.73	359.88
430.10	365.70
430.47	371.75
430.85	377.98
431.22	384.67
431.59	391.80
431.96	398.61
432.33	406.09
432.70	413.34
433.08	421.86
433.45	429.91
433.82	437.95
434.19	446.74
434.56	455.39
434.93	463.70
435.30	471.98
435.68	481.04
436.05	490.02
436.42	498.96
436.79	507.18
437.16	515.91
437.53	525.19
437.90	534.35
438.27	543.27
438.64	552.49
439.01	560.94
439.38	568.50
439.75	575.77
440.13	584.22
440.50	592.10
440.87	598.50
441.24	605.08
441.61	612.37
441.98	617.78
442.35	624.13
442.72	630.41
443.09	636.43
443.46	640.17
443.83	642.67
444.20	644.92
444.57	647.96
444.94	649.46
445.31	650.89
445.68	652.25
446.05	652.90
446.42	652.18
446.79	651.24
447.16	650.12
447.53	649.47
447.90	646.11
448.27	642.83
448.64	638.17
449.01	634.88
449.37	629.02
449.74	623.32
450.11	616.36
450.48	608.96
450.85	601.51
451.22	595.08
451.59	588.94
451.96	583.06
452.33	575.28
452.70	568.15
453.07	559.74
453.43	551.15
453.80	542.83
454.17	534.82
454.54	527.35
454.91	519.27
455.28	511.20
455.65	503.84
456.02	496.43
456.38	490.11
456.75	482.24
457.12	475.65
457.49	469.18
457.86	463.03
458.23	457.71
458.59	451.83
458.96	445.84
459.33	440.60
459.70	435.22
460.07	430.90
460.43	426.03
460.80	421.45
461.17	417.49
461.54	413.35
461.91	409.34
462.27	405.18
462.64	401.69
463.01	397.98
463.38	394.25
463.74	390.52
464.11	387.26
464.48	384.48
464.85	381.38
465.21	378.96
465.58	376.35
465.95	373.20
466.32	370.64
466.68	368.08
467.05	365.45
467.42	362.89
467.78	360.26
468.15	357.71
468.52	355.77
468.88	353.23
469.25	350.99
469.62	349.23
469.98	347.35
470.35	345.57
470.72	343.90
471.08	342.10
471.45	340.57
471.82	339.03
472.18	337.31
472.55	336.13
472.92	334.73
473.28	333.48
473.65	332.33
474.02	331.21
474.38	330.34
474.75	329.57
475.11	328.78
475.48	328.24
475.85	327.80
476.21	327.35
476.58	327.05
476.94	326.81
477.31	326.50
477.67	326.22
478.04	326.10
478.41	325.96
478.77	326.15
479.14	326.13
479.50	326.27
479.87	326.62
480.23	326.95
480.60	327.20
480.96	327.52
481.33	328.13
481.69	328.70
482.06	329.20
482.42	329.73
482.79	330.33
483.15	331.07
483.52	332.01
483.88	332.87
484.25	333.81
484.61	334.83
484.98	335.84
485.34	337.15
485.71	338.51
486.07	339.95
486.44	341.28
486.80	342.95
487.17	344.65
487.53	346.48
487.90	348.36
488.26	350.38
488.62	352.57
488.99	354.63
489.35	356.76
489.72	359.13
490.08	361.69
490.44	364.28
490.81	367.02
491.17	369.74
491.54	372.75
491.90	375.83
492.26	379.10
492.63	382.55
492.99	386.08
493.36	389.73
493.72	393.63
494.08	397.62
494.45	401.82
494.81	406.16
495.17	410.60
495.54	415.30
495.90	420.13
496.26	425.04
496.63	430.25
496.99	435.69
497.35	441.27
497.72	447.06
498.08	452.99
498.44	459.04
498.80	465.49
499.17	472.04
499.53	478.71
499.89	485.60
500.26	492.67
500.62	499.81
500.98	507.25
501.34	514.77
501.71	522.55
502.07	530.40
502.43	538.47
502.79	546.71
503.16	555.12
503.52	563.81
503.88	572.62
504.24	581.59
504.60	590.61
504.97	599.96
505.33	609.27
505.69	619.20
506.05	629.16
506.41	639.08
506.78	649.22
507.14	659.54
507.50	670.11
507.86	680.81
508.22	691.61
508.59	702.33
508.95	713.47
509.31	724.87
509.67	736.43
510.03	747.91
510.39	759.68
510.75	771.70
511.12	783.72
511.48	795.87
511.84	808.24
512.20	820.79
512.56	833.42
512.92	846.34
513.28	859.07
513.64	871.99
514.00	884.89
514.37	897.96
514.73	911.11
515.09	924.17
515.45	937.14
515.81	950.31
516.17	963.85
516.53	977.14
516.89	990.34
517.25	1003.58
517.61	1017.25
517.97	1030.76
518.33	1043.94
518.69	1057.50
519.05	1071.31
519.41	1085.12
519.77	1099.16
520.13	1112.62
520.49	1125.93
520.85	1139.40
521.21	1152.80
521.57	1166.66
521.93	1179.78
522.29	1193.80
522.65	1207.57
523.01	1221.33
523.37	1234.71
523.73	1248.16
524.09	1261.50
524.45	1274.98
524.81	1288.63
525.17	1302.05
525.53	1315.45
525.89	1328.92
526.25	1342.27
526.61	1355.27
526.97	1368.47
527.33	1381.47
527.68	1395.11
528.04	1408.72
528.40	1421.99
528.76	1435.48
529.12	1448.52
529.48	1462.04
529.84	1474.35
530.20	1487.27
530.56	1500.04
530.91	1513.32
531.27	1526.19
531.63	1539.01
531.99	1552.08
532.35	1564.30
532.71	1576.94
533.07	1589.90
533.42	1602.17
533.78	1614.43
534.14	1626.58
534.50	1637.90
534.86	1649.61
535.21	1660.63
535.57	1672.21
535.93	1683.63
536.29	1694.83
536.65	1706.38
537.00	1717.44
537.36	1728.93
537.72	1739.99
538.08	1751.53
538.44	1762.53
538.79	1773.68
539.15	1784.77
539.51	1795.56
539.87	1807.09
540.22	1817.92
540.58	1828.94
540.94	1840.01
541.29	1850.34
541.65	1860.24
542.01	1870.90
542.37	1881.09
542.72	1891.30
543.08	1901.25
543.44	1911.92
543.79	1921.31
544.15	1930.80
544.51	1940.86
544.87	1950.92
545.22	1960.21
545.58	1969.16
545.94	1978.18
546.29	1986.85
546.65	1995.31
547.01	2003.61
547.36	2011.36
547.72	2019.13
548.07	2026.72
548.43	2034.55
548.79	2042.59
549.14	2050.86
549.50	2059.37
549.86	2067.26
550.21	2074.77
550.57	2082.43
550.92	2089.19
551.28	2096.77
551.64	2104.10
551.99	2111.64
552.35	2118.67
552.70	2125.64
553.06	2132.37
553.41	2138.68
553.77	2145.32
554.13	2151.71
554.48	2158.76
554.84	2166.07
555.19	2172.62
555.55	2179.13
555.90	2185.41
556.26	2192.15
556.61	2198.28
556.97	2203.08
557.32	2208.86
557.68	2215.29
558.03	2221.11
558.39	2226.64
558.74	2232.59
559.10	2238.23
559.45	2243.71
559.81	2249.35
560.16	2254.86
560.52	2260.76
560.87	2267.15
561.23	2273.09
561.58	2279.80
561.94	2285.06
562.29	2289.70
562.64	2295.89
563.00	2301.61
563.35	2307.25
563.71	2313.16
564.06	2318.86
564.42	2325.04
564.77	2330.14
565.12	2335.54
565.48	2340.75
565.83	2346.24
566.19	2351.71
566.54	2357.05
566.89	2361.77
567.25	2366.48
567.60	2372.18
567.96	2377.38
568.31	2382.05
568.66	2386.32
569.02	2390.22
569.37	2394.04
569.72	2398.42
570.08	2401.94
570.43	2405.09
570.78	2408.32
571.14	2410.75
571.49	2413.88
571.84	2417.39
572.20	2420.47
572.55	2423.39
572.90	2425.72
573.26	2428.50
573.61	2431.20
573.96	2433.47
574.31	2435.49
574.67	2437.48
575.02	2438.27
575.37	2439.65
575.72	2440.25
576.08	2441.74
576.43	2442.03
576.78	2442.58
577.13	2444.19
577.49	2445.44
577.84	2446.36
578.19	2447.59
578.54	2448.11
578.90	2448.88
579.25	2448.77
579.60	2448.65
579.95	2447.99
580.30	2448.11
580.66	2447.30
581.01	2445.74
581.36	2443.31
581.71	2441.91
582.06	2440.59
582.42	2439.95
582.77	2437.62
583.12	2436.10
583.47	2434.82
583.82	2434.13
584.17	2432.77
584.53	2430.70
584.88	2428.59
585.23	2426.85
585.58	2424.51
585.93	2422.55
586.28	2420.39
586.63	2417.87
586.98	2415.60
587.34	2413.50
587.69	2411.01
588.04	2409.01
588.39	2407.46
588.74	2404.88
589.09	2402.22
589.44	2399.11
589.79	2396.32
590.14	2394.50
590.49	2391.71
590.84	2387.69
591.19	2384.56
591.54	2381.31
591.89	2377.05
592.25	2373.84
592.60	2369.67
592.95	2365.66
593.30	2361.50
593.65	2356.97
594.00	2352.53
594.35	2349.69
594.70	2344.89
595.05	2340.30
595.40	2334.84
595.75	2328.79
596.10	2325.22
596.45	2320.29
596.80	2315.68
597.15	2310.64
597.50	2304.63
597.85	2299.66
598.19	2294.52
598.54	2288.72
598.89	2283.53
599.24	2279.13
599.59	2272.91
599.94	2266.93
600.29	2260.95
600.64	2254.97
600.99	2248.15
601.34	2242.77
601.69	2235.43
602.04	2229.23
602.39	2222.48
602.74	2216.27
603.08	2210.90
603.43	2204.47
603.78	2197.59
604.13	2190.47
604.48	2183.07
604.83	2176.90
605.18	2170.54
605.53	2163.55
605.87	2156.34
606.22	2149.58
606.57	2141.54
606.92	2133.43
607.27	2126.47
607.62	2119.65
607.96	2112.59
608.31	2106.19
608.66	2098.27
609.01	2090.79
609.36	2083.52
609.70	2075.87
610.05	2068.09
610.40	2059.54
610.75	2051.01
611.10	2043.26
611.44	2034.29
611.79	2025.50
612.14	2015.44
612.49	2004.77
612.83	1995.31
613.18	1986.07
613.53	1976.58
613.88	1966.98
614.22	1958.35
614.57	1948.46
614.92	1937.87
615.27	1927.59
615.61	1917.27
615.96	1907.51
616.31	1897.73
616.65	1888.16
617.00	1878.28
617.35	1868.52
617.70	1858.81
618.04	1848.80
618.39	1838.56
618.74	1828.93
619.08	1819.17
619.43	1810.44
619.78	1802.21
620.12	1793.64
620.47	1783.95
620.82	1773.44
621.16	1763.58
621.51	1753.68
621.85	1743.75
622.20	1733.28
622.55	1722.67
622.89	1712.62
623.24	1702.90
623.59	1693.08
623.93	1682.92
624.28	1673.10
624.62	1662.88
624.97	1652.45
625.32	1642.48
625.66	1633.60
626.01	1624.71
626.35	1615.36
626.70	1605.24
627.04	1595.01
627.39	1584.79
627.73	1575.49
628.08	1566.53
628.43	1556.86
628.77	1547.48
629.12	1538.60
629.46	1530.70
629.81	1522.26
630.15	1512.78
630.50	1502.79
630.84	1492.10
631.19	1482.14
631.53	1472.78
631.88	1462.61
632.22	1452.58
632.57	1443.20
632.91	1432.92
633.26	1423.02
633.60	1413.37
633.95	1403.97
634.29	1394.41
634.64	1385.09
634.98	1375.00
635.32	1365.70
635.67	1357.19
636.01	1347.83
636.36	1338.03
636.70	1328.40
637.05	1318.94
637.39	1309.89
637.73	1301.20
638.08	1293.74
638.42	1285.54
638.77	1276.74
639.11	1268.48
639.45	1260.61
639.80	1251.96
640.14	1243.15
640.49	1234.14
640.83	1225.17
641.17	1217.03
641.52	1208.84
641.86	1200.10
642.20	1192.20
642.55	1183.42
642.89	1174.38
643.23	1165.69
643.58	1157.42
643.92	1148.29
644.26	1139.54
644.61	1131.09
644.95	1122.32
645.29	1112.99
645.64	1103.73
645.98	1095.11
646.32	1087.00
646.66	1078.43
647.01	1070.06
647.35	1061.84
647.69	1053.44
648.04	1045.12
648.38	1036.15
648.72	1027.26
649.06	1018.71
649.41	1010.44
649.75	1002.47
650.09	994.55
650.43	986.41
650.78	977.96
651.12	970.25
651.46	962.71
651.80	955.32
652.14	947.82
652.49	940.27
652.83	932.80
653.17	925.00
653.51	917.31
653.85	909.92
654.20	902.60
654.54	895.05
654.88	887.78
655.22	880.48
655.56	873.33
655.90	866.44
656.25	859.68
656.59	852.68
656.93	845.56
657.27	838.34
657.61	831.19
657.95	824.99
658.29	818.95
658.64	812.84
658.98	806.36
659.32	799.80
659.66	793.47
660.00	787.09
660.34	780.92
660.68	774.79
661.02	768.42
661.36	762.41
661.70	756.55
662.05	750.86
662.39	745.31
662.73	739.90
663.07	734.40
663.41	728.76
663.75	723.00
664.09	717.23
664.43	711.78
664.77	706.47
665.11	700.62
665.45	694.67
665.79	688.73
666.13	682.91
666.47	677.35
666.81	671.85
667.15	666.39
667.49	661.12
667.83	655.80
668.17	650.51
668.51	645.28
668.85	640.28
669.19	635.25
669.53	630.20
669.87	624.99
670.21	620.23
670.55	615.46
670.89	610.91
671.23	606.55
671.57	602.10
671.91	597.75
672.25	593.52
672.58	589.34
672.92	585.20
673.26	581.26
673.60	577.30
673.94	573.36
674.28	569.69
674.62	565.89
674.96	562.01
675.30	558.37
675.64	554.62
675.97	550.96
676.31	547.33
676.65	543.59
676.99	540.12
677.33	536.18
677.67	532.41
678.01	528.58
678.34	524.91
678.68	521.31
679.02	517.61
679.36	513.88
679.70	510.20
680.04	506.63
680.37	503.08
680.71	499.74
681.05	496.51
681.39	493.19
681.73	490.01
682.06	487.00
682.40	483.90
682.74	480.72
683.08	477.48
683.42	474.23
683.75	471.20
684.09	468.12
684.43	465.30
684.77	462.37
685.10	459.47
685.44	456.45
685.78	453.51
686.12	450.73
686.45	448.00
686.79	445.30
687.13	442.70
687.46	440.04
687.80	437.35
688.14	434.49
688.48	431.82
688.81	429.14
689.15	426.55
689.49	423.94
689.82	421.39
690.16	418.79
690.50	416.31
690.83	413.77
691.17	411.18
691.51	408.67
691.84	406.33
692.18	404.05
692.52	401.81
692.85	399.64
693.19	397.45
693.52	395.26
693.86	392.99
694.20	390.75
694.53	388.58
694.87	386.31
695.21	384.14
695.54	381.98
695.88	379.72
696.21	377.44
696.55	375.28
696.88	373.12
697.22	371.14
697.56	369.25
697.89	367.36
698.23	365.66
698.56	363.88
698.90	362.07
699.23	360.12
699.57	358.23
699.90	356.33
700.24	354.50
700.58	352.70
700.91	350.98
701.25	349.37
701.58	347.71
701.92	346.13
702.25	344.50
702.59	342.85
702.92	341.28
703.26	339.72
703.59	338.23
703.93	336.96
704.26	335.47
704.60	333.91
704.93	332.40
705.26	330.79
705.60	329.27
705.93	327.76
706.27	326.43
706.60	325.17
706.94	323.94
707.27	322.53
707.61	321.14
707.94	319.81
708.27	318.32
708.61	316.83
708.94	315.41
709.28	314.10
709.61	312.80
709.94	311.58
710.28	310.34
710.61	309.09
710.95	307.65
711.28	306.57
711.61	305.33
711.95	304.21
712.28	303.03
712.61	301.79
712.95	300.76
713.28	299.73
713.61	298.56
713.95	297.38
714.28	296.36
714.61	295.35
714.95	294.27
715.28	293.22
715.61	292.23
715.95	291.27
716.28	290.27
716.61	289.34
716.95	288.35
717.28	287.39
717.61	286.43
717.94	285.51
718.28	284.42
718.61	283.53
718.94	282.60
719.27	281.73
719.61	280.96
719.94	280.01
720.27	279.02
720.60	278.12
720.94	277.33
721.27	276.52
721.60	275.80
721.93	275.08
722.27	274.47
722.60	273.81
722.93	273.08
723.26	272.47
723.59	271.76
723.93	271.12
724.26	270.48
724.59	269.85
724.92	269.25
725.25	268.72
725.59	268.19
725.92	267.69
726.25	267.11
726.58	266.48
726.91	265.88
727.24	265.37
727.57	264.84
727.91	264.19
728.24	263.64
728.57	263.00
728.90	262.45
729.23	261.79
729.56	261.32
729.89	260.77
730.22	260.17
730.55	259.62
730.89	259.11
731.22	258.57
731.55	258.02
731.88	257.49
732.21	256.92
732.54	256.36
732.87	255.79
733.20	255.29
733.53	254.79
733.86	254.35
734.19	253.82
734.52	253.39
734.85	253.06
735.18	252.57
735.51	252.24
735.84	251.77
736.17	251.39
736.50	250.85
736.83	250.68
737.16	250.26
737.49	249.85
737.82	249.40
738.15	249.01
738.48	248.64
738.81	248.26
739.14	247.90
739.47	247.52
739.80	247.14
740.13	246.80
740.46	246.45
740.79	246.05
741.12	245.68
741.45	245.32
741.78	244.91
742.11	244.66
742.44	244.23
742.77	243.96
743.10	243.61
743.43	243.28
743.75	242.72
744.08	242.66
744.41	242.31
744.74	241.97
745.07	241.63
745.40	241.37
745.73	241.09
746.06	240.74
746.39	240.43
746.71	240.07
747.04	239.70
747.37	239.37
747.70	239.09
748.03	238.83
748.36	238.54
748.68	238.23
749.01	237.85
749.34	237.57
749.67	237.26
750.00	236.96
750.33	236.82
750.65	236.55
750.98	236.02
751.31	235.78
751.64	235.57
751.97	235.41
752.29	235.10
752.62	234.73
752.95	234.50
753.28	234.22
753.60	233.99
753.93	233.86
754.26	233.61
754.59	233.36
754.91	233.08
755.24	232.83
755.57	232.59
755.90	232.39
756.22	232.15
756.55	231.90
756.88	231.69
757.20	231.35
757.53	231.08
757.86	230.87
758.19	230.68
758.51	230.43
758.84	230.13
759.17	229.93
759.49	229.80
759.82	229.67
760.15	229.50
760.47	229.31
760.80	229.01
761.13	228.87
761.45	228.66
761.78	228.47
762.11	228.28
762.43	228.09
762.76	227.90
763.08	227.76
763.41	227.62
763.74	227.50
764.06	227.34
764.39	227.20
764.71	227.08
765.04	226.89
765.37	226.76
765.69	226.62
766.02	226.49
766.34	226.37
766.67	226.17
767.00	226.08
767.32	226.08
767.65	226.07
767.97	225.95
768.30	225.84
768.62	225.72
768.95	225.59
769.27	225.51
769.60	225.42
769.92	225.24
770.25	225.08
770.57	224.88
770.90	224.75
771.22	224.60
771.55	224.45
771.87	224.38
772.20	224.26
772.52	224.31
772.85	224.42
773.17	224.28
773.50	224.15
773.82	224.03
774.15	223.82
774.47	223.60
774.80	223.45
775.12	223.35
775.45	223.25
775.77	223.15
776.09	223.02
776.42	222.90
776.74	222.88
777.07	222.80
777.39	222.71
777.72	222.66
778.04	222.59
778.36	222.50
778.69	222.37
779.01	222.30
779.33	222.05
779.66	221.73
779.98	221.62
780.31	221.57
780.63	221.57
780.95	221.51
781.28	221.48
781.60	221.40
781.92	221.31
782.25	221.26
782.57	221.21
782.89	221.20
783.22	221.12
783.54	221.03
783.86	220.99
784.19	220.91
784.51	220.86
784.83	220.78
785.16	220.72
785.48	220.68
785.80	220.61
786.12	220.55
786.45	220.50
786.77	220.43
787.09	220.37
787.42	220.21
787.74	220.15
788.06	220.05
788.38	219.99
788.71	219.94
789.03	219.88
789.35	219.84
789.67	219.72
789.99	219.69
790.32	219.62
790.64	219.59
790.96	219.74
791.28	219.65
791.61	219.61
791.93	219.58
792.25	219.50
792.57	219.59
792.89	219.52
793.21	219.49
793.54	219.44
793.86	219.36
794.18	219.34
794.50	219.25
794.82	219.20
795.14	219.20
795.47	219.21
795.79	219.13
796.11	219.03
796.43	218.98
796.75	218.93
797.07	218.88
797.39	218.82
797.71	218.64
798.04	218.56
798.36	218.50
798.68	218.47
799.00	218.46
799.32	218.34
799.64	218.33
799.96	218.28
800.28	218.29
800.60	218.24
800.92	218.19
801.24	218.16
801.56	218.14
801.89	218.07
802.21	218.02
802.53	217.97
802.85	218.00
803.17	218.07
803.49	217.99
803.81	217.94
804.13	217.87
804.45	217.81
804.77	217.82
805.09	217.81
805.41	217.74
805.73	217.69
806.05	217.62
806.37	217.60
806.69	217.56
807.01	217.51
807.33	217.50
807.65	217.44
807.97	217.50
808.28	217.46
808.60	217.42
808.92	217.37
809.24	217.53
809.56	217.47
809.88	217.34
810.20	217.32
810.52	217.35
810.84	217.30
811.16	217.26
811.48	217.25
811.80	217.29
812.12	217.26
812.43	217.22
812.75	217.21
813.07	217.15
813.39	217.13
813.71	217.10
814.03	217.09
814.35	217.05
814.67	216.95
814.98	216.92
815.30	216.92
815.62	216.87
815.94	216.70
816.26	216.69
816.58	216.68
816.89	216.70
817.21	216.61
817.53	216.59
817.85	216.56
818.17	216.50
818.48	216.38
818.80	216.43
819.12	216.40
819.44	216.34
819.76	216.28
820.07	216.25
820.39	216.19
820.71	216.18
821.03	216.16
821.34	216.14
821.66	216.14
821.98	216.10
822.30	216.08
822.61	216.16
822.93	216.12
823.25	216.07
823.57	216.03
823.88	216.08
824.20	216.10
824.52	216.16
824.83	216.16
825.15	216.13
825.47	216.09
825.79	216.09
826.10	216.06
826.42	216.05
826.74	216.08
827.05	216.11
827.37	216.11
827.69	216.10
828.00	216.07
828.32	216.07
828.64	216.05
828.95	216.16
829.27	216.09
829.58	216.09
829.90	216.11
830.22	216.10
830.53	216.04
830.85	216.01
831.17	215.92
831.48	215.90
831.80	215.94
832.11	215.92
832.43	215.90
832.75	215.88
833.06	216.01
833.38	215.92
833.69	215.88
834.01	215.88
834.32	215.85
834.64	215.85
834.96	215.81
835.27	215.84
835.59	215.75
835.90	215.68
836.22	215.66
836.53	215.63
836.85	215.61
837.16	215.81
837.48	215.79
837.79	215.86
838.11	215.86
838.42	215.84
838.74	215.87
839.05	215.84
839.37	215.84
839.68	215.70
840.00	215.72
840.31	215.77
840.63	215.73
840.94	215.71
841.26	215.67
841.57	215.67
841.88	215.65
842.20	215.62
842.51	215.60
842.83	215.57
843.14	215.76
843.46	215.73
843.77	215.61
844.08	215.58
844.40	215.48
844.71	215.48
845.03	215.43
845.34	215.37
845.65	215.34
845.97	215.33
846.28	215.31
846.60	215.29
846.91	215.22
847.22	215.22
847.54	215.30
847.85	215.30
848.16	215.30
848.48	215.26
848.79	215.34
849.10	215.38
849.42	215.37
849.73	215.15
850.04	215.17
850.36	215.09
850.67	215.12
850.98	215.14
851.30	215.13
851.61	215.11
851.92	215.13
852.23	215.22
852.55	215.25
852.86	215.26
853.17	215.27
853.49	215.32
853.80	215.32
854.11	215.31
854.42	215.35
854.74	215.34
855.05	215.34
855.36	215.25
855.67	215.23
855.99	215.26
856.30	215.53
856.61	215.53
856.92	215.53
857.23	215.53
857.55	215.52
857.86	215.51
858.17	215.56
858.48	215.52
858.79	215.46
859.11	215.48
859.42	215.45
859.73	215.43
860.04	215.40
860.35	215.37
860.66	215.26
860.98	215.25
861.29	215.26
861.60	215.20
861.91	215.22
862.22	215.21
862.53	215.17
862.84	214.89
863.16	214.93
863.47	214.88
863.78	214.89
864.09	214.91
864.40	214.92
864.71	214.92
865.02	214.96
865.33	214.93
865.64	214.86
865.95	214.86
866.27	215.02
866.58	215.03
866.89	215.04
867.20	215.09
867.51	215.02
867.82	215.04
868.13	215.13
868.44	215.10
868.75	215.10
869.06	215.12
869.37	215.13
869.68	215.06
869.99	215.12
870.30	215.11
870.61	215.13
870.92	215.08
871.23	215.09
871.54	215.11
871.85	215.16
872.16	215.20
872.47	215.22
872.78	215.08
873.09	215.10
873.40	215.06
873.71	215.07
874.02	215.09
874.33	215.06
874.64	215.00
874.95	215.06
875.26	215.03
875.56	215.02
875.87	215.03
876.18	215.02
876.49	215.20
876.80	215.15
877.11	215.08
877.42	215.11
877.73	215.10
878.04	215.04
878.35	215.02
878.66	215.02
878.96	215.00
879.27	214.96
879.58	214.94
879.89	214.94
880.20	214.96
880.51	214.94
880.82	214.93
881.12	214.93
881.43	214.86
881.74	214.84
882.05	214.83
882.36	214.85
882.67	214.87
882.97	214.66
883.28	214.65
883.59	214.64
883.90	214.64
884.21	214.66
884.51	214.66
884.82	214.61
885.13	214.59
885.44	214.58
885.74	214.58
886.05	214.59
886.36	214.60
886.67	214.56
886.98	214.68
887.28	214.73
887.59	214.77
887.90	214.80
888.20	214.81
888.51	214.86
888.82	214.83
889.13	214.84
889.43	215.03
889.74	215.03
890.05	215.05
890.35	215.02
890.66	214.97
890.97	214.95
891.28	214.95
891.58	214.95
891.89	214.94
892.20	214.93
892.50	214.89
892.81	214.86
893.12	214.85
893.42	214.72
893.73	214.71
894.04	214.66
894.34	214.68
894.65	214.67
894.95	214.63
895.26	214.65
895.57	214.74
895.87	214.51
896.18	214.54
896.48	214.55
896.79	214.55
897.10	214.60
897.40	214.63
897.71	214.66
898.01	214.67
898.32	214.72
898.63	214.73
898.93	214.74
899.24	214.77
899.54	214.75
899.85	214.76
900.15	214.75
900.46	214.76
900.76	214.75
901.07	214.76
901.38	214.76
901.68	214.73
901.99	214.65
902.29	214.70
902.60	214.68
902.90	214.67
903.21	214.66
903.51	214.65
903.82	214.68
904.12	214.69
904.43	214.65
904.73	214.66
905.03	214.64
905.34	214.85
905.64	214.83
905.95	214.86
906.25	214.84
906.56	214.79
906.86	214.78
907.17	214.75
907.47	214.74
907.77	214.72
908.08	214.69
908.38	214.71
908.69	214.69
908.99	214.73
909.30	214.77
909.60	214.81
909.90	214.82
910.21	214.75
910.51	214.71
910.81	214.74
911.12	214.77
911.42	214.79
911.73	214.58
912.03	214.59
912.33	214.61
912.64	214.64
912.94	214.67
913.24	214.62
913.55	214.62
913.85	214.59
914.15	214.64
914.46	214.66
914.76	214.61
915.06	214.60
915.37	214.53
915.67	214.52
915.97	214.48
916.27	214.42
916.58	214.42
916.88	214.44
917.18	214.39
917.49	214.50
917.79	214.49
918.09	214.53
918.39	214.56
918.70	214.57
919.00	214.61
919.30	214.70
919.60	214.73
919.91	214.70
920.21	214.73
920.51	214.67
920.81	214.66
921.12	214.70
921.42	214.68
921.72	214.68
922.02	214.65
922.32	214.66
922.63	214.67
922.93	214.78
923.23	214.77
923.53	214.76
923.83	214.60
924.13	214.61
924.44	214.59
924.74	214.63
925.04	214.67
925.34	214.63
925.64	214.52
925.94	214.51
926.24	214.65
926.55	214.62
926.85	214.66
927.15	214.65
927.45	214.65
927.75	214.67
928.05	214.67
928.35	214.68
928.65	214.76
928.95	214.79
929.26	214.70
929.56	214.75
929.86	214.78
930.16	214.77
930.46	214.74
930.76	214.72
931.06	214.60
931.36	214.55
931.66	214.60
931.96	214.62
932.26	214.62
932.56	214.52
932.86	214.53
933.16	214.52
933.46	214.53
933.76	214.48
934.06	214.53
934.36	214.61
934.66	214.60
934.96	214.53
935.26	214.53
935.56	214.57
935.86	214.51
936.16	214.48
936.46	214.47
936.76	214.47
937.06	214.48
937.36	214.51
937.66	214.51
937.96	214.44
938.26	214.41
938.56	214.40
938.86	214.42
939.16	214.45
939.46	214.50
939.76	214.49
940.06	214.50
940.35	214.44
940.65	214.37
940.95	214.39
941.25	214.34
941.55	214.32
941.85	214.30
942.15	214.38
942.45	214.43
942.75	214.45
943.04	214.48
943.34	214.52
943.64	214.48
943.94	214.47
944.24	214.49
944.54	214.53
944.84	214.53
945.13	214.45
945.43	214.41
945.73	214.35
946.03	214.35
946.33	214.32
946.62	214.32
946.92	214.25
947.22	214.27
947.52	214.29
947.82	214.33
948.11	214.33
948.41	214.25
948.71	214.21
949.01	214.21
949.31	214.17
949.60	214.17
949.90	214.22
950.20	214.20
950.50	214.18
950.79	214.16
951.09	214.24
951.39	214.26
951.69	214.27
951.98	214.31
952.28	214.31
952.58	214.28
952.87	214.29
953.17	214.37
953.47	214.35
953.76	214.34
954.06	214.29
954.36	214.24
954.66	214.23
954.95	214.27
955.25	214.29
955.55	214.31
955.84	214.22
956.14	214.24
956.44	214.26
956.73	214.26
957.03	214.29
957.32	214.24
957.62	214.26
957.92	214.30
958.21	214.27
958.51	214.52
958.81	214.60
959.10	214.60
959.40	214.64
959.69	214.62
959.99	214.64
960.29	214.65
960.58	214.64
960.88	214.71
961.17	214.71
961.47	214.71
961.76	214.69
962.06	214.75
962.36	214.74
962.65	214.75
962.95	214.77
963.24	214.76
963.54	214.79
963.83	214.82
964.13	214.81
964.42	214.77
964.72	214.58
965.01	214.59
965.31	214.59
965.60	214.54
965.90	214.72
966.19	214.69
966.49	214.76
966.78	214.77
967.08	214.77
967.37	214.76
967.67	214.73
967.96	214.78
968.26	214.78
968.55	214.80
968.85	214.78
969.14	214.76
969.43	214.73
969.73	214.70
970.02	214.68
970.32	214.65
970.61	214.68
970.91	214.63
971.20	214.60
971.49	214.58
971.79	214.58
972.08	214.41
972.38	214.47
972.67	214.45
972.96	214.48
973.26	214.43
973.55	214.51
973.85	214.49
974.14	214.51
974.43	214.51
974.73	214.45
975.02	214.41
975.31	214.41
975.61	214.39
975.90	214.40
976.19	214.37
976.49	214.37
976.78	214.35
977.07	214.31
977.37	214.29
977.66	214.29
977.95	214.26
978.24	214.26
978.54	214.25
978.83	214.23
979.12	214.19
979.42	214.18
979.71	214.12
980.00	214.14
980.29	214.11
980.59	214.10
980.88	214.14
981.17	214.16
981.46	214.18
981.76	214.18
982.05	214.23
982.34	214.27
982.63	214.29
982.93	214.30
983.22	214.35
983.51	214.36
983.80	214.39
984.09	214.46
984.39	214.44
984.68	214.40
984.97	214.40
985.26	214.39
985.55	214.39
985.85	214.35
986.14	214.39
986.43	214.39
986.72	214.39
987.01	214.36
987.30	214.35
987.59	214.32
987.89	214.33
988.18	214.24
988.47	214.22
988.76	214.19
989.05	214.20
989.34	214.21
989.63	214.26
989.92	214.24
990.22	214.17
990.51	214.17
990.80	214.19
991.09	214.23
991.38	214.28
991.67	214.30
991.96	214.32
992.25	214.28
992.54	214.26
992.83	214.24
993.12	214.22
993.41	214.26
993.70	214.36
993.99	214.39
994.28	214.47
994.58	214.50
994.87	214.48
995.16	214.49
995.45	214.43
995.74	214.38
996.03	214.41
996.32	214.48
996.61	214.52
996.90	214.50
997.19	214.46
997.48	214.45
997.77	214.42
998.06	214.40
998.34	214.40
998.63	214.37
998.92	214.36
999.21	214.39
999.50	214.38
999.79	214.28
1000.08	214.25
1000.37	214.22
1000.66	214.19
1000.95	214.25
1001.24	214.24
1001.53	214.29
1001.82	214.31
1002.11	214.23
1002.40	214.22
1002.68	214.26
1002.97	214.43
1003.26	214.44
1003.55	214.40
1003.84	214.41
1004.13	214.50
1004.42	214.50
1004.71	214.52
1004.99	214.52
1005.28	214.58
1005.57	214.57
1005.86	214.57
1006.15	214.56
1006.44	214.50
1006.72	214.52
1007.01	214.48
1007.30	214.49
1007.59	214.49
1007.88	214.47
1008.17	214.50
1008.45	214.46
1008.74	214.41
1009.03	214.29
1009.32	214.28
1009.60	214.29
1009.89	214.28
1010.18	214.21
1010.47	214.19
1010.76	214.19
1011.04	214.16
1011.33	214.17
1011.62	214.20
1011.91	214.25
1012.19	214.26
1012.48	214.29
1012.77	214.31
1013.05	214.42
1013.34	214.42
1013.63	214.38
1013.92	214.39
1014.20	214.39
1014.49	214.39
1014.78	214.39
1015.06	214.31
1015.35	214.31
1015.64	214.32
1015.92	214.37
1016.21	214.34
1016.50	214.37
1016.78	214.42
1017.07	214.47
1017.36	214.40
1017.64	214.34
1017.93	214.33
1018.22	214.30
1018.50	214.26
1018.79	214.23
1019.08	214.12
1019.36	214.12
1019.65	214.10
1019.93	214.14
1020.22	214.17
1020.51	214.28
1020.79	214.24
1021.08	213.57
1021.36	213.36
1021.65	214.13
1021.94	214.01
1022.22	214.12
1022.51	213.53
1022.79	215.01
1023.08	214.43
1023.36	216.68
1023.65	213.41
>>>>>End Processed Spectral Data<<<<<
