SpectraSuite Data File
++++++++++++++++++++++++++++++++++++
Date: Tue Jan 29 16:50:00 EST 2013
User: group
Dark Spectrum Present: No
Reference Spectrum Present: No
Number of Sampled Component Spectra: 1
Spectrometers: USB2E7196
Integration Time (usec): 65000 (USB2E7196)
Spectra Averaged: 100 (USB2E7196)
Boxcar Smoothing: 10 (USB2E7196)
Correct for Electrical Dark: No (USB2E7196)
Strobe/Lamp Enabled: No (USB2E7196)
Correct for Detector Non-linearity: No (USB2E7196)
Correct for Stray Light: No (USB2E7196)
Number of Pixels in Processed Spectrum: 2048
>>>>>Begin Processed Spectral Data<<<<<
339.09	0.00
339.48	201.76
339.86	202.31
340.24	204.68
340.63	206.19
341.01	210.54
341.39	208.75
341.78	210.01
342.16	211.10
342.54	211.50
342.93	200.69
343.31	210.82
343.69	211.37
344.07	211.89
344.46	212.32
344.84	212.69
345.22	212.87
345.60	213.12
345.99	213.30
346.37	213.44
346.75	213.55
347.13	213.63
347.52	213.70
347.90	213.83
348.28	213.87
348.66	213.94
349.05	213.91
349.43	213.98
349.81	214.07
350.19	214.13
350.57	214.21
350.96	214.29
351.34	214.43
351.72	214.50
352.10	214.58
352.48	214.62
352.87	214.68
353.25	214.72
353.63	214.77
354.01	214.83
354.39	214.91
354.77	214.99
355.15	215.13
355.54	215.19
355.92	215.22
356.30	215.25
356.68	215.48
357.06	215.53
357.44	215.57
357.82	215.62
358.20	215.74
358.58	215.81
358.97	215.94
359.35	216.05
359.73	216.15
360.11	216.20
360.49	216.28
360.87	216.33
361.25	216.43
361.63	216.57
362.01	216.66
362.39	216.70
362.77	216.76
363.15	216.81
363.53	216.87
363.91	216.90
364.29	216.97
364.67	216.78
365.05	216.83
365.43	216.90
365.81	217.01
366.19	217.08
366.57	217.20
366.95	217.19
367.33	217.12
367.71	217.13
368.09	217.21
368.47	217.22
368.85	217.24
369.23	217.28
369.61	217.22
369.99	217.30
370.37	217.31
370.75	217.39
371.13	217.31
371.51	217.26
371.89	217.28
372.27	217.26
372.65	217.26
373.03	217.27
373.41	217.19
373.78	217.10
374.16	216.98
374.54	216.88
374.92	216.80
375.30	216.75
375.68	216.69
376.06	216.64
376.44	216.60
376.82	216.56
377.19	216.51
377.57	216.46
377.95	216.31
378.33	216.27
378.71	216.08
379.09	216.09
379.47	216.03
379.84	215.94
380.22	215.91
380.60	215.85
380.98	215.78
381.36	215.75
381.73	215.68
382.11	215.66
382.49	215.63
382.87	215.57
383.25	215.55
383.62	215.74
384.00	215.67
384.38	215.60
384.76	215.60
385.13	215.58
385.51	215.55
385.89	215.51
386.27	215.49
386.64	215.51
387.02	215.43
387.40	215.42
387.78	215.39
388.15	215.33
388.53	215.29
388.91	215.23
389.29	215.21
389.66	215.23
390.04	215.18
390.42	215.16
390.79	215.16
391.17	215.14
391.55	214.92
391.92	214.92
392.30	214.92
392.68	214.87
393.05	214.86
393.43	214.80
393.81	214.77
394.18	214.66
394.56	214.67
394.94	214.70
395.31	214.70
395.69	214.75
396.06	214.80
396.44	214.82
396.82	214.87
397.19	214.95
397.57	214.92
397.95	215.00
398.32	214.97
398.70	215.01
399.07	215.09
399.45	215.13
399.82	215.16
400.20	215.22
400.58	215.26
400.95	215.25
401.33	215.40
401.70	215.64
402.08	215.79
402.45	215.87
402.83	216.01
403.20	216.12
403.58	216.20
403.95	216.35
404.33	216.47
404.71	216.61
405.08	216.91
405.46	217.12
405.83	217.31
406.21	217.52
406.58	217.80
406.96	218.02
407.33	218.23
407.70	218.50
408.08	218.99
408.45	219.34
408.83	219.73
409.20	220.07
409.58	220.34
409.95	220.80
410.33	221.29
410.70	221.73
411.08	222.29
411.45	222.87
411.82	223.45
412.20	224.18
412.57	225.02
412.95	225.55
413.32	226.38
413.69	227.19
414.07	228.11
414.44	229.09
414.82	230.09
415.19	231.32
415.56	232.54
415.94	233.75
416.31	235.17
416.68	236.57
417.06	238.21
417.43	239.80
417.81	241.55
418.18	243.35
418.55	245.30
418.93	247.33
419.30	249.47
419.67	251.70
420.04	253.99
420.42	256.34
420.79	259.19
421.16	261.97
421.54	264.92
421.91	267.96
422.28	271.05
422.66	274.38
423.03	277.64
423.40	280.98
423.77	284.59
424.15	288.28
424.52	292.14
424.89	296.28
425.26	300.33
425.64	304.24
426.01	308.53
426.38	312.98
426.75	317.51
427.13	322.23
427.50	327.26
427.87	332.48
428.24	337.76
428.61	342.79
428.99	348.33
429.36	354.34
429.73	360.23
430.10	366.15
430.47	372.25
430.85	378.56
431.22	385.30
431.59	392.42
431.96	399.28
432.33	406.76
432.70	414.12
433.08	422.66
433.45	430.79
433.82	438.89
434.19	447.83
434.56	456.61
434.93	465.02
435.30	473.33
435.68	482.49
436.05	491.53
436.42	500.49
436.79	508.74
437.16	517.57
437.53	526.92
437.90	536.11
438.27	545.07
438.64	554.35
439.01	562.95
439.38	570.52
439.75	577.82
440.13	586.37
440.50	594.34
440.87	600.86
441.24	607.44
441.61	614.77
441.98	620.21
442.35	626.55
442.72	632.92
443.09	638.99
443.46	642.73
443.83	645.23
444.20	647.43
444.57	650.51
444.94	651.93
445.31	653.41
445.68	654.84
446.05	655.51
446.42	654.79
446.79	653.81
447.16	652.77
447.53	652.07
447.90	648.74
448.27	645.49
448.64	640.87
449.01	637.69
449.37	631.76
449.74	626.09
450.11	619.16
450.48	611.75
450.85	604.30
451.22	597.84
451.59	591.71
451.96	585.81
452.33	577.99
452.70	570.87
453.07	562.27
453.43	553.58
453.80	545.31
454.17	537.23
454.54	529.71
454.91	521.48
455.28	513.49
455.65	505.97
456.02	498.38
456.38	491.95
456.75	483.95
457.12	477.37
457.49	470.82
457.86	464.62
458.23	459.16
458.59	453.14
458.96	447.10
459.33	441.77
459.70	436.36
460.07	432.00
460.43	427.11
460.80	422.55
461.17	418.54
461.54	414.26
461.91	410.18
462.27	406.05
462.64	402.57
463.01	398.69
463.38	395.00
463.74	391.25
464.11	388.00
464.48	385.16
464.85	382.00
465.21	379.57
465.58	376.94
465.95	373.80
466.32	371.20
466.68	368.57
467.05	365.94
467.42	363.37
467.78	360.68
468.15	358.13
468.52	356.18
468.88	353.64
469.25	351.39
469.62	349.57
469.98	347.57
470.35	345.76
470.72	344.07
471.08	342.24
471.45	340.74
471.82	339.17
472.18	337.46
472.55	336.28
472.92	334.84
473.28	333.59
473.65	332.44
474.02	331.32
474.38	330.41
474.75	329.63
475.11	328.82
475.48	328.24
475.85	327.74
476.21	327.21
476.58	326.87
476.94	326.64
477.31	326.32
477.67	326.06
478.04	325.89
478.41	325.81
478.77	325.94
479.14	325.91
479.50	326.07
479.87	326.36
480.23	326.68
480.60	326.91
480.96	327.17
481.33	327.75
481.69	328.28
482.06	328.76
482.42	329.21
482.79	329.80
483.15	330.58
483.52	331.52
483.88	332.46
484.25	333.42
484.61	334.40
484.98	335.46
485.34	336.73
485.71	338.12
486.07	339.61
486.44	340.92
486.80	342.49
487.17	344.15
487.53	346.01
487.90	347.87
488.26	349.88
488.62	352.09
488.99	354.15
489.35	356.36
489.72	358.72
490.08	361.26
490.44	363.81
490.81	366.53
491.17	369.22
491.54	372.18
491.90	375.18
492.26	378.40
492.63	381.77
492.99	385.25
493.36	388.89
493.72	392.73
494.08	396.77
494.45	400.97
494.81	405.27
495.17	409.71
495.54	414.41
495.90	419.23
496.26	424.13
496.63	429.34
496.99	434.70
497.35	440.28
497.72	446.05
498.08	452.01
498.44	458.09
498.80	464.46
499.17	470.96
499.53	477.70
499.89	484.66
500.26	491.62
500.62	498.71
500.98	506.09
501.34	513.57
501.71	521.32
502.07	529.16
502.43	537.15
502.79	545.25
503.16	553.63
503.52	562.20
503.88	570.84
504.24	579.70
504.60	588.79
504.97	598.04
505.33	607.32
505.69	617.09
506.05	626.89
506.41	636.80
506.78	646.81
507.14	657.00
507.50	667.45
507.86	678.19
508.22	688.94
508.59	699.60
508.95	710.64
509.31	721.86
509.67	733.25
510.03	744.60
510.39	756.27
510.75	768.00
511.12	779.90
511.48	792.02
511.84	804.17
512.20	816.41
512.56	829.15
512.92	842.03
513.28	854.69
513.64	867.52
514.00	880.25
514.37	893.15
514.73	906.27
515.09	919.25
515.45	932.12
515.81	945.18
516.17	958.60
516.53	971.82
516.89	984.90
517.25	998.15
517.61	1011.75
517.97	1025.21
518.33	1038.39
518.69	1051.96
519.05	1065.69
519.41	1079.36
519.77	1093.36
520.13	1106.67
520.49	1119.84
520.85	1133.29
521.21	1146.56
521.57	1160.36
521.93	1173.50
522.29	1187.27
522.65	1200.88
523.01	1214.50
523.37	1227.78
523.73	1241.19
524.09	1254.34
524.45	1267.75
524.81	1281.28
525.17	1294.66
525.53	1307.90
525.89	1321.27
526.25	1334.38
526.61	1347.29
526.97	1360.59
527.33	1373.48
527.68	1386.81
528.04	1400.30
528.40	1413.42
528.76	1426.95
529.12	1439.86
529.48	1453.35
529.84	1465.52
530.20	1478.42
530.56	1491.15
530.91	1504.28
531.27	1517.05
531.63	1529.85
531.99	1542.74
532.35	1555.05
532.71	1567.56
533.07	1580.51
533.42	1592.88
533.78	1605.17
534.14	1617.28
534.50	1628.51
534.86	1640.13
535.21	1651.00
535.57	1662.59
535.93	1673.95
536.29	1685.01
536.65	1696.56
537.00	1707.48
537.36	1719.11
537.72	1730.02
538.08	1741.51
538.44	1752.70
538.79	1764.01
539.15	1775.14
539.51	1786.02
539.87	1797.37
540.22	1808.22
540.58	1819.25
540.94	1830.16
541.29	1840.48
541.65	1850.41
542.01	1861.08
542.37	1871.19
542.72	1881.61
543.08	1891.41
543.44	1901.97
543.79	1911.36
544.15	1920.91
544.51	1931.00
544.87	1940.92
545.22	1950.25
545.58	1959.21
545.94	1968.10
546.29	1976.58
546.65	1984.95
547.01	1993.16
547.36	2000.92
547.72	2008.78
548.07	2016.37
548.43	2024.26
548.79	2032.14
549.14	2040.21
549.50	2048.64
549.86	2056.67
550.21	2064.14
550.57	2072.02
550.92	2078.88
551.28	2086.40
551.64	2093.59
551.99	2101.14
552.35	2108.38
552.70	2115.40
553.06	2122.03
553.41	2128.36
553.77	2134.98
554.13	2141.41
554.48	2148.46
554.84	2155.59
555.19	2162.14
555.55	2168.72
555.90	2174.89
556.26	2181.78
556.61	2188.05
556.97	2192.84
557.32	2198.53
557.68	2204.94
558.03	2210.75
558.39	2216.09
558.74	2222.04
559.10	2227.52
559.45	2233.04
559.81	2238.66
560.16	2244.07
560.52	2249.86
560.87	2256.18
561.23	2261.81
561.58	2268.26
561.94	2273.46
562.29	2277.95
562.64	2283.83
563.00	2289.27
563.35	2294.72
563.71	2300.34
564.06	2305.94
564.42	2312.00
564.77	2316.98
565.12	2322.18
565.48	2327.06
565.83	2332.48
566.19	2337.73
566.54	2343.04
566.89	2347.46
567.25	2351.80
567.60	2357.40
567.96	2362.47
568.31	2367.10
568.66	2371.54
569.02	2375.49
569.37	2379.16
569.72	2383.63
570.08	2387.05
570.43	2390.10
570.78	2393.19
571.14	2395.50
571.49	2398.50
571.84	2401.84
572.20	2404.77
572.55	2407.59
572.90	2409.87
573.26	2412.46
573.61	2415.06
573.96	2417.19
574.31	2419.21
574.67	2420.87
575.02	2421.60
575.37	2422.89
575.72	2423.38
576.08	2424.66
576.43	2424.62
576.78	2424.80
577.13	2426.11
577.49	2427.17
577.84	2427.94
578.19	2429.04
578.54	2429.47
578.90	2429.86
579.25	2429.63
579.60	2429.35
579.95	2428.31
580.30	2428.09
580.66	2427.26
581.01	2425.36
581.36	2422.63
581.71	2421.03
582.06	2419.66
582.42	2418.43
582.77	2415.91
583.12	2414.03
583.47	2412.35
583.82	2411.61
584.17	2410.20
584.53	2407.86
584.88	2405.60
585.23	2403.58
585.58	2401.15
585.93	2399.16
586.28	2396.95
586.63	2394.23
586.98	2391.81
587.34	2389.77
587.69	2387.10
588.04	2384.90
588.39	2383.30
588.74	2380.81
589.09	2377.95
589.44	2374.79
589.79	2372.08
590.14	2369.99
590.49	2367.03
590.84	2363.00
591.19	2359.58
591.54	2356.29
591.89	2352.24
592.25	2348.83
592.60	2344.53
592.95	2340.35
593.30	2335.91
593.65	2331.28
594.00	2326.75
594.35	2323.77
594.70	2318.99
595.05	2314.51
595.40	2308.98
595.75	2303.01
596.10	2299.34
596.45	2294.38
596.80	2289.63
597.15	2284.55
597.50	2278.63
597.85	2273.72
598.19	2268.51
598.54	2262.78
598.89	2257.41
599.24	2252.68
599.59	2246.52
599.94	2240.54
600.29	2234.56
600.64	2228.68
600.99	2221.73
601.34	2216.24
601.69	2209.21
602.04	2202.82
602.39	2196.02
602.74	2189.80
603.08	2184.33
603.43	2177.84
603.78	2171.04
604.13	2164.05
604.48	2156.66
604.83	2150.47
605.18	2144.24
605.53	2137.44
605.87	2130.47
606.22	2123.81
606.57	2115.89
606.92	2107.84
607.27	2100.99
607.62	2094.28
607.96	2087.27
608.31	2080.96
608.66	2073.18
609.01	2065.45
609.36	2058.28
609.70	2050.63
610.05	2042.88
610.40	2034.50
610.75	2025.98
611.10	2018.17
611.44	2009.24
611.79	2000.61
612.14	1990.79
612.49	1980.01
612.83	1970.47
613.18	1961.07
613.53	1951.59
613.88	1942.08
614.22	1933.54
614.57	1923.69
614.92	1913.25
615.27	1902.94
615.61	1892.67
615.96	1883.10
616.31	1873.51
616.65	1864.18
617.00	1854.57
617.35	1844.95
617.70	1835.29
618.04	1825.48
618.39	1815.49
618.74	1805.90
619.08	1796.31
619.43	1787.58
619.78	1779.40
620.12	1770.88
620.47	1761.58
620.82	1751.37
621.16	1741.72
621.51	1731.87
621.85	1722.16
622.20	1711.79
622.55	1701.53
622.89	1691.81
623.24	1682.17
623.59	1672.53
623.93	1662.47
624.28	1652.74
624.62	1642.75
624.97	1632.58
625.32	1622.78
625.66	1613.85
626.01	1605.18
626.35	1595.90
626.70	1585.92
627.04	1576.08
627.39	1566.10
627.73	1556.88
628.08	1548.23
628.43	1538.66
628.77	1529.58
629.12	1520.80
629.46	1513.11
629.81	1504.86
630.15	1495.54
630.50	1485.80
630.84	1475.41
631.19	1465.51
631.53	1456.41
631.88	1446.35
632.22	1436.51
632.57	1427.31
632.91	1417.38
633.26	1407.61
633.60	1398.20
633.95	1389.15
634.29	1379.73
634.64	1370.63
634.98	1360.59
635.32	1351.32
635.67	1343.02
636.01	1333.89
636.36	1324.20
636.70	1314.71
637.05	1305.36
637.39	1296.52
637.73	1287.92
638.08	1280.40
638.42	1272.40
638.77	1263.52
639.11	1255.37
639.45	1247.63
639.80	1239.21
640.14	1230.47
640.49	1221.70
640.83	1212.95
641.17	1204.76
641.52	1196.70
641.86	1188.19
642.20	1180.60
642.55	1171.94
642.89	1163.08
643.23	1154.48
643.58	1146.56
643.92	1137.69
644.26	1129.00
644.61	1120.57
644.95	1111.95
645.29	1102.87
645.64	1093.80
645.98	1085.38
646.32	1077.57
646.66	1069.17
647.01	1060.87
647.35	1052.84
647.69	1044.63
648.04	1036.46
648.38	1027.67
648.72	1018.97
649.06	1010.60
649.41	1002.43
649.75	994.69
650.09	986.98
650.43	979.03
650.78	970.66
651.12	962.94
651.46	955.66
651.80	948.59
652.14	941.29
652.49	933.84
652.83	926.55
653.17	918.99
653.51	911.31
653.85	904.08
654.20	896.84
654.54	889.47
654.88	882.21
655.22	875.00
655.56	867.99
655.90	861.20
656.25	854.49
656.59	847.68
656.93	840.64
657.27	833.54
657.61	826.49
657.95	820.50
658.29	814.58
658.64	808.49
658.98	801.93
659.32	795.40
659.66	789.18
660.00	782.84
660.34	776.82
660.68	770.77
661.02	764.39
661.36	758.49
661.70	752.72
662.05	747.13
662.39	741.66
662.73	736.36
663.07	731.00
663.41	725.40
663.75	719.65
664.09	713.97
664.43	708.47
664.77	703.20
665.11	697.36
665.45	691.46
665.79	685.58
666.13	679.92
666.47	674.40
666.81	668.87
667.15	663.52
667.49	658.32
667.83	653.10
668.17	647.92
668.51	642.76
668.85	637.80
669.19	632.89
669.53	627.86
669.87	622.71
670.21	617.88
670.55	613.13
670.89	608.63
671.23	604.32
671.57	599.90
671.91	595.61
672.25	591.46
672.58	587.32
672.92	583.28
673.26	579.32
673.60	575.48
673.94	571.72
674.28	568.17
674.62	564.36
674.96	560.56
675.30	557.03
675.64	553.35
675.97	549.76
676.31	546.13
676.65	542.51
676.99	539.07
677.33	535.25
677.67	531.67
678.01	527.77
678.34	524.11
678.68	520.62
679.02	517.04
679.36	513.32
679.70	509.70
680.04	506.17
680.37	502.68
680.71	499.34
681.05	496.11
681.39	492.76
681.73	489.57
682.06	486.57
682.40	483.48
682.74	480.32
683.08	477.06
683.42	473.86
683.75	470.82
684.09	467.76
684.43	464.95
684.77	462.02
685.10	459.17
685.44	456.26
685.78	453.33
686.12	450.50
686.45	447.73
686.79	445.01
687.13	442.42
687.46	439.85
687.80	437.14
688.14	434.26
688.48	431.58
688.81	428.83
689.15	426.17
689.49	423.50
689.82	420.87
690.16	418.25
690.50	415.76
690.83	413.24
691.17	410.63
691.51	408.06
691.84	405.75
692.18	403.49
692.52	401.24
692.85	399.01
693.19	396.83
693.52	394.67
693.86	392.36
694.20	390.13
694.53	387.95
694.87	385.70
695.21	383.56
695.54	381.40
695.88	379.22
696.21	376.99
696.55	374.83
696.88	372.80
697.22	370.79
697.56	368.87
697.89	366.95
698.23	365.18
698.56	363.39
698.90	361.59
699.23	359.68
699.57	357.79
699.90	355.92
700.24	354.07
700.58	352.32
700.91	350.68
701.25	349.09
701.58	347.40
701.92	345.81
702.25	344.20
702.59	342.61
702.92	341.06
703.26	339.52
703.59	338.01
703.93	336.69
704.26	335.27
704.60	333.78
704.93	332.28
705.26	330.79
705.60	329.32
705.93	327.73
706.27	326.38
706.60	325.13
706.94	323.90
707.27	322.53
707.61	321.13
707.94	319.76
708.27	318.23
708.61	316.84
708.94	315.46
709.28	314.09
709.61	312.78
709.94	311.58
710.28	310.33
710.61	309.13
710.95	307.75
711.28	306.63
711.61	305.38
711.95	304.25
712.28	303.05
712.61	301.85
712.95	300.78
713.28	299.76
713.61	298.53
713.95	297.37
714.28	296.30
714.61	295.26
714.95	294.23
715.28	293.18
715.61	292.11
715.95	291.14
716.28	290.17
716.61	289.19
716.95	288.18
717.28	287.25
717.61	286.25
717.94	285.28
718.28	284.25
718.61	283.38
718.94	282.45
719.27	281.58
719.61	280.72
719.94	279.85
720.27	278.87
720.60	278.01
720.94	277.22
721.27	276.46
721.60	275.74
721.93	274.97
722.27	274.36
722.60	273.64
722.93	272.90
723.26	272.26
723.59	271.54
723.93	270.90
724.26	270.24
724.59	269.59
724.92	269.00
725.25	268.46
725.59	267.89
725.92	267.33
726.25	266.75
726.58	266.17
726.91	265.55
727.24	264.95
727.57	264.39
727.91	263.74
728.24	263.18
728.57	262.55
728.90	262.00
729.23	261.34
729.56	260.94
729.89	260.37
730.22	259.79
730.55	259.24
730.89	258.67
731.22	258.11
731.55	257.60
731.88	257.04
732.21	256.45
732.54	255.90
732.87	255.39
733.20	254.86
733.53	254.39
733.86	253.93
734.19	253.48
734.52	253.04
734.85	252.77
735.18	252.26
735.51	251.90
735.84	251.51
736.17	251.13
736.50	250.59
736.83	250.44
737.16	250.05
737.49	249.71
737.82	249.30
738.15	248.96
738.48	248.57
738.81	248.19
739.14	247.77
739.47	247.36
739.80	246.95
740.13	246.59
740.46	246.16
740.79	245.75
741.12	245.36
741.45	245.00
741.78	244.53
742.11	244.27
742.44	243.87
742.77	243.55
743.10	243.18
743.43	242.83
743.75	242.23
744.08	242.13
744.41	241.75
744.74	241.45
745.07	241.07
745.40	240.76
745.73	240.49
746.06	240.18
746.39	239.89
746.71	239.53
747.04	239.17
747.37	238.86
747.70	238.61
748.03	238.29
748.36	238.02
748.68	237.70
749.01	237.34
749.34	237.08
749.67	236.74
750.00	236.48
750.33	236.34
750.65	236.13
750.98	235.59
751.31	235.35
751.64	235.06
751.97	234.95
752.29	234.72
752.62	234.37
752.95	234.14
753.28	233.88
753.60	233.67
753.93	233.49
754.26	233.28
754.59	232.97
754.91	232.71
755.24	232.46
755.57	232.25
755.90	232.04
756.22	231.77
756.55	231.54
756.88	231.27
757.20	230.93
757.53	230.68
757.86	230.45
758.19	230.25
758.51	230.08
758.84	229.73
759.17	229.50
759.49	229.38
759.82	229.26
760.15	229.11
760.47	228.92
760.80	228.68
761.13	228.54
761.45	228.39
761.78	228.22
762.11	228.06
762.43	227.86
762.76	227.67
763.08	227.53
763.41	227.40
763.74	227.22
764.06	227.03
764.39	226.84
764.71	226.69
765.04	226.52
765.37	226.34
765.69	226.19
766.02	226.04
766.34	225.87
766.67	225.62
767.00	225.52
767.32	225.47
767.65	225.43
767.97	225.25
768.30	225.10
768.62	224.98
768.95	224.84
769.27	224.70
769.60	224.58
769.92	224.44
770.25	224.24
770.57	224.13
770.90	224.00
771.22	223.89
771.55	223.79
771.87	223.68
772.20	223.56
772.52	223.61
772.85	223.76
773.17	223.62
773.50	223.54
773.82	223.40
774.15	223.17
774.47	222.95
774.80	222.84
775.12	222.74
775.45	222.65
775.77	222.52
776.09	222.40
776.42	222.32
776.74	222.28
777.07	222.21
777.39	222.14
777.72	222.04
778.04	221.96
778.36	221.83
778.69	221.75
779.01	221.68
779.33	221.43
779.66	221.10
779.98	221.01
780.31	220.92
780.63	220.89
780.95	220.89
781.28	220.85
781.60	220.75
781.92	220.71
782.25	220.63
782.57	220.58
782.89	220.52
783.22	220.45
783.54	220.35
783.86	220.29
784.19	220.18
784.51	220.21
784.83	220.14
785.16	220.10
785.48	220.04
785.80	219.97
786.12	219.95
786.45	219.89
786.77	219.84
787.09	219.75
787.42	219.66
787.74	219.59
788.06	219.54
788.38	219.48
788.71	219.38
789.03	219.34
789.35	219.30
789.67	219.24
789.99	219.19
790.32	219.08
790.64	219.08
790.96	219.19
791.28	219.05
791.61	218.98
791.93	218.96
792.25	218.91
792.57	219.04
792.89	218.94
793.21	218.91
793.54	218.86
793.86	218.81
794.18	218.73
794.50	218.66
794.82	218.62
795.14	218.60
795.47	218.58
795.79	218.51
796.11	218.42
796.43	218.35
796.75	218.30
797.07	218.27
797.39	218.20
797.71	218.02
798.04	217.99
798.36	217.97
798.68	217.89
799.00	217.82
799.32	217.63
799.64	217.63
799.96	217.59
800.28	217.59
800.60	217.52
800.92	217.49
801.24	217.42
801.56	217.40
801.89	217.37
802.21	217.38
802.53	217.35
802.85	217.37
803.17	217.44
803.49	217.35
803.81	217.34
804.13	217.27
804.45	217.23
804.77	217.23
805.09	217.17
805.41	217.14
805.73	217.07
806.05	217.01
806.37	216.97
806.69	216.89
807.01	216.84
807.33	216.84
807.65	216.76
807.97	216.83
808.28	216.78
808.60	216.73
808.92	216.67
809.24	216.76
809.56	216.71
809.88	216.62
810.20	216.62
810.52	216.63
810.84	216.61
811.16	216.53
811.48	216.50
811.80	216.56
812.12	216.56
812.43	216.60
812.75	216.57
813.07	216.51
813.39	216.52
813.71	216.47
814.03	216.47
814.35	216.44
814.67	216.34
814.98	216.29
815.30	216.25
815.62	216.20
815.94	216.06
816.26	216.03
816.58	215.96
816.89	215.97
817.21	215.87
817.53	215.89
817.85	215.92
818.17	215.87
818.48	215.79
818.80	215.79
819.12	215.76
819.44	215.73
819.76	215.70
820.07	215.69
820.39	215.67
820.71	215.64
821.03	215.66
821.34	215.64
821.66	215.64
821.98	215.63
822.30	215.56
822.61	215.67
822.93	215.65
823.25	215.61
823.57	215.56
823.88	215.60
824.20	215.56
824.52	215.58
824.83	215.57
825.15	215.50
825.47	215.47
825.79	215.49
826.10	215.45
826.42	215.42
826.74	215.42
827.05	215.41
827.37	215.44
827.69	215.39
828.00	215.38
828.32	215.39
828.64	215.36
828.95	215.47
829.27	215.40
829.58	215.38
829.90	215.41
830.22	215.42
830.53	215.34
830.85	215.31
831.17	215.24
831.48	215.18
831.80	215.20
832.11	215.19
832.43	215.12
832.75	215.10
833.06	215.22
833.38	215.16
833.69	215.11
834.01	215.08
834.32	215.07
834.64	215.04
834.96	215.01
835.27	215.00
835.59	214.92
835.90	214.89
836.22	214.85
836.53	214.79
836.85	214.75
837.16	214.99
837.48	214.98
837.79	215.06
838.11	215.13
838.42	215.14
838.74	215.14
839.05	215.15
839.37	215.13
839.68	215.02
840.00	214.99
840.31	215.05
840.63	215.04
840.94	214.99
841.26	214.97
841.57	214.98
841.88	215.02
842.20	215.00
842.51	214.97
842.83	215.00
843.14	215.23
843.46	215.24
843.77	215.09
844.08	215.07
844.40	214.98
844.71	214.93
845.03	214.88
845.34	214.84
845.65	214.78
845.97	214.79
846.28	214.76
846.60	214.79
846.91	214.73
847.22	214.75
847.54	214.80
847.85	214.83
848.16	214.81
848.48	214.75
848.79	214.82
849.10	214.82
849.42	214.80
849.73	214.57
850.04	214.57
850.36	214.50
850.67	214.55
850.98	214.59
851.30	214.60
851.61	214.60
851.92	214.63
852.23	214.71
852.55	214.74
852.86	214.74
853.17	214.75
853.49	214.82
853.80	214.84
854.11	214.84
854.42	214.85
854.74	214.81
855.05	214.80
855.36	214.69
855.67	214.69
855.99	214.69
856.30	214.94
856.61	214.91
856.92	214.88
857.23	214.87
857.55	214.83
857.86	214.81
858.17	214.84
858.48	214.79
858.79	214.78
859.11	214.77
859.42	214.76
859.73	214.73
860.04	214.72
860.35	214.61
860.66	214.56
860.98	214.52
861.29	214.56
861.60	214.54
861.91	214.61
862.22	214.58
862.53	214.56
862.84	214.30
863.16	214.35
863.47	214.35
863.78	214.28
864.09	214.30
864.40	214.32
864.71	214.33
865.02	214.33
865.33	214.28
865.64	214.24
865.95	214.25
866.27	214.41
866.58	214.37
866.89	214.42
867.20	214.41
867.51	214.39
867.82	214.37
868.13	214.45
868.44	214.39
868.75	214.43
869.06	214.44
869.37	214.47
869.68	214.40
869.99	214.43
870.30	214.48
870.61	214.51
870.92	214.48
871.23	214.46
871.54	214.50
871.85	214.56
872.16	214.59
872.47	214.59
872.78	214.45
873.09	214.50
873.40	214.49
873.71	214.53
874.02	214.57
874.33	214.57
874.64	214.54
874.95	214.56
875.26	214.55
875.56	214.54
875.87	214.54
876.18	214.53
876.49	214.73
876.80	214.69
877.11	214.61
877.42	214.61
877.73	214.64
878.04	214.63
878.35	214.61
878.66	214.64
878.96	214.58
879.27	214.54
879.58	214.47
879.89	214.46
880.20	214.49
880.51	214.47
880.82	214.45
881.12	214.43
881.43	214.41
881.74	214.37
882.05	214.35
882.36	214.36
882.67	214.40
882.97	214.21
883.28	214.23
883.59	214.24
883.90	214.22
884.21	214.23
884.51	214.21
884.82	214.15
885.13	214.15
885.44	214.17
885.74	214.19
886.05	214.19
886.36	214.21
886.67	214.14
886.98	214.21
887.28	214.22
887.59	214.23
887.90	214.23
888.20	214.23
888.51	214.28
888.82	214.26
889.13	214.29
889.43	214.46
889.74	214.46
890.05	214.46
890.35	214.49
890.66	214.42
890.97	214.40
891.28	214.41
891.58	214.38
891.89	214.41
892.20	214.40
892.50	214.41
892.81	214.36
893.12	214.36
893.42	214.27
893.73	214.30
894.04	214.28
894.34	214.30
894.65	214.26
894.95	214.22
895.26	214.21
895.57	214.27
895.87	214.04
896.18	214.04
896.48	214.05
896.79	214.01
897.10	214.09
897.40	214.10
897.71	214.13
898.01	214.11
898.32	214.11
898.63	214.11
898.93	214.12
899.24	214.12
899.54	214.11
899.85	214.09
900.15	214.11
900.46	214.11
900.76	214.11
901.07	214.10
901.38	214.13
901.68	214.15
901.99	214.03
902.29	214.05
902.60	214.04
902.90	214.03
903.21	214.05
903.51	213.99
903.82	214.04
904.12	214.04
904.43	214.06
904.73	214.04
905.03	214.06
905.34	214.26
905.64	214.27
905.95	214.28
906.25	214.30
906.56	214.29
906.86	214.30
907.17	214.30
907.47	214.37
907.77	214.32
908.08	214.27
908.38	214.31
908.69	214.32
908.99	214.34
909.30	214.35
909.60	214.32
909.90	214.34
910.21	214.24
910.51	214.20
910.81	214.18
911.12	214.17
911.42	214.14
911.73	213.89
912.03	213.91
912.33	213.95
912.64	213.91
912.94	213.87
913.24	213.82
913.55	213.80
913.85	213.74
914.15	213.79
914.46	213.81
914.76	213.78
915.06	213.79
915.37	213.74
915.67	213.72
915.97	213.76
916.27	213.67
916.58	213.71
916.88	213.69
917.18	213.66
917.49	213.81
917.79	213.83
918.09	213.90
918.39	213.93
918.70	213.94
919.00	213.96
919.30	214.06
919.60	214.06
919.91	214.05
920.21	214.06
920.51	214.04
920.81	214.05
921.12	214.07
921.42	214.07
921.72	214.09
922.02	214.11
922.32	214.12
922.63	214.18
922.93	214.28
923.23	214.30
923.53	214.30
923.83	214.17
924.13	214.16
924.44	214.12
924.74	214.16
925.04	214.20
925.34	214.22
925.64	214.14
925.94	214.12
926.24	214.21
926.55	214.19
926.85	214.23
927.15	214.22
927.45	214.21
927.75	214.18
928.05	214.17
928.35	214.17
928.65	214.18
928.95	214.21
929.26	214.12
929.56	214.15
929.86	214.19
930.16	214.15
930.46	214.18
930.76	214.19
931.06	214.08
931.36	214.01
931.66	214.03
931.96	214.02
932.26	214.07
932.56	213.99
932.86	214.03
933.16	213.99
933.46	213.95
933.76	213.96
934.06	214.01
934.36	214.07
934.66	214.03
934.96	214.00
935.26	213.99
935.56	214.03
935.86	214.02
936.16	214.02
936.46	214.05
936.76	214.03
937.06	214.00
937.36	214.03
937.66	214.06
937.96	214.03
938.26	214.00
938.56	213.97
938.86	214.02
939.16	214.03
939.46	214.07
939.76	214.10
940.06	214.08
940.35	214.03
940.65	213.95
940.95	214.01
941.25	213.97
941.55	213.97
941.85	213.97
942.15	213.99
942.45	214.04
942.75	214.04
943.04	214.04
943.34	214.10
943.64	214.04
943.94	214.00
944.24	214.01
944.54	214.02
944.84	213.97
945.13	213.92
945.43	213.92
945.73	213.92
946.03	213.91
946.33	213.88
946.62	213.91
946.92	213.91
947.22	213.92
947.52	213.98
947.82	213.98
948.11	213.94
948.41	213.87
948.71	213.80
949.01	213.80
949.31	213.80
949.60	213.78
949.90	213.86
950.20	213.85
950.50	213.85
950.79	213.86
951.09	213.95
951.39	213.94
951.69	213.90
951.98	213.93
952.28	213.95
952.58	213.98
952.87	213.95
953.17	213.97
953.47	213.94
953.76	213.91
954.06	213.88
954.36	213.85
954.66	213.86
954.95	213.93
955.25	213.93
955.55	213.94
955.84	213.89
956.14	213.86
956.44	213.83
956.73	213.79
957.03	213.78
957.32	213.76
957.62	213.76
957.92	213.81
958.21	213.77
958.51	214.01
958.81	214.02
959.10	214.04
959.40	214.13
959.69	214.13
959.99	214.16
960.29	214.16
960.58	214.16
960.88	214.27
961.17	214.25
961.47	214.28
961.76	214.27
962.06	214.30
962.36	214.30
962.65	214.32
962.95	214.36
963.24	214.34
963.54	214.36
963.83	214.38
964.13	214.32
964.42	214.25
964.72	214.07
965.01	214.07
965.31	214.02
965.60	213.94
965.90	214.07
966.19	213.98
966.49	214.03
966.78	214.02
967.08	213.93
967.37	213.92
967.67	213.89
967.96	213.94
968.26	213.95
968.55	213.97
968.85	213.94
969.14	213.92
969.43	213.95
969.73	213.91
970.02	213.89
970.32	213.90
970.61	213.89
970.91	213.83
971.20	213.80
971.49	213.80
971.79	213.82
972.08	213.64
972.38	213.68
972.67	213.64
972.96	213.66
973.26	213.65
973.55	213.72
973.85	213.69
974.14	213.64
974.43	213.65
974.73	213.60
975.02	213.63
975.31	213.62
975.61	213.65
975.90	213.62
976.19	213.63
976.49	213.62
976.78	213.70
977.07	213.69
977.37	213.71
977.66	213.72
977.95	213.71
978.24	213.73
978.54	213.77
978.83	213.75
979.12	213.74
979.42	213.76
979.71	213.68
980.00	213.70
980.29	213.71
980.59	213.66
980.88	213.71
981.17	213.70
981.46	213.70
981.76	213.65
982.05	213.72
982.34	213.73
982.63	213.78
982.93	213.74
983.22	213.81
983.51	213.81
983.80	213.85
984.09	213.89
984.39	213.91
984.68	213.88
984.97	213.90
985.26	213.91
985.55	213.89
985.85	213.86
986.14	213.90
986.43	213.88
986.72	213.87
987.01	213.78
987.30	213.73
987.59	213.73
987.89	213.73
988.18	213.64
988.47	213.60
988.76	213.54
989.05	213.53
989.34	213.48
989.63	213.53
989.92	213.51
990.22	213.48
990.51	213.45
990.80	213.45
991.09	213.47
991.38	213.46
991.67	213.46
991.96	213.47
992.25	213.43
992.54	213.42
992.83	213.44
993.12	213.48
993.41	213.55
993.70	213.62
993.99	213.69
994.28	213.74
994.58	213.78
994.87	213.76
995.16	213.75
995.45	213.72
995.74	213.63
996.03	213.67
996.32	213.69
996.61	213.73
996.90	213.77
997.19	213.74
997.48	213.76
997.77	213.74
998.06	213.74
998.34	213.75
998.63	213.77
998.92	213.79
999.21	213.81
999.50	213.78
999.79	213.72
1000.08	213.70
1000.37	213.70
1000.66	213.70
1000.95	213.75
1001.24	213.75
1001.53	213.81
1001.82	213.82
1002.11	213.74
1002.40	213.77
1002.68	213.84
1002.97	213.94
1003.26	213.92
1003.55	213.90
1003.84	213.90
1004.13	213.95
1004.42	213.94
1004.71	213.93
1004.99	213.92
1005.28	213.96
1005.57	213.99
1005.86	213.96
1006.15	213.95
1006.44	213.92
1006.72	213.93
1007.01	213.88
1007.30	213.90
1007.59	213.89
1007.88	213.89
1008.17	213.91
1008.45	213.85
1008.74	213.72
1009.03	213.62
1009.32	213.63
1009.60	213.59
1009.89	213.55
1010.18	213.46
1010.47	213.46
1010.76	213.45
1011.04	213.43
1011.33	213.49
1011.62	213.51
1011.91	213.54
1012.19	213.54
1012.48	213.53
1012.77	213.55
1013.05	213.66
1013.34	213.65
1013.63	213.60
1013.92	213.62
1014.20	213.62
1014.49	213.62
1014.78	213.64
1015.06	213.56
1015.35	213.57
1015.64	213.63
1015.92	213.72
1016.21	213.73
1016.50	213.74
1016.78	213.79
1017.07	213.82
1017.36	213.68
1017.64	213.62
1017.93	213.64
1018.22	213.62
1018.50	213.65
1018.79	213.60
1019.08	213.48
1019.36	213.48
1019.65	213.50
1019.93	213.54
1020.22	213.57
1020.51	213.68
1020.79	213.69
1021.08	213.21
1021.36	213.68
1021.65	213.18
1021.94	213.01
1022.22	213.40
1022.51	213.68
1022.79	214.39
1023.08	213.99
1023.36	216.03
1023.65	213.60
>>>>>End Processed Spectral Data<<<<<
