SpectraSuite Data File
++++++++++++++++++++++++++++++++++++
Date: Tue Jan 29 16:18:05 EST 2013
User: group
Dark Spectrum Present: No
Reference Spectrum Present: No
Number of Sampled Component Spectra: 1
Spectrometers: USB2E7196
Integration Time (usec): 65000 (USB2E7196)
Spectra Averaged: 100 (USB2E7196)
Boxcar Smoothing: 10 (USB2E7196)
Correct for Electrical Dark: No (USB2E7196)
Strobe/Lamp Enabled: No (USB2E7196)
Correct for Detector Non-linearity: No (USB2E7196)
Correct for Stray Light: No (USB2E7196)
Number of Pixels in Processed Spectrum: 2048
>>>>>Begin Processed Spectral Data<<<<<
339.09	0.00
339.48	202.82
339.86	204.33
340.24	206.21
340.63	207.02
341.01	211.20
341.39	209.77
341.78	211.64
342.16	212.64
342.54	212.60
342.93	202.02
343.31	212.24
343.69	212.79
344.07	213.24
344.46	213.66
344.84	214.07
345.22	214.25
345.60	214.50
345.99	214.67
346.37	214.81
346.75	214.91
347.13	214.97
347.52	215.02
347.90	215.12
348.28	215.11
348.66	215.18
349.05	215.12
349.43	215.15
349.81	215.19
350.19	215.19
350.57	215.23
350.96	215.32
351.34	215.41
351.72	215.48
352.10	215.60
352.48	215.65
352.87	215.66
353.25	215.72
353.63	215.75
354.01	215.79
354.39	215.85
354.77	215.93
355.15	216.10
355.54	216.09
355.92	216.08
356.30	216.13
356.68	216.29
357.06	216.38
357.44	216.38
357.82	216.43
358.20	216.53
358.58	216.58
358.97	216.62
359.35	216.69
359.73	216.81
360.11	216.86
360.49	216.88
360.87	216.94
361.25	217.01
361.63	217.13
362.01	217.16
362.39	217.18
362.77	217.21
363.15	217.16
363.53	217.21
363.91	217.24
364.29	217.27
364.67	217.12
365.05	217.17
365.43	217.22
365.81	217.24
366.19	217.36
366.57	217.46
366.95	217.50
367.33	217.44
367.71	217.41
368.09	217.44
368.47	217.46
368.85	217.47
369.23	217.47
369.61	217.40
369.99	217.51
370.37	217.54
370.75	217.63
371.13	217.59
371.51	217.59
371.89	217.64
372.27	217.63
372.65	217.62
373.03	217.60
373.41	217.57
373.78	217.56
374.16	217.41
374.54	217.33
374.92	217.26
375.30	217.26
375.68	217.18
376.06	217.14
376.44	217.10
376.82	217.05
377.19	217.00
377.57	216.96
377.95	216.83
378.33	216.77
378.71	216.58
379.09	216.59
379.47	216.58
379.84	216.51
380.22	216.46
380.60	216.37
380.98	216.32
381.36	216.25
381.73	216.20
382.11	216.22
382.49	216.16
382.87	216.10
383.25	216.02
383.62	216.20
384.00	216.13
384.38	216.12
384.76	216.13
385.13	216.18
385.51	216.16
385.89	216.11
386.27	216.07
386.64	216.09
387.02	216.03
387.40	215.98
387.78	215.94
388.15	215.97
388.53	215.94
388.91	215.92
389.29	215.92
389.66	215.93
390.04	215.86
390.42	215.87
390.79	215.87
391.17	215.87
391.55	215.68
391.92	215.64
392.30	215.65
392.68	215.58
393.05	215.55
393.43	215.53
393.81	215.51
394.18	215.50
394.56	215.49
394.94	215.55
395.31	215.54
395.69	215.64
396.06	215.63
396.44	215.69
396.82	215.69
397.19	215.82
397.57	215.77
397.95	215.88
398.32	215.86
398.70	215.92
399.07	216.00
399.45	216.02
399.82	216.09
400.20	216.11
400.58	216.19
400.95	216.18
401.33	216.27
401.70	216.49
402.08	216.58
402.45	216.72
402.83	216.82
403.20	216.93
403.58	216.97
403.95	217.12
404.33	217.25
404.71	217.39
405.08	217.63
405.46	217.83
405.83	217.98
406.21	218.18
406.58	218.38
406.96	218.59
407.33	218.85
407.70	219.12
408.08	219.55
408.45	219.89
408.83	220.28
409.20	220.59
409.58	220.89
409.95	221.34
410.33	221.78
410.70	222.19
411.08	222.72
411.45	223.29
411.82	223.83
412.20	224.50
412.57	225.33
412.95	225.86
413.32	226.65
413.69	227.43
414.07	228.31
414.44	229.25
414.82	230.24
415.19	231.40
415.56	232.59
415.94	233.73
416.31	235.07
416.68	236.38
417.06	237.93
417.43	239.40
417.81	241.08
418.18	242.81
418.55	244.74
418.93	246.71
419.30	248.72
419.67	250.88
420.04	253.09
420.42	255.37
420.79	258.11
421.16	260.83
421.54	263.62
421.91	266.50
422.28	269.52
422.66	272.70
423.03	275.81
423.40	278.99
423.77	282.52
424.15	286.05
424.52	289.79
424.89	293.80
425.26	297.76
425.64	301.51
426.01	305.69
426.38	309.94
426.75	314.28
427.13	318.87
427.50	323.68
427.87	328.75
428.24	333.73
428.61	338.56
428.99	343.90
429.36	349.78
429.73	355.47
430.10	361.20
430.47	367.01
430.85	373.11
431.22	379.57
431.59	386.37
431.96	392.95
432.33	400.19
432.70	407.19
433.08	415.36
433.45	423.11
433.82	430.80
434.19	439.35
434.56	447.78
434.93	455.85
435.30	463.82
435.68	472.52
436.05	481.30
436.42	489.94
436.79	497.74
437.16	506.21
437.53	515.22
437.90	524.02
438.27	532.67
438.64	541.59
439.01	549.92
439.38	557.34
439.75	564.43
440.13	572.59
440.50	580.35
440.87	586.61
441.24	593.00
441.61	600.11
441.98	605.29
442.35	611.40
442.72	617.51
443.09	623.35
443.46	627.02
443.83	629.37
444.20	631.41
444.57	634.46
444.94	635.82
445.31	637.13
445.68	638.44
446.05	639.04
446.42	638.27
446.79	637.29
447.16	636.16
447.53	635.47
447.90	632.27
448.27	629.06
448.64	624.61
449.01	621.48
449.37	615.71
449.74	610.30
450.11	603.63
450.48	596.47
450.85	589.22
451.22	582.95
451.59	577.09
451.96	571.48
452.33	563.91
452.70	557.10
453.07	548.97
453.43	540.68
453.80	532.72
454.17	524.97
454.54	517.68
454.91	509.80
455.28	502.03
455.65	494.83
456.02	487.62
456.38	481.47
456.75	473.84
457.12	467.55
457.49	461.28
457.86	455.30
458.23	450.14
458.59	444.49
458.96	438.75
459.33	433.61
459.70	428.46
460.07	424.38
460.43	419.58
460.80	415.17
461.17	411.36
461.54	407.34
461.91	403.49
462.27	399.53
462.64	396.24
463.01	392.65
463.38	389.07
463.74	385.47
464.11	382.31
464.48	379.57
464.85	376.60
465.21	374.25
465.58	371.76
465.95	368.72
466.32	366.20
466.68	363.64
467.05	361.16
467.42	358.68
467.78	356.06
468.15	353.67
468.52	351.83
468.88	349.44
469.25	347.28
469.62	345.53
469.98	343.68
470.35	341.97
470.72	340.35
471.08	338.63
471.45	337.20
471.82	335.74
472.18	334.16
472.55	333.00
472.92	331.65
473.28	330.49
473.65	329.41
474.02	328.38
474.38	327.58
474.75	326.85
475.11	326.10
475.48	325.51
475.85	325.03
476.21	324.58
476.58	324.22
476.94	324.01
477.31	323.76
477.67	323.52
478.04	323.40
478.41	323.32
478.77	323.53
479.14	323.51
479.50	323.64
479.87	323.94
480.23	324.29
480.60	324.54
480.96	324.78
481.33	325.36
481.69	325.87
482.06	326.35
482.42	326.81
482.79	327.37
483.15	328.17
483.52	329.14
483.88	329.98
484.25	330.87
484.61	331.84
484.98	332.85
485.34	334.18
485.71	335.49
486.07	336.94
486.44	338.18
486.80	339.71
487.17	341.42
487.53	343.17
487.90	345.03
488.26	347.06
488.62	349.21
488.99	351.24
489.35	353.42
489.72	355.78
490.08	358.32
490.44	360.90
490.81	363.64
491.17	366.33
491.54	369.34
491.90	372.42
492.26	375.68
492.63	379.12
492.99	382.57
493.36	386.24
493.72	390.12
494.08	394.17
494.45	398.42
494.81	402.77
495.17	407.28
495.54	411.98
495.90	416.77
496.26	421.74
496.63	426.93
496.99	432.27
497.35	437.87
497.72	443.66
498.08	449.61
498.44	455.70
498.80	462.12
499.17	468.57
499.53	475.24
499.89	482.13
500.26	489.06
500.62	496.09
500.98	503.45
501.34	510.84
501.71	518.56
502.07	526.39
502.43	534.34
502.79	542.41
503.16	550.74
503.52	559.28
503.88	567.94
504.24	576.84
504.60	585.89
504.97	595.03
505.33	604.30
505.69	614.04
506.05	623.83
506.41	633.59
506.78	643.54
507.14	653.76
507.50	664.12
507.86	674.73
508.22	685.39
508.59	695.97
508.95	707.04
509.31	718.22
509.67	729.60
510.03	740.98
510.39	752.62
510.75	764.38
511.12	776.24
511.48	788.23
511.84	800.37
512.20	812.50
512.56	825.05
512.92	837.67
513.28	850.19
513.64	862.84
514.00	875.47
514.37	888.27
514.73	901.14
515.09	913.99
515.45	926.74
515.81	939.68
516.17	952.89
516.53	965.91
516.89	978.79
517.25	991.72
517.61	1004.97
517.97	1018.24
518.33	1031.14
518.69	1044.43
519.05	1057.91
519.41	1071.40
519.77	1085.18
520.13	1098.18
520.49	1111.14
520.85	1124.27
521.21	1137.37
521.57	1150.77
521.93	1163.70
522.29	1177.25
522.65	1190.63
523.01	1203.95
523.37	1216.86
523.73	1229.82
524.09	1242.65
524.45	1255.86
524.81	1268.98
525.17	1281.98
525.53	1294.86
525.89	1307.87
526.25	1320.68
526.61	1333.30
526.97	1345.99
527.33	1358.52
527.68	1371.67
528.04	1384.78
528.40	1397.53
528.76	1410.56
529.12	1423.14
529.48	1435.98
529.84	1447.82
530.20	1460.24
530.56	1472.57
530.91	1485.50
531.27	1498.11
531.63	1510.54
531.99	1522.89
532.35	1534.93
532.71	1547.07
533.07	1559.52
533.42	1571.36
533.78	1583.12
534.14	1594.74
534.50	1605.61
534.86	1616.87
535.21	1627.42
535.57	1638.55
535.93	1649.52
536.29	1660.08
536.65	1671.23
537.00	1681.83
537.36	1692.75
537.72	1703.32
538.08	1714.22
538.44	1724.51
538.79	1734.98
539.15	1745.33
539.51	1755.39
539.87	1766.09
540.22	1776.26
540.58	1786.42
540.94	1796.73
541.29	1806.46
541.65	1815.62
542.01	1825.67
542.37	1835.14
542.72	1844.74
543.08	1854.16
543.44	1864.20
543.79	1873.13
544.15	1882.12
544.51	1891.69
544.87	1901.42
545.22	1910.36
545.58	1918.93
545.94	1927.76
546.29	1936.14
546.65	1944.44
547.01	1952.68
547.36	1960.28
547.72	1967.92
548.07	1975.66
548.43	1983.41
548.79	1991.14
549.14	1999.29
549.50	2007.68
549.86	2015.74
550.21	2023.08
550.57	2030.56
550.92	2037.25
551.28	2044.78
551.64	2052.06
551.99	2059.58
552.35	2066.57
552.70	2073.25
553.06	2079.85
553.41	2085.98
553.77	2092.41
554.13	2098.61
554.48	2105.56
554.84	2112.53
555.19	2118.93
555.55	2125.27
555.90	2131.50
556.26	2138.28
556.61	2144.24
556.97	2148.90
557.32	2154.44
557.68	2160.88
558.03	2166.58
558.39	2171.86
558.74	2177.64
559.10	2183.04
559.45	2188.52
559.81	2193.99
560.16	2199.56
560.52	2205.28
560.87	2211.72
561.23	2217.53
561.58	2224.07
561.94	2229.28
562.29	2233.99
562.64	2240.18
563.00	2245.80
563.35	2251.35
563.71	2257.12
564.06	2262.79
564.42	2268.90
564.77	2274.00
565.12	2279.15
565.48	2284.21
565.83	2289.72
566.19	2295.16
566.54	2300.56
566.89	2305.04
567.25	2309.57
567.60	2315.28
567.96	2320.47
568.31	2324.93
568.66	2329.37
569.02	2333.29
569.37	2337.06
569.72	2341.44
570.08	2344.91
570.43	2347.99
570.78	2351.01
571.14	2353.62
571.49	2356.69
571.84	2360.22
572.20	2363.19
572.55	2366.29
572.90	2368.65
573.26	2371.50
573.61	2374.05
573.96	2376.27
574.31	2378.52
574.67	2380.47
575.02	2381.25
575.37	2382.76
575.72	2383.51
576.08	2385.05
576.43	2385.45
576.78	2386.09
577.13	2387.82
577.49	2389.14
577.84	2390.39
578.19	2391.97
578.54	2392.64
578.90	2393.59
579.25	2393.46
579.60	2393.46
579.95	2392.88
580.30	2393.26
580.66	2392.66
581.01	2391.16
581.36	2388.90
581.71	2387.71
582.06	2386.72
582.42	2386.10
582.77	2384.20
583.12	2382.82
583.47	2381.48
583.82	2380.99
584.17	2379.82
584.53	2377.78
584.88	2375.77
585.23	2373.96
585.58	2371.80
585.93	2369.96
586.28	2367.93
586.63	2365.72
586.98	2363.77
587.34	2361.95
587.69	2359.61
588.04	2357.72
588.39	2356.37
588.74	2354.15
589.09	2351.65
589.44	2348.94
589.79	2346.55
590.14	2344.72
590.49	2342.05
590.84	2338.35
591.19	2335.50
591.54	2332.46
591.89	2328.62
592.25	2325.59
592.60	2321.64
592.95	2317.70
593.30	2313.74
593.65	2309.56
594.00	2305.43
594.35	2302.52
594.70	2298.09
595.05	2293.79
595.40	2288.50
595.75	2283.06
596.10	2279.60
596.45	2274.88
596.80	2270.29
597.15	2265.25
597.50	2259.42
597.85	2254.68
598.19	2249.68
598.54	2244.06
598.89	2239.05
599.24	2234.72
599.59	2228.65
599.94	2223.05
600.29	2217.21
600.64	2211.28
600.99	2204.63
601.34	2199.14
601.69	2192.31
602.04	2186.04
602.39	2179.61
602.74	2173.78
603.08	2168.28
603.43	2161.76
603.78	2155.00
604.13	2148.10
604.48	2140.92
604.83	2134.93
605.18	2128.59
605.53	2121.68
605.87	2114.41
606.22	2107.49
606.57	2099.47
606.92	2091.54
607.27	2084.25
607.62	2077.35
607.96	2070.20
608.31	2063.54
608.66	2055.61
609.01	2047.82
609.36	2040.57
609.70	2032.61
610.05	2024.73
610.40	2016.40
610.75	2008.15
611.10	2000.41
611.44	1991.50
611.79	1982.71
612.14	1972.73
612.49	1962.33
612.83	1953.04
613.18	1944.07
613.53	1934.90
613.88	1925.45
614.22	1917.07
614.57	1907.63
614.92	1897.50
615.27	1887.69
615.61	1877.93
615.96	1868.64
616.31	1859.26
616.65	1850.11
617.00	1840.51
617.35	1830.96
617.70	1821.35
618.04	1811.41
618.39	1801.32
618.74	1791.70
619.08	1782.24
619.43	1773.67
619.78	1765.47
620.12	1757.03
620.47	1747.49
620.82	1737.34
621.16	1727.75
621.51	1717.96
621.85	1708.13
622.20	1697.80
622.55	1687.28
622.89	1677.56
623.24	1667.93
623.59	1658.34
623.93	1648.25
624.28	1638.59
624.62	1628.56
624.97	1618.37
625.32	1608.70
625.66	1599.95
626.01	1591.20
626.35	1581.91
626.70	1571.84
627.04	1561.83
627.39	1551.78
627.73	1542.50
628.08	1533.54
628.43	1523.94
628.77	1514.73
629.12	1505.93
629.46	1498.06
629.81	1489.76
630.15	1480.08
630.50	1470.25
630.84	1459.76
631.19	1449.99
631.53	1440.74
631.88	1430.75
632.22	1420.87
632.57	1411.65
632.91	1401.52
633.26	1391.83
633.60	1382.36
633.95	1373.22
634.29	1363.92
634.64	1354.65
634.98	1344.81
635.32	1335.55
635.67	1327.10
636.01	1317.80
636.36	1308.08
636.70	1298.70
637.05	1289.49
637.39	1280.65
637.73	1272.09
638.08	1264.56
638.42	1256.28
638.77	1247.54
639.11	1239.38
639.45	1231.54
639.80	1222.91
640.14	1214.24
640.49	1205.41
640.83	1196.63
641.17	1188.58
641.52	1180.40
641.86	1171.91
642.20	1164.10
642.55	1155.52
642.89	1146.74
643.23	1138.17
643.58	1130.12
643.92	1121.13
644.26	1112.45
644.61	1104.18
644.95	1095.45
645.29	1086.29
645.64	1077.23
645.98	1068.82
646.32	1060.90
646.66	1052.47
647.01	1044.17
647.35	1036.15
647.69	1027.79
648.04	1019.61
648.38	1010.56
648.72	1001.82
649.06	993.44
649.41	985.39
649.75	977.57
650.09	969.81
650.43	961.85
650.78	953.65
651.12	946.09
651.46	938.72
651.80	931.49
652.14	924.26
652.49	916.87
652.83	909.59
653.17	901.94
653.51	894.44
653.85	887.23
654.20	880.11
654.54	872.66
654.88	865.62
655.22	858.46
655.56	851.75
655.90	845.05
656.25	838.42
656.59	831.49
656.93	824.53
657.27	817.41
657.61	810.59
657.95	804.53
658.29	798.55
658.64	792.47
658.98	786.07
659.32	779.60
659.66	773.45
660.00	767.20
660.34	761.25
660.68	755.18
661.02	749.01
661.36	743.19
661.70	737.49
662.05	731.90
662.39	726.46
662.73	721.06
663.07	715.78
663.41	710.27
663.75	704.70
664.09	699.10
664.43	693.83
664.77	688.60
665.11	682.88
665.45	677.15
665.79	671.45
666.13	665.85
666.47	660.45
666.81	655.05
667.15	649.78
667.49	644.63
667.83	639.49
668.17	634.38
668.51	629.22
668.85	624.42
669.19	619.56
669.53	614.63
669.87	609.61
670.21	604.91
670.55	600.25
670.89	595.90
671.23	591.68
671.57	587.37
671.91	583.08
672.25	579.04
672.58	574.98
672.92	570.98
673.26	567.09
673.60	563.30
673.94	559.59
674.28	556.05
674.62	552.45
674.96	548.77
675.30	545.27
675.64	541.80
675.97	538.29
676.31	534.82
676.65	531.34
676.99	528.00
677.33	524.19
677.67	520.61
678.01	516.82
678.34	513.24
678.68	509.74
679.02	506.22
679.36	502.56
679.70	499.01
680.04	495.52
680.37	492.17
680.71	488.90
681.05	485.77
681.39	482.61
681.73	479.46
682.06	476.44
682.40	473.38
682.74	470.13
683.08	466.94
683.42	463.79
683.75	460.79
684.09	457.82
684.43	455.10
684.77	452.29
685.10	449.52
685.44	446.70
685.78	443.86
686.12	441.15
686.45	438.52
686.79	435.89
687.13	433.42
687.46	430.86
687.80	428.27
688.14	425.48
688.48	422.84
688.81	420.28
689.15	417.76
689.49	415.21
689.82	412.83
690.16	410.28
690.50	407.90
690.83	405.43
691.17	402.93
691.51	400.55
691.84	398.38
692.18	396.21
692.52	394.04
692.85	391.96
693.19	389.84
693.52	387.71
693.86	385.53
694.20	383.41
694.53	381.31
694.87	379.10
695.21	377.04
695.54	374.95
695.88	372.83
696.21	370.69
696.55	368.63
696.88	366.59
697.22	364.72
697.56	362.83
697.89	361.05
698.23	359.38
698.56	357.60
698.90	355.79
699.23	353.90
699.57	352.06
699.90	350.24
700.24	348.45
700.58	346.77
700.91	345.19
701.25	343.64
701.58	342.08
701.92	340.55
702.25	338.98
702.59	337.41
702.92	335.87
703.26	334.35
703.59	332.85
703.93	331.60
704.26	330.16
704.60	328.73
704.93	327.26
705.26	325.80
705.60	324.38
705.93	322.94
706.27	321.65
706.60	320.42
706.94	319.22
707.27	317.89
707.61	316.53
707.94	315.19
708.27	313.70
708.61	312.26
708.94	310.92
709.28	309.70
709.61	308.47
709.94	307.29
710.28	306.11
710.61	305.01
710.95	303.65
711.28	302.60
711.61	301.44
711.95	300.37
712.28	299.20
712.61	298.08
712.95	297.03
713.28	296.05
713.61	294.92
713.95	293.80
714.28	292.83
714.61	291.84
714.95	290.88
715.28	289.92
715.61	288.98
715.95	288.07
716.28	287.13
716.61	286.26
716.95	285.30
717.28	284.43
717.61	283.51
717.94	282.65
718.28	281.68
718.61	280.81
718.94	279.88
719.27	279.03
719.61	278.21
719.94	277.42
720.27	276.49
720.60	275.68
720.94	274.91
721.27	274.16
721.60	273.52
721.93	272.79
722.27	272.18
722.60	271.53
722.93	270.82
723.26	270.15
723.59	269.41
723.93	268.81
724.26	268.18
724.59	267.51
724.92	266.95
725.25	266.43
725.59	265.89
725.92	265.41
726.25	264.91
726.58	264.36
726.91	263.73
727.24	263.22
727.57	262.71
727.91	262.15
728.24	261.64
728.57	261.03
728.90	260.48
729.23	259.86
729.56	259.43
729.89	258.91
730.22	258.38
730.55	257.91
730.89	257.41
731.22	256.90
731.55	256.41
731.88	255.89
732.21	255.36
732.54	254.83
732.87	254.31
733.20	253.83
733.53	253.35
733.86	252.94
734.19	252.44
734.52	252.02
734.85	251.73
735.18	251.24
735.51	250.90
735.84	250.49
736.17	250.12
736.50	249.63
736.83	249.46
737.16	249.10
737.49	248.68
737.82	248.25
738.15	247.89
738.48	247.53
738.81	247.16
739.14	246.75
739.47	246.38
739.80	246.02
740.13	245.65
740.46	245.24
740.79	244.85
741.12	244.52
741.45	244.15
741.78	243.72
742.11	243.44
742.44	243.07
742.77	242.76
743.10	242.45
743.43	242.12
743.75	241.56
744.08	241.50
744.41	241.19
744.74	240.87
745.07	240.49
745.40	240.19
745.73	239.94
746.06	239.67
746.39	239.35
746.71	239.06
747.04	238.73
747.37	238.47
747.70	238.19
748.03	237.88
748.36	237.63
748.68	237.31
749.01	236.99
749.34	236.67
749.67	236.40
750.00	236.12
750.33	236.00
750.65	235.77
750.98	235.26
751.31	235.05
751.64	234.82
751.97	234.75
752.29	234.52
752.62	234.17
752.95	233.89
753.28	233.65
753.60	233.39
753.93	233.23
754.26	232.99
754.59	232.75
754.91	232.50
755.24	232.25
755.57	232.05
755.90	231.85
756.22	231.61
756.55	231.36
756.88	231.13
757.20	230.76
757.53	230.54
757.86	230.31
758.19	230.09
758.51	229.94
758.84	229.61
759.17	229.38
759.49	229.23
759.82	229.18
760.15	229.05
760.47	228.88
760.80	228.63
761.13	228.51
761.45	228.30
761.78	228.14
762.11	227.97
762.43	227.79
762.76	227.61
763.08	227.49
763.41	227.34
763.74	227.19
764.06	227.06
764.39	226.94
764.71	226.80
765.04	226.65
765.37	226.44
765.69	226.34
766.02	226.21
766.34	226.05
766.67	225.84
767.00	225.71
767.32	225.71
767.65	225.73
767.97	225.59
768.30	225.50
768.62	225.37
768.95	225.26
769.27	225.12
769.60	225.02
769.92	224.86
770.25	224.71
770.57	224.57
770.90	224.41
771.22	224.24
771.55	224.15
771.87	224.07
772.20	223.99
772.52	224.05
772.85	224.16
773.17	224.10
773.50	223.99
773.82	223.89
774.15	223.69
774.47	223.47
774.80	223.35
775.12	223.24
775.45	223.12
775.77	223.03
776.09	222.96
776.42	222.87
776.74	222.85
777.07	222.75
777.39	222.67
777.72	222.61
778.04	222.58
778.36	222.49
778.69	222.39
779.01	222.31
779.33	222.05
779.66	221.74
779.98	221.69
780.31	221.64
780.63	221.61
780.95	221.55
781.28	221.50
781.60	221.44
781.92	221.38
782.25	221.35
782.57	221.29
782.89	221.25
783.22	221.17
783.54	221.08
783.86	221.07
784.19	221.00
784.51	221.01
784.83	220.92
785.16	220.87
785.48	220.82
785.80	220.76
786.12	220.71
786.45	220.68
786.77	220.58
787.09	220.54
787.42	220.42
787.74	220.37
788.06	220.31
788.38	220.24
788.71	220.22
789.03	220.17
789.35	220.11
789.67	220.00
789.99	219.97
790.32	219.90
790.64	219.87
790.96	219.98
791.28	219.83
791.61	219.77
791.93	219.71
792.25	219.64
792.57	219.75
792.89	219.67
793.21	219.65
793.54	219.57
793.86	219.49
794.18	219.46
794.50	219.39
794.82	219.31
795.14	219.30
795.47	219.26
795.79	219.21
796.11	219.12
796.43	219.10
796.75	219.06
797.07	219.04
797.39	219.00
797.71	218.82
798.04	218.82
798.36	218.78
798.68	218.76
799.00	218.70
799.32	218.52
799.64	218.52
799.96	218.49
800.28	218.50
800.60	218.45
800.92	218.41
801.24	218.35
801.56	218.34
801.89	218.28
802.21	218.25
802.53	218.19
802.85	218.20
803.17	218.27
803.49	218.19
803.81	218.16
804.13	218.07
804.45	218.03
804.77	217.99
805.09	217.98
805.41	217.89
805.73	217.87
806.05	217.80
806.37	217.76
806.69	217.68
807.01	217.65
807.33	217.66
807.65	217.57
807.97	217.67
808.28	217.66
808.60	217.61
808.92	217.54
809.24	217.67
809.56	217.65
809.88	217.55
810.20	217.56
810.52	217.57
810.84	217.56
811.16	217.50
811.48	217.49
811.80	217.52
812.12	217.55
812.43	217.56
812.75	217.56
813.07	217.52
813.39	217.52
813.71	217.45
814.03	217.40
814.35	217.39
814.67	217.26
814.98	217.21
815.30	217.19
815.62	217.14
815.94	216.97
816.26	216.93
816.58	216.85
816.89	216.84
817.21	216.74
817.53	216.75
817.85	216.76
818.17	216.70
818.48	216.60
818.80	216.58
819.12	216.53
819.44	216.47
819.76	216.42
820.07	216.41
820.39	216.35
820.71	216.36
821.03	216.38
821.34	216.36
821.66	216.37
821.98	216.37
822.30	216.36
822.61	216.49
822.93	216.44
823.25	216.41
823.57	216.39
823.88	216.40
824.20	216.36
824.52	216.37
824.83	216.38
825.15	216.36
825.47	216.34
825.79	216.32
826.10	216.28
826.42	216.28
826.74	216.30
827.05	216.35
827.37	216.33
827.69	216.28
828.00	216.28
828.32	216.26
828.64	216.22
828.95	216.31
829.27	216.23
829.58	216.22
829.90	216.24
830.22	216.22
830.53	216.18
830.85	216.16
831.17	216.10
831.48	216.08
831.80	216.07
832.11	216.04
832.43	216.03
832.75	216.04
833.06	216.13
833.38	216.05
833.69	216.02
834.01	216.04
834.32	216.02
834.64	215.97
834.96	215.96
835.27	215.92
835.59	215.82
835.90	215.74
836.22	215.75
836.53	215.75
836.85	215.75
837.16	215.94
837.48	215.92
837.79	215.99
838.11	215.98
838.42	215.97
838.74	215.99
839.05	215.95
839.37	215.93
839.68	215.80
840.00	215.78
840.31	215.76
840.63	215.72
840.94	215.71
841.26	215.70
841.57	215.69
841.88	215.74
842.20	215.72
842.51	215.73
842.83	215.69
843.14	215.86
843.46	215.85
843.77	215.74
844.08	215.72
844.40	215.64
844.71	215.64
845.03	215.61
845.34	215.58
845.65	215.58
845.97	215.58
846.28	215.59
846.60	215.60
846.91	215.58
847.22	215.54
847.54	215.58
847.85	215.62
848.16	215.59
848.48	215.57
848.79	215.64
849.10	215.67
849.42	215.68
849.73	215.47
850.04	215.47
850.36	215.37
850.67	215.40
850.98	215.43
851.30	215.45
851.61	215.44
851.92	215.45
852.23	215.51
852.55	215.53
852.86	215.52
853.17	215.53
853.49	215.59
853.80	215.66
854.11	215.65
854.42	215.64
854.74	215.62
855.05	215.60
855.36	215.51
855.67	215.52
855.99	215.52
856.30	215.79
856.61	215.76
856.92	215.78
857.23	215.77
857.55	215.73
857.86	215.70
858.17	215.76
858.48	215.73
858.79	215.66
859.11	215.69
859.42	215.71
859.73	215.67
860.04	215.66
860.35	215.56
860.66	215.52
860.98	215.51
861.29	215.49
861.60	215.46
861.91	215.54
862.22	215.48
862.53	215.44
862.84	215.18
863.16	215.23
863.47	215.19
863.78	215.18
864.09	215.22
864.40	215.26
864.71	215.21
865.02	215.25
865.33	215.23
865.64	215.17
865.95	215.16
866.27	215.30
866.58	215.26
866.89	215.31
867.20	215.30
867.51	215.29
867.82	215.32
868.13	215.38
868.44	215.30
868.75	215.34
869.06	215.35
869.37	215.36
869.68	215.26
869.99	215.31
870.30	215.35
870.61	215.35
870.92	215.29
871.23	215.31
871.54	215.31
871.85	215.36
872.16	215.39
872.47	215.35
872.78	215.21
873.09	215.21
873.40	215.18
873.71	215.19
874.02	215.21
874.33	215.20
874.64	215.16
874.95	215.17
875.26	215.13
875.56	215.11
875.87	215.10
876.18	215.10
876.49	215.27
876.80	215.24
877.11	215.20
877.42	215.17
877.73	215.13
878.04	215.10
878.35	215.12
878.66	215.13
878.96	215.16
879.27	215.16
879.58	215.16
879.89	215.15
880.20	215.19
880.51	215.18
880.82	215.17
881.12	215.18
881.43	215.15
881.74	215.13
882.05	215.15
882.36	215.17
882.67	215.23
882.97	215.00
883.28	214.96
883.59	214.96
883.90	215.02
884.21	215.05
884.51	215.03
884.82	214.97
885.13	214.95
885.44	214.96
885.74	214.96
886.05	214.97
886.36	214.98
886.67	214.89
886.98	214.98
887.28	214.98
887.59	215.01
887.90	215.02
888.20	214.99
888.51	215.01
888.82	214.96
889.13	214.93
889.43	215.10
889.74	215.10
890.05	215.09
890.35	215.07
890.66	215.07
890.97	215.10
891.28	215.09
891.58	215.10
891.89	215.07
892.20	215.05
892.50	215.02
892.81	215.01
893.12	215.05
893.42	214.97
893.73	215.00
894.04	214.98
894.34	215.01
894.65	215.04
894.95	215.04
895.26	215.05
895.57	215.12
895.87	214.94
896.18	214.97
896.48	214.96
896.79	214.96
897.10	214.96
897.40	214.94
897.71	214.95
898.01	214.91
898.32	214.95
898.63	214.93
898.93	214.95
899.24	214.94
899.54	214.92
899.85	214.89
900.15	214.84
900.46	214.83
900.76	214.82
901.07	214.82
901.38	214.84
901.68	214.85
901.99	214.77
902.29	214.77
902.60	214.77
902.90	214.77
903.21	214.77
903.51	214.77
903.82	214.83
904.12	214.84
904.43	214.88
904.73	214.85
905.03	214.87
905.34	215.03
905.64	215.02
905.95	215.00
906.25	215.00
906.56	215.04
906.86	215.05
907.17	215.05
907.47	215.07
907.77	215.01
908.08	214.99
908.38	214.99
908.69	215.03
908.99	215.04
909.30	215.01
909.60	214.99
909.90	214.98
910.21	214.89
910.51	214.87
910.81	214.87
911.12	214.85
911.42	214.83
911.73	214.66
912.03	214.68
912.33	214.73
912.64	214.73
912.94	214.67
913.24	214.62
913.55	214.62
913.85	214.55
914.15	214.59
914.46	214.60
914.76	214.60
915.06	214.56
915.37	214.56
915.67	214.59
915.97	214.60
916.27	214.56
916.58	214.58
916.88	214.55
917.18	214.51
917.49	214.69
917.79	214.68
918.09	214.71
918.39	214.73
918.70	214.70
919.00	214.71
919.30	214.82
919.60	214.79
919.91	214.76
920.21	214.80
920.51	214.78
920.81	214.78
921.12	214.80
921.42	214.79
921.72	214.80
922.02	214.77
922.32	214.79
922.63	214.80
922.93	214.93
923.23	214.93
923.53	214.94
923.83	214.85
924.13	214.87
924.44	214.87
924.74	214.93
925.04	214.98
925.34	214.98
925.64	214.92
925.94	214.99
926.24	215.09
926.55	215.09
926.85	215.10
927.15	215.08
927.45	215.08
927.75	215.10
928.05	215.08
928.35	215.08
928.65	215.13
928.95	215.15
929.26	215.06
929.56	215.11
929.86	215.13
930.16	215.08
930.46	215.08
930.76	215.08
931.06	214.98
931.36	214.90
931.66	214.91
931.96	214.91
932.26	214.87
932.56	214.76
932.86	214.75
933.16	214.76
933.46	214.78
933.76	214.78
934.06	214.84
934.36	214.93
934.66	214.93
934.96	214.87
935.26	214.87
935.56	214.91
935.86	214.82
936.16	214.80
936.46	214.79
936.76	214.77
937.06	214.73
937.36	214.75
937.66	214.78
937.96	214.78
938.26	214.74
938.56	214.75
938.86	214.80
939.16	214.83
939.46	214.83
939.76	214.82
940.06	214.80
940.35	214.73
940.65	214.60
940.95	214.62
941.25	214.59
941.55	214.55
941.85	214.50
942.15	214.59
942.45	214.63
942.75	214.65
943.04	214.69
943.34	214.74
943.64	214.71
943.94	214.67
944.24	214.66
944.54	214.66
944.84	214.66
945.13	214.60
945.43	214.60
945.73	214.59
946.03	214.60
946.33	214.57
946.62	214.56
946.92	214.57
947.22	214.59
947.52	214.62
947.82	214.65
948.11	214.64
948.41	214.57
948.71	214.56
949.01	214.54
949.31	214.46
949.60	214.43
949.90	214.45
950.20	214.47
950.50	214.47
950.79	214.46
951.09	214.50
951.39	214.55
951.69	214.50
951.98	214.55
952.28	214.51
952.58	214.51
952.87	214.50
953.17	214.49
953.47	214.42
953.76	214.42
954.06	214.39
954.36	214.37
954.66	214.40
954.95	214.40
955.25	214.41
955.55	214.46
955.84	214.43
956.14	214.45
956.44	214.47
956.73	214.45
957.03	214.46
957.32	214.43
957.62	214.40
957.92	214.46
958.21	214.42
958.51	214.71
958.81	214.73
959.10	214.76
959.40	214.82
959.69	214.86
959.99	214.88
960.29	214.88
960.58	214.86
960.88	214.95
961.17	214.94
961.47	214.96
961.76	214.91
962.06	214.95
962.36	214.93
962.65	214.93
962.95	214.95
963.24	214.93
963.54	214.97
963.83	214.98
964.13	214.97
964.42	214.92
964.72	214.70
965.01	214.72
965.31	214.71
965.60	214.68
965.90	214.82
966.19	214.79
966.49	214.80
966.78	214.82
967.08	214.77
967.37	214.79
967.67	214.75
967.96	214.82
968.26	214.81
968.55	214.85
968.85	214.85
969.14	214.83
969.43	214.82
969.73	214.78
970.02	214.75
970.32	214.73
970.61	214.74
970.91	214.70
971.20	214.65
971.49	214.62
971.79	214.64
972.08	214.49
972.38	214.52
972.67	214.55
972.96	214.55
973.26	214.53
973.55	214.57
973.85	214.56
974.14	214.54
974.43	214.56
974.73	214.51
975.02	214.48
975.31	214.50
975.61	214.51
975.90	214.47
976.19	214.50
976.49	214.51
976.78	214.52
977.07	214.52
977.37	214.55
977.66	214.59
977.95	214.60
978.24	214.60
978.54	214.63
978.83	214.57
979.12	214.57
979.42	214.54
979.71	214.52
980.00	214.53
980.29	214.54
980.59	214.50
980.88	214.55
981.17	214.53
981.46	214.51
981.76	214.53
982.05	214.62
982.34	214.62
982.63	214.63
982.93	214.62
983.22	214.67
983.51	214.69
983.80	214.70
984.09	214.69
984.39	214.70
984.68	214.68
984.97	214.72
985.26	214.70
985.55	214.74
985.85	214.69
986.14	214.71
986.43	214.73
986.72	214.72
987.01	214.66
987.30	214.66
987.59	214.67
987.89	214.69
988.18	214.60
988.47	214.57
988.76	214.53
989.05	214.51
989.34	214.49
989.63	214.53
989.92	214.50
990.22	214.48
990.51	214.46
990.80	214.44
991.09	214.43
991.38	214.47
991.67	214.46
991.96	214.41
992.25	214.40
992.54	214.33
992.83	214.36
993.12	214.32
993.41	214.34
993.70	214.41
993.99	214.41
994.28	214.42
994.58	214.43
994.87	214.43
995.16	214.42
995.45	214.36
995.74	214.31
996.03	214.33
996.32	214.36
996.61	214.43
996.90	214.43
997.19	214.40
997.48	214.41
997.77	214.37
998.06	214.42
998.34	214.40
998.63	214.41
998.92	214.39
999.21	214.47
999.50	214.49
999.79	214.40
1000.08	214.40
1000.37	214.45
1000.66	214.44
1000.95	214.51
1001.24	214.54
1001.53	214.56
1001.82	214.55
1002.11	214.50
1002.40	214.53
1002.68	214.54
1002.97	214.67
1003.26	214.66
1003.55	214.59
1003.84	214.61
1004.13	214.68
1004.42	214.69
1004.71	214.69
1004.99	214.69
1005.28	214.70
1005.57	214.69
1005.86	214.70
1006.15	214.70
1006.44	214.66
1006.72	214.68
1007.01	214.64
1007.30	214.61
1007.59	214.61
1007.88	214.60
1008.17	214.62
1008.45	214.56
1008.74	214.47
1009.03	214.39
1009.32	214.43
1009.60	214.44
1009.89	214.43
1010.18	214.30
1010.47	214.29
1010.76	214.30
1011.04	214.31
1011.33	214.36
1011.62	214.37
1011.91	214.37
1012.19	214.36
1012.48	214.35
1012.77	214.40
1013.05	214.47
1013.34	214.48
1013.63	214.48
1013.92	214.49
1014.20	214.48
1014.49	214.49
1014.78	214.51
1015.06	214.46
1015.35	214.45
1015.64	214.49
1015.92	214.53
1016.21	214.59
1016.50	214.61
1016.78	214.64
1017.07	214.65
1017.36	214.61
1017.64	214.59
1017.93	214.63
1018.22	214.62
1018.50	214.65
1018.79	214.58
1019.08	214.50
1019.36	214.56
1019.65	214.54
1019.93	214.61
1020.22	214.62
1020.51	214.71
1020.79	214.71
1021.08	214.29
1021.36	214.67
1021.65	214.18
1021.94	214.39
1022.22	215.16
1022.51	213.95
1022.79	215.92
1023.08	214.08
1023.36	216.53
1023.65	214.37
>>>>>End Processed Spectral Data<<<<<
