SpectraSuite Data File
++++++++++++++++++++++++++++++++++++
Date: Tue Jan 29 16:17:51 EST 2013
User: group
Dark Spectrum Present: No
Reference Spectrum Present: No
Number of Sampled Component Spectra: 1
Spectrometers: USB2E7196
Integration Time (usec): 65000 (USB2E7196)
Spectra Averaged: 100 (USB2E7196)
Boxcar Smoothing: 10 (USB2E7196)
Correct for Electrical Dark: No (USB2E7196)
Strobe/Lamp Enabled: No (USB2E7196)
Correct for Detector Non-linearity: No (USB2E7196)
Correct for Stray Light: No (USB2E7196)
Number of Pixels in Processed Spectrum: 2048
>>>>>Begin Processed Spectral Data<<<<<
339.09	0.00
339.48	202.86
339.86	204.50
340.24	205.69
340.63	207.02
341.01	211.04
341.39	209.74
341.78	211.80
342.16	212.64
342.54	212.52
342.93	201.90
343.31	212.08
343.69	212.61
344.07	213.01
344.46	213.45
344.84	213.87
345.22	214.05
345.60	214.28
345.99	214.44
346.37	214.55
346.75	214.67
347.13	214.74
347.52	214.79
347.90	214.85
348.28	214.86
348.66	214.94
349.05	214.92
349.43	214.98
349.81	215.06
350.19	215.07
350.57	215.14
350.96	215.20
351.34	215.32
351.72	215.39
352.10	215.52
352.48	215.56
352.87	215.59
353.25	215.64
353.63	215.71
354.01	215.76
354.39	215.84
354.77	215.89
355.15	216.00
355.54	216.00
355.92	216.03
356.30	216.11
356.68	216.29
357.06	216.35
357.44	216.34
357.82	216.38
358.20	216.43
358.58	216.49
358.97	216.59
359.35	216.66
359.73	216.76
360.11	216.79
360.49	216.86
360.87	216.88
361.25	216.96
361.63	217.09
362.01	217.15
362.39	217.17
362.77	217.22
363.15	217.25
363.53	217.33
363.91	217.38
364.29	217.38
364.67	217.21
365.05	217.23
365.43	217.28
365.81	217.33
366.19	217.44
366.57	217.52
366.95	217.52
367.33	217.49
367.71	217.48
368.09	217.57
368.47	217.58
368.85	217.58
369.23	217.59
369.61	217.51
369.99	217.58
370.37	217.62
370.75	217.67
371.13	217.59
371.51	217.57
371.89	217.57
372.27	217.60
372.65	217.61
373.03	217.61
373.41	217.60
373.78	217.56
374.16	217.42
374.54	217.34
374.92	217.28
375.30	217.27
375.68	217.18
376.06	217.11
376.44	217.04
376.82	217.02
377.19	216.97
377.57	216.88
377.95	216.76
378.33	216.66
378.71	216.54
379.09	216.60
379.47	216.50
379.84	216.43
380.22	216.35
380.60	216.26
380.98	216.22
381.36	216.15
381.73	216.06
382.11	216.08
382.49	216.05
382.87	216.01
383.25	215.97
383.62	216.22
384.00	216.15
384.38	216.15
384.76	216.17
385.13	216.21
385.51	216.23
385.89	216.17
386.27	216.17
386.64	216.14
387.02	216.04
387.40	216.06
387.78	216.05
388.15	216.03
388.53	216.01
388.91	215.98
389.29	215.95
389.66	215.99
390.04	215.94
390.42	215.96
390.79	215.95
391.17	215.95
391.55	215.69
391.92	215.67
392.30	215.68
392.68	215.61
393.05	215.59
393.43	215.56
393.81	215.61
394.18	215.56
394.56	215.57
394.94	215.66
395.31	215.66
395.69	215.72
396.06	215.74
396.44	215.78
396.82	215.76
397.19	215.87
397.57	215.82
397.95	215.90
398.32	215.86
398.70	215.87
399.07	215.93
399.45	215.94
399.82	215.98
400.20	216.00
400.58	216.07
400.95	216.04
401.33	216.17
401.70	216.36
402.08	216.48
402.45	216.57
402.83	216.68
403.20	216.78
403.58	216.84
403.95	217.02
404.33	217.16
404.71	217.32
405.08	217.56
405.46	217.79
405.83	217.94
406.21	218.16
406.58	218.39
406.96	218.59
407.33	218.85
407.70	219.16
408.08	219.63
408.45	219.96
408.83	220.37
409.20	220.69
409.58	220.95
409.95	221.39
410.33	221.87
410.70	222.28
411.08	222.84
411.45	223.41
411.82	223.97
412.20	224.63
412.57	225.45
412.95	226.02
413.32	226.83
413.69	227.69
414.07	228.55
414.44	229.52
414.82	230.52
415.19	231.64
415.56	232.79
415.94	233.93
416.31	235.30
416.68	236.62
417.06	238.12
417.43	239.64
417.81	241.31
418.18	243.01
418.55	244.88
418.93	246.82
419.30	248.83
419.67	250.93
420.04	253.14
420.42	255.41
420.79	258.15
421.16	260.84
421.54	263.63
421.91	266.52
422.28	269.52
422.66	272.68
423.03	275.84
423.40	279.13
423.77	282.58
424.15	286.14
424.52	289.89
424.89	293.97
425.26	297.88
425.64	301.66
426.01	305.80
426.38	310.12
426.75	314.50
427.13	319.06
427.50	323.91
427.87	328.92
428.24	333.95
428.61	338.78
428.99	344.10
429.36	349.89
429.73	355.57
430.10	361.27
430.47	367.11
430.85	373.23
431.22	379.63
431.59	386.49
431.96	393.07
432.33	400.26
432.70	407.25
433.08	415.45
433.45	423.20
433.82	430.94
434.19	439.51
434.56	447.97
434.93	456.05
435.30	464.03
435.68	472.81
436.05	481.47
436.42	490.03
436.79	497.87
437.16	506.36
437.53	515.37
437.90	524.19
438.27	532.93
438.64	541.78
439.01	550.09
439.38	557.43
439.75	564.47
440.13	572.65
440.50	580.36
440.87	586.53
441.24	592.96
441.61	600.09
441.98	605.30
442.35	611.33
442.72	617.44
443.09	623.33
443.46	626.93
443.83	629.37
444.20	631.43
444.57	634.45
444.94	635.82
445.31	637.16
445.68	638.48
446.05	639.03
446.42	638.28
446.79	637.28
447.16	636.20
447.53	635.48
447.90	632.27
448.27	629.05
448.64	624.66
449.01	621.48
449.37	615.79
449.74	610.33
450.11	603.66
450.48	596.48
450.85	589.23
451.22	583.08
451.59	577.14
451.96	571.58
452.33	564.02
452.70	557.19
453.07	549.06
453.43	540.73
453.80	532.72
454.17	525.02
454.54	517.82
454.91	509.94
455.28	502.22
455.65	495.03
456.02	487.83
456.38	481.69
456.75	474.07
457.12	467.70
457.49	461.42
457.86	455.51
458.23	450.39
458.59	444.71
458.96	438.90
459.33	433.81
459.70	428.65
460.07	424.55
460.43	419.80
460.80	415.35
461.17	411.54
461.54	407.52
461.91	403.60
462.27	399.62
462.64	396.33
463.01	392.71
463.38	389.15
463.74	385.57
464.11	382.49
464.48	379.81
464.85	376.86
465.21	374.52
465.58	371.98
465.95	368.90
466.32	366.35
466.68	363.86
467.05	361.40
467.42	358.95
467.78	356.39
468.15	353.97
468.52	352.17
468.88	349.73
469.25	347.61
469.62	345.92
469.98	344.00
470.35	342.25
470.72	340.64
471.08	338.98
471.45	337.59
471.82	336.14
472.18	334.48
472.55	333.28
472.92	331.93
473.28	330.78
473.65	329.70
474.02	328.72
474.38	327.83
474.75	327.10
475.11	326.30
475.48	325.72
475.85	325.29
476.21	324.83
476.58	324.54
476.94	324.30
477.31	324.04
477.67	323.84
478.04	323.75
478.41	323.71
478.77	323.84
479.14	323.83
479.50	323.94
479.87	324.24
480.23	324.56
480.60	324.84
480.96	325.14
481.33	325.75
481.69	326.28
482.06	326.80
482.42	327.28
482.79	327.86
483.15	328.65
483.52	329.55
483.88	330.40
484.25	331.35
484.61	332.37
484.98	333.39
485.34	334.73
485.71	336.05
486.07	337.47
486.44	338.77
486.80	340.31
487.17	341.93
487.53	343.73
487.90	345.59
488.26	347.62
488.62	349.77
488.99	351.78
489.35	353.93
489.72	356.30
490.08	358.80
490.44	361.43
490.81	364.14
491.17	366.87
491.54	369.84
491.90	372.86
492.26	376.13
492.63	379.56
492.99	382.99
493.36	386.68
493.72	390.49
494.08	394.55
494.45	398.80
494.81	403.16
495.17	407.62
495.54	412.30
495.90	417.13
496.26	422.02
496.63	427.25
496.99	432.62
497.35	438.16
497.72	443.95
498.08	449.83
498.44	455.89
498.80	462.22
499.17	468.71
499.53	475.35
499.89	482.20
500.26	489.15
500.62	496.23
500.98	503.58
501.34	511.07
501.71	518.79
502.07	526.45
502.43	534.45
502.79	542.52
503.16	550.85
503.52	559.32
503.88	567.99
504.24	576.85
504.60	585.85
504.97	595.05
505.33	604.29
505.69	614.09
506.05	623.98
506.41	633.85
506.78	643.76
507.14	653.98
507.50	664.36
507.86	675.00
508.22	685.69
508.59	696.28
508.95	707.31
509.31	718.33
509.67	729.75
510.03	741.00
510.39	752.72
510.75	764.48
511.12	776.30
511.48	788.26
511.84	800.32
512.20	812.52
512.56	825.06
512.92	837.65
513.28	850.09
513.64	862.63
514.00	875.28
514.37	888.22
514.73	901.15
515.09	913.90
515.45	926.61
515.81	939.51
516.17	952.69
516.53	965.58
516.89	978.60
517.25	991.56
517.61	1004.86
517.97	1017.99
518.33	1030.98
518.69	1044.40
519.05	1057.96
519.41	1071.48
519.77	1085.20
520.13	1098.25
520.49	1111.14
520.85	1124.27
521.21	1137.26
521.57	1150.75
521.93	1163.54
522.29	1177.02
522.65	1190.38
523.01	1203.63
523.37	1216.56
523.73	1229.68
524.09	1242.60
524.45	1255.68
524.81	1268.85
525.17	1281.97
525.53	1294.86
525.89	1307.82
526.25	1320.45
526.61	1332.92
526.97	1345.66
527.33	1358.08
527.68	1371.28
528.04	1384.58
528.40	1397.49
528.76	1410.54
529.12	1423.00
529.48	1435.94
529.84	1447.97
530.20	1460.43
530.56	1472.79
530.91	1485.68
531.27	1498.10
531.63	1510.64
531.99	1523.06
532.35	1535.04
532.71	1547.08
533.07	1559.57
533.42	1571.47
533.78	1583.25
534.14	1595.00
534.50	1605.92
534.86	1617.27
535.21	1627.85
535.57	1638.95
535.93	1649.75
536.29	1660.61
536.65	1671.71
537.00	1682.27
537.36	1693.17
537.72	1703.75
538.08	1714.77
538.44	1725.20
538.79	1735.78
539.15	1746.15
539.51	1756.54
539.87	1767.55
540.22	1777.93
540.58	1788.35
540.94	1798.70
541.29	1808.57
541.65	1817.82
542.01	1828.01
542.37	1837.72
542.72	1847.42
543.08	1856.74
543.44	1866.85
543.79	1875.77
544.15	1884.93
544.51	1894.71
544.87	1904.20
545.22	1913.12
545.58	1921.64
545.94	1930.31
546.29	1938.75
546.65	1946.90
547.01	1954.82
547.36	1962.15
547.72	1969.63
548.07	1977.07
548.43	1984.61
548.79	1992.22
549.14	2000.30
549.50	2008.59
549.86	2016.19
550.21	2023.24
550.57	2030.73
550.92	2037.34
551.28	2044.78
551.64	2051.90
551.99	2059.11
552.35	2066.16
552.70	2072.81
553.06	2079.38
553.41	2085.42
553.77	2091.69
554.13	2097.86
554.48	2104.78
554.84	2111.71
555.19	2118.04
555.55	2124.43
555.90	2130.71
556.26	2137.56
556.61	2143.35
556.97	2147.99
557.32	2153.87
557.68	2160.20
558.03	2165.80
558.39	2171.02
558.74	2176.80
559.10	2182.23
559.45	2187.77
559.81	2193.22
560.16	2198.80
560.52	2204.72
560.87	2211.17
561.23	2217.17
561.58	2223.86
561.94	2229.05
562.29	2233.78
562.64	2240.01
563.00	2245.49
563.35	2251.08
563.71	2256.83
564.06	2262.62
564.42	2268.58
564.77	2273.55
565.12	2278.87
565.48	2284.14
565.83	2289.77
566.19	2295.21
566.54	2300.65
566.89	2305.38
567.25	2310.01
567.60	2315.69
567.96	2320.70
568.31	2325.18
568.66	2329.30
569.02	2333.14
569.37	2336.90
569.72	2341.28
570.08	2344.79
570.43	2348.04
570.78	2351.12
571.14	2353.56
571.49	2356.78
571.84	2360.40
572.20	2363.30
572.55	2366.33
572.90	2368.61
573.26	2371.49
573.61	2374.05
573.96	2376.13
574.31	2378.10
574.67	2379.98
575.02	2380.91
575.37	2382.43
575.72	2383.34
576.08	2384.97
576.43	2385.50
576.78	2386.23
577.13	2388.02
577.49	2389.27
577.84	2390.59
578.19	2392.16
578.54	2393.00
578.90	2393.90
579.25	2393.80
579.60	2393.99
579.95	2393.46
580.30	2393.78
580.66	2393.12
581.01	2391.56
581.36	2389.50
581.71	2388.28
582.06	2387.38
582.42	2386.73
582.77	2384.66
583.12	2383.23
583.47	2382.08
583.82	2381.55
584.17	2380.32
584.53	2378.36
584.88	2376.39
585.23	2374.59
585.58	2372.40
585.93	2370.46
586.28	2368.33
586.63	2366.08
586.98	2363.87
587.34	2361.98
587.69	2359.75
588.04	2357.99
588.39	2356.82
588.74	2354.50
589.09	2352.11
589.44	2349.21
589.79	2346.91
590.14	2345.24
590.49	2342.59
590.84	2338.88
591.19	2335.88
591.54	2332.89
591.89	2328.93
592.25	2325.97
592.60	2321.83
592.95	2317.83
593.30	2313.66
593.65	2309.51
594.00	2305.36
594.35	2302.56
594.70	2298.03
595.05	2293.53
595.40	2288.26
595.75	2282.64
596.10	2279.13
596.45	2274.20
596.80	2269.77
597.15	2264.62
597.50	2258.85
597.85	2254.03
598.19	2248.93
598.54	2243.31
598.89	2238.27
599.24	2233.90
599.59	2227.91
599.94	2222.35
600.29	2216.47
600.64	2210.88
600.99	2204.24
601.34	2198.91
601.69	2192.08
602.04	2185.93
602.39	2179.47
602.74	2173.43
603.08	2168.06
603.43	2161.64
603.78	2155.01
604.13	2148.00
604.48	2140.84
604.83	2134.77
605.18	2128.52
605.53	2121.65
605.87	2114.59
606.22	2107.68
606.57	2099.77
606.92	2091.87
607.27	2084.94
607.62	2078.36
607.96	2071.25
608.31	2064.73
608.66	2056.95
609.01	2049.38
609.36	2042.26
609.70	2034.54
610.05	2026.83
610.40	2018.46
610.75	2010.23
611.10	2002.52
611.44	1993.82
611.79	1985.15
612.14	1975.29
612.49	1964.81
612.83	1955.71
613.18	1946.58
613.53	1937.39
613.88	1927.96
614.22	1919.39
614.57	1909.67
614.92	1899.29
615.27	1889.38
615.61	1879.57
615.96	1869.96
616.31	1860.44
616.65	1851.21
617.00	1841.58
617.35	1832.11
617.70	1822.59
618.04	1812.75
618.39	1802.53
618.74	1792.77
619.08	1783.25
619.43	1774.58
619.78	1766.28
620.12	1757.60
620.47	1748.05
620.82	1737.89
621.16	1728.21
621.51	1718.31
621.85	1708.35
622.20	1697.95
622.55	1687.42
622.89	1677.50
623.24	1667.86
623.59	1658.15
623.93	1648.11
624.28	1638.46
624.62	1628.27
624.97	1617.96
625.32	1608.05
625.66	1599.43
626.01	1590.63
626.35	1581.27
626.70	1571.17
627.04	1561.26
627.39	1551.19
627.73	1541.97
628.08	1533.08
628.43	1523.50
628.77	1514.36
629.12	1505.71
629.46	1498.01
629.81	1489.68
630.15	1480.20
630.50	1470.46
630.84	1460.05
631.19	1450.21
631.53	1440.85
631.88	1430.81
632.22	1420.86
632.57	1411.68
632.91	1401.47
633.26	1391.83
633.60	1382.42
633.95	1373.19
634.29	1363.77
634.64	1354.50
634.98	1344.72
635.32	1335.41
635.67	1326.95
636.01	1317.78
636.36	1308.03
636.70	1298.43
637.05	1289.10
637.39	1280.19
637.73	1271.63
638.08	1264.08
638.42	1255.82
638.77	1247.06
639.11	1238.92
639.45	1231.20
639.80	1222.63
640.14	1214.06
640.49	1205.26
640.83	1196.40
641.17	1188.33
641.52	1180.25
641.86	1171.77
642.20	1163.82
642.55	1155.41
642.89	1146.53
643.23	1137.85
643.58	1129.84
643.92	1120.97
644.26	1112.30
644.61	1103.94
644.95	1095.14
645.29	1085.96
645.64	1076.90
645.98	1068.61
646.32	1060.66
646.66	1052.15
647.01	1043.89
647.35	1035.79
647.69	1027.51
648.04	1019.27
648.38	1010.42
648.72	1001.68
649.06	993.29
649.41	985.27
649.75	977.26
650.09	969.56
650.43	961.66
650.78	953.42
651.12	945.77
651.46	938.56
651.80	931.33
652.14	924.16
652.49	916.79
652.83	909.60
653.17	901.87
653.51	894.33
653.85	887.19
654.20	879.86
654.54	872.41
654.88	865.21
655.22	858.10
655.56	851.25
655.90	844.58
656.25	838.00
656.59	831.01
656.93	824.07
657.27	817.03
657.61	810.14
657.95	804.18
658.29	798.41
658.64	792.27
658.98	785.92
659.32	779.44
659.66	773.22
660.00	766.89
660.34	761.03
660.68	755.02
661.02	748.86
661.36	743.12
661.70	737.48
662.05	731.97
662.39	726.57
662.73	721.26
663.07	715.96
663.41	710.43
663.75	704.95
664.09	699.38
664.43	693.98
664.77	688.70
665.11	682.88
665.45	677.11
665.79	671.40
666.13	665.82
666.47	660.47
666.81	655.13
667.15	649.84
667.49	644.75
667.83	639.56
668.17	634.35
668.51	629.24
668.85	624.42
669.19	619.61
669.53	614.73
669.87	609.72
670.21	605.01
670.55	600.36
670.89	595.93
671.23	591.70
671.57	587.43
671.91	583.24
672.25	579.21
672.58	575.10
672.92	571.14
673.26	567.26
673.60	563.45
673.94	559.75
674.28	556.21
674.62	552.50
674.96	548.86
675.30	545.42
675.64	541.85
675.97	538.31
676.31	534.75
676.65	531.20
676.99	527.81
677.33	524.08
677.67	520.48
678.01	516.73
678.34	513.15
678.68	509.71
679.02	506.13
679.36	502.46
679.70	498.87
680.04	495.35
680.37	491.96
680.71	488.73
681.05	485.56
681.39	482.40
681.73	479.27
682.06	476.24
682.40	473.17
682.74	470.07
683.08	466.94
683.42	463.83
683.75	460.88
684.09	457.87
684.43	455.10
684.77	452.29
685.10	449.46
685.44	446.67
685.78	443.84
686.12	441.19
686.45	438.59
686.79	435.99
687.13	433.51
687.46	430.95
687.80	428.32
688.14	425.57
688.48	423.06
688.81	420.47
689.15	418.01
689.49	415.47
689.82	413.01
690.16	410.48
690.50	408.05
690.83	405.57
691.17	403.06
691.51	400.66
691.84	398.46
692.18	396.37
692.52	394.17
692.85	392.03
693.19	389.93
693.52	387.84
693.86	385.68
694.20	383.55
694.53	381.46
694.87	379.28
695.21	377.19
695.54	375.02
695.88	372.90
696.21	370.70
696.55	368.68
696.88	366.65
697.22	364.69
697.56	362.84
697.89	361.05
698.23	359.40
698.56	357.67
698.90	355.94
699.23	354.06
699.57	352.23
699.90	350.43
700.24	348.65
700.58	346.88
700.91	345.29
701.25	343.77
701.58	342.21
701.92	340.68
702.25	339.12
702.59	337.56
702.92	336.05
703.26	334.53
703.59	333.07
703.93	331.86
704.26	330.51
704.60	329.05
704.93	327.57
705.26	326.11
705.60	324.66
705.93	323.17
706.27	321.88
706.60	320.61
706.94	319.42
707.27	318.07
707.61	316.75
707.94	315.40
708.27	313.89
708.61	312.46
708.94	311.12
709.28	309.89
709.61	308.68
709.94	307.53
710.28	306.36
710.61	305.20
710.95	303.77
711.28	302.71
711.61	301.56
711.95	300.49
712.28	299.32
712.61	298.15
712.95	297.14
713.28	296.16
713.61	295.09
713.95	293.99
714.28	292.96
714.61	291.98
714.95	291.00
715.28	290.04
715.61	289.11
715.95	288.19
716.28	287.24
716.61	286.34
716.95	285.36
717.28	284.47
717.61	283.58
717.94	282.73
718.28	281.69
718.61	280.84
718.94	279.94
719.27	279.13
719.61	278.39
719.94	277.51
720.27	276.56
720.60	275.70
720.94	274.93
721.27	274.20
721.60	273.52
721.93	272.80
722.27	272.20
722.60	271.52
722.93	270.85
723.26	270.17
723.59	269.47
723.93	268.85
724.26	268.23
724.59	267.56
724.92	266.99
725.25	266.49
725.59	265.93
725.92	265.43
726.25	264.88
726.58	264.30
726.91	263.70
727.24	263.18
727.57	262.67
727.91	262.08
728.24	261.54
728.57	260.95
728.90	260.42
729.23	259.78
729.56	259.38
729.89	258.85
730.22	258.33
730.55	257.80
730.89	257.29
731.22	256.73
731.55	256.24
731.88	255.76
732.21	255.20
732.54	254.69
732.87	254.16
733.20	253.67
733.53	253.20
733.86	252.82
734.19	252.34
734.52	251.93
734.85	251.64
735.18	251.19
735.51	250.85
735.84	250.43
736.17	250.13
736.50	249.59
736.83	249.44
737.16	249.09
737.49	248.75
737.82	248.35
738.15	248.01
738.48	247.67
738.81	247.27
739.14	246.89
739.47	246.52
739.80	246.19
740.13	245.86
740.46	245.48
740.79	245.08
741.12	244.72
741.45	244.34
741.78	243.91
742.11	243.65
742.44	243.26
742.77	242.97
743.10	242.60
743.43	242.26
743.75	241.72
744.08	241.67
744.41	241.31
744.74	240.97
745.07	240.62
745.40	240.34
745.73	240.09
746.06	239.79
746.39	239.50
746.71	239.17
747.04	238.83
747.37	238.54
747.70	238.23
748.03	237.95
748.36	237.69
748.68	237.41
749.01	237.08
749.34	236.84
749.67	236.59
750.00	236.33
750.33	236.19
750.65	235.94
750.98	235.37
751.31	235.16
751.64	234.96
751.97	234.85
752.29	234.58
752.62	234.25
752.95	234.04
753.28	233.80
753.60	233.61
753.93	233.45
754.26	233.23
754.59	233.00
754.91	232.78
755.24	232.55
755.57	232.29
755.90	232.07
756.22	231.81
756.55	231.53
756.88	231.29
757.20	230.99
757.53	230.74
757.86	230.55
758.19	230.34
758.51	230.13
758.84	229.81
759.17	229.60
759.49	229.43
759.82	229.34
760.15	229.16
760.47	228.95
760.80	228.70
761.13	228.59
761.45	228.42
761.78	228.25
762.11	228.09
762.43	227.91
762.76	227.71
763.08	227.61
763.41	227.49
763.74	227.36
764.06	227.20
764.39	227.02
764.71	226.89
765.04	226.73
765.37	226.59
765.69	226.46
766.02	226.33
766.34	226.16
766.67	225.95
767.00	225.82
767.32	225.79
767.65	225.78
767.97	225.60
768.30	225.48
768.62	225.36
768.95	225.21
769.27	225.10
769.60	225.03
769.92	224.87
770.25	224.68
770.57	224.53
770.90	224.37
771.22	224.26
771.55	224.20
771.87	224.11
772.20	223.97
772.52	224.04
772.85	224.19
773.17	224.11
773.50	223.99
773.82	223.87
774.15	223.67
774.47	223.44
774.80	223.32
775.12	223.23
775.45	223.09
775.77	223.02
776.09	222.97
776.42	222.88
776.74	222.88
777.07	222.81
777.39	222.74
777.72	222.69
778.04	222.64
778.36	222.48
778.69	222.40
779.01	222.35
779.33	222.08
779.66	221.74
779.98	221.63
780.31	221.58
780.63	221.60
780.95	221.56
781.28	221.50
781.60	221.43
781.92	221.37
782.25	221.37
782.57	221.30
782.89	221.19
783.22	221.09
783.54	220.92
783.86	220.89
784.19	220.81
784.51	220.80
784.83	220.73
785.16	220.69
785.48	220.64
785.80	220.57
786.12	220.56
786.45	220.50
786.77	220.48
787.09	220.40
787.42	220.28
787.74	220.23
788.06	220.20
788.38	220.14
788.71	220.08
789.03	220.02
789.35	219.98
789.67	219.94
789.99	219.93
790.32	219.89
790.64	219.86
790.96	219.98
791.28	219.86
791.61	219.77
791.93	219.73
792.25	219.67
792.57	219.79
792.89	219.67
793.21	219.65
793.54	219.59
793.86	219.53
794.18	219.48
794.50	219.42
794.82	219.36
795.14	219.36
795.47	219.32
795.79	219.27
796.11	219.19
796.43	219.14
796.75	219.09
797.07	219.05
797.39	218.98
797.71	218.78
798.04	218.78
798.36	218.74
798.68	218.73
799.00	218.73
799.32	218.59
799.64	218.60
799.96	218.60
800.28	218.58
800.60	218.53
800.92	218.53
801.24	218.48
801.56	218.43
801.89	218.36
802.21	218.34
802.53	218.26
802.85	218.31
803.17	218.37
803.49	218.32
803.81	218.30
804.13	218.26
804.45	218.19
804.77	218.15
805.09	218.12
805.41	218.04
805.73	217.93
806.05	217.84
806.37	217.79
806.69	217.71
807.01	217.67
807.33	217.69
807.65	217.58
807.97	217.69
808.28	217.68
808.60	217.65
808.92	217.59
809.24	217.72
809.56	217.60
809.88	217.49
810.20	217.45
810.52	217.44
810.84	217.40
811.16	217.36
811.48	217.32
811.80	217.41
812.12	217.36
812.43	217.39
812.75	217.37
813.07	217.32
813.39	217.31
813.71	217.27
814.03	217.19
814.35	217.18
814.67	217.02
814.98	216.96
815.30	216.96
815.62	216.93
815.94	216.77
816.26	216.77
816.58	216.73
816.89	216.74
817.21	216.66
817.53	216.65
817.85	216.61
818.17	216.60
818.48	216.47
818.80	216.53
819.12	216.46
819.44	216.44
819.76	216.40
820.07	216.36
820.39	216.33
820.71	216.36
821.03	216.35
821.34	216.32
821.66	216.34
821.98	216.32
822.30	216.31
822.61	216.40
822.93	216.38
823.25	216.36
823.57	216.32
823.88	216.36
824.20	216.35
824.52	216.39
824.83	216.36
825.15	216.31
825.47	216.30
825.79	216.33
826.10	216.27
826.42	216.26
826.74	216.28
827.05	216.26
827.37	216.25
827.69	216.20
828.00	216.19
828.32	216.20
828.64	216.15
828.95	216.22
829.27	216.16
829.58	216.15
829.90	216.19
830.22	216.21
830.53	216.12
830.85	216.09
831.17	216.05
831.48	216.05
831.80	216.06
832.11	216.00
832.43	215.97
832.75	215.97
833.06	216.08
833.38	216.05
833.69	216.07
834.01	216.05
834.32	216.06
834.64	216.07
834.96	216.00
835.27	216.02
835.59	215.95
835.90	215.91
836.22	215.88
836.53	215.84
836.85	215.81
837.16	216.03
837.48	216.03
837.79	216.09
838.11	216.10
838.42	216.12
838.74	216.14
839.05	216.08
839.37	216.06
839.68	215.93
840.00	215.89
840.31	215.90
840.63	215.89
840.94	215.87
841.26	215.82
841.57	215.86
841.88	215.87
842.20	215.83
842.51	215.80
842.83	215.81
843.14	215.99
843.46	215.99
843.77	215.85
844.08	215.83
844.40	215.77
844.71	215.74
845.03	215.70
845.34	215.71
845.65	215.73
845.97	215.76
846.28	215.77
846.60	215.77
846.91	215.74
847.22	215.73
847.54	215.77
847.85	215.81
848.16	215.80
848.48	215.76
848.79	215.85
849.10	215.84
849.42	215.87
849.73	215.67
850.04	215.62
850.36	215.57
850.67	215.62
850.98	215.64
851.30	215.64
851.61	215.64
851.92	215.62
852.23	215.68
852.55	215.64
852.86	215.66
853.17	215.67
853.49	215.71
853.80	215.73
854.11	215.72
854.42	215.76
854.74	215.70
855.05	215.71
855.36	215.59
855.67	215.61
855.99	215.57
856.30	215.80
856.61	215.83
856.92	215.81
857.23	215.81
857.55	215.77
857.86	215.72
858.17	215.75
858.48	215.70
858.79	215.62
859.11	215.65
859.42	215.63
859.73	215.59
860.04	215.55
860.35	215.53
860.66	215.45
860.98	215.42
861.29	215.45
861.60	215.39
861.91	215.46
862.22	215.44
862.53	215.40
862.84	215.17
863.16	215.22
863.47	215.19
863.78	215.20
864.09	215.22
864.40	215.23
864.71	215.24
865.02	215.26
865.33	215.28
865.64	215.25
865.95	215.24
866.27	215.40
866.58	215.39
866.89	215.39
867.20	215.42
867.51	215.38
867.82	215.35
868.13	215.41
868.44	215.35
868.75	215.42
869.06	215.41
869.37	215.40
869.68	215.33
869.99	215.37
870.30	215.37
870.61	215.36
870.92	215.32
871.23	215.31
871.54	215.36
871.85	215.39
872.16	215.42
872.47	215.43
872.78	215.30
873.09	215.32
873.40	215.28
873.71	215.30
874.02	215.29
874.33	215.30
874.64	215.29
874.95	215.31
875.26	215.23
875.56	215.25
875.87	215.27
876.18	215.23
876.49	215.42
876.80	215.39
877.11	215.36
877.42	215.39
877.73	215.39
878.04	215.33
878.35	215.32
878.66	215.31
878.96	215.30
879.27	215.27
879.58	215.26
879.89	215.28
880.20	215.31
880.51	215.34
880.82	215.31
881.12	215.33
881.43	215.32
881.74	215.30
882.05	215.30
882.36	215.31
882.67	215.31
882.97	215.08
883.28	215.05
883.59	215.06
883.90	215.08
884.21	215.09
884.51	215.08
884.82	215.08
885.13	215.08
885.44	215.10
885.74	215.08
886.05	215.06
886.36	215.05
886.67	215.01
886.98	215.09
887.28	215.16
887.59	215.13
887.90	215.13
888.20	215.14
888.51	215.16
888.82	215.10
889.13	215.16
889.43	215.36
889.74	215.33
890.05	215.33
890.35	215.33
890.66	215.30
890.97	215.30
891.28	215.24
891.58	215.22
891.89	215.21
892.20	215.24
892.50	215.21
892.81	215.19
893.12	215.17
893.42	215.07
893.73	215.02
894.04	215.03
894.34	215.04
894.65	215.03
894.95	214.99
895.26	215.01
895.57	215.07
895.87	214.84
896.18	214.91
896.48	214.92
896.79	214.92
897.10	214.96
897.40	214.98
897.71	215.02
898.01	215.04
898.32	215.04
898.63	215.03
898.93	215.06
899.24	215.09
899.54	215.09
899.85	215.09
900.15	215.10
900.46	215.07
900.76	215.07
901.07	215.07
901.38	215.09
901.68	215.13
901.99	215.04
902.29	215.07
902.60	215.03
902.90	215.01
903.21	214.99
903.51	214.95
903.82	214.97
904.12	214.95
904.43	214.96
904.73	214.94
905.03	214.94
905.34	215.14
905.64	215.12
905.95	215.09
906.25	215.08
906.56	215.04
906.86	215.05
907.17	215.04
907.47	215.06
907.77	215.02
908.08	214.98
908.38	215.01
908.69	215.00
908.99	215.02
909.30	215.04
909.60	215.05
909.90	215.08
910.21	215.02
910.51	214.98
910.81	214.97
911.12	214.98
911.42	214.97
911.73	214.72
912.03	214.70
912.33	214.76
912.64	214.76
912.94	214.74
913.24	214.72
913.55	214.75
913.85	214.71
914.15	214.78
914.46	214.81
914.76	214.78
915.06	214.77
915.37	214.73
915.67	214.71
915.97	214.73
916.27	214.69
916.58	214.72
916.88	214.73
917.18	214.73
917.49	214.88
917.79	214.88
918.09	214.92
918.39	214.99
918.70	214.96
919.00	214.92
919.30	215.05
919.60	215.06
919.91	215.01
920.21	215.03
920.51	214.96
920.81	214.95
921.12	214.98
921.42	214.98
921.72	215.00
922.02	214.99
922.32	214.99
922.63	214.98
922.93	215.08
923.23	215.10
923.53	215.07
923.83	214.97
924.13	214.98
924.44	214.99
924.74	215.03
925.04	215.08
925.34	215.09
925.64	214.99
925.94	214.99
926.24	215.11
926.55	215.07
926.85	215.09
927.15	215.09
927.45	215.07
927.75	215.07
928.05	215.08
928.35	215.07
928.65	215.14
928.95	215.17
929.26	215.10
929.56	215.12
929.86	215.11
930.16	215.05
930.46	214.99
930.76	214.98
931.06	214.89
931.36	214.86
931.66	214.89
931.96	214.94
932.26	214.96
932.56	214.88
932.86	214.91
933.16	214.90
933.46	214.88
933.76	214.86
934.06	214.92
934.36	214.98
934.66	214.93
934.96	214.90
935.26	214.89
935.56	214.91
935.86	214.87
936.16	214.87
936.46	214.87
936.76	214.91
937.06	214.89
937.36	214.92
937.66	214.93
937.96	214.93
938.26	214.86
938.56	214.82
938.86	214.81
939.16	214.87
939.46	214.91
939.76	214.96
940.06	214.97
940.35	214.90
940.65	214.80
940.95	214.87
941.25	214.80
941.55	214.78
941.85	214.76
942.15	214.79
942.45	214.81
942.75	214.81
943.04	214.80
943.34	214.85
943.64	214.83
943.94	214.77
944.24	214.77
944.54	214.82
944.84	214.83
945.13	214.84
945.43	214.81
945.73	214.78
946.03	214.76
946.33	214.72
946.62	214.70
946.92	214.73
947.22	214.72
947.52	214.75
947.82	214.76
948.11	214.73
948.41	214.69
948.71	214.69
949.01	214.70
949.31	214.69
949.60	214.65
949.90	214.66
950.20	214.66
950.50	214.68
950.79	214.67
951.09	214.69
951.39	214.70
951.69	214.70
951.98	214.71
952.28	214.71
952.58	214.72
952.87	214.73
953.17	214.72
953.47	214.71
953.76	214.68
954.06	214.63
954.36	214.62
954.66	214.60
954.95	214.65
955.25	214.69
955.55	214.72
955.84	214.70
956.14	214.72
956.44	214.74
956.73	214.68
957.03	214.69
957.32	214.68
957.62	214.62
957.92	214.64
958.21	214.65
958.51	214.87
958.81	214.92
959.10	214.97
959.40	215.01
959.69	215.03
959.99	215.07
960.29	215.09
960.58	215.06
960.88	215.17
961.17	215.11
961.47	215.12
961.76	215.09
962.06	215.08
962.36	215.07
962.65	215.07
962.95	215.08
963.24	215.06
963.54	215.07
963.83	215.09
964.13	215.08
964.42	215.01
964.72	214.86
965.01	214.85
965.31	214.81
965.60	214.80
965.90	214.90
966.19	214.85
966.49	214.86
966.78	214.87
967.08	214.81
967.37	214.84
967.67	214.76
967.96	214.80
968.26	214.82
968.55	214.83
968.85	214.85
969.14	214.86
969.43	214.85
969.73	214.83
970.02	214.82
970.32	214.84
970.61	214.82
970.91	214.75
971.20	214.70
971.49	214.68
971.79	214.70
972.08	214.59
972.38	214.60
972.67	214.59
972.96	214.63
973.26	214.62
973.55	214.70
973.85	214.73
974.14	214.70
974.43	214.75
974.73	214.69
975.02	214.65
975.31	214.65
975.61	214.68
975.90	214.66
976.19	214.67
976.49	214.64
976.78	214.65
977.07	214.63
977.37	214.66
977.66	214.70
977.95	214.65
978.24	214.64
978.54	214.69
978.83	214.69
979.12	214.66
979.42	214.65
979.71	214.59
980.00	214.58
980.29	214.58
980.59	214.52
980.88	214.58
981.17	214.56
981.46	214.55
981.76	214.52
982.05	214.55
982.34	214.55
982.63	214.56
982.93	214.56
983.22	214.61
983.51	214.62
983.80	214.61
984.09	214.67
984.39	214.66
984.68	214.61
984.97	214.60
985.26	214.58
985.55	214.61
985.85	214.57
986.14	214.60
986.43	214.64
986.72	214.64
987.01	214.59
987.30	214.61
987.59	214.60
987.89	214.61
988.18	214.59
988.47	214.59
988.76	214.59
989.05	214.59
989.34	214.57
989.63	214.62
989.92	214.61
990.22	214.57
990.51	214.58
990.80	214.59
991.09	214.60
991.38	214.63
991.67	214.59
991.96	214.55
992.25	214.55
992.54	214.49
992.83	214.51
993.12	214.52
993.41	214.57
993.70	214.67
993.99	214.70
994.28	214.70
994.58	214.72
994.87	214.70
995.16	214.69
995.45	214.65
995.74	214.59
996.03	214.58
996.32	214.63
996.61	214.66
996.90	214.64
997.19	214.65
997.48	214.67
997.77	214.67
998.06	214.70
998.34	214.66
998.63	214.67
998.92	214.64
999.21	214.69
999.50	214.68
999.79	214.61
1000.08	214.60
1000.37	214.60
1000.66	214.59
1000.95	214.65
1001.24	214.69
1001.53	214.73
1001.82	214.73
1002.11	214.68
1002.40	214.69
1002.68	214.72
1002.97	214.92
1003.26	214.88
1003.55	214.84
1003.84	214.84
1004.13	214.90
1004.42	214.92
1004.71	214.90
1004.99	214.89
1005.28	214.89
1005.57	214.86
1005.86	214.86
1006.15	214.82
1006.44	214.80
1006.72	214.81
1007.01	214.77
1007.30	214.76
1007.59	214.73
1007.88	214.72
1008.17	214.74
1008.45	214.68
1008.74	214.60
1009.03	214.49
1009.32	214.49
1009.60	214.49
1009.89	214.49
1010.18	214.38
1010.47	214.37
1010.76	214.38
1011.04	214.41
1011.33	214.40
1011.62	214.49
1011.91	214.47
1012.19	214.51
1012.48	214.48
1012.77	214.46
1013.05	214.56
1013.34	214.56
1013.63	214.58
1013.92	214.60
1014.20	214.58
1014.49	214.60
1014.78	214.61
1015.06	214.52
1015.35	214.55
1015.64	214.58
1015.92	214.61
1016.21	214.63
1016.50	214.65
1016.78	214.68
1017.07	214.69
1017.36	214.65
1017.64	214.58
1017.93	214.59
1018.22	214.58
1018.50	214.62
1018.79	214.63
1019.08	214.50
1019.36	214.48
1019.65	214.45
1019.93	214.53
1020.22	214.55
1020.51	214.67
1020.79	214.63
1021.08	214.39
1021.36	214.45
1021.65	214.54
1021.94	214.33
1022.22	214.19
1022.51	214.47
1022.79	215.76
1023.08	214.41
1023.36	216.92
1023.65	213.86
>>>>>End Processed Spectral Data<<<<<
