SpectraSuite Data File
++++++++++++++++++++++++++++++++++++
Date: Tue Jan 29 16:10:36 EST 2013
User: group
Dark Spectrum Present: No
Reference Spectrum Present: No
Number of Sampled Component Spectra: 1
Spectrometers: USB2E7196
Integration Time (usec): 65000 (USB2E7196)
Spectra Averaged: 100 (USB2E7196)
Boxcar Smoothing: 10 (USB2E7196)
Correct for Electrical Dark: No (USB2E7196)
Strobe/Lamp Enabled: No (USB2E7196)
Correct for Detector Non-linearity: No (USB2E7196)
Correct for Stray Light: No (USB2E7196)
Number of Pixels in Processed Spectrum: 2048
>>>>>Begin Processed Spectral Data<<<<<
339.09	0.00
339.48	202.39
339.86	203.81
340.24	205.00
340.63	206.89
341.01	211.34
341.39	210.49
341.78	211.31
342.16	212.49
342.54	212.71
342.93	201.86
343.31	212.04
343.69	212.61
344.07	213.11
344.46	213.60
344.84	214.03
345.22	214.21
345.60	214.44
345.99	214.64
346.37	214.77
346.75	214.87
347.13	215.00
347.52	215.10
347.90	215.26
348.28	215.33
348.66	215.42
349.05	215.38
349.43	215.46
349.81	215.52
350.19	215.56
350.57	215.62
350.96	215.74
351.34	215.86
351.72	215.98
352.10	216.09
352.48	216.15
352.87	216.18
353.25	216.24
353.63	216.30
354.01	216.35
354.39	216.47
354.77	216.56
355.15	216.64
355.54	216.69
355.92	216.69
356.30	216.74
356.68	216.92
357.06	217.00
357.44	217.03
357.82	217.11
358.20	217.22
358.58	217.28
358.97	217.31
359.35	217.40
359.73	217.45
360.11	217.48
360.49	217.53
360.87	217.60
361.25	217.70
361.63	217.81
362.01	217.88
362.39	217.89
362.77	217.92
363.15	217.94
363.53	218.00
363.91	218.01
364.29	218.03
364.67	217.85
365.05	217.87
365.43	217.87
365.81	217.90
366.19	217.97
366.57	218.05
366.95	218.06
367.33	217.99
367.71	217.99
368.09	218.01
368.47	218.02
368.85	217.99
369.23	217.98
369.61	217.90
369.99	217.95
370.37	217.92
370.75	218.02
371.13	217.98
371.51	217.89
371.89	217.89
372.27	217.87
372.65	217.88
373.03	217.86
373.41	217.82
373.78	217.74
374.16	217.60
374.54	217.51
374.92	217.46
375.30	217.43
375.68	217.35
376.06	217.32
376.44	217.24
376.82	217.24
377.19	217.18
377.57	217.12
377.95	217.00
378.33	216.96
378.71	216.77
379.09	216.75
379.47	216.76
379.84	216.68
380.22	216.65
380.60	216.54
380.98	216.48
381.36	216.43
381.73	216.39
382.11	216.40
382.49	216.35
382.87	216.26
383.25	216.25
383.62	216.43
384.00	216.34
384.38	216.30
384.76	216.29
385.13	216.33
385.51	216.33
385.89	216.28
386.27	216.25
386.64	216.28
387.02	216.20
387.40	216.13
387.78	216.11
388.15	216.07
388.53	216.08
388.91	216.06
389.29	216.04
389.66	216.04
390.04	216.00
390.42	216.00
390.79	216.01
391.17	215.97
391.55	215.74
391.92	215.76
392.30	215.77
392.68	215.72
393.05	215.67
393.43	215.62
393.81	215.63
394.18	215.61
394.56	215.60
394.94	215.65
395.31	215.63
395.69	215.70
396.06	215.76
396.44	215.77
396.82	215.79
397.19	215.92
397.57	215.91
397.95	215.96
398.32	215.92
398.70	215.99
399.07	216.09
399.45	216.12
399.82	216.16
400.20	216.24
400.58	216.30
400.95	216.31
401.33	216.45
401.70	216.67
402.08	216.74
402.45	216.81
402.83	216.95
403.20	217.10
403.58	217.22
403.95	217.35
404.33	217.52
404.71	217.63
405.08	217.87
405.46	218.06
405.83	218.19
406.21	218.42
406.58	218.61
406.96	218.83
407.33	219.10
407.70	219.40
408.08	219.82
408.45	220.16
408.83	220.53
409.20	220.84
409.58	221.09
409.95	221.58
410.33	222.05
410.70	222.48
411.08	223.02
411.45	223.55
411.82	224.10
412.20	224.76
412.57	225.57
412.95	226.11
413.32	226.90
413.69	227.73
414.07	228.62
414.44	229.59
414.82	230.57
415.19	231.70
415.56	232.86
415.94	233.98
416.31	235.35
416.68	236.68
417.06	238.23
417.43	239.75
417.81	241.35
418.18	243.08
418.55	244.92
418.93	246.88
419.30	248.90
419.67	251.05
420.04	253.23
420.42	255.55
420.79	258.30
421.16	260.96
421.54	263.80
421.91	266.69
422.28	269.64
422.66	272.81
423.03	275.96
423.40	279.15
423.77	282.65
424.15	286.17
424.52	289.92
424.89	293.97
425.26	297.89
425.64	301.71
426.01	305.85
426.38	310.18
426.75	314.57
427.13	319.15
427.50	323.98
427.87	329.01
428.24	334.04
428.61	338.82
428.99	344.22
429.36	350.03
429.73	355.67
430.10	361.40
430.47	367.27
430.85	373.37
431.22	379.87
431.59	386.70
431.96	393.32
432.33	400.55
432.70	407.54
433.08	415.76
433.45	423.53
433.82	431.25
434.19	439.86
434.56	448.24
434.93	456.29
435.30	464.23
435.68	473.01
436.05	481.62
436.42	490.25
436.79	498.07
437.16	506.55
437.53	515.59
437.90	524.37
438.27	532.99
438.64	541.97
439.01	550.23
439.38	557.62
439.75	564.67
440.13	572.85
440.50	580.49
440.87	586.69
441.24	593.11
441.61	600.21
441.98	605.35
442.35	611.45
442.72	617.54
443.09	623.36
443.46	626.98
443.83	629.50
444.20	631.62
444.57	634.68
444.94	636.03
445.31	637.31
445.68	638.59
446.05	639.23
446.42	638.35
446.79	637.33
447.16	636.23
447.53	635.45
447.90	632.16
448.27	628.95
448.64	624.43
449.01	621.17
449.37	615.45
449.74	610.00
450.11	603.31
450.48	596.20
450.85	589.05
451.22	582.78
451.59	576.80
451.96	571.20
452.33	563.62
452.70	556.80
453.07	548.66
453.43	540.46
453.80	532.43
454.17	524.77
454.54	517.56
454.91	509.66
455.28	502.04
455.65	494.98
456.02	487.84
456.38	481.87
456.75	474.34
457.12	468.07
457.49	461.84
457.86	455.94
458.23	450.77
458.59	445.09
458.96	439.36
459.33	434.26
459.70	429.02
460.07	424.92
460.43	420.17
460.80	415.79
461.17	411.91
461.54	407.92
461.91	404.04
462.27	400.04
462.64	396.72
463.01	392.97
463.38	389.35
463.74	385.74
464.11	382.57
464.48	379.83
464.85	376.79
465.21	374.40
465.58	371.83
465.95	368.81
466.32	366.29
466.68	363.78
467.05	361.29
467.42	358.90
467.78	356.29
468.15	353.84
468.52	352.00
468.88	349.62
469.25	347.44
469.62	345.72
469.98	343.85
470.35	342.18
470.72	340.64
471.08	338.89
471.45	337.45
471.82	335.94
472.18	334.33
472.55	333.21
472.92	331.88
473.28	330.73
473.65	329.62
474.02	328.54
474.38	327.70
474.75	327.00
475.11	326.22
475.48	325.76
475.85	325.34
476.21	324.92
476.58	324.58
476.94	324.38
477.31	324.15
477.67	323.95
478.04	323.85
478.41	323.80
478.77	324.00
479.14	324.01
479.50	324.16
479.87	324.46
480.23	324.81
480.60	325.08
480.96	325.40
481.33	326.03
481.69	326.62
482.06	327.10
482.42	327.57
482.79	328.15
483.15	328.87
483.52	329.82
483.88	330.69
484.25	331.61
484.61	332.65
484.98	333.70
485.34	335.00
485.71	336.32
486.07	337.79
486.44	339.14
486.80	340.75
487.17	342.41
487.53	344.20
487.90	346.03
488.26	348.09
488.62	350.21
488.99	352.23
489.35	354.38
489.72	356.77
490.08	359.32
490.44	361.87
490.81	364.58
491.17	367.31
491.54	370.25
491.90	373.31
492.26	376.54
492.63	379.95
492.99	383.42
493.36	387.10
493.72	390.93
494.08	394.93
494.45	399.07
494.81	403.48
495.17	407.94
495.54	412.65
495.90	417.44
496.26	422.40
496.63	427.59
496.99	432.95
497.35	438.56
497.72	444.34
498.08	450.24
498.44	456.35
498.80	462.74
499.17	469.25
499.53	475.97
499.89	482.84
500.26	489.77
500.62	496.85
500.98	504.23
501.34	511.65
501.71	519.36
502.07	527.17
502.43	535.06
502.79	543.19
503.16	551.51
503.52	560.08
503.88	568.69
504.24	577.63
504.60	586.68
504.97	595.86
505.33	605.07
505.69	614.95
506.05	624.77
506.41	634.49
506.78	644.44
507.14	654.56
507.50	664.88
507.86	675.52
508.22	686.24
508.59	696.85
508.95	707.91
509.31	719.06
509.67	730.41
510.03	741.85
510.39	753.54
510.75	765.25
511.12	777.05
511.48	789.14
511.84	801.21
512.20	813.42
512.56	825.80
512.92	838.50
513.28	850.96
513.64	863.58
514.00	876.35
514.37	889.20
514.73	902.25
515.09	915.14
515.45	927.82
515.81	940.72
516.17	953.93
516.53	966.91
516.89	979.97
517.25	992.98
517.61	1006.29
517.97	1019.42
518.33	1032.43
518.69	1045.77
519.05	1059.30
519.41	1072.84
519.77	1086.52
520.13	1099.82
520.49	1112.72
520.85	1125.92
521.21	1138.95
521.57	1152.39
521.93	1165.31
522.29	1178.78
522.65	1192.20
523.01	1205.62
523.37	1218.47
523.73	1231.48
524.09	1244.41
524.45	1257.60
524.81	1270.84
525.17	1283.89
525.53	1296.80
525.89	1309.86
526.25	1322.62
526.61	1335.07
526.97	1347.81
527.33	1360.49
527.68	1373.65
528.04	1386.94
528.40	1399.75
528.76	1412.77
529.12	1425.39
529.48	1438.39
529.84	1450.36
530.20	1462.83
530.56	1475.18
530.91	1488.25
531.27	1500.86
531.63	1513.48
531.99	1525.76
532.35	1537.77
532.71	1549.90
533.07	1562.53
533.42	1574.45
533.78	1586.30
534.14	1598.06
534.50	1609.03
534.86	1620.32
535.21	1630.83
535.57	1641.92
535.93	1652.91
536.29	1663.85
536.65	1674.97
537.00	1685.60
537.36	1696.70
537.72	1707.38
538.08	1718.37
538.44	1729.01
538.79	1739.66
539.15	1750.08
539.51	1760.53
539.87	1771.45
540.22	1781.91
540.58	1792.47
540.94	1802.97
541.29	1812.95
541.65	1822.45
542.01	1832.71
542.37	1842.36
542.72	1852.35
543.08	1861.92
543.44	1872.09
543.79	1881.02
544.15	1890.12
544.51	1899.85
544.87	1909.43
545.22	1918.19
545.58	1926.95
545.94	1935.57
546.29	1943.90
546.65	1952.00
547.01	1959.97
547.36	1967.37
547.72	1974.96
548.07	1982.28
548.43	1989.87
548.79	1997.43
549.14	2005.28
549.50	2013.39
549.86	2021.07
550.21	2028.10
550.57	2035.60
550.92	2042.14
551.28	2049.54
551.64	2056.76
551.99	2064.04
552.35	2070.95
552.70	2077.69
553.06	2083.97
553.41	2089.97
553.77	2096.30
554.13	2102.54
554.48	2109.46
554.84	2116.43
555.19	2122.65
555.55	2129.06
555.90	2135.18
556.26	2141.65
556.61	2147.52
556.97	2152.30
557.32	2157.93
557.68	2164.12
558.03	2169.68
558.39	2174.89
558.74	2180.61
559.10	2186.01
559.45	2191.40
559.81	2196.89
560.16	2202.54
560.52	2208.46
560.87	2214.90
561.23	2220.92
561.58	2227.58
561.94	2232.82
562.29	2237.67
562.64	2243.87
563.00	2249.23
563.35	2254.87
563.71	2260.96
564.06	2266.62
564.42	2272.51
564.77	2277.64
565.12	2282.98
565.48	2288.24
565.83	2293.83
566.19	2299.38
566.54	2304.75
566.89	2309.55
567.25	2314.21
567.60	2319.83
567.96	2325.04
568.31	2329.49
568.66	2333.58
569.02	2337.38
569.37	2340.95
569.72	2345.23
570.08	2348.99
570.43	2352.27
570.78	2355.35
571.14	2357.97
571.49	2361.24
571.84	2364.90
572.20	2367.87
572.55	2370.93
572.90	2373.10
573.26	2375.94
573.61	2378.57
573.96	2380.81
574.31	2382.87
574.67	2384.87
575.02	2385.76
575.37	2387.22
575.72	2388.22
576.08	2390.01
576.43	2390.44
576.78	2391.39
577.13	2393.21
577.49	2394.32
577.84	2395.80
578.19	2397.33
578.54	2398.08
578.90	2399.15
579.25	2399.36
579.60	2399.68
579.95	2399.16
580.30	2399.56
580.66	2399.11
581.01	2397.65
581.36	2395.62
581.71	2394.30
582.06	2393.45
582.42	2392.93
582.77	2391.11
583.12	2389.67
583.47	2388.34
583.82	2387.94
584.17	2386.79
584.53	2384.74
584.88	2382.85
585.23	2380.98
585.58	2378.82
585.93	2376.68
586.28	2374.54
586.63	2372.17
586.98	2370.12
587.34	2368.43
587.69	2366.43
588.04	2364.51
588.39	2363.07
588.74	2360.72
589.09	2358.54
589.44	2355.50
589.79	2353.16
590.14	2351.39
590.49	2348.58
590.84	2345.12
591.19	2342.25
591.54	2339.05
591.89	2335.14
592.25	2332.07
592.60	2328.04
592.95	2324.22
593.30	2320.43
593.65	2316.26
594.00	2312.12
594.35	2309.07
594.70	2304.49
595.05	2299.77
595.40	2294.54
595.75	2289.22
596.10	2285.74
596.45	2280.71
596.80	2276.43
597.15	2271.27
597.50	2265.48
597.85	2260.79
598.19	2255.54
598.54	2249.71
598.89	2244.90
599.24	2240.55
599.59	2234.63
599.94	2229.00
600.29	2223.15
600.64	2217.37
600.99	2210.85
601.34	2205.45
601.69	2198.58
602.04	2192.40
602.39	2186.02
602.74	2180.21
603.08	2174.65
603.43	2168.15
603.78	2161.43
604.13	2154.38
604.48	2147.33
604.83	2141.28
605.18	2135.10
605.53	2128.32
605.87	2121.44
606.22	2114.60
606.57	2106.80
606.92	2098.89
607.27	2092.06
607.62	2085.58
607.96	2078.68
608.31	2072.16
608.66	2064.45
609.01	2057.00
609.36	2049.89
609.70	2042.22
610.05	2034.29
610.40	2026.10
610.75	2017.99
611.10	2010.52
611.44	2001.76
611.79	1992.99
612.14	1983.07
612.49	1972.43
612.83	1963.20
613.18	1954.05
613.53	1944.78
613.88	1935.17
614.22	1926.61
614.57	1916.79
614.92	1906.26
615.27	1896.20
615.61	1886.16
615.96	1876.46
616.31	1866.98
616.65	1857.67
617.00	1847.90
617.35	1838.43
617.70	1828.67
618.04	1818.51
618.39	1808.19
618.74	1798.46
619.08	1788.94
619.43	1780.26
619.78	1772.14
620.12	1763.46
620.47	1753.83
620.82	1743.61
621.16	1734.03
621.51	1724.11
621.85	1714.26
622.20	1703.78
622.55	1693.15
622.89	1683.41
623.24	1673.82
623.59	1663.98
623.93	1653.90
624.28	1644.24
624.62	1634.03
624.97	1623.78
625.32	1614.30
625.66	1605.52
626.01	1596.62
626.35	1587.13
626.70	1576.91
627.04	1566.86
627.39	1556.80
627.73	1547.56
628.08	1538.52
628.43	1528.82
628.77	1519.61
629.12	1510.61
629.46	1502.74
629.81	1494.35
630.15	1484.76
630.50	1474.85
630.84	1464.48
631.19	1454.54
631.53	1445.11
631.88	1434.97
632.22	1425.02
632.57	1415.53
632.91	1405.37
633.26	1395.64
633.60	1386.18
633.95	1376.96
634.29	1367.52
634.64	1358.18
634.98	1348.28
635.32	1338.95
635.67	1330.44
636.01	1321.15
636.36	1311.50
636.70	1301.96
637.05	1292.56
637.39	1283.65
637.73	1275.06
638.08	1267.48
638.42	1259.20
638.77	1250.47
639.11	1242.17
639.45	1234.25
639.80	1225.58
640.14	1216.98
640.49	1208.09
640.83	1199.32
641.17	1191.30
641.52	1183.09
641.86	1174.47
642.20	1166.57
642.55	1158.08
642.89	1149.22
643.23	1140.64
643.58	1132.58
643.92	1123.65
644.26	1115.04
644.61	1106.56
644.95	1097.82
645.29	1088.52
645.64	1079.46
645.98	1071.03
646.32	1063.28
646.66	1054.80
647.01	1046.53
647.35	1038.32
647.69	1030.02
648.04	1021.71
648.38	1012.80
648.72	1004.08
649.06	995.76
649.41	987.67
649.75	979.59
650.09	971.86
650.43	963.73
650.78	955.47
651.12	947.88
651.46	940.48
651.80	933.26
652.14	925.94
652.49	918.48
652.83	911.19
653.17	903.56
653.51	895.96
653.85	888.84
654.20	881.58
654.54	874.11
654.88	866.92
655.22	859.80
655.56	852.79
655.90	846.03
656.25	839.40
656.59	832.50
656.93	825.65
657.27	818.51
657.61	811.78
657.95	805.71
658.29	799.86
658.64	793.81
658.98	787.51
659.32	780.99
659.66	774.82
660.00	768.52
660.34	762.54
660.68	756.46
661.02	750.22
661.36	744.45
661.70	738.81
662.05	733.19
662.39	727.80
662.73	722.57
663.07	717.34
663.41	711.82
663.75	706.22
664.09	700.68
664.43	695.36
664.77	690.02
665.11	684.27
665.45	678.39
665.79	672.61
666.13	666.94
666.47	661.56
666.81	656.23
667.15	650.97
667.49	645.83
667.83	640.71
668.17	635.53
668.51	630.40
668.85	625.53
669.19	620.72
669.53	615.73
669.87	610.71
670.21	605.92
670.55	601.24
670.89	596.82
671.23	592.57
671.57	588.22
671.91	583.99
672.25	579.98
672.58	575.88
672.92	571.95
673.26	568.09
673.60	564.28
673.94	560.49
674.28	556.96
674.62	553.24
674.96	549.51
675.30	546.06
675.64	542.52
675.97	538.96
676.31	535.41
676.65	531.84
676.99	528.41
677.33	524.68
677.67	521.12
678.01	517.35
678.34	513.75
678.68	510.31
679.02	506.73
679.36	503.06
679.70	499.50
680.04	495.98
680.37	492.59
680.71	489.37
681.05	486.26
681.39	483.03
681.73	479.93
682.06	476.94
682.40	473.85
682.74	470.78
683.08	467.62
683.42	464.53
683.75	461.58
684.09	458.64
684.43	455.88
684.77	452.98
685.10	450.20
685.44	447.34
685.78	444.45
686.12	441.75
686.45	439.10
686.79	436.49
687.13	434.01
687.46	431.43
687.80	428.71
688.14	425.88
688.48	423.31
688.81	420.73
689.15	418.21
689.49	415.64
689.82	413.06
690.16	410.52
690.50	408.10
690.83	405.71
691.17	403.26
691.51	400.85
691.84	398.70
692.18	396.54
692.52	394.40
692.85	392.31
693.19	390.21
693.52	388.12
693.86	386.00
694.20	383.87
694.53	381.77
694.87	379.69
695.21	377.60
695.54	375.48
695.88	373.35
696.21	371.19
696.55	369.14
696.88	367.17
697.22	365.28
697.56	363.43
697.89	361.55
698.23	359.84
698.56	358.09
698.90	356.30
699.23	354.40
699.57	352.52
699.90	350.70
700.24	348.92
700.58	347.19
700.91	345.53
701.25	344.00
701.58	342.45
701.92	340.90
702.25	339.39
702.59	337.79
702.92	336.33
703.26	334.82
703.59	333.41
703.93	332.18
704.26	330.82
704.60	329.33
704.93	327.90
705.26	326.39
705.60	324.93
705.93	323.49
706.27	322.22
706.60	321.02
706.94	319.83
707.27	318.47
707.61	317.17
707.94	315.82
708.27	314.32
708.61	312.90
708.94	311.57
709.28	310.33
709.61	309.15
709.94	307.92
710.28	306.70
710.61	305.48
710.95	304.08
711.28	302.98
711.61	301.86
711.95	300.77
712.28	299.60
712.61	298.44
712.95	297.39
713.28	296.36
713.61	295.22
713.95	294.09
714.28	293.10
714.61	292.07
714.95	291.09
715.28	290.07
715.61	289.05
715.95	288.11
716.28	287.17
716.61	286.20
716.95	285.26
717.28	284.40
717.61	283.52
717.94	282.69
718.28	281.70
718.61	280.81
718.94	279.91
719.27	279.10
719.61	278.32
719.94	277.48
720.27	276.53
720.60	275.70
720.94	274.96
721.27	274.23
721.60	273.57
721.93	272.89
722.27	272.33
722.60	271.71
722.93	271.04
723.26	270.39
723.59	269.79
723.93	269.18
724.26	268.55
724.59	267.88
724.92	267.31
725.25	266.76
725.59	266.23
725.92	265.72
726.25	265.19
726.58	264.63
726.91	264.05
727.24	263.57
727.57	263.04
727.91	262.44
728.24	261.88
728.57	261.30
728.90	260.75
729.23	260.15
729.56	259.75
729.89	259.21
730.22	258.65
730.55	258.08
730.89	257.56
731.22	257.01
731.55	256.58
731.88	256.05
732.21	255.54
732.54	255.01
732.87	254.55
733.20	254.07
733.53	253.60
733.86	253.17
734.19	252.69
734.52	252.32
734.85	252.03
735.18	251.59
735.51	251.22
735.84	250.82
736.17	250.45
736.50	249.94
736.83	249.79
737.16	249.43
737.49	249.07
737.82	248.68
738.15	248.34
738.48	247.92
738.81	247.55
739.14	247.15
739.47	246.78
739.80	246.39
740.13	246.04
740.46	245.65
740.79	245.27
741.12	244.91
741.45	244.51
741.78	244.08
742.11	243.85
742.44	243.52
742.77	243.23
743.10	242.88
743.43	242.51
743.75	241.95
744.08	241.87
744.41	241.54
744.74	241.20
745.07	240.85
745.40	240.56
745.73	240.30
746.06	239.99
746.39	239.70
746.71	239.36
747.04	239.02
747.37	238.72
747.70	238.41
748.03	238.12
748.36	237.84
748.68	237.55
749.01	237.15
749.34	236.81
749.67	236.49
750.00	236.23
750.33	236.12
750.65	235.90
750.98	235.35
751.31	235.10
751.64	234.89
751.97	234.77
752.29	234.49
752.62	234.17
752.95	233.90
753.28	233.65
753.60	233.43
753.93	233.30
754.26	233.12
754.59	232.83
754.91	232.62
755.24	232.44
755.57	232.19
755.90	231.96
756.22	231.76
756.55	231.52
756.88	231.30
757.20	230.95
757.53	230.72
757.86	230.55
758.19	230.36
758.51	230.20
758.84	229.91
759.17	229.75
759.49	229.59
759.82	229.54
760.15	229.40
760.47	229.22
760.80	228.95
761.13	228.76
761.45	228.61
761.78	228.46
762.11	228.26
762.43	228.10
762.76	227.95
763.08	227.83
763.41	227.70
763.74	227.57
764.06	227.45
764.39	227.28
764.71	227.12
765.04	226.94
765.37	226.73
765.69	226.62
766.02	226.47
766.34	226.34
766.67	226.12
767.00	226.03
767.32	226.01
767.65	226.03
767.97	225.91
768.30	225.81
768.62	225.70
768.95	225.55
769.27	225.44
769.60	225.37
769.92	225.22
770.25	225.09
770.57	224.92
770.90	224.78
771.22	224.66
771.55	224.55
771.87	224.47
772.20	224.36
772.52	224.37
772.85	224.50
773.17	224.38
773.50	224.28
773.82	224.13
774.15	223.95
774.47	223.73
774.80	223.61
775.12	223.51
775.45	223.41
775.77	223.33
776.09	223.24
776.42	223.12
776.74	223.12
777.07	223.01
777.39	222.92
777.72	222.85
778.04	222.80
778.36	222.69
778.69	222.62
779.01	222.57
779.33	222.35
779.66	222.04
779.98	221.92
780.31	221.87
780.63	221.87
780.95	221.83
781.28	221.76
781.60	221.66
781.92	221.60
782.25	221.51
782.57	221.44
782.89	221.36
783.22	221.29
783.54	221.13
783.86	221.08
784.19	221.02
784.51	221.01
784.83	220.93
785.16	220.90
785.48	220.82
785.80	220.78
786.12	220.70
786.45	220.65
786.77	220.62
787.09	220.54
787.42	220.43
787.74	220.35
788.06	220.30
788.38	220.26
788.71	220.17
789.03	220.13
789.35	220.11
789.67	220.04
789.99	220.01
790.32	220.00
790.64	219.95
790.96	220.07
791.28	219.93
791.61	219.85
791.93	219.81
792.25	219.77
792.57	219.84
792.89	219.77
793.21	219.74
793.54	219.71
793.86	219.66
794.18	219.61
794.50	219.54
794.82	219.50
795.14	219.47
795.47	219.48
795.79	219.41
796.11	219.30
796.43	219.26
796.75	219.16
797.07	219.09
797.39	219.08
797.71	218.86
798.04	218.83
798.36	218.80
798.68	218.74
799.00	218.71
799.32	218.56
799.64	218.59
799.96	218.56
800.28	218.54
800.60	218.48
800.92	218.46
801.24	218.40
801.56	218.39
801.89	218.33
802.21	218.30
802.53	218.25
802.85	218.27
803.17	218.33
803.49	218.29
803.81	218.25
804.13	218.18
804.45	218.15
804.77	218.15
805.09	218.12
805.41	218.10
805.73	218.03
806.05	217.94
806.37	217.87
806.69	217.82
807.01	217.77
807.33	217.76
807.65	217.63
807.97	217.71
808.28	217.67
808.60	217.62
808.92	217.59
809.24	217.71
809.56	217.64
809.88	217.56
810.20	217.54
810.52	217.58
810.84	217.52
811.16	217.48
811.48	217.44
811.80	217.49
812.12	217.43
812.43	217.45
812.75	217.46
813.07	217.42
813.39	217.40
813.71	217.36
814.03	217.31
814.35	217.33
814.67	217.22
814.98	217.17
815.30	217.16
815.62	217.11
815.94	216.98
816.26	217.01
816.58	216.96
816.89	216.96
817.21	216.87
817.53	216.90
817.85	216.90
818.17	216.89
818.48	216.81
818.80	216.83
819.12	216.78
819.44	216.75
819.76	216.73
820.07	216.67
820.39	216.64
820.71	216.64
821.03	216.62
821.34	216.58
821.66	216.59
821.98	216.58
822.30	216.56
822.61	216.65
822.93	216.59
823.25	216.54
823.57	216.50
823.88	216.53
824.20	216.48
824.52	216.50
824.83	216.46
825.15	216.44
825.47	216.43
825.79	216.43
826.10	216.40
826.42	216.36
826.74	216.41
827.05	216.40
827.37	216.39
827.69	216.37
828.00	216.36
828.32	216.33
828.64	216.33
828.95	216.43
829.27	216.34
829.58	216.31
829.90	216.37
830.22	216.38
830.53	216.29
830.85	216.24
831.17	216.17
831.48	216.20
831.80	216.18
832.11	216.16
832.43	216.10
832.75	216.10
833.06	216.21
833.38	216.14
833.69	216.12
834.01	216.09
834.32	216.09
834.64	216.10
834.96	216.09
835.27	216.06
835.59	215.94
835.90	215.89
836.22	215.87
836.53	215.79
836.85	215.76
837.16	215.98
837.48	216.00
837.79	216.06
838.11	216.04
838.42	216.03
838.74	216.05
839.05	216.06
839.37	216.04
839.68	215.92
840.00	215.92
840.31	215.93
840.63	215.95
840.94	215.92
841.26	215.89
841.57	215.88
841.88	215.89
842.20	215.88
842.51	215.89
842.83	215.90
843.14	216.13
843.46	216.13
843.77	216.03
844.08	216.02
844.40	215.96
844.71	215.95
845.03	215.93
845.34	215.90
845.65	215.84
845.97	215.82
846.28	215.83
846.60	215.80
846.91	215.77
847.22	215.78
847.54	215.82
847.85	215.81
848.16	215.80
848.48	215.77
848.79	215.87
849.10	215.87
849.42	215.89
849.73	215.65
850.04	215.65
850.36	215.56
850.67	215.61
850.98	215.60
851.30	215.59
851.61	215.58
851.92	215.57
852.23	215.71
852.55	215.73
852.86	215.73
853.17	215.74
853.49	215.80
853.80	215.82
854.11	215.80
854.42	215.84
854.74	215.82
855.05	215.81
855.36	215.67
855.67	215.67
855.99	215.64
856.30	215.87
856.61	215.86
856.92	215.86
857.23	215.88
857.55	215.86
857.86	215.83
858.17	215.88
858.48	215.85
858.79	215.79
859.11	215.80
859.42	215.82
859.73	215.78
860.04	215.74
860.35	215.68
860.66	215.63
860.98	215.61
861.29	215.65
861.60	215.64
861.91	215.68
862.22	215.65
862.53	215.61
862.84	215.35
863.16	215.39
863.47	215.31
863.78	215.23
864.09	215.25
864.40	215.27
864.71	215.28
865.02	215.27
865.33	215.23
865.64	215.18
865.95	215.14
866.27	215.29
866.58	215.29
866.89	215.25
867.20	215.27
867.51	215.26
867.82	215.25
868.13	215.28
868.44	215.23
868.75	215.26
869.06	215.28
869.37	215.33
869.68	215.24
869.99	215.33
870.30	215.38
870.61	215.39
870.92	215.34
871.23	215.30
871.54	215.34
871.85	215.38
872.16	215.42
872.47	215.42
872.78	215.31
873.09	215.34
873.40	215.33
873.71	215.33
874.02	215.29
874.33	215.27
874.64	215.29
874.95	215.33
875.26	215.31
875.56	215.33
875.87	215.33
876.18	215.34
876.49	215.53
876.80	215.50
877.11	215.45
877.42	215.48
877.73	215.50
878.04	215.46
878.35	215.46
878.66	215.47
878.96	215.49
879.27	215.45
879.58	215.42
879.89	215.44
880.20	215.53
880.51	215.55
880.82	215.55
881.12	215.54
881.43	215.49
881.74	215.46
882.05	215.45
882.36	215.47
882.67	215.50
882.97	215.29
883.28	215.25
883.59	215.27
883.90	215.28
884.21	215.27
884.51	215.27
884.82	215.22
885.13	215.21
885.44	215.18
885.74	215.21
886.05	215.16
886.36	215.19
886.67	215.07
886.98	215.15
887.28	215.17
887.59	215.13
887.90	215.13
888.20	215.10
888.51	215.12
888.82	215.07
889.13	215.09
889.43	215.28
889.74	215.28
890.05	215.26
890.35	215.22
890.66	215.19
890.97	215.20
891.28	215.18
891.58	215.17
891.89	215.18
892.20	215.16
892.50	215.15
892.81	215.13
893.12	215.15
893.42	215.05
893.73	215.06
894.04	215.05
894.34	215.07
894.65	215.09
894.95	215.04
895.26	215.07
895.57	215.14
895.87	214.92
896.18	214.92
896.48	214.95
896.79	214.94
897.10	214.97
897.40	214.96
897.71	214.98
898.01	214.97
898.32	214.99
898.63	214.98
898.93	215.01
899.24	215.00
899.54	214.98
899.85	214.98
900.15	214.94
900.46	214.99
900.76	215.01
901.07	214.99
901.38	214.99
901.68	214.98
901.99	214.87
902.29	214.89
902.60	214.91
902.90	214.87
903.21	214.90
903.51	214.88
903.82	214.93
904.12	214.96
904.43	214.97
904.73	214.94
905.03	214.96
905.34	215.13
905.64	215.13
905.95	215.14
906.25	215.14
906.56	215.14
906.86	215.09
907.17	215.09
907.47	215.12
907.77	215.12
908.08	215.11
908.38	215.11
908.69	215.11
908.99	215.13
909.30	215.15
909.60	215.11
909.90	215.11
910.21	215.06
910.51	214.99
910.81	214.99
911.12	215.03
911.42	215.06
911.73	214.84
912.03	214.85
912.33	214.88
912.64	214.89
912.94	214.89
913.24	214.86
913.55	214.85
913.85	214.81
914.15	214.84
914.46	214.85
914.76	214.83
915.06	214.83
915.37	214.79
915.67	214.77
915.97	214.81
916.27	214.80
916.58	214.78
916.88	214.79
917.18	214.81
917.49	214.94
917.79	214.92
918.09	214.99
918.39	215.03
918.70	215.02
919.00	215.00
919.30	215.07
919.60	215.08
919.91	215.06
920.21	215.08
920.51	215.06
920.81	215.05
921.12	215.09
921.42	215.06
921.72	215.12
922.02	215.12
922.32	215.14
922.63	215.15
922.93	215.24
923.23	215.25
923.53	215.20
923.83	215.05
924.13	215.05
924.44	215.03
924.74	215.08
925.04	215.12
925.34	215.12
925.64	215.03
925.94	215.03
926.24	215.14
926.55	215.13
926.85	215.14
927.15	215.14
927.45	215.12
927.75	215.18
928.05	215.15
928.35	215.14
928.65	215.15
928.95	215.13
929.26	215.10
929.56	215.14
929.86	215.17
930.16	215.15
930.46	215.14
930.76	215.19
931.06	215.06
931.36	215.02
931.66	215.07
931.96	215.11
932.26	215.14
932.56	215.08
932.86	215.07
933.16	215.04
933.46	215.02
933.76	215.02
934.06	215.03
934.36	215.13
934.66	215.14
934.96	215.12
935.26	215.15
935.56	215.14
935.86	215.13
936.16	215.09
936.46	215.07
936.76	215.05
937.06	214.98
937.36	215.02
937.66	215.04
937.96	215.00
938.26	214.96
938.56	214.92
938.86	214.91
939.16	214.98
939.46	215.01
939.76	215.05
940.06	215.07
940.35	215.03
940.65	214.89
940.95	214.89
941.25	214.84
941.55	214.82
941.85	214.80
942.15	214.82
942.45	214.91
942.75	214.88
943.04	214.92
943.34	214.99
943.64	214.96
943.94	214.93
944.24	214.94
944.54	214.95
944.84	214.95
945.13	214.92
945.43	214.88
945.73	214.88
946.03	214.87
946.33	214.83
946.62	214.83
946.92	214.84
947.22	214.88
947.52	214.88
947.82	214.90
948.11	214.87
948.41	214.83
948.71	214.73
949.01	214.79
949.31	214.74
949.60	214.74
949.90	214.77
950.20	214.72
950.50	214.71
950.79	214.68
951.09	214.72
951.39	214.70
951.69	214.71
951.98	214.74
952.28	214.72
952.58	214.69
952.87	214.66
953.17	214.67
953.47	214.67
953.76	214.68
954.06	214.62
954.36	214.63
954.66	214.59
954.95	214.67
955.25	214.64
955.55	214.67
955.84	214.60
956.14	214.60
956.44	214.64
956.73	214.62
957.03	214.64
957.32	214.65
957.62	214.66
957.92	214.67
958.21	214.66
958.51	214.90
958.81	214.93
959.10	214.95
959.40	215.00
959.69	214.98
959.99	215.02
960.29	215.03
960.58	215.00
960.88	215.10
961.17	215.08
961.47	215.11
961.76	215.10
962.06	215.15
962.36	215.15
962.65	215.18
962.95	215.19
963.24	215.19
963.54	215.19
963.83	215.24
964.13	215.18
964.42	215.13
964.72	214.95
965.01	214.96
965.31	214.95
965.60	214.92
965.90	215.07
966.19	215.02
966.49	215.05
966.78	215.08
967.08	215.06
967.37	215.05
967.67	215.01
967.96	215.07
968.26	215.05
968.55	215.07
968.85	215.08
969.14	215.09
969.43	215.09
969.73	215.10
970.02	215.07
970.32	215.11
970.61	215.11
970.91	215.08
971.20	215.07
971.49	215.08
971.79	215.07
972.08	214.93
972.38	214.96
972.67	214.94
972.96	214.94
973.26	214.92
973.55	214.99
973.85	214.98
974.14	214.94
974.43	214.98
974.73	214.93
975.02	214.92
975.31	214.90
975.61	214.88
975.90	214.83
976.19	214.82
976.49	214.83
976.78	214.84
977.07	214.80
977.37	214.79
977.66	214.80
977.95	214.78
978.24	214.78
978.54	214.82
978.83	214.76
979.12	214.78
979.42	214.79
979.71	214.75
980.00	214.76
980.29	214.73
980.59	214.67
980.88	214.74
981.17	214.72
981.46	214.71
981.76	214.71
982.05	214.78
982.34	214.76
982.63	214.74
982.93	214.70
983.22	214.77
983.51	214.79
983.80	214.85
984.09	214.86
984.39	214.84
984.68	214.81
984.97	214.84
985.26	214.83
985.55	214.82
985.85	214.75
986.14	214.79
986.43	214.86
986.72	214.82
987.01	214.74
987.30	214.75
987.59	214.74
987.89	214.75
988.18	214.66
988.47	214.67
988.76	214.67
989.05	214.68
989.34	214.63
989.63	214.67
989.92	214.60
990.22	214.58
990.51	214.58
990.80	214.58
991.09	214.64
991.38	214.67
991.67	214.63
991.96	214.65
992.25	214.64
992.54	214.59
992.83	214.60
993.12	214.60
993.41	214.62
993.70	214.69
993.99	214.72
994.28	214.74
994.58	214.76
994.87	214.75
995.16	214.76
995.45	214.74
995.74	214.69
996.03	214.73
996.32	214.76
996.61	214.80
996.90	214.79
997.19	214.77
997.48	214.76
997.77	214.76
998.06	214.75
998.34	214.77
998.63	214.78
998.92	214.81
999.21	214.84
999.50	214.84
999.79	214.81
1000.08	214.80
1000.37	214.84
1000.66	214.83
1000.95	214.87
1001.24	214.90
1001.53	214.96
1001.82	214.91
1002.11	214.86
1002.40	214.91
1002.68	214.94
1002.97	215.06
1003.26	215.02
1003.55	215.00
1003.84	215.00
1004.13	215.09
1004.42	215.06
1004.71	215.05
1004.99	215.06
1005.28	215.06
1005.57	215.04
1005.86	215.00
1006.15	215.01
1006.44	214.94
1006.72	214.96
1007.01	214.93
1007.30	214.90
1007.59	214.86
1007.88	214.88
1008.17	214.90
1008.45	214.81
1008.74	214.74
1009.03	214.66
1009.32	214.67
1009.60	214.68
1009.89	214.69
1010.18	214.55
1010.47	214.57
1010.76	214.55
1011.04	214.50
1011.33	214.54
1011.62	214.53
1011.91	214.54
1012.19	214.58
1012.48	214.60
1012.77	214.60
1013.05	214.72
1013.34	214.74
1013.63	214.74
1013.92	214.79
1014.20	214.76
1014.49	214.78
1014.78	214.80
1015.06	214.73
1015.35	214.75
1015.64	214.79
1015.92	214.80
1016.21	214.84
1016.50	214.83
1016.78	214.88
1017.07	214.93
1017.36	214.88
1017.64	214.84
1017.93	214.88
1018.22	214.85
1018.50	214.85
1018.79	214.85
1019.08	214.71
1019.36	214.71
1019.65	214.72
1019.93	214.73
1020.22	214.78
1020.51	214.90
1020.79	214.86
1021.08	214.71
1021.36	214.66
1021.65	214.76
1021.94	214.25
1022.22	214.69
1022.51	214.83
1022.79	215.29
1023.08	215.37
1023.36	217.04
1023.65	214.15
>>>>>End Processed Spectral Data<<<<<
