SpectraSuite Data File
++++++++++++++++++++++++++++++++++++
Date: Tue Jan 29 16:00:45 EST 2013
User: group
Dark Spectrum Present: No
Reference Spectrum Present: No
Number of Sampled Component Spectra: 1
Spectrometers: USB2E7196
Integration Time (usec): 65000 (USB2E7196)
Spectra Averaged: 100 (USB2E7196)
Boxcar Smoothing: 10 (USB2E7196)
Correct for Electrical Dark: No (USB2E7196)
Strobe/Lamp Enabled: No (USB2E7196)
Correct for Detector Non-linearity: No (USB2E7196)
Correct for Stray Light: No (USB2E7196)
Number of Pixels in Processed Spectrum: 2048
>>>>>Begin Processed Spectral Data<<<<<
339.09	0.00
339.48	202.16
339.86	204.03
340.24	204.74
340.63	206.88
341.01	210.99
341.39	210.21
341.78	211.09
342.16	212.95
342.54	212.66
342.93	201.83
343.31	212.01
343.69	212.57
344.07	213.06
344.46	213.53
344.84	213.96
345.22	214.15
345.60	214.37
345.99	214.59
346.37	214.71
346.75	214.85
347.13	214.94
347.52	215.00
347.90	215.10
348.28	215.16
348.66	215.25
349.05	215.21
349.43	215.26
349.81	215.32
350.19	215.41
350.57	215.50
350.96	215.62
351.34	215.74
351.72	215.82
352.10	215.91
352.48	215.98
352.87	215.99
353.25	216.05
353.63	216.14
354.01	216.18
354.39	216.28
354.77	216.37
355.15	216.49
355.54	216.56
355.92	216.58
356.30	216.65
356.68	216.84
357.06	216.98
357.44	216.99
357.82	217.07
358.20	217.13
358.58	217.20
358.97	217.24
359.35	217.34
359.73	217.47
360.11	217.52
360.49	217.62
360.87	217.69
361.25	217.79
361.63	217.87
362.01	217.97
362.39	217.95
362.77	217.92
363.15	217.93
363.53	217.94
363.91	217.98
364.29	217.99
364.67	217.82
365.05	217.81
365.43	217.88
365.81	217.89
366.19	217.95
366.57	218.02
366.95	218.04
367.33	218.00
367.71	218.01
368.09	218.05
368.47	218.02
368.85	217.99
369.23	218.00
369.61	217.95
369.99	217.96
370.37	217.98
370.75	218.12
371.13	218.07
371.51	218.04
371.89	218.05
372.27	218.02
372.65	217.98
373.03	217.97
373.41	217.92
373.78	217.89
374.16	217.77
374.54	217.68
374.92	217.61
375.30	217.58
375.68	217.51
376.06	217.45
376.44	217.39
376.82	217.39
377.19	217.31
377.57	217.25
377.95	217.13
378.33	217.07
378.71	216.88
379.09	216.86
379.47	216.84
379.84	216.73
380.22	216.70
380.60	216.64
380.98	216.58
381.36	216.53
381.73	216.48
382.11	216.49
382.49	216.41
382.87	216.33
383.25	216.29
383.62	216.48
384.00	216.41
384.38	216.39
384.76	216.40
385.13	216.47
385.51	216.43
385.89	216.40
386.27	216.35
386.64	216.39
387.02	216.34
387.40	216.26
387.78	216.28
388.15	216.24
388.53	216.20
388.91	216.20
389.29	216.17
389.66	216.15
390.04	216.09
390.42	216.11
390.79	216.11
391.17	216.09
391.55	215.85
391.92	215.84
392.30	215.85
392.68	215.80
393.05	215.75
393.43	215.77
393.81	215.76
394.18	215.77
394.56	215.75
394.94	215.80
395.31	215.83
395.69	215.93
396.06	215.98
396.44	216.02
396.82	216.02
397.19	216.16
397.57	216.18
397.95	216.24
398.32	216.23
398.70	216.29
399.07	216.38
399.45	216.41
399.82	216.49
400.20	216.48
400.58	216.53
400.95	216.51
401.33	216.60
401.70	216.82
402.08	216.94
402.45	217.01
402.83	217.16
403.20	217.27
403.58	217.33
403.95	217.47
404.33	217.65
404.71	217.77
405.08	218.00
405.46	218.11
405.83	218.29
406.21	218.51
406.58	218.74
406.96	218.91
407.33	219.15
407.70	219.42
408.08	219.89
408.45	220.23
408.83	220.60
409.20	220.96
409.58	221.20
409.95	221.61
410.33	222.07
410.70	222.47
411.08	223.02
411.45	223.55
411.82	224.06
412.20	224.69
412.57	225.51
412.95	226.02
413.32	226.82
413.69	227.60
414.07	228.43
414.44	229.37
414.82	230.36
415.19	231.50
415.56	232.69
415.94	233.82
416.31	235.20
416.68	236.55
417.06	238.14
417.43	239.64
417.81	241.30
418.18	243.02
418.55	244.86
418.93	246.79
419.30	248.82
419.67	251.00
420.04	253.22
420.42	255.46
420.79	258.21
421.16	260.95
421.54	263.79
421.91	266.71
422.28	269.66
422.66	272.84
423.03	275.95
423.40	279.16
423.77	282.61
424.15	286.12
424.52	289.83
424.89	293.78
425.26	297.73
425.64	301.50
426.01	305.63
426.38	309.97
426.75	314.38
427.13	318.94
427.50	323.73
427.87	328.71
428.24	333.80
428.61	338.60
428.99	343.93
429.36	349.70
429.73	355.35
430.10	361.05
430.47	366.89
430.85	373.02
431.22	379.50
431.59	386.41
431.96	392.97
432.33	400.20
432.70	407.21
433.08	415.37
433.45	423.09
433.82	430.85
434.19	439.38
434.56	447.73
434.93	455.76
435.30	463.77
435.68	472.56
436.05	481.19
436.42	489.77
436.79	497.57
437.16	505.99
437.53	514.92
437.90	523.74
438.27	532.36
438.64	541.19
439.01	549.41
439.38	556.73
439.75	563.82
440.13	571.93
440.50	579.53
440.87	585.80
441.24	592.20
441.61	599.23
441.98	604.44
442.35	610.56
442.72	616.63
443.09	622.42
443.46	625.95
443.83	628.33
444.20	630.44
444.57	633.49
444.94	634.85
445.31	636.24
445.68	637.61
446.05	638.19
446.42	637.46
446.79	636.54
447.16	635.37
447.53	634.57
447.90	631.33
448.27	628.20
448.64	623.68
449.01	620.49
449.37	614.76
449.74	609.33
450.11	602.68
450.48	595.59
450.85	588.33
451.22	582.11
451.59	576.25
451.96	570.59
452.33	563.00
452.70	556.20
453.07	548.04
453.43	539.72
453.80	531.72
454.17	524.05
454.54	516.81
454.91	509.02
455.28	501.43
455.65	494.35
456.02	487.15
456.38	481.09
456.75	473.60
457.12	467.33
457.49	461.08
457.86	455.14
458.23	449.99
458.59	444.38
458.96	438.64
459.33	433.53
459.70	428.44
460.07	424.37
460.43	419.70
460.80	415.39
461.17	411.57
461.54	407.56
461.91	403.67
462.27	399.69
462.64	396.35
463.01	392.65
463.38	389.09
463.74	385.50
464.11	382.38
464.48	379.61
464.85	376.61
465.21	374.22
465.58	371.67
465.95	368.66
466.32	366.14
466.68	363.65
467.05	361.16
467.42	358.70
467.78	356.15
468.15	353.64
468.52	351.76
468.88	349.33
469.25	347.21
469.62	345.49
469.98	343.64
470.35	341.92
470.72	340.32
471.08	338.61
471.45	337.23
471.82	335.75
472.18	334.14
472.55	333.03
472.92	331.72
473.28	330.57
473.65	329.47
474.02	328.41
474.38	327.58
474.75	326.92
475.11	326.14
475.48	325.60
475.85	325.19
476.21	324.73
476.58	324.44
476.94	324.23
477.31	324.00
477.67	323.76
478.04	323.64
478.41	323.63
478.77	323.81
479.14	323.77
479.50	323.93
479.87	324.28
480.23	324.65
480.60	324.97
480.96	325.30
481.33	325.93
481.69	326.54
482.06	327.06
482.42	327.52
482.79	328.13
483.15	328.94
483.52	329.91
483.88	330.81
484.25	331.76
484.61	332.80
484.98	333.83
485.34	335.16
485.71	336.52
486.07	337.98
486.44	339.27
486.80	340.93
487.17	342.58
487.53	344.38
487.90	346.22
488.26	348.23
488.62	350.34
488.99	352.37
489.35	354.52
489.72	356.93
490.08	359.46
490.44	362.03
490.81	364.75
491.17	367.43
491.54	370.38
491.90	373.40
492.26	376.68
492.63	380.03
492.99	383.48
493.36	387.21
493.72	391.07
494.08	395.09
494.45	399.29
494.81	403.62
495.17	408.06
495.54	412.76
495.90	417.53
496.26	422.46
496.63	427.64
496.99	433.01
497.35	438.54
497.72	444.33
498.08	450.22
498.44	456.27
498.80	462.66
499.17	469.18
499.53	475.88
499.89	482.68
500.26	489.68
500.62	496.72
500.98	504.03
501.34	511.48
501.71	519.24
502.07	526.99
502.43	535.03
502.79	543.07
503.16	551.38
503.52	559.99
503.88	568.63
504.24	577.55
504.60	586.60
504.97	595.79
505.33	605.05
505.69	614.95
506.05	624.78
506.41	634.57
506.78	644.60
507.14	654.85
507.50	665.28
507.86	675.97
508.22	686.82
508.59	697.50
508.95	708.63
509.31	719.78
509.67	731.24
510.03	742.59
510.39	754.42
510.75	766.28
511.12	778.09
511.48	790.22
511.84	802.48
512.20	814.70
512.56	827.23
512.92	839.88
513.28	852.42
513.64	865.12
514.00	877.92
514.37	890.78
514.73	903.66
515.09	916.51
515.45	929.18
515.81	942.10
516.17	955.38
516.53	968.37
516.89	981.36
517.25	994.29
517.61	1007.65
517.97	1020.80
518.33	1033.71
518.69	1047.12
519.05	1060.67
519.41	1074.01
519.77	1087.74
520.13	1100.90
520.49	1113.97
520.85	1127.09
521.21	1140.16
521.57	1153.58
521.93	1166.46
522.29	1180.09
522.65	1193.54
523.01	1206.98
523.37	1219.77
523.73	1232.83
524.09	1245.79
524.45	1258.97
524.81	1272.23
525.17	1285.39
525.53	1298.31
525.89	1311.29
526.25	1324.15
526.61	1336.73
526.97	1349.55
527.33	1362.26
527.68	1375.44
528.04	1388.64
528.40	1401.59
528.76	1414.68
529.12	1427.38
529.48	1440.37
529.84	1452.26
530.20	1464.69
530.56	1476.98
530.91	1490.06
531.27	1502.52
531.63	1514.93
531.99	1527.41
532.35	1539.43
532.71	1551.59
533.07	1564.11
533.42	1576.09
533.78	1587.86
534.14	1599.56
534.50	1610.54
534.86	1621.75
535.21	1632.38
535.57	1643.44
535.93	1654.43
536.29	1665.27
536.65	1676.28
537.00	1686.94
537.36	1698.00
537.72	1708.71
538.08	1719.67
538.44	1730.20
538.79	1740.92
539.15	1751.48
539.51	1761.87
539.87	1772.90
540.22	1783.24
540.58	1793.92
540.94	1804.56
541.29	1814.39
541.65	1823.90
542.01	1834.28
542.37	1844.07
542.72	1853.98
543.08	1863.50
543.44	1873.48
543.79	1882.46
544.15	1891.64
544.51	1901.37
544.87	1910.91
545.22	1919.71
545.58	1928.42
545.94	1937.10
546.29	1945.42
546.65	1953.59
547.01	1961.52
547.36	1968.98
547.72	1976.59
548.07	1983.95
548.43	1991.45
548.79	1999.15
549.14	2007.08
549.50	2015.16
549.86	2022.69
550.21	2029.81
550.57	2037.28
550.92	2043.97
551.28	2051.41
551.64	2058.57
551.99	2065.89
552.35	2073.02
552.70	2079.76
553.06	2086.16
553.41	2092.19
553.77	2098.57
554.13	2104.70
554.48	2111.54
554.84	2118.28
555.19	2124.56
555.55	2130.85
555.90	2136.94
556.26	2143.68
556.61	2149.43
556.97	2154.09
557.32	2159.85
557.68	2166.08
558.03	2171.65
558.39	2176.80
558.74	2182.49
559.10	2188.01
559.45	2193.42
559.81	2198.75
560.16	2204.38
560.52	2210.35
560.87	2216.79
561.23	2222.72
561.58	2229.41
561.94	2234.51
562.29	2239.32
562.64	2245.57
563.00	2251.12
563.35	2256.69
563.71	2262.33
564.06	2268.02
564.42	2273.96
564.77	2279.06
565.12	2284.15
565.48	2289.65
565.83	2295.29
566.19	2300.86
566.54	2306.23
566.89	2310.88
567.25	2315.58
567.60	2321.17
567.96	2326.52
568.31	2331.11
568.66	2335.34
569.02	2339.24
569.37	2343.19
569.72	2347.80
570.08	2351.20
570.43	2354.36
570.78	2357.69
571.14	2360.58
571.49	2363.78
571.84	2367.42
572.20	2370.45
572.55	2373.78
572.90	2375.94
573.26	2379.09
573.61	2381.64
573.96	2383.91
574.31	2386.00
574.67	2388.01
575.02	2389.02
575.37	2390.38
575.72	2391.36
576.08	2393.04
576.43	2393.42
576.78	2394.26
577.13	2396.05
577.49	2397.37
577.84	2398.95
578.19	2400.45
578.54	2401.37
578.90	2402.66
579.25	2402.73
579.60	2403.01
579.95	2402.71
580.30	2403.24
580.66	2402.48
581.01	2400.99
581.36	2398.95
581.71	2397.89
582.06	2397.14
582.42	2396.54
582.77	2394.60
583.12	2393.24
583.47	2392.11
583.82	2391.87
584.17	2390.93
584.53	2388.91
584.88	2387.15
585.23	2385.35
585.58	2383.43
585.93	2381.31
586.28	2379.22
586.63	2377.21
586.98	2375.21
587.34	2373.27
587.69	2371.08
588.04	2369.43
588.39	2368.24
588.74	2366.11
589.09	2363.69
589.44	2360.94
589.79	2358.84
590.14	2357.27
590.49	2354.60
590.84	2351.16
591.19	2348.24
591.54	2345.04
591.89	2341.18
592.25	2338.10
592.60	2334.04
592.95	2329.68
593.30	2325.76
593.65	2321.40
594.00	2317.09
594.35	2314.13
594.70	2309.66
595.05	2305.07
595.40	2299.68
595.75	2294.27
596.10	2290.71
596.45	2285.97
596.80	2281.51
597.15	2276.35
597.50	2270.51
597.85	2265.66
598.19	2260.59
598.54	2254.94
598.89	2249.89
599.24	2245.62
599.59	2239.69
599.94	2234.36
600.29	2228.94
600.64	2223.02
600.99	2216.64
601.34	2211.29
601.69	2204.32
602.04	2198.03
602.39	2191.71
602.74	2185.91
603.08	2180.49
603.43	2174.04
603.78	2167.31
604.13	2160.18
604.48	2153.09
604.83	2147.16
605.18	2140.93
605.53	2133.90
605.87	2127.03
606.22	2120.42
606.57	2112.54
606.92	2104.67
607.27	2097.69
607.62	2091.00
607.96	2084.15
608.31	2077.61
608.66	2070.01
609.01	2062.62
609.36	2055.66
609.70	2048.01
610.05	2040.19
610.40	2031.91
610.75	2023.70
611.10	2016.19
611.44	2007.54
611.79	1998.71
612.14	1988.61
612.49	1978.20
612.83	1969.02
613.18	1959.78
613.53	1950.50
613.88	1940.97
614.22	1932.45
614.57	1922.43
614.92	1911.98
615.27	1902.00
615.61	1892.01
615.96	1882.28
616.31	1872.72
616.65	1863.34
617.00	1853.31
617.35	1843.69
617.70	1833.91
618.04	1823.80
618.39	1813.32
618.74	1803.67
619.08	1794.12
619.43	1785.53
619.78	1777.28
620.12	1768.60
620.47	1758.76
620.82	1748.33
621.16	1738.48
621.51	1728.55
621.85	1718.61
622.20	1708.11
622.55	1697.44
622.89	1687.69
623.24	1678.03
623.59	1668.23
623.93	1658.00
624.28	1648.46
624.62	1638.23
624.97	1627.87
625.32	1618.30
625.66	1609.69
626.01	1600.74
626.35	1591.30
626.70	1581.10
627.04	1570.97
627.39	1560.90
627.73	1551.58
628.08	1542.50
628.43	1532.87
628.77	1523.45
629.12	1514.61
629.46	1506.81
629.81	1498.36
630.15	1488.53
630.50	1478.73
630.84	1468.25
631.19	1458.35
631.53	1448.73
631.88	1438.60
632.22	1428.63
632.57	1419.18
632.91	1408.82
633.26	1398.98
633.60	1389.36
633.95	1379.99
634.29	1370.55
634.64	1361.08
634.98	1351.29
635.32	1341.98
635.67	1333.44
636.01	1324.17
636.36	1314.42
636.70	1304.67
637.05	1295.22
637.39	1286.36
637.73	1277.57
638.08	1269.99
638.42	1261.62
638.77	1252.91
639.11	1244.62
639.45	1236.77
639.80	1228.04
640.14	1219.44
640.49	1210.46
640.83	1201.69
641.17	1193.65
641.52	1185.36
641.86	1176.84
642.20	1169.01
642.55	1160.38
642.89	1151.53
643.23	1142.87
643.58	1134.65
643.92	1125.65
644.26	1117.08
644.61	1108.50
644.95	1099.77
645.29	1090.42
645.64	1081.32
645.98	1073.04
646.32	1065.18
646.66	1056.68
647.01	1048.30
647.35	1040.09
647.69	1031.67
648.04	1023.33
648.38	1014.30
648.72	1005.57
649.06	997.14
649.41	988.86
649.75	980.94
650.09	973.05
650.43	965.03
650.78	956.89
651.12	949.29
651.46	941.97
651.80	934.72
652.14	927.39
652.49	919.99
652.83	912.75
653.17	904.98
653.51	897.34
653.85	890.05
654.20	882.79
654.54	875.24
654.88	868.25
655.22	861.05
655.56	854.18
655.90	847.42
656.25	840.77
656.59	833.74
656.93	826.78
657.27	819.70
657.61	812.93
657.95	806.81
658.29	801.04
658.64	794.82
658.98	788.40
659.32	781.82
659.66	775.60
660.00	769.33
660.34	763.31
660.68	757.16
661.02	750.94
661.36	745.15
661.70	739.50
662.05	733.75
662.39	728.30
662.73	722.99
663.07	717.67
663.41	712.07
663.75	706.57
664.09	701.03
664.43	695.60
664.77	690.20
665.11	684.37
665.45	678.43
665.79	672.69
666.13	667.04
666.47	661.61
666.81	656.22
667.15	650.86
667.49	645.74
667.83	640.58
668.17	635.36
668.51	630.24
668.85	625.35
669.19	620.53
669.53	615.67
669.87	610.61
670.21	605.86
670.55	601.14
670.89	596.72
671.23	592.34
671.57	588.15
671.91	583.89
672.25	579.87
672.58	575.78
672.92	571.79
673.26	567.94
673.60	564.16
673.94	560.41
674.28	556.79
674.62	553.00
674.96	549.36
675.30	545.91
675.64	542.32
675.97	538.80
676.31	535.27
676.65	531.64
676.99	528.18
677.33	524.40
677.67	520.84
678.01	517.03
678.34	513.49
678.68	509.95
679.02	506.35
679.36	502.73
679.70	499.17
680.04	495.72
680.37	492.37
680.71	489.13
681.05	485.93
681.39	482.83
681.73	479.79
682.06	476.79
682.40	473.70
682.74	470.53
683.08	467.40
683.42	464.29
683.75	461.44
684.09	458.51
684.43	455.77
684.77	452.92
685.10	450.16
685.44	447.26
685.78	444.37
686.12	441.73
686.45	439.04
686.79	436.40
687.13	433.90
687.46	431.27
687.80	428.61
688.14	425.84
688.48	423.24
688.81	420.58
689.15	418.01
689.49	415.47
689.82	413.02
690.16	410.45
690.50	408.00
690.83	405.41
691.17	402.89
691.51	400.47
691.84	398.27
692.18	396.13
692.52	393.98
692.85	391.92
693.19	389.77
693.52	387.67
693.86	385.54
694.20	383.41
694.53	381.36
694.87	379.22
695.21	377.18
695.54	375.03
695.88	372.95
696.21	370.79
696.55	368.73
696.88	366.71
697.22	364.78
697.56	362.97
697.89	361.20
698.23	359.56
698.56	357.86
698.90	356.06
699.23	354.12
699.57	352.26
699.90	350.44
700.24	348.72
700.58	346.99
700.91	345.37
701.25	343.79
701.58	342.22
701.92	340.68
702.25	339.12
702.59	337.57
702.92	336.11
703.26	334.63
703.59	333.21
703.93	331.97
704.26	330.56
704.60	329.05
704.93	327.61
705.26	326.12
705.60	324.67
705.93	323.21
706.27	321.96
706.60	320.78
706.94	319.58
707.27	318.19
707.61	316.87
707.94	315.54
708.27	314.07
708.61	312.70
708.94	311.39
709.28	310.13
709.61	308.94
709.94	307.74
710.28	306.59
710.61	305.44
710.95	304.05
711.28	302.99
711.61	301.89
711.95	300.83
712.28	299.64
712.61	298.51
712.95	297.55
713.28	296.59
713.61	295.46
713.95	294.33
714.28	293.36
714.61	292.36
714.95	291.38
715.28	290.37
715.61	289.36
715.95	288.44
716.28	287.51
716.61	286.53
716.95	285.57
717.28	284.65
717.61	283.76
717.94	282.94
718.28	281.98
718.61	281.08
718.94	280.20
719.27	279.42
719.61	278.61
719.94	277.72
720.27	276.74
720.60	275.92
720.94	275.19
721.27	274.48
721.60	273.79
721.93	273.09
722.27	272.48
722.60	271.83
722.93	271.14
723.26	270.51
723.59	269.86
723.93	269.24
724.26	268.61
724.59	267.92
724.92	267.31
725.25	266.77
725.59	266.26
725.92	265.72
726.25	265.17
726.58	264.61
726.91	264.05
727.24	263.52
727.57	263.02
727.91	262.36
728.24	261.84
728.57	261.25
728.90	260.74
729.23	260.14
729.56	259.73
729.89	259.21
730.22	258.65
730.55	258.14
730.89	257.60
731.22	257.07
731.55	256.59
731.88	256.07
732.21	255.52
732.54	254.96
732.87	254.45
733.20	253.97
733.53	253.49
733.86	253.07
734.19	252.59
734.52	252.18
734.85	251.90
735.18	251.42
735.51	251.07
735.84	250.64
736.17	250.30
736.50	249.78
736.83	249.59
737.16	249.22
737.49	248.86
737.82	248.47
738.15	248.16
738.48	247.79
738.81	247.42
739.14	247.00
739.47	246.66
739.80	246.29
740.13	245.95
740.46	245.58
740.79	245.18
741.12	244.85
741.45	244.45
741.78	244.04
742.11	243.75
742.44	243.35
742.77	243.07
743.10	242.72
743.43	242.39
743.75	241.86
744.08	241.80
744.41	241.44
744.74	241.12
745.07	240.73
745.40	240.46
745.73	240.24
746.06	239.98
746.39	239.67
746.71	239.36
747.04	239.05
747.37	238.73
747.70	238.49
748.03	238.19
748.36	237.96
748.68	237.67
749.01	237.33
749.34	237.06
749.67	236.77
750.00	236.52
750.33	236.38
750.65	236.12
750.98	235.60
751.31	235.34
751.64	235.13
751.97	234.97
752.29	234.71
752.62	234.34
752.95	234.12
753.28	233.88
753.60	233.62
753.93	233.43
754.26	233.23
754.59	232.95
754.91	232.73
755.24	232.48
755.57	232.27
755.90	232.08
756.22	231.82
756.55	231.58
756.88	231.32
757.20	230.97
757.53	230.73
757.86	230.57
758.19	230.41
758.51	230.21
758.84	229.95
759.17	229.75
759.49	229.59
759.82	229.49
760.15	229.32
760.47	229.15
760.80	228.92
761.13	228.76
761.45	228.56
761.78	228.40
762.11	228.25
762.43	228.01
762.76	227.81
763.08	227.71
763.41	227.54
763.74	227.41
764.06	227.27
764.39	227.11
764.71	226.93
765.04	226.74
765.37	226.58
765.69	226.43
766.02	226.28
766.34	226.13
766.67	225.93
767.00	225.85
767.32	225.87
767.65	225.88
767.97	225.75
768.30	225.68
768.62	225.53
768.95	225.39
769.27	225.32
769.60	225.24
769.92	225.09
770.25	224.97
770.57	224.82
770.90	224.71
771.22	224.60
771.55	224.49
771.87	224.40
772.20	224.27
772.52	224.34
772.85	224.47
773.17	224.37
773.50	224.25
773.82	224.08
774.15	223.85
774.47	223.63
774.80	223.47
775.12	223.36
775.45	223.28
775.77	223.20
776.09	223.12
776.42	223.03
776.74	223.01
777.07	222.90
777.39	222.83
777.72	222.70
778.04	222.65
778.36	222.58
778.69	222.49
779.01	222.43
779.33	222.17
779.66	221.89
779.98	221.81
780.31	221.75
780.63	221.79
780.95	221.76
781.28	221.66
781.60	221.64
781.92	221.58
782.25	221.53
782.57	221.45
782.89	221.35
783.22	221.28
783.54	221.12
783.86	221.11
784.19	221.03
784.51	221.04
784.83	220.95
785.16	220.87
785.48	220.84
785.80	220.80
786.12	220.79
786.45	220.70
786.77	220.63
787.09	220.56
787.42	220.41
787.74	220.37
788.06	220.34
788.38	220.28
788.71	220.23
789.03	220.14
789.35	220.11
789.67	220.05
789.99	219.98
790.32	219.96
790.64	219.90
790.96	220.01
791.28	219.92
791.61	219.84
791.93	219.84
792.25	219.80
792.57	219.88
792.89	219.77
793.21	219.73
793.54	219.70
793.86	219.62
794.18	219.59
794.50	219.50
794.82	219.46
795.14	219.42
795.47	219.40
795.79	219.39
796.11	219.32
796.43	219.29
796.75	219.29
797.07	219.27
797.39	219.20
797.71	219.03
798.04	219.03
798.36	219.05
798.68	218.98
799.00	218.94
799.32	218.80
799.64	218.82
799.96	218.81
800.28	218.81
800.60	218.79
800.92	218.77
801.24	218.74
801.56	218.71
801.89	218.68
802.21	218.64
802.53	218.58
802.85	218.60
803.17	218.67
803.49	218.58
803.81	218.52
804.13	218.53
804.45	218.50
804.77	218.46
805.09	218.41
805.41	218.36
805.73	218.29
806.05	218.22
806.37	218.13
806.69	218.09
807.01	218.05
807.33	218.05
807.65	217.97
807.97	218.06
808.28	218.02
808.60	217.97
808.92	217.94
809.24	218.05
809.56	217.95
809.88	217.82
810.20	217.82
810.52	217.85
810.84	217.77
811.16	217.75
811.48	217.68
811.80	217.77
812.12	217.74
812.43	217.76
812.75	217.76
813.07	217.77
813.39	217.74
813.71	217.66
814.03	217.62
814.35	217.63
814.67	217.49
814.98	217.46
815.30	217.42
815.62	217.38
815.94	217.25
816.26	217.26
816.58	217.22
816.89	217.22
817.21	217.15
817.53	217.17
817.85	217.11
818.17	217.11
818.48	216.98
818.80	217.02
819.12	216.96
819.44	216.90
819.76	216.88
820.07	216.85
820.39	216.86
820.71	216.86
821.03	216.81
821.34	216.80
821.66	216.83
821.98	216.84
822.30	216.84
822.61	216.91
822.93	216.87
823.25	216.87
823.57	216.82
823.88	216.86
824.20	216.80
824.52	216.84
824.83	216.82
825.15	216.77
825.47	216.73
825.79	216.76
826.10	216.74
826.42	216.70
826.74	216.73
827.05	216.72
827.37	216.71
827.69	216.70
828.00	216.69
828.32	216.66
828.64	216.63
828.95	216.71
829.27	216.64
829.58	216.61
829.90	216.61
830.22	216.63
830.53	216.55
830.85	216.56
831.17	216.49
831.48	216.48
831.80	216.50
832.11	216.49
832.43	216.45
832.75	216.42
833.06	216.53
833.38	216.46
833.69	216.40
834.01	216.38
834.32	216.35
834.64	216.31
834.96	216.29
835.27	216.29
835.59	216.23
835.90	216.18
836.22	216.17
836.53	216.15
836.85	216.11
837.16	216.31
837.48	216.29
837.79	216.35
838.11	216.37
838.42	216.33
838.74	216.33
839.05	216.31
839.37	216.30
839.68	216.15
840.00	216.14
840.31	216.18
840.63	216.16
840.94	216.12
841.26	216.07
841.57	216.08
841.88	216.10
842.20	216.03
842.51	216.03
842.83	216.05
843.14	216.20
843.46	216.18
843.77	216.05
844.08	216.03
844.40	215.94
844.71	215.91
845.03	215.90
845.34	215.89
845.65	215.86
845.97	215.87
846.28	215.93
846.60	215.95
846.91	215.92
847.22	215.91
847.54	215.95
847.85	215.97
848.16	215.94
848.48	215.86
848.79	215.95
849.10	215.96
849.42	215.96
849.73	215.76
850.04	215.75
850.36	215.68
850.67	215.71
850.98	215.73
851.30	215.76
851.61	215.75
851.92	215.72
852.23	215.77
852.55	215.71
852.86	215.69
853.17	215.68
853.49	215.72
853.80	215.75
854.11	215.78
854.42	215.83
854.74	215.79
855.05	215.79
855.36	215.71
855.67	215.71
855.99	215.67
856.30	215.91
856.61	215.95
856.92	215.96
857.23	215.96
857.55	215.96
857.86	215.91
858.17	215.95
858.48	215.92
858.79	215.90
859.11	215.96
859.42	215.97
859.73	215.93
860.04	215.90
860.35	215.85
860.66	215.77
860.98	215.76
861.29	215.81
861.60	215.83
861.91	215.87
862.22	215.84
862.53	215.84
862.84	215.61
863.16	215.63
863.47	215.57
863.78	215.55
864.09	215.54
864.40	215.53
864.71	215.56
865.02	215.59
865.33	215.53
865.64	215.49
865.95	215.45
866.27	215.62
866.58	215.58
866.89	215.59
867.20	215.61
867.51	215.59
867.82	215.57
868.13	215.62
868.44	215.56
868.75	215.58
869.06	215.58
869.37	215.60
869.68	215.53
869.99	215.58
870.30	215.58
870.61	215.57
870.92	215.54
871.23	215.50
871.54	215.53
871.85	215.61
872.16	215.65
872.47	215.65
872.78	215.48
873.09	215.55
873.40	215.56
873.71	215.57
874.02	215.55
874.33	215.53
874.64	215.47
874.95	215.50
875.26	215.47
875.56	215.47
875.87	215.48
876.18	215.48
876.49	215.66
876.80	215.66
877.11	215.68
877.42	215.70
877.73	215.73
878.04	215.71
878.35	215.71
878.66	215.70
878.96	215.70
879.27	215.74
879.58	215.70
879.89	215.64
880.20	215.70
880.51	215.67
880.82	215.66
881.12	215.69
881.43	215.64
881.74	215.61
882.05	215.58
882.36	215.56
882.67	215.59
882.97	215.37
883.28	215.34
883.59	215.31
883.90	215.33
884.21	215.36
884.51	215.36
884.82	215.33
885.13	215.32
885.44	215.33
885.74	215.31
886.05	215.32
886.36	215.33
886.67	215.25
886.98	215.35
887.28	215.37
887.59	215.38
887.90	215.38
888.20	215.37
888.51	215.42
888.82	215.39
889.13	215.38
889.43	215.56
889.74	215.56
890.05	215.54
890.35	215.52
890.66	215.45
890.97	215.40
891.28	215.35
891.58	215.36
891.89	215.34
892.20	215.31
892.50	215.27
892.81	215.26
893.12	215.27
893.42	215.21
893.73	215.18
894.04	215.15
894.34	215.19
894.65	215.21
894.95	215.22
895.26	215.23
895.57	215.32
895.87	215.10
896.18	215.14
896.48	215.20
896.79	215.20
897.10	215.21
897.40	215.22
897.71	215.24
898.01	215.20
898.32	215.23
898.63	215.23
898.93	215.26
899.24	215.26
899.54	215.28
899.85	215.25
900.15	215.28
900.46	215.30
900.76	215.32
901.07	215.29
901.38	215.24
901.68	215.32
901.99	215.20
902.29	215.23
902.60	215.19
902.90	215.13
903.21	215.13
903.51	215.14
903.82	215.19
904.12	215.23
904.43	215.24
904.73	215.22
905.03	215.25
905.34	215.44
905.64	215.44
905.95	215.41
906.25	215.41
906.56	215.39
906.86	215.37
907.17	215.34
907.47	215.36
907.77	215.36
908.08	215.29
908.38	215.33
908.69	215.37
908.99	215.42
909.30	215.44
909.60	215.44
909.90	215.43
910.21	215.35
910.51	215.30
910.81	215.32
911.12	215.35
911.42	215.33
911.73	215.11
912.03	215.11
912.33	215.18
912.64	215.17
912.94	215.13
913.24	215.12
913.55	215.11
913.85	215.11
914.15	215.12
914.46	215.14
914.76	215.10
915.06	215.07
915.37	215.02
915.67	215.00
915.97	214.99
916.27	214.97
916.58	215.00
916.88	215.02
917.18	215.01
917.49	215.13
917.79	215.12
918.09	215.14
918.39	215.20
918.70	215.17
919.00	215.18
919.30	215.29
919.60	215.29
919.91	215.22
920.21	215.23
920.51	215.23
920.81	215.19
921.12	215.23
921.42	215.25
921.72	215.26
922.02	215.25
922.32	215.31
922.63	215.29
922.93	215.37
923.23	215.36
923.53	215.33
923.83	215.19
924.13	215.21
924.44	215.22
924.74	215.24
925.04	215.28
925.34	215.25
925.64	215.14
925.94	215.12
926.24	215.31
926.55	215.23
926.85	215.27
927.15	215.28
927.45	215.26
927.75	215.27
928.05	215.27
928.35	215.30
928.65	215.31
928.95	215.34
929.26	215.29
929.56	215.32
929.86	215.36
930.16	215.35
930.46	215.31
930.76	215.34
931.06	215.22
931.36	215.17
931.66	215.22
931.96	215.27
932.26	215.29
932.56	215.20
932.86	215.23
933.16	215.17
933.46	215.19
933.76	215.15
934.06	215.18
934.36	215.26
934.66	215.25
934.96	215.24
935.26	215.27
935.56	215.27
935.86	215.21
936.16	215.16
936.46	215.16
936.76	215.18
937.06	215.18
937.36	215.22
937.66	215.25
937.96	215.25
938.26	215.24
938.56	215.23
938.86	215.23
939.16	215.29
939.46	215.33
939.76	215.32
940.06	215.38
940.35	215.31
940.65	215.22
940.95	215.25
941.25	215.17
941.55	215.15
941.85	215.16
942.15	215.23
942.45	215.29
942.75	215.29
943.04	215.28
943.34	215.27
943.64	215.25
943.94	215.22
944.24	215.20
944.54	215.19
944.84	215.19
945.13	215.15
945.43	215.11
945.73	215.09
946.03	215.06
946.33	215.02
946.62	215.01
946.92	214.99
947.22	214.97
947.52	214.98
947.82	214.99
948.11	214.96
948.41	214.92
948.71	214.86
949.01	214.84
949.31	214.81
949.60	214.79
949.90	214.81
950.20	214.78
950.50	214.80
950.79	214.75
951.09	214.75
951.39	214.77
951.69	214.74
951.98	214.79
952.28	214.81
952.58	214.79
952.87	214.82
953.17	214.85
953.47	214.82
953.76	214.82
954.06	214.80
954.36	214.78
954.66	214.76
954.95	214.80
955.25	214.83
955.55	214.85
955.84	214.82
956.14	214.84
956.44	214.88
956.73	214.82
957.03	214.84
957.32	214.83
957.62	214.80
957.92	214.85
958.21	214.84
958.51	215.07
958.81	215.10
959.10	215.09
959.40	215.14
959.69	215.16
959.99	215.19
960.29	215.19
960.58	215.17
960.88	215.28
961.17	215.26
961.47	215.30
961.76	215.28
962.06	215.34
962.36	215.32
962.65	215.31
962.95	215.33
963.24	215.31
963.54	215.34
963.83	215.35
964.13	215.33
964.42	215.27
964.72	215.08
965.01	215.06
965.31	215.03
965.60	214.98
965.90	215.13
966.19	215.08
966.49	215.10
966.78	215.11
967.08	215.07
967.37	215.07
967.67	215.01
967.96	215.05
968.26	215.04
968.55	215.08
968.85	215.07
969.14	215.06
969.43	215.08
969.73	215.06
970.02	215.05
970.32	215.04
970.61	215.04
970.91	214.97
971.20	214.96
971.49	214.98
971.79	215.00
972.08	214.82
972.38	214.82
972.67	214.79
972.96	214.82
973.26	214.78
973.55	214.84
973.85	214.81
974.14	214.81
974.43	214.83
974.73	214.78
975.02	214.78
975.31	214.80
975.61	214.82
975.90	214.77
976.19	214.76
976.49	214.78
976.78	214.80
977.07	214.83
977.37	214.83
977.66	214.83
977.95	214.78
978.24	214.80
978.54	214.86
978.83	214.82
979.12	214.80
979.42	214.81
979.71	214.74
980.00	214.77
980.29	214.75
980.59	214.70
980.88	214.76
981.17	214.76
981.46	214.74
981.76	214.73
982.05	214.82
982.34	214.81
982.63	214.82
982.93	214.81
983.22	214.86
983.51	214.86
983.80	214.88
984.09	214.94
984.39	214.93
984.68	214.88
984.97	214.93
985.26	214.92
985.55	214.93
985.85	214.93
986.14	214.94
986.43	214.98
986.72	214.98
987.01	214.88
987.30	214.87
987.59	214.86
987.89	214.83
988.18	214.79
988.47	214.80
988.76	214.75
989.05	214.73
989.34	214.69
989.63	214.75
989.92	214.74
990.22	214.69
990.51	214.69
990.80	214.70
991.09	214.71
991.38	214.74
991.67	214.71
991.96	214.69
992.25	214.68
992.54	214.65
992.83	214.65
993.12	214.66
993.41	214.69
993.70	214.76
993.99	214.81
994.28	214.82
994.58	214.83
994.87	214.82
995.16	214.86
995.45	214.84
995.74	214.77
996.03	214.77
996.32	214.80
996.61	214.84
996.90	214.82
997.19	214.81
997.48	214.80
997.77	214.77
998.06	214.78
998.34	214.80
998.63	214.77
998.92	214.78
999.21	214.80
999.50	214.80
999.79	214.77
1000.08	214.78
1000.37	214.79
1000.66	214.79
1000.95	214.85
1001.24	214.84
1001.53	214.85
1001.82	214.84
1002.11	214.80
1002.40	214.80
1002.68	214.86
1002.97	215.04
1003.26	215.01
1003.55	214.99
1003.84	215.03
1004.13	215.09
1004.42	215.06
1004.71	215.08
1004.99	215.05
1005.28	215.11
1005.57	215.09
1005.86	215.04
1006.15	215.02
1006.44	214.94
1006.72	214.96
1007.01	214.93
1007.30	214.93
1007.59	214.96
1007.88	214.96
1008.17	215.00
1008.45	214.97
1008.74	214.88
1009.03	214.76
1009.32	214.77
1009.60	214.75
1009.89	214.73
1010.18	214.63
1010.47	214.60
1010.76	214.59
1011.04	214.62
1011.33	214.61
1011.62	214.64
1011.91	214.69
1012.19	214.71
1012.48	214.73
1012.77	214.73
1013.05	214.83
1013.34	214.79
1013.63	214.76
1013.92	214.78
1014.20	214.73
1014.49	214.74
1014.78	214.74
1015.06	214.64
1015.35	214.62
1015.64	214.65
1015.92	214.68
1016.21	214.72
1016.50	214.75
1016.78	214.78
1017.07	214.78
1017.36	214.75
1017.64	214.70
1017.93	214.66
1018.22	214.60
1018.50	214.59
1018.79	214.56
1019.08	214.44
1019.36	214.49
1019.65	214.46
1019.93	214.51
1020.22	214.55
1020.51	214.64
1020.79	214.66
1021.08	213.86
1021.36	213.74
1021.65	214.34
1021.94	214.46
1022.22	214.83
1022.51	214.34
1022.79	215.52
1023.08	214.89
1023.36	216.90
1023.65	214.85
>>>>>End Processed Spectral Data<<<<<
