SpectraSuite Data File
++++++++++++++++++++++++++++++++++++
Date: Tue Jan 29 16:51:13 EST 2013
User: group
Dark Spectrum Present: No
Reference Spectrum Present: No
Number of Sampled Component Spectra: 1
Spectrometers: USB2E7196
Integration Time (usec): 65000 (USB2E7196)
Spectra Averaged: 100 (USB2E7196)
Boxcar Smoothing: 10 (USB2E7196)
Correct for Electrical Dark: No (USB2E7196)
Strobe/Lamp Enabled: No (USB2E7196)
Correct for Detector Non-linearity: No (USB2E7196)
Correct for Stray Light: No (USB2E7196)
Number of Pixels in Processed Spectrum: 2048
>>>>>Begin Processed Spectral Data<<<<<
339.09	0.00
339.48	201.26
339.86	202.91
340.24	204.38
340.63	205.63
341.01	210.67
341.39	208.00
341.78	210.18
342.16	211.64
342.54	211.94
342.93	200.87
343.31	211.04
343.69	211.60
344.07	212.07
344.46	212.50
344.84	212.92
345.22	213.08
345.60	213.38
345.99	213.61
346.37	213.74
346.75	213.84
347.13	213.94
347.52	214.00
347.90	214.13
348.28	214.14
348.66	214.23
349.05	214.19
349.43	214.24
349.81	214.26
350.19	214.32
350.57	214.39
350.96	214.48
351.34	214.55
351.72	214.63
352.10	214.76
352.48	214.84
352.87	214.89
353.25	214.94
353.63	214.98
354.01	214.99
354.39	215.02
354.77	215.09
355.15	215.18
355.54	215.23
355.92	215.22
356.30	215.31
356.68	215.50
357.06	215.53
357.44	215.56
357.82	215.61
358.20	215.68
358.58	215.71
358.97	215.76
359.35	215.88
359.73	215.98
360.11	215.98
360.49	216.01
360.87	216.01
361.25	216.07
361.63	216.17
362.01	216.20
362.39	216.26
362.77	216.30
363.15	216.33
363.53	216.36
363.91	216.37
364.29	216.40
364.67	216.20
365.05	216.23
365.43	216.26
365.81	216.30
366.19	216.40
366.57	216.47
366.95	216.47
367.33	216.42
367.71	216.39
368.09	216.46
368.47	216.47
368.85	216.48
369.23	216.52
369.61	216.46
369.99	216.53
370.37	216.55
370.75	216.64
371.13	216.56
371.51	216.53
371.89	216.54
372.27	216.51
372.65	216.51
373.03	216.50
373.41	216.45
373.78	216.44
374.16	216.28
374.54	216.19
374.92	216.15
375.30	216.11
375.68	216.05
376.06	216.00
376.44	215.95
376.82	215.97
377.19	215.92
377.57	215.86
377.95	215.75
378.33	215.66
378.71	215.49
379.09	215.52
379.47	215.51
379.84	215.46
380.22	215.39
380.60	215.33
380.98	215.30
381.36	215.25
381.73	215.18
382.11	215.20
382.49	215.16
382.87	215.10
383.25	215.04
383.62	215.25
384.00	215.20
384.38	215.18
384.76	215.18
385.13	215.21
385.51	215.21
385.89	215.18
386.27	215.19
386.64	215.21
387.02	215.16
387.40	215.12
387.78	215.09
388.15	215.09
388.53	215.10
388.91	215.09
389.29	215.08
389.66	215.07
390.04	215.04
390.42	215.09
390.79	215.11
391.17	215.10
391.55	214.86
391.92	214.84
392.30	214.84
392.68	214.78
393.05	214.75
393.43	214.72
393.81	214.74
394.18	214.70
394.56	214.67
394.94	214.71
395.31	214.70
395.69	214.75
396.06	214.79
396.44	214.80
396.82	214.75
397.19	214.91
397.57	214.93
397.95	214.99
398.32	214.95
398.70	214.99
399.07	215.07
399.45	215.10
399.82	215.17
400.20	215.21
400.58	215.25
400.95	215.25
401.33	215.36
401.70	215.56
402.08	215.65
402.45	215.75
402.83	215.88
403.20	216.03
403.58	216.10
403.95	216.27
404.33	216.42
404.71	216.59
405.08	216.82
405.46	217.01
405.83	217.18
406.21	217.42
406.58	217.67
406.96	217.92
407.33	218.18
407.70	218.45
408.08	218.93
408.45	219.28
408.83	219.66
409.20	220.02
409.58	220.31
409.95	220.76
410.33	221.28
410.70	221.70
411.08	222.25
411.45	222.84
411.82	223.42
412.20	224.10
412.57	224.95
412.95	225.51
413.32	226.35
413.69	227.18
414.07	228.04
414.44	229.04
414.82	230.05
415.19	231.28
415.56	232.48
415.94	233.66
416.31	235.09
416.68	236.52
417.06	238.13
417.43	239.69
417.81	241.45
418.18	243.21
418.55	245.17
418.93	247.17
419.30	249.30
419.67	251.50
420.04	253.80
420.42	256.20
420.79	259.06
421.16	261.86
421.54	264.76
421.91	267.79
422.28	270.89
422.66	274.20
423.03	277.43
423.40	280.85
423.77	284.46
424.15	288.16
424.52	292.04
424.89	296.27
425.26	300.36
425.64	304.29
426.01	308.60
426.38	313.10
426.75	317.73
427.13	322.46
427.50	327.51
427.87	332.75
428.24	337.98
428.61	342.98
428.99	348.50
429.36	354.56
429.73	360.47
430.10	366.36
430.47	372.46
430.85	378.78
431.22	385.47
431.59	392.62
431.96	399.44
432.33	407.00
432.70	414.26
433.08	422.79
433.45	430.87
433.82	438.94
434.19	447.83
434.56	456.52
434.93	464.88
435.30	473.18
435.68	482.36
436.05	491.37
436.42	500.28
436.79	508.52
437.16	517.33
437.53	526.64
437.90	535.88
438.27	544.92
438.64	554.20
439.01	562.82
439.38	570.44
439.75	577.82
440.13	586.26
440.50	594.28
440.87	600.82
441.24	607.54
441.61	614.94
441.98	620.37
442.35	626.76
442.72	633.15
443.09	639.28
443.46	643.04
443.83	645.60
444.20	647.91
444.57	651.11
444.94	652.63
445.31	654.18
445.68	655.57
446.05	656.17
446.42	655.44
446.79	654.53
447.16	653.52
447.53	652.74
447.90	649.35
448.27	646.04
448.64	641.33
449.01	638.03
449.37	632.13
449.74	626.43
450.11	619.47
450.48	612.08
450.85	604.55
451.22	598.03
451.59	591.91
451.96	586.00
452.33	578.13
452.70	570.92
453.07	562.30
453.43	553.69
453.80	545.36
454.17	537.28
454.54	529.64
454.91	521.32
455.28	513.34
455.65	505.93
456.02	498.36
456.38	491.95
456.75	483.96
457.12	477.30
457.49	470.75
457.86	464.54
458.23	459.09
458.59	453.13
458.96	447.07
459.33	441.69
459.70	436.24
460.07	431.90
460.43	426.98
460.80	422.36
461.17	418.29
461.54	414.12
461.91	410.10
462.27	405.96
462.64	402.53
463.01	398.65
463.38	394.96
463.74	391.27
464.11	388.02
464.48	385.21
464.85	382.12
465.21	379.68
465.58	377.07
465.95	373.90
466.32	371.21
466.68	368.63
467.05	365.98
467.42	363.44
467.78	360.73
468.15	358.17
468.52	356.27
468.88	353.79
469.25	351.47
469.62	349.65
469.98	347.67
470.35	345.83
470.72	344.16
471.08	342.28
471.45	340.71
471.82	339.16
472.18	337.44
472.55	336.16
472.92	334.78
473.28	333.56
473.65	332.40
474.02	331.34
474.38	330.41
474.75	329.65
475.11	328.83
475.48	328.23
475.85	327.79
476.21	327.30
476.58	326.91
476.94	326.65
477.31	326.33
477.67	326.05
478.04	325.89
478.41	325.85
478.77	326.04
479.14	326.03
479.50	326.14
479.87	326.44
480.23	326.77
480.60	326.98
480.96	327.24
481.33	327.80
481.69	328.34
482.06	328.85
482.42	329.32
482.79	329.88
483.15	330.65
483.52	331.55
483.88	332.44
484.25	333.38
484.61	334.40
484.98	335.50
485.34	336.81
485.71	338.18
486.07	339.59
486.44	340.87
486.80	342.48
487.17	344.16
487.53	345.97
487.90	347.84
488.26	349.90
488.62	352.08
488.99	354.17
489.35	356.36
489.72	358.76
490.08	361.34
490.44	363.94
490.81	366.61
491.17	369.31
491.54	372.27
491.90	375.32
492.26	378.58
492.63	381.93
492.99	385.44
493.36	389.11
493.72	392.97
494.08	396.98
494.45	401.20
494.81	405.56
495.17	410.00
495.54	414.72
495.90	419.48
496.26	424.37
496.63	429.55
496.99	434.90
497.35	440.47
497.72	446.25
498.08	452.14
498.44	458.33
498.80	464.82
499.17	471.33
499.53	478.00
499.89	484.89
500.26	491.86
500.62	498.90
500.98	506.30
501.34	513.77
501.71	521.57
502.07	529.36
502.43	537.39
502.79	545.52
503.16	553.89
503.52	562.47
503.88	571.16
504.24	580.08
504.60	589.15
504.97	598.37
505.33	607.64
505.69	617.45
506.05	627.23
506.41	637.02
506.78	647.07
507.14	657.27
507.50	667.68
507.86	678.29
508.22	689.04
508.59	699.61
508.95	710.61
509.31	721.85
509.67	733.31
510.03	744.66
510.39	756.39
510.75	768.14
511.12	780.11
511.48	792.21
511.84	804.45
512.20	816.75
512.56	829.30
512.92	842.01
513.28	854.68
513.64	867.47
514.00	880.34
514.37	893.19
514.73	906.35
515.09	919.33
515.45	932.19
515.81	945.28
516.17	958.77
516.53	972.07
516.89	985.14
517.25	998.26
517.61	1011.87
517.97	1025.25
518.33	1038.44
518.69	1051.90
519.05	1065.69
519.41	1079.39
519.77	1093.19
520.13	1106.51
520.49	1119.68
520.85	1133.18
521.21	1146.53
521.57	1160.24
521.93	1173.31
522.29	1186.98
522.65	1200.67
523.01	1214.39
523.37	1227.61
523.73	1240.90
524.09	1254.11
524.45	1267.63
524.81	1281.17
525.17	1294.46
525.53	1307.76
525.89	1321.15
526.25	1334.36
526.61	1347.26
526.97	1360.37
527.33	1373.48
527.68	1387.06
528.04	1400.71
528.40	1413.80
528.76	1427.15
529.12	1440.11
529.48	1453.56
529.84	1465.84
530.20	1478.59
530.56	1491.20
530.91	1504.44
531.27	1517.38
531.63	1530.14
531.99	1542.82
532.35	1555.17
532.71	1567.57
533.07	1580.55
533.42	1592.89
533.78	1605.01
534.14	1617.03
534.50	1628.43
534.86	1640.10
535.21	1650.99
535.57	1662.54
535.93	1673.80
536.29	1685.00
536.65	1696.52
537.00	1707.62
537.36	1719.30
537.72	1730.45
538.08	1741.94
538.44	1753.09
538.79	1764.28
539.15	1775.40
539.51	1786.44
539.87	1797.76
540.22	1808.81
540.58	1819.88
540.94	1830.90
541.29	1841.28
541.65	1851.23
542.01	1861.70
542.37	1871.81
542.72	1882.12
543.08	1891.89
543.44	1902.45
543.79	1911.83
544.15	1921.34
544.51	1931.36
544.87	1941.17
545.22	1950.44
545.58	1959.45
545.94	1968.28
546.29	1976.88
546.65	1985.13
547.01	1993.24
547.36	2001.03
547.72	2008.78
548.07	2016.25
548.43	2023.97
548.79	2031.93
549.14	2040.14
549.50	2048.64
549.86	2056.58
550.21	2063.98
550.57	2071.70
550.92	2078.58
551.28	2086.02
551.64	2093.23
551.99	2100.69
552.35	2107.85
552.70	2114.85
553.06	2121.62
553.41	2128.12
553.77	2134.64
554.13	2141.20
554.48	2148.20
554.84	2155.33
555.19	2161.93
555.55	2168.42
555.90	2174.73
556.26	2181.59
556.61	2187.67
556.97	2192.51
557.32	2198.28
557.68	2204.77
558.03	2210.55
558.39	2215.95
558.74	2221.86
559.10	2227.42
559.45	2232.98
559.81	2238.51
560.16	2243.92
560.52	2249.61
560.87	2255.85
561.23	2261.68
561.58	2268.29
561.94	2273.61
562.29	2278.15
562.64	2284.09
563.00	2289.65
563.35	2295.00
563.71	2300.60
564.06	2306.27
564.42	2312.16
564.77	2317.26
565.12	2322.39
565.48	2327.40
565.83	2332.80
566.19	2338.23
566.54	2343.45
566.89	2347.87
567.25	2352.38
567.60	2357.84
567.96	2362.90
568.31	2367.28
568.66	2371.46
569.02	2375.21
569.37	2378.82
569.72	2383.13
570.08	2386.46
570.43	2389.50
570.78	2392.65
571.14	2394.89
571.49	2397.73
571.84	2401.11
572.20	2403.96
572.55	2406.71
572.90	2409.07
573.26	2411.63
573.61	2413.97
573.96	2416.06
574.31	2418.13
574.67	2419.84
575.02	2420.64
575.37	2422.00
575.72	2422.49
576.08	2423.87
576.43	2423.85
576.78	2424.29
577.13	2425.79
577.49	2426.82
577.84	2427.63
578.19	2428.82
578.54	2429.45
578.90	2429.99
579.25	2429.66
579.60	2429.21
579.95	2428.33
580.30	2428.08
580.66	2427.31
581.01	2425.35
581.36	2422.59
581.71	2420.99
582.06	2419.66
582.42	2418.63
582.77	2416.10
583.12	2414.47
583.47	2412.62
583.82	2411.91
584.17	2410.38
584.53	2408.07
584.88	2405.78
585.23	2403.68
585.58	2401.11
585.93	2398.91
586.28	2396.54
586.63	2393.97
586.98	2391.66
587.34	2389.50
587.69	2386.82
588.04	2384.49
588.39	2383.05
588.74	2380.55
589.09	2377.63
589.44	2374.37
589.79	2371.49
590.14	2369.44
590.49	2366.43
590.84	2362.63
591.19	2359.15
591.54	2355.70
591.89	2351.50
592.25	2348.01
592.60	2343.65
592.95	2339.33
593.30	2334.98
593.65	2330.41
594.00	2325.88
594.35	2322.65
594.70	2317.84
595.05	2313.41
595.40	2307.87
595.75	2301.86
596.10	2298.25
596.45	2293.26
596.80	2288.53
597.15	2283.38
597.50	2277.45
597.85	2272.29
598.19	2267.04
598.54	2261.37
598.89	2256.11
599.24	2251.45
599.59	2245.35
599.94	2239.43
600.29	2233.54
600.64	2227.53
600.99	2220.75
601.34	2215.26
601.69	2208.28
602.04	2202.06
602.39	2195.20
602.74	2189.12
603.08	2183.58
603.43	2176.89
603.78	2169.89
604.13	2162.80
604.48	2155.61
604.83	2149.42
605.18	2143.44
605.53	2136.54
605.87	2129.35
606.22	2122.48
606.57	2114.45
606.92	2106.55
607.27	2099.68
607.62	2092.94
607.96	2086.01
608.31	2079.71
608.66	2071.96
609.01	2064.33
609.36	2057.12
609.70	2049.47
610.05	2041.55
610.40	2033.31
610.75	2025.08
611.10	2017.41
611.44	2008.45
611.79	1999.72
612.14	1989.76
612.49	1978.93
612.83	1969.52
613.18	1960.22
613.53	1950.92
613.88	1941.51
614.22	1932.89
614.57	1923.18
614.92	1912.70
615.27	1902.42
615.61	1892.14
615.96	1882.41
616.31	1872.89
616.65	1863.49
617.00	1853.86
617.35	1844.29
617.70	1834.61
618.04	1824.65
618.39	1814.58
618.74	1805.03
619.08	1795.38
619.43	1786.83
619.78	1778.61
620.12	1770.16
620.47	1760.75
620.82	1750.48
621.16	1740.80
621.51	1731.01
621.85	1721.25
622.20	1710.97
622.55	1700.61
622.89	1690.79
623.24	1681.18
623.59	1671.42
623.93	1661.29
624.28	1651.60
624.62	1641.79
624.97	1631.61
625.32	1621.77
625.66	1612.98
626.01	1604.41
626.35	1595.28
626.70	1585.12
627.04	1575.22
627.39	1565.09
627.73	1555.88
628.08	1547.21
628.43	1537.71
628.77	1528.65
629.12	1519.72
629.46	1511.90
629.81	1503.64
630.15	1494.30
630.50	1484.51
630.84	1474.13
631.19	1464.41
631.53	1455.25
631.88	1445.10
632.22	1435.35
632.57	1426.25
632.91	1416.39
633.26	1406.53
633.60	1397.01
633.95	1387.94
634.29	1378.57
634.64	1369.41
634.98	1359.54
635.32	1350.25
635.67	1341.90
636.01	1332.66
636.36	1323.10
636.70	1313.71
637.05	1304.50
637.39	1295.72
637.73	1287.30
638.08	1279.88
638.42	1271.82
638.77	1263.12
639.11	1254.93
639.45	1247.19
639.80	1238.77
640.14	1229.99
640.49	1221.31
640.83	1212.42
641.17	1204.35
641.52	1196.30
641.86	1187.79
642.20	1180.14
642.55	1171.64
642.89	1162.78
643.23	1154.15
643.58	1146.13
643.92	1137.16
644.26	1128.54
644.61	1120.19
644.95	1111.53
645.29	1102.38
645.64	1093.26
645.98	1084.70
646.32	1076.92
646.66	1068.40
647.01	1060.16
647.35	1052.18
647.69	1043.92
648.04	1035.88
648.38	1027.06
648.72	1018.38
649.06	1010.03
649.41	1001.89
649.75	993.97
650.09	986.27
650.43	978.44
650.78	970.09
651.12	962.55
651.46	955.08
651.80	947.86
652.14	940.57
652.49	933.10
652.83	925.88
653.17	918.36
653.51	910.78
653.85	903.56
654.20	896.28
654.54	888.93
654.88	881.78
655.22	874.55
655.56	867.64
655.90	860.90
656.25	854.19
656.59	847.26
656.93	840.30
657.27	833.13
657.61	826.13
657.95	820.11
658.29	814.13
658.64	808.10
658.98	801.60
659.32	795.08
659.66	788.94
660.00	782.66
660.34	776.60
660.68	770.59
661.02	764.28
661.36	758.34
661.70	752.52
662.05	746.89
662.39	741.44
662.73	736.02
663.07	730.57
663.41	724.98
663.75	719.34
664.09	713.72
664.43	708.32
664.77	702.99
665.11	697.18
665.45	691.35
665.79	685.52
666.13	679.90
666.47	674.43
666.81	668.94
667.15	663.57
667.49	658.35
667.83	653.03
668.17	647.83
668.51	642.74
668.85	637.82
669.19	632.91
669.53	627.89
669.87	622.78
670.21	618.03
670.55	613.28
670.89	608.79
671.23	604.38
671.57	599.90
671.91	595.59
672.25	591.47
672.58	587.30
672.92	583.22
673.26	579.26
673.60	575.39
673.94	571.56
674.28	567.98
674.62	564.27
674.96	560.51
675.30	557.01
675.64	553.38
675.97	549.73
676.31	546.13
676.65	542.52
676.99	539.19
677.33	535.41
677.67	531.76
678.01	527.89
678.34	524.30
678.68	520.83
679.02	517.19
679.36	513.45
679.70	509.81
680.04	506.28
680.37	502.81
680.71	499.47
681.05	496.23
681.39	492.87
681.73	489.59
682.06	486.51
682.40	483.38
682.74	480.11
683.08	476.92
683.42	473.65
683.75	470.62
684.09	467.45
684.43	464.59
684.77	461.66
685.10	458.81
685.44	455.80
685.78	452.85
686.12	450.07
686.45	447.36
686.79	444.66
687.13	442.02
687.46	439.39
687.80	436.65
688.14	433.85
688.48	431.18
688.81	428.50
689.15	425.95
689.49	423.32
689.82	420.71
690.16	418.06
690.50	415.56
690.83	412.99
691.17	410.41
691.51	407.89
691.84	405.61
692.18	403.35
692.52	401.14
692.85	399.00
693.19	396.86
693.52	394.67
693.86	392.45
694.20	390.26
694.53	388.07
694.87	385.86
695.21	383.70
695.54	381.49
695.88	379.28
696.21	376.99
696.55	374.84
696.88	372.82
697.22	370.83
697.56	368.91
697.89	367.03
698.23	365.28
698.56	363.44
698.90	361.66
699.23	359.76
699.57	357.89
699.90	356.00
700.24	354.11
700.58	352.31
700.91	350.63
701.25	349.08
701.58	347.47
701.92	345.84
702.25	344.23
702.59	342.60
702.92	341.08
703.26	339.53
703.59	337.98
703.93	336.66
704.26	335.19
704.60	333.73
704.93	332.22
705.26	330.67
705.60	329.20
705.93	327.68
706.27	326.32
706.60	325.01
706.94	323.76
707.27	322.37
707.61	321.02
707.94	319.64
708.27	318.07
708.61	316.56
708.94	315.19
709.28	313.85
709.61	312.61
709.94	311.38
710.28	310.14
710.61	308.98
710.95	307.55
711.28	306.47
711.61	305.23
711.95	304.10
712.28	302.93
712.61	301.72
712.95	300.63
713.28	299.53
713.61	298.38
713.95	297.19
714.28	296.18
714.61	295.08
714.95	294.05
715.28	293.00
715.61	292.02
715.95	291.05
716.28	290.10
716.61	289.12
716.95	288.10
717.28	287.20
717.61	286.20
717.94	285.31
718.28	284.25
718.61	283.36
718.94	282.44
719.27	281.56
719.61	280.70
719.94	279.84
720.27	278.88
720.60	278.00
720.94	277.18
721.27	276.40
721.60	275.70
721.93	274.97
722.27	274.33
722.60	273.61
722.93	272.90
723.26	272.20
723.59	271.50
723.93	270.87
724.26	270.16
724.59	269.49
724.92	268.88
725.25	268.33
725.59	267.71
725.92	267.14
726.25	266.57
726.58	265.99
726.91	265.38
727.24	264.85
727.57	264.27
727.91	263.64
728.24	263.04
728.57	262.46
728.90	261.89
729.23	261.28
729.56	260.80
729.89	260.25
730.22	259.69
730.55	259.11
730.89	258.54
731.22	258.01
731.55	257.51
731.88	256.95
732.21	256.38
732.54	255.82
732.87	255.28
733.20	254.79
733.53	254.32
733.86	253.89
734.19	253.40
734.52	253.00
734.85	252.73
735.18	252.26
735.51	251.85
735.84	251.43
736.17	251.02
736.50	250.51
736.83	250.31
737.16	249.91
737.49	249.55
737.82	249.14
738.15	248.77
738.48	248.37
738.81	247.99
739.14	247.57
739.47	247.21
739.80	246.85
740.13	246.48
740.46	246.09
740.79	245.63
741.12	245.25
741.45	244.85
741.78	244.38
742.11	244.11
742.44	243.76
742.77	243.42
743.10	243.07
743.43	242.73
743.75	242.18
744.08	242.13
744.41	241.74
744.74	241.38
745.07	240.98
745.40	240.70
745.73	240.45
746.06	240.13
746.39	239.84
746.71	239.50
747.04	239.14
747.37	238.79
747.70	238.52
748.03	238.22
748.36	237.94
748.68	237.62
749.01	237.28
749.34	237.00
749.67	236.73
750.00	236.48
750.33	236.35
750.65	236.09
750.98	235.51
751.31	235.26
751.64	235.05
751.97	234.94
752.29	234.63
752.62	234.28
752.95	234.04
753.28	233.71
753.60	233.45
753.93	233.31
754.26	233.11
754.59	232.86
754.91	232.60
755.24	232.32
755.57	232.11
755.90	231.88
756.22	231.57
756.55	231.30
756.88	231.05
757.20	230.68
757.53	230.40
757.86	230.19
758.19	230.03
758.51	229.80
758.84	229.47
759.17	229.27
759.49	229.11
759.82	229.01
760.15	228.89
760.47	228.70
760.80	228.42
761.13	228.25
761.45	228.04
761.78	227.86
762.11	227.71
762.43	227.50
762.76	227.33
763.08	227.18
763.41	227.01
763.74	226.84
764.06	226.69
764.39	226.54
764.71	226.38
765.04	226.18
765.37	226.04
765.69	225.90
766.02	225.77
766.34	225.64
766.67	225.43
767.00	225.35
767.32	225.32
767.65	225.33
767.97	225.20
768.30	225.09
768.62	224.99
768.95	224.85
769.27	224.74
769.60	224.62
769.92	224.49
770.25	224.36
770.57	224.18
770.90	224.04
771.22	223.94
771.55	223.86
771.87	223.76
772.20	223.63
772.52	223.70
772.85	223.85
773.17	223.72
773.50	223.60
773.82	223.45
774.15	223.26
774.47	223.00
774.80	222.90
775.12	222.80
775.45	222.67
775.77	222.59
776.09	222.50
776.42	222.40
776.74	222.37
777.07	222.27
777.39	222.20
777.72	222.10
778.04	222.05
778.36	221.91
778.69	221.83
779.01	221.78
779.33	221.49
779.66	221.17
779.98	221.08
780.31	220.99
780.63	220.99
780.95	220.94
781.28	220.86
781.60	220.74
781.92	220.69
782.25	220.62
782.57	220.53
782.89	220.45
783.22	220.36
783.54	220.23
783.86	220.18
784.19	220.11
784.51	220.13
784.83	220.01
785.16	219.95
785.48	219.90
785.80	219.81
786.12	219.78
786.45	219.71
786.77	219.65
787.09	219.58
787.42	219.43
787.74	219.40
788.06	219.37
788.38	219.33
788.71	219.23
789.03	219.20
789.35	219.17
789.67	219.09
789.99	219.06
790.32	218.99
790.64	218.96
790.96	219.09
791.28	218.93
791.61	218.88
791.93	218.85
792.25	218.77
792.57	218.86
792.89	218.77
793.21	218.71
793.54	218.64
793.86	218.57
794.18	218.52
794.50	218.43
794.82	218.40
795.14	218.36
795.47	218.33
795.79	218.30
796.11	218.20
796.43	218.16
796.75	218.11
797.07	218.08
797.39	218.03
797.71	217.83
798.04	217.85
798.36	217.85
798.68	217.83
799.00	217.82
799.32	217.68
799.64	217.69
799.96	217.63
800.28	217.65
800.60	217.62
800.92	217.63
801.24	217.55
801.56	217.50
801.89	217.43
802.21	217.43
802.53	217.32
802.85	217.36
803.17	217.42
803.49	217.35
803.81	217.30
804.13	217.26
804.45	217.23
804.77	217.20
805.09	217.15
805.41	217.09
805.73	216.99
806.05	216.92
806.37	216.86
806.69	216.84
807.01	216.79
807.33	216.79
807.65	216.66
807.97	216.77
808.28	216.72
808.60	216.68
808.92	216.62
809.24	216.73
809.56	216.63
809.88	216.52
810.20	216.51
810.52	216.53
810.84	216.48
811.16	216.43
811.48	216.38
811.80	216.41
812.12	216.39
812.43	216.43
812.75	216.40
813.07	216.35
813.39	216.35
813.71	216.31
814.03	216.24
814.35	216.25
814.67	216.12
814.98	216.09
815.30	216.07
815.62	216.02
815.94	215.86
816.26	215.87
816.58	215.84
816.89	215.83
817.21	215.76
817.53	215.74
817.85	215.72
818.17	215.70
818.48	215.58
818.80	215.55
819.12	215.50
819.44	215.45
819.76	215.44
820.07	215.39
820.39	215.40
820.71	215.42
821.03	215.39
821.34	215.36
821.66	215.39
821.98	215.41
822.30	215.43
822.61	215.56
822.93	215.54
823.25	215.50
823.57	215.46
823.88	215.51
824.20	215.46
824.52	215.48
824.83	215.45
825.15	215.44
825.47	215.46
825.79	215.44
826.10	215.40
826.42	215.38
826.74	215.43
827.05	215.42
827.37	215.43
827.69	215.40
828.00	215.39
828.32	215.40
828.64	215.36
828.95	215.45
829.27	215.38
829.58	215.36
829.90	215.38
830.22	215.39
830.53	215.30
830.85	215.31
831.17	215.25
831.48	215.26
831.80	215.25
832.11	215.22
832.43	215.21
832.75	215.24
833.06	215.34
833.38	215.23
833.69	215.17
834.01	215.14
834.32	215.16
834.64	215.15
834.96	215.11
835.27	215.09
835.59	214.96
835.90	214.89
836.22	214.85
836.53	214.81
836.85	214.79
837.16	215.00
837.48	214.97
837.79	215.04
838.11	215.04
838.42	215.04
838.74	215.07
839.05	215.02
839.37	215.01
839.68	214.87
840.00	214.87
840.31	214.91
840.63	214.90
840.94	214.85
841.26	214.79
841.57	214.80
841.88	214.81
842.20	214.79
842.51	214.78
842.83	214.77
843.14	214.97
843.46	214.96
843.77	214.84
844.08	214.85
844.40	214.76
844.71	214.74
845.03	214.73
845.34	214.70
845.65	214.69
845.97	214.70
846.28	214.73
846.60	214.72
846.91	214.68
847.22	214.67
847.54	214.71
847.85	214.70
848.16	214.67
848.48	214.63
848.79	214.71
849.10	214.71
849.42	214.74
849.73	214.55
850.04	214.52
850.36	214.43
850.67	214.45
850.98	214.48
851.30	214.47
851.61	214.45
851.92	214.44
852.23	214.53
852.55	214.50
852.86	214.49
853.17	214.53
853.49	214.58
853.80	214.60
854.11	214.63
854.42	214.68
854.74	214.67
855.05	214.67
855.36	214.56
855.67	214.62
855.99	214.59
856.30	214.84
856.61	214.85
856.92	214.85
857.23	214.83
857.55	214.79
857.86	214.76
858.17	214.78
858.48	214.73
858.79	214.65
859.11	214.68
859.42	214.65
859.73	214.60
860.04	214.58
860.35	214.50
860.66	214.40
860.98	214.35
861.29	214.37
861.60	214.36
861.91	214.43
862.22	214.34
862.53	214.34
862.84	214.06
863.16	214.11
863.47	214.07
863.78	214.04
864.09	214.05
864.40	214.07
864.71	214.10
865.02	214.12
865.33	214.12
865.64	214.09
865.95	214.09
866.27	214.24
866.58	214.21
866.89	214.27
867.20	214.29
867.51	214.28
867.82	214.25
868.13	214.35
868.44	214.28
868.75	214.32
869.06	214.30
869.37	214.33
869.68	214.27
869.99	214.32
870.30	214.36
870.61	214.40
870.92	214.35
871.23	214.35
871.54	214.39
871.85	214.45
872.16	214.48
872.47	214.45
872.78	214.28
873.09	214.30
873.40	214.27
873.71	214.25
874.02	214.26
874.33	214.29
874.64	214.19
874.95	214.23
875.26	214.19
875.56	214.19
875.87	214.21
876.18	214.18
876.49	214.39
876.80	214.35
877.11	214.32
877.42	214.33
877.73	214.32
878.04	214.29
878.35	214.28
878.66	214.26
878.96	214.28
879.27	214.30
879.58	214.29
879.89	214.23
880.20	214.34
880.51	214.33
880.82	214.31
881.12	214.34
881.43	214.31
881.74	214.31
882.05	214.31
882.36	214.29
882.67	214.32
882.97	214.06
883.28	214.01
883.59	214.02
883.90	214.03
884.21	214.05
884.51	214.02
884.82	213.98
885.13	213.97
885.44	213.99
885.74	213.98
886.05	213.99
886.36	214.02
886.67	213.89
886.98	213.98
887.28	213.99
887.59	213.99
887.90	213.99
888.20	213.99
888.51	214.04
888.82	214.01
889.13	214.01
889.43	214.16
889.74	214.18
890.05	214.18
890.35	214.17
890.66	214.13
890.97	214.14
891.28	214.12
891.58	214.13
891.89	214.10
892.20	214.08
892.50	214.06
892.81	214.09
893.12	214.14
893.42	214.05
893.73	214.04
894.04	214.01
894.34	214.03
894.65	214.01
894.95	213.97
895.26	213.96
895.57	214.05
895.87	213.89
896.18	213.90
896.48	213.91
896.79	213.90
897.10	213.93
897.40	213.91
897.71	213.90
898.01	213.86
898.32	213.89
898.63	213.86
898.93	213.88
899.24	213.87
899.54	213.83
899.85	213.85
900.15	213.84
900.46	213.85
900.76	213.88
901.07	213.88
901.38	213.87
901.68	213.90
901.99	213.79
902.29	213.80
902.60	213.80
902.90	213.78
903.21	213.79
903.51	213.78
903.82	213.86
904.12	213.92
904.43	213.91
904.73	213.93
905.03	213.97
905.34	214.19
905.64	214.14
905.95	214.15
906.25	214.13
906.56	214.12
906.86	214.15
907.17	214.10
907.47	214.15
907.77	214.16
908.08	214.11
908.38	214.13
908.69	214.18
908.99	214.22
909.30	214.22
909.60	214.22
909.90	214.22
910.21	214.11
910.51	214.08
910.81	214.12
911.12	214.11
911.42	214.09
911.73	213.89
912.03	213.89
912.33	213.94
912.64	213.95
912.94	213.93
913.24	213.85
913.55	213.83
913.85	213.78
914.15	213.76
914.46	213.81
914.76	213.79
915.06	213.77
915.37	213.69
915.67	213.70
915.97	213.67
916.27	213.64
916.58	213.66
916.88	213.64
917.18	213.62
917.49	213.74
917.79	213.74
918.09	213.75
918.39	213.83
918.70	213.84
919.00	213.85
919.30	213.95
919.60	213.95
919.91	213.94
920.21	213.96
920.51	213.97
920.81	213.93
921.12	213.93
921.42	213.92
921.72	213.97
922.02	213.96
922.32	213.97
922.63	214.00
922.93	214.11
923.23	214.14
923.53	214.12
923.83	213.98
924.13	214.01
924.44	214.00
924.74	214.04
925.04	214.04
925.34	214.01
925.64	213.94
925.94	213.96
926.24	214.09
926.55	214.09
926.85	214.10
927.15	214.12
927.45	214.12
927.75	214.12
928.05	214.10
928.35	214.09
928.65	214.12
928.95	214.13
929.26	214.06
929.56	214.07
929.86	214.06
930.16	214.05
930.46	214.02
930.76	214.01
931.06	213.88
931.36	213.84
931.66	213.88
931.96	213.89
932.26	213.87
932.56	213.78
932.86	213.76
933.16	213.76
933.46	213.72
933.76	213.74
934.06	213.76
934.36	213.83
934.66	213.85
934.96	213.84
935.26	213.83
935.56	213.85
935.86	213.80
936.16	213.79
936.46	213.75
936.76	213.74
937.06	213.70
937.36	213.75
937.66	213.77
937.96	213.77
938.26	213.72
938.56	213.72
938.86	213.74
939.16	213.81
939.46	213.84
939.76	213.88
940.06	213.85
940.35	213.83
940.65	213.74
940.95	213.76
941.25	213.73
941.55	213.73
941.85	213.73
942.15	213.78
942.45	213.89
942.75	213.92
943.04	213.92
943.34	213.97
943.64	213.94
943.94	213.90
944.24	213.91
944.54	213.93
944.84	213.95
945.13	213.91
945.43	213.88
945.73	213.86
946.03	213.82
946.33	213.81
946.62	213.77
946.92	213.76
947.22	213.76
947.52	213.74
947.82	213.77
948.11	213.72
948.41	213.68
948.71	213.59
949.01	213.61
949.31	213.62
949.60	213.59
949.90	213.62
950.20	213.61
950.50	213.57
950.79	213.58
951.09	213.57
951.39	213.56
951.69	213.50
951.98	213.56
952.28	213.57
952.58	213.55
952.87	213.57
953.17	213.59
953.47	213.55
953.76	213.55
954.06	213.51
954.36	213.49
954.66	213.49
954.95	213.56
955.25	213.56
955.55	213.58
955.84	213.55
956.14	213.56
956.44	213.58
956.73	213.57
957.03	213.58
957.32	213.59
957.62	213.60
957.92	213.66
958.21	213.61
958.51	213.87
958.81	213.94
959.10	213.96
959.40	214.01
959.69	214.04
959.99	214.05
960.29	214.06
960.58	214.06
960.88	214.13
961.17	214.07
961.47	214.09
961.76	214.08
962.06	214.12
962.36	214.10
962.65	214.11
962.95	214.10
963.24	214.06
963.54	214.06
963.83	214.05
964.13	214.04
964.42	213.98
964.72	213.80
965.01	213.76
965.31	213.74
965.60	213.70
965.90	213.77
966.19	213.75
966.49	213.74
966.78	213.76
967.08	213.73
967.37	213.73
967.67	213.66
967.96	213.68
968.26	213.68
968.55	213.69
968.85	213.69
969.14	213.67
969.43	213.69
969.73	213.67
970.02	213.65
970.32	213.64
970.61	213.67
970.91	213.59
971.20	213.58
971.49	213.55
971.79	213.59
972.08	213.47
972.38	213.47
972.67	213.47
972.96	213.52
973.26	213.49
973.55	213.55
973.85	213.56
974.14	213.53
974.43	213.51
974.73	213.47
975.02	213.47
975.31	213.50
975.61	213.49
975.90	213.50
976.19	213.51
976.49	213.50
976.78	213.48
977.07	213.47
977.37	213.46
977.66	213.50
977.95	213.45
978.24	213.49
978.54	213.55
978.83	213.55
979.12	213.51
979.42	213.50
979.71	213.51
980.00	213.51
980.29	213.53
980.59	213.51
980.88	213.58
981.17	213.56
981.46	213.55
981.76	213.57
982.05	213.61
982.34	213.64
982.63	213.64
982.93	213.67
983.22	213.74
983.51	213.77
983.80	213.79
984.09	213.83
984.39	213.81
984.68	213.76
984.97	213.75
985.26	213.69
985.55	213.71
985.85	213.66
986.14	213.69
986.43	213.71
986.72	213.72
987.01	213.64
987.30	213.64
987.59	213.60
987.89	213.59
988.18	213.55
988.47	213.54
988.76	213.55
989.05	213.54
989.34	213.51
989.63	213.55
989.92	213.55
990.22	213.51
990.51	213.53
990.80	213.48
991.09	213.54
991.38	213.60
991.67	213.58
991.96	213.57
992.25	213.59
992.54	213.55
992.83	213.58
993.12	213.59
993.41	213.63
993.70	213.74
993.99	213.77
994.28	213.77
994.58	213.80
994.87	213.77
995.16	213.76
995.45	213.74
995.74	213.70
996.03	213.72
996.32	213.74
996.61	213.77
996.90	213.80
997.19	213.78
997.48	213.80
997.77	213.80
998.06	213.78
998.34	213.78
998.63	213.76
998.92	213.76
999.21	213.77
999.50	213.79
999.79	213.73
1000.08	213.73
1000.37	213.73
1000.66	213.71
1000.95	213.77
1001.24	213.74
1001.53	213.76
1001.82	213.73
1002.11	213.67
1002.40	213.71
1002.68	213.75
1002.97	213.88
1003.26	213.85
1003.55	213.80
1003.84	213.79
1004.13	213.88
1004.42	213.84
1004.71	213.86
1004.99	213.80
1005.28	213.86
1005.57	213.81
1005.86	213.82
1006.15	213.79
1006.44	213.74
1006.72	213.73
1007.01	213.67
1007.30	213.69
1007.59	213.67
1007.88	213.69
1008.17	213.70
1008.45	213.65
1008.74	213.57
1009.03	213.48
1009.32	213.49
1009.60	213.46
1009.89	213.45
1010.18	213.35
1010.47	213.31
1010.76	213.30
1011.04	213.32
1011.33	213.34
1011.62	213.37
1011.91	213.37
1012.19	213.39
1012.48	213.42
1012.77	213.47
1013.05	213.59
1013.34	213.58
1013.63	213.57
1013.92	213.59
1014.20	213.56
1014.49	213.58
1014.78	213.59
1015.06	213.51
1015.35	213.48
1015.64	213.54
1015.92	213.58
1016.21	213.60
1016.50	213.65
1016.78	213.66
1017.07	213.68
1017.36	213.62
1017.64	213.58
1017.93	213.62
1018.22	213.59
1018.50	213.61
1018.79	213.58
1019.08	213.49
1019.36	213.52
1019.65	213.48
1019.93	213.54
1020.22	213.57
1020.51	213.65
1020.79	213.65
1021.08	212.98
1021.36	213.71
1021.65	213.55
1021.94	213.93
1022.22	213.56
1022.51	212.65
1022.79	214.91
1023.08	213.61
1023.36	215.48
1023.65	213.28
>>>>>End Processed Spectral Data<<<<<
