SpectraSuite Data File
++++++++++++++++++++++++++++++++++++
Date: Tue Jan 29 16:09:22 EST 2013
User: group
Dark Spectrum Present: No
Reference Spectrum Present: No
Number of Sampled Component Spectra: 1
Spectrometers: USB2E7196
Integration Time (usec): 65000 (USB2E7196)
Spectra Averaged: 100 (USB2E7196)
Boxcar Smoothing: 10 (USB2E7196)
Correct for Electrical Dark: No (USB2E7196)
Strobe/Lamp Enabled: No (USB2E7196)
Correct for Detector Non-linearity: No (USB2E7196)
Correct for Stray Light: No (USB2E7196)
Number of Pixels in Processed Spectrum: 2048
>>>>>Begin Processed Spectral Data<<<<<
339.09	0.00
339.48	202.98
339.86	204.21
340.24	205.87
340.63	206.90
341.01	211.29
341.39	210.07
341.78	211.31
342.16	212.95
342.54	212.76
342.93	202.06
343.31	212.30
343.69	212.85
344.07	213.32
344.46	213.75
344.84	214.17
345.22	214.36
345.60	214.63
345.99	214.84
346.37	214.98
346.75	215.08
347.13	215.22
347.52	215.28
347.90	215.40
348.28	215.43
348.66	215.50
349.05	215.47
349.43	215.53
349.81	215.59
350.19	215.63
350.57	215.69
350.96	215.78
351.34	215.84
351.72	215.90
352.10	216.00
352.48	216.08
352.87	216.11
353.25	216.17
353.63	216.21
354.01	216.25
354.39	216.31
354.77	216.40
355.15	216.48
355.54	216.58
355.92	216.56
356.30	216.59
356.68	216.79
357.06	216.86
357.44	216.90
357.82	216.96
358.20	217.02
358.58	217.08
358.97	217.12
359.35	217.21
359.73	217.33
360.11	217.40
360.49	217.44
360.87	217.45
361.25	217.51
361.63	217.61
362.01	217.67
362.39	217.69
362.77	217.73
363.15	217.77
363.53	217.77
363.91	217.82
364.29	217.86
364.67	217.68
365.05	217.69
365.43	217.72
365.81	217.74
366.19	217.87
366.57	217.94
366.95	217.96
367.33	217.90
367.71	217.84
368.09	217.86
368.47	217.87
368.85	217.88
369.23	217.89
369.61	217.78
369.99	217.82
370.37	217.85
370.75	217.95
371.13	217.86
371.51	217.80
371.89	217.78
372.27	217.73
372.65	217.69
373.03	217.67
373.41	217.62
373.78	217.60
374.16	217.47
374.54	217.40
374.92	217.37
375.30	217.37
375.68	217.35
376.06	217.31
376.44	217.27
376.82	217.26
377.19	217.21
377.57	217.19
377.95	217.07
378.33	217.00
378.71	216.82
379.09	216.81
379.47	216.82
379.84	216.77
380.22	216.73
380.60	216.69
380.98	216.65
381.36	216.56
381.73	216.45
382.11	216.43
382.49	216.37
382.87	216.28
383.25	216.21
383.62	216.40
384.00	216.33
384.38	216.27
384.76	216.30
385.13	216.36
385.51	216.33
385.89	216.30
386.27	216.27
386.64	216.25
387.02	216.22
387.40	216.14
387.78	216.13
388.15	216.13
388.53	216.09
388.91	216.06
389.29	216.07
389.66	216.09
390.04	216.06
390.42	216.06
390.79	216.07
391.17	216.05
391.55	215.79
391.92	215.78
392.30	215.80
392.68	215.71
393.05	215.67
393.43	215.67
393.81	215.66
394.18	215.65
394.56	215.71
394.94	215.74
395.31	215.74
395.69	215.78
396.06	215.82
396.44	215.87
396.82	215.89
397.19	216.03
397.57	216.06
397.95	216.11
398.32	216.12
398.70	216.16
399.07	216.26
399.45	216.31
399.82	216.37
400.20	216.40
400.58	216.47
400.95	216.46
401.33	216.59
401.70	216.81
402.08	216.90
402.45	216.94
402.83	217.07
403.20	217.19
403.58	217.31
403.95	217.48
404.33	217.64
404.71	217.79
405.08	218.05
405.46	218.21
405.83	218.37
406.21	218.55
406.58	218.79
406.96	219.01
407.33	219.28
407.70	219.56
408.08	220.04
408.45	220.38
408.83	220.74
409.20	221.05
409.58	221.31
409.95	221.77
410.33	222.26
410.70	222.67
411.08	223.20
411.45	223.71
411.82	224.24
412.20	224.90
412.57	225.71
412.95	226.23
413.32	227.01
413.69	227.83
414.07	228.72
414.44	229.67
414.82	230.65
415.19	231.78
415.56	232.93
415.94	234.04
416.31	235.38
416.68	236.75
417.06	238.34
417.43	239.79
417.81	241.40
418.18	243.12
418.55	244.98
418.93	246.95
419.30	249.00
419.67	251.14
420.04	253.29
420.42	255.58
420.79	258.35
421.16	261.06
421.54	263.85
421.91	266.73
422.28	269.70
422.66	272.88
423.03	276.02
423.40	279.24
423.77	282.72
424.15	286.31
424.52	290.06
424.89	294.04
425.26	298.01
425.64	301.83
426.01	305.95
426.38	310.28
426.75	314.65
427.13	319.22
427.50	324.05
427.87	329.12
428.24	334.15
428.61	338.92
428.99	344.25
429.36	350.07
429.73	355.77
430.10	361.47
430.47	367.37
430.85	373.47
431.22	380.02
431.59	386.86
431.96	393.39
432.33	400.59
432.70	407.61
433.08	415.83
433.45	423.61
433.82	431.39
434.19	439.96
434.56	448.42
434.93	456.43
435.30	464.40
435.68	473.17
436.05	481.77
436.42	490.36
436.79	498.21
437.16	506.66
437.53	515.58
437.90	524.38
438.27	532.97
438.64	541.81
439.01	550.02
439.38	557.38
439.75	564.52
440.13	572.65
440.50	580.30
440.87	586.51
441.24	592.90
441.61	599.97
441.98	605.20
442.35	611.30
442.72	617.47
443.09	623.24
443.46	626.82
443.83	629.32
444.20	631.49
444.57	634.46
444.94	635.84
445.31	637.22
445.68	638.60
446.05	639.15
446.42	638.35
446.79	637.41
447.16	636.28
447.53	635.43
447.90	632.15
448.27	629.00
448.64	624.47
449.01	621.23
449.37	615.47
449.74	610.00
450.11	603.28
450.48	596.11
450.85	589.01
451.22	582.82
451.59	576.87
451.96	571.23
452.33	563.70
452.70	556.86
453.07	548.69
453.43	540.38
453.80	532.40
454.17	524.76
454.54	517.44
454.91	509.62
455.28	502.03
455.65	494.91
456.02	487.70
456.38	481.65
456.75	474.07
457.12	467.82
457.49	461.52
457.86	455.63
458.23	450.48
458.59	444.78
458.96	438.99
459.33	433.91
459.70	428.74
460.07	424.66
460.43	419.97
460.80	415.57
461.17	411.71
461.54	407.72
461.91	403.81
462.27	399.86
462.64	396.57
463.01	392.87
463.38	389.30
463.74	385.72
464.11	382.60
464.48	379.94
464.85	376.92
465.21	374.55
465.58	371.94
465.95	368.89
466.32	366.32
466.68	363.86
467.05	361.34
467.42	358.87
467.78	356.25
468.15	353.80
468.52	351.96
468.88	349.60
469.25	347.48
469.62	345.81
469.98	344.00
470.35	342.24
470.72	340.65
471.08	338.98
471.45	337.54
471.82	336.09
472.18	334.44
472.55	333.31
472.92	332.00
473.28	330.90
473.65	329.77
474.02	328.73
474.38	327.84
474.75	327.17
475.11	326.42
475.48	325.93
475.85	325.50
476.21	325.05
476.58	324.72
476.94	324.48
477.31	324.18
477.67	323.96
478.04	323.85
478.41	323.81
478.77	323.98
479.14	323.97
479.50	324.06
479.87	324.35
480.23	324.70
480.60	324.96
480.96	325.26
481.33	325.91
481.69	326.50
482.06	327.05
482.42	327.51
482.79	328.12
483.15	328.89
483.52	329.90
483.88	330.80
484.25	331.76
484.61	332.82
484.98	333.89
485.34	335.17
485.71	336.54
486.07	337.97
486.44	339.27
486.80	340.88
487.17	342.58
487.53	344.40
487.90	346.28
488.26	348.35
488.62	350.47
488.99	352.53
489.35	354.73
489.72	357.14
490.08	359.67
490.44	362.22
490.81	364.91
491.17	367.61
491.54	370.55
491.90	373.60
492.26	376.83
492.63	380.23
492.99	383.70
493.36	387.35
493.72	391.20
494.08	395.20
494.45	399.41
494.81	403.74
495.17	408.15
495.54	412.81
495.90	417.59
496.26	422.55
496.63	427.65
496.99	432.96
497.35	438.51
497.72	444.28
498.08	450.19
498.44	456.24
498.80	462.61
499.17	469.10
499.53	475.76
499.89	482.62
500.26	489.52
500.62	496.57
500.98	503.90
501.34	511.37
501.71	519.08
502.07	526.78
502.43	534.80
502.79	542.91
503.16	551.26
503.52	559.72
503.88	568.39
504.24	577.35
504.60	586.42
504.97	595.51
505.33	604.80
505.69	614.67
506.05	624.52
506.41	634.37
506.78	644.39
507.14	654.59
507.50	665.01
507.86	675.65
508.22	686.41
508.59	697.05
508.95	708.08
509.31	719.35
509.67	730.74
510.03	742.08
510.39	753.81
510.75	765.58
511.12	777.50
511.48	789.54
511.84	801.67
512.20	813.90
512.56	826.41
512.92	839.01
513.28	851.48
513.64	864.12
514.00	876.77
514.37	889.52
514.73	902.46
515.09	915.26
515.45	927.97
515.81	940.91
516.17	954.17
516.53	967.15
516.89	980.11
517.25	993.16
517.61	1006.48
517.97	1019.60
518.33	1032.53
518.69	1045.88
519.05	1059.42
519.41	1072.88
519.77	1086.53
520.13	1099.64
520.49	1112.59
520.85	1125.73
521.21	1138.85
521.57	1152.33
521.93	1165.39
522.29	1178.92
522.65	1192.42
523.01	1205.87
523.37	1218.74
523.73	1231.83
524.09	1244.73
524.45	1257.80
524.81	1271.10
525.17	1284.24
525.53	1297.29
525.89	1310.40
526.25	1323.19
526.61	1335.72
526.97	1348.54
527.33	1361.19
527.68	1374.46
528.04	1387.71
528.40	1400.58
528.76	1413.66
529.12	1426.31
529.48	1439.23
529.84	1451.20
530.20	1463.55
530.56	1475.89
530.91	1488.90
531.27	1501.43
531.63	1513.92
531.99	1526.52
532.35	1538.43
532.71	1550.49
533.07	1562.92
533.42	1574.73
533.78	1586.54
534.14	1598.35
534.50	1609.29
534.86	1620.54
535.21	1631.03
535.57	1642.21
535.93	1653.29
536.29	1664.16
536.65	1675.19
537.00	1685.89
537.36	1696.95
537.72	1707.57
538.08	1718.58
538.44	1729.19
538.79	1739.89
539.15	1750.38
539.51	1760.66
539.87	1771.65
540.22	1782.21
540.58	1792.77
540.94	1803.44
541.29	1813.46
541.65	1822.82
542.01	1833.08
542.37	1842.98
542.72	1853.10
543.08	1862.60
543.44	1872.63
543.79	1881.47
544.15	1890.67
544.51	1900.28
544.87	1909.90
545.22	1918.89
545.58	1927.62
545.94	1936.20
546.29	1944.53
546.65	1952.88
547.01	1960.92
547.36	1968.36
547.72	1975.73
548.07	1983.29
548.43	1990.70
548.79	1998.36
549.14	2006.29
549.50	2014.47
549.86	2021.92
550.21	2028.86
550.57	2036.38
550.92	2042.99
551.28	2050.30
551.64	2057.47
551.99	2064.75
552.35	2071.69
552.70	2078.43
553.06	2084.80
553.41	2090.92
553.77	2097.26
554.13	2103.29
554.48	2110.19
554.84	2116.94
555.19	2123.42
555.55	2129.77
555.90	2135.99
556.26	2142.52
556.61	2148.37
556.97	2152.99
557.32	2158.88
557.68	2165.20
558.03	2170.76
558.39	2175.87
558.74	2181.79
559.10	2187.24
559.45	2192.79
559.81	2198.32
560.16	2203.80
560.52	2209.68
560.87	2216.12
561.23	2222.09
561.58	2228.75
561.94	2233.87
562.29	2238.83
562.64	2244.98
563.00	2250.42
563.35	2256.01
563.71	2261.99
564.06	2267.84
564.42	2273.80
564.77	2278.77
565.12	2283.96
565.48	2289.22
565.83	2294.82
566.19	2300.42
566.54	2305.72
566.89	2310.34
567.25	2315.00
567.60	2320.60
567.96	2325.79
568.31	2330.27
568.66	2334.49
569.02	2338.31
569.37	2342.17
569.72	2346.63
570.08	2350.20
570.43	2353.42
570.78	2356.62
571.14	2359.24
571.49	2362.36
571.84	2366.12
572.20	2369.12
572.55	2372.27
572.90	2374.68
573.26	2377.75
573.61	2380.15
573.96	2382.54
574.31	2384.70
574.67	2386.58
575.02	2387.79
575.37	2389.29
575.72	2390.19
576.08	2391.76
576.43	2392.25
576.78	2393.13
577.13	2394.85
577.49	2396.07
577.84	2397.50
578.19	2399.02
578.54	2399.73
578.90	2400.87
579.25	2400.76
579.60	2400.95
579.95	2400.47
580.30	2400.77
580.66	2400.15
581.01	2398.74
581.36	2396.64
581.71	2395.35
582.06	2394.54
582.42	2393.82
582.77	2391.88
583.12	2390.46
583.47	2389.20
583.82	2388.84
584.17	2387.62
584.53	2385.57
584.88	2383.72
585.23	2381.77
585.58	2379.64
585.93	2377.59
586.28	2375.41
586.63	2373.34
586.98	2371.29
587.34	2369.54
587.69	2367.37
588.04	2365.63
588.39	2364.31
588.74	2361.98
589.09	2359.59
589.44	2356.71
589.79	2354.40
590.14	2352.74
590.49	2350.18
590.84	2346.71
591.19	2343.83
591.54	2340.62
591.89	2336.83
592.25	2333.85
592.60	2329.88
592.95	2325.90
593.30	2321.87
593.65	2317.51
594.00	2313.26
594.35	2310.28
594.70	2305.80
595.05	2301.26
595.40	2295.82
595.75	2290.34
596.10	2286.85
596.45	2282.01
596.80	2277.41
597.15	2272.19
597.50	2266.27
597.85	2261.42
598.19	2256.24
598.54	2250.51
598.89	2245.51
599.24	2241.05
599.59	2234.87
599.94	2229.31
600.29	2223.61
600.64	2217.97
600.99	2211.61
601.34	2206.25
601.69	2199.39
602.04	2193.04
602.39	2186.56
602.74	2180.69
603.08	2175.26
603.43	2168.76
603.78	2162.13
604.13	2155.16
604.48	2148.05
604.83	2142.20
605.18	2135.80
605.53	2128.94
605.87	2122.00
606.22	2115.57
606.57	2107.78
606.92	2099.92
607.27	2092.99
607.62	2086.38
607.96	2079.43
608.31	2072.97
608.66	2065.35
609.01	2057.80
609.36	2050.75
609.70	2043.20
610.05	2035.42
610.40	2027.14
610.75	2018.96
611.10	2011.31
611.44	2002.67
611.79	1993.97
612.14	1983.87
612.49	1973.60
612.83	1964.49
613.18	1955.38
613.53	1945.79
613.88	1936.31
614.22	1927.78
614.57	1917.94
614.92	1907.45
615.27	1897.44
615.61	1887.47
615.96	1877.82
616.31	1868.37
616.65	1859.05
617.00	1849.15
617.35	1839.63
617.70	1830.05
618.04	1820.06
618.39	1809.76
618.74	1800.05
619.08	1790.52
619.43	1781.95
619.78	1773.79
620.12	1765.17
620.47	1755.32
620.82	1745.13
621.16	1735.35
621.51	1725.43
621.85	1715.62
622.20	1705.13
622.55	1694.43
622.89	1684.46
623.24	1674.65
623.59	1664.93
623.93	1654.77
624.28	1645.07
624.62	1634.84
624.97	1624.51
625.32	1614.77
625.66	1606.09
626.01	1597.27
626.35	1587.80
626.70	1577.61
627.04	1567.43
627.39	1557.28
627.73	1548.14
628.08	1539.13
628.43	1529.52
628.77	1520.30
629.12	1511.35
629.46	1503.47
629.81	1495.13
630.15	1485.61
630.50	1475.72
630.84	1465.26
631.19	1455.35
631.53	1445.98
631.88	1435.88
632.22	1425.80
632.57	1416.43
632.91	1406.18
633.26	1396.40
633.60	1386.85
633.95	1377.56
634.29	1368.11
634.64	1358.78
634.98	1348.80
635.32	1339.42
635.67	1330.91
636.01	1321.73
636.36	1311.92
636.70	1302.48
637.05	1293.16
637.39	1284.23
637.73	1275.74
638.08	1268.26
638.42	1260.04
638.77	1251.20
639.11	1242.97
639.45	1235.21
639.80	1226.64
640.14	1218.03
640.49	1209.11
640.83	1200.30
641.17	1192.26
641.52	1183.96
641.86	1175.31
642.20	1167.54
642.55	1159.04
642.89	1150.25
643.23	1141.54
643.58	1133.51
643.92	1124.49
644.26	1115.82
644.61	1107.35
644.95	1098.64
645.29	1089.26
645.64	1080.06
645.98	1071.78
646.32	1063.89
646.66	1055.45
647.01	1047.06
647.35	1038.86
647.69	1030.50
648.04	1022.16
648.38	1013.24
648.72	1004.54
649.06	996.15
649.41	987.92
649.75	979.91
650.09	971.99
650.43	964.03
650.78	955.83
651.12	948.14
651.46	940.79
651.80	933.52
652.14	926.18
652.49	918.67
652.83	911.48
653.17	903.74
653.51	896.11
653.85	888.93
654.20	881.66
654.54	874.21
654.88	867.14
655.22	860.06
655.56	853.12
655.90	846.39
656.25	839.79
656.59	832.89
656.93	825.89
657.27	818.83
657.61	811.98
657.95	805.94
658.29	800.18
658.64	794.14
658.98	787.76
659.32	781.27
659.66	775.12
660.00	768.83
660.34	762.92
660.68	756.92
661.02	750.65
661.36	744.90
661.70	739.18
662.05	733.52
662.39	728.11
662.73	722.86
663.07	717.56
663.41	712.07
663.75	706.53
664.09	701.12
664.43	695.79
664.77	690.50
665.11	684.72
665.45	678.82
665.79	673.01
666.13	667.38
666.47	662.01
666.81	656.70
667.15	651.41
667.49	646.27
667.83	640.99
668.17	635.81
668.51	630.66
668.85	625.85
669.19	621.10
669.53	616.17
669.87	611.08
670.21	606.41
670.55	601.67
670.89	597.30
671.23	593.04
671.57	588.69
671.91	584.40
672.25	580.38
672.58	576.36
672.92	572.29
673.26	568.43
673.60	564.59
673.94	560.81
674.28	557.19
674.62	553.45
674.96	549.85
675.30	546.36
675.64	542.79
675.97	539.18
676.31	535.52
676.65	531.97
676.99	528.54
677.33	524.69
677.67	521.11
678.01	517.33
678.34	513.62
678.68	510.19
679.02	506.57
679.36	502.86
679.70	499.28
680.04	495.87
680.37	492.53
680.71	489.26
681.05	486.08
681.39	482.91
681.73	479.87
682.06	476.94
682.40	473.85
682.74	470.71
683.08	467.55
683.42	464.46
683.75	461.55
684.09	458.58
684.43	455.86
684.77	453.01
685.10	450.20
685.44	447.35
685.78	444.45
686.12	441.85
686.45	439.22
686.79	436.60
687.13	434.13
687.46	431.50
687.80	428.85
688.14	426.06
688.48	423.55
688.81	420.86
689.15	418.25
689.49	415.75
689.82	413.24
690.16	410.75
690.50	408.33
690.83	405.85
691.17	403.38
691.51	400.96
691.84	398.77
692.18	396.55
692.52	394.41
692.85	392.30
693.19	390.12
693.52	387.98
693.86	385.81
694.20	383.62
694.53	381.53
694.87	379.41
695.21	377.35
695.54	375.16
695.88	373.04
696.21	370.90
696.55	368.76
696.88	366.75
697.22	364.85
697.56	363.02
697.89	361.22
698.23	359.56
698.56	357.85
698.90	356.10
699.23	354.24
699.57	352.46
699.90	350.69
700.24	348.96
700.58	347.23
700.91	345.57
701.25	344.07
701.58	342.52
701.92	340.95
702.25	339.38
702.59	337.82
702.92	336.40
703.26	334.90
703.59	333.53
703.93	332.36
704.26	330.93
704.60	329.45
704.93	328.02
705.26	326.49
705.60	325.04
705.93	323.57
706.27	322.31
706.60	321.03
706.94	319.81
707.27	318.44
707.61	317.13
707.94	315.83
708.27	314.35
708.61	312.91
708.94	311.56
709.28	310.35
709.61	309.14
709.94	307.91
710.28	306.76
710.61	305.60
710.95	304.19
711.28	303.12
711.61	301.99
711.95	300.90
712.28	299.78
712.61	298.59
712.95	297.58
713.28	296.53
713.61	295.45
713.95	294.35
714.28	293.38
714.61	292.40
714.95	291.41
715.28	290.41
715.61	289.48
715.95	288.58
716.28	287.63
716.61	286.69
716.95	285.73
717.28	284.82
717.61	283.85
717.94	282.98
718.28	282.00
718.61	281.09
718.94	280.16
719.27	279.33
719.61	278.55
719.94	277.69
720.27	276.76
720.60	275.92
720.94	275.13
721.27	274.38
721.60	273.74
721.93	273.06
722.27	272.49
722.60	271.82
722.93	271.11
723.26	270.48
723.59	269.85
723.93	269.27
724.26	268.61
724.59	268.00
724.92	267.44
725.25	266.94
725.59	266.44
725.92	265.98
726.25	265.40
726.58	264.84
726.91	264.29
727.24	263.81
727.57	263.25
727.91	262.64
728.24	262.11
728.57	261.50
728.90	260.99
729.23	260.35
729.56	259.95
729.89	259.41
730.22	258.85
730.55	258.33
730.89	257.77
731.22	257.25
731.55	256.75
731.88	256.22
732.21	255.68
732.54	255.14
732.87	254.60
733.20	254.16
733.53	253.70
733.86	253.26
734.19	252.75
734.52	252.39
734.85	252.10
735.18	251.67
735.51	251.27
735.84	250.82
736.17	250.46
736.50	249.93
736.83	249.77
737.16	249.39
737.49	248.98
737.82	248.62
738.15	248.32
738.48	247.95
738.81	247.57
739.14	247.19
739.47	246.83
739.80	246.46
740.13	246.11
740.46	245.75
740.79	245.37
741.12	245.04
741.45	244.63
741.78	244.21
742.11	243.95
742.44	243.60
742.77	243.34
743.10	243.03
743.43	242.68
743.75	242.14
744.08	242.08
744.41	241.73
744.74	241.38
745.07	241.00
745.40	240.71
745.73	240.45
746.06	240.13
746.39	239.83
746.71	239.51
747.04	239.16
747.37	238.82
747.70	238.57
748.03	238.26
748.36	238.04
748.68	237.76
749.01	237.38
749.34	237.08
749.67	236.74
750.00	236.45
750.33	236.32
750.65	236.08
750.98	235.56
751.31	235.35
751.64	235.13
751.97	235.01
752.29	234.72
752.62	234.41
752.95	234.15
753.28	233.91
753.60	233.74
753.93	233.59
754.26	233.40
754.59	233.11
754.91	232.90
755.24	232.64
755.57	232.39
755.90	232.20
756.22	231.98
756.55	231.77
756.88	231.54
757.20	231.28
757.53	231.01
757.86	230.83
758.19	230.65
758.51	230.43
758.84	230.11
759.17	229.93
759.49	229.76
759.82	229.68
760.15	229.51
760.47	229.30
760.80	229.06
761.13	228.90
761.45	228.73
761.78	228.55
762.11	228.38
762.43	228.20
762.76	228.01
763.08	227.85
763.41	227.70
763.74	227.57
764.06	227.38
764.39	227.21
764.71	227.04
765.04	226.84
765.37	226.71
765.69	226.60
766.02	226.47
766.34	226.31
766.67	226.12
767.00	226.02
767.32	225.98
767.65	225.95
767.97	225.80
768.30	225.69
768.62	225.56
768.95	225.41
769.27	225.32
769.60	225.22
769.92	225.06
770.25	224.91
770.57	224.75
770.90	224.61
771.22	224.49
771.55	224.36
771.87	224.25
772.20	224.14
772.52	224.18
772.85	224.35
773.17	224.26
773.50	224.11
773.82	224.00
774.15	223.83
774.47	223.64
774.80	223.53
775.12	223.41
775.45	223.32
775.77	223.28
776.09	223.19
776.42	223.15
776.74	223.12
777.07	223.02
777.39	222.93
777.72	222.83
778.04	222.79
778.36	222.69
778.69	222.64
779.01	222.56
779.33	222.31
779.66	221.96
779.98	221.87
780.31	221.80
780.63	221.80
780.95	221.75
781.28	221.64
781.60	221.57
781.92	221.52
782.25	221.47
782.57	221.40
782.89	221.35
783.22	221.25
783.54	221.16
783.86	221.14
784.19	221.07
784.51	221.11
784.83	221.04
785.16	220.98
785.48	220.90
785.80	220.85
786.12	220.78
786.45	220.72
786.77	220.68
787.09	220.63
787.42	220.51
787.74	220.47
788.06	220.43
788.38	220.34
788.71	220.28
789.03	220.21
789.35	220.13
789.67	220.04
789.99	220.01
790.32	219.93
790.64	219.90
790.96	219.98
791.28	219.83
791.61	219.75
791.93	219.73
792.25	219.68
792.57	219.77
792.89	219.67
793.21	219.66
793.54	219.57
793.86	219.49
794.18	219.45
794.50	219.33
794.82	219.28
795.14	219.32
795.47	219.33
795.79	219.31
796.11	219.25
796.43	219.19
796.75	219.12
797.07	219.08
797.39	219.05
797.71	218.88
798.04	218.88
798.36	218.87
798.68	218.82
799.00	218.81
799.32	218.68
799.64	218.71
799.96	218.69
800.28	218.69
800.60	218.66
800.92	218.62
801.24	218.61
801.56	218.56
801.89	218.50
802.21	218.45
802.53	218.36
802.85	218.43
803.17	218.50
803.49	218.45
803.81	218.43
804.13	218.35
804.45	218.31
804.77	218.29
805.09	218.24
805.41	218.22
805.73	218.16
806.05	218.08
806.37	218.06
806.69	217.98
807.01	217.94
807.33	217.93
807.65	217.83
807.97	217.91
808.28	217.90
808.60	217.86
808.92	217.82
809.24	217.89
809.56	217.77
809.88	217.66
810.20	217.65
810.52	217.65
810.84	217.62
811.16	217.56
811.48	217.53
811.80	217.61
812.12	217.59
812.43	217.61
812.75	217.58
813.07	217.50
813.39	217.52
813.71	217.49
814.03	217.45
814.35	217.47
814.67	217.36
814.98	217.31
815.30	217.29
815.62	217.27
815.94	217.14
816.26	217.16
816.58	217.10
816.89	217.11
817.21	217.05
817.53	217.09
817.85	217.07
818.17	217.05
818.48	216.95
818.80	216.95
819.12	216.89
819.44	216.85
819.76	216.84
820.07	216.81
820.39	216.79
820.71	216.80
821.03	216.78
821.34	216.76
821.66	216.77
821.98	216.77
822.30	216.73
822.61	216.86
822.93	216.82
823.25	216.80
823.57	216.78
823.88	216.82
824.20	216.79
824.52	216.81
824.83	216.77
825.15	216.74
825.47	216.72
825.79	216.73
826.10	216.70
826.42	216.68
826.74	216.71
827.05	216.72
827.37	216.71
827.69	216.65
828.00	216.65
828.32	216.61
828.64	216.59
828.95	216.69
829.27	216.62
829.58	216.59
829.90	216.65
830.22	216.62
830.53	216.55
830.85	216.51
831.17	216.51
831.48	216.49
831.80	216.51
832.11	216.51
832.43	216.46
832.75	216.44
833.06	216.54
833.38	216.48
833.69	216.44
834.01	216.43
834.32	216.42
834.64	216.38
834.96	216.39
835.27	216.38
835.59	216.27
835.90	216.22
836.22	216.22
836.53	216.12
836.85	216.10
837.16	216.28
837.48	216.29
837.79	216.32
838.11	216.32
838.42	216.28
838.74	216.27
839.05	216.25
839.37	216.26
839.68	216.13
840.00	216.10
840.31	216.13
840.63	216.12
840.94	216.11
841.26	216.09
841.57	216.10
841.88	216.09
842.20	216.06
842.51	216.03
842.83	216.06
843.14	216.26
843.46	216.26
843.77	216.15
844.08	216.11
844.40	216.03
844.71	215.99
845.03	215.97
845.34	215.95
845.65	215.93
845.97	215.91
846.28	215.93
846.60	215.95
846.91	215.89
847.22	215.89
847.54	215.92
847.85	215.91
848.16	215.86
848.48	215.84
848.79	215.93
849.10	215.95
849.42	215.91
849.73	215.71
850.04	215.70
850.36	215.61
850.67	215.66
850.98	215.65
851.30	215.70
851.61	215.68
851.92	215.69
852.23	215.78
852.55	215.78
852.86	215.76
853.17	215.79
853.49	215.86
853.80	215.86
854.11	215.88
854.42	215.93
854.74	215.92
855.05	215.95
855.36	215.84
855.67	215.85
855.99	215.83
856.30	216.08
856.61	216.08
856.92	216.08
857.23	216.03
857.55	216.01
857.86	215.99
858.17	216.04
858.48	216.00
858.79	215.92
859.11	215.94
859.42	215.91
859.73	215.86
860.04	215.84
860.35	215.77
860.66	215.70
860.98	215.71
861.29	215.71
861.60	215.67
861.91	215.70
862.22	215.66
862.53	215.62
862.84	215.38
863.16	215.44
863.47	215.40
863.78	215.39
864.09	215.43
864.40	215.43
864.71	215.44
865.02	215.44
865.33	215.44
865.64	215.42
865.95	215.45
866.27	215.59
866.58	215.57
866.89	215.60
867.20	215.61
867.51	215.56
867.82	215.55
868.13	215.61
868.44	215.57
868.75	215.59
869.06	215.60
869.37	215.60
869.68	215.52
869.99	215.56
870.30	215.59
870.61	215.58
870.92	215.56
871.23	215.53
871.54	215.58
871.85	215.59
872.16	215.60
872.47	215.60
872.78	215.48
873.09	215.47
873.40	215.43
873.71	215.42
874.02	215.41
874.33	215.38
874.64	215.32
874.95	215.35
875.26	215.34
875.56	215.36
875.87	215.37
876.18	215.37
876.49	215.57
876.80	215.53
877.11	215.47
877.42	215.47
877.73	215.46
878.04	215.40
878.35	215.42
878.66	215.40
878.96	215.39
879.27	215.34
879.58	215.32
879.89	215.32
880.20	215.37
880.51	215.40
880.82	215.41
881.12	215.43
881.43	215.37
881.74	215.36
882.05	215.34
882.36	215.32
882.67	215.31
882.97	215.07
883.28	215.04
883.59	215.04
883.90	215.05
884.21	215.07
884.51	215.09
884.82	215.02
885.13	215.01
885.44	215.01
885.74	215.03
886.05	215.03
886.36	215.04
886.67	214.98
886.98	215.06
887.28	215.08
887.59	215.09
887.90	215.13
888.20	215.12
888.51	215.15
888.82	215.13
889.13	215.16
889.43	215.31
889.74	215.35
890.05	215.35
890.35	215.36
890.66	215.32
890.97	215.26
891.28	215.28
891.58	215.29
891.89	215.27
892.20	215.24
892.50	215.23
892.81	215.22
893.12	215.22
893.42	215.14
893.73	215.14
894.04	215.13
894.34	215.14
894.65	215.11
894.95	215.10
895.26	215.10
895.57	215.20
895.87	215.01
896.18	215.05
896.48	215.06
896.79	215.03
897.10	215.10
897.40	215.15
897.71	215.16
898.01	215.15
898.32	215.18
898.63	215.17
898.93	215.20
899.24	215.20
899.54	215.15
899.85	215.11
900.15	215.09
900.46	215.10
900.76	215.11
901.07	215.12
901.38	215.11
901.68	215.14
901.99	215.04
902.29	215.10
902.60	215.08
902.90	215.08
903.21	215.08
903.51	215.03
903.82	215.08
904.12	215.11
904.43	215.14
904.73	215.11
905.03	215.12
905.34	215.28
905.64	215.29
905.95	215.33
906.25	215.31
906.56	215.30
906.86	215.25
907.17	215.25
907.47	215.25
907.77	215.22
908.08	215.18
908.38	215.17
908.69	215.16
908.99	215.17
909.30	215.17
909.60	215.17
909.90	215.16
910.21	215.09
910.51	215.01
910.81	215.03
911.12	215.06
911.42	215.07
911.73	214.87
912.03	214.87
912.33	214.90
912.64	214.94
912.94	214.94
913.24	214.94
913.55	214.91
913.85	214.88
914.15	214.91
914.46	214.93
914.76	214.97
915.06	214.94
915.37	214.93
915.67	214.92
915.97	214.92
916.27	214.92
916.58	214.93
916.88	214.95
917.18	214.90
917.49	215.04
917.79	215.03
918.09	215.08
918.39	215.13
918.70	215.12
919.00	215.13
919.30	215.24
919.60	215.25
919.91	215.23
920.21	215.28
920.51	215.26
920.81	215.24
921.12	215.22
921.42	215.20
921.72	215.20
922.02	215.17
922.32	215.17
922.63	215.17
922.93	215.27
923.23	215.27
923.53	215.24
923.83	215.10
924.13	215.11
924.44	215.10
924.74	215.10
925.04	215.15
925.34	215.13
925.64	215.02
925.94	215.02
926.24	215.12
926.55	215.10
926.85	215.15
927.15	215.15
927.45	215.14
927.75	215.18
928.05	215.17
928.35	215.16
928.65	215.23
928.95	215.25
929.26	215.17
929.56	215.21
929.86	215.26
930.16	215.22
930.46	215.21
930.76	215.20
931.06	215.13
931.36	215.05
931.66	215.09
931.96	215.12
932.26	215.13
932.56	215.04
932.86	215.01
933.16	214.98
933.46	214.94
933.76	214.94
934.06	214.97
934.36	215.04
934.66	215.06
934.96	215.03
935.26	215.03
935.56	215.07
935.86	215.00
936.16	214.95
936.46	214.97
936.76	214.97
937.06	214.95
937.36	214.99
937.66	215.02
937.96	214.97
938.26	214.94
938.56	214.93
938.86	214.97
939.16	215.04
939.46	215.08
939.76	215.11
940.06	215.12
940.35	215.08
940.65	214.99
940.95	215.00
941.25	214.96
941.55	214.96
941.85	214.94
942.15	215.02
942.45	215.09
942.75	215.09
943.04	215.11
943.34	215.13
943.64	215.08
943.94	215.06
944.24	215.08
944.54	215.09
944.84	215.11
945.13	215.08
945.43	215.03
945.73	215.02
946.03	215.02
946.33	214.99
946.62	214.96
946.92	214.93
947.22	214.92
947.52	214.96
947.82	215.00
948.11	214.95
948.41	214.93
948.71	214.89
949.01	214.90
949.31	214.87
949.60	214.86
949.90	214.88
950.20	214.89
950.50	214.90
950.79	214.88
951.09	214.88
951.39	214.88
951.69	214.86
951.98	214.91
952.28	214.91
952.58	214.92
952.87	214.92
953.17	214.97
953.47	214.95
953.76	214.93
954.06	214.87
954.36	214.86
954.66	214.84
954.95	214.86
955.25	214.86
955.55	214.89
955.84	214.86
956.14	214.89
956.44	214.88
956.73	214.83
957.03	214.83
957.32	214.84
957.62	214.81
957.92	214.87
958.21	214.84
958.51	215.09
958.81	215.10
959.10	215.12
959.40	215.18
959.69	215.21
959.99	215.24
960.29	215.23
960.58	215.23
960.88	215.30
961.17	215.29
961.47	215.32
961.76	215.31
962.06	215.35
962.36	215.31
962.65	215.31
962.95	215.32
963.24	215.33
963.54	215.36
963.83	215.39
964.13	215.36
964.42	215.29
964.72	215.12
965.01	215.14
965.31	215.12
965.60	215.05
965.90	215.17
966.19	215.11
966.49	215.12
966.78	215.11
967.08	215.09
967.37	215.06
967.67	214.98
967.96	215.01
968.26	214.99
968.55	215.02
968.85	215.04
969.14	215.03
969.43	215.00
969.73	214.97
970.02	214.95
970.32	214.94
970.61	214.93
970.91	214.86
971.20	214.85
971.49	214.84
971.79	214.86
972.08	214.70
972.38	214.72
972.67	214.72
972.96	214.76
973.26	214.71
973.55	214.79
973.85	214.81
974.14	214.79
974.43	214.82
974.73	214.76
975.02	214.72
975.31	214.72
975.61	214.74
975.90	214.72
976.19	214.70
976.49	214.73
976.78	214.76
977.07	214.74
977.37	214.72
977.66	214.74
977.95	214.72
978.24	214.77
978.54	214.83
978.83	214.82
979.12	214.80
979.42	214.80
979.71	214.75
980.00	214.72
980.29	214.75
980.59	214.69
980.88	214.78
981.17	214.79
981.46	214.80
981.76	214.82
982.05	214.87
982.34	214.88
982.63	214.85
982.93	214.83
983.22	214.88
983.51	214.89
983.80	214.91
984.09	214.92
984.39	214.90
984.68	214.87
984.97	214.89
985.26	214.87
985.55	214.89
985.85	214.86
986.14	214.93
986.43	214.91
986.72	214.91
987.01	214.84
987.30	214.84
987.59	214.82
987.89	214.81
988.18	214.75
988.47	214.73
988.76	214.71
989.05	214.70
989.34	214.69
989.63	214.79
989.92	214.76
990.22	214.75
990.51	214.76
990.80	214.72
991.09	214.73
991.38	214.76
991.67	214.74
991.96	214.73
992.25	214.74
992.54	214.71
992.83	214.75
993.12	214.75
993.41	214.77
993.70	214.84
993.99	214.86
994.28	214.87
994.58	214.91
994.87	214.92
995.16	214.93
995.45	214.92
995.74	214.79
996.03	214.84
996.32	214.87
996.61	214.88
996.90	214.88
997.19	214.85
997.48	214.85
997.77	214.82
998.06	214.78
998.34	214.75
998.63	214.80
998.92	214.77
999.21	214.80
999.50	214.80
999.79	214.75
1000.08	214.75
1000.37	214.78
1000.66	214.76
1000.95	214.80
1001.24	214.80
1001.53	214.83
1001.82	214.87
1002.11	214.79
1002.40	214.82
1002.68	214.84
1002.97	214.99
1003.26	214.97
1003.55	214.98
1003.84	215.02
1004.13	215.12
1004.42	215.07
1004.71	215.05
1004.99	215.07
1005.28	215.14
1005.57	215.15
1005.86	215.10
1006.15	215.06
1006.44	215.01
1006.72	215.03
1007.01	215.02
1007.30	215.04
1007.59	215.00
1007.88	214.98
1008.17	215.00
1008.45	214.95
1008.74	214.89
1009.03	214.83
1009.32	214.81
1009.60	214.79
1009.89	214.78
1010.18	214.76
1010.47	214.79
1010.76	214.78
1011.04	214.74
1011.33	214.72
1011.62	214.73
1011.91	214.78
1012.19	214.81
1012.48	214.85
1012.77	214.86
1013.05	214.94
1013.34	214.93
1013.63	214.89
1013.92	214.94
1014.20	214.92
1014.49	214.93
1014.78	214.94
1015.06	214.86
1015.35	214.89
1015.64	214.91
1015.92	214.95
1016.21	214.91
1016.50	214.90
1016.78	214.91
1017.07	214.93
1017.36	214.86
1017.64	214.85
1017.93	214.85
1018.22	214.81
1018.50	214.79
1018.79	214.76
1019.08	214.63
1019.36	214.61
1019.65	214.64
1019.93	214.68
1020.22	214.73
1020.51	214.82
1020.79	214.80
1021.08	214.55
1021.36	214.36
1021.65	214.52
1021.94	214.28
1022.22	214.28
1022.51	214.73
1022.79	216.08
1023.08	215.22
1023.36	216.91
1023.65	214.36
>>>>>End Processed Spectral Data<<<<<
