SpectraSuite Data File
++++++++++++++++++++++++++++++++++++
Date: Tue Jan 29 15:56:24 EST 2013
User: group
Dark Spectrum Present: No
Reference Spectrum Present: No
Number of Sampled Component Spectra: 1
Spectrometers: USB2E7196
Integration Time (usec): 65000 (USB2E7196)
Spectra Averaged: 100 (USB2E7196)
Boxcar Smoothing: 10 (USB2E7196)
Correct for Electrical Dark: No (USB2E7196)
Strobe/Lamp Enabled: No (USB2E7196)
Correct for Detector Non-linearity: No (USB2E7196)
Correct for Stray Light: No (USB2E7196)
Number of Pixels in Processed Spectrum: 2048
>>>>>Begin Processed Spectral Data<<<<<
339.09	0.00
339.48	203.31
339.86	204.60
340.24	205.79
340.63	207.67
341.01	211.84
341.39	210.02
341.78	211.71
342.16	212.53
342.54	213.12
342.93	202.24
343.31	212.45
343.69	213.00
344.07	213.46
344.46	213.89
344.84	214.28
345.22	214.47
345.60	214.74
345.99	214.95
346.37	215.11
346.75	215.20
347.13	215.28
347.52	215.34
347.90	215.44
348.28	215.47
348.66	215.53
349.05	215.53
349.43	215.58
349.81	215.65
350.19	215.71
350.57	215.77
350.96	215.83
351.34	215.93
351.72	215.97
352.10	216.08
352.48	216.14
352.87	216.16
353.25	216.21
353.63	216.26
354.01	216.28
354.39	216.34
354.77	216.43
355.15	216.57
355.54	216.60
355.92	216.59
356.30	216.67
356.68	216.86
357.06	216.92
357.44	216.96
357.82	217.00
358.20	217.06
358.58	217.08
358.97	217.12
359.35	217.25
359.73	217.37
360.11	217.40
360.49	217.49
360.87	217.55
361.25	217.60
361.63	217.71
362.01	217.76
362.39	217.79
362.77	217.84
363.15	217.80
363.53	217.87
363.91	217.89
364.29	217.91
364.67	217.74
365.05	217.75
365.43	217.80
365.81	217.82
366.19	217.91
366.57	218.06
366.95	218.09
367.33	217.99
367.71	217.97
368.09	218.04
368.47	217.99
368.85	217.97
369.23	218.01
369.61	217.92
369.99	217.99
370.37	218.00
370.75	218.07
371.13	218.05
371.51	217.99
371.89	218.02
372.27	218.02
372.65	218.01
373.03	218.00
373.41	217.97
373.78	217.96
374.16	217.83
374.54	217.71
374.92	217.67
375.30	217.67
375.68	217.61
376.06	217.60
376.44	217.60
376.82	217.58
377.19	217.53
377.57	217.49
377.95	217.37
378.33	217.31
378.71	217.16
379.09	217.17
379.47	217.17
379.84	217.07
380.22	217.04
380.60	217.00
380.98	216.92
381.36	216.86
381.73	216.77
382.11	216.80
382.49	216.74
382.87	216.68
383.25	216.63
383.62	216.84
384.00	216.75
384.38	216.72
384.76	216.73
385.13	216.76
385.51	216.74
385.89	216.66
386.27	216.66
386.64	216.67
387.02	216.58
387.40	216.56
387.78	216.55
388.15	216.52
388.53	216.48
388.91	216.46
389.29	216.40
389.66	216.42
390.04	216.35
390.42	216.39
390.79	216.37
391.17	216.39
391.55	216.14
391.92	216.11
392.30	216.10
392.68	216.07
393.05	216.05
393.43	216.07
393.81	216.09
394.18	216.04
394.56	216.06
394.94	216.11
395.31	216.07
395.69	216.18
396.06	216.20
396.44	216.22
396.82	216.25
397.19	216.40
397.57	216.38
397.95	216.46
398.32	216.42
398.70	216.51
399.07	216.54
399.45	216.56
399.82	216.60
400.20	216.67
400.58	216.69
400.95	216.67
401.33	216.77
401.70	217.01
402.08	217.12
402.45	217.17
402.83	217.31
403.20	217.44
403.58	217.49
403.95	217.64
404.33	217.80
404.71	217.90
405.08	218.17
405.46	218.35
405.83	218.55
406.21	218.78
406.58	218.97
406.96	219.22
407.33	219.45
407.70	219.74
408.08	220.15
408.45	220.51
408.83	220.92
409.20	221.23
409.58	221.48
409.95	221.94
410.33	222.43
410.70	222.79
411.08	223.31
411.45	223.87
411.82	224.41
412.20	225.08
412.57	225.91
412.95	226.43
413.32	227.25
413.69	228.08
414.07	228.93
414.44	229.85
414.82	230.81
415.19	231.97
415.56	233.14
415.94	234.31
416.31	235.63
416.68	236.97
417.06	238.53
417.43	240.01
417.81	241.65
418.18	243.37
418.55	245.24
418.93	247.16
419.30	249.15
419.67	251.30
420.04	253.48
420.42	255.75
420.79	258.44
421.16	261.09
421.54	263.84
421.91	266.71
422.28	269.68
422.66	272.85
423.03	275.97
423.40	279.14
423.77	282.54
424.15	286.08
424.52	289.73
424.89	293.70
425.26	297.61
425.64	301.36
426.01	305.46
426.38	309.78
426.75	314.13
427.13	318.70
427.50	323.44
427.87	328.45
428.24	333.44
428.61	338.26
428.99	343.60
429.36	349.35
429.73	355.01
430.10	360.69
430.47	366.48
430.85	372.59
431.22	379.04
431.59	385.92
431.96	392.46
432.33	399.70
432.70	406.68
433.08	414.89
433.45	422.60
433.82	430.30
434.19	438.81
434.56	447.17
434.93	455.13
435.30	463.12
435.68	471.84
436.05	480.46
436.42	489.05
436.79	496.78
437.16	505.27
437.53	514.16
437.90	522.88
438.27	531.47
438.64	540.30
439.01	548.60
439.38	555.86
439.75	562.90
440.13	570.89
440.50	578.43
440.87	584.53
441.24	590.85
441.61	597.94
441.98	603.12
442.35	609.18
442.72	615.23
443.09	620.99
443.46	624.55
443.83	626.93
444.20	628.93
444.57	631.94
444.94	633.21
445.31	634.58
445.68	635.90
446.05	636.49
446.42	635.68
446.79	634.64
447.16	633.55
447.53	632.80
447.90	629.61
448.27	626.50
448.64	622.05
449.01	618.86
449.37	613.19
449.74	607.73
450.11	601.08
450.48	594.01
450.85	586.87
451.22	580.70
451.59	574.83
451.96	569.25
452.33	561.71
452.70	554.90
453.07	546.81
453.43	538.63
453.80	530.72
454.17	523.08
454.54	515.84
454.91	508.02
455.28	500.42
455.65	493.34
456.02	486.23
456.38	480.24
456.75	472.81
457.12	466.51
457.49	460.31
457.86	454.44
458.23	449.30
458.59	443.71
458.96	437.98
459.33	432.94
459.70	427.82
460.07	423.75
460.43	419.11
460.80	414.71
461.17	410.90
461.54	406.86
461.91	403.00
462.27	399.09
462.64	395.79
463.01	392.11
463.38	388.59
463.74	385.00
464.11	381.87
464.48	379.11
464.85	376.11
465.21	373.76
465.58	371.25
465.95	368.28
466.32	365.76
466.68	363.23
467.05	360.74
467.42	358.29
467.78	355.77
468.15	353.33
468.52	351.51
468.88	349.14
469.25	347.07
469.62	345.41
469.98	343.60
470.35	341.92
470.72	340.36
471.08	338.71
471.45	337.30
471.82	335.86
472.18	334.26
472.55	333.14
472.92	331.80
473.28	330.62
473.65	329.53
474.02	328.45
474.38	327.68
474.75	327.01
475.11	326.29
475.48	325.75
475.85	325.36
476.21	324.91
476.58	324.58
476.94	324.35
477.31	324.08
477.67	323.86
478.04	323.72
478.41	323.69
478.77	323.86
479.14	323.84
479.50	323.99
479.87	324.31
480.23	324.66
480.60	324.97
480.96	325.31
481.33	325.95
481.69	326.55
482.06	327.10
482.42	327.57
482.79	328.19
483.15	328.97
483.52	329.90
483.88	330.81
484.25	331.77
484.61	332.83
484.98	333.90
485.34	335.20
485.71	336.57
486.07	338.00
486.44	339.27
486.80	340.89
487.17	342.56
487.53	344.36
487.90	346.22
488.26	348.31
488.62	350.45
488.99	352.40
489.35	354.54
489.72	356.91
490.08	359.41
490.44	361.98
490.81	364.71
491.17	367.46
491.54	370.45
491.90	373.40
492.26	376.61
492.63	379.97
492.99	383.47
493.36	387.22
493.72	391.10
494.08	395.14
494.45	399.33
494.81	403.66
495.17	408.13
495.54	412.84
495.90	417.54
496.26	422.44
496.63	427.71
496.99	433.11
497.35	438.56
497.72	444.36
498.08	450.26
498.44	456.32
498.80	462.68
499.17	469.17
499.53	475.89
499.89	482.75
500.26	489.76
500.62	496.77
500.98	504.05
501.34	511.44
501.71	519.14
502.07	526.84
502.43	534.80
502.79	542.93
503.16	551.28
503.52	559.85
503.88	568.55
504.24	577.40
504.60	586.38
504.97	595.65
505.33	604.92
505.69	614.78
506.05	624.68
506.41	634.47
506.78	644.45
507.14	654.70
507.50	665.10
507.86	675.72
508.22	686.47
508.59	697.14
508.95	708.21
509.31	719.42
509.67	730.89
510.03	742.31
510.39	754.00
510.75	765.81
511.12	777.73
511.48	789.75
511.84	801.93
512.20	814.23
512.56	826.83
512.92	839.53
513.28	852.02
513.64	864.62
514.00	877.37
514.37	890.22
514.73	903.15
515.09	916.00
515.45	928.68
515.81	941.56
516.17	954.77
516.53	967.75
516.89	980.64
517.25	993.68
517.61	1006.87
517.97	1019.98
518.33	1032.91
518.69	1046.15
519.05	1059.67
519.41	1073.19
519.77	1086.83
520.13	1099.83
520.49	1112.74
520.85	1125.99
521.21	1139.06
521.57	1152.36
521.93	1165.24
522.29	1178.74
522.65	1192.20
523.01	1205.65
523.37	1218.60
523.73	1231.68
524.09	1244.69
524.45	1257.86
524.81	1271.07
525.17	1284.29
525.53	1297.22
525.89	1310.15
526.25	1323.05
526.61	1335.63
526.97	1348.45
527.33	1361.18
527.68	1374.31
528.04	1387.53
528.40	1400.21
528.76	1413.15
529.12	1425.86
529.48	1438.74
529.84	1450.68
530.20	1463.11
530.56	1475.37
530.91	1488.32
531.27	1500.75
531.63	1513.17
531.99	1525.62
532.35	1537.45
532.71	1549.45
533.07	1561.96
533.42	1573.86
533.78	1585.46
534.14	1597.23
534.50	1608.09
534.86	1619.23
535.21	1629.87
535.57	1641.00
535.93	1651.96
536.29	1662.72
536.65	1673.76
537.00	1684.41
537.36	1695.39
537.72	1705.86
538.08	1716.86
538.44	1727.39
538.79	1738.10
539.15	1748.50
539.51	1758.84
539.87	1769.90
540.22	1780.43
540.58	1790.98
540.94	1801.52
541.29	1811.51
541.65	1820.79
542.01	1830.86
542.37	1840.64
542.72	1850.44
543.08	1859.80
543.44	1869.83
543.79	1879.00
544.15	1888.08
544.51	1897.73
544.87	1907.21
545.22	1916.07
545.58	1924.64
545.94	1933.11
546.29	1941.29
546.65	1949.41
547.01	1957.33
547.36	1964.61
547.72	1971.92
548.07	1979.18
548.43	1986.62
548.79	1994.16
549.14	2001.99
549.50	2010.10
549.86	2017.55
550.21	2024.60
550.57	2032.00
550.92	2038.57
551.28	2045.59
551.64	2052.69
551.99	2059.99
552.35	2066.93
552.70	2073.59
553.06	2079.89
553.41	2085.95
553.77	2092.30
554.13	2098.37
554.48	2105.28
554.84	2112.11
555.19	2118.39
555.55	2124.90
555.90	2131.00
556.26	2137.73
556.61	2143.51
556.97	2148.17
557.32	2153.93
557.68	2160.26
558.03	2165.87
558.39	2170.88
558.74	2176.71
559.10	2182.22
559.45	2187.61
559.81	2193.08
560.16	2198.54
560.52	2204.46
560.87	2210.91
561.23	2216.80
561.58	2223.57
561.94	2228.59
562.29	2233.53
562.64	2239.84
563.00	2245.38
563.35	2251.08
563.71	2256.88
564.06	2262.57
564.42	2268.58
564.77	2273.63
565.12	2278.71
565.48	2284.09
565.83	2289.96
566.19	2295.66
566.54	2300.93
566.89	2305.67
567.25	2310.43
567.60	2316.22
567.96	2321.53
568.31	2326.23
568.66	2330.55
569.02	2334.41
569.37	2338.31
569.72	2342.67
570.08	2346.10
570.43	2349.22
570.78	2352.26
571.14	2354.82
571.49	2358.20
571.84	2361.95
572.20	2364.86
572.55	2368.14
572.90	2370.31
573.26	2373.29
573.61	2375.83
573.96	2378.21
574.31	2380.13
574.67	2382.03
575.02	2383.04
575.37	2384.57
575.72	2385.50
576.08	2387.02
576.43	2387.45
576.78	2388.46
577.13	2390.43
577.49	2391.75
577.84	2393.26
578.19	2395.10
578.54	2396.10
578.90	2397.28
579.25	2397.35
579.60	2397.77
579.95	2397.35
580.30	2398.02
580.66	2397.50
581.01	2396.03
581.36	2394.10
581.71	2393.23
582.06	2392.58
582.42	2392.06
582.77	2390.23
583.12	2388.96
583.47	2388.34
583.82	2388.13
584.17	2386.87
584.53	2384.86
584.88	2383.06
585.23	2381.34
585.58	2379.12
585.93	2377.18
586.28	2375.24
586.63	2373.17
586.98	2371.39
587.34	2369.77
587.69	2367.52
588.04	2365.87
588.39	2364.68
588.74	2362.43
589.09	2360.17
589.44	2357.37
589.79	2355.14
590.14	2353.49
590.49	2350.80
590.84	2347.03
591.19	2344.16
591.54	2341.17
591.89	2337.34
592.25	2334.43
592.60	2330.37
592.95	2326.44
593.30	2322.63
593.65	2318.21
594.00	2314.10
594.35	2311.04
594.70	2306.58
595.05	2302.18
595.40	2296.81
595.75	2291.40
596.10	2287.94
596.45	2283.08
596.80	2278.61
597.15	2273.52
597.50	2267.78
597.85	2262.91
598.19	2257.74
598.54	2252.09
598.89	2247.20
599.24	2242.86
599.59	2236.88
599.94	2231.39
600.29	2225.72
600.64	2219.82
600.99	2213.36
601.34	2208.04
601.69	2201.14
602.04	2194.89
602.39	2188.48
602.74	2182.62
603.08	2177.17
603.43	2170.72
603.78	2164.03
604.13	2156.88
604.48	2149.78
604.83	2143.79
605.18	2137.59
605.53	2130.86
605.87	2123.90
606.22	2117.17
606.57	2109.31
606.92	2101.57
607.27	2094.64
607.62	2088.18
607.96	2081.36
608.31	2074.97
608.66	2067.16
609.01	2059.71
609.36	2052.64
609.70	2045.00
610.05	2037.22
610.40	2029.09
610.75	2020.94
611.10	2013.42
611.44	2004.89
611.79	1996.18
612.14	1986.16
612.49	1975.79
612.83	1966.41
613.18	1957.42
613.53	1948.15
613.88	1938.76
614.22	1930.19
614.57	1920.46
614.92	1909.87
615.27	1899.81
615.61	1889.87
615.96	1880.30
616.31	1870.81
616.65	1861.40
617.00	1851.47
617.35	1841.79
617.70	1832.02
618.04	1821.95
618.39	1811.69
618.74	1802.03
619.08	1792.53
619.43	1783.89
619.78	1775.70
620.12	1767.02
620.47	1757.19
620.82	1746.84
621.16	1736.98
621.51	1726.97
621.85	1716.93
622.20	1706.40
622.55	1695.67
622.89	1685.79
623.24	1676.04
623.59	1666.21
623.93	1656.06
624.28	1646.42
624.62	1636.27
624.97	1625.87
625.32	1616.25
625.66	1607.52
626.01	1598.48
626.35	1588.94
626.70	1578.82
627.04	1568.55
627.39	1558.56
627.73	1549.26
628.08	1540.23
628.43	1530.59
628.77	1521.33
629.12	1512.53
629.46	1504.71
629.81	1496.35
630.15	1486.64
630.50	1476.73
630.84	1466.19
631.19	1456.36
631.53	1446.95
631.88	1436.91
632.22	1426.94
632.57	1417.41
632.91	1407.01
633.26	1397.27
633.60	1387.73
633.95	1378.27
634.29	1368.93
634.64	1359.56
634.98	1349.58
635.32	1340.28
635.67	1331.71
636.01	1322.38
636.36	1312.57
636.70	1302.98
637.05	1293.56
637.39	1284.58
637.73	1275.99
638.08	1268.45
638.42	1260.06
638.77	1251.24
639.11	1242.85
639.45	1235.03
639.80	1226.42
640.14	1217.82
640.49	1208.89
640.83	1200.12
641.17	1192.08
641.52	1183.79
641.86	1175.15
642.20	1167.20
642.55	1158.53
642.89	1149.56
643.23	1140.94
643.58	1132.79
643.92	1123.71
644.26	1115.09
644.61	1106.65
644.95	1097.80
645.29	1088.55
645.64	1079.44
645.98	1071.03
646.32	1063.13
646.66	1054.56
647.01	1046.08
647.35	1037.88
647.69	1029.52
648.04	1021.15
648.38	1012.15
648.72	1003.26
649.06	994.83
649.41	986.70
649.75	978.78
650.09	971.02
650.43	962.93
650.78	954.67
651.12	947.07
651.46	939.62
651.80	932.36
652.14	925.11
652.49	917.53
652.83	910.21
653.17	902.52
653.51	894.94
653.85	887.74
654.20	880.60
654.54	873.04
654.88	865.90
655.22	858.75
655.56	851.89
655.90	845.26
656.25	838.63
656.59	831.69
656.93	824.67
657.27	817.62
657.61	810.84
657.95	804.75
658.29	798.93
658.64	792.80
658.98	786.39
659.32	779.84
659.66	773.67
660.00	767.39
660.34	761.33
660.68	755.28
661.02	749.07
661.36	743.24
661.70	737.58
662.05	731.89
662.39	726.40
662.73	721.04
663.07	715.63
663.41	710.10
663.75	704.50
664.09	699.00
664.43	693.66
664.77	688.33
665.11	682.70
665.45	676.82
665.79	671.08
666.13	665.51
666.47	660.07
666.81	654.72
667.15	649.45
667.49	644.39
667.83	639.17
668.17	633.98
668.51	628.93
668.85	624.10
669.19	619.28
669.53	614.39
669.87	609.39
670.21	604.75
670.55	600.12
670.89	595.83
671.23	591.53
671.57	587.19
671.91	582.95
672.25	578.80
672.58	574.70
672.92	570.72
673.26	566.78
673.60	563.02
673.94	559.32
674.28	555.70
674.62	551.95
674.96	548.31
675.30	544.84
675.64	541.17
675.97	537.65
676.31	534.07
676.65	530.52
676.99	527.09
677.33	523.36
677.67	519.72
678.01	515.91
678.34	512.36
678.68	508.89
679.02	505.29
679.36	501.68
679.70	498.15
680.04	494.77
680.37	491.41
680.71	488.14
681.05	485.00
681.39	481.89
681.73	478.78
682.06	475.78
682.40	472.72
682.74	469.61
683.08	466.46
683.42	463.41
683.75	460.47
684.09	457.51
684.43	454.73
684.77	451.86
685.10	449.11
685.44	446.21
685.78	443.37
686.12	440.71
686.45	438.01
686.79	435.42
687.13	432.87
687.46	430.29
687.80	427.72
688.14	424.98
688.48	422.42
688.81	419.81
689.15	417.31
689.49	414.76
689.82	412.27
690.16	409.72
690.50	407.35
690.83	404.88
691.17	402.42
691.51	399.99
691.84	397.84
692.18	395.69
692.52	393.53
692.85	391.43
693.19	389.30
693.52	387.20
693.86	385.02
694.20	382.93
694.53	380.88
694.87	378.70
695.21	376.60
695.54	374.46
695.88	372.43
696.21	370.28
696.55	368.20
696.88	366.24
697.22	364.34
697.56	362.47
697.89	360.69
698.23	358.99
698.56	357.30
698.90	355.56
699.23	353.67
699.57	351.85
699.90	350.07
700.24	348.28
700.58	346.56
700.91	344.95
701.25	343.43
701.58	341.85
701.92	340.30
702.25	338.73
702.59	337.19
702.92	335.70
703.26	334.19
703.59	332.78
703.93	331.57
704.26	330.17
704.60	328.67
704.93	327.20
705.26	325.74
705.60	324.27
705.93	322.84
706.27	321.56
706.60	320.35
706.94	319.15
707.27	317.84
707.61	316.58
707.94	315.27
708.27	313.80
708.61	312.41
708.94	311.09
709.28	309.83
709.61	308.62
709.94	307.41
710.28	306.28
710.61	305.14
710.95	303.73
711.28	302.70
711.61	301.58
711.95	300.51
712.28	299.33
712.61	298.20
712.95	297.18
713.28	296.17
713.61	295.06
713.95	293.94
714.28	292.97
714.61	291.89
714.95	290.92
715.28	289.94
715.61	288.93
715.95	288.07
716.28	287.15
716.61	286.21
716.95	285.24
717.28	284.31
717.61	283.40
717.94	282.55
718.28	281.54
718.61	280.71
718.94	279.87
719.27	279.08
719.61	278.30
719.94	277.41
720.27	276.51
720.60	275.67
720.94	274.91
721.27	274.22
721.60	273.59
721.93	272.87
722.27	272.25
722.60	271.64
722.93	270.91
723.26	270.24
723.59	269.61
723.93	269.02
724.26	268.39
724.59	267.75
724.92	267.18
725.25	266.65
725.59	266.07
725.92	265.53
726.25	264.99
726.58	264.42
726.91	263.86
727.24	263.33
727.57	262.82
727.91	262.18
728.24	261.60
728.57	261.05
728.90	260.54
729.23	259.95
729.56	259.52
729.89	258.97
730.22	258.46
730.55	257.90
730.89	257.39
731.22	256.91
731.55	256.39
731.88	255.93
732.21	255.40
732.54	254.89
732.87	254.40
733.20	253.92
733.53	253.47
733.86	253.04
734.19	252.57
734.52	252.15
734.85	251.89
735.18	251.46
735.51	251.08
735.84	250.65
736.17	250.28
736.50	249.80
736.83	249.67
737.16	249.31
737.49	248.96
737.82	248.56
738.15	248.18
738.48	247.84
738.81	247.43
739.14	247.06
739.47	246.68
739.80	246.32
740.13	245.99
740.46	245.64
740.79	245.22
741.12	244.91
741.45	244.57
741.78	244.19
742.11	243.94
742.44	243.53
742.77	243.26
743.10	242.89
743.43	242.57
743.75	242.00
744.08	241.93
744.41	241.57
744.74	241.23
745.07	240.89
745.40	240.60
745.73	240.35
746.06	240.05
746.39	239.82
746.71	239.49
747.04	239.16
747.37	238.83
747.70	238.64
748.03	238.34
748.36	238.06
748.68	237.74
749.01	237.38
749.34	237.17
749.67	236.87
750.00	236.64
750.33	236.51
750.65	236.32
750.98	235.82
751.31	235.60
751.64	235.42
751.97	235.32
752.29	235.06
752.62	234.72
752.95	234.45
753.28	234.16
753.60	233.95
753.93	233.79
754.26	233.59
754.59	233.33
754.91	233.10
755.24	232.91
755.57	232.69
755.90	232.50
756.22	232.25
756.55	232.03
756.88	231.80
757.20	231.48
757.53	231.22
757.86	230.98
758.19	230.81
758.51	230.57
758.84	230.29
759.17	230.11
759.49	229.96
759.82	229.92
760.15	229.80
760.47	229.59
760.80	229.36
761.13	229.21
761.45	229.02
761.78	228.84
762.11	228.62
762.43	228.47
762.76	228.26
763.08	228.14
763.41	227.98
763.74	227.83
764.06	227.65
764.39	227.48
764.71	227.34
765.04	227.12
765.37	226.98
765.69	226.85
766.02	226.69
766.34	226.56
766.67	226.35
767.00	226.22
767.32	226.21
767.65	226.22
767.97	226.07
768.30	225.95
768.62	225.85
768.95	225.75
769.27	225.57
769.60	225.50
769.92	225.35
770.25	225.19
770.57	225.02
770.90	224.90
771.22	224.80
771.55	224.71
771.87	224.67
772.20	224.55
772.52	224.60
772.85	224.76
773.17	224.61
773.50	224.47
773.82	224.35
774.15	224.15
774.47	223.92
774.80	223.79
775.12	223.69
775.45	223.58
775.77	223.48
776.09	223.44
776.42	223.37
776.74	223.34
777.07	223.25
777.39	223.25
777.72	223.16
778.04	223.09
778.36	222.99
778.69	222.89
779.01	222.84
779.33	222.58
779.66	222.28
779.98	222.23
780.31	222.17
780.63	222.14
780.95	222.11
781.28	222.01
781.60	221.95
781.92	221.88
782.25	221.83
782.57	221.76
782.89	221.66
783.22	221.57
783.54	221.42
783.86	221.38
784.19	221.29
784.51	221.29
784.83	221.23
785.16	221.15
785.48	221.10
785.80	221.05
786.12	220.99
786.45	220.94
786.77	220.91
787.09	220.83
787.42	220.71
787.74	220.65
788.06	220.63
788.38	220.55
788.71	220.50
789.03	220.44
789.35	220.40
789.67	220.33
789.99	220.30
790.32	220.24
790.64	220.24
790.96	220.33
791.28	220.21
791.61	220.13
791.93	220.12
792.25	220.04
792.57	220.14
792.89	220.06
793.21	220.03
793.54	219.93
793.86	219.87
794.18	219.83
794.50	219.76
794.82	219.75
795.14	219.75
795.47	219.70
795.79	219.65
796.11	219.57
796.43	219.52
796.75	219.46
797.07	219.44
797.39	219.35
797.71	219.16
798.04	219.12
798.36	219.09
798.68	219.06
799.00	219.02
799.32	218.87
799.64	218.90
799.96	218.87
800.28	218.91
800.60	218.88
800.92	218.87
801.24	218.83
801.56	218.76
801.89	218.70
802.21	218.73
802.53	218.67
802.85	218.70
803.17	218.79
803.49	218.71
803.81	218.68
804.13	218.64
804.45	218.60
804.77	218.60
805.09	218.56
805.41	218.48
805.73	218.42
806.05	218.34
806.37	218.25
806.69	218.20
807.01	218.15
807.33	218.13
807.65	218.06
807.97	218.12
808.28	218.11
808.60	218.07
808.92	217.97
809.24	218.09
809.56	218.02
809.88	217.93
810.20	217.96
810.52	217.96
810.84	217.92
811.16	217.88
811.48	217.82
811.80	217.89
812.12	217.88
812.43	217.88
812.75	217.87
813.07	217.84
813.39	217.83
813.71	217.76
814.03	217.72
814.35	217.70
814.67	217.56
814.98	217.53
815.30	217.51
815.62	217.46
815.94	217.30
816.26	217.28
816.58	217.20
816.89	217.14
817.21	217.09
817.53	217.09
817.85	217.09
818.17	217.06
818.48	216.98
818.80	217.00
819.12	216.94
819.44	216.89
819.76	216.85
820.07	216.81
820.39	216.79
820.71	216.77
821.03	216.76
821.34	216.75
821.66	216.74
821.98	216.73
822.30	216.75
822.61	216.83
822.93	216.81
823.25	216.80
823.57	216.77
823.88	216.81
824.20	216.81
824.52	216.83
824.83	216.81
825.15	216.77
825.47	216.73
825.79	216.75
826.10	216.72
826.42	216.71
826.74	216.75
827.05	216.74
827.37	216.73
827.69	216.70
828.00	216.71
828.32	216.69
828.64	216.65
828.95	216.74
829.27	216.69
829.58	216.69
829.90	216.72
830.22	216.72
830.53	216.60
830.85	216.55
831.17	216.47
831.48	216.45
831.80	216.45
832.11	216.46
832.43	216.42
832.75	216.40
833.06	216.52
833.38	216.45
833.69	216.46
834.01	216.45
834.32	216.46
834.64	216.45
834.96	216.45
835.27	216.46
835.59	216.38
835.90	216.36
836.22	216.31
836.53	216.27
836.85	216.27
837.16	216.48
837.48	216.48
837.79	216.56
838.11	216.58
838.42	216.58
838.74	216.59
839.05	216.57
839.37	216.60
839.68	216.47
840.00	216.43
840.31	216.44
840.63	216.44
840.94	216.38
841.26	216.34
841.57	216.35
841.88	216.36
842.20	216.32
842.51	216.28
842.83	216.29
843.14	216.47
843.46	216.50
843.77	216.40
844.08	216.39
844.40	216.32
844.71	216.28
845.03	216.25
845.34	216.23
845.65	216.23
845.97	216.23
846.28	216.21
846.60	216.23
846.91	216.20
847.22	216.19
847.54	216.24
847.85	216.25
848.16	216.21
848.48	216.17
848.79	216.24
849.10	216.25
849.42	216.25
849.73	216.03
850.04	215.98
850.36	215.87
850.67	215.91
850.98	215.91
851.30	215.96
851.61	215.96
851.92	215.93
852.23	216.01
852.55	216.00
852.86	216.02
853.17	216.04
853.49	216.08
853.80	216.11
854.11	216.15
854.42	216.15
854.74	216.13
855.05	216.14
855.36	216.05
855.67	216.05
855.99	216.04
856.30	216.30
856.61	216.31
856.92	216.33
857.23	216.29
857.55	216.27
857.86	216.22
858.17	216.23
858.48	216.20
858.79	216.14
859.11	216.16
859.42	216.16
859.73	216.13
860.04	216.10
860.35	216.02
860.66	215.95
860.98	215.94
861.29	215.95
861.60	215.91
861.91	215.95
862.22	215.94
862.53	215.91
862.84	215.68
863.16	215.69
863.47	215.66
863.78	215.67
864.09	215.67
864.40	215.68
864.71	215.68
865.02	215.71
865.33	215.68
865.64	215.63
865.95	215.60
866.27	215.72
866.58	215.70
866.89	215.75
867.20	215.74
867.51	215.70
867.82	215.70
868.13	215.78
868.44	215.73
868.75	215.72
869.06	215.73
869.37	215.73
869.68	215.69
869.99	215.70
870.30	215.69
870.61	215.70
870.92	215.66
871.23	215.59
871.54	215.60
871.85	215.62
872.16	215.64
872.47	215.61
872.78	215.48
873.09	215.50
873.40	215.47
873.71	215.47
874.02	215.50
874.33	215.49
874.64	215.43
874.95	215.46
875.26	215.44
875.56	215.43
875.87	215.44
876.18	215.40
876.49	215.60
876.80	215.58
877.11	215.55
877.42	215.56
877.73	215.57
878.04	215.56
878.35	215.56
878.66	215.59
878.96	215.60
879.27	215.60
879.58	215.59
879.89	215.58
880.20	215.61
880.51	215.60
880.82	215.57
881.12	215.58
881.43	215.51
881.74	215.49
882.05	215.48
882.36	215.47
882.67	215.51
882.97	215.31
883.28	215.30
883.59	215.31
883.90	215.35
884.21	215.39
884.51	215.38
884.82	215.35
885.13	215.35
885.44	215.34
885.74	215.34
886.05	215.31
886.36	215.31
886.67	215.23
886.98	215.33
887.28	215.38
887.59	215.40
887.90	215.41
888.20	215.41
888.51	215.47
888.82	215.45
889.13	215.48
889.43	215.63
889.74	215.61
890.05	215.62
890.35	215.62
890.66	215.62
890.97	215.60
891.28	215.58
891.58	215.57
891.89	215.57
892.20	215.56
892.50	215.52
892.81	215.52
893.12	215.55
893.42	215.42
893.73	215.41
894.04	215.37
894.34	215.42
894.65	215.41
894.95	215.36
895.26	215.38
895.57	215.45
895.87	215.22
896.18	215.30
896.48	215.31
896.79	215.25
897.10	215.27
897.40	215.26
897.71	215.27
898.01	215.25
898.32	215.26
898.63	215.28
898.93	215.31
899.24	215.32
899.54	215.29
899.85	215.31
900.15	215.33
900.46	215.36
900.76	215.36
901.07	215.35
901.38	215.33
901.68	215.34
901.99	215.24
902.29	215.30
902.60	215.25
902.90	215.23
903.21	215.21
903.51	215.20
903.82	215.29
904.12	215.28
904.43	215.27
904.73	215.27
905.03	215.28
905.34	215.50
905.64	215.49
905.95	215.54
906.25	215.54
906.56	215.48
906.86	215.48
907.17	215.43
907.47	215.46
907.77	215.47
908.08	215.42
908.38	215.43
908.69	215.44
908.99	215.46
909.30	215.46
909.60	215.50
909.90	215.50
910.21	215.41
910.51	215.40
910.81	215.43
911.12	215.42
911.42	215.40
911.73	215.18
912.03	215.20
912.33	215.20
912.64	215.20
912.94	215.23
913.24	215.20
913.55	215.24
913.85	215.22
914.15	215.27
914.46	215.33
914.76	215.32
915.06	215.30
915.37	215.27
915.67	215.28
915.97	215.27
916.27	215.24
916.58	215.25
916.88	215.24
917.18	215.22
917.49	215.35
917.79	215.34
918.09	215.37
918.39	215.38
918.70	215.42
919.00	215.43
919.30	215.52
919.60	215.52
919.91	215.49
920.21	215.51
920.51	215.44
920.81	215.44
921.12	215.45
921.42	215.46
921.72	215.48
922.02	215.50
922.32	215.54
922.63	215.55
922.93	215.65
923.23	215.68
923.53	215.68
923.83	215.55
924.13	215.58
924.44	215.57
924.74	215.60
925.04	215.62
925.34	215.60
925.64	215.50
925.94	215.49
926.24	215.61
926.55	215.59
926.85	215.64
927.15	215.62
927.45	215.63
927.75	215.62
928.05	215.61
928.35	215.59
928.65	215.63
928.95	215.61
929.26	215.52
929.56	215.53
929.86	215.56
930.16	215.56
930.46	215.53
930.76	215.52
931.06	215.45
931.36	215.40
931.66	215.43
931.96	215.46
932.26	215.49
932.56	215.38
932.86	215.40
933.16	215.38
933.46	215.35
933.76	215.31
934.06	215.36
934.36	215.45
934.66	215.43
934.96	215.39
935.26	215.42
935.56	215.48
935.86	215.40
936.16	215.36
936.46	215.35
936.76	215.36
937.06	215.33
937.36	215.33
937.66	215.35
937.96	215.36
938.26	215.31
938.56	215.28
938.86	215.29
939.16	215.33
939.46	215.35
939.76	215.39
940.06	215.40
940.35	215.32
940.65	215.18
940.95	215.19
941.25	215.14
941.55	215.10
941.85	215.03
942.15	215.11
942.45	215.19
942.75	215.17
943.04	215.18
943.34	215.22
943.64	215.18
943.94	215.15
944.24	215.12
944.54	215.12
944.84	215.13
945.13	215.10
945.43	215.09
945.73	215.07
946.03	215.06
946.33	215.03
946.62	215.05
946.92	215.09
947.22	215.11
947.52	215.11
947.82	215.16
948.11	215.17
948.41	215.10
948.71	215.02
949.01	215.04
949.31	214.99
949.60	214.95
949.90	214.99
950.20	214.99
950.50	214.97
950.79	214.97
951.09	214.99
951.39	214.98
951.69	214.93
951.98	214.97
952.28	215.00
952.58	214.99
952.87	214.97
953.17	214.98
953.47	214.98
953.76	214.99
954.06	214.91
954.36	214.91
954.66	214.92
954.95	214.96
955.25	214.99
955.55	215.02
955.84	215.03
956.14	215.03
956.44	215.05
956.73	215.03
957.03	215.06
957.32	215.05
957.62	215.05
957.92	215.10
958.21	215.04
958.51	215.25
958.81	215.26
959.10	215.27
959.40	215.30
959.69	215.29
959.99	215.35
960.29	215.36
960.58	215.33
960.88	215.39
961.17	215.38
961.47	215.40
961.76	215.39
962.06	215.46
962.36	215.46
962.65	215.43
962.95	215.44
963.24	215.43
963.54	215.45
963.83	215.46
964.13	215.44
964.42	215.41
964.72	215.23
965.01	215.24
965.31	215.24
965.60	215.22
965.90	215.35
966.19	215.28
966.49	215.33
966.78	215.32
967.08	215.34
967.37	215.33
967.67	215.27
967.96	215.33
968.26	215.32
968.55	215.35
968.85	215.35
969.14	215.35
969.43	215.32
969.73	215.29
970.02	215.28
970.32	215.25
970.61	215.25
970.91	215.19
971.20	215.20
971.49	215.17
971.79	215.17
972.08	215.03
972.38	215.09
972.67	215.08
972.96	215.12
973.26	215.06
973.55	215.12
973.85	215.12
974.14	215.06
974.43	215.04
974.73	215.00
975.02	214.98
975.31	215.01
975.61	215.02
975.90	215.03
976.19	215.02
976.49	215.03
976.78	215.03
977.07	215.02
977.37	215.02
977.66	215.06
977.95	215.01
978.24	215.00
978.54	215.01
978.83	214.98
979.12	215.00
979.42	214.99
979.71	214.97
980.00	214.99
980.29	215.03
980.59	214.99
980.88	215.04
981.17	215.05
981.46	215.05
981.76	215.04
982.05	215.08
982.34	215.11
982.63	215.14
982.93	215.16
983.22	215.24
983.51	215.26
983.80	215.31
984.09	215.37
984.39	215.34
984.68	215.27
984.97	215.30
985.26	215.28
985.55	215.30
985.85	215.26
986.14	215.26
986.43	215.26
986.72	215.25
987.01	215.18
987.30	215.16
987.59	215.13
987.89	215.13
988.18	215.09
988.47	215.05
988.76	215.00
989.05	214.98
989.34	214.95
989.63	214.99
989.92	214.93
990.22	214.90
990.51	214.93
990.80	214.98
991.09	215.01
991.38	215.02
991.67	215.02
991.96	215.00
992.25	215.01
992.54	214.99
992.83	215.01
993.12	214.99
993.41	215.02
993.70	215.09
993.99	215.15
994.28	215.15
994.58	215.21
994.87	215.23
995.16	215.24
995.45	215.19
995.74	215.11
996.03	215.14
996.32	215.18
996.61	215.22
996.90	215.20
997.19	215.15
997.48	215.15
997.77	215.12
998.06	215.13
998.34	215.11
998.63	215.09
998.92	215.06
999.21	215.13
999.50	215.15
999.79	215.09
1000.08	215.11
1000.37	215.10
1000.66	215.06
1000.95	215.10
1001.24	215.08
1001.53	215.13
1001.82	215.12
1002.11	215.10
1002.40	215.10
1002.68	215.14
1002.97	215.28
1003.26	215.26
1003.55	215.26
1003.84	215.29
1004.13	215.34
1004.42	215.36
1004.71	215.34
1004.99	215.35
1005.28	215.36
1005.57	215.31
1005.86	215.32
1006.15	215.26
1006.44	215.27
1006.72	215.30
1007.01	215.27
1007.30	215.30
1007.59	215.28
1007.88	215.31
1008.17	215.31
1008.45	215.24
1008.74	215.14
1009.03	215.03
1009.32	215.04
1009.60	215.02
1009.89	214.99
1010.18	214.90
1010.47	214.87
1010.76	214.89
1011.04	214.89
1011.33	214.95
1011.62	214.98
1011.91	215.04
1012.19	215.08
1012.48	215.07
1012.77	215.08
1013.05	215.17
1013.34	215.18
1013.63	215.15
1013.92	215.16
1014.20	215.16
1014.49	215.21
1014.78	215.24
1015.06	215.19
1015.35	215.21
1015.64	215.24
1015.92	215.29
1016.21	215.28
1016.50	215.30
1016.78	215.35
1017.07	215.35
1017.36	215.28
1017.64	215.25
1017.93	215.25
1018.22	215.22
1018.50	215.21
1018.79	215.17
1019.08	215.08
1019.36	215.09
1019.65	215.07
1019.93	215.12
1020.22	215.14
1020.51	215.25
1020.79	215.22
1021.08	215.19
1021.36	214.76
1021.65	214.77
1021.94	215.29
1022.22	215.27
1022.51	214.70
1022.79	215.82
1023.08	215.58
1023.36	217.66
1023.65	214.60
>>>>>End Processed Spectral Data<<<<<
