SpectraSuite Data File
++++++++++++++++++++++++++++++++++++
Date: Tue Jan 29 16:22:06 EST 2013
User: group
Dark Spectrum Present: No
Reference Spectrum Present: No
Number of Sampled Component Spectra: 1
Spectrometers: USB2E7196
Integration Time (usec): 65000 (USB2E7196)
Spectra Averaged: 100 (USB2E7196)
Boxcar Smoothing: 10 (USB2E7196)
Correct for Electrical Dark: No (USB2E7196)
Strobe/Lamp Enabled: No (USB2E7196)
Correct for Detector Non-linearity: No (USB2E7196)
Correct for Stray Light: No (USB2E7196)
Number of Pixels in Processed Spectrum: 2048
>>>>>Begin Processed Spectral Data<<<<<
339.09	0.00
339.48	202.31
339.86	204.36
340.24	205.65
340.63	206.66
341.01	211.00
341.39	209.59
341.78	211.53
342.16	212.49
342.54	212.73
342.93	201.77
343.31	211.96
343.69	212.53
344.07	212.97
344.46	213.42
344.84	213.82
345.22	214.00
345.60	214.25
345.99	214.41
346.37	214.55
346.75	214.65
347.13	214.73
347.52	214.80
347.90	214.91
348.28	214.95
348.66	215.00
349.05	214.97
349.43	215.03
349.81	215.10
350.19	215.13
350.57	215.21
350.96	215.31
351.34	215.39
351.72	215.47
352.10	215.59
352.48	215.62
352.87	215.65
353.25	215.69
353.63	215.75
354.01	215.82
354.39	215.89
354.77	215.95
355.15	216.07
355.54	216.13
355.92	216.12
356.30	216.19
356.68	216.40
357.06	216.47
357.44	216.50
357.82	216.53
358.20	216.59
358.58	216.62
358.97	216.67
359.35	216.77
359.73	216.87
360.11	216.90
360.49	216.98
360.87	217.04
361.25	217.15
361.63	217.27
362.01	217.30
362.39	217.31
362.77	217.35
363.15	217.35
363.53	217.37
363.91	217.40
364.29	217.40
364.67	217.24
365.05	217.23
365.43	217.26
365.81	217.30
366.19	217.40
366.57	217.49
366.95	217.46
367.33	217.42
367.71	217.38
368.09	217.40
368.47	217.35
368.85	217.33
369.23	217.32
369.61	217.24
369.99	217.33
370.37	217.34
370.75	217.44
371.13	217.40
371.51	217.37
371.89	217.37
372.27	217.35
372.65	217.33
373.03	217.31
373.41	217.29
373.78	217.28
374.16	217.12
374.54	217.03
374.92	216.99
375.30	216.95
375.68	216.89
376.06	216.87
376.44	216.85
376.82	216.83
377.19	216.78
377.57	216.71
377.95	216.58
378.33	216.54
378.71	216.37
379.09	216.37
379.47	216.36
379.84	216.29
380.22	216.26
380.60	216.19
380.98	216.16
381.36	216.09
381.73	215.99
382.11	216.03
382.49	215.99
382.87	215.92
383.25	215.89
383.62	216.10
384.00	216.06
384.38	216.06
384.76	216.10
385.13	216.16
385.51	216.13
385.89	216.10
386.27	216.06
386.64	216.07
387.02	215.98
387.40	215.90
387.78	215.91
388.15	215.89
388.53	215.87
388.91	215.84
389.29	215.81
389.66	215.83
390.04	215.78
390.42	215.80
390.79	215.84
391.17	215.82
391.55	215.60
391.92	215.54
392.30	215.50
392.68	215.45
393.05	215.43
393.43	215.43
393.81	215.42
394.18	215.37
394.56	215.38
394.94	215.46
395.31	215.48
395.69	215.54
396.06	215.57
396.44	215.59
396.82	215.60
397.19	215.73
397.57	215.77
397.95	215.82
398.32	215.79
398.70	215.84
399.07	215.95
399.45	215.97
399.82	216.05
400.20	216.13
400.58	216.14
400.95	216.12
401.33	216.23
401.70	216.46
402.08	216.58
402.45	216.66
402.83	216.78
403.20	216.90
403.58	216.99
403.95	217.18
404.33	217.39
404.71	217.55
405.08	217.81
405.46	217.97
405.83	218.15
406.21	218.33
406.58	218.56
406.96	218.76
407.33	219.04
407.70	219.29
408.08	219.72
408.45	220.11
408.83	220.46
409.20	220.82
409.58	221.10
409.95	221.56
410.33	222.02
410.70	222.47
411.08	223.00
411.45	223.56
411.82	224.11
412.20	224.76
412.57	225.59
412.95	226.11
413.32	226.90
413.69	227.75
414.07	228.68
414.44	229.62
414.82	230.61
415.19	231.77
415.56	233.01
415.94	234.19
416.31	235.58
416.68	236.98
417.06	238.53
417.43	240.06
417.81	241.79
418.18	243.59
418.55	245.49
418.93	247.53
419.30	249.63
419.67	251.83
420.04	254.12
420.42	256.51
420.79	259.33
421.16	262.12
421.54	264.99
421.91	267.94
422.28	271.06
422.66	274.35
423.03	277.56
423.40	280.86
423.77	284.36
424.15	288.01
424.52	291.86
424.89	296.01
425.26	300.05
425.64	303.89
426.01	308.09
426.38	312.58
426.75	317.09
427.13	321.75
427.50	326.68
427.87	331.83
428.24	336.94
428.61	341.91
428.99	347.37
429.36	353.32
429.73	359.12
430.10	364.89
430.47	370.91
430.85	377.20
431.22	383.81
431.59	390.89
431.96	397.62
432.33	405.02
432.70	412.22
433.08	420.63
433.45	428.61
433.82	436.59
434.19	445.38
434.56	453.98
434.93	462.26
435.30	470.42
435.68	479.47
436.05	488.39
436.42	497.19
436.79	505.27
437.16	513.91
437.53	523.16
437.90	532.19
438.27	540.96
438.64	550.05
439.01	558.55
439.38	566.04
439.75	573.32
440.13	581.67
440.50	589.49
440.87	595.86
441.24	602.45
441.61	609.72
441.98	614.99
442.35	621.26
442.72	627.59
443.09	633.59
443.46	637.23
443.83	639.74
444.20	641.88
444.57	644.97
444.94	646.43
445.31	647.84
445.68	649.19
446.05	649.91
446.42	649.13
446.79	648.20
447.16	647.16
447.53	646.40
447.90	643.10
448.27	639.90
448.64	635.30
449.01	632.01
449.37	626.10
449.74	620.48
450.11	613.60
450.48	606.22
450.85	598.84
451.22	592.41
451.59	586.30
451.96	580.53
452.33	572.73
452.70	565.68
453.07	557.23
453.43	548.79
453.80	540.52
454.17	532.63
454.54	525.14
454.91	517.01
455.28	509.06
455.65	501.69
456.02	494.29
456.38	488.08
456.75	480.28
457.12	473.81
457.49	467.44
457.86	461.35
458.23	456.00
458.59	450.11
458.96	444.19
459.33	438.95
459.70	433.65
460.07	429.48
460.43	424.62
460.80	420.10
461.17	416.15
461.54	412.03
461.91	408.03
462.27	403.94
462.64	400.55
463.01	396.83
463.38	393.20
463.74	389.46
464.11	386.18
464.48	383.38
464.85	380.32
465.21	377.85
465.58	375.18
465.95	372.09
466.32	369.55
466.68	366.97
467.05	364.41
467.42	361.89
467.78	359.18
468.15	356.68
468.52	354.81
468.88	352.30
469.25	350.06
469.62	348.29
469.98	346.37
470.35	344.61
470.72	342.96
471.08	341.16
471.45	339.69
471.82	338.21
472.18	336.58
472.55	335.40
472.92	334.06
473.28	332.88
473.65	331.73
474.02	330.62
474.38	329.79
474.75	329.07
475.11	328.24
475.48	327.68
475.85	327.22
476.21	326.80
476.58	326.46
476.94	326.26
477.31	325.97
477.67	325.74
478.04	325.61
478.41	325.56
478.77	325.74
479.14	325.70
479.50	325.84
479.87	326.09
480.23	326.43
480.60	326.65
480.96	326.96
481.33	327.59
481.69	328.14
482.06	328.63
482.42	329.10
482.79	329.74
483.15	330.59
483.52	331.54
483.88	332.39
484.25	333.35
484.61	334.40
484.98	335.42
485.34	336.72
485.71	338.06
486.07	339.47
486.44	340.78
486.80	342.43
487.17	344.12
487.53	345.96
487.90	347.83
488.26	349.88
488.62	352.05
488.99	354.10
489.35	356.26
489.72	358.64
490.08	361.14
490.44	363.73
490.81	366.43
491.17	369.13
491.54	372.17
491.90	375.24
492.26	378.42
492.63	381.94
492.99	385.43
493.36	389.11
493.72	393.03
494.08	397.07
494.45	401.27
494.81	405.60
495.17	410.06
495.54	414.80
495.90	419.59
496.26	424.49
496.63	429.71
496.99	435.17
497.35	440.80
497.72	446.61
498.08	452.54
498.44	458.66
498.80	465.07
499.17	471.58
499.53	478.32
499.89	485.29
500.26	492.28
500.62	499.41
500.98	506.88
501.34	514.40
501.71	522.19
502.07	530.07
502.43	538.12
502.79	546.30
503.16	554.72
503.52	563.39
503.88	572.14
504.24	581.16
504.60	590.28
504.97	599.54
505.33	608.90
505.69	618.84
506.05	628.78
506.41	638.79
506.78	648.86
507.14	659.18
507.50	669.63
507.86	680.41
508.22	691.27
508.59	701.99
508.95	713.13
509.31	724.41
509.67	735.94
510.03	747.52
510.39	759.37
510.75	771.28
511.12	783.26
511.48	795.51
511.84	807.89
512.20	820.31
512.56	833.04
512.92	845.93
513.28	858.62
513.64	871.47
514.00	884.37
514.37	897.48
514.73	910.69
515.09	923.81
515.45	936.74
515.81	949.85
516.17	963.31
516.53	976.65
516.89	989.83
517.25	1003.04
517.61	1016.60
517.97	1030.05
518.33	1043.37
518.69	1057.10
519.05	1070.93
519.41	1084.64
519.77	1098.55
520.13	1111.89
520.49	1125.27
520.85	1138.75
521.21	1152.19
521.57	1165.89
521.93	1179.02
522.29	1192.81
522.65	1206.63
523.01	1220.34
523.37	1233.63
523.73	1247.08
524.09	1260.30
524.45	1273.97
524.81	1287.52
525.17	1300.93
525.53	1314.20
525.89	1327.57
526.25	1340.68
526.61	1353.53
526.97	1366.67
527.33	1379.80
527.68	1393.31
528.04	1406.80
528.40	1419.99
528.76	1433.41
529.12	1446.48
529.48	1459.89
529.84	1472.18
530.20	1484.88
530.56	1497.50
530.91	1510.85
531.27	1523.75
531.63	1536.45
531.99	1549.27
532.35	1561.67
532.71	1574.19
533.07	1587.07
533.42	1599.32
533.78	1611.63
534.14	1623.88
534.50	1635.09
534.86	1646.73
535.21	1657.69
535.57	1669.24
535.93	1680.60
536.29	1691.66
536.65	1703.12
537.00	1714.16
537.36	1725.58
537.72	1736.56
538.08	1748.00
538.44	1759.02
538.79	1770.03
539.15	1781.17
539.51	1791.84
539.87	1803.14
540.22	1813.93
540.58	1824.99
540.94	1835.95
541.29	1846.11
541.65	1855.86
542.01	1866.53
542.37	1876.62
542.72	1887.01
543.08	1896.78
543.44	1907.18
543.79	1916.56
544.15	1926.00
544.51	1935.97
544.87	1945.98
545.22	1955.15
545.58	1964.04
545.94	1972.92
546.29	1981.63
546.65	1989.94
547.01	1998.28
547.36	2005.99
547.72	2013.76
548.07	2021.39
548.43	2029.04
548.79	2036.93
549.14	2045.02
549.50	2053.44
549.86	2061.27
550.21	2068.62
550.57	2076.35
550.92	2083.17
551.28	2090.69
551.64	2097.96
551.99	2105.48
552.35	2112.63
552.70	2119.70
553.06	2126.39
553.41	2132.63
553.77	2139.12
554.13	2145.40
554.48	2152.38
554.84	2159.61
555.19	2166.10
555.55	2172.54
555.90	2178.96
556.26	2185.89
556.61	2192.05
556.97	2196.93
557.32	2202.77
557.68	2209.17
558.03	2214.91
558.39	2220.27
558.74	2226.33
559.10	2232.02
559.45	2237.76
559.81	2243.39
560.16	2249.03
560.52	2255.01
560.87	2261.51
561.23	2267.38
561.58	2274.24
561.94	2279.62
562.29	2284.36
562.64	2290.65
563.00	2296.41
563.35	2302.06
563.71	2307.96
564.06	2313.69
564.42	2319.68
564.77	2324.84
565.12	2330.21
565.48	2335.55
565.83	2341.16
566.19	2346.76
566.54	2352.17
566.89	2356.77
567.25	2361.37
567.60	2367.12
567.96	2372.44
568.31	2376.93
568.66	2381.38
569.02	2385.40
569.37	2389.04
569.72	2393.63
570.08	2397.13
570.43	2400.32
570.78	2403.52
571.14	2406.01
571.49	2409.16
571.84	2412.78
572.20	2415.79
572.55	2418.76
572.90	2421.16
573.26	2424.14
573.61	2426.52
573.96	2428.80
574.31	2430.83
574.67	2432.88
575.02	2433.78
575.37	2435.15
575.72	2436.06
576.08	2437.53
576.43	2437.69
576.78	2438.46
577.13	2440.15
577.49	2441.47
577.84	2442.65
578.19	2444.08
578.54	2444.72
578.90	2445.67
579.25	2445.60
579.60	2445.59
579.95	2445.14
580.30	2445.30
580.66	2444.73
581.01	2443.23
581.36	2441.03
581.71	2439.78
582.06	2438.72
582.42	2437.88
582.77	2435.89
583.12	2434.43
583.47	2433.23
583.82	2432.68
584.17	2431.51
584.53	2429.28
584.88	2427.19
585.23	2425.24
585.58	2422.92
585.93	2420.81
586.28	2418.66
586.63	2416.35
586.98	2414.16
587.34	2412.14
587.69	2409.75
588.04	2407.75
588.39	2406.37
588.74	2403.93
589.09	2401.32
589.44	2398.22
589.79	2395.83
590.14	2393.94
590.49	2391.16
590.84	2387.33
591.19	2384.45
591.54	2381.07
591.89	2377.16
592.25	2373.91
592.60	2369.73
592.95	2365.69
593.30	2361.63
593.65	2357.35
594.00	2353.02
594.35	2350.06
594.70	2345.44
595.05	2340.97
595.40	2335.51
595.75	2329.74
596.10	2326.05
596.45	2321.13
596.80	2316.57
597.15	2311.40
597.50	2305.50
597.85	2300.57
598.19	2295.39
598.54	2289.44
598.89	2284.29
599.24	2279.65
599.59	2273.41
599.94	2267.71
600.29	2261.88
600.64	2255.96
600.99	2249.05
601.34	2243.57
601.69	2236.56
602.04	2230.08
602.39	2223.35
602.74	2217.28
603.08	2211.85
603.43	2205.37
603.78	2198.56
604.13	2191.51
604.48	2184.17
604.83	2178.02
605.18	2171.68
605.53	2164.67
605.87	2157.55
606.22	2150.82
606.57	2142.88
606.92	2135.03
607.27	2128.01
607.62	2121.19
607.96	2114.22
608.31	2107.74
608.66	2099.88
609.01	2092.26
609.36	2085.12
609.70	2077.32
610.05	2069.53
610.40	2061.03
610.75	2052.64
611.10	2044.89
611.44	2035.97
611.79	2027.16
612.14	2016.98
612.49	2006.33
612.83	1996.99
613.18	1987.79
613.53	1978.26
613.88	1968.73
614.22	1960.01
614.57	1950.09
614.92	1939.53
615.27	1929.27
615.61	1919.16
615.96	1909.43
616.31	1899.70
616.65	1890.14
617.00	1880.24
617.35	1870.36
617.70	1860.58
618.04	1850.40
618.39	1840.05
618.74	1830.18
619.08	1820.54
619.43	1811.81
619.78	1803.44
620.12	1794.76
620.47	1784.99
620.82	1774.74
621.16	1764.84
621.51	1754.90
621.85	1744.85
622.20	1734.30
622.55	1723.62
622.89	1713.61
623.24	1703.85
623.59	1694.01
623.93	1683.94
624.28	1674.20
624.62	1664.00
624.97	1653.63
625.32	1643.83
625.66	1634.97
626.01	1626.08
626.35	1616.46
626.70	1606.33
627.04	1596.10
627.39	1585.90
627.73	1576.62
628.08	1567.65
628.43	1557.88
628.77	1548.45
629.12	1539.61
629.46	1531.66
629.81	1523.14
630.15	1513.41
630.50	1503.47
630.84	1492.67
631.19	1482.66
631.53	1473.17
631.88	1462.86
632.22	1452.68
632.57	1443.21
632.91	1432.77
633.26	1422.98
633.60	1413.35
633.95	1404.01
634.29	1394.47
634.64	1385.01
634.98	1374.91
635.32	1365.31
635.67	1356.66
636.01	1347.43
636.36	1337.44
636.70	1327.82
637.05	1318.45
637.39	1309.39
637.73	1300.70
638.08	1293.35
638.42	1284.95
638.77	1276.00
639.11	1267.72
639.45	1259.86
639.80	1251.07
640.14	1242.32
640.49	1233.15
640.83	1224.33
641.17	1216.02
641.52	1207.74
641.86	1198.97
642.20	1190.94
642.55	1182.20
642.89	1173.27
643.23	1164.44
643.58	1156.29
643.92	1147.10
644.26	1138.30
644.61	1129.79
644.95	1120.80
645.29	1111.33
645.64	1101.97
645.98	1093.53
646.32	1085.51
646.66	1076.90
647.01	1068.52
647.35	1060.32
647.69	1052.00
648.04	1043.48
648.38	1034.45
648.72	1025.55
649.06	1017.06
649.41	1008.76
649.75	1000.71
650.09	992.82
650.43	984.65
650.78	976.27
651.12	968.52
651.46	960.98
651.80	953.51
652.14	946.13
652.49	938.46
652.83	931.16
653.17	923.26
653.51	915.55
653.85	908.20
654.20	900.77
654.54	893.12
654.88	885.77
655.22	878.46
655.56	871.35
655.90	864.55
656.25	857.73
656.59	850.71
656.93	843.68
657.27	836.41
657.61	829.38
657.95	823.18
658.29	817.14
658.64	810.97
658.98	804.51
659.32	797.87
659.66	791.58
660.00	785.19
660.34	779.04
660.68	772.88
661.02	766.49
661.36	760.51
661.70	754.67
662.05	748.92
662.39	743.41
662.73	738.01
663.07	732.53
663.41	726.89
663.75	721.16
664.09	715.39
664.43	709.91
664.77	704.48
665.11	698.55
665.45	692.60
665.79	686.68
666.13	680.93
666.47	675.41
666.81	669.95
667.15	664.49
667.49	659.28
667.83	653.93
668.17	648.65
668.51	643.48
668.85	638.55
669.19	633.67
669.53	628.60
669.87	623.42
670.21	618.61
670.55	613.83
670.89	609.26
671.23	604.84
671.57	600.37
671.91	596.09
672.25	591.96
672.58	587.76
672.92	583.64
673.26	579.71
673.60	575.81
673.94	571.92
674.28	568.24
674.62	564.42
674.96	560.65
675.30	557.04
675.64	553.31
675.97	549.55
676.31	545.81
676.65	542.17
676.99	538.66
677.33	534.74
677.67	531.07
678.01	527.21
678.34	523.61
678.68	520.05
679.02	516.43
679.36	512.60
679.70	508.96
680.04	505.36
680.37	501.86
680.71	498.49
681.05	495.24
681.39	491.97
681.73	488.74
682.06	485.67
682.40	482.60
682.74	479.41
683.08	476.23
683.42	473.00
683.75	469.97
684.09	466.94
684.43	464.12
684.77	461.17
685.10	458.28
685.44	455.30
685.78	452.37
686.12	449.50
686.45	446.82
686.79	444.10
687.13	441.55
687.46	438.90
687.80	436.17
688.14	433.33
688.48	430.63
688.81	427.91
689.15	425.26
689.49	422.57
689.82	420.06
690.16	417.46
690.50	415.00
690.83	412.45
691.17	409.85
691.51	407.30
691.84	405.00
692.18	402.85
692.52	400.62
692.85	398.45
693.19	396.28
693.52	394.07
693.86	391.77
694.20	389.52
694.53	387.37
694.87	385.17
695.21	382.99
695.54	380.82
695.88	378.66
696.21	376.44
696.55	374.31
696.88	372.18
697.22	370.18
697.56	368.29
697.89	366.41
698.23	364.68
698.56	362.91
698.90	361.09
699.23	359.14
699.57	357.26
699.90	355.33
700.24	353.55
700.58	351.81
700.91	350.23
701.25	348.66
701.58	347.03
701.92	345.39
702.25	343.79
702.59	342.17
702.92	340.64
703.26	339.06
703.59	337.62
703.93	336.37
704.26	334.90
704.60	333.35
704.93	331.84
705.26	330.31
705.60	328.83
705.93	327.31
706.27	325.97
706.60	324.70
706.94	323.48
707.27	322.06
707.61	320.67
707.94	319.31
708.27	317.78
708.61	316.30
708.94	314.94
709.28	313.64
709.61	312.37
709.94	311.14
710.28	309.95
710.61	308.72
710.95	307.28
711.28	306.23
711.61	305.02
711.95	303.87
712.28	302.68
712.61	301.46
712.95	300.41
713.28	299.33
713.61	298.13
713.95	296.97
714.28	295.93
714.61	294.90
714.95	293.85
715.28	292.85
715.61	291.85
715.95	290.87
716.28	289.93
716.61	289.00
716.95	287.99
717.28	287.02
717.61	286.07
717.94	285.16
718.28	284.15
718.61	283.30
718.94	282.40
719.27	281.53
719.61	280.72
719.94	279.87
720.27	278.88
720.60	278.03
720.94	277.24
721.27	276.47
721.60	275.78
721.93	275.07
722.27	274.37
722.60	273.72
722.93	272.99
723.26	272.28
723.59	271.56
723.93	270.92
724.26	270.29
724.59	269.61
724.92	269.03
725.25	268.45
725.59	267.86
725.92	267.35
726.25	266.80
726.58	266.25
726.91	265.63
727.24	265.15
727.57	264.59
727.91	263.96
728.24	263.41
728.57	262.81
728.90	262.24
729.23	261.67
729.56	261.21
729.89	260.69
730.22	260.15
730.55	259.63
730.89	259.11
731.22	258.56
731.55	258.06
731.88	257.52
732.21	256.95
732.54	256.43
732.87	255.89
733.20	255.39
733.53	254.90
733.86	254.43
734.19	253.91
734.52	253.48
734.85	253.20
735.18	252.73
735.51	252.34
735.84	251.92
736.17	251.54
736.50	251.00
736.83	250.83
737.16	250.40
737.49	250.02
737.82	249.58
738.15	249.23
738.48	248.85
738.81	248.44
739.14	248.05
739.47	247.64
739.80	247.26
740.13	246.92
740.46	246.49
740.79	246.11
741.12	245.74
741.45	245.35
741.78	244.88
742.11	244.60
742.44	244.23
742.77	243.94
743.10	243.56
743.43	243.18
743.75	242.60
744.08	242.55
744.41	242.16
744.74	241.85
745.07	241.45
745.40	241.15
745.73	240.92
746.06	240.60
746.39	240.28
746.71	239.92
747.04	239.58
747.37	239.27
747.70	238.99
748.03	238.67
748.36	238.43
748.68	238.14
749.01	237.80
749.34	237.50
749.67	237.15
750.00	236.91
750.33	236.78
750.65	236.53
750.98	236.01
751.31	235.78
751.64	235.56
751.97	235.45
752.29	235.16
752.62	234.81
752.95	234.54
753.28	234.31
753.60	234.08
753.93	233.86
754.26	233.63
754.59	233.32
754.91	233.08
755.24	232.83
755.57	232.60
755.90	232.35
756.22	232.10
756.55	231.88
756.88	231.60
757.20	231.28
757.53	230.99
757.86	230.78
758.19	230.64
758.51	230.37
758.84	230.06
759.17	229.87
759.49	229.70
759.82	229.64
760.15	229.43
760.47	229.25
760.80	229.00
761.13	228.88
761.45	228.71
761.78	228.53
762.11	228.36
762.43	228.16
762.76	227.98
763.08	227.86
763.41	227.71
763.74	227.60
764.06	227.44
764.39	227.29
764.71	227.14
765.04	226.95
765.37	226.79
765.69	226.66
766.02	226.49
766.34	226.32
766.67	226.09
767.00	226.03
767.32	226.00
767.65	226.00
767.97	225.85
768.30	225.73
768.62	225.61
768.95	225.42
769.27	225.30
769.60	225.21
769.92	225.03
770.25	224.87
770.57	224.70
770.90	224.59
771.22	224.48
771.55	224.34
771.87	224.22
772.20	224.10
772.52	224.15
772.85	224.32
773.17	224.22
773.50	224.10
773.82	223.94
774.15	223.76
774.47	223.52
774.80	223.41
775.12	223.33
775.45	223.25
775.77	223.21
776.09	223.14
776.42	223.06
776.74	223.04
777.07	222.95
777.39	222.88
777.72	222.76
778.04	222.68
778.36	222.62
778.69	222.57
779.01	222.50
779.33	222.22
779.66	221.88
779.98	221.79
780.31	221.70
780.63	221.74
780.95	221.70
781.28	221.62
781.60	221.52
781.92	221.45
782.25	221.38
782.57	221.30
782.89	221.23
783.22	221.14
783.54	221.03
783.86	220.97
784.19	220.89
784.51	220.88
784.83	220.79
785.16	220.70
785.48	220.63
785.80	220.57
786.12	220.56
786.45	220.53
786.77	220.48
787.09	220.41
787.42	220.24
787.74	220.18
788.06	220.12
788.38	220.07
788.71	219.99
789.03	219.88
789.35	219.87
789.67	219.76
789.99	219.73
790.32	219.63
790.64	219.58
790.96	219.71
791.28	219.57
791.61	219.54
791.93	219.50
792.25	219.43
792.57	219.53
792.89	219.41
793.21	219.33
793.54	219.26
793.86	219.19
794.18	219.16
794.50	219.08
794.82	219.07
795.14	219.04
795.47	219.02
795.79	219.02
796.11	218.92
796.43	218.86
796.75	218.83
797.07	218.79
797.39	218.74
797.71	218.54
798.04	218.55
798.36	218.52
798.68	218.46
799.00	218.42
799.32	218.30
799.64	218.30
799.96	218.29
800.28	218.28
800.60	218.28
800.92	218.28
801.24	218.24
801.56	218.15
801.89	218.10
802.21	218.08
802.53	218.03
802.85	218.06
803.17	218.18
803.49	218.12
803.81	218.10
804.13	218.07
804.45	218.03
804.77	218.03
805.09	218.00
805.41	218.01
805.73	217.95
806.05	217.88
806.37	217.84
806.69	217.82
807.01	217.80
807.33	217.77
807.65	217.69
807.97	217.73
808.28	217.74
808.60	217.70
808.92	217.67
809.24	217.76
809.56	217.69
809.88	217.56
810.20	217.52
810.52	217.54
810.84	217.51
811.16	217.46
811.48	217.39
811.80	217.44
812.12	217.37
812.43	217.39
812.75	217.38
813.07	217.33
813.39	217.28
813.71	217.21
814.03	217.19
814.35	217.13
814.67	217.04
814.98	217.00
815.30	217.00
815.62	216.92
815.94	216.81
816.26	216.81
816.58	216.75
816.89	216.75
817.21	216.67
817.53	216.65
817.85	216.65
818.17	216.62
818.48	216.51
818.80	216.54
819.12	216.50
819.44	216.45
819.76	216.44
820.07	216.41
820.39	216.38
820.71	216.39
821.03	216.40
821.34	216.37
821.66	216.40
821.98	216.39
822.30	216.36
822.61	216.41
822.93	216.38
823.25	216.39
823.57	216.35
823.88	216.37
824.20	216.35
824.52	216.37
824.83	216.34
825.15	216.30
825.47	216.28
825.79	216.25
826.10	216.21
826.42	216.17
826.74	216.21
827.05	216.23
827.37	216.19
827.69	216.17
828.00	216.17
828.32	216.12
828.64	216.10
828.95	216.25
829.27	216.20
829.58	216.17
829.90	216.21
830.22	216.18
830.53	216.13
830.85	216.11
831.17	216.04
831.48	216.04
831.80	216.07
832.11	216.05
832.43	216.02
832.75	216.04
833.06	216.17
833.38	216.07
833.69	216.05
834.01	216.07
834.32	216.08
834.64	216.05
834.96	216.05
835.27	216.02
835.59	215.90
835.90	215.83
836.22	215.81
836.53	215.75
836.85	215.74
837.16	215.96
837.48	215.95
837.79	216.00
838.11	216.01
838.42	216.01
838.74	216.01
839.05	216.00
839.37	215.97
839.68	215.84
840.00	215.83
840.31	215.89
840.63	215.84
840.94	215.81
841.26	215.77
841.57	215.78
841.88	215.79
842.20	215.75
842.51	215.78
842.83	215.78
843.14	215.98
843.46	216.00
843.77	215.86
844.08	215.86
844.40	215.79
844.71	215.74
845.03	215.72
845.34	215.72
845.65	215.70
845.97	215.69
846.28	215.69
846.60	215.71
846.91	215.64
847.22	215.60
847.54	215.62
847.85	215.63
848.16	215.59
848.48	215.53
848.79	215.63
849.10	215.62
849.42	215.61
849.73	215.39
850.04	215.40
850.36	215.32
850.67	215.34
850.98	215.36
851.30	215.37
851.61	215.34
851.92	215.35
852.23	215.44
852.55	215.47
852.86	215.45
853.17	215.45
853.49	215.47
853.80	215.55
854.11	215.57
854.42	215.61
854.74	215.61
855.05	215.63
855.36	215.50
855.67	215.51
855.99	215.51
856.30	215.76
856.61	215.70
856.92	215.72
857.23	215.69
857.55	215.67
857.86	215.67
858.17	215.70
858.48	215.63
858.79	215.55
859.11	215.52
859.42	215.50
859.73	215.47
860.04	215.47
860.35	215.40
860.66	215.33
860.98	215.32
861.29	215.35
861.60	215.33
861.91	215.38
862.22	215.33
862.53	215.31
862.84	215.06
863.16	215.13
863.47	215.09
863.78	215.08
864.09	215.06
864.40	215.09
864.71	215.07
865.02	215.12
865.33	215.14
865.64	215.11
865.95	215.14
866.27	215.31
866.58	215.27
866.89	215.29
867.20	215.31
867.51	215.27
867.82	215.23
868.13	215.30
868.44	215.24
868.75	215.28
869.06	215.28
869.37	215.33
869.68	215.23
869.99	215.23
870.30	215.23
870.61	215.24
870.92	215.20
871.23	215.21
871.54	215.22
871.85	215.23
872.16	215.29
872.47	215.25
872.78	215.09
873.09	215.11
873.40	215.07
873.71	215.09
874.02	215.09
874.33	215.10
874.64	215.05
874.95	215.10
875.26	215.05
875.56	215.06
875.87	215.01
876.18	215.04
876.49	215.27
876.80	215.26
877.11	215.25
877.42	215.25
877.73	215.23
878.04	215.20
878.35	215.23
878.66	215.21
878.96	215.21
879.27	215.20
879.58	215.19
879.89	215.19
880.20	215.26
880.51	215.26
880.82	215.25
881.12	215.27
881.43	215.22
881.74	215.20
882.05	215.18
882.36	215.19
882.67	215.17
882.97	214.95
883.28	214.93
883.59	214.90
883.90	214.92
884.21	214.98
884.51	214.95
884.82	214.91
885.13	214.88
885.44	214.91
885.74	214.92
886.05	214.91
886.36	214.92
886.67	214.82
886.98	214.91
887.28	214.91
887.59	214.90
887.90	214.91
888.20	214.92
888.51	214.96
888.82	214.93
889.13	214.96
889.43	215.14
889.74	215.14
890.05	215.15
890.35	215.14
890.66	215.07
890.97	215.07
891.28	215.02
891.58	215.05
891.89	215.03
892.20	215.01
892.50	214.97
892.81	214.95
893.12	214.95
893.42	214.86
893.73	214.85
894.04	214.84
894.34	214.84
894.65	214.83
894.95	214.80
895.26	214.86
895.57	214.94
895.87	214.75
896.18	214.79
896.48	214.77
896.79	214.77
897.10	214.81
897.40	214.84
897.71	214.89
898.01	214.87
898.32	214.90
898.63	214.89
898.93	214.93
899.24	214.94
899.54	214.94
899.85	214.92
900.15	214.95
900.46	214.93
900.76	214.97
901.07	214.98
901.38	214.97
901.68	214.96
901.99	214.88
902.29	214.89
902.60	214.87
902.90	214.87
903.21	214.86
903.51	214.85
903.82	214.85
904.12	214.85
904.43	214.88
904.73	214.82
905.03	214.85
905.34	215.03
905.64	215.01
905.95	214.98
906.25	214.99
906.56	214.96
906.86	214.96
907.17	214.93
907.47	214.93
907.77	214.89
908.08	214.83
908.38	214.83
908.69	214.83
908.99	214.86
909.30	214.87
909.60	214.87
909.90	214.88
910.21	214.82
910.51	214.77
910.81	214.74
911.12	214.76
911.42	214.76
911.73	214.57
912.03	214.61
912.33	214.64
912.64	214.63
912.94	214.61
913.24	214.58
913.55	214.55
913.85	214.54
914.15	214.61
914.46	214.65
914.76	214.62
915.06	214.64
915.37	214.59
915.67	214.58
915.97	214.57
916.27	214.54
916.58	214.54
916.88	214.55
917.18	214.56
917.49	214.69
917.79	214.69
918.09	214.68
918.39	214.71
918.70	214.71
919.00	214.71
919.30	214.84
919.60	214.84
919.91	214.84
920.21	214.84
920.51	214.79
920.81	214.78
921.12	214.82
921.42	214.79
921.72	214.79
922.02	214.81
922.32	214.84
922.63	214.83
922.93	214.97
923.23	214.96
923.53	214.93
923.83	214.81
924.13	214.80
924.44	214.82
924.74	214.85
925.04	214.91
925.34	214.93
925.64	214.83
925.94	214.83
926.24	214.93
926.55	214.93
926.85	214.96
927.15	214.96
927.45	214.96
927.75	215.00
928.05	215.01
928.35	214.98
928.65	215.03
928.95	215.06
929.26	214.96
929.56	214.99
929.86	215.03
930.16	215.03
930.46	215.02
930.76	215.02
931.06	214.90
931.36	214.82
931.66	214.81
931.96	214.84
932.26	214.84
932.56	214.74
932.86	214.75
933.16	214.76
933.46	214.74
933.76	214.72
934.06	214.76
934.36	214.83
934.66	214.82
934.96	214.75
935.26	214.71
935.56	214.73
935.86	214.65
936.16	214.64
936.46	214.62
936.76	214.62
937.06	214.58
937.36	214.63
937.66	214.65
937.96	214.63
938.26	214.56
938.56	214.57
938.86	214.63
939.16	214.67
939.46	214.66
939.76	214.68
940.06	214.64
940.35	214.55
940.65	214.46
940.95	214.47
941.25	214.47
941.55	214.45
941.85	214.48
942.15	214.56
942.45	214.60
942.75	214.60
943.04	214.61
943.34	214.68
943.64	214.64
943.94	214.60
944.24	214.61
944.54	214.65
944.84	214.62
945.13	214.59
945.43	214.54
945.73	214.56
946.03	214.52
946.33	214.52
946.62	214.53
946.92	214.52
947.22	214.55
947.52	214.55
947.82	214.59
948.11	214.51
948.41	214.42
948.71	214.36
949.01	214.34
949.31	214.33
949.60	214.29
949.90	214.36
950.20	214.36
950.50	214.37
950.79	214.36
951.09	214.39
951.39	214.33
951.69	214.30
951.98	214.32
952.28	214.36
952.58	214.37
952.87	214.42
953.17	214.41
953.47	214.40
953.76	214.42
954.06	214.38
954.36	214.39
954.66	214.40
954.95	214.46
955.25	214.46
955.55	214.47
955.84	214.46
956.14	214.47
956.44	214.50
956.73	214.48
957.03	214.48
957.32	214.48
957.62	214.51
957.92	214.57
958.21	214.53
958.51	214.74
958.81	214.75
959.10	214.74
959.40	214.81
959.69	214.83
959.99	214.84
960.29	214.86
960.58	214.88
960.88	214.98
961.17	214.93
961.47	214.98
961.76	214.98
962.06	214.99
962.36	214.96
962.65	214.95
962.95	214.98
963.24	214.96
963.54	214.97
963.83	215.01
964.13	214.99
964.42	214.96
964.72	214.82
965.01	214.81
965.31	214.80
965.60	214.79
965.90	214.91
966.19	214.86
966.49	214.89
966.78	214.86
967.08	214.86
967.37	214.88
967.67	214.85
967.96	214.87
968.26	214.87
968.55	214.87
968.85	214.88
969.14	214.84
969.43	214.85
969.73	214.82
970.02	214.80
970.32	214.79
970.61	214.76
970.91	214.69
971.20	214.67
971.49	214.64
971.79	214.64
972.08	214.48
972.38	214.50
972.67	214.48
972.96	214.50
973.26	214.45
973.55	214.50
973.85	214.47
974.14	214.46
974.43	214.45
974.73	214.42
975.02	214.38
975.31	214.39
975.61	214.37
975.90	214.36
976.19	214.31
976.49	214.34
976.78	214.36
977.07	214.34
977.37	214.36
977.66	214.37
977.95	214.33
978.24	214.33
978.54	214.36
978.83	214.35
979.12	214.34
979.42	214.33
979.71	214.27
980.00	214.28
980.29	214.25
980.59	214.22
980.88	214.28
981.17	214.28
981.46	214.25
981.76	214.26
982.05	214.35
982.34	214.40
982.63	214.38
982.93	214.42
983.22	214.45
983.51	214.47
983.80	214.52
984.09	214.53
984.39	214.51
984.68	214.44
984.97	214.48
985.26	214.47
985.55	214.49
985.85	214.46
986.14	214.48
986.43	214.52
986.72	214.51
987.01	214.48
987.30	214.49
987.59	214.50
987.89	214.51
988.18	214.43
988.47	214.40
988.76	214.39
989.05	214.31
989.34	214.29
989.63	214.31
989.92	214.25
990.22	214.23
990.51	214.24
990.80	214.22
991.09	214.21
991.38	214.20
991.67	214.20
991.96	214.17
992.25	214.19
992.54	214.16
992.83	214.20
993.12	214.15
993.41	214.18
993.70	214.29
993.99	214.34
994.28	214.34
994.58	214.37
994.87	214.35
995.16	214.39
995.45	214.40
995.74	214.36
996.03	214.38
996.32	214.42
996.61	214.45
996.90	214.47
997.19	214.44
997.48	214.46
997.77	214.42
998.06	214.46
998.34	214.41
998.63	214.43
998.92	214.41
999.21	214.46
999.50	214.46
999.79	214.35
1000.08	214.34
1000.37	214.36
1000.66	214.32
1000.95	214.40
1001.24	214.41
1001.53	214.41
1001.82	214.40
1002.11	214.36
1002.40	214.36
1002.68	214.42
1002.97	214.59
1003.26	214.55
1003.55	214.55
1003.84	214.60
1004.13	214.66
1004.42	214.68
1004.71	214.64
1004.99	214.63
1005.28	214.67
1005.57	214.66
1005.86	214.65
1006.15	214.63
1006.44	214.60
1006.72	214.65
1007.01	214.58
1007.30	214.56
1007.59	214.55
1007.88	214.54
1008.17	214.58
1008.45	214.54
1008.74	214.47
1009.03	214.36
1009.32	214.39
1009.60	214.38
1009.89	214.36
1010.18	214.28
1010.47	214.27
1010.76	214.31
1011.04	214.31
1011.33	214.30
1011.62	214.33
1011.91	214.38
1012.19	214.41
1012.48	214.44
1012.77	214.44
1013.05	214.53
1013.34	214.54
1013.63	214.53
1013.92	214.55
1014.20	214.51
1014.49	214.52
1014.78	214.53
1015.06	214.46
1015.35	214.46
1015.64	214.49
1015.92	214.51
1016.21	214.51
1016.50	214.53
1016.78	214.55
1017.07	214.55
1017.36	214.50
1017.64	214.45
1017.93	214.41
1018.22	214.37
1018.50	214.39
1018.79	214.34
1019.08	214.24
1019.36	214.25
1019.65	214.20
1019.93	214.25
1020.22	214.30
1020.51	214.41
1020.79	214.39
1021.08	214.20
1021.36	214.74
1021.65	214.08
1021.94	214.00
1022.22	214.09
1022.51	213.38
1022.79	215.17
1023.08	214.69
1023.36	216.84
1023.65	214.03
>>>>>End Processed Spectral Data<<<<<
