SpectraSuite Data File
++++++++++++++++++++++++++++++++++++
Date: Tue Jan 29 16:16:38 EST 2013
User: group
Dark Spectrum Present: No
Reference Spectrum Present: No
Number of Sampled Component Spectra: 1
Spectrometers: USB2E7196
Integration Time (usec): 65000 (USB2E7196)
Spectra Averaged: 100 (USB2E7196)
Boxcar Smoothing: 10 (USB2E7196)
Correct for Electrical Dark: No (USB2E7196)
Strobe/Lamp Enabled: No (USB2E7196)
Correct for Detector Non-linearity: No (USB2E7196)
Correct for Stray Light: No (USB2E7196)
Number of Pixels in Processed Spectrum: 2048
>>>>>Begin Processed Spectral Data<<<<<
339.09	0.00
339.48	202.28
339.86	204.09
340.24	204.71
340.63	206.90
341.01	211.34
341.39	210.06
341.78	211.35
342.16	212.86
342.54	212.46
342.93	201.90
343.31	212.13
343.69	212.68
344.07	213.14
344.46	213.63
344.84	214.04
345.22	214.21
345.60	214.49
345.99	214.69
346.37	214.81
346.75	214.93
347.13	215.03
347.52	215.12
347.90	215.26
348.28	215.30
348.66	215.33
349.05	215.29
349.43	215.35
349.81	215.42
350.19	215.44
350.57	215.47
350.96	215.56
351.34	215.62
351.72	215.72
352.10	215.83
352.48	215.90
352.87	215.95
353.25	215.99
353.63	216.00
354.01	216.03
354.39	216.08
354.77	216.14
355.15	216.25
355.54	216.27
355.92	216.24
356.30	216.32
356.68	216.50
357.06	216.55
357.44	216.58
357.82	216.64
358.20	216.69
358.58	216.73
358.97	216.82
359.35	216.93
359.73	217.01
360.11	217.10
360.49	217.17
360.87	217.21
361.25	217.30
361.63	217.42
362.01	217.52
362.39	217.56
362.77	217.63
363.15	217.65
363.53	217.67
363.91	217.73
364.29	217.72
364.67	217.59
365.05	217.62
365.43	217.69
365.81	217.70
366.19	217.84
366.57	217.95
366.95	217.95
367.33	217.89
367.71	217.91
368.09	217.92
368.47	217.89
368.85	217.89
369.23	217.92
369.61	217.81
369.99	217.86
370.37	217.90
370.75	217.99
371.13	217.94
371.51	217.87
371.89	217.84
372.27	217.84
372.65	217.83
373.03	217.82
373.41	217.77
373.78	217.77
374.16	217.63
374.54	217.53
374.92	217.47
375.30	217.46
375.68	217.38
376.06	217.34
376.44	217.30
376.82	217.27
377.19	217.21
377.57	217.16
377.95	217.02
378.33	216.95
378.71	216.76
379.09	216.73
379.47	216.75
379.84	216.70
380.22	216.63
380.60	216.55
380.98	216.47
381.36	216.40
381.73	216.30
382.11	216.26
382.49	216.22
382.87	216.15
383.25	216.07
383.62	216.27
384.00	216.18
384.38	216.16
384.76	216.17
385.13	216.21
385.51	216.23
385.89	216.18
386.27	216.14
386.64	216.15
387.02	216.11
387.40	216.06
387.78	216.04
388.15	216.05
388.53	216.02
388.91	216.01
389.29	215.99
389.66	216.02
390.04	215.99
390.42	216.04
390.79	216.05
391.17	216.06
391.55	215.81
391.92	215.81
392.30	215.78
392.68	215.69
393.05	215.67
393.43	215.64
393.81	215.65
394.18	215.62
394.56	215.62
394.94	215.65
395.31	215.61
395.69	215.71
396.06	215.74
396.44	215.80
396.82	215.83
397.19	215.94
397.57	215.94
397.95	216.01
398.32	215.95
398.70	215.99
399.07	216.08
399.45	216.12
399.82	216.17
400.20	216.22
400.58	216.34
400.95	216.31
401.33	216.41
401.70	216.65
402.08	216.72
402.45	216.80
402.83	216.95
403.20	217.12
403.58	217.17
403.95	217.32
404.33	217.46
404.71	217.59
405.08	217.86
405.46	218.00
405.83	218.18
406.21	218.37
406.58	218.59
406.96	218.79
407.33	219.02
407.70	219.33
408.08	219.78
408.45	220.13
408.83	220.51
409.20	220.80
409.58	221.02
409.95	221.48
410.33	221.96
410.70	222.40
411.08	222.89
411.45	223.46
411.82	224.00
412.20	224.64
412.57	225.43
412.95	225.96
413.32	226.75
413.69	227.53
414.07	228.42
414.44	229.40
414.82	230.37
415.19	231.54
415.56	232.64
415.94	233.76
416.31	235.11
416.68	236.44
417.06	238.00
417.43	239.52
417.81	241.18
418.18	242.89
418.55	244.72
418.93	246.69
419.30	248.71
419.67	250.85
420.04	253.08
420.42	255.35
420.79	258.12
421.16	260.84
421.54	263.71
421.91	266.61
422.28	269.56
422.66	272.75
423.03	275.88
423.40	279.11
423.77	282.63
424.15	286.11
424.52	289.85
424.89	293.91
425.26	297.90
425.64	301.67
426.01	305.80
426.38	310.11
426.75	314.49
427.13	319.03
427.50	323.87
427.87	328.86
428.24	333.90
428.61	338.68
428.99	344.01
429.36	349.80
429.73	355.49
430.10	361.16
430.47	366.99
430.85	373.11
431.22	379.61
431.59	386.44
431.96	393.02
432.33	400.26
432.70	407.24
433.08	415.41
433.45	423.21
433.82	430.94
434.19	439.53
434.56	447.94
434.93	456.04
435.30	463.99
435.68	472.80
436.05	481.53
436.42	490.15
436.79	497.96
437.16	506.44
437.53	515.39
437.90	524.21
438.27	532.86
438.64	541.74
439.01	549.97
439.38	557.27
439.75	564.41
440.13	572.48
440.50	580.21
440.87	586.39
441.24	592.86
441.61	599.95
441.98	605.15
442.35	611.25
442.72	617.31
443.09	623.17
443.46	626.76
443.83	629.12
444.20	631.22
444.57	634.29
444.94	635.65
445.31	637.00
445.68	638.37
446.05	638.99
446.42	638.24
446.79	637.30
447.16	636.26
447.53	635.45
447.90	632.26
448.27	629.04
448.64	624.57
449.01	621.24
449.37	615.54
449.74	610.07
450.11	603.40
450.48	596.30
450.85	589.05
451.22	582.83
451.59	576.93
451.96	571.28
452.33	563.70
452.70	556.83
453.07	548.64
453.43	540.30
453.80	532.33
454.17	524.57
454.54	517.28
454.91	509.39
455.28	501.71
455.65	494.61
456.02	487.44
456.38	481.37
456.75	473.85
457.12	467.54
457.49	461.33
457.86	455.44
458.23	450.22
458.59	444.55
458.96	438.78
459.33	433.73
459.70	428.57
460.07	424.53
460.43	419.88
460.80	415.48
461.17	411.69
461.54	407.68
461.91	403.88
462.27	399.96
462.64	396.68
463.01	393.06
463.38	389.48
463.74	385.86
464.11	382.73
464.48	379.96
464.85	376.98
465.21	374.59
465.58	372.00
465.95	369.01
466.32	366.51
466.68	364.01
467.05	361.49
467.42	359.02
467.78	356.40
468.15	353.90
468.52	352.09
468.88	349.65
469.25	347.48
469.62	345.72
469.98	343.85
470.35	342.08
470.72	340.47
471.08	338.73
471.45	337.28
471.82	335.81
472.18	334.20
472.55	333.05
472.92	331.74
473.28	330.61
473.65	329.54
474.02	328.47
474.38	327.62
474.75	326.94
475.11	326.18
475.48	325.63
475.85	325.21
476.21	324.78
476.58	324.52
476.94	324.30
477.31	324.02
477.67	323.83
478.04	323.75
478.41	323.73
478.77	323.94
479.14	323.97
479.50	324.15
479.87	324.50
480.23	324.84
480.60	325.08
480.96	325.33
481.33	325.91
481.69	326.52
482.06	327.04
482.42	327.56
482.79	328.18
483.15	328.99
483.52	329.92
483.88	330.75
484.25	331.65
484.61	332.70
484.98	333.80
485.34	335.06
485.71	336.40
486.07	337.79
486.44	339.11
486.80	340.73
487.17	342.32
487.53	344.17
487.90	346.01
488.26	348.07
488.62	350.27
488.99	352.31
489.35	354.51
489.72	356.88
490.08	359.38
490.44	361.96
490.81	364.64
491.17	367.38
491.54	370.37
491.90	373.41
492.26	376.66
492.63	380.06
492.99	383.60
493.36	387.25
493.72	391.12
494.08	395.05
494.45	399.28
494.81	403.67
495.17	408.08
495.54	412.79
495.90	417.56
496.26	422.40
496.63	427.53
496.99	432.87
497.35	438.40
497.72	444.16
498.08	450.04
498.44	456.11
498.80	462.50
499.17	468.98
499.53	475.69
499.89	482.47
500.26	489.41
500.62	496.47
500.98	503.82
501.34	511.29
501.71	519.06
502.07	526.82
502.43	534.77
502.79	542.83
503.16	551.19
503.52	559.71
503.88	568.38
504.24	577.31
504.60	586.32
504.97	595.48
505.33	604.71
505.69	614.44
506.05	624.28
506.41	634.04
506.78	643.99
507.14	654.13
507.50	664.53
507.86	675.11
508.22	685.78
508.59	696.35
508.95	707.31
509.31	718.49
509.67	729.81
510.03	741.13
510.39	752.81
510.75	764.50
511.12	776.36
511.48	788.32
511.84	800.43
512.20	812.65
512.56	825.16
512.92	837.84
513.28	850.36
513.64	863.05
514.00	875.72
514.37	888.58
514.73	901.52
515.09	914.29
515.45	927.03
515.81	939.85
516.17	953.07
516.53	966.02
516.89	978.84
517.25	991.86
517.61	1005.14
517.97	1018.33
518.33	1031.24
518.69	1044.49
519.05	1057.95
519.41	1071.44
519.77	1085.08
520.13	1098.13
520.49	1110.98
520.85	1124.15
521.21	1137.18
521.57	1150.65
521.93	1163.49
522.29	1176.94
522.65	1190.32
523.01	1203.69
523.37	1216.54
523.73	1229.48
524.09	1242.48
524.45	1255.78
524.81	1268.93
525.17	1281.98
525.53	1294.76
525.89	1307.88
526.25	1320.65
526.61	1333.27
526.97	1346.06
527.33	1358.55
527.68	1371.72
528.04	1384.97
528.40	1397.83
528.76	1410.80
529.12	1423.31
529.48	1436.23
529.84	1448.18
530.20	1460.61
530.56	1472.95
530.91	1485.94
531.27	1498.58
531.63	1511.02
531.99	1523.40
532.35	1535.35
532.71	1547.36
533.07	1559.90
533.42	1571.72
533.78	1583.54
534.14	1595.27
534.50	1606.14
534.86	1617.45
535.21	1627.97
535.57	1638.97
535.93	1649.94
536.29	1660.79
536.65	1671.91
537.00	1682.51
537.36	1693.55
537.72	1704.29
538.08	1715.15
538.44	1725.80
538.79	1736.46
539.15	1747.03
539.51	1757.43
539.87	1768.36
540.22	1778.91
540.58	1789.50
540.94	1800.03
541.29	1810.04
541.65	1819.55
542.01	1829.83
542.37	1839.68
542.72	1849.57
543.08	1859.10
543.44	1869.09
543.79	1878.05
544.15	1887.12
544.51	1896.88
544.87	1906.45
545.22	1915.26
545.58	1923.94
545.94	1932.53
546.29	1940.82
546.65	1948.84
547.01	1956.79
547.36	1964.30
547.72	1971.85
548.07	1979.41
548.43	1986.92
548.79	1994.52
549.14	2002.42
549.50	2010.53
549.86	2018.01
550.21	2025.23
550.57	2032.67
550.92	2039.24
551.28	2046.53
551.64	2053.77
551.99	2061.16
552.35	2068.15
552.70	2074.88
553.06	2081.29
553.41	2087.29
553.77	2093.60
554.13	2099.79
554.48	2106.60
554.84	2113.42
555.19	2119.64
555.55	2125.73
555.90	2131.77
556.26	2138.44
556.61	2144.15
556.97	2148.93
557.32	2154.70
557.68	2160.86
558.03	2166.52
558.39	2171.77
558.74	2177.56
559.10	2182.87
559.45	2188.20
559.81	2193.63
560.16	2199.16
560.52	2205.10
560.87	2211.59
561.23	2217.48
561.58	2224.06
561.94	2229.20
562.29	2233.93
562.64	2240.11
563.00	2245.72
563.35	2251.32
563.71	2257.10
564.06	2262.82
564.42	2268.82
564.77	2273.96
565.12	2279.20
565.48	2284.36
565.83	2289.95
566.19	2295.43
566.54	2300.92
566.89	2305.57
567.25	2310.05
567.60	2315.63
567.96	2320.74
568.31	2325.30
568.66	2329.51
569.02	2333.38
569.37	2337.19
569.72	2341.62
570.08	2345.29
570.43	2348.53
570.78	2351.70
571.14	2354.27
571.49	2357.48
571.84	2360.95
572.20	2363.81
572.55	2367.05
572.90	2369.40
573.26	2372.16
573.61	2374.60
573.96	2376.76
574.31	2378.95
574.67	2381.10
575.02	2382.21
575.37	2383.72
575.72	2384.57
576.08	2386.24
576.43	2386.61
576.78	2387.38
577.13	2389.23
577.49	2390.36
577.84	2391.61
578.19	2393.27
578.54	2394.03
578.90	2394.94
579.25	2394.93
579.60	2394.99
579.95	2394.31
580.30	2394.69
580.66	2394.31
581.01	2392.85
581.36	2390.88
581.71	2389.58
582.06	2388.64
582.42	2387.90
582.77	2385.88
583.12	2384.41
583.47	2383.29
583.82	2382.99
584.17	2381.87
584.53	2379.78
584.88	2377.90
585.23	2376.16
585.58	2373.86
585.93	2371.92
586.28	2370.06
586.63	2367.92
586.98	2365.90
587.34	2364.16
587.69	2361.99
588.04	2359.99
588.39	2358.82
588.74	2356.31
589.09	2353.81
589.44	2350.95
589.79	2348.65
590.14	2347.01
590.49	2344.32
590.84	2340.69
591.19	2337.78
591.54	2334.61
591.89	2330.77
592.25	2327.77
592.60	2323.62
592.95	2319.70
593.30	2315.59
593.65	2311.16
594.00	2306.89
594.35	2304.01
594.70	2299.51
595.05	2294.89
595.40	2289.64
595.75	2284.00
596.10	2280.52
596.45	2275.74
596.80	2271.19
597.15	2265.98
597.50	2260.15
597.85	2255.29
598.19	2250.12
598.54	2244.40
598.89	2239.40
599.24	2234.83
599.59	2228.65
599.94	2223.08
600.29	2217.23
600.64	2211.55
600.99	2205.01
601.34	2199.61
601.69	2192.81
602.04	2186.54
602.39	2180.17
602.74	2174.17
603.08	2168.81
603.43	2162.41
603.78	2155.61
604.13	2148.70
604.48	2141.60
604.83	2135.51
605.18	2129.30
605.53	2122.40
605.87	2115.53
606.22	2108.70
606.57	2100.96
606.92	2093.19
607.27	2086.34
607.62	2079.72
607.96	2072.80
608.31	2066.48
608.66	2058.83
609.01	2051.26
609.36	2044.18
609.70	2036.57
610.05	2028.89
610.40	2020.68
610.75	2012.50
611.10	2005.06
611.44	1996.24
611.79	1987.68
612.14	1977.80
612.49	1967.36
612.83	1958.32
613.18	1949.06
613.53	1939.87
613.88	1930.52
614.22	1922.01
614.57	1912.21
614.92	1901.90
615.27	1891.81
615.61	1881.80
615.96	1872.23
616.31	1862.78
616.65	1853.51
617.00	1843.61
617.35	1834.13
617.70	1824.54
618.04	1814.53
618.39	1804.33
618.74	1794.70
619.08	1785.13
619.43	1776.43
619.78	1768.25
620.12	1759.59
620.47	1749.83
620.82	1739.59
621.16	1729.72
621.51	1719.82
621.85	1709.90
622.20	1699.39
622.55	1688.89
622.89	1679.03
623.24	1669.34
623.59	1659.64
623.93	1649.54
624.28	1639.97
624.62	1629.93
624.97	1619.53
625.32	1609.86
625.66	1601.07
626.01	1592.22
626.35	1582.79
626.70	1572.86
627.04	1562.81
627.39	1552.73
627.73	1543.66
628.08	1534.69
628.43	1525.17
628.77	1515.96
629.12	1507.16
629.46	1499.41
629.81	1491.08
630.15	1481.44
630.50	1471.60
630.84	1461.14
631.19	1451.24
631.53	1441.68
631.88	1431.46
632.22	1421.60
632.57	1412.36
632.91	1402.16
633.26	1392.49
633.60	1382.98
633.95	1373.68
634.29	1364.37
634.64	1354.99
634.98	1345.15
635.32	1336.00
635.67	1327.52
636.01	1318.41
636.36	1308.65
636.70	1299.15
637.05	1289.77
637.39	1280.90
637.73	1272.31
638.08	1264.77
638.42	1256.57
638.77	1247.94
639.11	1239.78
639.45	1231.95
639.80	1223.26
640.14	1214.65
640.49	1205.70
640.83	1196.98
641.17	1188.87
641.52	1180.56
641.86	1171.99
642.20	1164.12
642.55	1155.48
642.89	1146.74
643.23	1137.99
643.58	1130.08
643.92	1121.08
644.26	1112.50
644.61	1104.13
644.95	1095.46
645.29	1086.23
645.64	1077.15
645.98	1068.88
646.32	1061.02
646.66	1052.64
647.01	1044.34
647.35	1036.28
647.69	1028.03
648.04	1019.73
648.38	1010.93
648.72	1002.30
649.06	994.06
649.41	985.93
649.75	978.08
650.09	970.26
650.43	962.38
650.78	954.11
651.12	946.55
651.46	939.16
651.80	931.91
652.14	924.60
652.49	917.22
652.83	910.04
653.17	902.43
653.51	894.75
653.85	887.48
654.20	880.32
654.54	872.83
654.88	865.77
655.22	858.73
655.56	851.81
655.90	845.07
656.25	838.41
656.59	831.51
656.93	824.50
657.27	817.42
657.61	810.55
657.95	804.54
658.29	798.76
658.64	792.69
658.98	786.36
659.32	779.94
659.66	773.71
660.00	767.31
660.34	761.28
660.68	755.30
661.02	749.12
661.36	743.34
661.70	737.70
662.05	732.08
662.39	726.62
662.73	721.34
663.07	716.01
663.41	710.49
663.75	704.93
664.09	699.35
664.43	694.02
664.77	688.72
665.11	682.97
665.45	677.12
665.79	671.42
666.13	665.78
666.47	660.36
666.81	655.07
667.15	649.86
667.49	644.76
667.83	639.65
668.17	634.52
668.51	629.37
668.85	624.54
669.19	619.75
669.53	614.81
669.87	609.73
670.21	605.05
670.55	600.40
670.89	596.05
671.23	591.92
671.57	587.61
671.91	583.41
672.25	579.40
672.58	575.29
672.92	571.26
673.26	567.40
673.60	563.65
673.94	559.85
674.28	556.30
674.62	552.66
674.96	548.97
675.30	545.47
675.64	541.94
675.97	538.37
676.31	534.77
676.65	531.22
676.99	527.89
677.33	524.15
677.67	520.58
678.01	516.79
678.34	513.07
678.68	509.62
679.02	506.05
679.36	502.32
679.70	498.81
680.04	495.46
680.37	492.16
680.71	488.85
681.05	485.80
681.39	482.62
681.73	479.49
682.06	476.47
682.40	473.45
682.74	470.26
683.08	467.16
683.42	464.10
683.75	461.22
684.09	458.24
684.43	455.49
684.77	452.61
685.10	449.88
685.44	447.08
685.78	444.24
686.12	441.49
686.45	438.85
686.79	436.19
687.13	433.68
687.46	431.09
687.80	428.50
688.14	425.63
688.48	423.07
688.81	420.43
689.15	417.93
689.49	415.34
689.82	412.89
690.16	410.33
690.50	407.92
690.83	405.39
691.17	402.93
691.51	400.51
691.84	398.37
692.18	396.16
692.52	393.98
692.85	391.89
693.19	389.86
693.52	387.73
693.86	385.57
694.20	383.41
694.53	381.29
694.87	379.11
695.21	377.11
695.54	374.96
695.88	372.85
696.21	370.70
696.55	368.61
696.88	366.60
697.22	364.70
697.56	362.86
697.89	361.05
698.23	359.32
698.56	357.54
698.90	355.72
699.23	353.87
699.57	352.04
699.90	350.19
700.24	348.44
700.58	346.75
700.91	345.14
701.25	343.60
701.58	342.06
701.92	340.51
702.25	338.93
702.59	337.38
702.92	335.88
703.26	334.37
703.59	332.99
703.93	331.75
704.26	330.36
704.60	328.89
704.93	327.49
705.26	326.03
705.60	324.62
705.93	323.20
706.27	321.92
706.60	320.71
706.94	319.52
707.27	318.17
707.61	316.86
707.94	315.55
708.27	314.10
708.61	312.66
708.94	311.34
709.28	310.10
709.61	308.90
709.94	307.75
710.28	306.59
710.61	305.44
710.95	304.04
711.28	302.96
711.61	301.77
711.95	300.70
712.28	299.51
712.61	298.37
712.95	297.32
713.28	296.29
713.61	295.13
713.95	294.02
714.28	293.02
714.61	292.00
714.95	291.01
715.28	290.00
715.61	289.02
715.95	288.08
716.28	287.14
716.61	286.24
716.95	285.23
717.28	284.28
717.61	283.34
717.94	282.52
718.28	281.52
718.61	280.69
718.94	279.77
719.27	278.96
719.61	278.17
719.94	277.34
720.27	276.39
720.60	275.61
720.94	274.84
721.27	274.09
721.60	273.42
721.93	272.74
722.27	272.10
722.60	271.48
722.93	270.82
723.26	270.15
723.59	269.47
723.93	268.85
724.26	268.24
724.59	267.65
724.92	267.03
725.25	266.55
725.59	266.04
725.92	265.52
726.25	264.99
726.58	264.45
726.91	263.87
727.24	263.39
727.57	262.86
727.91	262.26
728.24	261.73
728.57	261.17
728.90	260.62
729.23	260.04
729.56	259.62
729.89	259.11
730.22	258.63
730.55	258.08
730.89	257.58
731.22	257.08
731.55	256.57
731.88	256.08
732.21	255.53
732.54	254.97
732.87	254.48
733.20	254.00
733.53	253.55
733.86	253.14
734.19	252.67
734.52	252.22
734.85	251.94
735.18	251.47
735.51	251.10
735.84	250.69
736.17	250.31
736.50	249.76
736.83	249.60
737.16	249.16
737.49	248.82
737.82	248.42
738.15	248.10
738.48	247.73
738.81	247.35
739.14	246.94
739.47	246.59
739.80	246.20
740.13	245.85
740.46	245.44
740.79	245.01
741.12	244.67
741.45	244.35
741.78	243.92
742.11	243.67
742.44	243.26
742.77	242.94
743.10	242.61
743.43	242.28
743.75	241.71
744.08	241.67
744.41	241.31
744.74	241.01
745.07	240.59
745.40	240.29
745.73	240.05
746.06	239.75
746.39	239.48
746.71	239.15
747.04	238.81
747.37	238.50
747.70	238.27
748.03	237.94
748.36	237.68
748.68	237.40
749.01	237.04
749.34	236.79
749.67	236.53
750.00	236.29
750.33	236.19
750.65	235.96
750.98	235.43
751.31	235.20
751.64	234.98
751.97	234.90
752.29	234.67
752.62	234.32
752.95	234.06
753.28	233.77
753.60	233.53
753.93	233.35
754.26	233.13
754.59	232.85
754.91	232.65
755.24	232.41
755.57	232.18
755.90	231.95
756.22	231.71
756.55	231.45
756.88	231.18
757.20	230.82
757.53	230.55
757.86	230.34
758.19	230.14
758.51	229.91
758.84	229.58
759.17	229.38
759.49	229.25
759.82	229.19
760.15	229.04
760.47	228.88
760.80	228.66
761.13	228.53
761.45	228.33
761.78	228.18
762.11	228.02
762.43	227.83
762.76	227.67
763.08	227.54
763.41	227.44
763.74	227.30
764.06	227.17
764.39	227.01
764.71	226.91
765.04	226.75
765.37	226.59
765.69	226.46
766.02	226.30
766.34	226.14
766.67	225.90
767.00	225.81
767.32	225.80
767.65	225.80
767.97	225.65
768.30	225.53
768.62	225.39
768.95	225.26
769.27	225.16
769.60	225.09
769.92	224.91
770.25	224.73
770.57	224.61
770.90	224.51
771.22	224.40
771.55	224.25
771.87	224.15
772.20	224.01
772.52	224.07
772.85	224.23
773.17	224.16
773.50	224.09
773.82	223.96
774.15	223.73
774.47	223.53
774.80	223.42
775.12	223.36
775.45	223.26
775.77	223.16
776.09	223.06
776.42	222.97
776.74	222.99
777.07	222.88
777.39	222.79
777.72	222.68
778.04	222.63
778.36	222.52
778.69	222.44
779.01	222.41
779.33	222.15
779.66	221.82
779.98	221.71
780.31	221.65
780.63	221.68
780.95	221.67
781.28	221.60
781.60	221.51
781.92	221.46
782.25	221.37
782.57	221.33
782.89	221.25
783.22	221.10
783.54	220.95
783.86	220.94
784.19	220.88
784.51	220.88
784.83	220.80
785.16	220.75
785.48	220.73
785.80	220.64
786.12	220.60
786.45	220.56
786.77	220.50
787.09	220.40
787.42	220.25
787.74	220.15
788.06	220.10
788.38	220.02
788.71	219.91
789.03	219.89
789.35	219.84
789.67	219.80
789.99	219.82
790.32	219.77
790.64	219.75
790.96	219.84
791.28	219.73
791.61	219.66
791.93	219.64
792.25	219.56
792.57	219.67
792.89	219.58
793.21	219.55
793.54	219.52
793.86	219.46
794.18	219.43
794.50	219.39
794.82	219.36
795.14	219.34
795.47	219.36
795.79	219.30
796.11	219.21
796.43	219.16
796.75	219.12
797.07	219.07
797.39	219.01
797.71	218.84
798.04	218.80
798.36	218.81
798.68	218.75
799.00	218.72
799.32	218.59
799.64	218.62
799.96	218.57
800.28	218.57
800.60	218.52
800.92	218.48
801.24	218.45
801.56	218.42
801.89	218.36
802.21	218.33
802.53	218.30
802.85	218.34
803.17	218.41
803.49	218.33
803.81	218.31
804.13	218.24
804.45	218.21
804.77	218.22
805.09	218.21
805.41	218.21
805.73	218.17
806.05	218.10
806.37	218.05
806.69	217.99
807.01	217.96
807.33	217.96
807.65	217.91
807.97	217.95
808.28	217.90
808.60	217.91
808.92	217.84
809.24	217.95
809.56	217.92
809.88	217.81
810.20	217.81
810.52	217.82
810.84	217.77
811.16	217.73
811.48	217.66
811.80	217.68
812.12	217.64
812.43	217.66
812.75	217.62
813.07	217.58
813.39	217.60
813.71	217.54
814.03	217.51
814.35	217.46
814.67	217.39
814.98	217.35
815.30	217.33
815.62	217.29
815.94	217.14
816.26	217.08
816.58	217.02
816.89	217.01
817.21	216.95
817.53	216.95
817.85	216.93
818.17	216.92
818.48	216.80
818.80	216.77
819.12	216.72
819.44	216.70
819.76	216.64
820.07	216.64
820.39	216.64
820.71	216.66
821.03	216.62
821.34	216.59
821.66	216.58
821.98	216.55
822.30	216.55
822.61	216.63
822.93	216.62
823.25	216.61
823.57	216.58
823.88	216.64
824.20	216.62
824.52	216.66
824.83	216.63
825.15	216.61
825.47	216.61
825.79	216.61
826.10	216.58
826.42	216.58
826.74	216.54
827.05	216.52
827.37	216.46
827.69	216.48
828.00	216.45
828.32	216.43
828.64	216.39
828.95	216.48
829.27	216.42
829.58	216.37
829.90	216.39
830.22	216.39
830.53	216.31
830.85	216.29
831.17	216.21
831.48	216.22
831.80	216.22
832.11	216.18
832.43	216.14
832.75	216.14
833.06	216.25
833.38	216.20
833.69	216.17
834.01	216.14
834.32	216.13
834.64	216.13
834.96	216.15
835.27	216.15
835.59	216.09
835.90	216.03
836.22	216.04
836.53	215.97
836.85	215.92
837.16	216.09
837.48	216.06
837.79	216.11
838.11	216.10
838.42	216.09
838.74	216.14
839.05	216.11
839.37	216.08
839.68	215.94
840.00	215.92
840.31	215.95
840.63	215.98
840.94	215.95
841.26	215.90
841.57	215.86
841.88	215.87
842.20	215.79
842.51	215.75
842.83	215.74
843.14	215.94
843.46	215.95
843.77	215.83
844.08	215.82
844.40	215.74
844.71	215.70
845.03	215.66
845.34	215.62
845.65	215.61
845.97	215.61
846.28	215.63
846.60	215.66
846.91	215.62
847.22	215.60
847.54	215.61
847.85	215.63
848.16	215.64
848.48	215.60
848.79	215.72
849.10	215.71
849.42	215.70
849.73	215.50
850.04	215.49
850.36	215.42
850.67	215.44
850.98	215.45
851.30	215.45
851.61	215.44
851.92	215.45
852.23	215.52
852.55	215.55
852.86	215.52
853.17	215.51
853.49	215.52
853.80	215.54
854.11	215.57
854.42	215.59
854.74	215.54
855.05	215.53
855.36	215.42
855.67	215.46
855.99	215.46
856.30	215.69
856.61	215.69
856.92	215.71
857.23	215.71
857.55	215.69
857.86	215.70
858.17	215.72
858.48	215.67
858.79	215.62
859.11	215.58
859.42	215.58
859.73	215.54
860.04	215.51
860.35	215.49
860.66	215.41
860.98	215.38
861.29	215.40
861.60	215.39
861.91	215.42
862.22	215.39
862.53	215.37
862.84	215.14
863.16	215.16
863.47	215.12
863.78	215.11
864.09	215.12
864.40	215.12
864.71	215.16
865.02	215.22
865.33	215.21
865.64	215.21
865.95	215.22
866.27	215.39
866.58	215.38
866.89	215.36
867.20	215.37
867.51	215.34
867.82	215.35
868.13	215.40
868.44	215.34
868.75	215.38
869.06	215.38
869.37	215.38
869.68	215.31
869.99	215.34
870.30	215.33
870.61	215.36
870.92	215.34
871.23	215.28
871.54	215.26
871.85	215.27
872.16	215.30
872.47	215.28
872.78	215.12
873.09	215.13
873.40	215.12
873.71	215.14
874.02	215.16
874.33	215.14
874.64	215.10
874.95	215.15
875.26	215.08
875.56	215.05
875.87	215.06
876.18	215.07
876.49	215.29
876.80	215.27
877.11	215.25
877.42	215.25
877.73	215.26
878.04	215.20
878.35	215.21
878.66	215.19
878.96	215.22
879.27	215.18
879.58	215.19
879.89	215.17
880.20	215.24
880.51	215.22
880.82	215.23
881.12	215.24
881.43	215.21
881.74	215.20
882.05	215.21
882.36	215.21
882.67	215.21
882.97	214.98
883.28	214.98
883.59	214.95
883.90	214.95
884.21	214.99
884.51	215.01
884.82	214.99
885.13	215.00
885.44	214.98
885.74	215.01
886.05	214.98
886.36	214.97
886.67	214.85
886.98	214.98
887.28	215.00
887.59	215.01
887.90	215.02
888.20	214.99
888.51	215.03
888.82	215.01
889.13	215.04
889.43	215.21
889.74	215.20
890.05	215.19
890.35	215.16
890.66	215.12
890.97	215.09
891.28	215.08
891.58	215.04
891.89	215.00
892.20	215.00
892.50	214.97
892.81	214.98
893.12	214.99
893.42	214.85
893.73	214.84
894.04	214.83
894.34	214.85
894.65	214.86
894.95	214.85
895.26	214.86
895.57	214.94
895.87	214.76
896.18	214.80
896.48	214.82
896.79	214.83
897.10	214.85
897.40	214.88
897.71	214.91
898.01	214.93
898.32	214.98
898.63	214.97
898.93	214.99
899.24	215.01
899.54	214.99
899.85	214.99
900.15	214.97
900.46	214.94
900.76	214.94
901.07	214.95
901.38	214.91
901.68	214.91
901.99	214.78
902.29	214.80
902.60	214.80
902.90	214.77
903.21	214.77
903.51	214.78
903.82	214.84
904.12	214.81
904.43	214.81
904.73	214.77
905.03	214.79
905.34	214.97
905.64	214.94
905.95	214.95
906.25	214.95
906.56	214.94
906.86	214.97
907.17	214.94
907.47	214.96
907.77	214.96
908.08	214.92
908.38	214.95
908.69	214.95
908.99	214.95
909.30	214.99
909.60	215.02
909.90	215.02
910.21	214.92
910.51	214.90
910.81	214.89
911.12	214.90
911.42	214.87
911.73	214.66
912.03	214.69
912.33	214.71
912.64	214.71
912.94	214.69
913.24	214.67
913.55	214.65
913.85	214.62
914.15	214.67
914.46	214.72
914.76	214.71
915.06	214.70
915.37	214.68
915.67	214.64
915.97	214.61
916.27	214.54
916.58	214.56
916.88	214.57
917.18	214.54
917.49	214.73
917.79	214.73
918.09	214.77
918.39	214.81
918.70	214.81
919.00	214.81
919.30	214.94
919.60	214.92
919.91	214.91
920.21	214.91
920.51	214.87
920.81	214.84
921.12	214.89
921.42	214.85
921.72	214.85
922.02	214.85
922.32	214.88
922.63	214.92
922.93	215.01
923.23	215.02
923.53	215.04
923.83	214.87
924.13	214.90
924.44	214.91
924.74	214.94
925.04	215.02
925.34	215.02
925.64	214.93
925.94	214.93
926.24	215.08
926.55	215.07
926.85	215.11
927.15	215.11
927.45	215.09
927.75	215.08
928.05	215.08
928.35	215.08
928.65	215.11
928.95	215.12
929.26	215.08
929.56	215.11
929.86	215.10
930.16	215.08
930.46	215.05
930.76	215.05
931.06	214.95
931.36	214.84
931.66	214.88
931.96	214.89
932.26	214.92
932.56	214.78
932.86	214.79
933.16	214.78
933.46	214.75
933.76	214.74
934.06	214.81
934.36	214.88
934.66	214.89
934.96	214.85
935.26	214.83
935.56	214.86
935.86	214.80
936.16	214.76
936.46	214.77
936.76	214.77
937.06	214.73
937.36	214.78
937.66	214.82
937.96	214.80
938.26	214.77
938.56	214.74
938.86	214.76
939.16	214.81
939.46	214.85
939.76	214.88
940.06	214.90
940.35	214.83
940.65	214.73
940.95	214.73
941.25	214.73
941.55	214.70
941.85	214.67
942.15	214.73
942.45	214.82
942.75	214.79
943.04	214.79
943.34	214.84
943.64	214.78
943.94	214.75
944.24	214.75
944.54	214.73
944.84	214.71
945.13	214.69
945.43	214.66
945.73	214.60
946.03	214.59
946.33	214.55
946.62	214.56
946.92	214.58
947.22	214.59
947.52	214.56
947.82	214.59
948.11	214.59
948.41	214.53
948.71	214.46
949.01	214.50
949.31	214.50
949.60	214.47
949.90	214.52
950.20	214.50
950.50	214.47
950.79	214.47
951.09	214.51
951.39	214.52
951.69	214.48
951.98	214.54
952.28	214.52
952.58	214.51
952.87	214.50
953.17	214.51
953.47	214.48
953.76	214.47
954.06	214.42
954.36	214.38
954.66	214.37
954.95	214.44
955.25	214.46
955.55	214.48
955.84	214.47
956.14	214.47
956.44	214.50
956.73	214.48
957.03	214.48
957.32	214.51
957.62	214.51
957.92	214.55
958.21	214.51
958.51	214.74
958.81	214.76
959.10	214.80
959.40	214.85
959.69	214.90
959.99	214.96
960.29	215.00
960.58	214.99
960.88	215.06
961.17	215.03
961.47	215.02
961.76	214.99
962.06	214.99
962.36	214.96
962.65	214.99
962.95	215.00
963.24	215.00
963.54	214.98
963.83	215.02
964.13	215.00
964.42	214.98
964.72	214.81
965.01	214.83
965.31	214.78
965.60	214.72
965.90	214.82
966.19	214.78
966.49	214.74
966.78	214.74
967.08	214.75
967.37	214.74
967.67	214.72
967.96	214.77
968.26	214.79
968.55	214.80
968.85	214.73
969.14	214.73
969.43	214.74
969.73	214.72
970.02	214.67
970.32	214.68
970.61	214.67
970.91	214.61
971.20	214.58
971.49	214.63
971.79	214.67
972.08	214.54
972.38	214.57
972.67	214.59
972.96	214.65
973.26	214.57
973.55	214.64
973.85	214.62
974.14	214.61
974.43	214.63
974.73	214.63
975.02	214.66
975.31	214.67
975.61	214.64
975.90	214.64
976.19	214.63
976.49	214.65
976.78	214.65
977.07	214.63
977.37	214.65
977.66	214.63
977.95	214.56
978.24	214.55
978.54	214.60
978.83	214.56
979.12	214.52
979.42	214.54
979.71	214.49
980.00	214.50
980.29	214.51
980.59	214.45
980.88	214.51
981.17	214.48
981.46	214.49
981.76	214.54
982.05	214.61
982.34	214.61
982.63	214.61
982.93	214.64
983.22	214.70
983.51	214.70
983.80	214.72
984.09	214.77
984.39	214.74
984.68	214.70
984.97	214.71
985.26	214.70
985.55	214.72
985.85	214.68
986.14	214.69
986.43	214.70
986.72	214.70
987.01	214.62
987.30	214.64
987.59	214.63
987.89	214.60
988.18	214.54
988.47	214.51
988.76	214.45
989.05	214.44
989.34	214.41
989.63	214.45
989.92	214.42
990.22	214.38
990.51	214.38
990.80	214.38
991.09	214.41
991.38	214.43
991.67	214.39
991.96	214.41
992.25	214.39
992.54	214.38
992.83	214.35
993.12	214.35
993.41	214.38
993.70	214.46
993.99	214.54
994.28	214.55
994.58	214.61
994.87	214.63
995.16	214.61
995.45	214.61
995.74	214.49
996.03	214.54
996.32	214.57
996.61	214.65
996.90	214.64
997.19	214.62
997.48	214.63
997.77	214.61
998.06	214.57
998.34	214.58
998.63	214.57
998.92	214.57
999.21	214.62
999.50	214.61
999.79	214.56
1000.08	214.52
1000.37	214.54
1000.66	214.50
1000.95	214.54
1001.24	214.54
1001.53	214.55
1001.82	214.58
1002.11	214.52
1002.40	214.56
1002.68	214.59
1002.97	214.73
1003.26	214.73
1003.55	214.71
1003.84	214.76
1004.13	214.87
1004.42	214.85
1004.71	214.85
1004.99	214.86
1005.28	214.89
1005.57	214.89
1005.86	214.85
1006.15	214.84
1006.44	214.77
1006.72	214.81
1007.01	214.77
1007.30	214.78
1007.59	214.78
1007.88	214.76
1008.17	214.78
1008.45	214.71
1008.74	214.60
1009.03	214.50
1009.32	214.51
1009.60	214.49
1009.89	214.46
1010.18	214.35
1010.47	214.34
1010.76	214.32
1011.04	214.33
1011.33	214.35
1011.62	214.33
1011.91	214.37
1012.19	214.36
1012.48	214.39
1012.77	214.37
1013.05	214.46
1013.34	214.48
1013.63	214.49
1013.92	214.54
1014.20	214.51
1014.49	214.53
1014.78	214.59
1015.06	214.56
1015.35	214.56
1015.64	214.59
1015.92	214.59
1016.21	214.63
1016.50	214.65
1016.78	214.70
1017.07	214.69
1017.36	214.62
1017.64	214.59
1017.93	214.61
1018.22	214.56
1018.50	214.55
1018.79	214.58
1019.08	214.46
1019.36	214.48
1019.65	214.45
1019.93	214.52
1020.22	214.56
1020.51	214.69
1020.79	214.66
1021.08	213.78
1021.36	214.22
1021.65	214.80
1021.94	214.09
1022.22	214.71
1022.51	214.32
1022.79	215.85
1023.08	214.88
1023.36	217.38
1023.65	214.40
>>>>>End Processed Spectral Data<<<<<
