SpectraSuite Data File
++++++++++++++++++++++++++++++++++++
Date: Tue Jan 29 16:05:21 EST 2013
User: group
Dark Spectrum Present: No
Reference Spectrum Present: No
Number of Sampled Component Spectra: 1
Spectrometers: USB2E7196
Integration Time (usec): 65000 (USB2E7196)
Spectra Averaged: 100 (USB2E7196)
Boxcar Smoothing: 10 (USB2E7196)
Correct for Electrical Dark: No (USB2E7196)
Strobe/Lamp Enabled: No (USB2E7196)
Correct for Detector Non-linearity: No (USB2E7196)
Correct for Stray Light: No (USB2E7196)
Number of Pixels in Processed Spectrum: 2048
>>>>>Begin Processed Spectral Data<<<<<
339.09	0.00
339.48	202.34
339.86	203.80
340.24	205.13
340.63	207.01
341.01	211.38
341.39	209.18
341.78	211.62
342.16	212.85
342.54	212.72
342.93	201.72
343.31	211.92
343.69	212.44
344.07	212.94
344.46	213.37
344.84	213.77
345.22	213.95
345.60	214.20
345.99	214.36
346.37	214.48
346.75	214.59
347.13	214.69
347.52	214.78
347.90	214.89
348.28	214.94
348.66	215.05
349.05	215.01
349.43	215.09
349.81	215.15
350.19	215.20
350.57	215.29
350.96	215.40
351.34	215.48
351.72	215.60
352.10	215.69
352.48	215.77
352.87	215.81
353.25	215.87
353.63	215.97
354.01	216.05
354.39	216.13
354.77	216.19
355.15	216.32
355.54	216.29
355.92	216.29
356.30	216.36
356.68	216.55
357.06	216.65
357.44	216.66
357.82	216.74
358.20	216.82
358.58	216.89
358.97	216.97
359.35	217.06
359.73	217.16
360.11	217.23
360.49	217.33
360.87	217.38
361.25	217.45
361.63	217.55
362.01	217.58
362.39	217.58
362.77	217.66
363.15	217.67
363.53	217.79
363.91	217.84
364.29	217.84
364.67	217.69
365.05	217.68
365.43	217.72
365.81	217.74
366.19	217.85
366.57	217.94
366.95	217.95
367.33	217.94
367.71	217.96
368.09	217.99
368.47	217.96
368.85	217.97
369.23	217.99
369.61	217.92
369.99	217.99
370.37	218.04
370.75	218.13
371.13	218.08
371.51	218.02
371.89	218.01
372.27	218.02
372.65	218.02
373.03	218.03
373.41	218.02
373.78	217.98
374.16	217.84
374.54	217.75
374.92	217.67
375.30	217.62
375.68	217.55
376.06	217.51
376.44	217.46
376.82	217.40
377.19	217.32
377.57	217.29
377.95	217.17
378.33	217.09
378.71	216.89
379.09	216.89
379.47	216.86
379.84	216.84
380.22	216.77
380.60	216.69
380.98	216.64
381.36	216.56
381.73	216.49
382.11	216.50
382.49	216.44
382.87	216.42
383.25	216.40
383.62	216.58
384.00	216.50
384.38	216.47
384.76	216.49
385.13	216.57
385.51	216.54
385.89	216.51
386.27	216.48
386.64	216.48
387.02	216.38
387.40	216.37
387.78	216.36
388.15	216.36
388.53	216.30
388.91	216.25
389.29	216.26
389.66	216.27
390.04	216.22
390.42	216.23
390.79	216.17
391.17	216.14
391.55	215.90
391.92	215.89
392.30	215.88
392.68	215.81
393.05	215.77
393.43	215.77
393.81	215.75
394.18	215.73
394.56	215.75
394.94	215.83
395.31	215.81
395.69	215.85
396.06	215.87
396.44	215.90
396.82	215.89
397.19	216.02
397.57	216.02
397.95	216.07
398.32	216.01
398.70	216.10
399.07	216.19
399.45	216.24
399.82	216.30
400.20	216.36
400.58	216.43
400.95	216.42
401.33	216.50
401.70	216.73
402.08	216.84
402.45	216.89
402.83	217.02
403.20	217.10
403.58	217.17
403.95	217.31
404.33	217.47
404.71	217.64
405.08	217.83
405.46	218.00
405.83	218.20
406.21	218.41
406.58	218.61
406.96	218.82
407.33	219.06
407.70	219.35
408.08	219.79
408.45	220.14
408.83	220.53
409.20	220.89
409.58	221.16
409.95	221.60
410.33	222.09
410.70	222.52
411.08	223.08
411.45	223.67
411.82	224.20
412.20	224.89
412.57	225.69
412.95	226.28
413.32	227.05
413.69	227.81
414.07	228.71
414.44	229.67
414.82	230.65
415.19	231.78
415.56	232.92
415.94	234.06
416.31	235.40
416.68	236.74
417.06	238.26
417.43	239.75
417.81	241.41
418.18	243.12
418.55	244.97
418.93	246.92
419.30	248.92
419.67	251.07
420.04	253.24
420.42	255.55
420.79	258.27
421.16	261.00
421.54	263.84
421.91	266.74
422.28	269.70
422.66	272.90
423.03	275.98
423.40	279.22
423.77	282.68
424.15	286.26
424.52	289.93
424.89	293.99
425.26	297.93
425.64	301.70
426.01	305.83
426.38	310.16
426.75	314.56
427.13	319.13
427.50	323.94
427.87	328.98
428.24	334.02
428.61	338.83
428.99	344.16
429.36	349.96
429.73	355.64
430.10	361.35
430.47	367.22
430.85	373.35
431.22	379.80
431.59	386.68
431.96	393.23
432.33	400.49
432.70	407.51
433.08	415.74
433.45	423.52
433.82	431.23
434.19	439.79
434.56	448.20
434.93	456.23
435.30	464.23
435.68	473.02
436.05	481.63
436.42	490.21
436.79	498.04
437.16	506.47
437.53	515.39
437.90	524.21
438.27	532.81
438.64	541.72
439.01	550.01
439.38	557.35
439.75	564.37
440.13	572.50
440.50	580.14
440.87	586.31
441.24	592.69
441.61	599.82
441.98	604.95
442.35	611.03
442.72	617.16
443.09	623.01
443.46	626.59
443.83	628.99
444.20	631.10
444.57	634.22
444.94	635.64
445.31	637.06
445.68	638.40
446.05	639.05
446.42	638.27
446.79	637.25
447.16	636.18
447.53	635.48
447.90	632.19
448.27	629.03
448.64	624.54
449.01	621.31
449.37	615.58
449.74	610.14
450.11	603.41
450.48	596.26
450.85	589.07
451.22	582.79
451.59	576.87
451.96	571.21
452.33	563.52
452.70	556.65
453.07	548.41
453.43	540.10
453.80	532.09
454.17	524.38
454.54	517.21
454.91	509.27
455.28	501.63
455.65	494.56
456.02	487.31
456.38	481.29
456.75	473.78
457.12	467.51
457.49	461.28
457.86	455.43
458.23	450.25
458.59	444.56
458.96	438.87
459.33	433.81
459.70	428.71
460.07	424.65
460.43	419.97
460.80	415.59
461.17	411.79
461.54	407.72
461.91	403.90
462.27	399.88
462.64	396.59
463.01	392.90
463.38	389.33
463.74	385.77
464.11	382.60
464.48	379.87
464.85	376.79
465.21	374.42
465.58	371.90
465.95	368.88
466.32	366.34
466.68	363.81
467.05	361.31
467.42	358.87
467.78	356.30
468.15	353.85
468.52	352.04
468.88	349.59
469.25	347.47
469.62	345.74
469.98	343.88
470.35	342.17
470.72	340.58
471.08	338.89
471.45	337.48
471.82	336.02
472.18	334.41
472.55	333.32
472.92	332.07
473.28	330.93
473.65	329.83
474.02	328.80
474.38	328.00
474.75	327.33
475.11	326.55
475.48	326.04
475.85	325.62
476.21	325.16
476.58	324.86
476.94	324.72
477.31	324.44
477.67	324.17
478.04	324.06
478.41	324.03
478.77	324.22
479.14	324.16
479.50	324.31
479.87	324.61
480.23	324.95
480.60	325.19
480.96	325.45
481.33	326.05
481.69	326.59
482.06	327.06
482.42	327.55
482.79	328.18
483.15	328.92
483.52	329.85
483.88	330.76
484.25	331.71
484.61	332.72
484.98	333.78
485.34	335.15
485.71	336.53
486.07	337.99
486.44	339.31
486.80	340.95
487.17	342.61
487.53	344.44
487.90	346.31
488.26	348.33
488.62	350.47
488.99	352.49
489.35	354.66
489.72	357.06
490.08	359.56
490.44	362.04
490.81	364.75
491.17	367.50
491.54	370.46
491.90	373.56
492.26	376.79
492.63	380.21
492.99	383.64
493.36	387.24
493.72	391.13
494.08	395.09
494.45	399.27
494.81	403.67
495.17	408.12
495.54	412.83
495.90	417.61
496.26	422.50
496.63	427.75
496.99	433.16
497.35	438.75
497.72	444.57
498.08	450.55
498.44	456.63
498.80	462.97
499.17	469.42
499.53	476.04
499.89	482.87
500.26	489.73
500.62	496.84
500.98	504.28
501.34	511.71
501.71	519.41
502.07	527.17
502.43	535.12
502.79	543.22
503.16	551.59
503.52	560.18
503.88	568.85
504.24	577.74
504.60	586.85
504.97	596.10
505.33	605.38
505.69	615.20
506.05	625.11
506.41	634.88
506.78	644.88
507.14	655.13
507.50	665.53
507.86	676.21
508.22	686.91
508.59	697.52
508.95	708.59
509.31	719.87
509.67	731.31
510.03	742.66
510.39	754.37
510.75	766.16
511.12	777.93
511.48	790.07
511.84	802.27
512.20	814.52
512.56	827.01
512.92	839.61
513.28	852.22
513.64	864.87
514.00	877.71
514.37	890.58
514.73	903.53
515.09	916.39
515.45	929.19
515.81	942.14
516.17	955.35
516.53	968.34
516.89	981.32
517.25	994.24
517.61	1007.68
517.97	1020.85
518.33	1033.67
518.69	1047.14
519.05	1060.62
519.41	1074.12
519.77	1087.80
520.13	1100.93
520.49	1113.98
520.85	1127.12
521.21	1140.17
521.57	1153.67
521.93	1166.60
522.29	1180.13
522.65	1193.60
523.01	1207.00
523.37	1219.94
523.73	1232.94
524.09	1245.85
524.45	1259.07
524.81	1272.45
525.17	1285.51
525.53	1298.51
525.89	1311.59
526.25	1324.37
526.61	1337.01
526.97	1349.79
527.33	1362.34
527.68	1375.47
528.04	1388.68
528.40	1401.48
528.76	1414.53
529.12	1426.98
529.48	1440.05
529.84	1451.97
530.20	1464.36
530.56	1476.76
530.91	1489.85
531.27	1502.52
531.63	1515.16
531.99	1527.47
532.35	1539.27
532.71	1551.36
533.07	1563.80
533.42	1575.77
533.78	1587.62
534.14	1599.36
534.50	1610.32
534.86	1621.53
535.21	1632.00
535.57	1643.18
535.93	1654.23
536.29	1665.09
536.65	1676.32
537.00	1686.98
537.36	1698.04
537.72	1708.94
538.08	1719.91
538.44	1730.28
538.79	1741.09
539.15	1751.55
539.51	1762.10
539.87	1773.26
540.22	1783.72
540.58	1794.45
540.94	1805.07
541.29	1815.14
541.65	1824.67
542.01	1834.90
542.37	1844.80
542.72	1854.78
543.08	1864.26
543.44	1874.35
543.79	1883.40
544.15	1892.51
544.51	1902.29
544.87	1911.95
545.22	1920.66
545.58	1929.26
545.94	1938.04
546.29	1946.17
546.65	1954.32
547.01	1962.19
547.36	1969.57
547.72	1977.18
548.07	1984.52
548.43	1992.04
548.79	1999.48
549.14	2007.32
549.50	2015.48
549.86	2023.08
550.21	2030.36
550.57	2037.76
550.92	2044.32
551.28	2051.68
551.64	2058.95
551.99	2066.12
552.35	2073.20
552.70	2079.92
553.06	2086.40
553.41	2092.48
553.77	2098.87
554.13	2105.06
554.48	2112.04
554.84	2118.91
555.19	2125.32
555.55	2131.66
555.90	2137.77
556.26	2144.56
556.61	2150.35
556.97	2155.24
557.32	2160.97
557.68	2167.22
558.03	2172.98
558.39	2178.18
558.74	2184.00
559.10	2189.38
559.45	2194.92
559.81	2200.25
560.16	2205.86
560.52	2211.64
560.87	2218.21
561.23	2224.18
561.58	2230.85
561.94	2235.99
562.29	2240.88
562.64	2247.00
563.00	2252.59
563.35	2258.23
563.71	2263.98
564.06	2269.72
564.42	2275.57
564.77	2280.75
565.12	2285.98
565.48	2291.29
565.83	2296.98
566.19	2302.54
566.54	2308.03
566.89	2312.73
567.25	2317.51
567.60	2323.10
567.96	2328.47
568.31	2332.83
568.66	2337.06
569.02	2340.87
569.37	2344.65
569.72	2349.00
570.08	2352.49
570.43	2355.67
570.78	2358.80
571.14	2361.48
571.49	2364.70
571.84	2368.44
572.20	2371.34
572.55	2374.39
572.90	2376.69
573.26	2379.70
573.61	2382.06
573.96	2384.33
574.31	2386.32
574.67	2388.24
575.02	2389.26
575.37	2390.73
575.72	2391.68
576.08	2393.44
576.43	2393.88
576.78	2394.69
577.13	2396.65
577.49	2397.91
577.84	2399.34
578.19	2401.00
578.54	2401.90
578.90	2403.06
579.25	2402.98
579.60	2403.31
579.95	2402.89
580.30	2403.25
580.66	2402.63
581.01	2401.31
581.36	2399.27
581.71	2398.11
582.06	2397.31
582.42	2396.79
582.77	2394.92
583.12	2393.71
583.47	2392.69
583.82	2392.30
584.17	2391.32
584.53	2389.25
584.88	2387.36
585.23	2385.55
585.58	2383.36
585.93	2381.24
586.28	2379.22
586.63	2377.25
586.98	2375.12
587.34	2373.43
587.69	2371.12
588.04	2369.26
588.39	2367.91
588.74	2365.60
589.09	2363.18
589.44	2360.45
589.79	2358.09
590.14	2356.33
590.49	2353.49
590.84	2349.72
591.19	2346.98
591.54	2343.86
591.89	2340.08
592.25	2337.15
592.60	2333.15
592.95	2329.24
593.30	2325.32
593.65	2320.99
594.00	2316.63
594.35	2313.68
594.70	2309.10
595.05	2304.65
595.40	2299.30
595.75	2293.94
596.10	2290.44
596.45	2285.70
596.80	2281.08
597.15	2275.87
597.50	2270.01
597.85	2265.28
598.19	2260.15
598.54	2254.46
598.89	2249.49
599.24	2244.92
599.59	2238.69
599.94	2233.10
600.29	2227.32
600.64	2221.65
600.99	2215.13
601.34	2209.84
601.69	2203.02
602.04	2196.77
602.39	2190.40
602.74	2184.58
603.08	2179.00
603.43	2172.57
603.78	2165.90
604.13	2158.74
604.48	2151.75
604.83	2145.70
605.18	2139.40
605.53	2132.65
605.87	2125.53
606.22	2118.70
606.57	2110.87
606.92	2103.31
607.27	2096.44
607.62	2089.86
607.96	2082.80
608.31	2076.24
608.66	2068.50
609.01	2060.91
609.36	2053.76
609.70	2046.07
610.05	2038.42
610.40	2030.27
610.75	2022.03
611.10	2014.42
611.44	2005.85
611.79	1997.20
612.14	1987.38
612.49	1976.94
612.83	1967.65
613.18	1958.53
613.53	1949.33
613.88	1939.92
614.22	1931.25
614.57	1921.34
614.92	1910.90
615.27	1900.93
615.61	1891.07
615.96	1881.34
616.31	1871.84
616.65	1862.58
617.00	1852.72
617.35	1842.91
617.70	1833.22
618.04	1823.03
618.39	1812.66
618.74	1802.89
619.08	1793.21
619.43	1784.56
619.78	1776.40
620.12	1767.61
620.47	1757.81
620.82	1747.44
621.16	1737.62
621.51	1727.66
621.85	1717.78
622.20	1707.22
622.55	1696.64
622.89	1686.69
623.24	1676.97
623.59	1667.26
623.93	1657.12
624.28	1647.52
624.62	1637.48
624.97	1627.11
625.32	1617.53
625.66	1608.79
626.01	1599.98
626.35	1590.52
626.70	1580.23
627.04	1570.07
627.39	1560.07
627.73	1550.91
628.08	1541.83
628.43	1532.16
628.77	1522.96
629.12	1514.12
629.46	1506.35
629.81	1497.86
630.15	1488.20
630.50	1478.39
630.84	1467.78
631.19	1457.93
631.53	1448.40
631.88	1438.15
632.22	1428.09
632.57	1418.68
632.91	1408.51
633.26	1398.64
633.60	1389.13
633.95	1379.93
634.29	1370.47
634.64	1361.06
634.98	1351.15
635.32	1341.92
635.67	1333.43
636.01	1324.17
636.36	1314.20
636.70	1304.56
637.05	1295.14
637.39	1286.25
637.73	1277.66
638.08	1270.16
638.42	1261.78
638.77	1252.94
639.11	1244.79
639.45	1236.98
639.80	1228.29
640.14	1219.63
640.49	1210.75
640.83	1201.94
641.17	1193.86
641.52	1185.63
641.86	1177.17
642.20	1169.28
642.55	1160.56
642.89	1151.75
643.23	1143.01
643.58	1134.97
643.92	1125.96
644.26	1117.29
644.61	1108.88
644.95	1100.07
645.29	1090.79
645.64	1081.65
645.98	1073.40
646.32	1065.45
646.66	1056.91
647.01	1048.52
647.35	1040.34
647.69	1031.92
648.04	1023.51
648.38	1014.40
648.72	1005.65
649.06	997.14
649.41	988.99
649.75	981.04
650.09	973.15
650.43	965.04
650.78	956.88
651.12	949.24
651.46	941.99
651.80	934.75
652.14	927.41
652.49	920.03
652.83	912.72
653.17	904.92
653.51	897.34
653.85	890.11
654.20	882.86
654.54	875.24
654.88	868.18
655.22	861.16
655.56	854.39
655.90	847.52
656.25	840.90
656.59	833.93
656.93	826.97
657.27	819.87
657.61	813.07
657.95	807.05
658.29	801.19
658.64	794.97
658.98	788.54
659.32	781.98
659.66	775.74
660.00	769.45
660.34	763.54
660.68	757.44
661.02	751.21
661.36	745.43
661.70	739.83
662.05	734.21
662.39	728.80
662.73	723.49
663.07	718.20
663.41	712.64
663.75	706.98
664.09	701.41
664.43	696.10
664.77	690.80
665.11	684.97
665.45	679.07
665.79	673.33
666.13	667.65
666.47	662.25
666.81	656.85
667.15	651.54
667.49	646.37
667.83	641.15
668.17	635.96
668.51	630.81
668.85	625.98
669.19	621.14
669.53	616.11
669.87	611.08
670.21	606.41
670.55	601.72
670.89	597.38
671.23	593.17
671.57	588.77
671.91	584.55
672.25	580.52
672.58	576.45
672.92	572.46
673.26	568.58
673.60	564.74
673.94	560.93
674.28	557.29
674.62	553.61
674.96	549.97
675.30	546.48
675.64	542.89
675.97	539.35
676.31	535.78
676.65	532.18
676.99	528.74
677.33	524.86
677.67	521.23
678.01	517.43
678.34	513.79
678.68	510.33
679.02	506.76
679.36	503.08
679.70	499.44
680.04	495.99
680.37	492.64
680.71	489.39
681.05	486.26
681.39	483.16
681.73	479.96
682.06	477.01
682.40	474.01
682.74	470.86
683.08	467.64
683.42	464.54
683.75	461.61
684.09	458.70
684.43	456.01
684.77	453.15
685.10	450.35
685.44	447.45
685.78	444.58
686.12	441.89
686.45	439.16
686.79	436.65
687.13	434.10
687.46	431.46
687.80	428.82
688.14	426.07
688.48	423.51
688.81	420.95
689.15	418.37
689.49	415.80
689.82	413.36
690.16	410.83
690.50	408.39
690.83	405.94
691.17	403.37
691.51	400.99
691.84	398.81
692.18	396.62
692.52	394.50
692.85	392.44
693.19	390.32
693.52	388.22
693.86	386.00
694.20	383.85
694.53	381.77
694.87	379.64
695.21	377.57
695.54	375.41
695.88	373.23
696.21	371.04
696.55	368.97
696.88	366.94
697.22	365.05
697.56	363.24
697.89	361.45
698.23	359.78
698.56	358.00
698.90	356.25
699.23	354.42
699.57	352.58
699.90	350.76
700.24	349.02
700.58	347.30
700.91	345.70
701.25	344.18
701.58	342.66
701.92	341.11
702.25	339.54
702.59	338.00
702.92	336.59
703.26	335.11
703.59	333.70
703.93	332.50
704.26	331.07
704.60	329.55
704.93	328.08
705.26	326.59
705.60	325.17
705.93	323.69
706.27	322.40
706.60	321.17
706.94	319.98
707.27	318.61
707.61	317.32
707.94	316.00
708.27	314.53
708.61	313.09
708.94	311.76
709.28	310.51
709.61	309.28
709.94	308.05
710.28	306.86
710.61	305.69
710.95	304.26
711.28	303.21
711.61	302.08
711.95	300.99
712.28	299.81
712.61	298.64
712.95	297.61
713.28	296.61
713.61	295.46
713.95	294.29
714.28	293.29
714.61	292.29
714.95	291.31
715.28	290.33
715.61	289.36
715.95	288.39
716.28	287.47
716.61	286.56
716.95	285.60
717.28	284.70
717.61	283.73
717.94	282.88
718.28	281.87
718.61	280.98
718.94	280.07
719.27	279.25
719.61	278.49
719.94	277.66
720.27	276.73
720.60	275.95
720.94	275.19
721.27	274.44
721.60	273.75
721.93	273.03
722.27	272.37
722.60	271.74
722.93	271.06
723.26	270.41
723.59	269.69
723.93	269.10
724.26	268.46
724.59	267.85
724.92	267.24
725.25	266.76
725.59	266.23
725.92	265.72
726.25	265.16
726.58	264.62
726.91	264.03
727.24	263.49
727.57	262.94
727.91	262.35
728.24	261.82
728.57	261.24
728.90	260.75
729.23	260.16
729.56	259.73
729.89	259.24
730.22	258.69
730.55	258.19
730.89	257.63
731.22	257.10
731.55	256.54
731.88	256.04
732.21	255.49
732.54	254.96
732.87	254.46
733.20	253.97
733.53	253.50
733.86	253.10
734.19	252.63
734.52	252.26
734.85	251.98
735.18	251.51
735.51	251.15
735.84	250.66
736.17	250.30
736.50	249.76
736.83	249.61
737.16	249.26
737.49	248.90
737.82	248.50
738.15	248.16
738.48	247.81
738.81	247.44
739.14	247.05
739.47	246.68
739.80	246.35
740.13	246.06
740.46	245.66
740.79	245.24
741.12	244.90
741.45	244.51
741.78	244.06
742.11	243.79
742.44	243.39
742.77	243.09
743.10	242.75
743.43	242.40
743.75	241.82
744.08	241.71
744.41	241.39
744.74	241.06
745.07	240.70
745.40	240.43
745.73	240.24
746.06	239.91
746.39	239.65
746.71	239.29
747.04	238.93
747.37	238.62
747.70	238.38
748.03	238.10
748.36	237.84
748.68	237.57
749.01	237.23
749.34	236.99
749.67	236.75
750.00	236.51
750.33	236.43
750.65	236.20
750.98	235.68
751.31	235.42
751.64	235.23
751.97	235.16
752.29	234.91
752.62	234.57
752.95	234.31
753.28	234.06
753.60	233.83
753.93	233.67
754.26	233.46
754.59	233.16
754.91	232.92
755.24	232.67
755.57	232.44
755.90	232.25
756.22	232.00
756.55	231.75
756.88	231.46
757.20	231.13
757.53	230.85
757.86	230.64
758.19	230.44
758.51	230.21
758.84	229.88
759.17	229.68
759.49	229.50
759.82	229.46
760.15	229.31
760.47	229.13
760.80	228.89
761.13	228.73
761.45	228.58
761.78	228.40
762.11	228.22
762.43	228.04
762.76	227.87
763.08	227.75
763.41	227.60
763.74	227.50
764.06	227.32
764.39	227.17
764.71	227.06
765.04	226.92
765.37	226.76
765.69	226.62
766.02	226.50
766.34	226.34
766.67	226.09
767.00	225.98
767.32	225.94
767.65	225.93
767.97	225.76
768.30	225.64
768.62	225.52
768.95	225.40
769.27	225.27
769.60	225.19
769.92	225.01
770.25	224.89
770.57	224.72
770.90	224.62
771.22	224.52
771.55	224.41
771.87	224.32
772.20	224.20
772.52	224.25
772.85	224.39
773.17	224.31
773.50	224.23
773.82	224.07
774.15	223.87
774.47	223.62
774.80	223.54
775.12	223.42
775.45	223.34
775.77	223.28
776.09	223.22
776.42	223.11
776.74	223.10
777.07	223.00
777.39	222.97
777.72	222.85
778.04	222.81
778.36	222.69
778.69	222.62
779.01	222.55
779.33	222.32
779.66	221.98
779.98	221.87
780.31	221.79
780.63	221.78
780.95	221.76
781.28	221.74
781.60	221.65
781.92	221.58
782.25	221.53
782.57	221.46
782.89	221.38
783.22	221.27
783.54	221.18
783.86	221.14
784.19	221.04
784.51	221.05
784.83	220.94
785.16	220.88
785.48	220.79
785.80	220.76
786.12	220.72
786.45	220.67
786.77	220.66
787.09	220.58
787.42	220.46
787.74	220.41
788.06	220.39
788.38	220.33
788.71	220.27
789.03	220.22
789.35	220.18
789.67	220.12
789.99	220.11
790.32	220.01
790.64	219.95
790.96	220.09
791.28	219.97
791.61	219.92
791.93	219.91
792.25	219.87
792.57	219.97
792.89	219.89
793.21	219.87
793.54	219.78
793.86	219.75
794.18	219.72
794.50	219.64
794.82	219.54
795.14	219.55
795.47	219.55
795.79	219.49
796.11	219.44
796.43	219.37
796.75	219.31
797.07	219.28
797.39	219.26
797.71	219.03
798.04	219.01
798.36	218.98
798.68	218.96
799.00	218.93
799.32	218.79
799.64	218.78
799.96	218.72
800.28	218.72
800.60	218.68
800.92	218.62
801.24	218.60
801.56	218.59
801.89	218.51
802.21	218.48
802.53	218.41
802.85	218.40
803.17	218.47
803.49	218.42
803.81	218.37
804.13	218.30
804.45	218.28
804.77	218.27
805.09	218.25
805.41	218.18
805.73	218.14
806.05	218.06
806.37	218.05
806.69	218.01
807.01	217.96
807.33	217.93
807.65	217.85
807.97	217.89
808.28	217.84
808.60	217.84
808.92	217.78
809.24	217.92
809.56	217.83
809.88	217.72
810.20	217.71
810.52	217.73
810.84	217.70
811.16	217.67
811.48	217.60
811.80	217.62
812.12	217.57
812.43	217.56
812.75	217.55
813.07	217.50
813.39	217.47
813.71	217.42
814.03	217.36
814.35	217.36
814.67	217.25
814.98	217.22
815.30	217.21
815.62	217.15
815.94	216.98
816.26	217.02
816.58	217.00
816.89	216.98
817.21	216.91
817.53	216.91
817.85	216.90
818.17	216.87
818.48	216.78
818.80	216.85
819.12	216.82
819.44	216.76
819.76	216.74
820.07	216.73
820.39	216.72
820.71	216.73
821.03	216.71
821.34	216.71
821.66	216.69
821.98	216.68
822.30	216.65
822.61	216.75
822.93	216.68
823.25	216.65
823.57	216.60
823.88	216.63
824.20	216.60
824.52	216.58
824.83	216.56
825.15	216.54
825.47	216.50
825.79	216.50
826.10	216.46
826.42	216.44
826.74	216.47
827.05	216.45
827.37	216.46
827.69	216.45
828.00	216.44
828.32	216.44
828.64	216.41
828.95	216.51
829.27	216.44
829.58	216.43
829.90	216.46
830.22	216.48
830.53	216.40
830.85	216.40
831.17	216.34
831.48	216.36
831.80	216.36
832.11	216.32
832.43	216.28
832.75	216.27
833.06	216.34
833.38	216.28
833.69	216.27
834.01	216.27
834.32	216.25
834.64	216.19
834.96	216.19
835.27	216.16
835.59	216.10
835.90	216.03
836.22	216.03
836.53	215.97
836.85	215.95
837.16	216.18
837.48	216.18
837.79	216.25
838.11	216.23
838.42	216.20
838.74	216.21
839.05	216.17
839.37	216.16
839.68	216.03
840.00	216.01
840.31	216.04
840.63	216.00
840.94	215.99
841.26	216.01
841.57	216.00
841.88	216.04
842.20	216.00
842.51	215.99
842.83	215.99
843.14	216.17
843.46	216.13
843.77	215.99
844.08	215.97
844.40	215.90
844.71	215.88
845.03	215.86
845.34	215.85
845.65	215.85
845.97	215.86
846.28	215.87
846.60	215.85
846.91	215.80
847.22	215.80
847.54	215.79
847.85	215.79
848.16	215.76
848.48	215.69
848.79	215.76
849.10	215.77
849.42	215.79
849.73	215.59
850.04	215.62
850.36	215.56
850.67	215.60
850.98	215.60
851.30	215.60
851.61	215.62
851.92	215.60
852.23	215.66
852.55	215.67
852.86	215.69
853.17	215.72
853.49	215.78
853.80	215.83
854.11	215.85
854.42	215.86
854.74	215.85
855.05	215.86
855.36	215.77
855.67	215.76
855.99	215.73
856.30	215.96
856.61	215.97
856.92	215.96
857.23	215.94
857.55	215.93
857.86	215.93
858.17	215.96
858.48	215.94
858.79	215.88
859.11	215.89
859.42	215.89
859.73	215.85
860.04	215.80
860.35	215.73
860.66	215.68
860.98	215.67
861.29	215.67
861.60	215.66
861.91	215.69
862.22	215.66
862.53	215.62
862.84	215.38
863.16	215.40
863.47	215.36
863.78	215.33
864.09	215.35
864.40	215.36
864.71	215.35
865.02	215.36
865.33	215.34
865.64	215.30
865.95	215.28
866.27	215.43
866.58	215.42
866.89	215.43
867.20	215.44
867.51	215.43
867.82	215.45
868.13	215.49
868.44	215.44
868.75	215.46
869.06	215.48
869.37	215.48
869.68	215.40
869.99	215.43
870.30	215.45
870.61	215.45
870.92	215.42
871.23	215.40
871.54	215.42
871.85	215.49
872.16	215.51
872.47	215.47
872.78	215.31
873.09	215.36
873.40	215.34
873.71	215.33
874.02	215.32
874.33	215.24
874.64	215.20
874.95	215.22
875.26	215.19
875.56	215.20
875.87	215.19
876.18	215.20
876.49	215.40
876.80	215.37
877.11	215.32
877.42	215.35
877.73	215.34
878.04	215.31
878.35	215.31
878.66	215.33
878.96	215.34
879.27	215.33
879.58	215.30
879.89	215.28
880.20	215.37
880.51	215.38
880.82	215.42
881.12	215.44
881.43	215.39
881.74	215.37
882.05	215.34
882.36	215.36
882.67	215.39
882.97	215.16
883.28	215.16
883.59	215.14
883.90	215.13
884.21	215.16
884.51	215.15
884.82	215.09
885.13	215.06
885.44	215.08
885.74	215.07
886.05	215.07
886.36	215.05
886.67	214.93
886.98	215.03
887.28	215.05
887.59	215.07
887.90	215.08
888.20	215.06
888.51	215.11
888.82	215.08
889.13	215.08
889.43	215.26
889.74	215.25
890.05	215.29
890.35	215.29
890.66	215.25
890.97	215.23
891.28	215.20
891.58	215.20
891.89	215.19
892.20	215.15
892.50	215.14
892.81	215.16
893.12	215.19
893.42	215.08
893.73	215.08
894.04	215.06
894.34	215.10
894.65	215.12
894.95	215.10
895.26	215.12
895.57	215.20
895.87	215.03
896.18	215.05
896.48	215.05
896.79	215.06
897.10	215.10
897.40	215.11
897.71	215.13
898.01	215.14
898.32	215.15
898.63	215.20
898.93	215.21
899.24	215.19
899.54	215.18
899.85	215.22
900.15	215.20
900.46	215.22
900.76	215.18
901.07	215.18
901.38	215.16
901.68	215.19
901.99	215.07
902.29	215.10
902.60	215.06
902.90	215.06
903.21	215.02
903.51	214.99
903.82	215.06
904.12	215.04
904.43	215.03
904.73	215.05
905.03	215.07
905.34	215.23
905.64	215.24
905.95	215.25
906.25	215.24
906.56	215.24
906.86	215.22
907.17	215.25
907.47	215.26
907.77	215.27
908.08	215.19
908.38	215.25
908.69	215.25
908.99	215.28
909.30	215.28
909.60	215.31
909.90	215.33
910.21	215.28
910.51	215.29
910.81	215.30
911.12	215.29
911.42	215.28
911.73	215.09
912.03	215.10
912.33	215.15
912.64	215.14
912.94	215.10
913.24	215.08
913.55	215.05
913.85	215.04
914.15	215.09
914.46	215.14
914.76	215.09
915.06	215.08
915.37	215.05
915.67	215.04
915.97	215.01
916.27	214.95
916.58	214.92
916.88	214.92
917.18	214.88
917.49	215.02
917.79	215.01
918.09	215.04
918.39	215.08
918.70	215.04
919.00	215.04
919.30	215.11
919.60	215.12
919.91	215.11
920.21	215.11
920.51	215.03
920.81	215.04
921.12	215.06
921.42	215.07
921.72	215.10
922.02	215.12
922.32	215.17
922.63	215.21
922.93	215.33
923.23	215.33
923.53	215.33
923.83	215.18
924.13	215.21
924.44	215.21
924.74	215.25
925.04	215.30
925.34	215.28
925.64	215.24
925.94	215.24
926.24	215.39
926.55	215.38
926.85	215.41
927.15	215.39
927.45	215.40
927.75	215.35
928.05	215.36
928.35	215.31
928.65	215.33
928.95	215.33
929.26	215.28
929.56	215.34
929.86	215.38
930.16	215.38
930.46	215.35
930.76	215.36
931.06	215.26
931.36	215.20
931.66	215.24
931.96	215.22
932.26	215.22
932.56	215.09
932.86	215.10
933.16	215.11
933.46	215.09
933.76	215.08
934.06	215.18
934.36	215.21
934.66	215.24
934.96	215.21
935.26	215.20
935.56	215.22
935.86	215.15
936.16	215.15
936.46	215.13
936.76	215.14
937.06	215.12
937.36	215.15
937.66	215.17
937.96	215.13
938.26	215.14
938.56	215.13
938.86	215.14
939.16	215.18
939.46	215.16
939.76	215.18
940.06	215.18
940.35	215.12
940.65	215.03
940.95	215.01
941.25	214.98
941.55	214.95
941.85	214.90
942.15	214.97
942.45	215.02
942.75	215.02
943.04	215.03
943.34	215.06
943.64	215.03
943.94	215.01
944.24	215.02
944.54	215.02
944.84	215.00
945.13	214.96
945.43	214.91
945.73	214.93
946.03	214.91
946.33	214.90
946.62	214.87
946.92	214.88
947.22	214.89
947.52	214.92
947.82	214.97
948.11	214.95
948.41	214.87
948.71	214.80
949.01	214.80
949.31	214.78
949.60	214.77
949.90	214.79
950.20	214.76
950.50	214.76
950.79	214.77
951.09	214.82
951.39	214.83
951.69	214.87
951.98	214.91
952.28	214.93
952.58	214.91
952.87	214.90
953.17	214.95
953.47	214.93
953.76	214.91
954.06	214.85
954.36	214.84
954.66	214.83
954.95	214.88
955.25	214.89
955.55	214.92
955.84	214.90
956.14	214.90
956.44	214.93
956.73	214.90
957.03	214.90
957.32	214.86
957.62	214.87
957.92	214.90
958.21	214.87
958.51	215.10
958.81	215.12
959.10	215.13
959.40	215.15
959.69	215.19
959.99	215.21
960.29	215.24
960.58	215.24
960.88	215.32
961.17	215.32
961.47	215.33
961.76	215.31
962.06	215.32
962.36	215.32
962.65	215.32
962.95	215.33
963.24	215.33
963.54	215.35
963.83	215.34
964.13	215.35
964.42	215.26
964.72	215.08
965.01	215.09
965.31	215.12
965.60	215.08
965.90	215.18
966.19	215.16
966.49	215.16
966.78	215.15
967.08	215.15
967.37	215.12
967.67	215.10
967.96	215.11
968.26	215.11
968.55	215.15
968.85	215.14
969.14	215.13
969.43	215.11
969.73	215.08
970.02	215.08
970.32	215.05
970.61	215.09
970.91	215.02
971.20	215.00
971.49	214.94
971.79	214.96
972.08	214.81
972.38	214.82
972.67	214.78
972.96	214.83
973.26	214.73
973.55	214.80
973.85	214.78
974.14	214.78
974.43	214.79
974.73	214.73
975.02	214.71
975.31	214.74
975.61	214.73
975.90	214.76
976.19	214.71
976.49	214.72
976.78	214.71
977.07	214.74
977.37	214.72
977.66	214.73
977.95	214.68
978.24	214.72
978.54	214.77
978.83	214.77
979.12	214.73
979.42	214.75
979.71	214.71
980.00	214.69
980.29	214.68
980.59	214.67
980.88	214.74
981.17	214.71
981.46	214.71
981.76	214.73
982.05	214.76
982.34	214.81
982.63	214.81
982.93	214.85
983.22	214.88
983.51	214.92
983.80	214.97
984.09	215.00
984.39	214.96
984.68	214.90
984.97	214.90
985.26	214.88
985.55	214.91
985.85	214.90
986.14	214.95
986.43	214.99
986.72	214.96
987.01	214.86
987.30	214.89
987.59	214.85
987.89	214.84
988.18	214.79
988.47	214.75
988.76	214.73
989.05	214.69
989.34	214.69
989.63	214.73
989.92	214.69
990.22	214.68
990.51	214.69
990.80	214.71
991.09	214.75
991.38	214.79
991.67	214.75
991.96	214.68
992.25	214.67
992.54	214.59
992.83	214.60
993.12	214.62
993.41	214.65
993.70	214.74
993.99	214.77
994.28	214.81
994.58	214.85
994.87	214.83
995.16	214.83
995.45	214.79
995.74	214.71
996.03	214.74
996.32	214.73
996.61	214.78
996.90	214.77
997.19	214.74
997.48	214.73
997.77	214.73
998.06	214.79
998.34	214.75
998.63	214.76
998.92	214.76
999.21	214.80
999.50	214.80
999.79	214.71
1000.08	214.69
1000.37	214.67
1000.66	214.66
1000.95	214.68
1001.24	214.71
1001.53	214.72
1001.82	214.71
1002.11	214.69
1002.40	214.74
1002.68	214.77
1002.97	214.90
1003.26	214.86
1003.55	214.83
1003.84	214.85
1004.13	214.94
1004.42	214.93
1004.71	214.96
1004.99	214.95
1005.28	214.98
1005.57	214.94
1005.86	214.93
1006.15	214.92
1006.44	214.90
1006.72	214.92
1007.01	214.89
1007.30	214.90
1007.59	214.91
1007.88	214.89
1008.17	214.91
1008.45	214.88
1008.74	214.80
1009.03	214.72
1009.32	214.75
1009.60	214.75
1009.89	214.71
1010.18	214.59
1010.47	214.61
1010.76	214.56
1011.04	214.59
1011.33	214.60
1011.62	214.62
1011.91	214.66
1012.19	214.70
1012.48	214.72
1012.77	214.70
1013.05	214.79
1013.34	214.78
1013.63	214.72
1013.92	214.73
1014.20	214.70
1014.49	214.69
1014.78	214.68
1015.06	214.65
1015.35	214.65
1015.64	214.69
1015.92	214.73
1016.21	214.74
1016.50	214.72
1016.78	214.77
1017.07	214.75
1017.36	214.74
1017.64	214.71
1017.93	214.72
1018.22	214.70
1018.50	214.70
1018.79	214.69
1019.08	214.58
1019.36	214.60
1019.65	214.62
1019.93	214.69
1020.22	214.74
1020.51	214.86
1020.79	214.86
1021.08	214.93
1021.36	214.48
1021.65	214.41
1021.94	214.29
1022.22	215.30
1022.51	214.39
1022.79	215.82
1023.08	215.05
1023.36	217.36
1023.65	214.30
>>>>>End Processed Spectral Data<<<<<
