SpectraSuite Data File
++++++++++++++++++++++++++++++++++++
Date: Tue Jan 29 16:21:33 EST 2013
User: group
Dark Spectrum Present: No
Reference Spectrum Present: No
Number of Sampled Component Spectra: 1
Spectrometers: USB2E7196
Integration Time (usec): 65000 (USB2E7196)
Spectra Averaged: 100 (USB2E7196)
Boxcar Smoothing: 10 (USB2E7196)
Correct for Electrical Dark: No (USB2E7196)
Strobe/Lamp Enabled: No (USB2E7196)
Correct for Detector Non-linearity: No (USB2E7196)
Correct for Stray Light: No (USB2E7196)
Number of Pixels in Processed Spectrum: 2048
>>>>>Begin Processed Spectral Data<<<<<
339.09	0.00
339.48	202.38
339.86	203.97
340.24	205.15
340.63	206.40
341.01	210.83
341.39	209.72
341.78	210.81
342.16	212.11
342.54	212.42
342.93	201.55
343.31	211.74
343.69	212.28
344.07	212.75
344.46	213.19
344.84	213.63
345.22	213.84
345.60	214.13
345.99	214.35
346.37	214.52
346.75	214.65
347.13	214.73
347.52	214.77
347.90	214.92
348.28	214.96
348.66	215.06
349.05	215.06
349.43	215.11
349.81	215.19
350.19	215.28
350.57	215.35
350.96	215.40
351.34	215.51
351.72	215.60
352.10	215.70
352.48	215.78
352.87	215.83
353.25	215.86
353.63	215.88
354.01	215.93
354.39	215.98
354.77	216.07
355.15	216.20
355.54	216.25
355.92	216.27
356.30	216.34
356.68	216.54
357.06	216.58
357.44	216.62
357.82	216.65
358.20	216.71
358.58	216.77
358.97	216.87
359.35	216.95
359.73	217.08
360.11	217.11
360.49	217.14
360.87	217.15
361.25	217.24
361.63	217.35
362.01	217.41
362.39	217.44
362.77	217.45
363.15	217.50
363.53	217.56
363.91	217.59
364.29	217.62
364.67	217.41
365.05	217.44
365.43	217.49
365.81	217.54
366.19	217.67
366.57	217.78
366.95	217.77
367.33	217.68
367.71	217.64
368.09	217.68
368.47	217.72
368.85	217.72
369.23	217.76
369.61	217.67
369.99	217.69
370.37	217.69
370.75	217.77
371.13	217.67
371.51	217.63
371.89	217.59
372.27	217.56
372.65	217.56
373.03	217.52
373.41	217.49
373.78	217.43
374.16	217.28
374.54	217.15
374.92	217.14
375.30	217.13
375.68	217.08
376.06	217.06
376.44	216.99
376.82	216.99
377.19	216.88
377.57	216.82
377.95	216.72
378.33	216.64
378.71	216.47
379.09	216.50
379.47	216.47
379.84	216.43
380.22	216.38
380.60	216.33
380.98	216.30
381.36	216.26
381.73	216.20
382.11	216.20
382.49	216.16
382.87	216.06
383.25	216.04
383.62	216.21
384.00	216.14
384.38	216.12
384.76	216.12
385.13	216.21
385.51	216.21
385.89	216.18
386.27	216.16
386.64	216.18
387.02	216.11
387.40	216.11
387.78	216.07
388.15	216.06
388.53	216.03
388.91	216.00
389.29	215.95
389.66	215.96
390.04	215.89
390.42	215.94
390.79	215.94
391.17	215.93
391.55	215.73
391.92	215.73
392.30	215.72
392.68	215.65
393.05	215.61
393.43	215.62
393.81	215.62
394.18	215.62
394.56	215.60
394.94	215.66
395.31	215.60
395.69	215.70
396.06	215.72
396.44	215.78
396.82	215.82
397.19	215.94
397.57	215.92
397.95	215.99
398.32	215.94
398.70	216.00
399.07	216.05
399.45	216.07
399.82	216.12
400.20	216.15
400.58	216.22
400.95	216.20
401.33	216.30
401.70	216.51
402.08	216.59
402.45	216.69
402.83	216.81
403.20	216.92
403.58	216.99
403.95	217.13
404.33	217.29
404.71	217.41
405.08	217.68
405.46	217.87
405.83	218.09
406.21	218.30
406.58	218.48
406.96	218.71
407.33	218.96
407.70	219.25
408.08	219.71
408.45	220.07
408.83	220.47
409.20	220.78
409.58	221.07
409.95	221.53
410.33	221.99
410.70	222.43
411.08	222.99
411.45	223.58
411.82	224.16
412.20	224.81
412.57	225.63
412.95	226.18
413.32	227.02
413.69	227.89
414.07	228.75
414.44	229.76
414.82	230.78
415.19	231.98
415.56	233.14
415.94	234.31
416.31	235.68
416.68	237.07
417.06	238.71
417.43	240.24
417.81	241.93
418.18	243.72
418.55	245.64
418.93	247.65
419.30	249.71
419.67	251.88
420.04	254.15
420.42	256.48
420.79	259.26
421.16	261.99
421.54	264.80
421.91	267.77
422.28	270.83
422.66	274.10
423.03	277.29
423.40	280.62
423.77	284.17
424.15	287.79
424.52	291.57
424.89	295.68
425.26	299.69
425.64	303.57
426.01	307.79
426.38	312.18
426.75	316.62
427.13	321.31
427.50	326.24
427.87	331.37
428.24	336.52
428.61	341.49
428.99	346.98
429.36	352.97
429.73	358.81
430.10	364.63
430.47	370.63
430.85	376.86
431.22	383.54
431.59	390.60
431.96	397.37
432.33	404.81
432.70	411.92
433.08	420.39
433.45	428.35
433.82	436.29
434.19	445.12
434.56	453.81
434.93	462.01
435.30	470.20
435.68	479.25
436.05	488.23
436.42	497.02
436.79	505.02
437.16	513.69
437.53	522.85
437.90	531.90
438.27	540.70
438.64	549.84
439.01	558.18
439.38	565.70
439.75	572.93
440.13	581.24
440.50	589.16
440.87	595.52
441.24	602.10
441.61	609.34
441.98	614.67
442.35	620.89
442.72	627.21
443.09	633.18
443.46	636.85
443.83	639.24
444.20	641.41
444.57	644.58
444.94	645.97
445.31	647.38
445.68	648.72
446.05	649.36
446.42	648.55
446.79	647.63
447.16	646.52
447.53	645.73
447.90	642.41
448.27	639.14
448.64	634.49
449.01	631.14
449.37	625.32
449.74	619.68
450.11	612.88
450.48	605.53
450.85	598.11
451.22	591.66
451.59	585.62
451.96	579.80
452.33	572.02
452.70	565.01
453.07	556.67
453.43	548.19
453.80	540.01
454.17	532.15
454.54	524.69
454.91	516.59
455.28	508.75
455.65	501.45
456.02	494.03
456.38	487.80
456.75	480.05
457.12	473.58
457.49	467.14
457.86	461.00
458.23	455.71
458.59	449.93
458.96	444.05
459.33	438.79
459.70	433.51
460.07	429.30
460.43	424.46
460.80	419.88
461.17	415.93
461.54	411.76
461.91	407.77
462.27	403.71
462.64	400.36
463.01	396.58
463.38	392.95
463.74	389.32
464.11	386.10
464.48	383.32
464.85	380.24
465.21	377.76
465.58	375.18
465.95	372.05
466.32	369.49
466.68	366.92
467.05	364.35
467.42	361.84
467.78	359.20
468.15	356.73
468.52	354.84
468.88	352.40
469.25	350.20
469.62	348.47
469.98	346.57
470.35	344.76
470.72	343.13
471.08	341.31
471.45	339.83
471.82	338.33
472.18	336.67
472.55	335.49
472.92	334.22
473.28	333.03
473.65	331.90
474.02	330.77
474.38	329.90
474.75	329.15
475.11	328.34
475.48	327.73
475.85	327.19
476.21	326.75
476.58	326.36
476.94	326.18
477.31	325.84
477.67	325.56
478.04	325.41
478.41	325.36
478.77	325.54
479.14	325.50
479.50	325.65
479.87	325.96
480.23	326.29
480.60	326.51
480.96	326.78
481.33	327.41
481.69	327.99
482.06	328.49
482.42	329.03
482.79	329.66
483.15	330.47
483.52	331.49
483.88	332.40
484.25	333.33
484.61	334.35
484.98	335.43
485.34	336.79
485.71	338.21
486.07	339.64
486.44	341.02
486.80	342.64
487.17	344.28
487.53	346.10
487.90	348.01
488.26	350.06
488.62	352.30
488.99	354.34
489.35	356.54
489.72	358.93
490.08	361.40
490.44	363.94
490.81	366.65
491.17	369.37
491.54	372.33
491.90	375.39
492.26	378.62
492.63	382.05
492.99	385.51
493.36	389.17
493.72	393.05
494.08	397.03
494.45	401.26
494.81	405.61
495.17	410.07
495.54	414.80
495.90	419.63
496.26	424.56
496.63	429.77
496.99	435.17
497.35	440.73
497.72	446.60
498.08	452.53
498.44	458.69
498.80	465.11
499.17	471.62
499.53	478.40
499.89	485.39
500.26	492.39
500.62	499.53
500.98	506.97
501.34	514.52
501.71	522.32
502.07	530.17
502.43	538.33
502.79	546.53
503.16	554.86
503.52	563.50
503.88	572.22
504.24	581.20
504.60	590.29
504.97	599.65
505.33	608.99
505.69	618.91
506.05	628.81
506.41	638.76
506.78	648.92
507.14	659.25
507.50	669.78
507.86	680.60
508.22	691.49
508.59	702.13
508.95	713.22
509.31	724.55
509.67	736.07
510.03	747.47
510.39	759.30
510.75	771.32
511.12	783.31
511.48	795.56
511.84	807.96
512.20	820.32
512.56	833.02
512.92	845.96
513.28	858.69
513.64	871.55
514.00	884.44
514.37	897.46
514.73	910.62
515.09	923.65
515.45	936.63
515.81	949.72
516.17	963.24
516.53	976.55
516.89	989.76
517.25	1003.06
517.61	1016.68
517.97	1030.08
518.33	1043.23
518.69	1056.82
519.05	1070.61
519.41	1084.35
519.77	1098.40
520.13	1111.80
520.49	1125.02
520.85	1138.53
521.21	1151.86
521.57	1165.61
521.93	1178.71
522.29	1192.50
522.65	1206.10
523.01	1219.69
523.37	1232.99
523.73	1246.33
524.09	1259.62
524.45	1273.07
524.81	1286.59
525.17	1299.99
525.53	1313.31
525.89	1326.65
526.25	1339.80
526.61	1352.66
526.97	1365.72
527.33	1378.71
527.68	1392.28
528.04	1405.82
528.40	1418.90
528.76	1432.38
529.12	1445.31
529.48	1458.74
529.84	1470.98
530.20	1483.96
530.56	1496.66
530.91	1509.91
531.27	1522.84
531.63	1535.57
531.99	1548.48
532.35	1560.79
532.71	1573.35
533.07	1586.32
533.42	1598.67
533.78	1610.95
534.14	1623.07
534.50	1634.40
534.86	1645.99
535.21	1656.82
535.57	1668.24
535.93	1679.56
536.29	1690.68
536.65	1702.23
537.00	1713.28
537.36	1724.75
537.72	1735.62
538.08	1747.05
538.44	1758.05
538.79	1769.14
539.15	1780.17
539.51	1790.80
539.87	1802.15
540.22	1812.91
540.58	1823.69
540.94	1834.58
541.29	1844.88
541.65	1854.64
542.01	1865.25
542.37	1875.30
542.72	1885.39
543.08	1895.28
543.44	1905.98
543.79	1915.41
544.15	1924.71
544.51	1934.68
544.87	1944.63
545.22	1953.93
545.58	1962.75
545.94	1971.66
546.29	1980.26
546.65	1988.56
547.01	1996.95
547.36	2004.61
547.72	2012.32
548.07	2019.97
548.43	2027.81
548.79	2035.71
549.14	2043.80
549.50	2052.29
549.86	2060.16
550.21	2067.70
550.57	2075.54
550.92	2082.29
551.28	2089.69
551.64	2097.06
551.99	2104.59
552.35	2111.76
552.70	2118.70
553.06	2125.48
553.41	2131.70
553.77	2138.18
554.13	2144.51
554.48	2151.47
554.84	2158.52
555.19	2165.08
555.55	2171.65
555.90	2177.87
556.26	2184.71
556.61	2190.90
556.97	2195.74
557.32	2201.71
557.68	2208.12
558.03	2213.70
558.39	2218.92
558.74	2225.02
559.10	2230.74
559.45	2236.25
559.81	2241.80
560.16	2247.26
560.52	2253.20
560.87	2259.72
561.23	2265.70
561.58	2272.52
561.94	2277.80
562.29	2282.71
562.64	2288.83
563.00	2294.47
563.35	2300.14
563.71	2305.81
564.06	2311.55
564.42	2317.55
564.77	2322.64
565.12	2328.10
565.48	2333.41
565.83	2339.06
566.19	2344.49
566.54	2349.81
566.89	2354.55
567.25	2359.31
567.60	2365.31
567.96	2370.55
568.31	2375.22
568.66	2379.59
569.02	2383.55
569.37	2387.40
569.72	2391.90
570.08	2395.64
570.43	2398.93
570.78	2402.29
571.14	2404.98
571.49	2408.12
571.84	2411.78
572.20	2414.82
572.55	2417.75
572.90	2420.04
573.26	2422.99
573.61	2425.55
573.96	2427.88
574.31	2430.04
574.67	2431.88
575.02	2432.71
575.37	2434.21
575.72	2435.01
576.08	2436.48
576.43	2436.85
576.78	2437.47
577.13	2439.17
577.49	2440.32
577.84	2441.37
578.19	2442.62
578.54	2443.31
578.90	2444.23
579.25	2444.15
579.60	2444.23
579.95	2443.64
580.30	2443.97
580.66	2443.33
581.01	2441.69
581.36	2439.46
581.71	2438.06
582.06	2437.04
582.42	2436.14
582.77	2434.02
583.12	2432.49
583.47	2431.45
583.82	2430.84
584.17	2429.76
584.53	2427.74
584.88	2425.87
585.23	2424.19
585.58	2421.85
585.93	2419.94
586.28	2417.71
586.63	2415.42
586.98	2413.32
587.34	2411.41
587.69	2408.99
588.04	2407.13
588.39	2405.92
588.74	2403.55
589.09	2401.02
589.44	2397.96
589.79	2395.63
590.14	2393.64
590.49	2390.83
590.84	2386.98
591.19	2384.01
591.54	2380.65
591.89	2376.52
592.25	2373.25
592.60	2369.12
592.95	2365.27
593.30	2361.06
593.65	2356.87
594.00	2352.36
594.35	2349.25
594.70	2344.64
595.05	2340.19
595.40	2334.67
595.75	2328.97
596.10	2325.20
596.45	2320.47
596.80	2315.97
597.15	2310.67
597.50	2304.92
597.85	2300.04
598.19	2294.84
598.54	2288.95
598.89	2283.84
599.24	2279.35
599.59	2273.11
599.94	2267.16
600.29	2261.16
600.64	2255.27
600.99	2248.55
601.34	2243.14
601.69	2236.16
602.04	2229.79
602.39	2223.04
602.74	2216.91
603.08	2211.32
603.43	2204.77
603.78	2197.87
604.13	2190.74
604.48	2183.55
604.83	2177.27
605.18	2171.00
605.53	2164.06
605.87	2157.06
606.22	2150.25
606.57	2142.36
606.92	2134.33
607.27	2127.47
607.62	2120.77
607.96	2113.84
608.31	2107.28
608.66	2099.66
609.01	2092.04
609.36	2084.87
609.70	2077.20
610.05	2069.48
610.40	2061.05
610.75	2052.68
611.10	2044.93
611.44	2036.02
611.79	2027.25
612.14	2017.30
612.49	2006.61
612.83	1997.19
613.18	1987.89
613.53	1978.42
613.88	1968.73
614.22	1960.23
614.57	1950.07
614.92	1939.47
615.27	1929.14
615.61	1918.96
615.96	1908.94
616.31	1899.20
616.65	1889.74
617.00	1879.72
617.35	1869.99
617.70	1860.27
618.04	1850.24
618.39	1839.84
618.74	1830.09
619.08	1820.46
619.43	1811.59
619.78	1803.23
620.12	1794.49
620.47	1784.67
620.82	1774.28
621.16	1764.46
621.51	1754.44
621.85	1744.63
622.20	1734.08
622.55	1723.30
622.89	1713.24
623.24	1703.60
623.59	1693.82
623.93	1683.54
624.28	1673.72
624.62	1663.39
624.97	1652.92
625.32	1643.20
625.66	1634.35
626.01	1625.48
626.35	1615.86
626.70	1605.77
627.04	1595.61
627.39	1585.35
627.73	1576.02
628.08	1566.94
628.43	1557.12
628.77	1547.74
629.12	1538.81
629.46	1530.93
629.81	1522.47
630.15	1512.74
630.50	1502.75
630.84	1492.06
631.19	1482.06
631.53	1472.67
631.88	1462.50
632.22	1452.34
632.57	1442.67
632.91	1432.46
633.26	1422.35
633.60	1412.70
633.95	1403.19
634.29	1393.58
634.64	1384.22
634.98	1374.16
635.32	1364.78
635.67	1356.26
636.01	1346.98
636.36	1337.05
636.70	1327.34
637.05	1317.89
637.39	1309.02
637.73	1300.27
638.08	1292.61
638.42	1284.33
638.77	1275.41
639.11	1267.03
639.45	1259.23
639.80	1250.53
640.14	1241.57
640.49	1232.69
640.83	1223.66
641.17	1215.41
641.52	1207.12
641.86	1198.39
642.20	1190.44
642.55	1181.78
642.89	1172.75
643.23	1163.81
643.58	1155.59
643.92	1146.45
644.26	1137.63
644.61	1128.97
644.95	1120.06
645.29	1110.76
645.64	1101.43
645.98	1092.85
646.32	1084.82
646.66	1076.15
647.01	1067.74
647.35	1059.44
647.69	1050.98
648.04	1042.61
648.38	1033.65
648.72	1024.80
649.06	1016.25
649.41	1007.88
649.75	999.70
650.09	991.78
650.43	983.64
650.78	975.38
651.12	967.58
651.46	960.13
651.80	952.84
652.14	945.45
652.49	937.79
652.83	930.48
653.17	922.67
653.51	914.92
653.85	907.64
654.20	900.29
654.54	892.78
654.88	885.49
655.22	878.23
655.56	871.18
655.90	864.33
656.25	857.49
656.59	850.51
656.93	843.44
657.27	836.23
657.61	829.24
657.95	823.02
658.29	817.05
658.64	810.84
658.98	804.31
659.32	797.58
659.66	791.33
660.00	784.77
660.34	778.66
660.68	772.49
661.02	766.06
661.36	760.10
661.70	754.26
662.05	748.53
662.39	742.96
662.73	737.51
663.07	732.05
663.41	726.43
663.75	720.72
664.09	714.97
664.43	709.47
664.77	704.00
665.11	698.10
665.45	692.15
665.79	686.20
666.13	680.41
666.47	674.92
666.81	669.29
667.15	663.87
667.49	658.60
667.83	653.29
668.17	648.00
668.51	642.79
668.85	637.76
669.19	632.80
669.53	627.76
669.87	622.57
670.21	617.70
670.55	612.92
670.89	608.40
671.23	604.07
671.57	599.62
671.91	595.24
672.25	591.02
672.58	586.79
672.92	582.74
673.26	578.82
673.60	574.91
673.94	571.14
674.28	567.49
674.62	563.68
674.96	559.89
675.30	556.33
675.64	552.58
675.97	548.94
676.31	545.33
676.65	541.68
676.99	538.24
677.33	534.41
677.67	530.73
678.01	526.83
678.34	523.13
678.68	519.59
679.02	516.02
679.36	512.26
679.70	508.60
680.04	504.97
680.37	501.44
680.71	498.09
681.05	494.89
681.39	491.61
681.73	488.38
682.06	485.28
682.40	482.11
682.74	478.93
683.08	475.74
683.42	472.56
683.75	469.51
684.09	466.43
684.43	463.56
684.77	460.60
685.10	457.75
685.44	454.85
685.78	451.91
686.12	449.12
686.45	446.41
686.79	443.77
687.13	441.18
687.46	438.51
687.80	435.81
688.14	432.92
688.48	430.27
688.81	427.61
689.15	424.97
689.49	422.36
689.82	419.78
690.16	417.10
690.50	414.53
690.83	412.06
691.17	409.45
691.51	406.97
691.84	404.74
692.18	402.52
692.52	400.25
692.85	398.05
693.19	395.89
693.52	393.71
693.86	391.46
694.20	389.32
694.53	387.17
694.87	384.95
695.21	382.80
695.54	380.62
695.88	378.42
696.21	376.22
696.55	374.08
696.88	372.03
697.22	370.07
697.56	368.16
697.89	366.23
698.23	364.48
698.56	362.68
698.90	360.83
699.23	358.90
699.57	357.00
699.90	355.17
700.24	353.32
700.58	351.53
700.91	349.83
701.25	348.20
701.58	346.59
701.92	344.96
702.25	343.35
702.59	341.72
702.92	340.17
703.26	338.63
703.59	337.17
703.93	335.88
704.26	334.45
704.60	332.98
704.93	331.49
705.26	329.96
705.60	328.49
705.93	326.98
706.27	325.63
706.60	324.39
706.94	323.10
707.27	321.66
707.61	320.28
707.94	318.95
708.27	317.42
708.61	315.97
708.94	314.64
709.28	313.37
709.61	312.13
709.94	310.93
710.28	309.71
710.61	308.52
710.95	307.10
711.28	306.02
711.61	304.78
711.95	303.65
712.28	302.51
712.61	301.26
712.95	300.22
713.28	299.15
713.61	297.99
713.95	296.82
714.28	295.81
714.61	294.77
714.95	293.74
715.28	292.72
715.61	291.65
715.95	290.68
716.28	289.69
716.61	288.74
716.95	287.71
717.28	286.77
717.61	285.75
717.94	284.87
718.28	283.82
718.61	282.96
718.94	282.03
719.27	281.16
719.61	280.41
719.94	279.51
720.27	278.57
720.60	277.69
720.94	276.87
721.27	276.15
721.60	275.51
721.93	274.79
722.27	274.15
722.60	273.50
722.93	272.76
723.26	272.09
723.59	271.36
723.93	270.76
724.26	270.10
724.59	269.45
724.92	268.85
725.25	268.32
725.59	267.72
725.92	267.16
726.25	266.61
726.58	266.01
726.91	265.39
727.24	264.85
727.57	264.29
727.91	263.71
728.24	263.13
728.57	262.46
728.90	261.91
729.23	261.28
729.56	260.85
729.89	260.31
730.22	259.76
730.55	259.19
730.89	258.65
731.22	258.14
731.55	257.64
731.88	257.10
732.21	256.52
732.54	255.98
732.87	255.49
733.20	254.96
733.53	254.47
733.86	254.06
734.19	253.56
734.52	253.18
734.85	252.91
735.18	252.46
735.51	252.12
735.84	251.66
736.17	251.31
736.50	250.79
736.83	250.64
737.16	250.29
737.49	249.93
737.82	249.52
738.15	249.13
738.48	248.76
738.81	248.35
739.14	247.98
739.47	247.61
739.80	247.23
740.13	246.90
740.46	246.52
740.79	246.09
741.12	245.72
741.45	245.32
741.78	244.85
742.11	244.58
742.44	244.18
742.77	243.89
743.10	243.51
743.43	243.12
743.75	242.56
744.08	242.45
744.41	242.09
744.74	241.76
745.07	241.39
745.40	241.11
745.73	240.87
746.06	240.54
746.39	240.24
746.71	239.90
747.04	239.52
747.37	239.21
747.70	238.96
748.03	238.65
748.36	238.39
748.68	238.07
749.01	237.70
749.34	237.41
749.67	237.14
750.00	236.88
750.33	236.80
750.65	236.53
750.98	235.99
751.31	235.77
751.64	235.53
751.97	235.45
752.29	235.18
752.62	234.83
752.95	234.57
753.28	234.29
753.60	234.08
753.93	233.94
754.26	233.71
754.59	233.43
754.91	233.21
755.24	232.93
755.57	232.71
755.90	232.49
756.22	232.27
756.55	232.03
756.88	231.77
757.20	231.44
757.53	231.20
757.86	231.00
758.19	230.77
758.51	230.54
758.84	230.20
759.17	229.97
759.49	229.79
759.82	229.70
760.15	229.52
760.47	229.31
760.80	229.04
761.13	228.90
761.45	228.71
761.78	228.49
762.11	228.34
762.43	228.17
762.76	227.98
763.08	227.81
763.41	227.65
763.74	227.49
764.06	227.35
764.39	227.15
764.71	227.02
765.04	226.88
765.37	226.75
765.69	226.58
766.02	226.42
766.34	226.26
766.67	226.05
767.00	225.95
767.32	225.97
767.65	225.97
767.97	225.81
768.30	225.72
768.62	225.58
768.95	225.42
769.27	225.29
769.60	225.18
769.92	225.00
770.25	224.83
770.57	224.70
770.90	224.53
771.22	224.40
771.55	224.31
771.87	224.18
772.20	224.02
772.52	224.09
772.85	224.27
773.17	224.16
773.50	224.05
773.82	223.96
774.15	223.71
774.47	223.49
774.80	223.38
775.12	223.23
775.45	223.14
775.77	223.08
776.09	222.98
776.42	222.91
776.74	222.92
777.07	222.85
777.39	222.77
777.72	222.72
778.04	222.66
778.36	222.53
778.69	222.43
779.01	222.41
779.33	222.15
779.66	221.83
779.98	221.75
780.31	221.67
780.63	221.68
780.95	221.67
781.28	221.59
781.60	221.49
781.92	221.44
782.25	221.38
782.57	221.30
782.89	221.22
783.22	221.14
783.54	220.97
783.86	220.90
784.19	220.82
784.51	220.80
784.83	220.74
785.16	220.69
785.48	220.66
785.80	220.57
786.12	220.55
786.45	220.47
786.77	220.44
787.09	220.39
787.42	220.24
787.74	220.17
788.06	220.10
788.38	220.06
788.71	220.00
789.03	219.93
789.35	219.91
789.67	219.86
789.99	219.83
790.32	219.80
790.64	219.77
790.96	219.90
791.28	219.77
791.61	219.67
791.93	219.63
792.25	219.57
792.57	219.66
792.89	219.53
793.21	219.52
793.54	219.42
793.86	219.35
794.18	219.35
794.50	219.25
794.82	219.23
795.14	219.23
795.47	219.22
795.79	219.22
796.11	219.12
796.43	219.05
796.75	219.02
797.07	219.00
797.39	218.96
797.71	218.77
798.04	218.74
798.36	218.73
798.68	218.69
799.00	218.70
799.32	218.57
799.64	218.63
799.96	218.58
800.28	218.61
800.60	218.57
800.92	218.49
801.24	218.47
801.56	218.44
801.89	218.40
802.21	218.40
802.53	218.31
802.85	218.35
803.17	218.43
803.49	218.35
803.81	218.26
804.13	218.23
804.45	218.15
804.77	218.14
805.09	218.12
805.41	218.07
805.73	217.99
806.05	217.89
806.37	217.81
806.69	217.77
807.01	217.68
807.33	217.67
807.65	217.61
807.97	217.68
808.28	217.63
808.60	217.59
808.92	217.50
809.24	217.60
809.56	217.52
809.88	217.42
810.20	217.39
810.52	217.42
810.84	217.36
811.16	217.34
811.48	217.30
811.80	217.33
812.12	217.30
812.43	217.31
812.75	217.34
813.07	217.30
813.39	217.29
813.71	217.25
814.03	217.23
814.35	217.17
814.67	217.06
814.98	217.04
815.30	217.04
815.62	217.00
815.94	216.88
816.26	216.88
816.58	216.83
816.89	216.83
817.21	216.76
817.53	216.76
817.85	216.73
818.17	216.68
818.48	216.56
818.80	216.60
819.12	216.54
819.44	216.46
819.76	216.40
820.07	216.40
820.39	216.41
820.71	216.37
821.03	216.39
821.34	216.35
821.66	216.34
821.98	216.31
822.30	216.29
822.61	216.39
822.93	216.34
823.25	216.33
823.57	216.27
823.88	216.31
824.20	216.27
824.52	216.29
824.83	216.27
825.15	216.25
825.47	216.18
825.79	216.14
826.10	216.16
826.42	216.17
826.74	216.16
827.05	216.13
827.37	216.13
827.69	216.09
828.00	216.09
828.32	216.09
828.64	216.04
828.95	216.11
829.27	216.02
829.58	216.04
829.90	216.06
830.22	216.10
830.53	216.05
830.85	216.02
831.17	215.98
831.48	215.98
831.80	215.98
832.11	215.98
832.43	215.99
832.75	215.99
833.06	216.08
833.38	216.04
833.69	216.03
834.01	216.03
834.32	216.05
834.64	216.01
834.96	215.98
835.27	215.97
835.59	215.95
835.90	215.91
836.22	215.88
836.53	215.84
836.85	215.80
837.16	216.02
837.48	216.01
837.79	216.08
838.11	216.10
838.42	216.11
838.74	216.15
839.05	216.12
839.37	216.06
839.68	215.93
840.00	215.85
840.31	215.86
840.63	215.84
840.94	215.81
841.26	215.78
841.57	215.75
841.88	215.81
842.20	215.74
842.51	215.72
842.83	215.72
843.14	215.90
843.46	215.91
843.77	215.76
844.08	215.77
844.40	215.70
844.71	215.67
845.03	215.63
845.34	215.59
845.65	215.59
845.97	215.60
846.28	215.63
846.60	215.68
846.91	215.64
847.22	215.63
847.54	215.66
847.85	215.67
848.16	215.69
848.48	215.63
848.79	215.69
849.10	215.67
849.42	215.69
849.73	215.45
850.04	215.39
850.36	215.32
850.67	215.34
850.98	215.34
851.30	215.35
851.61	215.38
851.92	215.37
852.23	215.44
852.55	215.45
852.86	215.44
853.17	215.42
853.49	215.48
853.80	215.53
854.11	215.56
854.42	215.58
854.74	215.53
855.05	215.53
855.36	215.44
855.67	215.48
855.99	215.49
856.30	215.75
856.61	215.79
856.92	215.78
857.23	215.77
857.55	215.77
857.86	215.74
858.17	215.75
858.48	215.69
858.79	215.63
859.11	215.65
859.42	215.62
859.73	215.63
860.04	215.62
860.35	215.52
860.66	215.47
860.98	215.47
861.29	215.51
861.60	215.47
861.91	215.51
862.22	215.47
862.53	215.39
862.84	215.14
863.16	215.17
863.47	215.13
863.78	215.11
864.09	215.13
864.40	215.17
864.71	215.16
865.02	215.24
865.33	215.20
865.64	215.15
865.95	215.17
866.27	215.29
866.58	215.24
866.89	215.30
867.20	215.31
867.51	215.23
867.82	215.20
868.13	215.27
868.44	215.24
868.75	215.31
869.06	215.34
869.37	215.33
869.68	215.27
869.99	215.33
870.30	215.33
870.61	215.34
870.92	215.30
871.23	215.28
871.54	215.27
871.85	215.35
872.16	215.37
872.47	215.36
872.78	215.19
873.09	215.21
873.40	215.16
873.71	215.12
874.02	215.18
874.33	215.17
874.64	215.12
874.95	215.16
875.26	215.09
875.56	215.05
875.87	215.06
876.18	215.03
876.49	215.23
876.80	215.21
877.11	215.17
877.42	215.17
877.73	215.18
878.04	215.15
878.35	215.13
878.66	215.16
878.96	215.12
879.27	215.13
879.58	215.14
879.89	215.13
880.20	215.21
880.51	215.20
880.82	215.20
881.12	215.20
881.43	215.12
881.74	215.11
882.05	215.12
882.36	215.14
882.67	215.16
882.97	214.94
883.28	214.89
883.59	214.88
883.90	214.93
884.21	214.95
884.51	214.94
884.82	214.92
885.13	214.90
885.44	214.94
885.74	214.94
886.05	214.93
886.36	214.95
886.67	214.90
886.98	215.01
887.28	215.03
887.59	215.04
887.90	215.06
888.20	215.07
888.51	215.11
888.82	215.12
889.13	215.12
889.43	215.27
889.74	215.32
890.05	215.33
890.35	215.28
890.66	215.24
890.97	215.23
891.28	215.22
891.58	215.22
891.89	215.18
892.20	215.17
892.50	215.15
892.81	215.12
893.12	215.08
893.42	214.98
893.73	215.00
894.04	215.00
894.34	214.99
894.65	215.00
894.95	214.98
895.26	214.95
895.57	215.06
895.87	214.87
896.18	214.89
896.48	214.87
896.79	214.87
897.10	214.91
897.40	214.92
897.71	214.93
898.01	214.88
898.32	214.92
898.63	214.93
898.93	214.96
899.24	214.99
899.54	215.01
899.85	214.99
900.15	214.97
900.46	214.98
900.76	215.03
901.07	215.01
901.38	215.01
901.68	215.03
901.99	214.92
902.29	214.91
902.60	214.87
902.90	214.86
903.21	214.85
903.51	214.82
903.82	214.86
904.12	214.84
904.43	214.89
904.73	214.87
905.03	214.84
905.34	215.05
905.64	215.01
905.95	215.01
906.25	215.03
906.56	215.00
906.86	214.97
907.17	214.93
907.47	214.95
907.77	214.93
908.08	214.90
908.38	214.89
908.69	214.94
908.99	215.03
909.30	215.05
909.60	215.07
909.90	215.04
910.21	214.99
910.51	214.98
910.81	214.98
911.12	215.00
911.42	215.02
911.73	214.79
912.03	214.83
912.33	214.84
912.64	214.84
912.94	214.84
913.24	214.83
913.55	214.83
913.85	214.80
914.15	214.84
914.46	214.87
914.76	214.85
915.06	214.81
915.37	214.74
915.67	214.77
915.97	214.72
916.27	214.74
916.58	214.73
916.88	214.69
917.18	214.66
917.49	214.81
917.79	214.80
918.09	214.84
918.39	214.89
918.70	214.92
919.00	214.88
919.30	214.97
919.60	214.92
919.91	214.88
920.21	214.93
920.51	214.88
920.81	214.84
921.12	214.89
921.42	214.92
921.72	214.91
922.02	214.91
922.32	214.97
922.63	214.95
922.93	215.08
923.23	215.14
923.53	215.11
923.83	214.95
924.13	214.99
924.44	214.96
924.74	214.98
925.04	215.04
925.34	215.04
925.64	214.94
925.94	214.97
926.24	215.13
926.55	215.06
926.85	215.06
927.15	215.09
927.45	215.10
927.75	215.10
928.05	215.11
928.35	215.08
928.65	215.12
928.95	215.16
929.26	215.08
929.56	215.08
929.86	215.11
930.16	215.12
930.46	215.10
930.76	215.12
931.06	215.01
931.36	214.93
931.66	214.98
931.96	214.99
932.26	215.00
932.56	214.90
932.86	214.95
933.16	214.95
933.46	214.94
933.76	214.87
934.06	214.89
934.36	214.98
934.66	214.97
934.96	214.90
935.26	214.92
935.56	214.92
935.86	214.88
936.16	214.88
936.46	214.84
936.76	214.80
937.06	214.76
937.36	214.77
937.66	214.79
937.96	214.77
938.26	214.73
938.56	214.72
938.86	214.72
939.16	214.74
939.46	214.78
939.76	214.76
940.06	214.78
940.35	214.77
940.65	214.65
940.95	214.66
941.25	214.63
941.55	214.53
941.85	214.55
942.15	214.59
942.45	214.63
942.75	214.64
943.04	214.69
943.34	214.76
943.64	214.76
943.94	214.73
944.24	214.74
944.54	214.79
944.84	214.80
945.13	214.77
945.43	214.73
945.73	214.73
946.03	214.71
946.33	214.70
946.62	214.67
946.92	214.67
947.22	214.67
947.52	214.71
947.82	214.76
948.11	214.68
948.41	214.65
948.71	214.57
949.01	214.56
949.31	214.51
949.60	214.44
949.90	214.45
950.20	214.40
950.50	214.37
950.79	214.35
951.09	214.37
951.39	214.37
951.69	214.38
951.98	214.38
952.28	214.41
952.58	214.40
952.87	214.40
953.17	214.43
953.47	214.42
953.76	214.40
954.06	214.36
954.36	214.37
954.66	214.37
954.95	214.41
955.25	214.47
955.55	214.52
955.84	214.50
956.14	214.53
956.44	214.56
956.73	214.55
957.03	214.52
957.32	214.54
957.62	214.52
957.92	214.56
958.21	214.54
958.51	214.76
958.81	214.78
959.10	214.81
959.40	214.82
959.69	214.84
959.99	214.86
960.29	214.90
960.58	214.89
960.88	214.98
961.17	214.98
961.47	214.97
961.76	214.93
962.06	214.98
962.36	214.97
962.65	214.99
962.95	215.00
963.24	214.99
963.54	215.01
963.83	215.04
964.13	215.03
964.42	214.98
964.72	214.81
965.01	214.80
965.31	214.77
965.60	214.71
965.90	214.83
966.19	214.78
966.49	214.76
966.78	214.77
967.08	214.69
967.37	214.69
967.67	214.63
967.96	214.65
968.26	214.62
968.55	214.64
968.85	214.61
969.14	214.63
969.43	214.63
969.73	214.56
970.02	214.55
970.32	214.53
970.61	214.50
970.91	214.45
971.20	214.41
971.49	214.39
971.79	214.43
972.08	214.30
972.38	214.31
972.67	214.31
972.96	214.33
973.26	214.31
973.55	214.37
973.85	214.37
974.14	214.36
974.43	214.40
974.73	214.34
975.02	214.34
975.31	214.35
975.61	214.39
975.90	214.40
976.19	214.36
976.49	214.35
976.78	214.40
977.07	214.42
977.37	214.45
977.66	214.50
977.95	214.48
978.24	214.48
978.54	214.56
978.83	214.54
979.12	214.54
979.42	214.55
979.71	214.52
980.00	214.56
980.29	214.56
980.59	214.55
980.88	214.63
981.17	214.61
981.46	214.60
981.76	214.57
982.05	214.65
982.34	214.66
982.63	214.66
982.93	214.64
983.22	214.66
983.51	214.68
983.80	214.72
984.09	214.73
984.39	214.74
984.68	214.70
984.97	214.74
985.26	214.73
985.55	214.75
985.85	214.69
986.14	214.71
986.43	214.76
986.72	214.72
987.01	214.65
987.30	214.67
987.59	214.65
987.89	214.65
988.18	214.58
988.47	214.58
988.76	214.59
989.05	214.62
989.34	214.59
989.63	214.64
989.92	214.57
990.22	214.54
990.51	214.55
990.80	214.52
991.09	214.52
991.38	214.53
991.67	214.50
991.96	214.50
992.25	214.49
992.54	214.43
992.83	214.43
993.12	214.42
993.41	214.46
993.70	214.54
993.99	214.58
994.28	214.61
994.58	214.64
994.87	214.62
995.16	214.60
995.45	214.58
995.74	214.53
996.03	214.55
996.32	214.60
996.61	214.63
996.90	214.63
997.19	214.59
997.48	214.60
997.77	214.59
998.06	214.60
998.34	214.57
998.63	214.59
998.92	214.58
999.21	214.60
999.50	214.59
999.79	214.53
1000.08	214.48
1000.37	214.51
1000.66	214.48
1000.95	214.53
1001.24	214.53
1001.53	214.55
1001.82	214.54
1002.11	214.48
1002.40	214.47
1002.68	214.49
1002.97	214.65
1003.26	214.66
1003.55	214.62
1003.84	214.63
1004.13	214.70
1004.42	214.71
1004.71	214.70
1004.99	214.69
1005.28	214.75
1005.57	214.72
1005.86	214.69
1006.15	214.74
1006.44	214.68
1006.72	214.70
1007.01	214.68
1007.30	214.68
1007.59	214.67
1007.88	214.68
1008.17	214.70
1008.45	214.68
1008.74	214.61
1009.03	214.52
1009.32	214.49
1009.60	214.48
1009.89	214.47
1010.18	214.39
1010.47	214.36
1010.76	214.37
1011.04	214.38
1011.33	214.38
1011.62	214.43
1011.91	214.46
1012.19	214.42
1012.48	214.46
1012.77	214.44
1013.05	214.53
1013.34	214.52
1013.63	214.54
1013.92	214.52
1014.20	214.52
1014.49	214.50
1014.78	214.55
1015.06	214.49
1015.35	214.52
1015.64	214.56
1015.92	214.59
1016.21	214.61
1016.50	214.65
1016.78	214.68
1017.07	214.70
1017.36	214.65
1017.64	214.62
1017.93	214.62
1018.22	214.61
1018.50	214.57
1018.79	214.57
1019.08	214.46
1019.36	214.47
1019.65	214.41
1019.93	214.50
1020.22	214.54
1020.51	214.63
1020.79	214.60
1021.08	214.35
1021.36	213.99
1021.65	214.23
1021.94	214.31
1022.22	214.63
1022.51	213.55
1022.79	215.88
1023.08	214.81
1023.36	216.24
1023.65	214.46
>>>>>End Processed Spectral Data<<<<<
