SpectraSuite Data File
++++++++++++++++++++++++++++++++++++
Date: Tue Jan 29 16:55:55 EST 2013
User: group
Dark Spectrum Present: No
Reference Spectrum Present: No
Number of Sampled Component Spectra: 1
Spectrometers: USB2E7196
Integration Time (usec): 65000 (USB2E7196)
Spectra Averaged: 100 (USB2E7196)
Boxcar Smoothing: 10 (USB2E7196)
Correct for Electrical Dark: No (USB2E7196)
Strobe/Lamp Enabled: No (USB2E7196)
Correct for Detector Non-linearity: No (USB2E7196)
Correct for Stray Light: No (USB2E7196)
Number of Pixels in Processed Spectrum: 2048
>>>>>Begin Processed Spectral Data<<<<<
339.09	0.00
339.48	200.76
339.86	202.24
340.24	203.37
340.63	205.03
341.01	210.12
341.39	208.53
341.78	209.81
342.16	210.62
342.54	211.31
342.93	200.45
343.31	210.58
343.69	211.15
344.07	211.62
344.46	212.11
344.84	212.56
345.22	212.76
345.60	213.02
345.99	213.23
346.37	213.39
346.75	213.53
347.13	213.62
347.52	213.67
347.90	213.81
348.28	213.86
348.66	213.94
349.05	213.91
349.43	213.96
349.81	214.02
350.19	214.08
350.57	214.19
350.96	214.28
351.34	214.37
351.72	214.48
352.10	214.59
352.48	214.66
352.87	214.69
353.25	214.73
353.63	214.76
354.01	214.80
354.39	214.90
354.77	214.96
355.15	215.08
355.54	215.14
355.92	215.13
356.30	215.22
356.68	215.41
357.06	215.52
357.44	215.57
357.82	215.64
358.20	215.73
358.58	215.78
358.97	215.85
359.35	215.95
359.73	216.04
360.11	216.10
360.49	216.17
360.87	216.22
361.25	216.30
361.63	216.44
362.01	216.50
362.39	216.49
362.77	216.57
363.15	216.58
363.53	216.60
363.91	216.64
364.29	216.64
364.67	216.48
365.05	216.49
365.43	216.53
365.81	216.57
366.19	216.65
366.57	216.73
366.95	216.72
367.33	216.68
367.71	216.71
368.09	216.75
368.47	216.75
368.85	216.75
369.23	216.73
369.61	216.65
369.99	216.69
370.37	216.73
370.75	216.80
371.13	216.73
371.51	216.72
371.89	216.72
372.27	216.73
372.65	216.72
373.03	216.67
373.41	216.63
373.78	216.57
374.16	216.43
374.54	216.35
374.92	216.27
375.30	216.25
375.68	216.13
376.06	216.10
376.44	216.03
376.82	215.99
377.19	215.97
377.57	215.90
377.95	215.77
378.33	215.72
378.71	215.52
379.09	215.52
379.47	215.48
379.84	215.42
380.22	215.37
380.60	215.25
380.98	215.21
381.36	215.15
381.73	215.12
382.11	215.10
382.49	215.05
382.87	214.99
383.25	214.96
383.62	215.19
384.00	215.10
384.38	215.08
384.76	215.09
385.13	215.14
385.51	215.13
385.89	215.09
386.27	215.06
386.64	215.12
387.02	215.08
387.40	215.04
387.78	215.02
388.15	214.98
388.53	214.98
388.91	214.95
389.29	214.92
389.66	214.91
390.04	214.87
390.42	214.89
390.79	214.91
391.17	214.87
391.55	214.63
391.92	214.64
392.30	214.63
392.68	214.56
393.05	214.54
393.43	214.56
393.81	214.59
394.18	214.54
394.56	214.49
394.94	214.54
395.31	214.53
395.69	214.59
396.06	214.62
396.44	214.70
396.82	214.71
397.19	214.84
397.57	214.83
397.95	214.91
398.32	214.85
398.70	214.92
399.07	215.02
399.45	215.02
399.82	215.07
400.20	215.13
400.58	215.18
400.95	215.16
401.33	215.24
401.70	215.42
402.08	215.51
402.45	215.60
402.83	215.72
403.20	215.85
403.58	215.94
403.95	216.08
404.33	216.20
404.71	216.34
405.08	216.60
405.46	216.79
405.83	216.90
406.21	217.18
406.58	217.39
406.96	217.59
407.33	217.90
407.70	218.19
408.08	218.67
408.45	219.04
408.83	219.43
409.20	219.79
409.58	220.08
409.95	220.57
410.33	221.07
410.70	221.50
411.08	222.03
411.45	222.62
411.82	223.19
412.20	223.88
412.57	224.75
412.95	225.31
413.32	226.14
413.69	227.00
414.07	227.90
414.44	228.91
414.82	229.90
415.19	231.08
415.56	232.26
415.94	233.45
416.31	234.87
416.68	236.29
417.06	237.91
417.43	239.48
417.81	241.20
418.18	243.01
418.55	244.97
418.93	247.00
419.30	249.12
419.67	251.39
420.04	253.69
420.42	256.09
420.79	258.89
421.16	261.71
421.54	264.67
421.91	267.65
422.28	270.78
422.66	274.16
423.03	277.43
423.40	280.81
423.77	284.44
424.15	288.16
424.52	292.02
424.89	296.22
425.26	300.32
425.64	304.29
426.01	308.59
426.38	313.06
426.75	317.68
427.13	322.43
427.50	327.44
427.87	332.70
428.24	337.93
428.61	342.99
428.99	348.56
429.36	354.59
429.73	360.55
430.10	366.43
430.47	372.53
430.85	378.88
431.22	385.61
431.59	392.71
431.96	399.55
432.33	407.09
432.70	414.40
433.08	422.99
433.45	431.05
433.82	439.07
434.19	448.07
434.56	456.77
434.93	465.17
435.30	473.46
435.68	482.57
436.05	491.60
436.42	500.61
436.79	508.86
437.16	517.77
437.53	527.08
437.90	536.32
438.27	545.36
438.64	554.59
439.01	563.19
439.38	570.81
439.75	578.18
440.13	586.67
440.50	594.64
440.87	601.06
441.24	607.77
441.61	615.23
441.98	620.63
442.35	627.08
442.72	633.40
443.09	639.54
443.46	643.29
443.83	645.81
444.20	647.93
444.57	651.02
444.94	652.45
445.31	653.89
445.68	655.31
446.05	655.91
446.42	655.15
446.79	654.26
447.16	653.23
447.53	652.47
447.90	649.11
448.27	645.85
448.64	641.22
449.01	637.87
449.37	631.91
449.74	626.16
450.11	619.21
450.48	611.81
450.85	604.25
451.22	597.88
451.59	591.73
451.96	585.91
452.33	578.01
452.70	570.86
453.07	562.35
453.43	553.61
453.80	545.28
454.17	537.25
454.54	529.62
454.91	521.33
455.28	513.32
455.65	505.88
456.02	498.28
456.38	491.89
456.75	484.00
457.12	477.36
457.49	470.78
457.86	464.49
458.23	459.08
458.59	453.16
458.96	447.02
459.33	441.66
459.70	436.23
460.07	431.91
460.43	426.95
460.80	422.30
461.17	418.28
461.54	414.05
461.91	410.00
462.27	405.88
462.64	402.48
463.01	398.64
463.38	394.91
463.74	391.21
464.11	387.94
464.48	385.05
464.85	381.98
465.21	379.60
465.58	376.98
465.95	373.84
466.32	371.19
466.68	368.58
467.05	365.99
467.42	363.42
467.78	360.73
468.15	358.16
468.52	356.27
468.88	353.76
469.25	351.49
469.62	349.67
469.98	347.64
470.35	345.77
470.72	344.06
471.08	342.22
471.45	340.65
471.82	339.14
472.18	337.42
472.55	336.15
472.92	334.73
473.28	333.49
473.65	332.26
474.02	331.12
474.38	330.24
474.75	329.48
475.11	328.62
475.48	328.06
475.85	327.55
476.21	327.03
476.58	326.71
476.94	326.50
477.31	326.17
477.67	325.92
478.04	325.72
478.41	325.66
478.77	325.79
479.14	325.75
479.50	325.86
479.87	326.20
480.23	326.52
480.60	326.78
480.96	327.05
481.33	327.65
481.69	328.20
482.06	328.66
482.42	329.07
482.79	329.69
483.15	330.47
483.52	331.42
483.88	332.33
484.25	333.22
484.61	334.21
484.98	335.24
485.34	336.61
485.71	337.98
486.07	339.44
486.44	340.80
486.80	342.41
487.17	344.06
487.53	345.82
487.90	347.68
488.26	349.71
488.62	351.86
488.99	353.95
489.35	356.13
489.72	358.52
490.08	361.07
490.44	363.59
490.81	366.28
491.17	369.02
491.54	371.95
491.90	374.97
492.26	378.20
492.63	381.58
492.99	385.07
493.36	388.75
493.72	392.59
494.08	396.59
494.45	400.79
494.81	405.16
495.17	409.64
495.54	414.29
495.90	419.06
496.26	423.97
496.63	429.13
496.99	434.57
497.35	440.19
497.72	446.00
498.08	451.96
498.44	457.97
498.80	464.35
499.17	470.87
499.53	477.65
499.89	484.51
500.26	491.55
500.62	498.60
500.98	505.98
501.34	513.44
501.71	521.12
502.07	528.91
502.43	536.84
502.79	544.96
503.16	553.36
503.52	562.02
503.88	570.73
504.24	579.65
504.60	588.70
504.97	597.91
505.33	607.17
505.69	616.97
506.05	626.85
506.41	636.80
506.78	646.82
507.14	657.00
507.50	667.43
507.86	677.98
508.22	688.69
508.59	699.30
508.95	710.35
509.31	721.59
509.67	733.07
510.03	744.45
510.39	756.06
510.75	767.79
511.12	779.57
511.48	791.69
511.84	803.94
512.20	816.17
512.56	828.76
512.92	841.54
513.28	854.17
513.64	866.91
514.00	879.65
514.37	892.58
514.73	905.69
515.09	918.66
515.45	931.64
515.81	944.74
516.17	958.13
516.53	971.30
516.89	984.43
517.25	997.59
517.61	1011.08
517.97	1024.52
518.33	1037.76
518.69	1051.31
519.05	1064.91
519.41	1078.52
519.77	1092.49
520.13	1105.78
520.49	1118.95
520.85	1132.35
521.21	1145.65
521.57	1159.23
521.93	1172.23
522.29	1185.94
522.65	1199.67
523.01	1213.35
523.37	1226.54
523.73	1239.88
524.09	1253.22
524.45	1266.68
524.81	1280.13
525.17	1293.58
525.53	1306.84
525.89	1320.18
526.25	1333.39
526.61	1346.33
526.97	1359.49
527.33	1372.48
527.68	1386.04
528.04	1399.56
528.40	1412.73
528.76	1426.16
529.12	1439.19
529.48	1452.62
529.84	1464.88
530.20	1477.49
530.56	1490.07
530.91	1503.31
531.27	1516.19
531.63	1528.79
531.99	1541.56
532.35	1553.85
532.71	1566.44
533.07	1579.43
533.42	1591.74
533.78	1603.79
534.14	1615.93
534.50	1627.28
534.86	1638.84
535.21	1649.71
535.57	1661.24
535.93	1672.43
536.29	1683.63
536.65	1695.09
537.00	1706.11
537.36	1717.60
537.72	1728.78
538.08	1740.26
538.44	1751.31
538.79	1762.51
539.15	1773.58
539.51	1784.48
539.87	1795.96
540.22	1806.70
540.58	1817.66
540.94	1828.61
541.29	1839.07
541.65	1848.94
542.01	1859.36
542.37	1869.45
542.72	1879.65
543.08	1889.46
543.44	1900.12
543.79	1909.37
544.15	1918.94
544.51	1929.11
544.87	1939.02
545.22	1948.31
545.58	1957.19
545.94	1966.15
546.29	1974.58
546.65	1982.94
547.01	1991.07
547.36	1998.76
547.72	2006.58
548.07	2014.21
548.43	2021.91
548.79	2029.81
549.14	2037.89
549.50	2046.50
549.86	2054.56
550.21	2062.03
550.57	2069.76
550.92	2076.59
551.28	2084.23
551.64	2091.49
551.99	2098.83
552.35	2106.03
552.70	2112.97
553.06	2119.65
553.41	2125.88
553.77	2132.44
554.13	2138.94
554.48	2146.05
554.84	2153.07
555.19	2159.62
555.55	2165.97
555.90	2172.40
556.26	2179.29
556.61	2185.53
556.97	2190.27
557.32	2195.88
557.68	2202.29
558.03	2208.09
558.39	2213.55
558.74	2219.48
559.10	2225.01
559.45	2230.60
559.81	2236.01
560.16	2241.40
560.52	2247.37
560.87	2253.74
561.23	2259.46
561.58	2265.98
561.94	2271.14
562.29	2275.59
562.64	2281.53
563.00	2287.23
563.35	2292.60
563.71	2298.14
564.06	2303.61
564.42	2309.60
564.77	2314.63
565.12	2319.93
565.48	2324.78
565.83	2330.05
566.19	2335.27
566.54	2340.37
566.89	2344.71
567.25	2349.31
567.60	2354.95
567.96	2359.71
568.31	2364.15
568.66	2368.54
569.02	2372.26
569.37	2376.01
569.72	2380.53
570.08	2383.80
570.43	2386.82
570.78	2389.95
571.14	2392.32
571.49	2395.35
571.84	2398.69
572.20	2401.55
572.55	2404.20
572.90	2406.47
573.26	2409.09
573.61	2411.64
573.96	2413.85
574.31	2415.88
574.67	2417.64
575.02	2418.19
575.37	2419.57
575.72	2420.02
576.08	2421.39
576.43	2421.48
576.78	2421.58
577.13	2422.78
577.49	2423.97
577.84	2424.69
578.19	2425.61
578.54	2425.98
578.90	2426.32
579.25	2426.02
579.60	2425.71
579.95	2424.71
580.30	2424.44
580.66	2423.82
581.01	2421.78
581.36	2419.06
581.71	2417.43
582.06	2415.89
582.42	2414.80
582.77	2412.35
583.12	2410.57
583.47	2408.88
583.82	2408.13
584.17	2406.64
584.53	2404.54
584.88	2402.14
585.23	2400.06
585.58	2397.72
585.93	2395.72
586.28	2393.51
586.63	2390.76
586.98	2388.36
587.34	2386.24
587.69	2383.57
588.04	2381.07
588.39	2379.35
588.74	2376.85
589.09	2373.84
589.44	2370.59
589.79	2367.81
590.14	2365.71
590.49	2362.79
590.84	2358.72
591.19	2355.28
591.54	2352.17
591.89	2348.16
592.25	2344.71
592.60	2340.39
592.95	2336.08
593.30	2331.54
593.65	2326.96
594.00	2322.54
594.35	2319.35
594.70	2314.74
595.05	2310.33
595.40	2304.69
595.75	2298.87
596.10	2295.06
596.45	2290.27
596.80	2285.64
597.15	2280.49
597.50	2274.59
597.85	2269.57
598.19	2264.37
598.54	2258.51
598.89	2252.96
599.24	2248.11
599.59	2241.93
599.94	2235.99
600.29	2229.97
600.64	2224.14
600.99	2217.25
601.34	2211.63
601.69	2204.67
602.04	2198.27
602.39	2191.40
602.74	2185.33
603.08	2179.90
603.43	2173.57
603.78	2166.67
604.13	2159.65
604.48	2152.28
604.83	2145.93
605.18	2139.69
605.53	2132.96
605.87	2125.91
606.22	2119.19
606.57	2111.23
606.92	2103.33
607.27	2096.44
607.62	2089.86
607.96	2082.76
608.31	2076.38
608.66	2068.63
609.01	2060.88
609.36	2053.72
609.70	2046.09
610.05	2038.25
610.40	2029.93
610.75	2021.34
611.10	2013.64
611.44	2004.56
611.79	1995.98
612.14	1986.23
612.49	1975.62
612.83	1966.00
613.18	1956.74
613.53	1947.46
613.88	1937.89
614.22	1929.29
614.57	1919.44
614.92	1908.84
615.27	1898.65
615.61	1888.44
615.96	1878.79
616.31	1869.34
616.65	1859.80
617.00	1850.36
617.35	1840.90
617.70	1831.27
618.04	1821.53
618.39	1811.53
618.74	1802.16
619.08	1792.48
619.43	1783.74
619.78	1775.56
620.12	1767.15
620.47	1757.93
620.82	1747.69
621.16	1738.06
621.51	1728.32
621.85	1718.67
622.20	1708.55
622.55	1698.15
622.89	1688.25
623.24	1678.58
623.59	1668.87
623.93	1658.98
624.28	1649.01
624.62	1639.01
624.97	1628.83
625.32	1618.92
625.66	1609.86
626.01	1601.20
626.35	1592.04
626.70	1582.20
627.04	1572.26
627.39	1562.15
627.73	1552.84
628.08	1544.12
628.43	1534.68
628.77	1525.50
629.12	1516.67
629.46	1508.87
629.81	1500.67
630.15	1491.55
630.50	1482.01
630.84	1471.67
631.19	1461.86
631.53	1452.88
631.88	1442.83
632.22	1433.01
632.57	1423.80
632.91	1414.08
633.26	1404.32
633.60	1394.92
633.95	1385.82
634.29	1376.44
634.64	1367.29
634.98	1357.27
635.32	1348.13
635.67	1339.80
636.01	1330.57
636.36	1321.06
636.70	1311.68
637.05	1302.42
637.39	1293.62
637.73	1285.17
638.08	1277.65
638.42	1269.69
638.77	1261.09
639.11	1252.98
639.45	1245.25
639.80	1236.98
640.14	1228.31
640.49	1219.68
640.83	1210.92
641.17	1202.78
641.52	1194.79
641.86	1186.37
642.20	1178.88
642.55	1170.25
642.89	1161.46
643.23	1152.96
643.58	1144.93
643.92	1135.91
644.26	1127.39
644.61	1119.05
644.95	1110.32
645.29	1101.25
645.64	1092.18
645.98	1083.67
646.32	1075.86
646.66	1067.44
647.01	1059.29
647.35	1051.23
647.69	1042.97
648.04	1034.85
648.38	1026.13
648.72	1017.46
649.06	1009.12
649.41	1000.90
649.75	993.13
650.09	985.48
650.43	977.58
650.78	969.30
651.12	961.68
651.46	954.27
651.80	947.02
652.14	939.81
652.49	932.50
652.83	925.21
653.17	917.61
653.51	910.07
653.85	902.89
654.20	895.69
654.54	888.37
654.88	881.20
655.22	873.94
655.56	866.96
655.90	860.21
656.25	853.55
656.59	846.77
656.93	839.84
657.27	832.69
657.61	825.73
657.95	819.66
658.29	813.80
658.64	807.75
658.98	801.36
659.32	794.92
659.66	788.64
660.00	782.38
660.34	776.34
660.68	770.23
661.02	763.86
661.36	757.80
661.70	751.98
662.05	746.32
662.39	740.96
662.73	735.61
663.07	730.17
663.41	724.58
663.75	718.88
664.09	713.07
664.43	707.60
664.77	702.38
665.11	696.62
665.45	690.80
665.79	684.99
666.13	679.30
666.47	673.81
666.81	668.42
667.15	663.00
667.49	657.84
667.83	652.62
668.17	647.43
668.51	642.40
668.85	637.49
669.19	632.67
669.53	627.58
669.87	622.44
670.21	617.75
670.55	613.06
670.89	608.57
671.23	604.28
671.57	599.91
671.91	595.62
672.25	591.43
672.58	587.31
672.92	583.22
673.26	579.32
673.60	575.35
673.94	571.46
674.28	567.90
674.62	564.16
674.96	560.37
675.30	556.88
675.64	553.15
675.97	549.54
676.31	545.84
676.65	542.31
676.99	538.96
677.33	535.11
677.67	531.48
678.01	527.64
678.34	523.99
678.68	520.45
679.02	516.83
679.36	513.14
679.70	509.47
680.04	505.92
680.37	502.46
680.71	499.16
681.05	495.94
681.39	492.55
681.73	489.33
682.06	486.28
682.40	483.16
682.74	479.98
683.08	476.77
683.42	473.54
683.75	470.45
684.09	467.29
684.43	464.51
684.77	461.56
685.10	458.72
685.44	455.78
685.78	452.87
686.12	450.07
686.45	447.32
686.79	444.55
687.13	441.99
687.46	439.34
687.80	436.62
688.14	433.80
688.48	431.11
688.81	428.39
689.15	425.83
689.49	423.22
689.82	420.66
690.16	418.04
690.50	415.59
690.83	413.08
691.17	410.54
691.51	407.95
691.84	405.54
692.18	403.30
692.52	401.12
692.85	398.92
693.19	396.77
693.52	394.53
693.86	392.36
694.20	390.15
694.53	387.95
694.87	385.76
695.21	383.60
695.54	381.47
695.88	379.27
696.21	377.05
696.55	374.87
696.88	372.80
697.22	370.79
697.56	368.83
697.89	366.95
698.23	365.17
698.56	363.37
698.90	361.67
699.23	359.73
699.57	357.87
699.90	355.97
700.24	354.11
700.58	352.34
700.91	350.60
701.25	349.00
701.58	347.40
701.92	345.81
702.25	344.18
702.59	342.52
702.92	340.97
703.26	339.38
703.59	337.84
703.93	336.54
704.26	335.09
704.60	333.61
704.93	332.08
705.26	330.55
705.60	329.08
705.93	327.51
706.27	326.14
706.60	324.85
706.94	323.64
707.27	322.21
707.61	320.89
707.94	319.58
708.27	318.11
708.61	316.63
708.94	315.22
709.28	313.91
709.61	312.67
709.94	311.45
710.28	310.23
710.61	309.12
710.95	307.70
711.28	306.59
711.61	305.36
711.95	304.21
712.28	303.05
712.61	301.79
712.95	300.73
713.28	299.67
713.61	298.48
713.95	297.28
714.28	296.27
714.61	295.20
714.95	294.17
715.28	293.07
715.61	292.06
715.95	291.09
716.28	290.10
716.61	289.14
716.95	288.12
717.28	287.15
717.61	286.09
717.94	285.15
718.28	284.11
718.61	283.22
718.94	282.31
719.27	281.40
719.61	280.62
719.94	279.75
720.27	278.80
720.60	277.90
720.94	277.10
721.27	276.29
721.60	275.52
721.93	274.77
722.27	274.14
722.60	273.45
722.93	272.69
723.26	272.05
723.59	271.35
723.93	270.70
724.26	270.05
724.59	269.45
724.92	268.82
725.25	268.24
725.59	267.62
725.92	267.09
726.25	266.53
726.58	265.92
726.91	265.28
727.24	264.74
727.57	264.16
727.91	263.54
728.24	263.03
728.57	262.48
728.90	261.88
729.23	261.25
729.56	260.82
729.89	260.26
730.22	259.68
730.55	259.14
730.89	258.55
731.22	258.02
731.55	257.49
731.88	256.96
732.21	256.43
732.54	255.93
732.87	255.40
733.20	254.90
733.53	254.44
733.86	254.00
734.19	253.49
734.52	253.05
734.85	252.77
735.18	252.29
735.51	251.90
735.84	251.50
736.17	251.09
736.50	250.53
736.83	250.39
737.16	250.00
737.49	249.60
737.82	249.21
738.15	248.85
738.48	248.42
738.81	248.02
739.14	247.57
739.47	247.16
739.80	246.80
740.13	246.44
740.46	246.03
740.79	245.60
741.12	245.22
741.45	244.85
741.78	244.39
742.11	244.10
742.44	243.70
742.77	243.39
743.10	243.03
743.43	242.67
743.75	242.13
744.08	242.04
744.41	241.69
744.74	241.33
745.07	240.92
745.40	240.64
745.73	240.36
746.06	240.04
746.39	239.75
746.71	239.36
747.04	239.01
747.37	238.70
747.70	238.47
748.03	238.13
748.36	237.85
748.68	237.54
749.01	237.13
749.34	236.86
749.67	236.56
750.00	236.30
750.33	236.17
750.65	235.87
750.98	235.32
751.31	235.07
751.64	234.87
751.97	234.72
752.29	234.48
752.62	234.13
752.95	233.85
753.28	233.59
753.60	233.35
753.93	233.19
754.26	232.97
754.59	232.67
754.91	232.41
755.24	232.16
755.57	231.93
755.90	231.73
756.22	231.48
756.55	231.21
756.88	230.96
757.20	230.64
757.53	230.36
757.86	230.13
758.19	229.91
758.51	229.69
758.84	229.41
759.17	229.19
759.49	229.04
759.82	228.98
760.15	228.81
760.47	228.64
760.80	228.37
761.13	228.19
761.45	227.98
761.78	227.86
762.11	227.70
762.43	227.49
762.76	227.30
763.08	227.11
763.41	226.98
763.74	226.80
764.06	226.63
764.39	226.49
764.71	226.35
765.04	226.21
765.37	226.04
765.69	225.87
766.02	225.71
766.34	225.55
766.67	225.36
767.00	225.25
767.32	225.20
767.65	225.17
767.97	225.05
768.30	224.95
768.62	224.84
768.95	224.67
769.27	224.56
769.60	224.46
769.92	224.35
770.25	224.16
770.57	224.02
770.90	223.89
771.22	223.71
771.55	223.64
771.87	223.51
772.20	223.36
772.52	223.43
772.85	223.56
773.17	223.44
773.50	223.28
773.82	223.16
774.15	222.99
774.47	222.77
774.80	222.63
775.12	222.53
775.45	222.41
775.77	222.33
776.09	222.24
776.42	222.13
776.74	222.09
777.07	221.98
777.39	221.87
777.72	221.79
778.04	221.78
778.36	221.68
778.69	221.58
779.01	221.54
779.33	221.28
779.66	220.98
779.98	220.89
780.31	220.84
780.63	220.84
780.95	220.79
781.28	220.72
781.60	220.64
781.92	220.54
782.25	220.44
782.57	220.38
782.89	220.31
783.22	220.27
783.54	220.18
783.86	220.15
784.19	220.10
784.51	220.07
784.83	219.96
785.16	219.88
785.48	219.82
785.80	219.78
786.12	219.74
786.45	219.68
786.77	219.66
787.09	219.59
787.42	219.44
787.74	219.36
788.06	219.32
788.38	219.21
788.71	219.13
789.03	219.11
789.35	219.03
789.67	218.93
789.99	218.90
790.32	218.78
790.64	218.77
790.96	218.87
791.28	218.77
791.61	218.72
791.93	218.65
792.25	218.61
792.57	218.70
792.89	218.59
793.21	218.56
793.54	218.47
793.86	218.39
794.18	218.38
794.50	218.28
794.82	218.23
795.14	218.26
795.47	218.26
795.79	218.22
796.11	218.17
796.43	218.13
796.75	218.05
797.07	218.04
797.39	217.97
797.71	217.79
798.04	217.75
798.36	217.71
798.68	217.72
799.00	217.71
799.32	217.55
799.64	217.55
799.96	217.47
800.28	217.49
800.60	217.46
800.92	217.41
801.24	217.42
801.56	217.40
801.89	217.34
802.21	217.32
802.53	217.23
802.85	217.25
803.17	217.31
803.49	217.24
803.81	217.20
804.13	217.16
804.45	217.09
804.77	217.08
805.09	217.02
805.41	216.92
805.73	216.84
806.05	216.74
806.37	216.71
806.69	216.66
807.01	216.60
807.33	216.59
807.65	216.48
807.97	216.52
808.28	216.49
808.60	216.45
808.92	216.40
809.24	216.52
809.56	216.47
809.88	216.38
810.20	216.37
810.52	216.37
810.84	216.31
811.16	216.28
811.48	216.25
811.80	216.31
812.12	216.29
812.43	216.32
812.75	216.34
813.07	216.31
813.39	216.32
813.71	216.26
814.03	216.21
814.35	216.20
814.67	216.07
814.98	215.99
815.30	215.98
815.62	215.94
815.94	215.76
816.26	215.75
816.58	215.69
816.89	215.71
817.21	215.65
817.53	215.63
817.85	215.64
818.17	215.59
818.48	215.53
818.80	215.58
819.12	215.49
819.44	215.43
819.76	215.39
820.07	215.37
820.39	215.33
820.71	215.36
821.03	215.33
821.34	215.32
821.66	215.34
821.98	215.33
822.30	215.31
822.61	215.44
822.93	215.40
823.25	215.40
823.57	215.34
823.88	215.37
824.20	215.37
824.52	215.38
824.83	215.38
825.15	215.31
825.47	215.26
825.79	215.30
826.10	215.30
826.42	215.25
826.74	215.27
827.05	215.27
827.37	215.26
827.69	215.27
828.00	215.30
828.32	215.31
828.64	215.27
828.95	215.38
829.27	215.32
829.58	215.29
829.90	215.28
830.22	215.31
830.53	215.24
830.85	215.21
831.17	215.15
831.48	215.15
831.80	215.19
832.11	215.16
832.43	215.12
832.75	215.07
833.06	215.17
833.38	215.09
833.69	215.10
834.01	215.08
834.32	215.06
834.64	215.00
834.96	214.96
835.27	214.95
835.59	214.85
835.90	214.77
836.22	214.77
836.53	214.72
836.85	214.68
837.16	214.89
837.48	214.90
837.79	214.92
838.11	214.92
838.42	214.88
838.74	214.92
839.05	214.89
839.37	214.89
839.68	214.78
840.00	214.76
840.31	214.75
840.63	214.72
840.94	214.70
841.26	214.66
841.57	214.68
841.88	214.71
842.20	214.68
842.51	214.69
842.83	214.67
843.14	214.86
843.46	214.85
843.77	214.74
844.08	214.71
844.40	214.68
844.71	214.61
845.03	214.59
845.34	214.53
845.65	214.53
845.97	214.52
846.28	214.53
846.60	214.54
846.91	214.52
847.22	214.49
847.54	214.52
847.85	214.53
848.16	214.49
848.48	214.43
848.79	214.51
849.10	214.53
849.42	214.56
849.73	214.37
850.04	214.33
850.36	214.22
850.67	214.25
850.98	214.23
851.30	214.30
851.61	214.27
851.92	214.27
852.23	214.33
852.55	214.35
852.86	214.35
853.17	214.32
853.49	214.36
853.80	214.41
854.11	214.40
854.42	214.44
854.74	214.43
855.05	214.46
855.36	214.34
855.67	214.31
855.99	214.30
856.30	214.55
856.61	214.59
856.92	214.60
857.23	214.58
857.55	214.59
857.86	214.51
858.17	214.55
858.48	214.51
858.79	214.43
859.11	214.45
859.42	214.45
859.73	214.43
860.04	214.40
860.35	214.36
860.66	214.30
860.98	214.27
861.29	214.29
861.60	214.23
861.91	214.27
862.22	214.24
862.53	214.19
862.84	213.96
863.16	213.98
863.47	213.91
863.78	213.88
864.09	213.86
864.40	213.91
864.71	213.90
865.02	213.93
865.33	213.93
865.64	213.90
865.95	213.88
866.27	214.05
866.58	214.00
866.89	214.03
867.20	214.05
867.51	214.03
867.82	214.00
868.13	214.08
868.44	214.05
868.75	214.07
869.06	214.08
869.37	214.07
869.68	213.98
869.99	214.01
870.30	214.03
870.61	214.03
870.92	214.00
871.23	213.97
871.54	213.99
871.85	214.03
872.16	214.02
872.47	213.99
872.78	213.84
873.09	213.88
873.40	213.83
873.71	213.82
874.02	213.85
874.33	213.83
874.64	213.75
874.95	213.77
875.26	213.74
875.56	213.76
875.87	213.76
876.18	213.77
876.49	214.00
876.80	213.98
877.11	213.97
877.42	213.95
877.73	213.97
878.04	213.94
878.35	213.94
878.66	213.95
878.96	214.01
879.27	214.02
879.58	214.01
879.89	213.98
880.20	214.05
880.51	214.04
880.82	214.04
881.12	214.10
881.43	214.06
881.74	214.05
882.05	214.05
882.36	214.09
882.67	214.11
882.97	213.85
883.28	213.86
883.59	213.86
883.90	213.92
884.21	213.94
884.51	213.92
884.82	213.91
885.13	213.90
885.44	213.86
885.74	213.87
886.05	213.87
886.36	213.90
886.67	213.82
886.98	213.92
887.28	213.96
887.59	213.93
887.90	213.95
888.20	213.96
888.51	214.01
888.82	213.95
889.13	213.99
889.43	214.21
889.74	214.20
890.05	214.23
890.35	214.16
890.66	214.13
890.97	214.15
891.28	214.12
891.58	214.14
891.89	214.12
892.20	214.11
892.50	214.11
892.81	214.09
893.12	214.11
893.42	214.01
893.73	214.04
894.04	214.02
894.34	214.03
894.65	214.00
894.95	213.97
895.26	213.98
895.57	214.07
895.87	213.84
896.18	213.90
896.48	213.89
896.79	213.92
897.10	213.97
897.40	213.92
897.71	213.94
898.01	213.94
898.32	213.97
898.63	213.98
898.93	214.01
899.24	214.03
899.54	214.01
899.85	214.00
900.15	213.97
900.46	213.98
900.76	214.01
901.07	214.01
901.38	213.99
901.68	214.00
901.99	213.88
902.29	213.92
902.60	213.86
902.90	213.85
903.21	213.86
903.51	213.84
903.82	213.90
904.12	213.90
904.43	213.90
904.73	213.88
905.03	213.86
905.34	214.05
905.64	214.03
905.95	214.04
906.25	214.04
906.56	214.02
906.86	213.97
907.17	213.96
907.47	213.97
907.77	213.98
908.08	213.94
908.38	213.95
908.69	213.96
908.99	214.03
909.30	214.04
909.60	213.98
909.90	213.98
910.21	213.93
910.51	213.90
910.81	213.87
911.12	213.90
911.42	213.91
911.73	213.70
912.03	213.70
912.33	213.73
912.64	213.74
912.94	213.72
913.24	213.73
913.55	213.69
913.85	213.71
914.15	213.72
914.46	213.73
914.76	213.71
915.06	213.69
915.37	213.65
915.67	213.63
915.97	213.67
916.27	213.61
916.58	213.60
916.88	213.61
917.18	213.61
917.49	213.74
917.79	213.71
918.09	213.72
918.39	213.79
918.70	213.77
919.00	213.75
919.30	213.87
919.60	213.86
919.91	213.85
920.21	213.84
920.51	213.82
920.81	213.84
921.12	213.86
921.42	213.87
921.72	213.87
922.02	213.87
922.32	213.89
922.63	213.95
922.93	214.08
923.23	214.10
923.53	214.08
923.83	213.94
924.13	213.99
924.44	213.99
924.74	213.99
925.04	214.04
925.34	214.06
925.64	213.95
925.94	213.94
926.24	214.04
926.55	214.03
926.85	214.04
927.15	214.03
927.45	214.03
927.75	214.01
928.05	214.05
928.35	214.06
928.65	214.08
928.95	214.07
929.26	214.00
929.56	214.01
929.86	214.05
930.16	214.02
930.46	213.98
930.76	213.97
931.06	213.88
931.36	213.80
931.66	213.82
931.96	213.85
932.26	213.86
932.56	213.77
932.86	213.80
933.16	213.80
933.46	213.77
933.76	213.74
934.06	213.77
934.36	213.83
934.66	213.80
934.96	213.78
935.26	213.81
935.56	213.80
935.86	213.76
936.16	213.73
936.46	213.71
936.76	213.73
937.06	213.69
937.36	213.72
937.66	213.74
937.96	213.73
938.26	213.68
938.56	213.66
938.86	213.65
939.16	213.67
939.46	213.68
939.76	213.69
940.06	213.69
940.35	213.67
940.65	213.54
940.95	213.56
941.25	213.53
941.55	213.48
941.85	213.46
942.15	213.51
942.45	213.57
942.75	213.56
943.04	213.56
943.34	213.65
943.64	213.62
943.94	213.61
944.24	213.59
944.54	213.64
944.84	213.65
945.13	213.64
945.43	213.62
945.73	213.63
946.03	213.62
946.33	213.62
946.62	213.57
946.92	213.58
947.22	213.60
947.52	213.61
947.82	213.66
948.11	213.66
948.41	213.61
948.71	213.54
949.01	213.53
949.31	213.53
949.60	213.48
949.90	213.54
950.20	213.51
950.50	213.50
950.79	213.47
951.09	213.50
951.39	213.51
951.69	213.47
951.98	213.49
952.28	213.49
952.58	213.49
952.87	213.48
953.17	213.54
953.47	213.48
953.76	213.46
954.06	213.41
954.36	213.35
954.66	213.35
954.95	213.41
955.25	213.44
955.55	213.43
955.84	213.40
956.14	213.38
956.44	213.40
956.73	213.40
957.03	213.40
957.32	213.43
957.62	213.40
957.92	213.45
958.21	213.41
958.51	213.66
958.81	213.69
959.10	213.75
959.40	213.80
959.69	213.84
959.99	213.85
960.29	213.86
960.58	213.88
960.88	213.97
961.17	213.94
961.47	213.94
961.76	213.92
962.06	213.96
962.36	213.92
962.65	213.92
962.95	213.92
963.24	213.89
963.54	213.87
963.83	213.89
964.13	213.87
964.42	213.85
964.72	213.67
965.01	213.65
965.31	213.60
965.60	213.52
965.90	213.63
966.19	213.61
966.49	213.63
966.78	213.60
967.08	213.59
967.37	213.59
967.67	213.60
967.96	213.64
968.26	213.66
968.55	213.72
968.85	213.72
969.14	213.72
969.43	213.74
969.73	213.70
970.02	213.68
970.32	213.69
970.61	213.69
970.91	213.62
971.20	213.59
971.49	213.60
971.79	213.60
972.08	213.46
972.38	213.48
972.67	213.48
972.96	213.55
973.26	213.47
973.55	213.52
973.85	213.51
974.14	213.49
974.43	213.48
974.73	213.41
975.02	213.41
975.31	213.38
975.61	213.38
975.90	213.36
976.19	213.33
976.49	213.34
976.78	213.33
977.07	213.35
977.37	213.40
977.66	213.39
977.95	213.37
978.24	213.38
978.54	213.40
978.83	213.38
979.12	213.36
979.42	213.39
979.71	213.37
980.00	213.31
980.29	213.32
980.59	213.28
980.88	213.37
981.17	213.34
981.46	213.37
981.76	213.38
982.05	213.45
982.34	213.49
982.63	213.49
982.93	213.48
983.22	213.51
983.51	213.48
983.80	213.51
984.09	213.56
984.39	213.55
984.68	213.50
984.97	213.48
985.26	213.46
985.55	213.47
985.85	213.42
986.14	213.51
986.43	213.55
986.72	213.54
987.01	213.45
987.30	213.45
987.59	213.43
987.89	213.45
988.18	213.39
988.47	213.36
988.76	213.33
989.05	213.34
989.34	213.29
989.63	213.36
989.92	213.35
990.22	213.30
990.51	213.31
990.80	213.34
991.09	213.35
991.38	213.37
991.67	213.37
991.96	213.38
992.25	213.36
992.54	213.32
992.83	213.32
993.12	213.32
993.41	213.35
993.70	213.42
993.99	213.46
994.28	213.49
994.58	213.54
994.87	213.55
995.16	213.57
995.45	213.54
995.74	213.47
996.03	213.49
996.32	213.55
996.61	213.59
996.90	213.55
997.19	213.57
997.48	213.56
997.77	213.53
998.06	213.55
998.34	213.49
998.63	213.49
998.92	213.55
999.21	213.60
999.50	213.62
999.79	213.57
1000.08	213.55
1000.37	213.53
1000.66	213.50
1000.95	213.52
1001.24	213.53
1001.53	213.59
1001.82	213.62
1002.11	213.56
1002.40	213.56
1002.68	213.60
1002.97	213.79
1003.26	213.76
1003.55	213.76
1003.84	213.79
1004.13	213.85
1004.42	213.88
1004.71	213.91
1004.99	213.88
1005.28	213.90
1005.57	213.90
1005.86	213.89
1006.15	213.85
1006.44	213.83
1006.72	213.88
1007.01	213.85
1007.30	213.81
1007.59	213.80
1007.88	213.78
1008.17	213.81
1008.45	213.78
1008.74	213.69
1009.03	213.58
1009.32	213.58
1009.60	213.59
1009.89	213.56
1010.18	213.45
1010.47	213.44
1010.76	213.41
1011.04	213.36
1011.33	213.36
1011.62	213.34
1011.91	213.36
1012.19	213.38
1012.48	213.38
1012.77	213.38
1013.05	213.50
1013.34	213.50
1013.63	213.49
1013.92	213.46
1014.20	213.45
1014.49	213.44
1014.78	213.45
1015.06	213.38
1015.35	213.40
1015.64	213.40
1015.92	213.39
1016.21	213.43
1016.50	213.42
1016.78	213.43
1017.07	213.47
1017.36	213.42
1017.64	213.34
1017.93	213.38
1018.22	213.36
1018.50	213.35
1018.79	213.33
1019.08	213.20
1019.36	213.22
1019.65	213.19
1019.93	213.28
1020.22	213.30
1020.51	213.42
1020.79	213.39
1021.08	213.11
1021.36	212.84
1021.65	213.29
1021.94	213.21
1022.22	213.55
1022.51	212.80
1022.79	214.47
1023.08	213.64
1023.36	215.89
1023.65	212.72
>>>>>End Processed Spectral Data<<<<<
