SpectraSuite Data File
++++++++++++++++++++++++++++++++++++
Date: Tue Jan 29 16:41:10 EST 2013
User: group
Dark Spectrum Present: No
Reference Spectrum Present: No
Number of Sampled Component Spectra: 1
Spectrometers: USB2E7196
Integration Time (usec): 65000 (USB2E7196)
Spectra Averaged: 100 (USB2E7196)
Boxcar Smoothing: 10 (USB2E7196)
Correct for Electrical Dark: No (USB2E7196)
Strobe/Lamp Enabled: No (USB2E7196)
Correct for Detector Non-linearity: No (USB2E7196)
Correct for Stray Light: No (USB2E7196)
Number of Pixels in Processed Spectrum: 2048
>>>>>Begin Processed Spectral Data<<<<<
339.09	0.00
339.48	201.92
339.86	203.00
340.24	204.64
340.63	206.44
341.01	210.76
341.39	208.72
341.78	210.16
342.16	211.63
342.54	211.58
342.93	200.97
343.31	211.13
343.69	211.66
344.07	212.14
344.46	212.59
344.84	212.96
345.22	213.12
345.60	213.40
345.99	213.60
346.37	213.75
346.75	213.88
347.13	213.96
347.52	214.00
347.90	214.14
348.28	214.19
348.66	214.26
349.05	214.21
349.43	214.23
349.81	214.29
350.19	214.38
350.57	214.46
350.96	214.53
351.34	214.63
351.72	214.74
352.10	214.83
352.48	214.88
352.87	214.92
353.25	214.97
353.63	214.99
354.01	215.06
354.39	215.14
354.77	215.22
355.15	215.37
355.54	215.42
355.92	215.42
356.30	215.51
356.68	215.73
357.06	215.85
357.44	215.93
357.82	216.00
358.20	216.06
358.58	216.12
358.97	216.21
359.35	216.29
359.73	216.40
360.11	216.47
360.49	216.57
360.87	216.62
361.25	216.72
361.63	216.88
362.01	216.92
362.39	216.93
362.77	217.02
363.15	217.01
363.53	217.05
363.91	217.10
364.29	217.13
364.67	216.94
365.05	216.96
365.43	217.02
365.81	217.04
366.19	217.13
366.57	217.17
366.95	217.17
367.33	217.12
367.71	217.12
368.09	217.15
368.47	217.16
368.85	217.18
369.23	217.20
369.61	217.11
369.99	217.18
370.37	217.20
370.75	217.24
371.13	217.18
371.51	217.14
371.89	217.11
372.27	217.09
372.65	217.11
373.03	217.07
373.41	217.01
373.78	216.98
374.16	216.87
374.54	216.81
374.92	216.75
375.30	216.73
375.68	216.65
376.06	216.65
376.44	216.56
376.82	216.49
377.19	216.45
377.57	216.37
377.95	216.23
378.33	216.18
378.71	216.03
379.09	216.04
379.47	216.02
379.84	215.96
380.22	215.91
380.60	215.83
380.98	215.78
381.36	215.71
381.73	215.62
382.11	215.63
382.49	215.57
382.87	215.52
383.25	215.50
383.62	215.70
384.00	215.57
384.38	215.58
384.76	215.60
385.13	215.62
385.51	215.58
385.89	215.56
386.27	215.52
386.64	215.51
387.02	215.44
387.40	215.40
387.78	215.37
388.15	215.34
388.53	215.30
388.91	215.28
389.29	215.24
389.66	215.27
390.04	215.17
390.42	215.19
390.79	215.18
391.17	215.14
391.55	214.91
391.92	214.90
392.30	214.88
392.68	214.82
393.05	214.81
393.43	214.84
393.81	214.82
394.18	214.79
394.56	214.79
394.94	214.83
395.31	214.84
395.69	214.95
396.06	215.00
396.44	215.05
396.82	215.08
397.19	215.23
397.57	215.26
397.95	215.36
398.32	215.34
398.70	215.44
399.07	215.50
399.45	215.53
399.82	215.60
400.20	215.64
400.58	215.73
400.95	215.72
401.33	215.81
401.70	216.07
402.08	216.16
402.45	216.24
402.83	216.37
403.20	216.48
403.58	216.52
403.95	216.68
404.33	216.84
404.71	217.01
405.08	217.24
405.46	217.39
405.83	217.57
406.21	217.81
406.58	217.99
406.96	218.25
407.33	218.50
407.70	218.76
408.08	219.23
408.45	219.57
408.83	219.94
409.20	220.30
409.58	220.57
409.95	221.05
410.33	221.54
410.70	221.96
411.08	222.49
411.45	223.08
411.82	223.66
412.20	224.31
412.57	225.13
412.95	225.70
413.32	226.59
413.69	227.44
414.07	228.31
414.44	229.32
414.82	230.32
415.19	231.52
415.56	232.77
415.94	233.96
416.31	235.38
416.68	236.81
417.06	238.43
417.43	239.99
417.81	241.75
418.18	243.58
418.55	245.54
418.93	247.62
419.30	249.73
419.67	251.95
420.04	254.26
420.42	256.67
420.79	259.49
421.16	262.26
421.54	265.16
421.91	268.17
422.28	271.28
422.66	274.61
423.03	277.86
423.40	281.22
423.77	284.80
424.15	288.46
424.52	292.32
424.89	296.52
425.26	300.61
425.64	304.56
426.01	308.82
426.38	313.33
426.75	317.87
427.13	322.63
427.50	327.64
427.87	332.89
428.24	338.09
428.61	343.13
428.99	348.67
429.36	354.70
429.73	360.64
430.10	366.56
430.47	372.61
430.85	378.98
431.22	385.71
431.59	392.90
431.96	399.76
432.33	407.25
432.70	414.50
433.08	423.06
433.45	431.08
433.82	439.12
434.19	448.05
434.56	456.81
434.93	465.17
435.30	473.48
435.68	482.61
436.05	491.58
436.42	500.49
436.79	508.73
437.16	517.45
437.53	526.73
437.90	535.84
438.27	544.85
438.64	554.05
439.01	562.60
439.38	570.17
439.75	577.53
440.13	586.07
440.50	594.07
440.87	600.47
441.24	607.16
441.61	614.50
441.98	619.91
442.35	626.23
442.72	632.63
443.09	638.70
443.46	642.41
443.83	645.03
444.20	647.27
444.57	650.41
444.94	651.96
445.31	653.45
445.68	654.91
446.05	655.52
446.42	654.76
446.79	653.80
447.16	652.73
447.53	651.97
447.90	648.51
448.27	645.21
448.64	640.59
449.01	637.27
449.37	631.35
449.74	625.64
450.11	618.70
450.48	611.21
450.85	603.69
451.22	597.21
451.59	590.97
451.96	585.09
452.33	577.19
452.70	570.10
453.07	561.56
453.43	552.86
453.80	544.58
454.17	536.56
454.54	528.98
454.91	520.71
455.28	512.70
455.65	505.30
456.02	497.77
456.38	491.39
456.75	483.47
457.12	476.88
457.49	470.32
457.86	464.10
458.23	458.76
458.59	452.84
458.96	446.85
459.33	441.54
459.70	436.15
460.07	431.85
460.43	426.87
460.80	422.25
461.17	418.31
461.54	414.06
461.91	410.04
462.27	405.91
462.64	402.49
463.01	398.65
463.38	394.93
463.74	391.25
464.11	388.02
464.48	385.12
464.85	382.03
465.21	379.59
465.58	376.97
465.95	373.77
466.32	371.12
466.68	368.49
467.05	365.88
467.42	363.30
467.78	360.62
468.15	358.02
468.52	356.15
468.88	353.63
469.25	351.42
469.62	349.59
469.98	347.67
470.35	345.84
470.72	344.14
471.08	342.35
471.45	340.82
471.82	339.24
472.18	337.60
472.55	336.33
472.92	334.93
473.28	333.74
473.65	332.59
474.02	331.49
474.38	330.60
474.75	329.87
475.11	329.03
475.48	328.42
475.85	327.98
476.21	327.39
476.58	326.98
476.94	326.73
477.31	326.41
477.67	326.13
478.04	326.00
478.41	325.98
478.77	326.08
479.14	326.01
479.50	326.19
479.87	326.48
480.23	326.84
480.60	327.08
480.96	327.31
481.33	327.90
481.69	328.45
482.06	328.95
482.42	329.44
482.79	330.06
483.15	330.91
483.52	331.83
483.88	332.79
484.25	333.75
484.61	334.73
484.98	335.82
485.34	337.17
485.71	338.52
486.07	339.97
486.44	341.35
486.80	342.97
487.17	344.61
487.53	346.48
487.90	348.34
488.26	350.40
488.62	352.57
488.99	354.64
489.35	356.79
489.72	359.20
490.08	361.73
490.44	364.24
490.81	366.95
491.17	369.66
491.54	372.64
491.90	375.65
492.26	378.91
492.63	382.28
492.99	385.77
493.36	389.44
493.72	393.30
494.08	397.28
494.45	401.47
494.81	405.86
495.17	410.30
495.54	415.03
495.90	419.84
496.26	424.75
496.63	430.00
496.99	435.41
497.35	440.96
497.72	446.76
498.08	452.70
498.44	458.80
498.80	465.23
499.17	471.75
499.53	478.60
499.89	485.49
500.26	492.43
500.62	499.54
500.98	506.95
501.34	514.43
501.71	522.24
502.07	530.06
502.43	538.08
502.79	546.22
503.16	554.54
503.52	563.14
503.88	571.94
504.24	580.90
504.60	589.97
504.97	599.25
505.33	608.55
505.69	618.50
506.05	628.32
506.41	638.21
506.78	648.21
507.14	658.37
507.50	668.83
507.86	679.59
508.22	690.27
508.59	701.06
508.95	712.20
509.31	723.49
509.67	734.97
510.03	746.39
510.39	758.11
510.75	770.06
511.12	781.97
511.48	794.04
511.84	806.27
512.20	818.61
512.56	831.28
512.92	844.13
513.28	856.76
513.64	869.66
514.00	882.63
514.37	895.68
514.73	908.87
515.09	922.05
515.45	935.01
515.81	948.16
516.17	961.52
516.53	974.78
516.89	987.93
517.25	1001.17
517.61	1014.74
517.97	1028.26
518.33	1041.41
518.69	1055.00
519.05	1068.78
519.41	1082.46
519.77	1096.44
520.13	1109.78
520.49	1122.96
520.85	1136.49
521.21	1149.75
521.57	1163.41
521.93	1176.57
522.29	1190.36
522.65	1203.96
523.01	1217.59
523.37	1230.81
523.73	1244.17
524.09	1257.43
524.45	1270.94
524.81	1284.60
525.17	1298.08
525.53	1311.28
525.89	1324.74
526.25	1338.00
526.61	1351.07
526.97	1364.38
527.33	1377.37
527.68	1390.93
528.04	1404.53
528.40	1417.76
528.76	1431.27
529.12	1444.21
529.48	1457.56
529.84	1469.91
530.20	1482.84
530.56	1495.61
530.91	1508.98
531.27	1521.97
531.63	1534.70
531.99	1547.61
532.35	1559.91
532.71	1572.51
533.07	1585.53
533.42	1597.91
533.78	1610.11
534.14	1622.13
534.50	1633.41
534.86	1645.16
535.21	1656.15
535.57	1667.73
535.93	1679.06
536.29	1690.33
536.65	1701.92
537.00	1713.14
537.36	1724.63
537.72	1735.65
538.08	1747.19
538.44	1758.41
538.79	1769.60
539.15	1780.65
539.51	1791.46
539.87	1802.89
540.22	1813.55
540.58	1824.54
540.94	1835.45
541.29	1845.83
541.65	1855.65
542.01	1866.21
542.37	1876.33
542.72	1886.60
543.08	1896.55
543.44	1907.08
543.79	1916.47
544.15	1926.18
544.51	1936.17
544.87	1946.28
545.22	1955.68
545.58	1964.49
545.94	1973.29
546.29	1981.87
546.65	1990.46
547.01	1998.83
547.36	2006.60
547.72	2014.66
548.07	2022.34
548.43	2030.22
548.79	2038.22
549.14	2046.64
549.50	2055.13
549.86	2063.10
550.21	2070.52
550.57	2078.31
550.92	2085.19
551.28	2092.86
551.64	2100.09
551.99	2107.66
552.35	2114.63
552.70	2121.60
553.06	2128.49
553.41	2134.82
553.77	2141.50
554.13	2147.87
554.48	2154.93
554.84	2162.00
555.19	2168.54
555.55	2174.96
555.90	2181.26
556.26	2188.11
556.61	2194.22
556.97	2199.12
557.32	2204.96
557.68	2211.50
558.03	2217.23
558.39	2222.61
558.74	2228.51
559.10	2233.93
559.45	2239.50
559.81	2245.11
560.16	2250.48
560.52	2256.34
560.87	2262.82
561.23	2268.64
561.58	2275.23
561.94	2280.45
562.29	2285.05
562.64	2291.03
563.00	2296.73
563.35	2302.29
563.71	2308.06
564.06	2313.65
564.42	2319.64
564.77	2324.69
565.12	2329.86
565.48	2334.99
565.83	2340.50
566.19	2345.80
566.54	2351.27
566.89	2355.74
567.25	2360.24
567.60	2365.98
567.96	2371.07
568.31	2375.49
568.66	2379.77
569.02	2383.65
569.37	2387.32
569.72	2391.70
570.08	2395.09
570.43	2398.08
570.78	2401.19
571.14	2403.53
571.49	2406.58
571.84	2410.03
572.20	2412.93
572.55	2415.78
572.90	2417.92
573.26	2420.65
573.61	2422.97
573.96	2424.94
574.31	2426.88
574.67	2428.77
575.02	2429.54
575.37	2430.80
575.72	2431.52
576.08	2432.77
576.43	2432.71
576.78	2433.12
577.13	2434.82
577.49	2436.09
577.84	2437.04
578.19	2438.19
578.54	2438.62
578.90	2439.07
579.25	2438.69
579.60	2438.46
579.95	2437.71
580.30	2437.59
580.66	2436.81
581.01	2435.11
581.36	2432.55
581.71	2431.06
582.06	2429.81
582.42	2428.75
582.77	2426.33
583.12	2424.54
583.47	2423.11
583.82	2422.54
584.17	2421.04
584.53	2418.79
584.88	2416.45
585.23	2414.44
585.58	2411.91
585.93	2409.83
586.28	2407.53
586.63	2405.08
586.98	2402.67
587.34	2400.41
587.69	2397.97
588.04	2395.68
588.39	2394.06
588.74	2391.69
589.09	2388.89
589.44	2385.55
589.79	2382.72
590.14	2380.73
590.49	2377.80
590.84	2373.73
591.19	2370.32
591.54	2366.96
591.89	2362.56
592.25	2359.20
592.60	2354.91
592.95	2350.80
593.30	2346.44
593.65	2341.95
594.00	2337.34
594.35	2334.20
594.70	2329.42
595.05	2324.80
595.40	2319.28
595.75	2313.47
596.10	2309.69
596.45	2304.83
596.80	2300.33
597.15	2295.28
597.50	2289.33
597.85	2284.15
598.19	2278.87
598.54	2273.16
598.89	2267.90
599.24	2263.39
599.59	2257.21
599.94	2251.27
600.29	2245.25
600.64	2239.34
600.99	2232.49
601.34	2227.15
601.69	2220.16
602.04	2213.78
602.39	2207.00
602.74	2200.85
603.08	2195.34
603.43	2188.81
603.78	2181.87
604.13	2174.57
604.48	2167.27
604.83	2161.05
605.18	2154.99
605.53	2148.09
605.87	2140.94
606.22	2134.13
606.57	2126.20
606.92	2118.13
607.27	2111.33
607.62	2104.62
607.96	2097.59
608.31	2091.17
608.66	2083.26
609.01	2075.65
609.36	2068.48
609.70	2060.91
610.05	2053.01
610.40	2044.61
610.75	2036.21
611.10	2028.51
611.44	2019.66
611.79	2010.81
612.14	2001.01
612.49	1990.20
612.83	1980.88
613.18	1971.64
613.53	1962.30
613.88	1952.72
614.22	1944.00
614.57	1934.13
614.92	1923.49
615.27	1913.35
615.61	1903.20
615.96	1893.55
616.31	1883.92
616.65	1874.64
617.00	1864.87
617.35	1855.33
617.70	1845.61
618.04	1835.64
618.39	1825.41
618.74	1815.81
619.08	1806.28
619.43	1797.44
619.78	1789.32
620.12	1780.81
620.47	1771.19
620.82	1760.84
621.16	1750.99
621.51	1741.17
621.85	1731.22
622.20	1721.02
622.55	1710.44
622.89	1700.61
623.24	1690.85
623.59	1681.09
623.93	1670.90
624.28	1661.11
624.62	1651.06
624.97	1640.81
625.32	1631.02
625.66	1622.15
626.01	1613.36
626.35	1604.05
626.70	1594.00
627.04	1583.89
627.39	1573.71
627.73	1564.51
628.08	1555.60
628.43	1546.13
628.77	1536.90
629.12	1528.05
629.46	1520.22
629.81	1511.95
630.15	1502.39
630.50	1492.70
630.84	1482.23
631.19	1472.44
631.53	1463.10
631.88	1452.99
632.22	1443.07
632.57	1433.70
632.91	1423.68
633.26	1413.89
633.60	1404.24
633.95	1395.01
634.29	1385.52
634.64	1376.21
634.98	1366.23
635.32	1357.02
635.67	1348.53
636.01	1339.40
636.36	1329.66
636.70	1320.02
637.05	1310.61
637.39	1301.81
637.73	1293.18
638.08	1285.76
638.42	1277.56
638.77	1268.91
639.11	1260.61
639.45	1252.79
639.80	1244.38
640.14	1235.56
640.49	1226.76
640.83	1217.95
641.17	1209.86
641.52	1201.71
641.86	1193.16
642.20	1185.36
642.55	1176.79
642.89	1167.97
643.23	1159.34
643.58	1151.36
643.92	1142.45
644.26	1133.81
644.61	1125.30
644.95	1116.53
645.29	1107.24
645.64	1098.15
645.98	1089.62
646.32	1081.84
646.66	1073.32
647.01	1064.88
647.35	1056.87
647.69	1048.53
648.04	1040.29
648.38	1031.46
648.72	1022.70
649.06	1014.25
649.41	1006.04
649.75	998.04
650.09	990.23
650.43	982.16
650.78	973.76
651.12	966.05
651.46	958.56
651.80	951.36
652.14	944.05
652.49	936.56
652.83	929.22
653.17	921.51
653.51	913.73
653.85	906.50
654.20	899.32
654.54	891.74
654.88	884.44
655.22	877.18
655.56	870.14
655.90	863.37
656.25	856.72
656.59	849.87
656.93	842.84
657.27	835.58
657.61	828.62
657.95	822.51
658.29	816.46
658.64	810.45
658.98	803.98
659.32	797.40
659.66	791.12
660.00	784.77
660.34	778.70
660.68	772.63
661.02	766.30
661.36	760.27
661.70	754.53
662.05	748.97
662.39	743.58
662.73	738.16
663.07	732.78
663.41	727.11
663.75	721.37
664.09	715.67
664.43	710.25
664.77	704.91
665.11	699.11
665.45	693.26
665.79	687.38
666.13	681.70
666.47	676.21
666.81	670.72
667.15	665.22
667.49	659.95
667.83	654.65
668.17	649.37
668.51	644.24
668.85	639.25
669.19	634.28
669.53	629.17
669.87	624.01
670.21	619.19
670.55	614.46
670.89	609.99
671.23	605.63
671.57	601.26
671.91	596.92
672.25	592.75
672.58	588.61
672.92	584.50
673.26	580.49
673.60	576.55
673.94	572.77
674.28	569.16
674.62	565.39
674.96	561.63
675.30	558.06
675.64	554.37
675.97	550.76
676.31	547.12
676.65	543.50
676.99	540.07
677.33	536.21
677.67	532.57
678.01	528.69
678.34	525.01
678.68	521.44
679.02	517.81
679.36	514.09
679.70	510.39
680.04	506.78
680.37	503.34
680.71	500.03
681.05	496.76
681.39	493.47
681.73	490.34
682.06	487.27
682.40	484.21
682.74	480.99
683.08	477.77
683.42	474.52
683.75	471.47
684.09	468.36
684.43	465.50
684.77	462.49
685.10	459.60
685.44	456.68
685.78	453.68
686.12	450.87
686.45	448.08
686.79	445.43
687.13	442.87
687.46	440.18
687.80	437.49
688.14	434.63
688.48	431.96
688.81	429.19
689.15	426.60
689.49	423.89
689.82	421.29
690.16	418.66
690.50	416.18
690.83	413.66
691.17	411.11
691.51	408.58
691.84	406.29
692.18	404.02
692.52	401.79
692.85	399.67
693.19	397.50
693.52	395.35
693.86	393.08
694.20	390.84
694.53	388.65
694.87	386.41
695.21	384.27
695.54	382.08
695.88	379.91
696.21	377.64
696.55	375.52
696.88	373.45
697.22	371.43
697.56	369.53
697.89	367.58
698.23	365.81
698.56	364.03
698.90	362.23
699.23	360.33
699.57	358.46
699.90	356.56
700.24	354.70
700.58	352.88
700.91	351.18
701.25	349.59
701.58	348.00
701.92	346.33
702.25	344.70
702.59	343.08
702.92	341.52
703.26	339.98
703.59	338.46
703.93	337.19
704.26	335.74
704.60	334.23
704.93	332.74
705.26	331.22
705.60	329.71
705.93	328.15
706.27	326.80
706.60	325.48
706.94	324.27
707.27	322.86
707.61	321.51
707.94	320.15
708.27	318.63
708.61	317.16
708.94	315.81
709.28	314.52
709.61	313.26
709.94	312.02
710.28	310.79
710.61	309.56
710.95	308.10
711.28	306.96
711.61	305.70
711.95	304.53
712.28	303.32
712.61	302.11
712.95	301.06
713.28	300.00
713.61	298.83
713.95	297.64
714.28	296.61
714.61	295.55
714.95	294.47
715.28	293.44
715.61	292.40
715.95	291.39
716.28	290.40
716.61	289.44
716.95	288.44
717.28	287.47
717.61	286.50
717.94	285.61
718.28	284.61
718.61	283.76
718.94	282.87
719.27	281.98
719.61	281.15
719.94	280.25
720.27	279.26
720.60	278.41
720.94	277.57
721.27	276.83
721.60	276.12
721.93	275.42
722.27	274.75
722.60	274.09
722.93	273.39
723.26	272.67
723.59	271.96
723.93	271.30
724.26	270.64
724.59	269.98
724.92	269.37
725.25	268.82
725.59	268.22
725.92	267.66
726.25	267.10
726.58	266.53
726.91	265.91
727.24	265.38
727.57	264.79
727.91	264.14
728.24	263.54
728.57	262.92
728.90	262.33
729.23	261.72
729.56	261.26
729.89	260.73
730.22	260.17
730.55	259.58
730.89	258.99
731.22	258.42
731.55	257.93
731.88	257.38
732.21	256.76
732.54	256.20
732.87	255.67
733.20	255.16
733.53	254.67
733.86	254.27
734.19	253.76
734.52	253.34
734.85	253.09
735.18	252.62
735.51	252.24
735.84	251.84
736.17	251.44
736.50	250.87
736.83	250.71
737.16	250.31
737.49	249.94
737.82	249.56
738.15	249.24
738.48	248.81
738.81	248.42
739.14	248.01
739.47	247.63
739.80	247.25
740.13	246.88
740.46	246.46
740.79	246.03
741.12	245.69
741.45	245.29
741.78	244.82
742.11	244.57
742.44	244.20
742.77	243.87
743.10	243.50
743.43	243.12
743.75	242.55
744.08	242.48
744.41	242.14
744.74	241.78
745.07	241.38
745.40	241.08
745.73	240.81
746.06	240.51
746.39	240.23
746.71	239.89
747.04	239.56
747.37	239.25
747.70	238.98
748.03	238.69
748.36	238.42
748.68	238.09
749.01	237.70
749.34	237.38
749.67	237.10
750.00	236.86
750.33	236.78
750.65	236.49
750.98	235.97
751.31	235.73
751.64	235.50
751.97	235.35
752.29	235.08
752.62	234.74
752.95	234.49
753.28	234.20
753.60	233.95
753.93	233.77
754.26	233.54
754.59	233.24
754.91	232.98
755.24	232.73
755.57	232.54
755.90	232.30
756.22	232.08
756.55	231.84
756.88	231.56
757.20	231.20
757.53	230.95
757.86	230.74
758.19	230.52
758.51	230.32
758.84	230.02
759.17	229.81
759.49	229.66
759.82	229.55
760.15	229.39
760.47	229.21
760.80	228.95
761.13	228.80
761.45	228.63
761.78	228.42
762.11	228.22
762.43	228.00
762.76	227.80
763.08	227.66
763.41	227.50
763.74	227.38
764.06	227.21
764.39	227.03
764.71	226.83
765.04	226.64
765.37	226.49
765.69	226.35
766.02	226.20
766.34	226.03
766.67	225.82
767.00	225.72
767.32	225.70
767.65	225.68
767.97	225.54
768.30	225.42
768.62	225.28
768.95	225.14
769.27	225.02
769.60	224.92
769.92	224.77
770.25	224.60
770.57	224.42
770.90	224.29
771.22	224.18
771.55	224.10
771.87	224.03
772.20	223.89
772.52	223.93
772.85	224.06
773.17	223.94
773.50	223.82
773.82	223.68
774.15	223.47
774.47	223.25
774.80	223.12
775.12	223.04
775.45	222.94
775.77	222.85
776.09	222.79
776.42	222.69
776.74	222.68
777.07	222.58
777.39	222.50
777.72	222.39
778.04	222.36
778.36	222.23
778.69	222.14
779.01	222.08
779.33	221.83
779.66	221.52
779.98	221.43
780.31	221.37
780.63	221.38
780.95	221.33
781.28	221.22
781.60	221.14
781.92	221.07
782.25	221.05
782.57	220.97
782.89	220.90
783.22	220.85
783.54	220.76
783.86	220.71
784.19	220.64
784.51	220.66
784.83	220.54
785.16	220.48
785.48	220.42
785.80	220.36
786.12	220.31
786.45	220.26
786.77	220.21
787.09	220.12
787.42	219.98
787.74	219.91
788.06	219.87
788.38	219.81
788.71	219.71
789.03	219.64
789.35	219.63
789.67	219.52
789.99	219.45
790.32	219.33
790.64	219.30
790.96	219.41
791.28	219.27
791.61	219.22
791.93	219.21
792.25	219.13
792.57	219.24
792.89	219.15
793.21	219.10
793.54	219.04
793.86	218.99
794.18	218.96
794.50	218.90
794.82	218.85
795.14	218.82
795.47	218.79
795.79	218.77
796.11	218.69
796.43	218.64
796.75	218.60
797.07	218.56
797.39	218.48
797.71	218.28
798.04	218.26
798.36	218.26
798.68	218.18
799.00	218.19
799.32	217.98
799.64	218.00
799.96	217.96
800.28	217.98
800.60	217.94
800.92	217.90
801.24	217.83
801.56	217.84
801.89	217.77
802.21	217.76
802.53	217.68
802.85	217.69
803.17	217.79
803.49	217.71
803.81	217.68
804.13	217.65
804.45	217.65
804.77	217.64
805.09	217.60
805.41	217.56
805.73	217.46
806.05	217.42
806.37	217.39
806.69	217.35
807.01	217.30
807.33	217.28
807.65	217.19
807.97	217.26
808.28	217.18
808.60	217.16
808.92	217.12
809.24	217.22
809.56	217.16
809.88	217.03
810.20	217.05
810.52	217.07
810.84	217.00
811.16	216.94
811.48	216.88
811.80	216.90
812.12	216.89
812.43	216.93
812.75	216.91
813.07	216.83
813.39	216.82
813.71	216.78
814.03	216.74
814.35	216.73
814.67	216.63
814.98	216.61
815.30	216.60
815.62	216.56
815.94	216.41
816.26	216.36
816.58	216.32
816.89	216.33
817.21	216.25
817.53	216.27
817.85	216.24
818.17	216.24
818.48	216.14
818.80	216.17
819.12	216.11
819.44	216.09
819.76	216.09
820.07	216.07
820.39	216.04
820.71	216.03
821.03	216.06
821.34	216.05
821.66	216.07
821.98	216.08
822.30	216.04
822.61	216.13
822.93	216.11
823.25	216.09
823.57	216.03
823.88	216.08
824.20	216.07
824.52	216.08
824.83	216.02
825.15	215.98
825.47	215.98
825.79	215.94
826.10	215.92
826.42	215.88
826.74	215.90
827.05	215.84
827.37	215.85
827.69	215.79
828.00	215.76
828.32	215.71
828.64	215.65
828.95	215.74
829.27	215.63
829.58	215.62
829.90	215.66
830.22	215.65
830.53	215.57
830.85	215.52
831.17	215.46
831.48	215.45
831.80	215.50
832.11	215.45
832.43	215.42
832.75	215.40
833.06	215.51
833.38	215.42
833.69	215.43
834.01	215.41
834.32	215.43
834.64	215.40
834.96	215.40
835.27	215.40
835.59	215.33
835.90	215.29
836.22	215.31
836.53	215.24
836.85	215.22
837.16	215.47
837.48	215.48
837.79	215.52
838.11	215.55
838.42	215.52
838.74	215.54
839.05	215.51
839.37	215.50
839.68	215.35
840.00	215.34
840.31	215.37
840.63	215.31
840.94	215.27
841.26	215.28
841.57	215.28
841.88	215.29
842.20	215.24
842.51	215.29
842.83	215.26
843.14	215.43
843.46	215.45
843.77	215.29
844.08	215.28
844.40	215.23
844.71	215.20
845.03	215.14
845.34	215.10
845.65	215.11
845.97	215.09
846.28	215.09
846.60	215.11
846.91	215.07
847.22	215.06
847.54	215.10
847.85	215.10
848.16	215.06
848.48	215.01
848.79	215.10
849.10	215.05
849.42	215.06
849.73	214.85
850.04	214.82
850.36	214.72
850.67	214.72
850.98	214.73
851.30	214.74
851.61	214.76
851.92	214.77
852.23	214.82
852.55	214.83
852.86	214.84
853.17	214.84
853.49	214.86
853.80	214.91
854.11	214.89
854.42	214.93
854.74	214.91
855.05	214.96
855.36	214.80
855.67	214.80
855.99	214.81
856.30	215.09
856.61	215.08
856.92	215.12
857.23	215.11
857.55	215.09
857.86	215.07
858.17	215.10
858.48	215.04
858.79	215.00
859.11	215.02
859.42	215.01
859.73	214.99
860.04	214.97
860.35	214.89
860.66	214.82
860.98	214.80
861.29	214.84
861.60	214.80
861.91	214.89
862.22	214.87
862.53	214.84
862.84	214.57
863.16	214.62
863.47	214.55
863.78	214.54
864.09	214.59
864.40	214.62
864.71	214.63
865.02	214.68
865.33	214.67
865.64	214.65
865.95	214.63
866.27	214.79
866.58	214.77
866.89	214.81
867.20	214.80
867.51	214.79
867.82	214.74
868.13	214.78
868.44	214.75
868.75	214.77
869.06	214.77
869.37	214.76
869.68	214.68
869.99	214.69
870.30	214.73
870.61	214.71
870.92	214.63
871.23	214.62
871.54	214.64
871.85	214.71
872.16	214.68
872.47	214.69
872.78	214.55
873.09	214.58
873.40	214.53
873.71	214.56
874.02	214.55
874.33	214.54
874.64	214.50
874.95	214.53
875.26	214.52
875.56	214.51
875.87	214.55
876.18	214.55
876.49	214.79
876.80	214.75
877.11	214.71
877.42	214.71
877.73	214.69
878.04	214.60
878.35	214.55
878.66	214.58
878.96	214.57
879.27	214.56
879.58	214.56
879.89	214.61
880.20	214.67
880.51	214.65
880.82	214.70
881.12	214.73
881.43	214.68
881.74	214.65
882.05	214.62
882.36	214.62
882.67	214.66
882.97	214.44
883.28	214.43
883.59	214.43
883.90	214.49
884.21	214.54
884.51	214.57
884.82	214.59
885.13	214.59
885.44	214.61
885.74	214.61
886.05	214.61
886.36	214.58
886.67	214.50
886.98	214.59
887.28	214.56
887.59	214.57
887.90	214.59
888.20	214.60
888.51	214.64
888.82	214.61
889.13	214.60
889.43	214.76
889.74	214.75
890.05	214.77
890.35	214.71
890.66	214.67
890.97	214.64
891.28	214.61
891.58	214.59
891.89	214.55
892.20	214.54
892.50	214.49
892.81	214.49
893.12	214.51
893.42	214.43
893.73	214.47
894.04	214.43
894.34	214.41
894.65	214.38
894.95	214.36
895.26	214.38
895.57	214.43
895.87	214.25
896.18	214.28
896.48	214.27
896.79	214.28
897.10	214.31
897.40	214.32
897.71	214.34
898.01	214.31
898.32	214.36
898.63	214.32
898.93	214.36
899.24	214.35
899.54	214.32
899.85	214.31
900.15	214.28
900.46	214.29
900.76	214.33
901.07	214.35
901.38	214.32
901.68	214.35
901.99	214.29
902.29	214.31
902.60	214.27
902.90	214.27
903.21	214.27
903.51	214.25
903.82	214.27
904.12	214.27
904.43	214.33
904.73	214.30
905.03	214.32
905.34	214.49
905.64	214.48
905.95	214.50
906.25	214.53
906.56	214.53
906.86	214.55
907.17	214.51
907.47	214.51
907.77	214.50
908.08	214.44
908.38	214.46
908.69	214.45
908.99	214.50
909.30	214.51
909.60	214.49
909.90	214.48
910.21	214.43
910.51	214.38
910.81	214.36
911.12	214.36
911.42	214.36
911.73	214.17
912.03	214.20
912.33	214.25
912.64	214.22
912.94	214.19
913.24	214.12
913.55	214.13
913.85	214.13
914.15	214.18
914.46	214.18
914.76	214.15
915.06	214.15
915.37	214.11
915.67	214.08
915.97	214.11
916.27	214.06
916.58	214.09
916.88	214.09
917.18	214.08
917.49	214.22
917.79	214.22
918.09	214.23
918.39	214.30
918.70	214.26
919.00	214.25
919.30	214.39
919.60	214.38
919.91	214.40
920.21	214.40
920.51	214.35
920.81	214.36
921.12	214.39
921.42	214.40
921.72	214.40
922.02	214.40
922.32	214.43
922.63	214.46
922.93	214.57
923.23	214.58
923.53	214.57
923.83	214.44
924.13	214.47
924.44	214.48
924.74	214.51
925.04	214.56
925.34	214.59
925.64	214.49
925.94	214.50
926.24	214.58
926.55	214.55
926.85	214.60
927.15	214.61
927.45	214.59
927.75	214.59
928.05	214.61
928.35	214.62
928.65	214.66
928.95	214.67
929.26	214.58
929.56	214.60
929.86	214.62
930.16	214.63
930.46	214.60
930.76	214.57
931.06	214.46
931.36	214.40
931.66	214.40
931.96	214.40
932.26	214.42
932.56	214.30
932.86	214.31
933.16	214.30
933.46	214.27
933.76	214.25
934.06	214.28
934.36	214.35
934.66	214.33
934.96	214.26
935.26	214.29
935.56	214.31
935.86	214.25
936.16	214.22
936.46	214.20
936.76	214.17
937.06	214.15
937.36	214.16
937.66	214.17
937.96	214.19
938.26	214.18
938.56	214.11
938.86	214.17
939.16	214.20
939.46	214.22
939.76	214.24
940.06	214.23
940.35	214.18
940.65	214.05
940.95	214.06
941.25	214.02
941.55	213.97
941.85	213.94
942.15	214.00
942.45	214.04
942.75	214.00
943.04	214.05
943.34	214.09
943.64	214.06
943.94	214.02
944.24	213.97
944.54	213.94
944.84	213.95
945.13	213.89
945.43	213.86
945.73	213.84
946.03	213.78
946.33	213.76
946.62	213.76
946.92	213.78
947.22	213.76
947.52	213.81
947.82	213.82
948.11	213.82
948.41	213.77
948.71	213.70
949.01	213.72
949.31	213.67
949.60	213.65
949.90	213.68
950.20	213.70
950.50	213.70
950.79	213.68
951.09	213.71
951.39	213.70
951.69	213.67
951.98	213.72
952.28	213.76
952.58	213.76
952.87	213.74
953.17	213.77
953.47	213.80
953.76	213.81
954.06	213.83
954.36	213.80
954.66	213.81
954.95	213.91
955.25	213.88
955.55	213.89
955.84	213.87
956.14	213.91
956.44	213.92
956.73	213.93
957.03	213.98
957.32	213.98
957.62	214.02
957.92	214.09
958.21	214.08
958.51	214.33
958.81	214.38
959.10	214.40
959.40	214.45
959.69	214.45
959.99	214.44
960.29	214.43
960.58	214.42
960.88	214.49
961.17	214.45
961.47	214.49
961.76	214.46
962.06	214.50
962.36	214.50
962.65	214.49
962.95	214.47
963.24	214.47
963.54	214.48
963.83	214.48
964.13	214.44
964.42	214.38
964.72	214.23
965.01	214.22
965.31	214.19
965.60	214.15
965.90	214.29
966.19	214.28
966.49	214.27
966.78	214.30
967.08	214.29
967.37	214.29
967.67	214.26
967.96	214.32
968.26	214.29
968.55	214.28
968.85	214.28
969.14	214.28
969.43	214.25
969.73	214.23
970.02	214.25
970.32	214.23
970.61	214.20
970.91	214.11
971.20	214.02
971.49	214.04
971.79	214.05
972.08	213.89
972.38	213.89
972.67	213.87
972.96	213.88
973.26	213.82
973.55	213.88
973.85	213.87
974.14	213.85
974.43	213.87
974.73	213.84
975.02	213.81
975.31	213.81
975.61	213.82
975.90	213.81
976.19	213.71
976.49	213.72
976.78	213.76
977.07	213.75
977.37	213.81
977.66	213.81
977.95	213.78
978.24	213.79
978.54	213.83
978.83	213.82
979.12	213.83
979.42	213.81
979.71	213.77
980.00	213.76
980.29	213.77
980.59	213.75
980.88	213.82
981.17	213.84
981.46	213.84
981.76	213.85
982.05	213.93
982.34	214.02
982.63	214.05
982.93	214.06
983.22	214.13
983.51	214.15
983.80	214.17
984.09	214.20
984.39	214.18
984.68	214.17
984.97	214.19
985.26	214.17
985.55	214.23
985.85	214.19
986.14	214.21
986.43	214.24
986.72	214.23
987.01	214.14
987.30	214.10
987.59	214.13
987.89	214.14
988.18	214.08
988.47	214.04
988.76	214.04
989.05	214.00
989.34	213.97
989.63	214.00
989.92	213.96
990.22	213.94
990.51	213.94
990.80	213.91
991.09	213.94
991.38	213.96
991.67	213.92
991.96	213.91
992.25	213.95
992.54	213.92
992.83	213.92
993.12	213.96
993.41	214.01
993.70	214.08
993.99	214.12
994.28	214.14
994.58	214.15
994.87	214.12
995.16	214.14
995.45	214.14
995.74	214.10
996.03	214.14
996.32	214.16
996.61	214.23
996.90	214.25
997.19	214.21
997.48	214.23
997.77	214.23
998.06	214.25
998.34	214.23
998.63	214.22
998.92	214.22
999.21	214.21
999.50	214.21
999.79	214.12
1000.08	214.09
1000.37	214.08
1000.66	214.08
1000.95	214.13
1001.24	214.13
1001.53	214.15
1001.82	214.12
1002.11	214.03
1002.40	214.05
1002.68	214.09
1002.97	214.23
1003.26	214.24
1003.55	214.21
1003.84	214.25
1004.13	214.31
1004.42	214.28
1004.71	214.26
1004.99	214.26
1005.28	214.31
1005.57	214.30
1005.86	214.28
1006.15	214.26
1006.44	214.24
1006.72	214.25
1007.01	214.22
1007.30	214.20
1007.59	214.18
1007.88	214.19
1008.17	214.25
1008.45	214.19
1008.74	214.09
1009.03	213.94
1009.32	213.95
1009.60	213.92
1009.89	213.86
1010.18	213.79
1010.47	213.78
1010.76	213.79
1011.04	213.82
1011.33	213.84
1011.62	213.86
1011.91	213.87
1012.19	213.87
1012.48	213.88
1012.77	213.87
1013.05	213.96
1013.34	213.97
1013.63	213.94
1013.92	213.93
1014.20	213.91
1014.49	213.91
1014.78	213.92
1015.06	213.87
1015.35	213.87
1015.64	213.90
1015.92	213.94
1016.21	213.95
1016.50	213.97
1016.78	214.02
1017.07	214.01
1017.36	213.95
1017.64	213.93
1017.93	213.98
1018.22	213.97
1018.50	213.98
1018.79	213.99
1019.08	213.88
1019.36	213.92
1019.65	213.95
1019.93	214.03
1020.22	214.06
1020.51	214.17
1020.79	214.16
1021.08	213.69
1021.36	213.77
1021.65	214.35
1021.94	213.60
1022.22	214.38
1022.51	214.22
1022.79	215.19
1023.08	214.01
1023.36	216.37
1023.65	213.63
>>>>>End Processed Spectral Data<<<<<
