SpectraSuite Data File
++++++++++++++++++++++++++++++++++++
Date: Tue Jan 29 16:02:14 EST 2013
User: group
Dark Spectrum Present: No
Reference Spectrum Present: No
Number of Sampled Component Spectra: 1
Spectrometers: USB2E7196
Integration Time (usec): 65000 (USB2E7196)
Spectra Averaged: 100 (USB2E7196)
Boxcar Smoothing: 10 (USB2E7196)
Correct for Electrical Dark: No (USB2E7196)
Strobe/Lamp Enabled: No (USB2E7196)
Correct for Detector Non-linearity: No (USB2E7196)
Correct for Stray Light: No (USB2E7196)
Number of Pixels in Processed Spectrum: 2048
>>>>>Begin Processed Spectral Data<<<<<
339.09	0.00
339.48	202.51
339.86	204.11
340.24	205.80
340.63	206.54
341.01	211.18
341.39	209.69
341.78	211.08
342.16	212.17
342.54	213.30
342.93	201.88
343.31	212.09
343.69	212.68
344.07	213.15
344.46	213.61
344.84	214.07
345.22	214.23
345.60	214.51
345.99	214.72
346.37	214.89
346.75	214.99
347.13	215.11
347.52	215.18
347.90	215.31
348.28	215.41
348.66	215.51
349.05	215.51
349.43	215.57
349.81	215.62
350.19	215.67
350.57	215.76
350.96	215.84
351.34	215.94
351.72	216.01
352.10	216.14
352.48	216.19
352.87	216.22
353.25	216.33
353.63	216.37
354.01	216.43
354.39	216.51
354.77	216.61
355.15	216.74
355.54	216.78
355.92	216.81
356.30	216.87
356.68	217.03
357.06	217.11
357.44	217.13
357.82	217.19
358.20	217.28
358.58	217.34
358.97	217.42
359.35	217.53
359.73	217.63
360.11	217.69
360.49	217.75
360.87	217.79
361.25	217.85
361.63	217.97
362.01	218.06
362.39	218.06
362.77	218.08
363.15	218.11
363.53	218.17
363.91	218.15
364.29	218.16
364.67	218.00
365.05	218.02
365.43	218.07
365.81	218.08
366.19	218.17
366.57	218.24
366.95	218.21
367.33	218.13
367.71	218.10
368.09	218.13
368.47	218.10
368.85	218.08
369.23	218.06
369.61	217.98
369.99	217.98
370.37	217.99
370.75	218.06
371.13	218.01
371.51	217.95
371.89	217.98
372.27	217.98
372.65	217.97
373.03	217.93
373.41	217.89
373.78	217.90
374.16	217.75
374.54	217.64
374.92	217.64
375.30	217.61
375.68	217.53
376.06	217.46
376.44	217.40
376.82	217.37
377.19	217.37
377.57	217.28
377.95	217.19
378.33	217.13
378.71	216.96
379.09	216.94
379.47	216.90
379.84	216.83
380.22	216.76
380.60	216.65
380.98	216.63
381.36	216.59
381.73	216.52
382.11	216.52
382.49	216.48
382.87	216.39
383.25	216.36
383.62	216.60
384.00	216.53
384.38	216.51
384.76	216.54
385.13	216.57
385.51	216.57
385.89	216.51
386.27	216.49
386.64	216.49
387.02	216.42
387.40	216.38
387.78	216.37
388.15	216.35
388.53	216.35
388.91	216.33
389.29	216.25
389.66	216.27
390.04	216.22
390.42	216.25
390.79	216.28
391.17	216.26
391.55	216.01
391.92	216.00
392.30	216.05
392.68	215.97
393.05	215.92
393.43	215.90
393.81	215.93
394.18	215.90
394.56	215.89
394.94	215.95
395.31	215.95
395.69	215.99
396.06	216.00
396.44	216.04
396.82	216.03
397.19	216.19
397.57	216.16
397.95	216.22
398.32	216.15
398.70	216.17
399.07	216.24
399.45	216.27
399.82	216.33
400.20	216.35
400.58	216.43
400.95	216.43
401.33	216.56
401.70	216.78
402.08	216.87
402.45	216.96
402.83	217.07
403.20	217.21
403.58	217.29
403.95	217.48
404.33	217.60
404.71	217.74
405.08	217.95
405.46	218.14
405.83	218.31
406.21	218.52
406.58	218.76
406.96	218.98
407.33	219.29
407.70	219.59
408.08	220.03
408.45	220.36
408.83	220.72
409.20	221.07
409.58	221.32
409.95	221.80
410.33	222.28
410.70	222.67
411.08	223.18
411.45	223.74
411.82	224.27
412.20	224.99
412.57	225.79
412.95	226.37
413.32	227.18
413.69	228.00
414.07	228.91
414.44	229.84
414.82	230.81
415.19	231.92
415.56	233.04
415.94	234.15
416.31	235.51
416.68	236.89
417.06	238.39
417.43	239.88
417.81	241.51
418.18	243.24
418.55	245.14
418.93	247.15
419.30	249.19
419.67	251.36
420.04	253.50
420.42	255.78
420.79	258.51
421.16	261.19
421.54	264.01
421.91	266.90
422.28	269.93
422.66	273.08
423.03	276.20
423.40	279.42
423.77	282.89
424.15	286.38
424.52	290.04
424.89	294.07
425.26	298.02
425.64	301.79
426.01	305.89
426.38	310.18
426.75	314.51
427.13	319.12
427.50	323.90
427.87	328.95
428.24	333.98
428.61	338.76
428.99	344.12
429.36	349.90
429.73	355.58
430.10	361.17
430.47	367.06
430.85	373.13
431.22	379.65
431.59	386.53
431.96	393.14
432.33	400.44
432.70	407.45
433.08	415.67
433.45	423.49
433.82	431.25
434.19	439.90
434.56	448.32
434.93	456.31
435.30	464.30
435.68	473.09
436.05	481.73
436.42	490.27
436.79	498.09
437.16	506.52
437.53	515.46
437.90	524.33
438.27	532.93
438.64	541.83
439.01	550.03
439.38	557.39
439.75	564.50
440.13	572.63
440.50	580.31
440.87	586.48
441.24	592.86
441.61	599.91
441.98	604.97
442.35	611.00
442.72	617.10
443.09	622.90
443.46	626.51
443.83	628.94
444.20	631.08
444.57	634.06
444.94	635.49
445.31	636.81
445.68	638.08
446.05	638.70
446.42	637.95
446.79	636.98
447.16	635.82
447.53	635.04
447.90	631.75
448.27	628.50
448.64	623.97
449.01	620.77
449.37	615.08
449.74	609.67
450.11	603.01
450.48	595.85
450.85	588.65
451.22	582.32
451.59	576.36
451.96	570.72
452.33	563.19
452.70	556.32
453.07	548.18
453.43	539.93
453.80	531.85
454.17	524.06
454.54	516.79
454.91	508.96
455.28	501.25
455.65	494.16
456.02	487.02
456.38	480.98
456.75	473.40
457.12	467.10
457.49	460.86
457.86	455.01
458.23	449.84
458.59	444.22
458.96	438.48
459.33	433.44
459.70	428.36
460.07	424.27
460.43	419.58
460.80	415.13
461.17	411.31
461.54	407.35
461.91	403.54
462.27	399.60
462.64	396.32
463.01	392.69
463.38	389.10
463.74	385.52
464.11	382.39
464.48	379.67
464.85	376.67
465.21	374.26
465.58	371.65
465.95	368.63
466.32	366.07
466.68	363.61
467.05	361.14
467.42	358.62
467.78	356.05
468.15	353.63
468.52	351.86
468.88	349.48
469.25	347.39
469.62	345.68
469.98	343.88
470.35	342.21
470.72	340.60
471.08	338.88
471.45	337.47
471.82	335.99
472.18	334.41
472.55	333.28
472.92	332.01
473.28	330.90
473.65	329.86
474.02	328.82
474.38	327.96
474.75	327.25
475.11	326.47
475.48	325.93
475.85	325.48
476.21	325.04
476.58	324.70
476.94	324.49
477.31	324.26
477.67	324.03
478.04	323.85
478.41	323.88
478.77	324.04
479.14	324.00
479.50	324.16
479.87	324.44
480.23	324.78
480.60	325.05
480.96	325.34
481.33	325.94
481.69	326.49
482.06	327.06
482.42	327.51
482.79	328.14
483.15	328.93
483.52	329.89
483.88	330.79
484.25	331.75
484.61	332.75
484.98	333.81
485.34	335.13
485.71	336.53
486.07	337.92
486.44	339.29
486.80	340.96
487.17	342.65
487.53	344.49
487.90	346.35
488.26	348.39
488.62	350.56
488.99	352.62
489.35	354.79
489.72	357.10
490.08	359.66
490.44	362.24
490.81	364.98
491.17	367.69
491.54	370.62
491.90	373.66
492.26	376.91
492.63	380.28
492.99	383.77
493.36	387.43
493.72	391.31
494.08	395.32
494.45	399.49
494.81	403.84
495.17	408.27
495.54	412.97
495.90	417.70
496.26	422.65
496.63	427.84
496.99	433.19
497.35	438.81
497.72	444.62
498.08	450.52
498.44	456.56
498.80	462.91
499.17	469.47
499.53	476.19
499.89	483.04
500.26	490.02
500.62	497.03
500.98	504.35
501.34	511.81
501.71	519.51
502.07	527.24
502.43	535.25
502.79	543.39
503.16	551.77
503.52	560.40
503.88	569.02
504.24	577.94
504.60	587.02
504.97	596.23
505.33	605.49
505.69	615.28
506.05	625.13
506.41	635.00
506.78	644.90
507.14	655.10
507.50	665.51
507.86	676.13
508.22	686.85
508.59	697.48
508.95	708.52
509.31	719.78
509.67	731.30
510.03	742.71
510.39	754.43
510.75	766.27
511.12	778.15
511.48	790.27
511.84	802.50
512.20	814.78
512.56	827.34
512.92	839.96
513.28	852.53
513.64	865.22
514.00	877.92
514.37	890.89
514.73	903.93
515.09	916.78
515.45	929.57
515.81	942.45
516.17	955.68
516.53	968.73
516.89	981.69
517.25	994.68
517.61	1007.93
517.97	1021.11
518.33	1034.06
518.69	1047.43
519.05	1060.96
519.41	1074.38
519.77	1088.05
520.13	1101.23
520.49	1114.28
520.85	1127.61
521.21	1140.73
521.57	1154.30
521.93	1167.13
522.29	1180.69
522.65	1194.14
523.01	1207.48
523.37	1220.54
523.73	1233.65
524.09	1246.52
524.45	1259.72
524.81	1272.90
525.17	1286.11
525.53	1299.01
525.89	1312.03
526.25	1324.86
526.61	1337.43
526.97	1350.16
527.33	1362.79
527.68	1375.90
528.04	1389.05
528.40	1401.75
528.76	1414.82
529.12	1427.32
529.48	1440.44
529.84	1452.38
530.20	1464.92
530.56	1477.25
530.91	1490.29
531.27	1502.90
531.63	1515.50
531.99	1527.98
532.35	1539.91
532.71	1552.00
533.07	1564.47
533.42	1576.37
533.78	1588.10
534.14	1599.95
534.50	1610.90
534.86	1622.19
535.21	1632.78
535.57	1643.99
535.93	1655.11
536.29	1665.87
536.65	1677.04
537.00	1687.62
537.36	1698.59
537.72	1709.25
538.08	1720.47
538.44	1731.03
538.79	1741.72
539.15	1752.19
539.51	1762.61
539.87	1773.73
540.22	1784.19
540.58	1794.88
540.94	1805.46
541.29	1815.50
541.65	1825.00
542.01	1835.39
542.37	1845.26
542.72	1855.29
543.08	1864.77
543.44	1874.87
543.79	1883.91
544.15	1893.12
544.51	1902.93
544.87	1912.51
545.22	1921.26
545.58	1929.81
545.94	1938.34
546.29	1946.64
546.65	1954.77
547.01	1962.73
547.36	1970.07
547.72	1977.43
548.07	1984.99
548.43	1992.52
548.79	2000.17
549.14	2007.99
549.50	2016.01
549.86	2023.51
550.21	2030.62
550.57	2038.11
550.92	2044.64
551.28	2051.85
551.64	2058.89
551.99	2066.10
552.35	2073.21
552.70	2080.03
553.06	2086.53
553.41	2092.65
553.77	2098.94
554.13	2105.26
554.48	2112.16
554.84	2119.18
555.19	2125.59
555.55	2131.84
555.90	2138.01
556.26	2144.65
556.61	2150.38
556.97	2155.20
557.32	2161.09
557.68	2167.41
558.03	2173.01
558.39	2178.18
558.74	2184.16
559.10	2189.68
559.45	2195.13
559.81	2200.62
560.16	2206.20
560.52	2212.02
560.87	2218.47
561.23	2224.60
561.58	2231.17
561.94	2236.24
562.29	2241.02
562.64	2247.37
563.00	2252.84
563.35	2258.48
563.71	2264.27
564.06	2270.01
564.42	2275.93
564.77	2281.04
565.12	2286.12
565.48	2291.48
565.83	2297.26
566.19	2302.98
566.54	2308.46
566.89	2313.20
567.25	2317.76
567.60	2323.37
567.96	2328.63
568.31	2333.25
568.66	2337.32
569.02	2341.15
569.37	2344.96
569.72	2349.39
570.08	2352.91
570.43	2356.01
570.78	2359.13
571.14	2361.81
571.49	2365.03
571.84	2368.63
572.20	2371.34
572.55	2374.68
572.90	2377.08
573.26	2380.01
573.61	2382.26
573.96	2384.54
574.31	2386.59
574.67	2388.68
575.02	2389.75
575.37	2391.20
575.72	2392.27
576.08	2393.97
576.43	2394.55
576.78	2395.59
577.13	2397.43
577.49	2398.74
577.84	2400.52
578.19	2402.10
578.54	2402.96
578.90	2404.27
579.25	2404.37
579.60	2404.90
579.95	2404.37
580.30	2404.72
580.66	2404.19
581.01	2402.84
581.36	2400.85
581.71	2399.82
582.06	2398.96
582.42	2398.35
582.77	2396.42
583.12	2394.92
583.47	2393.79
583.82	2393.31
584.17	2392.13
584.53	2390.17
584.88	2388.44
585.23	2386.42
585.58	2384.39
585.93	2382.47
586.28	2380.45
586.63	2378.43
586.98	2376.25
587.34	2374.52
587.69	2372.41
588.04	2370.72
588.39	2369.40
588.74	2367.09
589.09	2364.67
589.44	2361.90
589.79	2359.66
590.14	2357.90
590.49	2355.18
590.84	2351.65
591.19	2348.93
591.54	2345.75
591.89	2341.85
592.25	2338.74
592.60	2334.78
592.95	2330.85
593.30	2326.76
593.65	2322.37
594.00	2318.09
594.35	2315.18
594.70	2310.58
595.05	2305.85
595.40	2300.51
595.75	2295.19
596.10	2291.49
596.45	2286.64
596.80	2282.22
597.15	2276.99
597.50	2271.20
597.85	2266.44
598.19	2261.37
598.54	2255.55
598.89	2250.80
599.24	2246.48
599.59	2240.34
599.94	2234.84
600.29	2229.10
600.64	2223.43
600.99	2216.92
601.34	2211.53
601.69	2204.73
602.04	2198.45
602.39	2192.14
602.74	2186.03
603.08	2180.57
603.43	2174.37
603.78	2167.71
604.13	2160.58
604.48	2153.53
604.83	2147.67
605.18	2141.53
605.53	2134.52
605.87	2127.71
606.22	2120.84
606.57	2112.91
606.92	2105.17
607.27	2098.20
607.62	2091.54
607.96	2084.60
608.31	2078.03
608.66	2070.26
609.01	2062.69
609.36	2055.62
609.70	2048.05
610.05	2040.37
610.40	2032.00
610.75	2023.71
611.10	2016.11
611.44	2007.37
611.79	1998.70
612.14	1988.69
612.49	1978.32
612.83	1969.36
613.18	1960.19
613.53	1950.78
613.88	1941.33
614.22	1932.76
614.57	1922.87
614.92	1912.33
615.27	1902.32
615.61	1892.44
615.96	1882.84
616.31	1873.34
616.65	1864.11
617.00	1854.14
617.35	1844.64
617.70	1834.96
618.04	1824.82
618.39	1814.43
618.74	1804.67
619.08	1795.08
619.43	1786.48
619.78	1778.21
620.12	1769.33
620.47	1759.47
620.82	1749.23
621.16	1739.43
621.51	1729.40
621.85	1719.42
622.20	1708.97
622.55	1698.28
622.89	1688.43
623.24	1678.82
623.59	1669.10
623.93	1658.86
624.28	1649.30
624.62	1639.00
624.97	1628.66
625.32	1619.05
625.66	1610.43
626.01	1601.56
626.35	1592.01
626.70	1581.79
627.04	1571.44
627.39	1561.40
627.73	1552.17
628.08	1543.03
628.43	1533.36
628.77	1524.20
629.12	1515.39
629.46	1507.50
629.81	1499.05
630.15	1489.36
630.50	1479.38
630.84	1468.88
631.19	1459.00
631.53	1449.34
631.88	1439.16
632.22	1429.21
632.57	1419.83
632.91	1409.56
633.26	1399.78
633.60	1390.22
633.95	1380.85
634.29	1371.55
634.64	1362.06
634.98	1352.22
635.32	1343.03
635.67	1334.43
636.01	1325.13
636.36	1315.30
636.70	1305.74
637.05	1296.41
637.39	1287.42
637.73	1278.76
638.08	1271.13
638.42	1262.69
638.77	1254.01
639.11	1245.81
639.45	1237.91
639.80	1229.19
640.14	1220.48
640.49	1211.55
640.83	1202.77
641.17	1194.71
641.52	1186.39
641.86	1177.81
642.20	1169.84
642.55	1161.17
642.89	1152.44
643.23	1143.68
643.58	1135.59
643.92	1126.58
644.26	1117.90
644.61	1109.36
644.95	1100.68
645.29	1091.35
645.64	1082.28
645.98	1073.95
646.32	1065.94
646.66	1057.37
647.01	1048.92
647.35	1040.78
647.69	1032.31
648.04	1023.98
648.38	1015.00
648.72	1006.14
649.06	997.68
649.41	989.46
649.75	981.46
650.09	973.43
650.43	965.36
650.78	957.13
651.12	949.49
651.46	942.13
651.80	934.89
652.14	927.55
652.49	920.05
652.83	912.77
653.17	904.98
653.51	897.30
653.85	890.10
654.20	882.89
654.54	875.29
654.88	868.27
655.22	861.12
655.56	854.16
655.90	847.51
656.25	840.92
656.59	833.96
656.93	826.95
657.27	819.90
657.61	813.13
657.95	807.03
658.29	801.21
658.64	795.03
658.98	788.75
659.32	782.17
659.66	776.00
660.00	769.63
660.34	763.66
660.68	757.70
661.02	751.47
661.36	745.61
661.70	739.85
662.05	734.19
662.39	728.79
662.73	723.45
663.07	718.06
663.41	712.58
663.75	707.00
664.09	701.43
664.43	696.14
664.77	690.82
665.11	685.04
665.45	679.09
665.79	673.32
666.13	667.62
666.47	662.26
666.81	656.83
667.15	651.64
667.49	646.46
667.83	641.25
668.17	636.04
668.51	630.95
668.85	626.14
669.19	621.32
669.53	616.37
669.87	611.34
670.21	606.59
670.55	601.87
670.89	597.53
671.23	593.33
671.57	588.93
671.91	584.63
672.25	580.61
672.58	576.56
672.92	572.55
673.26	568.65
673.60	564.80
673.94	561.06
674.28	557.43
674.62	553.67
674.96	549.98
675.30	546.45
675.64	542.91
675.97	539.40
676.31	535.84
676.65	532.20
676.99	528.78
677.33	525.05
677.67	521.41
678.01	517.55
678.34	513.87
678.68	510.44
679.02	506.87
679.36	503.16
679.70	499.56
680.04	496.12
680.37	492.77
680.71	489.51
681.05	486.35
681.39	483.16
681.73	480.08
682.06	477.08
682.40	474.06
682.74	470.85
683.08	467.70
683.42	464.61
683.75	461.76
684.09	458.84
684.43	456.08
684.77	453.21
685.10	450.46
685.44	447.56
685.78	444.65
686.12	441.97
686.45	439.33
686.79	436.70
687.13	434.16
687.46	431.51
687.80	428.89
688.14	426.09
688.48	423.50
688.81	420.92
689.15	418.38
689.49	415.84
689.82	413.35
690.16	410.80
690.50	408.32
690.83	405.81
691.17	403.30
691.51	400.92
691.84	398.75
692.18	396.56
692.52	394.46
692.85	392.38
693.19	390.30
693.52	388.15
693.86	386.00
694.20	383.88
694.53	381.82
694.87	379.63
695.21	377.62
695.54	375.51
695.88	373.35
696.21	371.20
696.55	369.17
696.88	367.17
697.22	365.24
697.56	363.41
697.89	361.58
698.23	359.89
698.56	358.10
698.90	356.33
699.23	354.47
699.57	352.65
699.90	350.86
700.24	349.08
700.58	347.34
700.91	345.77
701.25	344.21
701.58	342.66
701.92	341.12
702.25	339.49
702.59	337.90
702.92	336.43
703.26	334.92
703.59	333.49
703.93	332.28
704.26	330.91
704.60	329.40
704.93	327.95
705.26	326.44
705.60	324.99
705.93	323.56
706.27	322.24
706.60	321.01
706.94	319.75
707.27	318.35
707.61	317.08
707.94	315.71
708.27	314.27
708.61	312.82
708.94	311.49
709.28	310.29
709.61	309.06
709.94	307.91
710.28	306.72
710.61	305.55
710.95	304.20
711.28	303.11
711.61	301.98
711.95	300.87
712.28	299.72
712.61	298.59
712.95	297.54
713.28	296.54
713.61	295.39
713.95	294.31
714.28	293.34
714.61	292.33
714.95	291.36
715.28	290.37
715.61	289.41
715.95	288.48
716.28	287.54
716.61	286.61
716.95	285.62
717.28	284.73
717.61	283.81
717.94	282.90
718.28	281.88
718.61	281.03
718.94	280.16
719.27	279.36
719.61	278.57
719.94	277.72
720.27	276.80
720.60	276.01
720.94	275.25
721.27	274.54
721.60	273.87
721.93	273.18
722.27	272.55
722.60	271.92
722.93	271.22
723.26	270.57
723.59	269.94
723.93	269.36
724.26	268.72
724.59	268.09
724.92	267.53
725.25	267.01
725.59	266.45
725.92	265.95
726.25	265.39
726.58	264.83
726.91	264.27
727.24	263.71
727.57	263.18
727.91	262.58
728.24	261.99
728.57	261.37
728.90	260.83
729.23	260.22
729.56	259.77
729.89	259.25
730.22	258.71
730.55	258.13
730.89	257.63
731.22	257.15
731.55	256.64
731.88	256.12
732.21	255.60
732.54	255.08
732.87	254.56
733.20	254.08
733.53	253.60
733.86	253.18
734.19	252.72
734.52	252.31
734.85	252.00
735.18	251.55
735.51	251.25
735.84	250.83
736.17	250.45
736.50	249.97
736.83	249.81
737.16	249.46
737.49	249.13
737.82	248.69
738.15	248.34
738.48	247.95
738.81	247.55
739.14	247.16
739.47	246.80
739.80	246.44
740.13	246.12
740.46	245.79
740.79	245.43
741.12	245.09
741.45	244.75
741.78	244.31
742.11	244.07
742.44	243.66
742.77	243.37
743.10	243.05
743.43	242.72
743.75	242.19
744.08	242.14
744.41	241.77
744.74	241.44
745.07	241.05
745.40	240.80
745.73	240.60
746.06	240.30
746.39	240.01
746.71	239.65
747.04	239.29
747.37	238.96
747.70	238.65
748.03	238.38
748.36	238.09
748.68	237.85
749.01	237.51
749.34	237.24
749.67	236.97
750.00	236.70
750.33	236.56
750.65	236.30
750.98	235.78
751.31	235.56
751.64	235.34
751.97	235.22
752.29	234.96
752.62	234.62
752.95	234.36
753.28	234.12
753.60	233.94
753.93	233.79
754.26	233.60
754.59	233.34
754.91	233.10
755.24	232.86
755.57	232.63
755.90	232.40
756.22	232.17
756.55	231.92
756.88	231.67
757.20	231.34
757.53	231.10
757.86	230.93
758.19	230.72
758.51	230.55
758.84	230.26
759.17	230.04
759.49	229.88
759.82	229.84
760.15	229.70
760.47	229.50
760.80	229.26
761.13	229.09
761.45	228.90
761.78	228.74
762.11	228.60
762.43	228.40
762.76	228.26
763.08	228.12
763.41	227.97
763.74	227.85
764.06	227.71
764.39	227.54
764.71	227.36
765.04	227.19
765.37	227.04
765.69	226.87
766.02	226.76
766.34	226.58
766.67	226.31
767.00	226.18
767.32	226.17
767.65	226.18
767.97	226.02
768.30	225.94
768.62	225.81
768.95	225.64
769.27	225.51
769.60	225.41
769.92	225.28
770.25	225.12
770.57	224.94
770.90	224.82
771.22	224.72
771.55	224.62
771.87	224.54
772.20	224.40
772.52	224.51
772.85	224.61
773.17	224.53
773.50	224.44
773.82	224.31
774.15	224.09
774.47	223.87
774.80	223.76
775.12	223.68
775.45	223.59
775.77	223.52
776.09	223.45
776.42	223.34
776.74	223.30
777.07	223.22
777.39	223.16
777.72	223.07
778.04	223.00
778.36	222.87
778.69	222.77
779.01	222.73
779.33	222.45
779.66	222.14
779.98	222.03
780.31	221.98
780.63	221.98
780.95	221.96
781.28	221.86
781.60	221.77
781.92	221.70
782.25	221.64
782.57	221.56
782.89	221.49
783.22	221.39
783.54	221.27
783.86	221.22
784.19	221.14
784.51	221.11
784.83	221.05
785.16	221.01
785.48	220.97
785.80	220.91
786.12	220.87
786.45	220.83
786.77	220.80
787.09	220.70
787.42	220.57
787.74	220.49
788.06	220.44
788.38	220.38
788.71	220.26
789.03	220.19
789.35	220.20
789.67	220.10
789.99	220.06
790.32	219.98
790.64	219.94
790.96	220.05
791.28	219.93
791.61	219.86
791.93	219.79
792.25	219.72
792.57	219.81
792.89	219.71
793.21	219.68
793.54	219.64
793.86	219.57
794.18	219.55
794.50	219.48
794.82	219.44
795.14	219.42
795.47	219.43
795.79	219.39
796.11	219.24
796.43	219.19
796.75	219.13
797.07	219.09
797.39	219.04
797.71	218.88
798.04	218.90
798.36	218.88
798.68	218.88
799.00	218.86
799.32	218.70
799.64	218.72
799.96	218.66
800.28	218.64
800.60	218.64
800.92	218.62
801.24	218.56
801.56	218.56
801.89	218.51
802.21	218.49
802.53	218.40
802.85	218.46
803.17	218.56
803.49	218.49
803.81	218.48
804.13	218.43
804.45	218.37
804.77	218.32
805.09	218.29
805.41	218.22
805.73	218.17
806.05	218.09
806.37	218.02
806.69	217.98
807.01	217.95
807.33	217.90
807.65	217.79
807.97	217.84
808.28	217.81
808.60	217.76
808.92	217.72
809.24	217.84
809.56	217.78
809.88	217.68
810.20	217.70
810.52	217.73
810.84	217.68
811.16	217.63
811.48	217.58
811.80	217.65
812.12	217.59
812.43	217.59
812.75	217.60
813.07	217.61
813.39	217.60
813.71	217.55
814.03	217.53
814.35	217.54
814.67	217.47
814.98	217.40
815.30	217.42
815.62	217.38
815.94	217.23
816.26	217.22
816.58	217.15
816.89	217.15
817.21	217.07
817.53	217.09
817.85	217.12
818.17	217.11
818.48	217.02
818.80	217.08
819.12	217.03
819.44	216.96
819.76	216.92
820.07	216.92
820.39	216.91
820.71	216.91
821.03	216.92
821.34	216.90
821.66	216.90
821.98	216.91
822.30	216.90
822.61	217.01
822.93	216.95
823.25	216.95
823.57	216.92
823.88	216.96
824.20	216.92
824.52	216.88
824.83	216.86
825.15	216.82
825.47	216.81
825.79	216.84
826.10	216.83
826.42	216.78
826.74	216.82
827.05	216.80
827.37	216.80
827.69	216.74
828.00	216.71
828.32	216.74
828.64	216.66
828.95	216.74
829.27	216.66
829.58	216.65
829.90	216.69
830.22	216.66
830.53	216.57
830.85	216.52
831.17	216.50
831.48	216.48
831.80	216.48
832.11	216.45
832.43	216.40
832.75	216.40
833.06	216.54
833.38	216.43
833.69	216.37
834.01	216.36
834.32	216.37
834.64	216.33
834.96	216.30
835.27	216.32
835.59	216.24
835.90	216.19
836.22	216.19
836.53	216.13
836.85	216.09
837.16	216.31
837.48	216.33
837.79	216.38
838.11	216.38
838.42	216.37
838.74	216.37
839.05	216.36
839.37	216.35
839.68	216.20
840.00	216.20
840.31	216.23
840.63	216.17
840.94	216.13
841.26	216.12
841.57	216.12
841.88	216.12
842.20	216.10
842.51	216.08
842.83	216.09
843.14	216.25
843.46	216.26
843.77	216.16
844.08	216.13
844.40	216.05
844.71	216.02
845.03	215.97
845.34	215.92
845.65	215.92
845.97	215.89
846.28	215.87
846.60	215.87
846.91	215.85
847.22	215.87
847.54	215.90
847.85	215.92
848.16	215.87
848.48	215.83
848.79	215.90
849.10	215.92
849.42	215.90
849.73	215.73
850.04	215.72
850.36	215.64
850.67	215.69
850.98	215.70
851.30	215.75
851.61	215.75
851.92	215.80
852.23	215.84
852.55	215.85
852.86	215.87
853.17	215.92
853.49	215.96
853.80	215.97
854.11	216.01
854.42	216.01
854.74	216.00
855.05	216.03
855.36	215.90
855.67	215.89
855.99	215.91
856.30	216.17
856.61	216.17
856.92	216.15
857.23	216.14
857.55	216.10
857.86	216.05
858.17	216.08
858.48	216.03
858.79	215.97
859.11	215.98
859.42	215.99
859.73	215.93
860.04	215.88
860.35	215.84
860.66	215.77
860.98	215.78
861.29	215.83
861.60	215.77
861.91	215.82
862.22	215.77
862.53	215.72
862.84	215.47
863.16	215.49
863.47	215.47
863.78	215.44
864.09	215.49
864.40	215.51
864.71	215.52
865.02	215.52
865.33	215.53
865.64	215.48
865.95	215.47
866.27	215.64
866.58	215.63
866.89	215.66
867.20	215.66
867.51	215.61
867.82	215.58
868.13	215.67
868.44	215.62
868.75	215.69
869.06	215.69
869.37	215.69
869.68	215.64
869.99	215.64
870.30	215.67
870.61	215.67
870.92	215.63
871.23	215.60
871.54	215.63
871.85	215.66
872.16	215.70
872.47	215.67
872.78	215.52
873.09	215.55
873.40	215.53
873.71	215.55
874.02	215.59
874.33	215.56
874.64	215.49
874.95	215.53
875.26	215.50
875.56	215.46
875.87	215.46
876.18	215.44
876.49	215.65
876.80	215.61
877.11	215.55
877.42	215.54
877.73	215.53
878.04	215.51
878.35	215.50
878.66	215.52
878.96	215.49
879.27	215.49
879.58	215.47
879.89	215.45
880.20	215.48
880.51	215.44
880.82	215.44
881.12	215.47
881.43	215.42
881.74	215.39
882.05	215.39
882.36	215.38
882.67	215.41
882.97	215.20
883.28	215.18
883.59	215.20
883.90	215.24
884.21	215.27
884.51	215.25
884.82	215.23
885.13	215.19
885.44	215.24
885.74	215.23
886.05	215.20
886.36	215.20
886.67	215.16
886.98	215.26
887.28	215.28
887.59	215.28
887.90	215.31
888.20	215.27
888.51	215.32
888.82	215.31
889.13	215.32
889.43	215.48
889.74	215.47
890.05	215.47
890.35	215.46
890.66	215.44
890.97	215.41
891.28	215.38
891.58	215.39
891.89	215.37
892.20	215.37
892.50	215.34
892.81	215.35
893.12	215.34
893.42	215.24
893.73	215.28
894.04	215.25
894.34	215.24
894.65	215.27
894.95	215.24
895.26	215.25
895.57	215.30
895.87	215.11
896.18	215.17
896.48	215.21
896.79	215.19
897.10	215.18
897.40	215.17
897.71	215.23
898.01	215.23
898.32	215.24
898.63	215.22
898.93	215.26
899.24	215.27
899.54	215.25
899.85	215.25
900.15	215.21
900.46	215.23
900.76	215.23
901.07	215.24
901.38	215.26
901.68	215.28
901.99	215.20
902.29	215.23
902.60	215.19
902.90	215.16
903.21	215.15
903.51	215.18
903.82	215.25
904.12	215.23
904.43	215.24
904.73	215.20
905.03	215.22
905.34	215.40
905.64	215.36
905.95	215.38
906.25	215.36
906.56	215.39
906.86	215.39
907.17	215.40
907.47	215.41
907.77	215.39
908.08	215.36
908.38	215.38
908.69	215.40
908.99	215.41
909.30	215.42
909.60	215.43
909.90	215.43
910.21	215.36
910.51	215.30
910.81	215.28
911.12	215.33
911.42	215.34
911.73	215.15
912.03	215.19
912.33	215.26
912.64	215.27
912.94	215.23
913.24	215.20
913.55	215.17
913.85	215.16
914.15	215.21
914.46	215.25
914.76	215.23
915.06	215.18
915.37	215.16
915.67	215.15
915.97	215.15
916.27	215.10
916.58	215.12
916.88	215.15
917.18	215.14
917.49	215.27
917.79	215.22
918.09	215.27
918.39	215.30
918.70	215.27
919.00	215.28
919.30	215.38
919.60	215.37
919.91	215.36
920.21	215.36
920.51	215.33
920.81	215.31
921.12	215.35
921.42	215.36
921.72	215.38
922.02	215.37
922.32	215.42
922.63	215.44
922.93	215.52
923.23	215.51
923.53	215.50
923.83	215.35
924.13	215.42
924.44	215.38
924.74	215.42
925.04	215.44
925.34	215.42
925.64	215.32
925.94	215.32
926.24	215.43
926.55	215.40
926.85	215.39
927.15	215.38
927.45	215.36
927.75	215.37
928.05	215.39
928.35	215.41
928.65	215.42
928.95	215.43
929.26	215.36
929.56	215.43
929.86	215.46
930.16	215.48
930.46	215.46
930.76	215.47
931.06	215.35
931.36	215.30
931.66	215.35
931.96	215.39
932.26	215.41
932.56	215.31
932.86	215.35
933.16	215.36
933.46	215.31
933.76	215.24
934.06	215.28
934.36	215.32
934.66	215.30
934.96	215.28
935.26	215.27
935.56	215.28
935.86	215.22
936.16	215.19
936.46	215.15
936.76	215.13
937.06	215.11
937.36	215.15
937.66	215.16
937.96	215.17
938.26	215.12
938.56	215.11
938.86	215.12
939.16	215.19
939.46	215.22
939.76	215.25
940.06	215.27
940.35	215.23
940.65	215.15
940.95	215.19
941.25	215.13
941.55	215.10
941.85	215.09
942.15	215.13
942.45	215.16
942.75	215.18
943.04	215.19
943.34	215.23
943.64	215.21
943.94	215.18
944.24	215.16
944.54	215.15
944.84	215.18
945.13	215.13
945.43	215.05
945.73	215.02
946.03	215.03
946.33	215.05
946.62	215.02
946.92	215.03
947.22	215.03
947.52	215.04
947.82	215.09
948.11	215.09
948.41	215.03
948.71	214.98
949.01	214.98
949.31	214.97
949.60	214.94
949.90	214.98
950.20	214.96
950.50	214.96
950.79	214.94
951.09	214.94
951.39	214.95
951.69	214.93
951.98	214.98
952.28	214.96
952.58	214.94
952.87	214.97
953.17	214.98
953.47	214.95
953.76	214.95
954.06	214.91
954.36	214.89
954.66	214.91
954.95	214.98
955.25	215.00
955.55	215.02
955.84	214.98
956.14	214.96
956.44	214.96
956.73	214.92
957.03	214.98
957.32	214.99
957.62	215.01
957.92	215.05
958.21	214.99
958.51	215.27
958.81	215.30
959.10	215.33
959.40	215.36
959.69	215.37
959.99	215.39
960.29	215.38
960.58	215.36
960.88	215.42
961.17	215.39
961.47	215.40
961.76	215.36
962.06	215.40
962.36	215.40
962.65	215.40
962.95	215.45
963.24	215.40
963.54	215.37
963.83	215.37
964.13	215.32
964.42	215.30
964.72	215.09
965.01	215.07
965.31	215.02
965.60	215.00
965.90	215.10
966.19	215.09
966.49	215.12
966.78	215.12
967.08	215.10
967.37	215.12
967.67	215.07
967.96	215.13
968.26	215.14
968.55	215.19
968.85	215.23
969.14	215.20
969.43	215.20
969.73	215.20
970.02	215.22
970.32	215.24
970.61	215.23
970.91	215.18
971.20	215.17
971.49	215.15
971.79	215.18
972.08	215.02
972.38	214.98
972.67	214.95
972.96	214.99
973.26	214.96
973.55	215.00
973.85	214.99
974.14	214.95
974.43	214.96
974.73	214.90
975.02	214.84
975.31	214.84
975.61	214.83
975.90	214.79
976.19	214.78
976.49	214.80
976.78	214.84
977.07	214.84
977.37	214.83
977.66	214.86
977.95	214.82
978.24	214.85
978.54	214.94
978.83	214.93
979.12	214.91
979.42	214.91
979.71	214.87
980.00	214.89
980.29	214.90
980.59	214.86
980.88	214.92
981.17	214.93
981.46	214.92
981.76	214.91
982.05	214.97
982.34	214.95
982.63	214.95
982.93	214.94
983.22	214.99
983.51	215.02
983.80	215.06
984.09	215.10
984.39	215.08
984.68	215.06
984.97	215.10
985.26	215.09
985.55	215.09
985.85	215.05
986.14	215.05
986.43	215.09
986.72	215.09
987.01	215.01
987.30	215.02
987.59	215.03
987.89	215.06
988.18	215.00
988.47	215.00
988.76	214.98
989.05	214.94
989.34	214.89
989.63	214.93
989.92	214.89
990.22	214.85
990.51	214.86
990.80	214.83
991.09	214.84
991.38	214.83
991.67	214.83
991.96	214.80
992.25	214.80
992.54	214.75
992.83	214.72
993.12	214.75
993.41	214.79
993.70	214.88
993.99	214.91
994.28	214.94
994.58	214.96
994.87	214.96
995.16	214.99
995.45	214.98
995.74	214.91
996.03	214.95
996.32	214.97
996.61	215.01
996.90	214.99
997.19	214.96
997.48	214.94
997.77	214.96
998.06	214.99
998.34	214.99
998.63	214.97
998.92	215.01
999.21	215.04
999.50	215.04
999.79	214.96
1000.08	214.96
1000.37	214.96
1000.66	214.90
1000.95	214.95
1001.24	214.92
1001.53	215.00
1001.82	214.99
1002.11	214.97
1002.40	214.96
1002.68	215.01
1002.97	215.16
1003.26	215.15
1003.55	215.16
1003.84	215.15
1004.13	215.21
1004.42	215.21
1004.71	215.22
1004.99	215.18
1005.28	215.22
1005.57	215.20
1005.86	215.16
1006.15	215.16
1006.44	215.15
1006.72	215.21
1007.01	215.17
1007.30	215.20
1007.59	215.18
1007.88	215.19
1008.17	215.18
1008.45	215.16
1008.74	215.07
1009.03	214.97
1009.32	214.96
1009.60	214.93
1009.89	214.94
1010.18	214.87
1010.47	214.88
1010.76	214.89
1011.04	214.90
1011.33	214.96
1011.62	214.97
1011.91	215.02
1012.19	215.04
1012.48	215.05
1012.77	215.03
1013.05	215.14
1013.34	215.14
1013.63	215.13
1013.92	215.13
1014.20	215.11
1014.49	215.11
1014.78	215.15
1015.06	215.11
1015.35	215.15
1015.64	215.19
1015.92	215.19
1016.21	215.19
1016.50	215.17
1016.78	215.23
1017.07	215.25
1017.36	215.12
1017.64	215.09
1017.93	215.09
1018.22	215.05
1018.50	215.01
1018.79	215.02
1019.08	214.93
1019.36	214.91
1019.65	214.89
1019.93	214.97
1020.22	215.01
1020.51	215.13
1020.79	215.07
1021.08	214.61
1021.36	214.35
1021.65	215.08
1021.94	215.24
1022.22	214.80
1022.51	214.82
1022.79	216.28
1023.08	215.19
1023.36	217.56
1023.65	214.07
>>>>>End Processed Spectral Data<<<<<
