SpectraSuite Data File
++++++++++++++++++++++++++++++++++++
Date: Tue Jan 29 16:15:51 EST 2013
User: group
Dark Spectrum Present: No
Reference Spectrum Present: No
Number of Sampled Component Spectra: 1
Spectrometers: USB2E7196
Integration Time (usec): 65000 (USB2E7196)
Spectra Averaged: 100 (USB2E7196)
Boxcar Smoothing: 10 (USB2E7196)
Correct for Electrical Dark: No (USB2E7196)
Strobe/Lamp Enabled: No (USB2E7196)
Correct for Detector Non-linearity: No (USB2E7196)
Correct for Stray Light: No (USB2E7196)
Number of Pixels in Processed Spectrum: 2048
>>>>>Begin Processed Spectral Data<<<<<
339.09	0.00
339.48	202.33
339.86	204.26
340.24	205.34
340.63	206.47
341.01	212.10
341.39	209.90
341.78	211.55
342.16	212.54
342.54	211.95
342.93	201.84
343.31	212.04
343.69	212.61
344.07	213.08
344.46	213.55
344.84	213.98
345.22	214.11
345.60	214.35
345.99	214.52
346.37	214.65
346.75	214.83
347.13	214.89
347.52	214.94
347.90	215.04
348.28	215.08
348.66	215.19
349.05	215.14
349.43	215.20
349.81	215.26
350.19	215.34
350.57	215.41
350.96	215.50
351.34	215.59
351.72	215.67
352.10	215.77
352.48	215.87
352.87	215.92
353.25	216.01
353.63	216.08
354.01	216.14
354.39	216.24
354.77	216.31
355.15	216.47
355.54	216.50
355.92	216.51
356.30	216.58
356.68	216.76
357.06	216.87
357.44	216.92
357.82	216.96
358.20	217.05
358.58	217.10
358.97	217.15
359.35	217.24
359.73	217.36
360.11	217.38
360.49	217.37
360.87	217.40
361.25	217.42
361.63	217.54
362.01	217.59
362.39	217.60
362.77	217.61
363.15	217.60
363.53	217.65
363.91	217.67
364.29	217.68
364.67	217.53
365.05	217.51
365.43	217.57
365.81	217.58
366.19	217.66
366.57	217.76
366.95	217.74
367.33	217.71
367.71	217.68
368.09	217.73
368.47	217.73
368.85	217.73
369.23	217.79
369.61	217.69
369.99	217.74
370.37	217.73
370.75	217.80
371.13	217.72
371.51	217.71
371.89	217.70
372.27	217.69
372.65	217.63
373.03	217.65
373.41	217.55
373.78	217.53
374.16	217.35
374.54	217.22
374.92	217.15
375.30	217.09
375.68	217.00
376.06	216.93
376.44	216.92
376.82	216.87
377.19	216.77
377.57	216.73
377.95	216.61
378.33	216.56
378.71	216.41
379.09	216.42
379.47	216.36
379.84	216.32
380.22	216.26
380.60	216.21
380.98	216.14
381.36	216.11
381.73	216.05
382.11	216.08
382.49	216.07
382.87	216.05
383.25	216.02
383.62	216.23
384.00	216.16
384.38	216.11
384.76	216.12
385.13	216.20
385.51	216.15
385.89	216.08
386.27	216.07
386.64	216.05
387.02	215.98
387.40	215.94
387.78	215.93
388.15	215.92
388.53	215.91
388.91	215.88
389.29	215.84
389.66	215.83
390.04	215.78
390.42	215.81
390.79	215.80
391.17	215.80
391.55	215.57
391.92	215.60
392.30	215.61
392.68	215.56
393.05	215.53
393.43	215.56
393.81	215.58
394.18	215.51
394.56	215.53
394.94	215.58
395.31	215.59
395.69	215.62
396.06	215.65
396.44	215.67
396.82	215.68
397.19	215.82
397.57	215.81
397.95	215.88
398.32	215.84
398.70	215.94
399.07	216.02
399.45	216.08
399.82	216.11
400.20	216.14
400.58	216.22
400.95	216.18
401.33	216.28
401.70	216.48
402.08	216.60
402.45	216.71
402.83	216.84
403.20	216.94
403.58	217.03
403.95	217.19
404.33	217.32
404.71	217.45
405.08	217.69
405.46	217.88
405.83	218.06
406.21	218.27
406.58	218.47
406.96	218.66
407.33	218.88
407.70	219.16
408.08	219.61
408.45	219.93
408.83	220.32
409.20	220.64
409.58	220.91
409.95	221.38
410.33	221.80
410.70	222.22
411.08	222.76
411.45	223.34
411.82	223.90
412.20	224.54
412.57	225.35
412.95	225.92
413.32	226.73
413.69	227.52
414.07	228.39
414.44	229.31
414.82	230.27
415.19	231.41
415.56	232.57
415.94	233.68
416.31	235.06
416.68	236.43
417.06	237.96
417.43	239.46
417.81	241.14
418.18	242.91
418.55	244.74
418.93	246.73
419.30	248.73
419.67	250.87
420.04	253.09
420.42	255.42
420.79	258.15
421.16	260.83
421.54	263.60
421.91	266.47
422.28	269.51
422.66	272.68
423.03	275.84
423.40	279.10
423.77	282.61
424.15	286.12
424.52	289.79
424.89	293.88
425.26	297.83
425.64	301.57
426.01	305.68
426.38	310.01
426.75	314.39
427.13	318.96
427.50	323.78
427.87	328.83
428.24	333.83
428.61	338.63
428.99	343.98
429.36	349.86
429.73	355.55
430.10	361.18
430.47	367.09
430.85	373.24
431.22	379.69
431.59	386.58
431.96	393.17
432.33	400.48
432.70	407.43
433.08	415.68
433.45	423.48
433.82	431.26
434.19	439.81
434.56	448.21
434.93	456.25
435.30	464.27
435.68	473.04
436.05	481.75
436.42	490.38
436.79	498.23
437.16	506.69
437.53	515.70
437.90	524.54
438.27	533.19
438.64	542.03
439.01	550.31
439.38	557.56
439.75	564.65
440.13	572.76
440.50	580.41
440.87	586.68
441.24	593.08
441.61	600.12
441.98	605.36
442.35	611.47
442.72	617.56
443.09	623.33
443.46	627.06
443.83	629.41
444.20	631.47
444.57	634.54
444.94	635.83
445.31	637.20
445.68	638.51
446.05	639.08
446.42	638.27
446.79	637.29
447.16	636.27
447.53	635.52
447.90	632.27
448.27	629.09
448.64	624.51
449.01	621.26
449.37	615.55
449.74	610.08
450.11	603.49
450.48	596.37
450.85	589.22
451.22	582.82
451.59	576.92
451.96	571.34
452.33	563.70
452.70	556.93
453.07	548.68
453.43	540.39
453.80	532.39
454.17	524.70
454.54	517.41
454.91	509.55
455.28	501.85
455.65	494.75
456.02	487.54
456.38	481.43
456.75	473.90
457.12	467.60
457.49	461.34
457.86	455.30
458.23	450.17
458.59	444.51
458.96	438.79
459.33	433.71
459.70	428.46
460.07	424.38
460.43	419.66
460.80	415.28
461.17	411.46
461.54	407.45
461.91	403.59
462.27	399.63
462.64	396.30
463.01	392.65
463.38	389.05
463.74	385.51
464.11	382.42
464.48	379.72
464.85	376.74
465.21	374.41
465.58	371.90
465.95	368.84
466.32	366.29
466.68	363.82
467.05	361.36
467.42	358.96
467.78	356.38
468.15	353.97
468.52	352.17
468.88	349.74
469.25	347.60
469.62	345.91
469.98	344.09
470.35	342.38
470.72	340.76
471.08	339.09
471.45	337.66
471.82	336.16
472.18	334.50
472.55	333.35
472.92	332.00
473.28	330.85
473.65	329.71
474.02	328.65
474.38	327.82
474.75	327.10
475.11	326.31
475.48	325.77
475.85	325.31
476.21	324.85
476.58	324.56
476.94	324.32
477.31	324.01
477.67	323.76
478.04	323.65
478.41	323.61
478.77	323.78
479.14	323.75
479.50	323.94
479.87	324.23
480.23	324.59
480.60	324.87
480.96	325.14
481.33	325.81
481.69	326.36
482.06	326.85
482.42	327.32
482.79	327.94
483.15	328.78
483.52	329.72
483.88	330.64
484.25	331.57
484.61	332.62
484.98	333.66
485.34	335.00
485.71	336.38
486.07	337.82
486.44	339.15
486.80	340.78
487.17	342.42
487.53	344.27
487.90	346.11
488.26	348.09
488.62	350.29
488.99	352.33
489.35	354.50
489.72	356.87
490.08	359.39
490.44	361.95
490.81	364.61
491.17	367.29
491.54	370.26
491.90	373.28
492.26	376.50
492.63	379.94
492.99	383.45
493.36	387.08
493.72	390.91
494.08	394.89
494.45	399.03
494.81	403.36
495.17	407.81
495.54	412.50
495.90	417.32
496.26	422.25
496.63	427.42
496.99	432.74
497.35	438.33
497.72	444.09
498.08	449.99
498.44	456.03
498.80	462.43
499.17	468.86
499.53	475.52
499.89	482.39
500.26	489.33
500.62	496.31
500.98	503.68
501.34	511.15
501.71	518.87
502.07	526.66
502.43	534.66
502.79	542.73
503.16	551.04
503.52	559.62
503.88	568.19
504.24	577.08
504.60	586.06
504.97	595.16
505.33	604.41
505.69	614.27
506.05	624.15
506.41	634.00
506.78	643.98
507.14	654.17
507.50	664.53
507.86	675.20
508.22	685.90
508.59	696.45
508.95	707.42
509.31	718.56
509.67	730.05
510.03	741.24
510.39	752.98
510.75	764.66
511.12	776.45
511.48	788.42
511.84	800.60
512.20	812.84
512.56	825.31
512.92	837.91
513.28	850.32
513.64	862.82
514.00	875.38
514.37	888.21
514.73	901.14
515.09	913.88
515.45	926.59
515.81	939.41
516.17	952.58
516.53	965.61
516.89	978.57
517.25	991.42
517.61	1004.79
517.97	1017.86
518.33	1030.82
518.69	1044.12
519.05	1057.69
519.41	1071.16
519.77	1084.71
520.13	1097.83
520.49	1110.80
520.85	1124.03
521.21	1137.21
521.57	1150.62
521.93	1163.51
522.29	1177.02
522.65	1190.50
523.01	1203.76
523.37	1216.70
523.73	1229.80
524.09	1242.65
524.45	1255.77
524.81	1269.05
525.17	1282.09
525.53	1295.04
525.89	1308.09
526.25	1321.01
526.61	1333.45
526.97	1346.11
527.33	1358.73
527.68	1371.86
528.04	1384.99
528.40	1397.71
528.76	1410.76
529.12	1423.40
529.48	1436.39
529.84	1448.33
530.20	1460.71
530.56	1473.02
530.91	1486.04
531.27	1498.54
531.63	1510.99
531.99	1523.44
532.35	1535.29
532.71	1547.52
533.07	1559.92
533.42	1571.82
533.78	1583.51
534.14	1595.22
534.50	1606.17
534.86	1617.55
535.21	1628.09
535.57	1639.39
535.93	1650.38
536.29	1661.07
536.65	1672.21
537.00	1682.82
537.36	1693.87
537.72	1704.60
538.08	1715.60
538.44	1726.14
538.79	1736.81
539.15	1747.26
539.51	1757.71
539.87	1768.72
540.22	1779.09
540.58	1789.84
540.94	1800.32
541.29	1810.26
541.65	1819.78
542.01	1830.06
542.37	1839.84
542.72	1849.75
543.08	1859.13
543.44	1869.31
543.79	1878.42
544.15	1887.57
544.51	1897.18
544.87	1906.67
545.22	1915.47
545.58	1924.20
545.94	1932.78
546.29	1941.17
546.65	1949.38
547.01	1957.30
547.36	1964.75
547.72	1972.24
548.07	1979.51
548.43	1987.15
548.79	1994.80
549.14	2002.86
549.50	2010.84
549.86	2018.30
550.21	2025.38
550.57	2032.85
550.92	2039.43
551.28	2046.66
551.64	2053.64
551.99	2061.03
552.35	2068.15
552.70	2074.71
553.06	2081.11
553.41	2087.25
553.77	2093.48
554.13	2099.67
554.48	2106.50
554.84	2113.27
555.19	2119.61
555.55	2126.02
555.90	2132.08
556.26	2138.71
556.61	2144.41
556.97	2149.25
557.32	2154.99
557.68	2161.29
558.03	2166.90
558.39	2172.07
558.74	2177.89
559.10	2183.41
559.45	2188.86
559.81	2194.19
560.16	2199.82
560.52	2205.76
560.87	2212.06
561.23	2218.06
561.58	2224.65
561.94	2229.72
562.29	2234.53
562.64	2240.58
563.00	2246.05
563.35	2251.63
563.71	2257.43
564.06	2263.02
564.42	2269.04
564.77	2274.24
565.12	2279.46
565.48	2284.58
565.83	2290.13
566.19	2295.58
566.54	2301.02
566.89	2305.57
567.25	2310.12
567.60	2315.88
567.96	2321.06
568.31	2325.63
568.66	2329.83
569.02	2333.77
569.37	2337.66
569.72	2342.10
570.08	2345.71
570.43	2348.96
570.78	2352.08
571.14	2354.67
571.49	2357.98
571.84	2361.55
572.20	2364.48
572.55	2367.60
572.90	2369.92
573.26	2372.82
573.61	2375.32
573.96	2377.48
574.31	2379.63
574.67	2381.65
575.02	2382.50
575.37	2383.83
575.72	2384.81
576.08	2386.32
576.43	2386.71
576.78	2387.50
577.13	2389.35
577.49	2390.61
577.84	2391.92
578.19	2393.42
578.54	2394.25
578.90	2395.29
579.25	2395.27
579.60	2395.52
579.95	2394.95
580.30	2395.48
580.66	2394.91
581.01	2393.39
581.36	2391.37
581.71	2390.14
582.06	2389.37
582.42	2388.77
582.77	2386.83
583.12	2385.45
583.47	2384.34
583.82	2383.78
584.17	2382.60
584.53	2380.41
584.88	2378.50
585.23	2376.69
585.58	2374.61
585.93	2372.57
586.28	2370.45
586.63	2368.22
586.98	2366.15
587.34	2364.38
587.69	2362.01
588.04	2360.18
588.39	2359.04
588.74	2356.64
589.09	2354.15
589.44	2351.19
589.79	2348.96
590.14	2347.06
590.49	2344.30
590.84	2340.62
591.19	2337.90
591.54	2334.75
591.89	2331.00
592.25	2327.82
592.60	2323.70
592.95	2319.78
593.30	2315.71
593.65	2311.31
594.00	2307.15
594.35	2304.13
594.70	2299.55
595.05	2295.12
595.40	2289.78
595.75	2284.19
596.10	2280.68
596.45	2275.86
596.80	2271.34
597.15	2266.09
597.50	2260.39
597.85	2255.57
598.19	2250.50
598.54	2244.74
598.89	2239.65
599.24	2235.01
599.59	2229.02
599.94	2223.33
600.29	2217.55
600.64	2211.93
600.99	2205.48
601.34	2200.11
601.69	2193.07
602.04	2186.92
602.39	2180.53
602.74	2174.60
603.08	2169.16
603.43	2162.79
603.78	2156.22
604.13	2149.17
604.48	2142.11
604.83	2136.13
605.18	2129.85
605.53	2123.06
605.87	2115.98
606.22	2109.23
606.57	2101.53
606.92	2093.85
607.27	2087.08
607.62	2080.33
607.96	2073.31
608.31	2066.94
608.66	2059.24
609.01	2051.89
609.36	2044.80
609.70	2036.96
610.05	2029.17
610.40	2021.06
610.75	2012.78
611.10	2005.16
611.44	1996.54
611.79	1987.82
612.14	1977.99
612.49	1967.55
612.83	1958.32
613.18	1949.31
613.53	1940.13
613.88	1930.58
614.22	1921.98
614.57	1912.13
614.92	1901.75
615.27	1891.70
615.61	1881.55
615.96	1871.93
616.31	1862.41
616.65	1853.11
617.00	1843.33
617.35	1833.93
617.70	1824.19
618.04	1814.12
618.39	1803.94
618.74	1794.18
619.08	1784.71
619.43	1776.11
619.78	1767.87
620.12	1759.24
620.47	1749.59
620.82	1739.49
621.16	1729.88
621.51	1720.05
621.85	1710.37
622.20	1699.93
622.55	1689.45
622.89	1679.80
623.24	1670.14
623.59	1660.51
623.93	1650.40
624.28	1640.89
624.62	1630.68
624.97	1620.41
625.32	1610.97
625.66	1602.08
626.01	1593.38
626.35	1583.93
626.70	1573.78
627.04	1563.84
627.39	1553.81
627.73	1544.52
628.08	1535.46
628.43	1525.88
628.77	1516.60
629.12	1507.72
629.46	1500.00
629.81	1491.59
630.15	1481.96
630.50	1472.10
630.84	1461.53
631.19	1451.62
631.53	1442.31
631.88	1432.15
632.22	1422.14
632.57	1412.67
632.91	1402.57
633.26	1392.64
633.60	1383.20
633.95	1373.86
634.29	1364.41
634.64	1355.08
634.98	1345.24
635.32	1335.91
635.67	1327.40
636.01	1318.24
636.36	1308.47
636.70	1298.91
637.05	1289.62
637.39	1280.71
637.73	1272.20
638.08	1264.76
638.42	1256.48
638.77	1247.68
639.11	1239.57
639.45	1231.77
639.80	1223.12
640.14	1214.47
640.49	1205.69
640.83	1196.92
641.17	1188.92
641.52	1180.78
641.86	1172.18
642.20	1164.35
642.55	1155.81
642.89	1146.94
643.23	1138.25
643.58	1130.22
643.92	1121.36
644.26	1112.72
644.61	1104.33
644.95	1095.64
645.29	1086.40
645.64	1077.42
645.98	1069.09
646.32	1061.20
646.66	1052.79
647.01	1044.58
647.35	1036.50
647.69	1028.22
648.04	1019.93
648.38	1011.01
648.72	1002.26
649.06	993.93
649.41	985.83
649.75	977.92
650.09	970.26
650.43	962.30
650.78	954.08
651.12	946.39
651.46	939.07
651.80	931.98
652.14	924.63
652.49	917.15
652.83	909.92
653.17	902.31
653.51	894.75
653.85	887.60
654.20	880.39
654.54	872.89
654.88	865.85
655.22	858.76
655.56	851.87
655.90	845.18
656.25	838.61
656.59	831.71
656.93	824.80
657.27	817.69
657.61	810.86
657.95	804.86
658.29	798.99
658.64	792.89
658.98	786.44
659.32	779.97
659.66	773.93
660.00	767.67
660.34	761.64
660.68	755.63
661.02	749.39
661.36	743.54
661.70	737.89
662.05	732.31
662.39	726.86
662.73	721.59
663.07	716.36
663.41	710.90
663.75	705.36
664.09	699.83
664.43	694.48
664.77	689.15
665.11	683.38
665.45	677.66
665.79	671.95
666.13	666.26
666.47	660.86
666.81	655.46
667.15	650.16
667.49	645.03
667.83	639.80
668.17	634.64
668.51	629.59
668.85	624.78
669.19	619.90
669.53	614.94
669.87	609.89
670.21	605.12
670.55	600.43
670.89	596.05
671.23	591.83
671.57	587.58
671.91	583.41
672.25	579.34
672.58	575.24
672.92	571.29
673.26	567.46
673.60	563.67
673.94	559.91
674.28	556.30
674.62	552.57
674.96	548.94
675.30	545.46
675.64	541.99
675.97	538.40
676.31	534.85
676.65	531.35
676.99	528.00
677.33	524.28
677.67	520.67
678.01	516.87
678.34	513.25
678.68	509.84
679.02	506.26
679.36	502.61
679.70	499.03
680.04	495.48
680.37	492.12
680.71	488.87
681.05	485.76
681.39	482.60
681.73	479.58
682.06	476.66
682.40	473.67
682.74	470.43
683.08	467.36
683.42	464.28
683.75	461.43
684.09	458.46
684.43	455.67
684.77	452.81
685.10	450.06
685.44	447.17
685.78	444.22
686.12	441.54
686.45	438.86
686.79	436.22
687.13	433.77
687.46	431.20
687.80	428.57
688.14	425.77
688.48	423.20
688.81	420.56
689.15	417.96
689.49	415.35
689.82	412.91
690.16	410.37
690.50	407.92
690.83	405.41
691.17	402.89
691.51	400.54
691.84	398.37
692.18	396.18
692.52	394.05
692.85	392.01
693.19	389.88
693.52	387.76
693.86	385.59
694.20	383.47
694.53	381.38
694.87	379.23
695.21	377.19
695.54	375.07
695.88	372.97
696.21	370.84
696.55	368.77
696.88	366.73
697.22	364.77
697.56	362.95
697.89	361.11
698.23	359.42
698.56	357.63
698.90	355.84
699.23	353.99
699.57	352.15
699.90	350.32
700.24	348.59
700.58	346.89
700.91	345.27
701.25	343.75
701.58	342.15
701.92	340.62
702.25	339.10
702.59	337.54
702.92	336.07
703.26	334.54
703.59	333.14
703.93	331.94
704.26	330.54
704.60	329.06
704.93	327.65
705.26	326.21
705.60	324.83
705.93	323.39
706.27	322.07
706.60	320.82
706.94	319.59
707.27	318.28
707.61	317.02
707.94	315.76
708.27	314.30
708.61	312.92
708.94	311.62
709.28	310.32
709.61	309.12
709.94	307.88
710.28	306.72
710.61	305.53
710.95	304.12
711.28	303.12
711.61	301.96
711.95	300.86
712.28	299.68
712.61	298.47
712.95	297.43
713.28	296.44
713.61	295.32
713.95	294.23
714.28	293.24
714.61	292.19
714.95	291.16
715.28	290.15
715.61	289.17
715.95	288.23
716.28	287.32
716.61	286.36
716.95	285.42
717.28	284.53
717.61	283.62
717.94	282.76
718.28	281.77
718.61	280.93
718.94	280.06
719.27	279.26
719.61	278.52
719.94	277.67
720.27	276.74
720.60	275.92
720.94	275.13
721.27	274.37
721.60	273.72
721.93	273.01
722.27	272.39
722.60	271.75
722.93	271.06
723.26	270.39
723.59	269.70
723.93	269.06
724.26	268.39
724.59	267.77
724.92	267.22
725.25	266.68
725.59	266.12
725.92	265.60
726.25	265.04
726.58	264.44
726.91	263.86
727.24	263.33
727.57	262.80
727.91	262.24
728.24	261.70
728.57	261.14
728.90	260.59
729.23	259.97
729.56	259.53
729.89	259.00
730.22	258.45
730.55	257.94
730.89	257.40
731.22	256.89
731.55	256.39
731.88	255.87
732.21	255.26
732.54	254.75
732.87	254.21
733.20	253.73
733.53	253.27
733.86	252.84
734.19	252.37
734.52	251.97
734.85	251.67
735.18	251.21
735.51	250.82
735.84	250.45
736.17	250.08
736.50	249.55
736.83	249.41
737.16	249.03
737.49	248.65
737.82	248.25
738.15	247.91
738.48	247.52
738.81	247.15
739.14	246.81
739.47	246.40
739.80	246.06
740.13	245.72
740.46	245.32
740.79	244.93
741.12	244.59
741.45	244.21
741.78	243.79
742.11	243.53
742.44	243.14
742.77	242.81
743.10	242.50
743.43	242.18
743.75	241.61
744.08	241.57
744.41	241.25
744.74	240.99
745.07	240.63
745.40	240.34
745.73	240.08
746.06	239.75
746.39	239.48
746.71	239.13
747.04	238.76
747.37	238.47
747.70	238.22
748.03	237.89
748.36	237.63
748.68	237.35
749.01	237.01
749.34	236.74
749.67	236.46
750.00	236.19
750.33	236.07
750.65	235.84
750.98	235.31
751.31	235.07
751.64	234.81
751.97	234.73
752.29	234.49
752.62	234.18
752.95	233.95
753.28	233.71
753.60	233.52
753.93	233.39
754.26	233.16
754.59	232.89
754.91	232.71
755.24	232.50
755.57	232.24
755.90	232.02
756.22	231.80
756.55	231.59
756.88	231.33
757.20	230.97
757.53	230.71
757.86	230.50
758.19	230.32
758.51	230.11
758.84	229.79
759.17	229.57
759.49	229.42
759.82	229.36
760.15	229.16
760.47	228.95
760.80	228.68
761.13	228.55
761.45	228.38
761.78	228.18
762.11	227.99
762.43	227.83
762.76	227.66
763.08	227.52
763.41	227.36
763.74	227.23
764.06	227.13
764.39	226.98
764.71	226.82
765.04	226.65
765.37	226.51
765.69	226.33
766.02	226.18
766.34	226.01
766.67	225.83
767.00	225.77
767.32	225.77
767.65	225.79
767.97	225.63
768.30	225.53
768.62	225.41
768.95	225.26
769.27	225.11
769.60	225.04
769.92	224.86
770.25	224.74
770.57	224.58
770.90	224.43
771.22	224.32
771.55	224.22
771.87	224.12
772.20	224.00
772.52	224.10
772.85	224.26
773.17	224.17
773.50	224.04
773.82	223.92
774.15	223.73
774.47	223.54
774.80	223.42
775.12	223.30
775.45	223.20
775.77	223.16
776.09	223.13
776.42	223.01
776.74	222.99
777.07	222.90
777.39	222.88
777.72	222.79
778.04	222.77
778.36	222.68
778.69	222.62
779.01	222.58
779.33	222.31
779.66	221.99
779.98	221.89
780.31	221.81
780.63	221.80
780.95	221.74
781.28	221.65
781.60	221.57
781.92	221.50
782.25	221.46
782.57	221.36
782.89	221.27
783.22	221.20
783.54	221.10
783.86	221.04
784.19	220.93
784.51	220.92
784.83	220.80
785.16	220.71
785.48	220.63
785.80	220.53
786.12	220.49
786.45	220.44
786.77	220.40
787.09	220.32
787.42	220.15
787.74	220.09
788.06	220.03
788.38	219.97
788.71	219.90
789.03	219.82
789.35	219.83
789.67	219.73
789.99	219.67
790.32	219.60
790.64	219.57
790.96	219.70
791.28	219.59
791.61	219.55
791.93	219.52
792.25	219.47
792.57	219.59
792.89	219.53
793.21	219.51
793.54	219.45
793.86	219.40
794.18	219.41
794.50	219.36
794.82	219.32
795.14	219.32
795.47	219.32
795.79	219.31
796.11	219.18
796.43	219.15
796.75	219.10
797.07	219.07
797.39	218.99
797.71	218.80
798.04	218.77
798.36	218.70
798.68	218.68
799.00	218.65
799.32	218.49
799.64	218.49
799.96	218.44
800.28	218.45
800.60	218.43
800.92	218.38
801.24	218.32
801.56	218.27
801.89	218.22
802.21	218.19
802.53	218.12
802.85	218.16
803.17	218.22
803.49	218.17
803.81	218.16
804.13	218.15
804.45	218.13
804.77	218.09
805.09	218.08
805.41	218.02
805.73	217.97
806.05	217.89
806.37	217.82
806.69	217.78
807.01	217.73
807.33	217.72
807.65	217.63
807.97	217.71
808.28	217.70
808.60	217.69
808.92	217.62
809.24	217.73
809.56	217.66
809.88	217.56
810.20	217.54
810.52	217.52
810.84	217.45
811.16	217.40
811.48	217.37
811.80	217.42
812.12	217.40
812.43	217.44
812.75	217.44
813.07	217.39
813.39	217.41
813.71	217.34
814.03	217.27
814.35	217.27
814.67	217.12
814.98	217.07
815.30	217.05
815.62	217.02
815.94	216.84
816.26	216.82
816.58	216.73
816.89	216.74
817.21	216.69
817.53	216.67
817.85	216.65
818.17	216.62
818.48	216.53
818.80	216.58
819.12	216.52
819.44	216.47
819.76	216.44
820.07	216.37
820.39	216.37
820.71	216.39
821.03	216.37
821.34	216.36
821.66	216.36
821.98	216.35
822.30	216.33
822.61	216.44
822.93	216.39
823.25	216.41
823.57	216.35
823.88	216.36
824.20	216.35
824.52	216.38
824.83	216.37
825.15	216.32
825.47	216.23
825.79	216.23
826.10	216.21
826.42	216.21
826.74	216.22
827.05	216.22
827.37	216.22
827.69	216.22
828.00	216.20
828.32	216.20
828.64	216.16
828.95	216.26
829.27	216.21
829.58	216.22
829.90	216.27
830.22	216.28
830.53	216.21
830.85	216.20
831.17	216.16
831.48	216.16
831.80	216.16
832.11	216.19
832.43	216.12
832.75	216.10
833.06	216.23
833.38	216.18
833.69	216.16
834.01	216.11
834.32	216.09
834.64	216.10
834.96	216.09
835.27	216.09
835.59	215.99
835.90	215.93
836.22	215.91
836.53	215.87
836.85	215.83
837.16	216.04
837.48	216.04
837.79	216.04
838.11	216.02
838.42	216.01
838.74	216.01
839.05	215.97
839.37	215.94
839.68	215.81
840.00	215.77
840.31	215.82
840.63	215.80
840.94	215.80
841.26	215.76
841.57	215.76
841.88	215.77
842.20	215.74
842.51	215.71
842.83	215.71
843.14	215.87
843.46	215.90
843.77	215.79
844.08	215.75
844.40	215.72
844.71	215.71
845.03	215.72
845.34	215.67
845.65	215.67
845.97	215.70
846.28	215.68
846.60	215.69
846.91	215.67
847.22	215.66
847.54	215.71
847.85	215.69
848.16	215.66
848.48	215.61
848.79	215.69
849.10	215.72
849.42	215.73
849.73	215.55
850.04	215.50
850.36	215.44
850.67	215.46
850.98	215.45
851.30	215.50
851.61	215.45
851.92	215.48
852.23	215.60
852.55	215.60
852.86	215.62
853.17	215.61
853.49	215.62
853.80	215.65
854.11	215.61
854.42	215.67
854.74	215.64
855.05	215.63
855.36	215.52
855.67	215.52
855.99	215.51
856.30	215.71
856.61	215.74
856.92	215.71
857.23	215.73
857.55	215.72
857.86	215.67
858.17	215.73
858.48	215.68
858.79	215.60
859.11	215.62
859.42	215.58
859.73	215.57
860.04	215.56
860.35	215.50
860.66	215.46
860.98	215.43
861.29	215.46
861.60	215.45
861.91	215.48
862.22	215.46
862.53	215.44
862.84	215.21
863.16	215.26
863.47	215.25
863.78	215.21
864.09	215.21
864.40	215.22
864.71	215.21
865.02	215.23
865.33	215.22
865.64	215.17
865.95	215.16
866.27	215.30
866.58	215.26
866.89	215.30
867.20	215.31
867.51	215.29
867.82	215.27
868.13	215.37
868.44	215.31
868.75	215.35
869.06	215.37
869.37	215.37
869.68	215.29
869.99	215.30
870.30	215.33
870.61	215.33
870.92	215.33
871.23	215.31
871.54	215.33
871.85	215.39
872.16	215.42
872.47	215.43
872.78	215.29
873.09	215.32
873.40	215.29
873.71	215.28
874.02	215.30
874.33	215.28
874.64	215.22
874.95	215.27
875.26	215.23
875.56	215.23
875.87	215.23
876.18	215.23
876.49	215.43
876.80	215.42
877.11	215.41
877.42	215.43
877.73	215.43
878.04	215.39
878.35	215.37
878.66	215.34
878.96	215.35
879.27	215.35
879.58	215.32
879.89	215.33
880.20	215.36
880.51	215.34
880.82	215.35
881.12	215.35
881.43	215.26
881.74	215.24
882.05	215.20
882.36	215.22
882.67	215.23
882.97	215.01
883.28	214.95
883.59	214.93
883.90	214.93
884.21	214.96
884.51	214.93
884.82	214.89
885.13	214.91
885.44	214.87
885.74	214.89
886.05	214.92
886.36	214.88
886.67	214.85
886.98	214.94
887.28	214.94
887.59	214.93
887.90	214.99
888.20	214.99
888.51	215.06
888.82	215.04
889.13	215.06
889.43	215.20
889.74	215.21
890.05	215.23
890.35	215.22
890.66	215.17
890.97	215.17
891.28	215.15
891.58	215.16
891.89	215.20
892.20	215.16
892.50	215.13
892.81	215.15
893.12	215.14
893.42	215.04
893.73	215.06
894.04	215.10
894.34	215.09
894.65	215.08
894.95	215.04
895.26	215.02
895.57	215.08
895.87	214.94
896.18	214.98
896.48	214.98
896.79	214.96
897.10	215.00
897.40	215.00
897.71	215.03
898.01	214.99
898.32	214.99
898.63	214.97
898.93	214.93
899.24	214.94
899.54	214.93
899.85	214.93
900.15	214.91
900.46	214.87
900.76	214.91
901.07	214.90
901.38	214.89
901.68	214.92
901.99	214.84
902.29	214.81
902.60	214.76
902.90	214.73
903.21	214.74
903.51	214.73
903.82	214.80
904.12	214.79
904.43	214.81
904.73	214.82
905.03	214.84
905.34	215.10
905.64	215.06
905.95	215.07
906.25	215.07
906.56	215.08
906.86	215.12
907.17	215.07
907.47	215.12
907.77	215.09
908.08	215.08
908.38	215.11
908.69	215.18
908.99	215.24
909.30	215.25
909.60	215.24
909.90	215.25
910.21	215.16
910.51	215.17
910.81	215.14
911.12	215.14
911.42	215.16
911.73	214.93
912.03	214.97
912.33	214.99
912.64	215.00
912.94	214.94
913.24	214.88
913.55	214.91
913.85	214.84
914.15	214.85
914.46	214.84
914.76	214.80
915.06	214.72
915.37	214.67
915.67	214.66
915.97	214.68
916.27	214.66
916.58	214.69
916.88	214.67
917.18	214.67
917.49	214.83
917.79	214.80
918.09	214.81
918.39	214.84
918.70	214.84
919.00	214.80
919.30	214.93
919.60	214.91
919.91	214.87
920.21	214.88
920.51	214.89
920.81	214.89
921.12	214.92
921.42	214.95
921.72	214.99
922.02	215.00
922.32	215.00
922.63	215.01
922.93	215.11
923.23	215.10
923.53	215.07
923.83	214.93
924.13	214.97
924.44	214.96
924.74	215.00
925.04	215.02
925.34	215.05
925.64	214.98
925.94	215.00
926.24	215.14
926.55	215.13
926.85	215.18
927.15	215.20
927.45	215.20
927.75	215.19
928.05	215.17
928.35	215.18
928.65	215.22
928.95	215.23
929.26	215.15
929.56	215.21
929.86	215.23
930.16	215.20
930.46	215.18
930.76	215.19
931.06	215.13
931.36	215.11
931.66	215.16
931.96	215.15
932.26	215.13
932.56	215.03
932.86	215.05
933.16	215.02
933.46	214.99
933.76	214.96
934.06	215.03
934.36	215.10
934.66	215.07
934.96	215.07
935.26	215.06
935.56	215.07
935.86	215.00
936.16	214.97
936.46	214.94
936.76	214.93
937.06	214.90
937.36	214.90
937.66	214.89
937.96	214.85
938.26	214.84
938.56	214.83
938.86	214.83
939.16	214.89
939.46	214.94
939.76	214.94
940.06	214.93
940.35	214.87
940.65	214.81
940.95	214.84
941.25	214.78
941.55	214.74
941.85	214.75
942.15	214.79
942.45	214.89
942.75	214.89
943.04	214.92
943.34	214.97
943.64	214.96
943.94	214.94
944.24	214.98
944.54	214.96
944.84	214.97
945.13	214.99
945.43	214.94
945.73	214.90
946.03	214.89
946.33	214.85
946.62	214.84
946.92	214.80
947.22	214.81
947.52	214.81
947.82	214.84
948.11	214.80
948.41	214.78
948.71	214.69
949.01	214.70
949.31	214.67
949.60	214.65
949.90	214.66
950.20	214.63
950.50	214.59
950.79	214.61
951.09	214.63
951.39	214.58
951.69	214.56
951.98	214.61
952.28	214.61
952.58	214.62
952.87	214.65
953.17	214.70
953.47	214.66
953.76	214.67
954.06	214.63
954.36	214.62
954.66	214.59
954.95	214.63
955.25	214.65
955.55	214.67
955.84	214.63
956.14	214.63
956.44	214.65
956.73	214.61
957.03	214.65
957.32	214.66
957.62	214.66
957.92	214.71
958.21	214.70
958.51	214.94
958.81	214.96
959.10	214.96
959.40	215.00
959.69	215.03
959.99	215.04
960.29	215.07
960.58	215.04
960.88	215.15
961.17	215.10
961.47	215.11
961.76	215.08
962.06	215.14
962.36	215.10
962.65	215.12
962.95	215.15
963.24	215.11
963.54	215.09
963.83	215.11
964.13	215.07
964.42	215.01
964.72	214.85
965.01	214.83
965.31	214.80
965.60	214.73
965.90	214.88
966.19	214.80
966.49	214.81
966.78	214.82
967.08	214.78
967.37	214.81
967.67	214.76
967.96	214.80
968.26	214.78
968.55	214.84
968.85	214.82
969.14	214.81
969.43	214.79
969.73	214.78
970.02	214.78
970.32	214.78
970.61	214.76
970.91	214.71
971.20	214.72
971.49	214.67
971.79	214.70
972.08	214.53
972.38	214.59
972.67	214.58
972.96	214.61
973.26	214.54
973.55	214.62
973.85	214.62
974.14	214.58
974.43	214.60
974.73	214.56
975.02	214.58
975.31	214.58
975.61	214.58
975.90	214.53
976.19	214.53
976.49	214.54
976.78	214.55
977.07	214.50
977.37	214.52
977.66	214.56
977.95	214.52
978.24	214.53
978.54	214.55
978.83	214.51
979.12	214.48
979.42	214.52
979.71	214.45
980.00	214.48
980.29	214.51
980.59	214.42
980.88	214.47
981.17	214.46
981.46	214.43
981.76	214.45
982.05	214.56
982.34	214.54
982.63	214.55
982.93	214.57
983.22	214.63
983.51	214.61
983.80	214.67
984.09	214.71
984.39	214.69
984.68	214.68
984.97	214.71
985.26	214.71
985.55	214.70
985.85	214.67
986.14	214.67
986.43	214.73
986.72	214.75
987.01	214.65
987.30	214.61
987.59	214.61
987.89	214.60
988.18	214.50
988.47	214.51
988.76	214.49
989.05	214.47
989.34	214.46
989.63	214.51
989.92	214.50
990.22	214.46
990.51	214.49
990.80	214.48
991.09	214.50
991.38	214.54
991.67	214.52
991.96	214.51
992.25	214.50
992.54	214.44
992.83	214.44
993.12	214.47
993.41	214.51
993.70	214.61
993.99	214.67
994.28	214.72
994.58	214.75
994.87	214.72
995.16	214.74
995.45	214.71
995.74	214.67
996.03	214.65
996.32	214.69
996.61	214.70
996.90	214.70
997.19	214.68
997.48	214.66
997.77	214.64
998.06	214.67
998.34	214.66
998.63	214.66
998.92	214.68
999.21	214.70
999.50	214.70
999.79	214.62
1000.08	214.57
1000.37	214.53
1000.66	214.49
1000.95	214.51
1001.24	214.52
1001.53	214.55
1001.82	214.53
1002.11	214.52
1002.40	214.52
1002.68	214.57
1002.97	214.69
1003.26	214.67
1003.55	214.65
1003.84	214.69
1004.13	214.74
1004.42	214.73
1004.71	214.71
1004.99	214.69
1005.28	214.75
1005.57	214.76
1005.86	214.76
1006.15	214.75
1006.44	214.75
1006.72	214.78
1007.01	214.78
1007.30	214.74
1007.59	214.69
1007.88	214.68
1008.17	214.67
1008.45	214.66
1008.74	214.56
1009.03	214.51
1009.32	214.52
1009.60	214.52
1009.89	214.50
1010.18	214.41
1010.47	214.43
1010.76	214.45
1011.04	214.45
1011.33	214.47
1011.62	214.46
1011.91	214.48
1012.19	214.50
1012.48	214.51
1012.77	214.51
1013.05	214.61
1013.34	214.64
1013.63	214.64
1013.92	214.67
1014.20	214.64
1014.49	214.62
1014.78	214.68
1015.06	214.58
1015.35	214.57
1015.64	214.62
1015.92	214.62
1016.21	214.65
1016.50	214.65
1016.78	214.67
1017.07	214.70
1017.36	214.64
1017.64	214.63
1017.93	214.65
1018.22	214.64
1018.50	214.64
1018.79	214.63
1019.08	214.51
1019.36	214.53
1019.65	214.54
1019.93	214.59
1020.22	214.65
1020.51	214.77
1020.79	214.75
1021.08	214.54
1021.36	214.20
1021.65	214.53
1021.94	214.12
1022.22	214.78
1022.51	214.48
1022.79	215.56
1023.08	214.90
1023.36	217.05
1023.65	214.62
>>>>>End Processed Spectral Data<<<<<
