SpectraSuite Data File
++++++++++++++++++++++++++++++++++++
Date: Tue Jan 29 16:03:41 EST 2013
User: group
Dark Spectrum Present: No
Reference Spectrum Present: No
Number of Sampled Component Spectra: 1
Spectrometers: USB2E7196
Integration Time (usec): 65000 (USB2E7196)
Spectra Averaged: 100 (USB2E7196)
Boxcar Smoothing: 10 (USB2E7196)
Correct for Electrical Dark: No (USB2E7196)
Strobe/Lamp Enabled: No (USB2E7196)
Correct for Detector Non-linearity: No (USB2E7196)
Correct for Stray Light: No (USB2E7196)
Number of Pixels in Processed Spectrum: 2048
>>>>>Begin Processed Spectral Data<<<<<
339.09	0.00
339.48	202.24
339.86	203.88
340.24	205.26
340.63	206.91
341.01	211.88
341.39	209.89
341.78	211.53
342.16	212.72
342.54	213.05
342.93	201.83
343.31	212.03
343.69	212.56
344.07	213.04
344.46	213.50
344.84	213.88
345.22	214.04
345.60	214.28
345.99	214.44
346.37	214.56
346.75	214.67
347.13	214.75
347.52	214.85
347.90	214.95
348.28	215.00
348.66	215.10
349.05	215.06
349.43	215.14
349.81	215.17
350.19	215.26
350.57	215.34
350.96	215.43
351.34	215.55
351.72	215.68
352.10	215.78
352.48	215.83
352.87	215.91
353.25	215.98
353.63	216.04
354.01	216.12
354.39	216.20
354.77	216.29
355.15	216.41
355.54	216.42
355.92	216.44
356.30	216.52
356.68	216.72
357.06	216.81
357.44	216.85
357.82	216.94
358.20	216.98
358.58	217.02
358.97	217.10
359.35	217.18
359.73	217.28
360.11	217.35
360.49	217.41
360.87	217.47
361.25	217.52
361.63	217.64
362.01	217.71
362.39	217.73
362.77	217.78
363.15	217.82
363.53	217.88
363.91	217.90
364.29	217.93
364.67	217.75
365.05	217.76
365.43	217.81
365.81	217.84
366.19	217.94
366.57	218.04
366.95	218.04
367.33	218.00
367.71	217.98
368.09	218.01
368.47	218.01
368.85	217.99
369.23	218.04
369.61	217.97
369.99	218.00
370.37	218.02
370.75	218.11
371.13	218.03
371.51	218.00
371.89	218.04
372.27	218.00
372.65	217.99
373.03	217.98
373.41	217.93
373.78	217.87
374.16	217.72
374.54	217.60
374.92	217.56
375.30	217.51
375.68	217.41
376.06	217.37
376.44	217.34
376.82	217.33
377.19	217.28
377.57	217.22
377.95	217.11
378.33	217.07
378.71	216.87
379.09	216.90
379.47	216.85
379.84	216.75
380.22	216.71
380.60	216.64
380.98	216.59
381.36	216.53
381.73	216.51
382.11	216.51
382.49	216.51
382.87	216.46
383.25	216.42
383.62	216.67
384.00	216.59
384.38	216.57
384.76	216.59
385.13	216.61
385.51	216.59
385.89	216.54
386.27	216.50
386.64	216.51
387.02	216.43
387.40	216.38
387.78	216.38
388.15	216.37
388.53	216.36
388.91	216.34
389.29	216.31
389.66	216.30
390.04	216.29
390.42	216.30
390.79	216.31
391.17	216.32
391.55	216.06
391.92	216.03
392.30	216.04
392.68	215.96
393.05	215.90
393.43	215.88
393.81	215.93
394.18	215.94
394.56	215.96
394.94	216.01
395.31	216.02
395.69	216.07
396.06	216.09
396.44	216.11
396.82	216.11
397.19	216.23
397.57	216.22
397.95	216.23
398.32	216.17
398.70	216.20
399.07	216.28
399.45	216.31
399.82	216.36
400.20	216.40
400.58	216.45
400.95	216.44
401.33	216.56
401.70	216.73
402.08	216.77
402.45	216.83
402.83	216.98
403.20	217.08
403.58	217.16
403.95	217.32
404.33	217.47
404.71	217.61
405.08	217.85
405.46	218.06
405.83	218.26
406.21	218.49
406.58	218.68
406.96	218.86
407.33	219.14
407.70	219.44
408.08	219.87
408.45	220.20
408.83	220.63
409.20	220.97
409.58	221.23
409.95	221.67
410.33	222.13
410.70	222.52
411.08	223.07
411.45	223.62
411.82	224.15
412.20	224.81
412.57	225.58
412.95	226.13
413.32	226.91
413.69	227.68
414.07	228.58
414.44	229.54
414.82	230.51
415.19	231.63
415.56	232.76
415.94	233.93
416.31	235.31
416.68	236.60
417.06	238.12
417.43	239.60
417.81	241.33
418.18	243.04
418.55	244.91
418.93	246.86
419.30	248.89
419.67	251.05
420.04	253.26
420.42	255.61
420.79	258.36
421.16	261.06
421.54	263.94
421.91	266.81
422.28	269.81
422.66	272.99
423.03	276.16
423.40	279.41
423.77	282.84
424.15	286.37
424.52	290.07
424.89	294.10
425.26	298.06
425.64	301.81
426.01	305.97
426.38	310.27
426.75	314.69
427.13	319.23
427.50	324.02
427.87	329.00
428.24	333.99
428.61	338.77
428.99	344.06
429.36	349.82
429.73	355.49
430.10	361.17
430.47	367.08
430.85	373.15
431.22	379.62
431.59	386.51
431.96	393.05
432.33	400.27
432.70	407.27
433.08	415.49
433.45	423.26
433.82	430.99
434.19	439.56
434.56	447.91
434.93	456.00
435.30	463.98
435.68	472.80
436.05	481.43
436.42	489.98
436.79	497.90
437.16	506.37
437.53	515.26
437.90	524.02
438.27	532.62
438.64	541.53
439.01	549.78
439.38	557.11
439.75	564.26
440.13	572.45
440.50	580.08
440.87	586.29
441.24	592.64
441.61	599.69
441.98	604.87
442.35	610.91
442.72	616.99
443.09	622.83
443.46	626.38
443.83	628.79
444.20	630.91
444.57	633.76
444.94	635.14
445.31	636.59
445.68	637.96
446.05	638.57
446.42	637.72
446.79	636.76
447.16	635.68
447.53	634.87
447.90	631.58
448.27	628.37
448.64	623.83
449.01	620.61
449.37	614.83
449.74	609.36
450.11	602.77
450.48	595.62
450.85	588.38
451.22	582.20
451.59	576.32
451.96	570.71
452.33	563.23
452.70	556.40
453.07	548.22
453.43	539.96
453.80	531.98
454.17	524.32
454.54	517.07
454.91	509.22
455.28	501.58
455.65	494.47
456.02	487.31
456.38	481.27
456.75	473.78
457.12	467.56
457.49	461.34
457.86	455.41
458.23	450.26
458.59	444.60
458.96	438.83
459.33	433.74
459.70	428.60
460.07	424.56
460.43	419.85
460.80	415.43
461.17	411.56
461.54	407.54
461.91	403.66
462.27	399.70
462.64	396.39
463.01	392.78
463.38	389.22
463.74	385.64
464.11	382.56
464.48	379.78
464.85	376.82
465.21	374.46
465.58	371.90
465.95	368.90
466.32	366.41
466.68	363.93
467.05	361.44
467.42	359.00
467.78	356.40
468.15	353.96
468.52	352.13
468.88	349.75
469.25	347.61
469.62	345.87
469.98	344.01
470.35	342.25
470.72	340.61
471.08	338.92
471.45	337.52
471.82	336.06
472.18	334.47
472.55	333.30
472.92	331.98
473.28	330.86
473.65	329.76
474.02	328.68
474.38	327.83
474.75	327.12
475.11	326.39
475.48	325.86
475.85	325.39
476.21	324.95
476.58	324.66
476.94	324.42
477.31	324.17
477.67	323.99
478.04	323.90
478.41	323.88
478.77	324.01
479.14	323.99
479.50	324.06
479.87	324.36
480.23	324.70
480.60	324.95
480.96	325.21
481.33	325.83
481.69	326.42
482.06	326.99
482.42	327.48
482.79	328.09
483.15	328.88
483.52	329.83
483.88	330.73
484.25	331.65
484.61	332.69
484.98	333.77
485.34	335.03
485.71	336.35
486.07	337.78
486.44	339.11
486.80	340.71
487.17	342.45
487.53	344.26
487.90	346.13
488.26	348.18
488.62	350.35
488.99	352.35
489.35	354.52
489.72	356.86
490.08	359.40
490.44	361.91
490.81	364.63
491.17	367.32
491.54	370.30
491.90	373.28
492.26	376.51
492.63	379.91
492.99	383.45
493.36	387.14
493.72	391.04
494.08	395.06
494.45	399.27
494.81	403.63
495.17	408.16
495.54	412.86
495.90	417.67
496.26	422.60
496.63	427.81
496.99	433.18
497.35	438.72
497.72	444.49
498.08	450.40
498.44	456.46
498.80	462.91
499.17	469.36
499.53	476.13
499.89	482.98
500.26	489.93
500.62	496.91
500.98	504.26
501.34	511.64
501.71	519.40
502.07	527.17
502.43	535.10
502.79	543.12
503.16	551.43
503.52	559.98
503.88	568.68
504.24	577.61
504.60	586.61
504.97	595.85
505.33	605.11
505.69	614.95
506.05	624.76
506.41	634.60
506.78	644.63
507.14	654.87
507.50	665.34
507.86	675.95
508.22	686.71
508.59	697.35
508.95	708.44
509.31	719.64
509.67	731.01
510.03	742.43
510.39	754.24
510.75	766.08
511.12	777.98
511.48	790.03
511.84	802.15
512.20	814.51
512.56	827.01
512.92	839.74
513.28	852.35
513.64	865.02
514.00	877.71
514.37	890.57
514.73	903.47
515.09	916.27
515.45	928.99
515.81	941.91
516.17	955.12
516.53	968.17
516.89	981.12
517.25	994.19
517.61	1007.46
517.97	1020.61
518.33	1033.61
518.69	1046.94
519.05	1060.44
519.41	1073.97
519.77	1087.58
520.13	1100.77
520.49	1113.78
520.85	1126.91
521.21	1140.08
521.57	1153.64
521.93	1166.58
522.29	1180.14
522.65	1193.60
523.01	1207.12
523.37	1220.11
523.73	1233.20
524.09	1246.10
524.45	1259.19
524.81	1272.46
525.17	1285.59
525.53	1298.63
525.89	1311.58
526.25	1324.45
526.61	1337.05
526.97	1349.89
527.33	1362.56
527.68	1375.72
528.04	1388.83
528.40	1401.59
528.76	1414.71
529.12	1427.27
529.48	1440.20
529.84	1452.23
530.20	1464.61
530.56	1476.84
530.91	1489.87
531.27	1502.52
531.63	1515.07
531.99	1527.63
532.35	1539.58
532.71	1551.70
533.07	1564.17
533.42	1576.15
533.78	1587.96
534.14	1599.75
534.50	1610.59
534.86	1621.82
535.21	1632.41
535.57	1643.52
535.93	1654.71
536.29	1665.53
536.65	1676.66
537.00	1687.42
537.36	1698.58
537.72	1709.43
538.08	1720.58
538.44	1731.07
538.79	1741.62
539.15	1752.14
539.51	1762.55
539.87	1773.50
540.22	1784.03
540.58	1794.68
540.94	1805.28
541.29	1815.19
541.65	1824.69
542.01	1835.06
542.37	1844.93
542.72	1854.95
543.08	1864.59
543.44	1874.62
543.79	1883.65
544.15	1892.87
544.51	1902.71
544.87	1912.16
545.22	1920.90
545.58	1929.43
545.94	1938.06
546.29	1946.52
546.65	1954.50
547.01	1962.61
547.36	1970.08
547.72	1977.53
548.07	1984.92
548.43	1992.59
548.79	2000.26
549.14	2008.25
549.50	2016.33
549.86	2023.83
550.21	2030.83
550.57	2038.32
550.92	2044.94
551.28	2052.18
551.64	2059.22
551.99	2066.43
552.35	2073.41
552.70	2080.18
553.06	2086.76
553.41	2092.91
553.77	2099.24
554.13	2105.70
554.48	2112.42
554.84	2119.25
555.19	2125.60
555.55	2131.88
555.90	2137.88
556.26	2144.50
556.61	2150.19
556.97	2154.99
557.32	2160.89
557.68	2167.23
558.03	2172.79
558.39	2177.94
558.74	2183.78
559.10	2189.30
559.45	2194.78
559.81	2200.23
560.16	2205.75
560.52	2211.60
560.87	2218.11
561.23	2224.08
561.58	2230.55
561.94	2235.64
562.29	2240.57
562.64	2246.77
563.00	2252.38
563.35	2258.00
563.71	2263.97
564.06	2269.78
564.42	2275.60
564.77	2280.55
565.12	2285.75
565.48	2291.12
565.83	2296.68
566.19	2302.35
566.54	2307.90
566.89	2312.57
567.25	2317.20
567.60	2323.08
567.96	2328.29
568.31	2332.84
568.66	2337.09
569.02	2341.05
569.37	2344.95
569.72	2349.46
570.08	2353.03
570.43	2356.08
570.78	2359.06
571.14	2361.77
571.49	2364.84
571.84	2368.52
572.20	2371.49
572.55	2374.67
572.90	2376.86
573.26	2379.94
573.61	2382.34
573.96	2384.53
574.31	2386.58
574.67	2388.64
575.02	2389.58
575.37	2391.15
575.72	2392.07
576.08	2393.70
576.43	2394.21
576.78	2395.09
577.13	2396.99
577.49	2398.25
577.84	2399.74
578.19	2401.50
578.54	2402.24
578.90	2403.52
579.25	2403.69
579.60	2404.02
579.95	2403.50
580.30	2403.96
580.66	2403.46
581.01	2401.99
581.36	2399.97
581.71	2398.84
582.06	2398.15
582.42	2397.53
582.77	2395.66
583.12	2394.22
583.47	2393.13
583.82	2392.75
584.17	2391.67
584.53	2389.62
584.88	2387.81
585.23	2386.10
585.58	2384.07
585.93	2381.95
586.28	2379.80
586.63	2377.68
586.98	2375.70
587.34	2374.04
587.69	2371.85
588.04	2370.09
588.39	2368.87
588.74	2366.59
589.09	2364.13
589.44	2361.18
589.79	2358.98
590.14	2357.23
590.49	2354.54
590.84	2351.01
591.19	2348.09
591.54	2344.93
591.89	2341.03
592.25	2337.92
592.60	2333.87
592.95	2329.90
593.30	2326.07
593.65	2321.88
594.00	2317.50
594.35	2314.48
594.70	2309.91
595.05	2305.45
595.40	2300.16
595.75	2294.75
596.10	2291.12
596.45	2286.39
596.80	2281.92
597.15	2276.50
597.50	2270.62
597.85	2265.78
598.19	2260.60
598.54	2255.00
598.89	2250.14
599.24	2245.75
599.59	2239.69
599.94	2234.13
600.29	2228.42
600.64	2222.61
600.99	2216.05
601.34	2210.86
601.69	2203.91
602.04	2197.66
602.39	2191.12
602.74	2185.12
603.08	2179.65
603.43	2173.25
603.78	2166.49
604.13	2159.49
604.48	2152.59
604.83	2146.63
605.18	2140.50
605.53	2133.54
605.87	2126.49
606.22	2119.76
606.57	2111.93
606.92	2104.23
607.27	2097.36
607.62	2090.69
607.96	2083.67
608.31	2077.18
608.66	2069.42
609.01	2061.98
609.36	2054.87
609.70	2047.30
610.05	2039.51
610.40	2031.26
610.75	2023.09
611.10	2015.61
611.44	2006.90
611.79	1998.12
612.14	1988.16
612.49	1977.71
612.83	1968.57
613.18	1959.49
613.53	1950.10
613.88	1940.50
614.22	1931.93
614.57	1921.96
614.92	1911.39
615.27	1901.42
615.61	1891.33
615.96	1881.73
616.31	1872.27
616.65	1862.99
617.00	1853.14
617.35	1843.54
617.70	1833.78
618.04	1823.63
618.39	1813.25
618.74	1803.57
619.08	1794.13
619.43	1785.43
619.78	1777.14
620.12	1768.55
620.47	1758.74
620.82	1748.49
621.16	1738.65
621.51	1728.63
621.85	1718.84
622.20	1708.42
622.55	1697.74
622.89	1687.94
623.24	1678.32
623.59	1668.41
623.93	1658.25
624.28	1648.64
624.62	1638.38
624.97	1628.11
625.32	1618.57
625.66	1609.77
626.01	1600.87
626.35	1591.27
626.70	1581.12
627.04	1570.83
627.39	1560.66
627.73	1551.32
628.08	1542.24
628.43	1532.65
628.77	1523.46
629.12	1514.58
629.46	1506.69
629.81	1498.30
630.15	1488.64
630.50	1478.61
630.84	1468.18
631.19	1458.37
631.53	1448.83
631.88	1438.76
632.22	1428.76
632.57	1419.20
632.91	1409.11
633.26	1399.15
633.60	1389.53
633.95	1380.20
634.29	1370.96
634.64	1361.52
634.98	1351.66
635.32	1342.32
635.67	1333.81
636.01	1324.51
636.36	1314.58
636.70	1304.99
637.05	1295.63
637.39	1286.67
637.73	1278.07
638.08	1270.47
638.42	1262.04
638.77	1253.25
639.11	1245.02
639.45	1237.14
639.80	1228.44
640.14	1219.73
640.49	1210.94
640.83	1202.11
641.17	1194.07
641.52	1185.76
641.86	1177.21
642.20	1169.31
642.55	1160.74
642.89	1151.92
643.23	1143.18
643.58	1135.13
643.92	1126.18
644.26	1117.48
644.61	1109.01
644.95	1100.27
645.29	1090.91
645.64	1081.77
645.98	1073.41
646.32	1065.44
646.66	1056.91
647.01	1048.57
647.35	1040.28
647.69	1031.83
648.04	1023.52
648.38	1014.59
648.72	1005.88
649.06	997.40
649.41	989.21
649.75	981.19
650.09	973.25
650.43	965.18
650.78	956.97
651.12	949.31
651.46	941.96
651.80	934.70
652.14	927.31
652.49	919.93
652.83	912.67
653.17	904.98
653.51	897.35
653.85	890.11
654.20	882.85
654.54	875.34
654.88	868.26
655.22	861.20
655.56	854.19
655.90	847.34
656.25	840.72
656.59	833.78
656.93	826.84
657.27	819.78
657.61	812.95
657.95	806.94
658.29	801.05
658.64	794.88
658.98	788.48
659.32	782.00
659.66	775.83
660.00	769.41
660.34	763.43
660.68	757.39
661.02	751.15
661.36	745.36
661.70	739.68
662.05	734.03
662.39	728.61
662.73	723.38
663.07	718.04
663.41	712.54
663.75	706.95
664.09	701.32
664.43	696.02
664.77	690.68
665.11	684.80
665.45	678.91
665.79	673.22
666.13	667.65
666.47	662.23
666.81	656.80
667.15	651.57
667.49	646.37
667.83	641.15
668.17	635.93
668.51	630.82
668.85	625.92
669.19	621.14
669.53	616.13
669.87	610.99
670.21	606.36
670.55	601.64
670.89	597.28
671.23	593.07
671.57	588.69
671.91	584.46
672.25	580.53
672.58	576.41
672.92	572.37
673.26	568.47
673.60	564.65
673.94	560.89
674.28	557.33
674.62	553.66
674.96	550.00
675.30	546.54
675.64	542.94
675.97	539.40
676.31	535.73
676.65	532.12
676.99	528.74
677.33	524.89
677.67	521.26
678.01	517.43
678.34	513.80
678.68	510.41
679.02	506.86
679.36	503.14
679.70	499.61
680.04	496.19
680.37	492.78
680.71	489.52
681.05	486.38
681.39	483.14
681.73	480.01
682.06	477.04
682.40	474.00
682.74	470.84
683.08	467.74
683.42	464.67
683.75	461.77
684.09	458.81
684.43	456.05
684.77	453.16
685.10	450.37
685.44	447.51
685.78	444.58
686.12	441.86
686.45	439.18
686.79	436.55
687.13	434.00
687.46	431.47
687.80	428.78
688.14	426.04
688.48	423.52
688.81	420.89
689.15	418.32
689.49	415.72
689.82	413.26
690.16	410.67
690.50	408.27
690.83	405.80
691.17	403.31
691.51	400.93
691.84	398.77
692.18	396.55
692.52	394.37
692.85	392.26
693.19	390.17
693.52	388.02
693.86	385.83
694.20	383.68
694.53	381.56
694.87	379.46
695.21	377.33
695.54	375.17
695.88	373.10
696.21	370.90
696.55	368.87
696.88	366.86
697.22	364.94
697.56	363.08
697.89	361.23
698.23	359.48
698.56	357.72
698.90	356.04
699.23	354.22
699.57	352.39
699.90	350.59
700.24	348.81
700.58	347.10
700.91	345.50
701.25	343.98
701.58	342.43
701.92	340.82
702.25	339.27
702.59	337.69
702.92	336.14
703.26	334.64
703.59	333.23
703.93	332.00
704.26	330.58
704.60	329.11
704.93	327.69
705.26	326.26
705.60	324.82
705.93	323.33
706.27	322.05
706.60	320.84
706.94	319.66
707.27	318.30
707.61	317.01
707.94	315.67
708.27	314.19
708.61	312.77
708.94	311.45
709.28	310.20
709.61	309.04
709.94	307.88
710.28	306.71
710.61	305.53
710.95	304.13
711.28	303.11
711.61	301.95
711.95	300.87
712.28	299.72
712.61	298.58
712.95	297.52
713.28	296.53
713.61	295.42
713.95	294.28
714.28	293.29
714.61	292.24
714.95	291.29
715.28	290.32
715.61	289.34
715.95	288.44
716.28	287.49
716.61	286.54
716.95	285.56
717.28	284.68
717.61	283.76
717.94	282.90
718.28	281.89
718.61	281.03
718.94	280.14
719.27	279.34
719.61	278.54
719.94	277.74
720.27	276.76
720.60	275.93
720.94	275.19
721.27	274.51
721.60	273.87
721.93	273.17
722.27	272.56
722.60	271.94
722.93	271.23
723.26	270.61
723.59	269.95
723.93	269.37
724.26	268.72
724.59	268.12
724.92	267.57
725.25	267.06
725.59	266.53
725.92	266.03
726.25	265.44
726.58	264.84
726.91	264.23
727.24	263.76
727.57	263.20
727.91	262.57
728.24	262.01
728.57	261.40
728.90	260.90
729.23	260.26
729.56	259.79
729.89	259.31
730.22	258.80
730.55	258.25
730.89	257.69
731.22	257.18
731.55	256.63
731.88	256.13
732.21	255.58
732.54	255.04
732.87	254.55
733.20	254.07
733.53	253.66
733.86	253.25
734.19	252.73
734.52	252.36
734.85	252.10
735.18	251.64
735.51	251.30
735.84	250.84
736.17	250.49
736.50	249.97
736.83	249.77
737.16	249.37
737.49	249.02
737.82	248.63
738.15	248.31
738.48	247.99
738.81	247.63
739.14	247.25
739.47	246.86
739.80	246.48
740.13	246.17
740.46	245.75
740.79	245.34
741.12	245.01
741.45	244.63
741.78	244.18
742.11	243.92
742.44	243.55
742.77	243.28
743.10	242.95
743.43	242.61
743.75	242.08
744.08	242.00
744.41	241.65
744.74	241.33
745.07	240.97
745.40	240.63
745.73	240.36
746.06	240.05
746.39	239.79
746.71	239.47
747.04	239.12
747.37	238.84
747.70	238.59
748.03	238.30
748.36	238.06
748.68	237.81
749.01	237.46
749.34	237.17
749.67	236.85
750.00	236.58
750.33	236.48
750.65	236.23
750.98	235.74
751.31	235.50
751.64	235.29
751.97	235.15
752.29	234.92
752.62	234.57
752.95	234.32
753.28	234.06
753.60	233.82
753.93	233.64
754.26	233.45
754.59	233.14
754.91	232.90
755.24	232.63
755.57	232.37
755.90	232.13
756.22	231.90
756.55	231.67
756.88	231.42
757.20	231.07
757.53	230.82
757.86	230.62
758.19	230.45
758.51	230.22
758.84	229.93
759.17	229.70
759.49	229.55
759.82	229.46
760.15	229.30
760.47	229.12
760.80	228.89
761.13	228.71
761.45	228.56
761.78	228.38
762.11	228.24
762.43	228.07
762.76	227.93
763.08	227.79
763.41	227.65
763.74	227.50
764.06	227.33
764.39	227.19
764.71	227.01
765.04	226.85
765.37	226.74
765.69	226.61
766.02	226.49
766.34	226.36
766.67	226.17
767.00	226.07
767.32	226.04
767.65	226.04
767.97	225.89
768.30	225.79
768.62	225.67
768.95	225.51
769.27	225.37
769.60	225.26
769.92	225.10
770.25	224.94
770.57	224.80
770.90	224.71
771.22	224.58
771.55	224.52
771.87	224.43
772.20	224.28
772.52	224.34
772.85	224.49
773.17	224.38
773.50	224.23
773.82	224.12
774.15	223.92
774.47	223.70
774.80	223.61
775.12	223.50
775.45	223.42
775.77	223.37
776.09	223.28
776.42	223.21
776.74	223.22
777.07	223.12
777.39	223.09
777.72	222.99
778.04	222.90
778.36	222.78
778.69	222.68
779.01	222.60
779.33	222.34
779.66	221.97
779.98	221.89
780.31	221.81
780.63	221.81
780.95	221.78
781.28	221.73
781.60	221.62
781.92	221.57
782.25	221.51
782.57	221.44
782.89	221.38
783.22	221.31
783.54	221.15
783.86	221.15
784.19	221.07
784.51	221.12
784.83	221.06
785.16	221.00
785.48	220.97
785.80	220.96
786.12	220.93
786.45	220.93
786.77	220.89
787.09	220.86
787.42	220.74
787.74	220.67
788.06	220.58
788.38	220.57
788.71	220.48
789.03	220.42
789.35	220.38
789.67	220.28
789.99	220.22
790.32	220.16
790.64	220.11
790.96	220.22
791.28	220.07
791.61	220.01
791.93	219.97
792.25	219.89
792.57	219.98
792.89	219.86
793.21	219.81
793.54	219.75
793.86	219.67
794.18	219.62
794.50	219.57
794.82	219.57
795.14	219.53
795.47	219.52
795.79	219.50
796.11	219.41
796.43	219.39
796.75	219.38
797.07	219.34
797.39	219.31
797.71	219.11
798.04	219.03
798.36	219.00
798.68	218.96
799.00	218.93
799.32	218.78
799.64	218.79
799.96	218.75
800.28	218.77
800.60	218.72
800.92	218.71
801.24	218.64
801.56	218.60
801.89	218.54
802.21	218.50
802.53	218.41
802.85	218.40
803.17	218.45
803.49	218.39
803.81	218.35
804.13	218.28
804.45	218.22
804.77	218.26
805.09	218.22
805.41	218.17
805.73	218.11
806.05	218.01
806.37	217.99
806.69	217.97
807.01	217.89
807.33	217.87
807.65	217.76
807.97	217.84
808.28	217.79
808.60	217.77
808.92	217.73
809.24	217.87
809.56	217.82
809.88	217.73
810.20	217.69
810.52	217.70
810.84	217.65
811.16	217.62
811.48	217.57
811.80	217.64
812.12	217.60
812.43	217.62
812.75	217.61
813.07	217.52
813.39	217.47
813.71	217.43
814.03	217.39
814.35	217.38
814.67	217.27
814.98	217.24
815.30	217.25
815.62	217.19
815.94	217.02
816.26	217.04
816.58	216.97
816.89	216.99
817.21	216.92
817.53	216.94
817.85	216.92
818.17	216.86
818.48	216.75
818.80	216.80
819.12	216.73
819.44	216.71
819.76	216.69
820.07	216.69
820.39	216.65
820.71	216.66
821.03	216.62
821.34	216.58
821.66	216.60
821.98	216.59
822.30	216.58
822.61	216.69
822.93	216.65
823.25	216.64
823.57	216.59
823.88	216.62
824.20	216.60
824.52	216.63
824.83	216.67
825.15	216.63
825.47	216.61
825.79	216.66
826.10	216.64
826.42	216.65
826.74	216.68
827.05	216.67
827.37	216.68
827.69	216.67
828.00	216.67
828.32	216.65
828.64	216.59
828.95	216.69
829.27	216.62
829.58	216.58
829.90	216.59
830.22	216.62
830.53	216.54
830.85	216.53
831.17	216.45
831.48	216.41
831.80	216.41
832.11	216.38
832.43	216.32
832.75	216.30
833.06	216.39
833.38	216.31
833.69	216.31
834.01	216.28
834.32	216.28
834.64	216.27
834.96	216.27
835.27	216.23
835.59	216.16
835.90	216.10
836.22	216.08
836.53	216.02
836.85	215.97
837.16	216.20
837.48	216.16
837.79	216.23
838.11	216.24
838.42	216.23
838.74	216.24
839.05	216.20
839.37	216.19
839.68	216.04
840.00	216.05
840.31	216.07
840.63	216.09
840.94	216.06
841.26	216.02
841.57	216.02
841.88	216.06
842.20	216.03
842.51	215.97
842.83	216.00
843.14	216.23
843.46	216.24
843.77	216.11
844.08	216.08
844.40	216.02
844.71	215.99
845.03	215.98
845.34	215.95
845.65	215.96
845.97	215.96
846.28	215.99
846.60	215.99
846.91	215.95
847.22	215.91
847.54	215.93
847.85	215.95
848.16	215.90
848.48	215.87
848.79	215.95
849.10	215.97
849.42	215.93
849.73	215.72
850.04	215.70
850.36	215.62
850.67	215.69
850.98	215.72
851.30	215.74
851.61	215.72
851.92	215.73
852.23	215.80
852.55	215.78
852.86	215.78
853.17	215.78
853.49	215.82
853.80	215.84
854.11	215.87
854.42	215.90
854.74	215.91
855.05	215.91
855.36	215.79
855.67	215.82
855.99	215.85
856.30	216.07
856.61	216.07
856.92	216.06
857.23	216.02
857.55	215.99
857.86	215.97
858.17	216.01
858.48	215.99
858.79	215.93
859.11	215.97
859.42	215.97
859.73	215.94
860.04	215.93
860.35	215.87
860.66	215.79
860.98	215.74
861.29	215.75
861.60	215.75
861.91	215.80
862.22	215.76
862.53	215.72
862.84	215.50
863.16	215.52
863.47	215.49
863.78	215.49
864.09	215.47
864.40	215.50
864.71	215.47
865.02	215.48
865.33	215.46
865.64	215.42
865.95	215.40
866.27	215.53
866.58	215.48
866.89	215.51
867.20	215.54
867.51	215.54
867.82	215.56
868.13	215.60
868.44	215.54
868.75	215.56
869.06	215.60
869.37	215.62
869.68	215.57
869.99	215.59
870.30	215.59
870.61	215.62
870.92	215.59
871.23	215.59
871.54	215.59
871.85	215.63
872.16	215.65
872.47	215.64
872.78	215.52
873.09	215.55
873.40	215.54
873.71	215.53
874.02	215.53
874.33	215.47
874.64	215.45
874.95	215.49
875.26	215.45
875.56	215.40
875.87	215.37
876.18	215.37
876.49	215.60
876.80	215.58
877.11	215.54
877.42	215.53
877.73	215.52
878.04	215.48
878.35	215.46
878.66	215.48
878.96	215.47
879.27	215.46
879.58	215.46
879.89	215.42
880.20	215.51
880.51	215.47
880.82	215.50
881.12	215.48
881.43	215.42
881.74	215.40
882.05	215.40
882.36	215.42
882.67	215.44
882.97	215.20
883.28	215.21
883.59	215.19
883.90	215.20
884.21	215.26
884.51	215.25
884.82	215.23
885.13	215.18
885.44	215.19
885.74	215.18
886.05	215.16
886.36	215.17
886.67	215.06
886.98	215.18
887.28	215.18
887.59	215.19
887.90	215.23
888.20	215.24
888.51	215.29
888.82	215.25
889.13	215.26
889.43	215.42
889.74	215.41
890.05	215.41
890.35	215.43
890.66	215.35
890.97	215.35
891.28	215.34
891.58	215.37
891.89	215.37
892.20	215.36
892.50	215.32
892.81	215.32
893.12	215.35
893.42	215.26
893.73	215.27
894.04	215.27
894.34	215.27
894.65	215.23
894.95	215.22
895.26	215.25
895.57	215.32
895.87	215.15
896.18	215.17
896.48	215.21
896.79	215.20
897.10	215.24
897.40	215.25
897.71	215.28
898.01	215.30
898.32	215.34
898.63	215.34
898.93	215.36
899.24	215.38
899.54	215.33
899.85	215.33
900.15	215.33
900.46	215.32
900.76	215.36
901.07	215.39
901.38	215.39
901.68	215.37
901.99	215.29
902.29	215.32
902.60	215.31
902.90	215.27
903.21	215.25
903.51	215.22
903.82	215.25
904.12	215.22
904.43	215.21
904.73	215.19
905.03	215.20
905.34	215.43
905.64	215.41
905.95	215.45
906.25	215.45
906.56	215.42
906.86	215.39
907.17	215.33
907.47	215.32
907.77	215.27
908.08	215.26
908.38	215.26
908.69	215.26
908.99	215.27
909.30	215.27
909.60	215.24
909.90	215.27
910.21	215.22
910.51	215.17
910.81	215.15
911.12	215.13
911.42	215.13
911.73	214.89
912.03	214.89
912.33	214.92
912.64	214.90
912.94	214.89
913.24	214.88
913.55	214.89
913.85	214.94
914.15	214.99
914.46	215.01
914.76	214.98
915.06	214.96
915.37	214.94
915.67	214.91
915.97	214.94
916.27	214.92
916.58	214.93
916.88	214.95
917.18	214.91
917.49	215.08
917.79	215.07
918.09	215.10
918.39	215.19
918.70	215.18
919.00	215.18
919.30	215.30
919.60	215.28
919.91	215.25
920.21	215.24
920.51	215.19
920.81	215.17
921.12	215.20
921.42	215.19
921.72	215.20
922.02	215.25
922.32	215.25
922.63	215.24
922.93	215.37
923.23	215.41
923.53	215.44
923.83	215.30
924.13	215.31
924.44	215.31
924.74	215.32
925.04	215.36
925.34	215.36
925.64	215.24
925.94	215.28
926.24	215.39
926.55	215.38
926.85	215.46
927.15	215.47
927.45	215.47
927.75	215.50
928.05	215.51
928.35	215.48
928.65	215.56
928.95	215.57
929.26	215.47
929.56	215.51
929.86	215.53
930.16	215.50
930.46	215.49
930.76	215.50
931.06	215.41
931.36	215.33
931.66	215.39
931.96	215.46
932.26	215.44
932.56	215.39
932.86	215.39
933.16	215.34
933.46	215.32
933.76	215.29
934.06	215.31
934.36	215.35
934.66	215.38
934.96	215.30
935.26	215.33
935.56	215.32
935.86	215.24
936.16	215.20
936.46	215.20
936.76	215.21
937.06	215.16
937.36	215.16
937.66	215.18
937.96	215.14
938.26	215.09
938.56	215.09
938.86	215.07
939.16	215.10
939.46	215.11
939.76	215.10
940.06	215.11
940.35	215.08
940.65	214.98
940.95	214.99
941.25	214.98
941.55	214.91
941.85	214.92
942.15	214.99
942.45	215.05
942.75	215.06
943.04	215.07
943.34	215.13
943.64	215.12
943.94	215.09
944.24	215.09
944.54	215.09
944.84	215.09
945.13	215.06
945.43	215.04
945.73	215.03
946.03	215.00
946.33	214.97
946.62	214.95
946.92	214.93
947.22	214.92
947.52	214.93
947.82	214.96
948.11	214.93
948.41	214.86
948.71	214.79
949.01	214.78
949.31	214.74
949.60	214.71
949.90	214.75
950.20	214.74
950.50	214.75
950.79	214.76
951.09	214.79
951.39	214.78
951.69	214.74
951.98	214.81
952.28	214.86
952.58	214.85
952.87	214.85
953.17	214.89
953.47	214.90
953.76	214.86
954.06	214.84
954.36	214.80
954.66	214.82
954.95	214.90
955.25	214.94
955.55	214.99
955.84	214.98
956.14	214.99
956.44	215.00
956.73	214.97
957.03	215.00
957.32	214.97
957.62	214.96
957.92	215.05
958.21	215.00
958.51	215.20
958.81	215.22
959.10	215.25
959.40	215.30
959.69	215.29
959.99	215.35
960.29	215.37
960.58	215.41
960.88	215.47
961.17	215.43
961.47	215.41
961.76	215.37
962.06	215.37
962.36	215.34
962.65	215.35
962.95	215.32
963.24	215.29
963.54	215.29
963.83	215.34
964.13	215.28
964.42	215.21
964.72	215.06
965.01	215.09
965.31	215.06
965.60	214.99
965.90	215.13
966.19	215.09
966.49	215.07
966.78	215.05
967.08	215.04
967.37	215.06
967.67	215.04
967.96	215.08
968.26	215.07
968.55	215.09
968.85	215.11
969.14	215.13
969.43	215.15
969.73	215.13
970.02	215.09
970.32	215.08
970.61	215.05
970.91	215.00
971.20	214.95
971.49	214.97
971.79	215.00
972.08	214.86
972.38	214.86
972.67	214.90
972.96	214.93
973.26	214.88
973.55	214.94
973.85	214.92
974.14	214.91
974.43	214.95
974.73	214.91
975.02	214.87
975.31	214.89
975.61	214.87
975.90	214.86
976.19	214.85
976.49	214.85
976.78	214.89
977.07	214.89
977.37	214.92
977.66	214.91
977.95	214.86
978.24	214.90
978.54	214.93
978.83	214.90
979.12	214.86
979.42	214.86
979.71	214.81
980.00	214.80
980.29	214.76
980.59	214.73
980.88	214.80
981.17	214.79
981.46	214.75
981.76	214.76
982.05	214.80
982.34	214.81
982.63	214.83
982.93	214.84
983.22	214.89
983.51	214.89
983.80	214.92
984.09	214.97
984.39	214.94
984.68	214.90
984.97	214.93
985.26	214.91
985.55	214.93
985.85	214.88
986.14	214.93
986.43	214.97
986.72	214.97
987.01	214.89
987.30	214.91
987.59	214.92
987.89	214.92
988.18	214.90
988.47	214.89
988.76	214.86
989.05	214.84
989.34	214.82
989.63	214.86
989.92	214.81
990.22	214.78
990.51	214.77
990.80	214.78
991.09	214.78
991.38	214.81
991.67	214.80
991.96	214.76
992.25	214.76
992.54	214.73
992.83	214.72
993.12	214.75
993.41	214.77
993.70	214.85
993.99	214.87
994.28	214.91
994.58	214.96
994.87	214.97
995.16	214.99
995.45	214.93
995.74	214.88
996.03	214.94
996.32	214.96
996.61	215.00
996.90	214.97
997.19	214.96
997.48	214.95
997.77	214.94
998.06	214.98
998.34	214.96
998.63	214.95
998.92	214.97
999.21	214.97
999.50	214.96
999.79	214.90
1000.08	214.91
1000.37	214.86
1000.66	214.83
1000.95	214.87
1001.24	214.87
1001.53	214.93
1001.82	214.90
1002.11	214.86
1002.40	214.85
1002.68	214.91
1002.97	215.06
1003.26	215.06
1003.55	215.05
1003.84	215.04
1004.13	215.09
1004.42	215.12
1004.71	215.14
1004.99	215.13
1005.28	215.17
1005.57	215.17
1005.86	215.15
1006.15	215.12
1006.44	215.08
1006.72	215.09
1007.01	215.08
1007.30	215.10
1007.59	215.06
1007.88	215.06
1008.17	215.06
1008.45	215.02
1008.74	214.93
1009.03	214.85
1009.32	214.82
1009.60	214.82
1009.89	214.80
1010.18	214.75
1010.47	214.72
1010.76	214.71
1011.04	214.69
1011.33	214.75
1011.62	214.77
1011.91	214.81
1012.19	214.82
1012.48	214.83
1012.77	214.86
1013.05	214.94
1013.34	214.90
1013.63	214.89
1013.92	214.92
1014.20	214.92
1014.49	214.95
1014.78	214.97
1015.06	214.91
1015.35	214.92
1015.64	214.94
1015.92	214.97
1016.21	214.97
1016.50	214.98
1016.78	215.00
1017.07	215.04
1017.36	214.97
1017.64	214.93
1017.93	214.93
1018.22	214.92
1018.50	214.93
1018.79	214.89
1019.08	214.79
1019.36	214.81
1019.65	214.83
1019.93	214.88
1020.22	214.91
1020.51	215.03
1020.79	215.00
1021.08	214.53
1021.36	214.36
1021.65	214.75
1021.94	215.05
1022.22	214.77
1022.51	214.98
1022.79	215.64
1023.08	215.23
1023.36	217.73
1023.65	214.34
>>>>>End Processed Spectral Data<<<<<
