SpectraSuite Data File
++++++++++++++++++++++++++++++++++++
Date: Tue Jan 29 16:44:58 EST 2013
User: group
Dark Spectrum Present: No
Reference Spectrum Present: No
Number of Sampled Component Spectra: 1
Spectrometers: USB2E7196
Integration Time (usec): 65000 (USB2E7196)
Spectra Averaged: 100 (USB2E7196)
Boxcar Smoothing: 10 (USB2E7196)
Correct for Electrical Dark: No (USB2E7196)
Strobe/Lamp Enabled: No (USB2E7196)
Correct for Detector Non-linearity: No (USB2E7196)
Correct for Stray Light: No (USB2E7196)
Number of Pixels in Processed Spectrum: 2048
>>>>>Begin Processed Spectral Data<<<<<
339.09	0.00
339.48	201.12
339.86	202.87
340.24	204.43
340.63	205.34
341.01	210.48
341.39	208.58
341.78	210.78
342.16	211.95
342.54	211.28
342.93	200.84
343.31	210.98
343.69	211.58
344.07	212.05
344.46	212.52
344.84	212.95
345.22	213.12
345.60	213.38
345.99	213.54
346.37	213.63
346.75	213.77
347.13	213.83
347.52	213.89
347.90	214.03
348.28	214.07
348.66	214.16
349.05	214.12
349.43	214.14
349.81	214.19
350.19	214.27
350.57	214.33
350.96	214.45
351.34	214.55
351.72	214.60
352.10	214.70
352.48	214.73
352.87	214.74
353.25	214.82
353.63	214.88
354.01	214.92
354.39	215.02
354.77	215.07
355.15	215.21
355.54	215.25
355.92	215.26
356.30	215.33
356.68	215.50
357.06	215.59
357.44	215.62
357.82	215.68
358.20	215.78
358.58	215.86
358.97	215.93
359.35	216.04
359.73	216.15
360.11	216.24
360.49	216.33
360.87	216.43
361.25	216.51
361.63	216.64
362.01	216.72
362.39	216.74
362.77	216.82
363.15	216.85
363.53	216.91
363.91	216.96
364.29	216.99
364.67	216.82
365.05	216.84
365.43	216.91
365.81	216.96
366.19	217.04
366.57	217.12
366.95	217.11
367.33	217.08
367.71	217.06
368.09	217.08
368.47	217.07
368.85	217.05
369.23	217.04
369.61	216.95
369.99	217.01
370.37	217.03
370.75	217.11
371.13	217.06
371.51	217.00
371.89	216.98
372.27	216.96
372.65	216.97
373.03	216.94
373.41	216.90
373.78	216.88
374.16	216.76
374.54	216.66
374.92	216.60
375.30	216.57
375.68	216.54
376.06	216.50
376.44	216.44
376.82	216.40
377.19	216.40
377.57	216.36
377.95	216.26
378.33	216.22
378.71	216.04
379.09	216.01
379.47	216.01
379.84	215.96
380.22	215.92
380.60	215.85
380.98	215.81
381.36	215.78
381.73	215.69
382.11	215.64
382.49	215.60
382.87	215.55
383.25	215.50
383.62	215.68
384.00	215.61
384.38	215.60
384.76	215.60
385.13	215.62
385.51	215.60
385.89	215.48
386.27	215.47
386.64	215.48
387.02	215.45
387.40	215.39
387.78	215.35
388.15	215.33
388.53	215.31
388.91	215.26
389.29	215.23
389.66	215.26
390.04	215.22
390.42	215.24
390.79	215.27
391.17	215.25
391.55	214.99
391.92	215.01
392.30	215.01
392.68	214.95
393.05	214.92
393.43	214.92
393.81	215.01
394.18	214.97
394.56	214.99
394.94	215.04
395.31	215.04
395.69	215.15
396.06	215.16
396.44	215.16
396.82	215.18
397.19	215.29
397.57	215.27
397.95	215.38
398.32	215.37
398.70	215.42
399.07	215.51
399.45	215.55
399.82	215.55
400.20	215.58
400.58	215.67
400.95	215.62
401.33	215.73
401.70	215.93
402.08	216.01
402.45	216.09
402.83	216.23
403.20	216.35
403.58	216.42
403.95	216.58
404.33	216.76
404.71	216.91
405.08	217.15
405.46	217.33
405.83	217.51
406.21	217.69
406.58	217.88
406.96	218.12
407.33	218.39
407.70	218.72
408.08	219.19
408.45	219.55
408.83	219.99
409.20	220.34
409.58	220.60
409.95	221.06
410.33	221.52
410.70	221.92
411.08	222.49
411.45	223.06
411.82	223.61
412.20	224.30
412.57	225.11
412.95	225.70
413.32	226.53
413.69	227.35
414.07	228.26
414.44	229.27
414.82	230.24
415.19	231.42
415.56	232.63
415.94	233.82
416.31	235.25
416.68	236.63
417.06	238.24
417.43	239.80
417.81	241.59
418.18	243.38
418.55	245.34
418.93	247.40
419.30	249.51
419.67	251.75
420.04	254.07
420.42	256.51
420.79	259.33
421.16	262.16
421.54	265.09
421.91	268.13
422.28	271.22
422.66	274.55
423.03	277.85
423.40	281.20
423.77	284.82
424.15	288.47
424.52	292.37
424.89	296.53
425.26	300.61
425.64	304.49
426.01	308.80
426.38	313.27
426.75	317.85
427.13	322.57
427.50	327.57
427.87	332.82
428.24	338.04
428.61	343.07
428.99	348.58
429.36	354.64
429.73	360.51
430.10	366.39
430.47	372.50
430.85	378.83
431.22	385.51
431.59	392.63
431.96	399.46
432.33	406.94
432.70	414.26
433.08	422.78
433.45	430.90
433.82	438.96
434.19	447.88
434.56	456.60
434.93	464.97
435.30	473.25
435.68	482.36
436.05	491.36
436.42	500.31
436.79	508.49
437.16	517.23
437.53	526.55
437.90	535.77
438.27	544.79
438.64	553.98
439.01	562.63
439.38	570.26
439.75	577.64
440.13	586.06
440.50	594.03
440.87	600.58
441.24	607.21
441.61	614.54
441.98	619.94
442.35	626.35
442.72	632.71
443.09	638.83
443.46	642.56
443.83	645.13
444.20	647.38
444.57	650.56
444.94	652.06
445.31	653.54
445.68	654.94
446.05	655.56
446.42	654.83
446.79	653.89
447.16	652.83
447.53	652.06
447.90	648.83
448.27	645.47
448.64	640.78
449.01	637.55
449.37	631.70
449.74	626.02
450.11	619.04
450.48	611.64
450.85	604.16
451.22	597.71
451.59	591.56
451.96	585.67
452.33	577.76
452.70	570.64
453.07	562.15
453.43	553.49
453.80	545.15
454.17	537.10
454.54	529.43
454.91	521.17
455.28	513.17
455.65	505.70
456.02	498.18
456.38	491.79
456.75	483.78
457.12	477.12
457.49	470.55
457.86	464.37
458.23	458.99
458.59	453.05
458.96	447.01
459.33	441.63
459.70	436.25
460.07	431.97
460.43	427.08
460.80	422.44
461.17	418.43
461.54	414.22
461.91	410.19
462.27	406.05
462.64	402.64
463.01	398.79
463.38	395.07
463.74	391.36
464.11	388.13
464.48	385.29
464.85	382.23
465.21	379.80
465.58	377.13
465.95	373.95
466.32	371.26
466.68	368.63
467.05	365.99
467.42	363.42
467.78	360.73
468.15	358.12
468.52	356.22
468.88	353.73
469.25	351.48
469.62	349.66
469.98	347.77
470.35	345.93
470.72	344.24
471.08	342.41
471.45	340.93
471.82	339.33
472.18	337.63
472.55	336.41
472.92	335.00
473.28	333.74
473.65	332.58
474.02	331.49
474.38	330.58
474.75	329.80
475.11	328.96
475.48	328.35
475.85	327.82
476.21	327.31
476.58	326.92
476.94	326.66
477.31	326.35
477.67	326.03
478.04	325.82
478.41	325.77
478.77	325.90
479.14	325.80
479.50	325.99
479.87	326.30
480.23	326.60
480.60	326.87
480.96	327.16
481.33	327.72
481.69	328.25
482.06	328.78
482.42	329.31
482.79	329.88
483.15	330.68
483.52	331.68
483.88	332.57
484.25	333.53
484.61	334.57
484.98	335.67
485.34	337.01
485.71	338.42
486.07	339.86
486.44	341.22
486.80	342.87
487.17	344.52
487.53	346.38
487.90	348.24
488.26	350.23
488.62	352.42
488.99	354.50
489.35	356.68
489.72	359.07
490.08	361.57
490.44	364.17
490.81	366.86
491.17	369.55
491.54	372.49
491.90	375.51
492.26	378.72
492.63	382.09
492.99	385.55
493.36	389.19
493.72	393.10
494.08	397.06
494.45	401.23
494.81	405.56
495.17	409.96
495.54	414.68
495.90	419.50
496.26	424.36
496.63	429.59
496.99	434.98
497.35	440.52
497.72	446.37
498.08	452.24
498.44	458.39
498.80	464.81
499.17	471.38
499.53	478.10
499.89	485.05
500.26	492.03
500.62	499.11
500.98	506.49
501.34	513.89
501.71	521.67
502.07	529.50
502.43	537.53
502.79	545.68
503.16	554.05
503.52	562.69
503.88	571.49
504.24	580.40
504.60	589.46
504.97	598.76
505.33	607.99
505.69	617.89
506.05	627.70
506.41	637.57
506.78	647.57
507.14	657.81
507.50	668.20
507.86	678.88
508.22	689.68
508.59	700.37
508.95	711.46
509.31	722.75
509.67	734.21
510.03	745.62
510.39	757.37
510.75	769.21
511.12	781.08
511.48	793.15
511.84	805.35
512.20	817.72
512.56	830.38
512.92	843.20
513.28	855.81
513.64	868.64
514.00	881.54
514.37	894.52
514.73	907.67
515.09	920.71
515.45	933.66
515.81	946.76
516.17	960.26
516.53	973.59
516.89	986.65
517.25	999.92
517.61	1013.45
517.97	1026.97
518.33	1040.20
518.69	1053.90
519.05	1067.68
519.41	1081.50
519.77	1095.45
520.13	1108.75
520.49	1121.99
520.85	1135.36
521.21	1148.66
521.57	1162.28
521.93	1175.38
522.29	1189.13
522.65	1202.83
523.01	1216.52
523.37	1229.83
523.73	1243.18
524.09	1256.41
524.45	1269.89
524.81	1283.35
525.17	1296.85
525.53	1310.09
525.89	1323.43
526.25	1336.49
526.61	1349.39
526.97	1362.55
527.33	1375.46
527.68	1389.05
528.04	1402.61
528.40	1415.86
528.76	1429.29
529.12	1442.28
529.48	1455.71
529.84	1468.01
530.20	1480.87
530.56	1493.45
530.91	1506.62
531.27	1519.42
531.63	1532.20
531.99	1545.02
532.35	1557.35
532.71	1569.79
533.07	1582.79
533.42	1595.08
533.78	1607.34
534.14	1619.37
534.50	1630.67
534.86	1642.32
535.21	1653.13
535.57	1664.67
535.93	1675.99
536.29	1687.21
536.65	1698.84
537.00	1709.96
537.36	1721.52
537.72	1732.53
538.08	1744.11
538.44	1755.35
538.79	1766.61
539.15	1777.56
539.51	1788.48
539.87	1799.93
540.22	1810.81
540.58	1821.71
540.94	1832.82
541.29	1843.09
541.65	1853.04
542.01	1863.53
542.37	1873.73
542.72	1884.16
543.08	1894.14
543.44	1904.77
543.79	1914.10
544.15	1923.63
544.51	1933.64
544.87	1943.53
545.22	1952.95
545.58	1961.81
545.94	1970.67
546.29	1979.11
546.65	1987.54
547.01	1995.87
547.36	2003.61
547.72	2011.40
548.07	2019.05
548.43	2026.84
548.79	2034.90
549.14	2043.10
549.50	2051.65
549.86	2059.70
550.21	2067.11
550.57	2074.83
550.92	2081.70
551.28	2089.34
551.64	2096.64
551.99	2104.02
552.35	2111.27
552.70	2118.15
553.06	2124.89
553.41	2131.29
553.77	2138.00
554.13	2144.51
554.48	2151.69
554.84	2158.94
555.19	2165.69
555.55	2172.14
555.90	2178.34
556.26	2185.06
556.61	2191.28
556.97	2196.11
557.32	2201.82
557.68	2208.19
558.03	2213.83
558.39	2219.24
558.74	2225.17
559.10	2230.69
559.45	2236.45
559.81	2241.96
560.16	2247.39
560.52	2253.23
560.87	2259.53
561.23	2265.26
561.58	2271.95
561.94	2277.04
562.29	2281.46
562.64	2287.20
563.00	2292.76
563.35	2298.24
563.71	2303.72
564.06	2309.27
564.42	2315.21
564.77	2320.09
565.12	2325.39
565.48	2330.51
565.83	2336.00
566.19	2341.31
566.54	2346.57
566.89	2351.10
567.25	2355.63
567.60	2361.33
567.96	2366.28
568.31	2370.75
568.66	2375.15
569.02	2378.92
569.37	2382.53
569.72	2386.95
570.08	2390.50
570.43	2393.48
570.78	2396.63
571.14	2399.21
571.49	2402.32
571.84	2405.95
572.20	2408.91
572.55	2411.76
572.90	2414.02
573.26	2416.52
573.61	2419.05
573.96	2421.13
574.31	2423.08
574.67	2424.92
575.02	2425.64
575.37	2427.07
575.72	2427.61
576.08	2428.86
576.43	2429.00
576.78	2429.44
577.13	2430.82
577.49	2431.86
577.84	2432.93
578.19	2433.98
578.54	2434.57
578.90	2434.97
579.25	2434.53
579.60	2434.17
579.95	2433.25
580.30	2433.24
580.66	2432.52
581.01	2430.65
581.36	2428.14
581.71	2426.70
582.06	2425.36
582.42	2424.21
582.77	2421.79
583.12	2419.91
583.47	2418.43
583.82	2417.61
584.17	2416.01
584.53	2413.78
584.88	2411.50
585.23	2409.38
585.58	2406.99
585.93	2404.84
586.28	2402.48
586.63	2400.00
586.98	2397.80
587.34	2395.77
587.69	2393.04
588.04	2390.81
588.39	2389.10
588.74	2386.42
589.09	2383.36
589.44	2380.05
589.79	2377.48
590.14	2375.45
590.49	2372.65
590.84	2368.68
591.19	2365.30
591.54	2362.01
591.89	2357.91
592.25	2354.57
592.60	2350.37
592.95	2346.18
593.30	2341.94
593.65	2337.62
594.00	2332.88
594.35	2329.68
594.70	2324.95
595.05	2320.30
595.40	2314.79
595.75	2309.05
596.10	2305.60
596.45	2300.64
596.80	2295.99
597.15	2290.71
597.50	2284.73
597.85	2279.79
598.19	2274.54
598.54	2268.69
598.89	2263.51
599.24	2258.86
599.59	2252.69
599.94	2246.78
600.29	2240.70
600.64	2234.59
600.99	2227.63
601.34	2222.24
601.69	2215.30
602.04	2208.69
602.39	2202.13
602.74	2195.94
603.08	2190.32
603.43	2183.55
603.78	2176.68
604.13	2169.50
604.48	2162.20
604.83	2156.08
605.18	2149.78
605.53	2142.79
605.87	2135.80
606.22	2128.88
606.57	2120.97
606.92	2112.81
607.27	2105.94
607.62	2099.38
607.96	2092.35
608.31	2086.02
608.66	2078.16
609.01	2070.46
609.36	2063.40
609.70	2055.66
610.05	2047.91
610.40	2039.62
610.75	2031.13
611.10	2023.42
611.44	2014.65
611.79	2005.92
612.14	1995.97
612.49	1985.26
612.83	1975.89
613.18	1966.68
613.53	1957.38
613.88	1947.84
614.22	1939.38
614.57	1929.38
614.92	1918.83
615.27	1908.65
615.61	1898.44
615.96	1888.83
616.31	1879.37
616.65	1869.88
617.00	1860.25
617.35	1850.54
617.70	1840.77
618.04	1830.88
618.39	1820.76
618.74	1811.07
619.08	1801.48
619.43	1792.78
619.78	1784.54
620.12	1775.92
620.47	1766.39
620.82	1756.15
621.16	1746.35
621.51	1736.53
621.85	1726.72
622.20	1716.44
622.55	1705.98
622.89	1695.94
623.24	1686.26
623.59	1676.41
623.93	1666.38
624.28	1656.63
624.62	1646.67
624.97	1636.60
625.32	1626.85
625.66	1617.98
626.01	1609.26
626.35	1599.88
626.70	1589.86
627.04	1579.86
627.39	1569.84
627.73	1560.50
628.08	1551.57
628.43	1542.08
628.77	1532.86
629.12	1524.11
629.46	1516.29
629.81	1508.01
630.15	1498.75
630.50	1489.08
630.84	1478.59
631.19	1468.73
631.53	1459.41
631.88	1449.26
632.22	1439.38
632.57	1430.09
632.91	1420.07
633.26	1410.42
633.60	1400.97
633.95	1391.78
634.29	1382.33
634.64	1373.12
634.98	1363.27
635.32	1354.07
635.67	1345.72
636.01	1336.44
636.36	1326.71
636.70	1317.27
637.05	1307.90
637.39	1299.10
637.73	1290.48
638.08	1283.11
638.42	1275.06
638.77	1266.30
639.11	1258.10
639.45	1250.25
639.80	1241.80
640.14	1233.14
640.49	1224.21
640.83	1215.52
641.17	1207.37
641.52	1199.38
641.86	1190.83
642.20	1182.96
642.55	1174.35
642.89	1165.47
643.23	1156.94
643.58	1148.91
643.92	1139.89
644.26	1131.33
644.61	1122.89
644.95	1114.11
645.29	1104.87
645.64	1095.77
645.98	1087.33
646.32	1079.47
646.66	1071.05
647.01	1062.81
647.35	1054.77
647.69	1046.43
648.04	1038.17
648.38	1029.36
648.72	1020.60
649.06	1012.16
649.41	1004.00
649.75	996.12
650.09	988.30
650.43	980.34
650.78	971.99
651.12	964.24
651.46	956.81
651.80	949.59
652.14	942.34
652.49	934.90
652.83	927.56
653.17	919.90
653.51	912.27
653.85	904.96
654.20	897.68
654.54	890.29
654.88	883.14
655.22	875.97
655.56	868.98
655.90	862.17
656.25	855.51
656.59	848.72
656.93	841.73
657.27	834.59
657.61	827.61
657.95	821.51
658.29	815.55
658.64	809.42
658.98	802.84
659.32	796.30
659.66	790.11
660.00	783.77
660.34	777.70
660.68	771.60
661.02	765.25
661.36	759.29
661.70	753.43
662.05	747.78
662.39	742.24
662.73	736.84
663.07	731.43
663.41	725.81
663.75	720.06
664.09	714.37
664.43	708.89
664.77	703.54
665.11	697.74
665.45	691.97
665.79	686.12
666.13	680.52
666.47	675.07
666.81	669.54
667.15	664.16
667.49	658.89
667.83	653.64
668.17	648.41
668.51	643.32
668.85	638.42
669.19	633.48
669.53	628.45
669.87	623.28
670.21	618.52
670.55	613.76
670.89	609.26
671.23	604.94
671.57	600.56
671.91	596.25
672.25	592.15
672.58	587.95
672.92	583.88
673.26	579.96
673.60	576.08
673.94	572.26
674.28	568.66
674.62	564.99
674.96	561.17
675.30	557.61
675.64	553.86
675.97	550.19
676.31	546.57
676.65	542.97
676.99	539.61
677.33	535.76
677.67	532.16
678.01	528.37
678.34	524.72
678.68	521.18
679.02	517.56
679.36	513.80
679.70	510.15
680.04	506.60
680.37	503.05
680.71	499.65
681.05	496.45
681.39	493.09
681.73	489.84
682.06	486.88
682.40	483.80
682.74	480.62
683.08	477.41
683.42	474.17
683.75	471.07
684.09	467.93
684.43	465.10
684.77	462.17
685.10	459.29
685.44	456.26
685.78	453.30
686.12	450.54
686.45	447.81
686.79	445.14
687.13	442.60
687.46	439.99
687.80	437.31
688.14	434.40
688.48	431.79
688.81	429.10
689.15	426.46
689.49	423.84
689.82	421.27
690.16	418.63
690.50	416.17
690.83	413.68
691.17	411.14
691.51	408.62
691.84	406.27
692.18	403.95
692.52	401.75
692.85	399.62
693.19	397.41
693.52	395.23
693.86	392.92
694.20	390.67
694.53	388.51
694.87	386.29
695.21	384.13
695.54	381.95
695.88	379.77
696.21	377.54
696.55	375.36
696.88	373.27
697.22	371.27
697.56	369.31
697.89	367.42
698.23	365.61
698.56	363.79
698.90	362.03
699.23	360.12
699.57	358.27
699.90	356.33
700.24	354.50
700.58	352.67
700.91	351.04
701.25	349.40
701.58	347.73
701.92	346.11
702.25	344.50
702.59	342.85
702.92	341.25
703.26	339.68
703.59	338.16
703.93	336.90
704.26	335.42
704.60	333.93
704.93	332.42
705.26	330.93
705.60	329.44
705.93	327.89
706.27	326.55
706.60	325.27
706.94	324.06
707.27	322.64
707.61	321.29
707.94	319.90
708.27	318.41
708.61	317.00
708.94	315.63
709.28	314.32
709.61	313.06
709.94	311.83
710.28	310.59
710.61	309.39
710.95	307.94
711.28	306.85
711.61	305.68
711.95	304.47
712.28	303.27
712.61	302.09
712.95	301.03
713.28	299.98
713.61	298.80
713.95	297.65
714.28	296.63
714.61	295.62
714.95	294.54
715.28	293.46
715.61	292.37
715.95	291.38
716.28	290.39
716.61	289.40
716.95	288.40
717.28	287.50
717.61	286.52
717.94	285.58
718.28	284.55
718.61	283.62
718.94	282.76
719.27	281.87
719.61	281.05
719.94	280.18
720.27	279.18
720.60	278.31
720.94	277.44
721.27	276.65
721.60	275.91
721.93	275.21
722.27	274.55
722.60	273.88
722.93	273.14
723.26	272.49
723.59	271.80
723.93	271.16
724.26	270.42
724.59	269.78
724.92	269.19
725.25	268.61
725.59	268.03
725.92	267.46
726.25	266.88
726.58	266.30
726.91	265.63
727.24	265.07
727.57	264.48
727.91	263.84
728.24	263.26
728.57	262.64
728.90	262.09
729.23	261.53
729.56	261.05
729.89	260.54
730.22	259.91
730.55	259.38
730.89	258.81
731.22	258.32
731.55	257.80
731.88	257.24
732.21	256.68
732.54	256.11
732.87	255.58
733.20	255.07
733.53	254.54
733.86	254.10
734.19	253.61
734.52	253.21
734.85	252.92
735.18	252.46
735.51	252.11
735.84	251.66
736.17	251.26
736.50	250.72
736.83	250.55
737.16	250.17
737.49	249.77
737.82	249.39
738.15	248.99
738.48	248.60
738.81	248.23
739.14	247.81
739.47	247.44
739.80	247.07
740.13	246.71
740.46	246.30
740.79	245.92
741.12	245.52
741.45	245.11
741.78	244.67
742.11	244.39
742.44	243.98
742.77	243.64
743.10	243.27
743.43	242.93
743.75	242.33
744.08	242.23
744.41	241.84
744.74	241.49
745.07	241.13
745.40	240.82
745.73	240.54
746.06	240.23
746.39	239.92
746.71	239.56
747.04	239.22
747.37	238.91
747.70	238.61
748.03	238.30
748.36	238.03
748.68	237.71
749.01	237.34
749.34	237.03
749.67	236.74
750.00	236.49
750.33	236.38
750.65	236.16
750.98	235.64
751.31	235.41
751.64	235.17
751.97	235.05
752.29	234.79
752.62	234.47
752.95	234.20
753.28	233.93
753.60	233.72
753.93	233.55
754.26	233.34
754.59	233.07
754.91	232.85
755.24	232.61
755.57	232.36
755.90	232.14
756.22	231.88
756.55	231.65
756.88	231.36
757.20	231.02
757.53	230.74
757.86	230.57
758.19	230.34
758.51	230.15
758.84	229.80
759.17	229.55
759.49	229.35
759.82	229.28
760.15	229.12
760.47	228.90
760.80	228.65
761.13	228.50
761.45	228.29
761.78	228.09
762.11	227.91
762.43	227.72
762.76	227.56
763.08	227.41
763.41	227.24
763.74	227.12
764.06	226.95
764.39	226.77
764.71	226.61
765.04	226.45
765.37	226.25
765.69	226.15
766.02	226.03
766.34	225.87
766.67	225.62
767.00	225.56
767.32	225.55
767.65	225.54
767.97	225.37
768.30	225.31
768.62	225.19
768.95	225.03
769.27	224.89
769.60	224.80
769.92	224.68
770.25	224.53
770.57	224.33
770.90	224.18
771.22	224.08
771.55	223.96
771.87	223.85
772.20	223.73
772.52	223.74
772.85	223.88
773.17	223.82
773.50	223.70
773.82	223.52
774.15	223.29
774.47	223.06
774.80	222.97
775.12	222.87
775.45	222.75
775.77	222.68
776.09	222.63
776.42	222.50
776.74	222.45
777.07	222.38
777.39	222.33
777.72	222.26
778.04	222.19
778.36	222.10
778.69	222.01
779.01	221.94
779.33	221.71
779.66	221.37
779.98	221.29
780.31	221.24
780.63	221.25
780.95	221.22
781.28	221.14
781.60	221.01
781.92	220.90
782.25	220.85
782.57	220.77
782.89	220.67
783.22	220.59
783.54	220.47
783.86	220.41
784.19	220.33
784.51	220.32
784.83	220.23
785.16	220.15
785.48	220.11
785.80	220.08
786.12	220.05
786.45	220.02
786.77	219.94
787.09	219.83
787.42	219.70
787.74	219.64
788.06	219.58
788.38	219.52
788.71	219.45
789.03	219.36
789.35	219.32
789.67	219.26
789.99	219.25
790.32	219.18
790.64	219.13
790.96	219.28
791.28	219.19
791.61	219.14
791.93	219.12
792.25	219.05
792.57	219.14
792.89	219.05
793.21	218.98
793.54	218.91
793.86	218.89
794.18	218.85
794.50	218.78
794.82	218.77
795.14	218.78
795.47	218.77
795.79	218.76
796.11	218.66
796.43	218.61
796.75	218.51
797.07	218.47
797.39	218.42
797.71	218.20
798.04	218.14
798.36	218.09
798.68	218.03
799.00	218.00
799.32	217.84
799.64	217.84
799.96	217.79
800.28	217.81
800.60	217.75
800.92	217.72
801.24	217.66
801.56	217.64
801.89	217.59
802.21	217.53
802.53	217.46
802.85	217.49
803.17	217.57
803.49	217.54
803.81	217.49
804.13	217.47
804.45	217.40
804.77	217.37
805.09	217.34
805.41	217.29
805.73	217.24
806.05	217.18
806.37	217.13
806.69	217.10
807.01	217.07
807.33	217.06
807.65	216.96
807.97	217.03
808.28	216.97
808.60	216.94
808.92	216.93
809.24	217.05
809.56	216.99
809.88	216.87
810.20	216.87
810.52	216.88
810.84	216.81
811.16	216.79
811.48	216.77
811.80	216.80
812.12	216.75
812.43	216.78
812.75	216.76
813.07	216.72
813.39	216.70
813.71	216.65
814.03	216.60
814.35	216.60
814.67	216.50
814.98	216.46
815.30	216.43
815.62	216.38
815.94	216.23
816.26	216.22
816.58	216.19
816.89	216.18
817.21	216.14
817.53	216.14
817.85	216.11
818.17	216.08
818.48	215.99
818.80	216.05
819.12	215.96
819.44	215.92
819.76	215.87
820.07	215.86
820.39	215.83
820.71	215.82
821.03	215.79
821.34	215.77
821.66	215.77
821.98	215.76
822.30	215.74
822.61	215.87
822.93	215.82
823.25	215.83
823.57	215.79
823.88	215.82
824.20	215.82
824.52	215.85
824.83	215.83
825.15	215.81
825.47	215.75
825.79	215.76
826.10	215.72
826.42	215.71
826.74	215.71
827.05	215.66
827.37	215.66
827.69	215.62
828.00	215.59
828.32	215.58
828.64	215.56
828.95	215.67
829.27	215.56
829.58	215.54
829.90	215.55
830.22	215.55
830.53	215.44
830.85	215.39
831.17	215.29
831.48	215.29
831.80	215.29
832.11	215.29
832.43	215.24
832.75	215.24
833.06	215.36
833.38	215.29
833.69	215.28
834.01	215.29
834.32	215.31
834.64	215.28
834.96	215.27
835.27	215.28
835.59	215.15
835.90	215.11
836.22	215.10
836.53	215.02
836.85	214.96
837.16	215.19
837.48	215.21
837.79	215.33
838.11	215.32
838.42	215.33
838.74	215.37
839.05	215.35
839.37	215.36
839.68	215.19
840.00	215.17
840.31	215.20
840.63	215.19
840.94	215.16
841.26	215.13
841.57	215.12
841.88	215.08
842.20	215.11
842.51	215.09
842.83	215.09
843.14	215.29
843.46	215.27
843.77	215.13
844.08	215.10
844.40	215.03
844.71	215.00
845.03	214.98
845.34	214.91
845.65	214.89
845.97	214.88
846.28	214.93
846.60	214.93
846.91	214.89
847.22	214.85
847.54	214.88
847.85	214.92
848.16	214.91
848.48	214.87
848.79	214.90
849.10	214.93
849.42	214.92
849.73	214.72
850.04	214.73
850.36	214.64
850.67	214.67
850.98	214.65
851.30	214.67
851.61	214.64
851.92	214.64
852.23	214.72
852.55	214.72
852.86	214.70
853.17	214.72
853.49	214.77
853.80	214.83
854.11	214.86
854.42	214.87
854.74	214.81
855.05	214.84
855.36	214.74
855.67	214.71
855.99	214.72
856.30	214.97
856.61	214.97
856.92	214.99
857.23	214.97
857.55	214.95
857.86	214.92
858.17	214.94
858.48	214.89
858.79	214.82
859.11	214.81
859.42	214.80
859.73	214.76
860.04	214.71
860.35	214.61
860.66	214.54
860.98	214.49
861.29	214.57
861.60	214.53
861.91	214.61
862.22	214.59
862.53	214.55
862.84	214.29
863.16	214.36
863.47	214.32
863.78	214.32
864.09	214.33
864.40	214.35
864.71	214.36
865.02	214.39
865.33	214.38
865.64	214.35
865.95	214.38
866.27	214.53
866.58	214.55
866.89	214.61
867.20	214.59
867.51	214.56
867.82	214.51
868.13	214.58
868.44	214.52
868.75	214.55
869.06	214.55
869.37	214.57
869.68	214.45
869.99	214.49
870.30	214.48
870.61	214.48
870.92	214.42
871.23	214.43
871.54	214.48
871.85	214.54
872.16	214.59
872.47	214.53
872.78	214.39
873.09	214.39
873.40	214.34
873.71	214.40
874.02	214.43
874.33	214.42
874.64	214.37
874.95	214.41
875.26	214.35
875.56	214.34
875.87	214.33
876.18	214.37
876.49	214.57
876.80	214.58
877.11	214.56
877.42	214.61
877.73	214.58
878.04	214.54
878.35	214.54
878.66	214.51
878.96	214.56
879.27	214.56
879.58	214.56
879.89	214.53
880.20	214.60
880.51	214.58
880.82	214.58
881.12	214.61
881.43	214.57
881.74	214.59
882.05	214.57
882.36	214.57
882.67	214.57
882.97	214.34
883.28	214.31
883.59	214.28
883.90	214.29
884.21	214.32
884.51	214.30
884.82	214.25
885.13	214.24
885.44	214.21
885.74	214.23
886.05	214.20
886.36	214.21
886.67	214.09
886.98	214.21
887.28	214.21
887.59	214.18
887.90	214.20
888.20	214.17
888.51	214.24
888.82	214.21
889.13	214.23
889.43	214.40
889.74	214.38
890.05	214.39
890.35	214.36
890.66	214.33
890.97	214.28
891.28	214.29
891.58	214.30
891.89	214.32
892.20	214.28
892.50	214.27
892.81	214.30
893.12	214.32
893.42	214.23
893.73	214.26
894.04	214.29
894.34	214.27
894.65	214.26
894.95	214.21
895.26	214.21
895.57	214.30
895.87	214.12
896.18	214.17
896.48	214.18
896.79	214.18
897.10	214.18
897.40	214.18
897.71	214.21
898.01	214.16
898.32	214.17
898.63	214.18
898.93	214.20
899.24	214.19
899.54	214.13
899.85	214.11
900.15	214.10
900.46	214.07
900.76	214.08
901.07	214.10
901.38	214.11
901.68	214.14
901.99	214.00
902.29	214.01
902.60	213.97
902.90	213.96
903.21	213.97
903.51	213.95
903.82	214.03
904.12	213.99
904.43	214.03
904.73	214.02
905.03	214.01
905.34	214.19
905.64	214.17
905.95	214.21
906.25	214.20
906.56	214.19
906.86	214.19
907.17	214.22
907.47	214.23
907.77	214.20
908.08	214.18
908.38	214.21
908.69	214.24
908.99	214.27
909.30	214.29
909.60	214.29
909.90	214.32
910.21	214.23
910.51	214.21
910.81	214.21
911.12	214.22
911.42	214.22
911.73	214.03
912.03	214.04
912.33	214.07
912.64	214.07
912.94	214.06
913.24	214.03
913.55	214.00
913.85	213.95
914.15	214.02
914.46	214.04
914.76	214.03
915.06	213.98
915.37	213.97
915.67	213.95
915.97	213.95
916.27	213.93
916.58	213.94
916.88	213.95
917.18	213.96
917.49	214.10
917.79	214.10
918.09	214.13
918.39	214.18
918.70	214.16
919.00	214.19
919.30	214.26
919.60	214.27
919.91	214.26
920.21	214.28
920.51	214.22
920.81	214.20
921.12	214.25
921.42	214.24
921.72	214.26
922.02	214.25
922.32	214.27
922.63	214.25
922.93	214.38
923.23	214.37
923.53	214.35
923.83	214.18
924.13	214.19
924.44	214.21
924.74	214.24
925.04	214.30
925.34	214.29
925.64	214.20
925.94	214.22
926.24	214.27
926.55	214.27
926.85	214.29
927.15	214.30
927.45	214.28
927.75	214.28
928.05	214.26
928.35	214.27
928.65	214.31
928.95	214.31
929.26	214.22
929.56	214.23
929.86	214.27
930.16	214.25
930.46	214.23
930.76	214.20
931.06	214.07
931.36	214.00
931.66	214.00
931.96	214.02
932.26	214.01
932.56	213.95
932.86	213.95
933.16	213.98
933.46	213.96
933.76	213.91
934.06	213.97
934.36	214.04
934.66	214.03
934.96	214.02
935.26	214.02
935.56	214.04
935.86	214.00
936.16	213.94
936.46	213.94
936.76	213.97
937.06	213.97
937.36	214.02
937.66	214.06
937.96	214.04
938.26	214.01
938.56	213.99
938.86	214.03
939.16	214.08
939.46	214.04
939.76	214.07
940.06	214.08
940.35	214.04
940.65	213.92
940.95	213.96
941.25	213.90
941.55	213.89
941.85	213.89
942.15	213.97
942.45	214.01
942.75	214.02
943.04	214.02
943.34	214.02
943.64	213.97
943.94	213.93
944.24	213.98
944.54	214.00
944.84	214.01
945.13	213.97
945.43	213.91
945.73	213.93
946.03	213.92
946.33	213.91
946.62	213.89
946.92	213.92
947.22	213.92
947.52	213.94
947.82	213.96
948.11	213.93
948.41	213.86
948.71	213.82
949.01	213.82
949.31	213.78
949.60	213.80
949.90	213.85
950.20	213.86
950.50	213.81
950.79	213.79
951.09	213.83
951.39	213.83
951.69	213.80
951.98	213.82
952.28	213.82
952.58	213.81
952.87	213.80
953.17	213.81
953.47	213.77
953.76	213.76
954.06	213.72
954.36	213.71
954.66	213.74
954.95	213.80
955.25	213.80
955.55	213.83
955.84	213.74
956.14	213.74
956.44	213.75
956.73	213.73
957.03	213.73
957.32	213.72
957.62	213.73
957.92	213.80
958.21	213.83
958.51	214.04
958.81	214.07
959.10	214.12
959.40	214.17
959.69	214.22
959.99	214.25
960.29	214.26
960.58	214.27
960.88	214.33
961.17	214.32
961.47	214.37
961.76	214.35
962.06	214.41
962.36	214.39
962.65	214.39
962.95	214.42
963.24	214.41
963.54	214.43
963.83	214.47
964.13	214.44
964.42	214.38
964.72	214.25
965.01	214.26
965.31	214.24
965.60	214.17
965.90	214.28
966.19	214.24
966.49	214.29
966.78	214.25
967.08	214.23
967.37	214.21
967.67	214.14
967.96	214.19
968.26	214.17
968.55	214.20
968.85	214.17
969.14	214.18
969.43	214.17
969.73	214.12
970.02	214.11
970.32	214.08
970.61	214.07
970.91	213.99
971.20	213.93
971.49	213.92
971.79	213.95
972.08	213.80
972.38	213.81
972.67	213.75
972.96	213.81
973.26	213.76
973.55	213.86
973.85	213.85
974.14	213.81
974.43	213.83
974.73	213.81
975.02	213.82
975.31	213.80
975.61	213.78
975.90	213.78
976.19	213.78
976.49	213.80
976.78	213.81
977.07	213.82
977.37	213.83
977.66	213.87
977.95	213.82
978.24	213.84
978.54	213.86
978.83	213.83
979.12	213.80
979.42	213.80
979.71	213.72
980.00	213.68
980.29	213.72
980.59	213.70
980.88	213.73
981.17	213.70
981.46	213.73
981.76	213.73
982.05	213.79
982.34	213.75
982.63	213.75
982.93	213.74
983.22	213.77
983.51	213.80
983.80	213.78
984.09	213.80
984.39	213.75
984.68	213.76
984.97	213.79
985.26	213.75
985.55	213.76
985.85	213.73
986.14	213.82
986.43	213.84
986.72	213.80
987.01	213.75
987.30	213.74
987.59	213.72
987.89	213.76
988.18	213.70
988.47	213.71
988.76	213.69
989.05	213.70
989.34	213.69
989.63	213.73
989.92	213.73
990.22	213.75
990.51	213.76
990.80	213.74
991.09	213.75
991.38	213.81
991.67	213.80
991.96	213.78
992.25	213.77
992.54	213.68
992.83	213.72
993.12	213.70
993.41	213.74
993.70	213.83
993.99	213.85
994.28	213.85
994.58	213.87
994.87	213.82
995.16	213.82
995.45	213.79
995.74	213.70
996.03	213.71
996.32	213.72
996.61	213.78
996.90	213.79
997.19	213.80
997.48	213.81
997.77	213.79
998.06	213.79
998.34	213.75
998.63	213.77
998.92	213.78
999.21	213.82
999.50	213.80
999.79	213.72
1000.08	213.69
1000.37	213.70
1000.66	213.67
1000.95	213.72
1001.24	213.71
1001.53	213.74
1001.82	213.72
1002.11	213.66
1002.40	213.70
1002.68	213.73
1002.97	213.85
1003.26	213.82
1003.55	213.76
1003.84	213.79
1004.13	213.87
1004.42	213.90
1004.71	213.92
1004.99	213.90
1005.28	213.97
1005.57	213.97
1005.86	213.94
1006.15	213.93
1006.44	213.90
1006.72	213.95
1007.01	213.95
1007.30	213.97
1007.59	213.96
1007.88	214.00
1008.17	214.00
1008.45	213.93
1008.74	213.84
1009.03	213.74
1009.32	213.72
1009.60	213.75
1009.89	213.71
1010.18	213.61
1010.47	213.58
1010.76	213.57
1011.04	213.55
1011.33	213.55
1011.62	213.56
1011.91	213.59
1012.19	213.62
1012.48	213.64
1012.77	213.61
1013.05	213.72
1013.34	213.72
1013.63	213.68
1013.92	213.69
1014.20	213.70
1014.49	213.71
1014.78	213.73
1015.06	213.67
1015.35	213.68
1015.64	213.68
1015.92	213.73
1016.21	213.76
1016.50	213.77
1016.78	213.79
1017.07	213.80
1017.36	213.75
1017.64	213.68
1017.93	213.71
1018.22	213.66
1018.50	213.66
1018.79	213.67
1019.08	213.55
1019.36	213.56
1019.65	213.54
1019.93	213.60
1020.22	213.63
1020.51	213.74
1020.79	213.74
1021.08	213.28
1021.36	213.31
1021.65	214.00
1021.94	213.54
1022.22	213.94
1022.51	213.00
1022.79	214.86
1023.08	213.99
1023.36	215.96
1023.65	213.52
>>>>>End Processed Spectral Data<<<<<
