SpectraSuite Data File
++++++++++++++++++++++++++++++++++++
Date: Fri Feb 01 17:23:23 EST 2013
User: group
Dark Spectrum Present: No
Reference Spectrum Present: No
Number of Sampled Component Spectra: 1
Spectrometers: USB2E7196
Integration Time (usec): 35000 (USB2E7196)
Spectra Averaged: 100 (USB2E7196)
Boxcar Smoothing: 10 (USB2E7196)
Correct for Electrical Dark: No (USB2E7196)
Strobe/Lamp Enabled: No (USB2E7196)
Correct for Detector Non-linearity: No (USB2E7196)
Correct for Stray Light: No (USB2E7196)
Number of Pixels in Processed Spectrum: 2048
>>>>>Begin Processed Spectral Data<<<<<
339.09	0.00
339.48	213.17
339.86	214.78
340.24	215.66
340.63	217.32
341.01	220.40
341.39	220.27
341.78	221.23
342.16	222.46
342.54	222.66
342.93	211.48
343.31	222.18
343.69	222.73
344.07	223.17
344.46	223.60
344.84	224.00
345.22	224.24
345.60	224.49
345.99	224.66
346.37	224.79
346.75	224.90
347.13	224.97
347.52	225.04
347.90	225.13
348.28	225.16
348.66	225.19
349.05	225.18
349.43	225.22
349.81	225.28
350.19	225.32
350.57	225.40
350.96	225.48
351.34	225.56
351.72	225.61
352.10	225.72
352.48	225.80
352.87	225.83
353.25	225.87
353.63	225.93
354.01	226.02
354.39	226.10
354.77	226.17
355.15	226.24
355.54	226.26
355.92	226.27
356.30	226.35
356.68	226.45
357.06	226.53
357.44	226.55
357.82	226.59
358.20	226.64
358.58	226.64
358.97	226.72
359.35	226.77
359.73	226.86
360.11	226.89
360.49	226.91
360.87	226.97
361.25	227.02
361.63	227.04
362.01	227.06
362.39	227.07
362.77	227.11
363.15	227.16
363.53	227.18
363.91	227.22
364.29	227.22
364.67	227.15
365.05	227.17
365.43	227.20
365.81	227.23
366.19	227.26
366.57	227.32
366.95	227.27
367.33	227.24
367.71	227.19
368.09	227.19
368.47	227.17
368.85	227.14
369.23	227.14
369.61	227.09
369.99	227.10
370.37	227.09
370.75	227.10
371.13	227.01
371.51	226.96
371.89	226.94
372.27	226.91
372.65	226.90
373.03	226.85
373.41	226.85
373.78	226.77
374.16	226.68
374.54	226.59
374.92	226.56
375.30	226.49
375.68	226.41
376.06	226.38
376.44	226.28
376.82	226.20
377.19	226.14
377.57	226.09
377.95	225.97
378.33	225.89
378.71	225.78
379.09	225.75
379.47	225.71
379.84	225.66
380.22	225.57
380.60	225.49
380.98	225.41
381.36	225.31
381.73	225.27
382.11	225.25
382.49	225.22
382.87	225.15
383.25	225.13
383.62	225.19
384.00	225.13
384.38	225.13
384.76	225.14
385.13	225.13
385.51	225.09
385.89	225.08
386.27	225.04
386.64	225.04
387.02	225.03
387.40	224.98
387.78	224.93
388.15	224.92
388.53	224.87
388.91	224.87
389.29	224.81
389.66	224.78
390.04	224.71
390.42	224.69
390.79	224.67
391.17	224.62
391.55	224.53
391.92	224.51
392.30	224.50
392.68	224.46
393.05	224.44
393.43	224.42
393.81	224.41
394.18	224.41
394.56	224.41
394.94	224.40
395.31	224.42
395.69	224.44
396.06	224.49
396.44	224.53
396.82	224.52
397.19	224.65
397.57	224.68
397.95	224.71
398.32	224.73
398.70	224.78
399.07	224.84
399.45	224.88
399.82	224.95
400.20	224.97
400.58	225.03
400.95	225.05
401.33	225.15
401.70	225.29
402.08	225.32
402.45	225.38
402.83	225.50
403.20	225.58
403.58	225.68
403.95	225.77
404.33	225.89
404.71	226.03
405.08	226.16
405.46	226.26
405.83	226.42
406.21	226.53
406.58	226.69
406.96	226.82
407.33	226.97
407.70	227.15
408.08	227.42
408.45	227.63
408.83	227.88
409.20	228.10
409.58	228.26
409.95	228.57
410.33	228.83
410.70	229.08
411.08	229.39
411.45	229.66
411.82	229.94
412.20	230.28
412.57	230.68
412.95	230.97
413.32	231.37
413.69	231.78
414.07	232.22
414.44	232.70
414.82	233.22
415.19	233.79
415.56	234.35
415.94	234.90
416.31	235.55
416.68	236.20
417.06	236.95
417.43	237.63
417.81	238.38
418.18	239.19
418.55	240.04
418.93	240.94
419.30	241.88
419.67	242.86
420.04	243.84
420.42	244.88
420.79	246.14
421.16	247.34
421.54	248.60
421.91	249.86
422.28	251.17
422.66	252.56
423.03	253.91
423.40	255.32
423.77	256.81
424.15	258.28
424.52	259.82
424.89	261.46
425.26	263.10
425.64	264.64
426.01	266.30
426.38	268.00
426.75	269.73
427.13	271.56
427.50	273.50
427.87	275.47
428.24	277.40
428.61	279.19
428.99	281.20
429.36	283.36
429.73	285.51
430.10	287.62
430.47	289.76
430.85	291.98
431.22	294.27
431.59	296.76
431.96	299.12
432.33	301.70
432.70	304.20
433.08	307.15
433.45	309.92
433.82	312.64
434.19	315.72
434.56	318.68
434.93	321.41
435.30	324.06
435.68	327.02
436.05	329.94
436.42	332.88
436.79	335.54
437.16	338.34
437.53	341.28
437.90	344.19
438.27	346.97
438.64	349.89
439.01	352.60
439.38	354.90
439.75	357.12
440.13	359.70
440.50	362.10
440.87	363.98
441.24	365.97
441.61	368.18
441.98	369.71
442.35	371.57
442.72	373.51
443.09	375.44
443.46	376.49
443.83	377.10
444.20	377.63
444.57	378.52
444.94	378.87
445.31	379.27
445.68	379.63
446.05	379.80
446.42	379.42
446.79	379.00
447.16	378.60
447.53	378.33
447.90	377.16
448.27	375.99
448.64	374.39
449.01	373.23
449.37	371.27
449.74	369.30
450.11	367.02
450.48	364.49
450.85	361.86
451.22	359.64
451.59	357.60
451.96	355.61
452.33	352.89
452.70	350.44
453.07	347.50
453.43	344.56
453.80	341.71
454.17	338.97
454.54	336.37
454.91	333.52
455.28	330.73
455.65	328.11
456.02	325.58
456.38	323.31
456.75	320.55
457.12	318.22
457.49	315.88
457.86	313.59
458.23	311.66
458.59	309.55
458.96	307.39
459.33	305.46
459.70	303.53
460.07	301.99
460.43	300.20
460.80	298.52
461.17	297.02
461.54	295.42
461.91	293.90
462.27	292.38
462.64	291.07
463.01	289.67
463.38	288.34
463.74	286.94
464.11	285.76
464.48	284.72
464.85	283.55
465.21	282.67
465.58	281.73
465.95	280.58
466.32	279.62
466.68	278.71
467.05	277.77
467.42	276.79
467.78	275.76
468.15	274.84
468.52	274.20
468.88	273.27
469.25	272.49
469.62	271.86
469.98	271.15
470.35	270.48
470.72	269.86
471.08	269.18
471.45	268.62
471.82	268.06
472.18	267.44
472.55	266.99
472.92	266.46
473.28	265.95
473.65	265.50
474.02	265.08
474.38	264.73
474.75	264.44
475.11	264.15
475.48	263.93
475.85	263.71
476.21	263.42
476.58	263.28
476.94	263.12
477.31	262.95
477.67	262.83
478.04	262.74
478.41	262.66
478.77	262.72
479.14	262.64
479.50	262.65
479.87	262.72
480.23	262.82
480.60	262.88
480.96	263.00
481.33	263.18
481.69	263.38
482.06	263.57
482.42	263.73
482.79	263.97
483.15	264.29
483.52	264.65
483.88	265.05
484.25	265.42
484.61	265.82
484.98	266.27
485.34	266.79
485.71	267.37
486.07	268.00
486.44	268.55
486.80	269.27
487.17	269.99
487.53	270.80
487.90	271.63
488.26	272.57
488.62	273.57
488.99	274.49
489.35	275.54
489.72	276.66
490.08	277.83
490.44	279.06
490.81	280.36
491.17	281.71
491.54	283.13
491.90	284.62
492.26	286.28
492.63	288.00
492.99	289.79
493.36	291.67
493.72	293.69
494.08	295.80
494.45	298.01
494.81	300.38
495.17	302.75
495.54	305.31
495.90	307.93
496.26	310.71
496.63	313.68
496.99	316.76
497.35	320.00
497.72	323.40
498.08	326.86
498.44	330.51
498.80	334.40
499.17	338.46
499.53	342.62
499.89	346.96
500.26	351.43
500.62	355.99
500.98	360.93
501.34	365.91
501.71	371.23
502.07	376.65
502.43	382.12
502.79	387.85
503.16	393.85
503.52	400.08
503.88	406.36
504.24	412.99
504.60	419.70
504.97	426.71
505.33	433.91
505.69	441.54
506.05	449.21
506.41	456.96
506.78	464.97
507.14	473.24
507.50	481.83
507.86	490.68
508.22	499.77
508.59	508.80
508.95	518.22
509.31	527.80
509.67	537.74
510.03	547.92
510.39	558.40
510.75	568.95
511.12	579.65
511.48	590.77
511.84	601.90
512.20	613.24
512.56	624.89
512.92	636.75
513.28	648.92
513.64	661.11
514.00	673.59
514.37	686.27
514.73	699.14
515.09	711.83
515.45	724.86
515.81	738.17
516.17	751.81
516.53	765.69
516.89	779.58
517.25	793.38
517.61	807.38
517.97	821.39
518.33	835.46
518.69	849.90
519.05	864.57
519.41	879.46
519.77	894.61
520.13	909.69
520.49	924.82
520.85	939.73
521.21	955.05
521.57	970.82
521.93	986.14
522.29	1002.11
522.65	1018.03
523.01	1033.87
523.37	1049.42
523.73	1065.15
524.09	1080.80
524.45	1096.66
524.81	1112.84
525.17	1129.20
525.53	1145.65
525.89	1162.10
526.25	1178.61
526.61	1194.56
526.97	1210.77
527.33	1226.88
527.68	1243.06
528.04	1259.17
528.40	1275.28
528.76	1291.99
529.12	1308.27
529.48	1324.80
529.84	1340.35
530.20	1356.56
530.56	1373.06
530.91	1390.01
531.27	1406.48
531.63	1422.52
531.99	1438.71
532.35	1454.49
532.71	1470.18
533.07	1486.18
533.42	1501.89
533.78	1517.58
534.14	1533.34
534.50	1548.49
534.86	1564.06
535.21	1578.98
535.57	1594.48
535.93	1609.76
536.29	1624.22
536.65	1638.94
537.00	1653.47
537.36	1668.68
537.72	1682.99
538.08	1697.28
538.44	1710.96
538.79	1724.72
539.15	1738.20
539.51	1751.79
539.87	1765.88
540.22	1779.33
540.58	1792.87
540.94	1805.80
541.29	1818.40
541.65	1831.11
542.01	1844.13
542.37	1856.29
542.72	1868.54
543.08	1880.40
543.44	1892.68
543.79	1903.88
544.15	1914.78
544.51	1926.40
544.87	1937.17
545.22	1948.06
545.58	1958.28
545.94	1968.17
546.29	1978.00
546.65	1988.05
547.01	1997.37
547.36	2006.09
547.72	2014.65
548.07	2022.72
548.43	2031.10
548.79	2039.07
549.14	2046.85
549.50	2054.26
549.86	2061.98
550.21	2069.64
550.57	2076.91
550.92	2083.76
551.28	2090.98
551.64	2098.30
551.99	2104.87
552.35	2111.26
552.70	2117.52
553.06	2123.72
553.41	2130.16
553.77	2136.27
554.13	2142.42
554.48	2148.70
554.84	2154.64
555.19	2159.95
555.55	2165.29
555.90	2169.98
556.26	2175.44
556.61	2180.28
556.97	2185.10
557.32	2189.69
557.68	2193.96
558.03	2198.52
558.39	2202.45
558.74	2207.24
559.10	2211.31
559.45	2215.16
559.81	2219.80
560.16	2223.86
560.52	2227.41
560.87	2231.16
561.23	2234.29
561.58	2237.44
561.94	2240.36
562.29	2242.85
562.64	2246.31
563.00	2249.17
563.35	2252.97
563.71	2256.21
564.06	2259.63
564.42	2262.76
564.77	2265.63
565.12	2268.47
565.48	2270.85
565.83	2273.21
566.19	2275.16
566.54	2276.42
566.89	2278.29
567.25	2279.42
567.60	2281.16
567.96	2283.28
568.31	2284.53
568.66	2286.03
569.02	2287.08
569.37	2287.87
569.72	2289.17
570.08	2289.72
570.43	2290.24
570.78	2290.38
571.14	2289.44
571.49	2288.52
571.84	2288.49
572.20	2287.79
572.55	2287.00
572.90	2285.64
573.26	2284.62
573.61	2283.01
573.96	2281.87
574.31	2279.24
574.67	2276.53
575.02	2273.29
575.37	2270.17
575.72	2266.92
576.08	2263.71
576.43	2260.66
576.78	2257.50
577.13	2254.58
577.49	2251.54
577.84	2248.58
578.19	2244.91
578.54	2241.70
578.90	2237.92
579.25	2232.91
579.60	2228.31
579.95	2223.72
580.30	2219.05
580.66	2214.11
581.01	2209.61
581.36	2204.94
581.71	2200.98
582.06	2197.01
582.42	2192.98
582.77	2188.11
583.12	2183.81
583.47	2179.68
583.82	2175.16
584.17	2170.15
584.53	2164.93
584.88	2159.56
585.23	2154.02
585.58	2148.78
585.93	2143.42
586.28	2138.76
586.63	2133.81
586.98	2128.83
587.34	2124.22
587.69	2119.49
588.04	2114.67
588.39	2109.27
588.74	2102.91
589.09	2096.95
589.44	2090.20
589.79	2084.11
590.14	2078.64
590.49	2072.16
590.84	2065.83
591.19	2059.82
591.54	2053.51
591.89	2046.49
592.25	2040.11
592.60	2032.98
592.95	2025.73
593.30	2018.61
593.65	2011.23
594.00	2004.34
594.35	1997.30
594.70	1989.32
595.05	1982.51
595.40	1975.11
595.75	1967.77
596.10	1961.92
596.45	1955.32
596.80	1949.33
597.15	1942.97
597.50	1936.26
597.85	1929.93
598.19	1923.45
598.54	1916.62
598.89	1910.11
599.24	1904.22
599.59	1897.77
599.94	1891.48
600.29	1885.12
600.64	1878.53
600.99	1871.31
601.34	1864.52
601.69	1857.61
602.04	1851.00
602.39	1843.62
602.74	1837.08
603.08	1830.53
603.43	1823.69
603.78	1816.57
604.13	1809.51
604.48	1802.38
604.83	1795.38
605.18	1788.72
605.53	1780.86
605.87	1772.79
606.22	1765.45
606.57	1757.59
606.92	1749.98
607.27	1743.09
607.62	1736.38
607.96	1729.25
608.31	1722.74
608.66	1715.23
609.01	1707.85
609.36	1700.37
609.70	1692.43
610.05	1684.42
610.40	1676.66
610.75	1668.32
611.10	1660.54
611.44	1651.90
611.79	1643.73
612.14	1635.00
612.49	1625.63
612.83	1617.08
613.18	1609.00
613.53	1600.94
613.88	1592.24
614.22	1583.92
614.57	1575.12
614.92	1566.98
615.27	1559.56
615.61	1551.21
615.96	1543.16
616.31	1535.37
616.65	1527.90
617.00	1520.27
617.35	1512.50
617.70	1504.16
618.04	1495.72
618.39	1487.36
618.74	1479.75
619.08	1471.46
619.43	1463.79
619.78	1456.74
620.12	1449.61
620.47	1442.10
620.82	1433.64
621.16	1426.15
621.51	1418.44
621.85	1410.66
622.20	1402.00
622.55	1393.40
622.89	1385.38
623.24	1377.55
623.59	1369.96
623.93	1362.32
624.28	1354.95
624.62	1347.23
624.97	1339.87
625.32	1332.87
625.66	1325.84
626.01	1318.65
626.35	1311.21
626.70	1303.50
627.04	1295.79
627.39	1287.86
627.73	1280.17
628.08	1273.31
628.43	1266.05
628.77	1258.80
629.12	1251.27
629.46	1244.09
629.81	1236.51
630.15	1229.13
630.50	1221.69
630.84	1213.43
631.19	1205.34
631.53	1197.58
631.88	1189.99
632.22	1182.30
632.57	1174.94
632.91	1167.25
633.26	1159.75
633.60	1152.23
633.95	1144.83
634.29	1137.56
634.64	1130.78
634.98	1123.45
635.32	1116.27
635.67	1109.55
636.01	1102.73
636.36	1095.97
636.70	1089.36
637.05	1082.69
637.39	1076.15
637.73	1069.59
638.08	1063.69
638.42	1057.73
638.77	1051.32
639.11	1044.68
639.45	1038.26
639.80	1031.60
640.14	1025.18
640.49	1018.61
640.83	1012.19
641.17	1006.03
641.52	999.68
641.86	993.09
642.20	987.24
642.55	980.69
642.89	974.17
643.23	967.46
643.58	961.59
643.92	955.33
644.26	949.37
644.61	943.27
644.95	937.18
645.29	930.53
645.64	923.67
645.98	917.27
646.32	911.22
646.66	905.09
647.01	899.29
647.35	893.52
647.69	887.53
648.04	882.00
648.38	876.12
648.72	870.19
649.06	864.12
649.41	858.15
649.75	852.29
650.09	846.34
650.43	840.62
650.78	834.42
651.12	828.41
651.46	822.55
651.80	816.97
652.14	811.57
652.49	806.15
652.83	800.91
653.17	795.31
653.51	789.71
653.85	784.21
654.20	778.50
654.54	772.54
654.88	766.78
655.22	760.77
655.56	755.01
655.90	749.43
656.25	744.16
656.59	738.76
656.93	733.61
657.27	728.37
657.61	722.91
657.95	717.80
658.29	712.66
658.64	707.39
658.98	701.94
659.32	696.38
659.66	691.18
660.00	685.97
660.34	680.95
660.68	675.99
661.02	671.02
661.36	666.27
661.70	661.67
662.05	657.28
662.39	652.99
662.73	648.54
663.07	644.14
663.41	639.68
663.75	635.23
664.09	630.62
664.43	626.22
664.77	622.07
665.11	617.84
665.45	613.67
665.79	609.61
666.13	605.47
666.47	601.39
666.81	597.28
667.15	593.05
667.49	589.13
667.83	585.25
668.17	581.22
668.51	577.20
668.85	573.11
669.19	569.21
669.53	565.36
669.87	561.51
670.21	557.80
670.55	554.12
670.89	550.62
671.23	547.20
671.57	543.67
671.91	540.17
672.25	536.62
672.58	533.09
672.92	529.64
673.26	526.41
673.60	523.24
673.94	520.12
674.28	517.24
674.62	514.29
674.96	511.20
675.30	508.36
675.64	505.41
675.97	502.60
676.31	499.73
676.65	496.79
676.99	494.04
677.33	491.11
677.67	488.29
678.01	485.37
678.34	482.43
678.68	479.53
679.02	476.71
679.36	473.88
679.70	471.13
680.04	468.34
680.37	465.55
680.71	462.68
681.05	459.98
681.39	457.21
681.73	454.52
682.06	451.95
682.40	449.33
682.74	446.75
683.08	444.22
683.42	441.59
683.75	439.08
684.09	436.53
684.43	434.05
684.77	431.58
685.10	429.10
685.44	426.72
685.78	424.43
686.12	422.11
686.45	419.80
686.79	417.48
687.13	415.21
687.46	412.94
687.80	410.78
688.14	408.50
688.48	406.46
688.81	404.19
689.15	401.99
689.49	399.80
689.82	397.63
690.16	395.44
690.50	393.46
690.83	391.49
691.17	389.41
691.51	387.48
691.84	385.58
692.18	383.65
692.52	381.69
692.85	379.64
693.19	377.74
693.52	375.87
693.86	374.04
694.20	372.26
694.53	370.44
694.87	368.58
695.21	366.79
695.54	364.84
695.88	363.04
696.21	361.26
696.55	359.57
696.88	357.89
697.22	356.18
697.56	354.46
697.89	352.78
698.23	351.20
698.56	349.55
698.90	347.96
699.23	346.31
699.57	344.71
699.90	343.16
700.24	341.62
700.58	340.05
700.91	338.54
701.25	337.08
701.58	335.69
701.92	334.30
702.25	332.92
702.59	331.58
702.92	330.26
703.26	329.00
703.59	327.70
703.93	326.50
704.26	325.30
704.60	324.04
704.93	322.76
705.26	321.50
705.60	320.30
705.93	319.09
706.27	318.07
706.60	316.97
706.94	315.89
707.27	314.73
707.61	313.64
707.94	312.57
708.27	311.41
708.61	310.33
708.94	309.28
709.28	308.27
709.61	307.28
709.94	306.35
710.28	305.28
710.61	304.25
710.95	303.14
711.28	302.20
711.61	301.25
711.95	300.33
712.28	299.36
712.61	298.40
712.95	297.49
713.28	296.52
713.61	295.61
713.95	294.71
714.28	293.84
714.61	292.98
714.95	292.16
715.28	291.36
715.61	290.48
715.95	289.65
716.28	288.78
716.61	287.95
716.95	287.07
717.28	286.30
717.61	285.55
717.94	284.82
718.28	284.04
718.61	283.24
718.94	282.49
719.27	281.83
719.61	281.17
719.94	280.48
720.27	279.77
720.60	279.10
720.94	278.48
721.27	277.90
721.60	277.30
721.93	276.65
722.27	276.08
722.60	275.52
722.93	274.96
723.26	274.43
723.59	273.84
723.93	273.32
724.26	272.78
724.59	272.19
724.92	271.67
725.25	271.12
725.59	270.62
725.92	270.11
726.25	269.60
726.58	269.09
726.91	268.57
727.24	268.11
727.57	267.62
727.91	267.05
728.24	266.53
728.57	266.05
728.90	265.62
729.23	265.10
729.56	264.65
729.89	264.14
730.22	263.61
730.55	263.12
730.89	262.69
731.22	262.22
731.55	261.78
731.88	261.30
732.21	260.88
732.54	260.45
732.87	260.02
733.20	259.62
733.53	259.20
733.86	258.81
734.19	258.40
734.52	258.04
734.85	257.77
735.18	257.38
735.51	256.99
735.84	256.57
736.17	256.21
736.50	255.80
736.83	255.57
737.16	255.26
737.49	254.94
737.82	254.58
738.15	254.23
738.48	253.90
738.81	253.60
739.14	253.26
739.47	252.93
739.80	252.60
740.13	252.27
740.46	251.92
740.79	251.62
741.12	251.32
741.45	250.93
741.78	250.54
742.11	250.24
742.44	249.89
742.77	249.62
743.10	249.31
743.43	248.98
743.75	248.57
744.08	248.40
744.41	248.08
744.74	247.77
745.07	247.49
745.40	247.23
745.73	246.99
746.06	246.71
746.39	246.45
746.71	246.19
747.04	245.94
747.37	245.68
747.70	245.43
748.03	245.14
748.36	244.97
748.68	244.72
749.01	244.46
749.34	244.26
749.67	244.01
750.00	243.80
750.33	243.61
750.65	243.42
750.98	243.08
751.31	242.89
751.64	242.69
751.97	242.56
752.29	242.34
752.62	242.09
752.95	241.90
753.28	241.68
753.60	241.47
753.93	241.28
754.26	241.11
754.59	240.85
754.91	240.64
755.24	240.40
755.57	240.22
755.90	240.05
756.22	239.81
756.55	239.61
756.88	239.41
757.20	239.23
757.53	239.02
757.86	238.87
758.19	238.69
758.51	238.51
758.84	238.26
759.17	238.10
759.49	237.96
759.82	237.80
760.15	237.65
760.47	237.51
760.80	237.33
761.13	237.19
761.45	237.07
761.78	236.95
762.11	236.84
762.43	236.68
762.76	236.56
763.08	236.45
763.41	236.32
763.74	236.16
764.06	236.01
764.39	235.90
764.71	235.75
765.04	235.62
765.37	235.47
765.69	235.33
766.02	235.21
766.34	235.06
766.67	234.90
767.00	234.79
767.32	234.69
767.65	234.62
767.97	234.49
768.30	234.41
768.62	234.28
768.95	234.15
769.27	234.03
769.60	233.90
769.92	233.77
770.25	233.66
770.57	233.56
770.90	233.44
771.22	233.29
771.55	233.16
771.87	233.07
772.20	232.96
772.52	232.96
772.85	232.96
773.17	232.86
773.50	232.76
773.82	232.66
774.15	232.54
774.47	232.37
774.80	232.24
775.12	232.12
775.45	232.03
775.77	231.93
776.09	231.87
776.42	231.79
776.74	231.77
777.07	231.69
777.39	231.59
777.72	231.53
778.04	231.48
778.36	231.39
778.69	231.30
779.01	231.27
779.33	231.12
779.66	230.92
779.98	230.82
780.31	230.77
780.63	230.74
780.95	230.65
781.28	230.59
781.60	230.54
781.92	230.48
782.25	230.38
782.57	230.31
782.89	230.22
783.22	230.18
783.54	230.08
783.86	230.02
784.19	229.99
784.51	229.93
784.83	229.86
785.16	229.85
785.48	229.78
785.80	229.70
786.12	229.65
786.45	229.60
786.77	229.56
787.09	229.47
787.42	229.38
787.74	229.36
788.06	229.36
788.38	229.30
788.71	229.23
789.03	229.21
789.35	229.18
789.67	229.15
789.99	229.06
790.32	228.98
790.64	228.92
790.96	228.95
791.28	228.87
791.61	228.84
791.93	228.79
792.25	228.78
792.57	228.82
792.89	228.77
793.21	228.73
793.54	228.69
793.86	228.65
794.18	228.57
794.50	228.51
794.82	228.46
795.14	228.42
795.47	228.39
795.79	228.35
796.11	228.27
796.43	228.21
796.75	228.20
797.07	228.19
797.39	228.18
797.71	228.08
798.04	228.06
798.36	228.01
798.68	227.99
799.00	227.93
799.32	227.87
799.64	227.83
799.96	227.84
800.28	227.84
800.60	227.86
800.92	227.88
801.24	227.85
801.56	227.84
801.89	227.84
802.21	227.82
802.53	227.77
802.85	227.79
803.17	227.81
803.49	227.76
803.81	227.71
804.13	227.69
804.45	227.65
804.77	227.63
805.09	227.59
805.41	227.52
805.73	227.50
806.05	227.41
806.37	227.39
806.69	227.32
807.01	227.28
807.33	227.26
807.65	227.18
807.97	227.23
808.28	227.19
808.60	227.20
808.92	227.18
809.24	227.21
809.56	227.18
809.88	227.16
810.20	227.17
810.52	227.18
810.84	227.14
811.16	227.11
811.48	227.08
811.80	227.15
812.12	227.14
812.43	227.17
812.75	227.20
813.07	227.18
813.39	227.21
813.71	227.17
814.03	227.12
814.35	227.10
814.67	227.02
814.98	226.99
815.30	226.93
815.62	226.90
815.94	226.83
816.26	226.84
816.58	226.77
816.89	226.74
817.21	226.71
817.53	226.70
817.85	226.71
818.17	226.69
818.48	226.60
818.80	226.60
819.12	226.54
819.44	226.48
819.76	226.44
820.07	226.41
820.39	226.40
820.71	226.38
821.03	226.40
821.34	226.35
821.66	226.34
821.98	226.35
822.30	226.34
822.61	226.39
822.93	226.35
823.25	226.32
823.57	226.32
823.88	226.33
824.20	226.28
824.52	226.28
824.83	226.25
825.15	226.18
825.47	226.15
825.79	226.15
826.10	226.14
826.42	226.12
826.74	226.10
827.05	226.06
827.37	226.03
827.69	225.99
828.00	225.99
828.32	226.00
828.64	225.98
828.95	225.99
829.27	225.97
829.58	225.94
829.90	225.96
830.22	225.94
830.53	225.90
830.85	225.91
831.17	225.87
831.48	225.88
831.80	225.89
832.11	225.89
832.43	225.87
832.75	225.84
833.06	225.90
833.38	225.86
833.69	225.87
834.01	225.87
834.32	225.86
834.64	225.81
834.96	225.79
835.27	225.76
835.59	225.73
835.90	225.70
836.22	225.70
836.53	225.65
836.85	225.61
837.16	225.71
837.48	225.68
837.79	225.69
838.11	225.69
838.42	225.72
838.74	225.71
839.05	225.72
839.37	225.73
839.68	225.67
840.00	225.69
840.31	225.71
840.63	225.72
840.94	225.70
841.26	225.70
841.57	225.70
841.88	225.72
842.20	225.69
842.51	225.61
842.83	225.62
843.14	225.74
843.46	225.75
843.77	225.68
844.08	225.69
844.40	225.66
844.71	225.65
845.03	225.62
845.34	225.63
845.65	225.56
845.97	225.58
846.28	225.59
846.60	225.57
846.91	225.55
847.22	225.54
847.54	225.57
847.85	225.58
848.16	225.55
848.48	225.49
848.79	225.57
849.10	225.63
849.42	225.61
849.73	225.52
850.04	225.49
850.36	225.44
850.67	225.44
850.98	225.45
851.30	225.44
851.61	225.43
851.92	225.42
852.23	225.45
852.55	225.44
852.86	225.40
853.17	225.42
853.49	225.42
853.80	225.43
854.11	225.42
854.42	225.43
854.74	225.44
855.05	225.43
855.36	225.35
855.67	225.33
855.99	225.35
856.30	225.43
856.61	225.45
856.92	225.47
857.23	225.46
857.55	225.46
857.86	225.45
858.17	225.46
858.48	225.45
858.79	225.45
859.11	225.46
859.42	225.47
859.73	225.44
860.04	225.42
860.35	225.40
860.66	225.38
860.98	225.35
861.29	225.36
861.60	225.39
861.91	225.37
862.22	225.39
862.53	225.35
862.84	225.25
863.16	225.24
863.47	225.19
863.78	225.19
864.09	225.16
864.40	225.16
864.71	225.16
865.02	225.14
865.33	225.11
865.64	225.11
865.95	225.08
866.27	225.14
866.58	225.15
866.89	225.12
867.20	225.10
867.51	225.10
867.82	225.07
868.13	225.11
868.44	225.12
868.75	225.10
869.06	225.11
869.37	225.13
869.68	225.11
869.99	225.14
870.30	225.15
870.61	225.19
870.92	225.16
871.23	225.15
871.54	225.15
871.85	225.18
872.16	225.17
872.47	225.17
872.78	225.12
873.09	225.08
873.40	225.07
873.71	225.09
874.02	225.05
874.33	225.03
874.64	224.97
874.95	224.97
875.26	224.93
875.56	224.94
875.87	224.92
876.18	224.94
876.49	225.05
876.80	225.01
877.11	225.00
877.42	225.02
877.73	225.00
878.04	225.00
878.35	225.03
878.66	225.03
878.96	225.03
879.27	225.02
879.58	225.02
879.89	225.02
880.20	225.02
880.51	225.08
880.82	225.08
881.12	225.12
881.43	225.09
881.74	225.09
882.05	225.08
882.36	225.10
882.67	225.08
882.97	224.95
883.28	224.98
883.59	224.96
883.90	224.96
884.21	224.99
884.51	224.98
884.82	224.93
885.13	224.92
885.44	224.94
885.74	224.96
886.05	224.98
886.36	224.99
886.67	224.98
886.98	225.01
887.28	225.02
887.59	225.03
887.90	225.06
888.20	225.04
888.51	225.03
888.82	225.00
889.13	225.03
889.43	225.12
889.74	225.08
890.05	225.08
890.35	225.06
890.66	225.04
890.97	225.06
891.28	225.04
891.58	225.03
891.89	225.02
892.20	224.98
892.50	224.95
892.81	224.95
893.12	224.94
893.42	224.87
893.73	224.90
894.04	224.90
894.34	224.90
894.65	224.94
894.95	224.94
895.26	224.92
895.57	224.91
895.87	224.83
896.18	224.84
896.48	224.82
896.79	224.81
897.10	224.84
897.40	224.83
897.71	224.83
898.01	224.84
898.32	224.85
898.63	224.87
898.93	224.87
899.24	224.91
899.54	224.90
899.85	224.93
900.15	224.90
900.46	224.89
900.76	224.93
901.07	224.91
901.38	224.94
901.68	224.97
901.99	224.92
902.29	224.91
902.60	224.91
902.90	224.91
903.21	224.93
903.51	224.91
903.82	224.97
904.12	224.98
904.43	224.97
904.73	225.00
905.03	225.00
905.34	225.11
905.64	225.06
905.95	225.11
906.25	225.09
906.56	225.11
906.86	225.12
907.17	225.11
907.47	225.13
907.77	225.05
908.08	225.05
908.38	225.08
908.69	225.08
908.99	225.14
909.30	225.16
909.60	225.16
909.90	225.18
910.21	225.11
910.51	225.11
910.81	225.11
911.12	225.08
911.42	225.08
911.73	224.96
912.03	224.96
912.33	224.93
912.64	224.96
912.94	224.94
913.24	224.90
913.55	224.87
913.85	224.87
914.15	224.93
914.46	224.95
914.76	224.95
915.06	224.96
915.37	224.90
915.67	224.91
915.97	224.91
916.27	224.87
916.58	224.89
916.88	224.87
917.18	224.87
917.49	224.93
917.79	224.93
918.09	224.94
918.39	224.97
918.70	224.99
919.00	224.98
919.30	225.04
919.60	225.04
919.91	225.02
920.21	225.01
920.51	224.96
920.81	224.91
921.12	224.94
921.42	224.92
921.72	224.92
922.02	224.91
922.32	224.90
922.63	224.91
922.93	224.94
923.23	224.97
923.53	224.96
923.83	224.91
924.13	224.90
924.44	224.89
924.74	224.93
925.04	224.93
925.34	224.92
925.64	224.87
925.94	224.87
926.24	224.91
926.55	224.89
926.85	224.89
927.15	224.90
927.45	224.88
927.75	224.87
928.05	224.87
928.35	224.87
928.65	224.89
928.95	224.88
929.26	224.83
929.56	224.85
929.86	224.87
930.16	224.87
930.46	224.89
930.76	224.89
931.06	224.83
931.36	224.81
931.66	224.80
931.96	224.80
932.26	224.79
932.56	224.76
932.86	224.80
933.16	224.84
933.46	224.86
933.76	224.83
934.06	224.89
934.36	224.94
934.66	224.94
934.96	224.93
935.26	224.92
935.56	224.96
935.86	224.93
936.16	224.91
936.46	224.89
936.76	224.88
937.06	224.88
937.36	224.88
937.66	224.89
937.96	224.91
938.26	224.90
938.56	224.88
938.86	224.90
939.16	224.90
939.46	224.92
939.76	224.93
940.06	224.97
940.35	225.00
940.65	224.95
940.95	224.95
941.25	224.93
941.55	224.95
941.85	224.93
942.15	224.96
942.45	224.99
942.75	224.98
943.04	224.97
943.34	225.00
943.64	224.97
943.94	224.98
944.24	224.98
944.54	224.99
944.84	225.04
945.13	225.03
945.43	225.00
945.73	224.97
946.03	224.95
946.33	224.93
946.62	224.86
946.92	224.86
947.22	224.86
947.52	224.86
947.82	224.85
948.11	224.85
948.41	224.81
948.71	224.80
949.01	224.81
949.31	224.81
949.60	224.80
949.90	224.84
950.20	224.83
950.50	224.82
950.79	224.80
951.09	224.79
951.39	224.78
951.69	224.76
951.98	224.83
952.28	224.82
952.58	224.81
952.87	224.80
953.17	224.81
953.47	224.80
953.76	224.76
954.06	224.77
954.36	224.73
954.66	224.72
954.95	224.71
955.25	224.71
955.55	224.70
955.84	224.68
956.14	224.66
956.44	224.64
956.73	224.59
957.03	224.58
957.32	224.55
957.62	224.53
957.92	224.54
958.21	224.49
958.51	224.60
958.81	224.58
959.10	224.61
959.40	224.64
959.69	224.67
959.99	224.70
960.29	224.69
960.58	224.70
960.88	224.75
961.17	224.75
961.47	224.77
961.76	224.76
962.06	224.75
962.36	224.73
962.65	224.73
962.95	224.74
963.24	224.72
963.54	224.76
963.83	224.79
964.13	224.77
964.42	224.74
964.72	224.68
965.01	224.71
965.31	224.69
965.60	224.66
965.90	224.68
966.19	224.68
966.49	224.69
966.78	224.69
967.08	224.67
967.37	224.64
967.67	224.61
967.96	224.60
968.26	224.62
968.55	224.65
968.85	224.65
969.14	224.67
969.43	224.68
969.73	224.66
970.02	224.66
970.32	224.67
970.61	224.66
970.91	224.61
971.20	224.57
971.49	224.54
971.79	224.51
972.08	224.45
972.38	224.45
972.67	224.46
972.96	224.46
973.26	224.44
973.55	224.51
973.85	224.49
974.14	224.50
974.43	224.51
974.73	224.50
975.02	224.50
975.31	224.51
975.61	224.53
975.90	224.50
976.19	224.48
976.49	224.48
976.78	224.48
977.07	224.47
977.37	224.48
977.66	224.53
977.95	224.54
978.24	224.55
978.54	224.57
978.83	224.54
979.12	224.55
979.42	224.52
979.71	224.49
980.00	224.52
980.29	224.51
980.59	224.44
980.88	224.47
981.17	224.46
981.46	224.46
981.76	224.46
982.05	224.53
982.34	224.55
982.63	224.56
982.93	224.56
983.22	224.63
983.51	224.63
983.80	224.64
984.09	224.67
984.39	224.69
984.68	224.69
984.97	224.71
985.26	224.70
985.55	224.72
985.85	224.69
986.14	224.70
986.43	224.73
986.72	224.76
987.01	224.78
987.30	224.79
987.59	224.79
987.89	224.79
988.18	224.75
988.47	224.71
988.76	224.72
989.05	224.70
989.34	224.67
989.63	224.71
989.92	224.69
990.22	224.65
990.51	224.63
990.80	224.61
991.09	224.62
991.38	224.63
991.67	224.61
991.96	224.63
992.25	224.61
992.54	224.58
992.83	224.59
993.12	224.53
993.41	224.54
993.70	224.54
993.99	224.51
994.28	224.50
994.58	224.54
994.87	224.51
995.16	224.53
995.45	224.51
995.74	224.45
996.03	224.45
996.32	224.48
996.61	224.47
996.90	224.46
997.19	224.45
997.48	224.46
997.77	224.46
998.06	224.47
998.34	224.48
998.63	224.50
998.92	224.49
999.21	224.53
999.50	224.54
999.79	224.50
1000.08	224.52
1000.37	224.53
1000.66	224.51
1000.95	224.54
1001.24	224.51
1001.53	224.54
1001.82	224.55
1002.11	224.55
1002.40	224.57
1002.68	224.62
1002.97	224.69
1003.26	224.67
1003.55	224.67
1003.84	224.67
1004.13	224.69
1004.42	224.68
1004.71	224.65
1004.99	224.67
1005.28	224.68
1005.57	224.67
1005.86	224.68
1006.15	224.67
1006.44	224.64
1006.72	224.64
1007.01	224.64
1007.30	224.66
1007.59	224.61
1007.88	224.59
1008.17	224.63
1008.45	224.61
1008.74	224.55
1009.03	224.52
1009.32	224.54
1009.60	224.51
1009.89	224.54
1010.18	224.49
1010.47	224.48
1010.76	224.50
1011.04	224.46
1011.33	224.46
1011.62	224.44
1011.91	224.43
1012.19	224.46
1012.48	224.48
1012.77	224.50
1013.05	224.54
1013.34	224.56
1013.63	224.60
1013.92	224.62
1014.20	224.58
1014.49	224.56
1014.78	224.60
1015.06	224.58
1015.35	224.61
1015.64	224.62
1015.92	224.63
1016.21	224.65
1016.50	224.71
1016.78	224.72
1017.07	224.78
1017.36	224.79
1017.64	224.84
1017.93	224.85
1018.22	224.85
1018.50	224.85
1018.79	224.87
1019.08	224.84
1019.36	224.87
1019.65	224.85
1019.93	224.88
1020.22	224.90
1020.51	224.96
1020.79	224.95
1021.08	224.66
1021.36	224.63
1021.65	225.22
1021.94	224.90
1022.22	225.41
1022.51	224.39
1022.79	225.43
1023.08	224.73
1023.36	225.76
1023.65	224.68
>>>>>End Processed Spectral Data<<<<<
