SpectraSuite Data File
++++++++++++++++++++++++++++++++++++
Date: Fri Feb 01 16:34:58 EST 2013
User: group
Dark Spectrum Present: No
Reference Spectrum Present: No
Number of Sampled Component Spectra: 1
Spectrometers: USB2E7196
Integration Time (usec): 35000 (USB2E7196)
Spectra Averaged: 100 (USB2E7196)
Boxcar Smoothing: 10 (USB2E7196)
Correct for Electrical Dark: No (USB2E7196)
Strobe/Lamp Enabled: No (USB2E7196)
Correct for Detector Non-linearity: No (USB2E7196)
Correct for Stray Light: No (USB2E7196)
Number of Pixels in Processed Spectrum: 2048
>>>>>Begin Processed Spectral Data<<<<<
339.09	0.00
339.48	214.20
339.86	215.65
340.24	217.35
340.63	218.45
341.01	221.13
341.39	221.78
341.78	222.15
342.16	223.81
342.54	224.45
342.93	212.53
343.31	223.29
343.69	223.85
344.07	224.31
344.46	224.72
344.84	225.07
345.22	225.32
345.60	225.53
345.99	225.74
346.37	225.82
346.75	225.87
347.13	225.94
347.52	225.94
347.90	226.00
348.28	226.05
348.66	226.08
349.05	226.06
349.43	226.08
349.81	226.09
350.19	226.09
350.57	226.12
350.96	226.19
351.34	226.23
351.72	226.29
352.10	226.35
352.48	226.42
352.87	226.46
353.25	226.49
353.63	226.55
354.01	226.59
354.39	226.67
354.77	226.77
355.15	226.87
355.54	226.94
355.92	226.98
356.30	227.03
356.68	227.21
357.06	227.29
357.44	227.35
357.82	227.42
358.20	227.53
358.58	227.63
358.97	227.71
359.35	227.78
359.73	227.82
360.11	227.90
360.49	227.93
360.87	227.99
361.25	228.06
361.63	228.15
362.01	228.21
362.39	228.26
362.77	228.29
363.15	228.30
363.53	228.32
363.91	228.35
364.29	228.35
364.67	228.25
365.05	228.27
365.43	228.29
365.81	228.30
366.19	228.33
366.57	228.33
366.95	228.31
367.33	228.31
367.71	228.32
368.09	228.36
368.47	228.36
368.85	228.35
369.23	228.34
369.61	228.27
369.99	228.25
370.37	228.21
370.75	228.25
371.13	228.23
371.51	228.19
371.89	228.15
372.27	228.13
372.65	228.06
373.03	228.01
373.41	227.95
373.78	227.92
374.16	227.79
374.54	227.73
374.92	227.66
375.30	227.60
375.68	227.51
376.06	227.45
376.44	227.37
376.82	227.31
377.19	227.24
377.57	227.18
377.95	227.08
378.33	227.04
378.71	226.91
379.09	226.84
379.47	226.76
379.84	226.69
380.22	226.64
380.60	226.59
380.98	226.52
381.36	226.47
381.73	226.39
382.11	226.38
382.49	226.31
382.87	226.25
383.25	226.17
383.62	226.25
384.00	226.15
384.38	226.08
384.76	226.05
385.13	226.05
385.51	225.97
385.89	225.94
386.27	225.89
386.64	225.86
387.02	225.82
387.40	225.80
387.78	225.80
388.15	225.73
388.53	225.70
388.91	225.70
389.29	225.64
389.66	225.61
390.04	225.55
390.42	225.54
390.79	225.52
391.17	225.55
391.55	225.42
391.92	225.42
392.30	225.44
392.68	225.43
393.05	225.38
393.43	225.41
393.81	225.41
394.18	225.40
394.56	225.42
394.94	225.43
395.31	225.45
395.69	225.47
396.06	225.53
396.44	225.59
396.82	225.60
397.19	225.70
397.57	225.74
397.95	225.83
398.32	225.86
398.70	225.91
399.07	225.96
399.45	226.02
399.82	226.09
400.20	226.14
400.58	226.23
400.95	226.26
401.33	226.36
401.70	226.51
402.08	226.59
402.45	226.64
402.83	226.75
403.20	226.84
403.58	226.91
403.95	227.04
404.33	227.15
404.71	227.22
405.08	227.38
405.46	227.51
405.83	227.65
406.21	227.80
406.58	227.99
406.96	228.14
407.33	228.29
407.70	228.46
408.08	228.75
408.45	228.93
408.83	229.16
409.20	229.33
409.58	229.49
409.95	229.75
410.33	230.02
410.70	230.27
411.08	230.55
411.45	230.87
411.82	231.13
412.20	231.44
412.57	231.88
412.95	232.15
413.32	232.56
413.69	232.94
414.07	233.35
414.44	233.81
414.82	234.27
415.19	234.82
415.56	235.33
415.94	235.82
416.31	236.44
416.68	237.06
417.06	237.79
417.43	238.47
417.81	239.26
418.18	240.01
418.55	240.85
418.93	241.76
419.30	242.64
419.67	243.60
420.04	244.56
420.42	245.52
420.79	246.73
421.16	247.84
421.54	249.03
421.91	250.26
422.28	251.49
422.66	252.84
423.03	254.14
423.40	255.49
423.77	256.90
424.15	258.32
424.52	259.82
424.89	261.42
425.26	262.98
425.64	264.42
426.01	266.02
426.38	267.66
426.75	269.32
427.13	271.06
427.50	272.86
427.87	274.73
428.24	276.63
428.61	278.36
428.99	280.31
429.36	282.39
429.73	284.47
430.10	286.45
430.47	288.45
430.85	290.55
431.22	292.76
431.59	295.14
431.96	297.38
432.33	299.85
432.70	302.22
433.08	305.01
433.45	307.62
433.82	310.21
434.19	313.10
434.56	315.87
434.93	318.47
435.30	321.07
435.68	323.96
436.05	326.74
436.42	329.51
436.79	332.05
437.16	334.73
437.53	337.51
437.90	340.33
438.27	343.06
438.64	345.87
439.01	348.48
439.38	350.70
439.75	352.88
440.13	355.34
440.50	357.68
440.87	359.55
441.24	361.48
441.61	363.65
441.98	365.11
442.35	366.93
442.72	368.82
443.09	370.57
443.46	371.58
443.83	372.15
444.20	372.67
444.57	373.49
444.94	373.74
445.31	374.08
445.68	374.45
446.05	374.59
446.42	374.20
446.79	373.76
447.16	373.32
447.53	373.01
447.90	371.87
448.27	370.65
448.64	369.03
449.01	367.90
449.37	365.96
449.74	364.06
450.11	361.83
450.48	359.37
450.85	356.90
451.22	354.74
451.59	352.76
451.96	350.82
452.33	348.22
452.70	345.91
453.07	343.08
453.43	340.16
453.80	337.37
454.17	334.70
454.54	332.16
454.91	329.44
455.28	326.76
455.65	324.32
456.02	321.95
456.38	319.83
456.75	317.22
457.12	314.97
457.49	312.74
457.86	310.54
458.23	308.71
458.59	306.66
458.96	304.57
459.33	302.72
459.70	300.88
460.07	299.39
460.43	297.68
460.80	296.07
461.17	294.67
461.54	293.19
461.91	291.80
462.27	290.36
462.64	289.12
463.01	287.76
463.38	286.47
463.74	285.10
464.11	283.95
464.48	282.88
464.85	281.77
465.21	280.96
465.58	280.10
465.95	279.01
466.32	278.12
466.68	277.26
467.05	276.35
467.42	275.47
467.78	274.55
468.15	273.70
468.52	273.07
468.88	272.22
469.25	271.48
469.62	270.85
469.98	270.24
470.35	269.64
470.72	269.08
471.08	268.42
471.45	267.90
471.82	267.35
472.18	266.80
472.55	266.35
472.92	265.87
473.28	265.35
473.65	264.89
474.02	264.49
474.38	264.10
474.75	263.81
475.11	263.46
475.48	263.20
475.85	262.97
476.21	262.72
476.58	262.55
476.94	262.37
477.31	262.23
477.67	262.06
478.04	261.94
478.41	261.91
478.77	261.97
479.14	261.91
479.50	261.93
479.87	261.96
480.23	262.07
480.60	262.09
480.96	262.22
481.33	262.42
481.69	262.63
482.06	262.85
482.42	263.05
482.79	263.33
483.15	263.63
483.52	264.01
483.88	264.41
484.25	264.80
484.61	265.24
484.98	265.69
485.34	266.27
485.71	266.89
486.07	267.44
486.44	267.99
486.80	268.68
487.17	269.43
487.53	270.24
487.90	271.06
488.26	272.01
488.62	273.02
488.99	274.03
489.35	275.07
489.72	276.20
490.08	277.38
490.44	278.63
490.81	279.98
491.17	281.31
491.54	282.81
491.90	284.35
492.26	285.99
492.63	287.74
492.99	289.56
493.36	291.44
493.72	293.51
494.08	295.61
494.45	297.88
494.81	300.25
495.17	302.70
495.54	305.33
495.90	308.08
496.26	310.87
496.63	313.85
496.99	316.95
497.35	320.23
497.72	323.65
498.08	327.19
498.44	330.91
498.80	334.91
499.17	338.96
499.53	343.15
499.89	347.57
500.26	352.07
500.62	356.70
500.98	361.66
501.34	366.75
501.71	372.10
502.07	377.57
502.43	383.21
502.79	389.09
503.16	395.10
503.52	401.33
503.88	407.77
504.24	414.42
504.60	421.34
504.97	428.48
505.33	435.85
505.69	443.58
506.05	451.42
506.41	459.23
506.78	467.35
507.14	475.76
507.50	484.48
507.86	493.50
508.22	502.75
508.59	511.95
508.95	521.50
509.31	531.35
509.67	541.50
510.03	551.83
510.39	562.29
510.75	573.08
511.12	584.03
511.48	595.32
511.84	606.74
512.20	618.20
512.56	630.10
512.92	642.25
513.28	654.60
513.64	666.97
514.00	679.72
514.37	692.71
514.73	705.80
515.09	718.78
515.45	732.06
515.81	745.62
516.17	759.60
516.53	773.74
516.89	787.81
517.25	801.88
517.61	816.23
517.97	830.66
518.33	845.05
518.69	859.77
519.05	874.67
519.41	889.75
519.77	905.24
520.13	920.64
520.49	936.00
520.85	951.24
521.21	966.86
521.57	983.04
521.93	998.62
522.29	1014.93
522.65	1031.23
523.01	1047.33
523.37	1063.34
523.73	1079.39
524.09	1095.37
524.45	1111.59
524.81	1128.21
525.17	1144.88
525.53	1161.71
525.89	1178.53
526.25	1195.27
526.61	1211.54
526.97	1228.27
527.33	1244.68
527.68	1261.17
528.04	1277.56
528.40	1294.08
528.76	1311.15
529.12	1327.63
529.48	1344.53
529.84	1360.41
530.20	1376.80
530.56	1393.67
530.91	1410.87
531.27	1427.60
531.63	1443.97
531.99	1460.48
532.35	1476.34
532.71	1492.15
533.07	1508.30
533.42	1524.09
533.78	1540.14
534.14	1556.42
534.50	1571.62
534.86	1587.36
535.21	1602.40
535.57	1618.11
535.93	1633.44
536.29	1647.93
536.65	1662.65
537.00	1677.09
537.36	1692.22
537.72	1706.50
538.08	1720.85
538.44	1734.47
538.79	1748.09
539.15	1761.43
539.51	1775.00
539.87	1789.07
540.22	1802.60
540.58	1816.18
540.94	1829.18
541.29	1841.60
541.65	1854.01
542.01	1866.92
542.37	1878.94
542.72	1891.26
543.08	1902.97
543.44	1915.15
543.79	1926.34
544.15	1937.29
544.51	1948.84
544.87	1959.71
545.22	1970.68
545.58	1980.78
545.94	1990.44
546.29	2000.28
546.65	2010.33
547.01	2019.58
547.36	2028.25
547.72	2036.63
548.07	2044.47
548.43	2052.73
548.79	2060.71
549.14	2068.32
549.50	2075.72
549.86	2083.39
550.21	2090.74
550.57	2097.82
550.92	2104.48
551.28	2111.56
551.64	2118.71
551.99	2125.29
552.35	2131.56
552.70	2137.60
553.06	2143.57
553.41	2150.04
553.77	2156.02
554.13	2161.91
554.48	2167.97
554.84	2173.61
555.19	2178.89
555.55	2184.01
555.90	2188.47
556.26	2193.58
556.61	2198.18
556.97	2202.55
557.32	2206.65
557.68	2210.77
558.03	2215.13
558.39	2218.84
558.74	2223.50
559.10	2227.31
559.45	2230.94
559.81	2235.17
560.16	2239.02
560.52	2242.33
560.87	2245.65
561.23	2248.38
561.58	2251.39
561.94	2254.00
562.29	2256.24
562.64	2258.95
563.00	2261.55
563.35	2265.11
563.71	2268.24
564.06	2271.50
564.42	2274.37
564.77	2277.16
565.12	2279.65
565.48	2281.51
565.83	2283.56
566.19	2285.01
566.54	2285.95
566.89	2287.21
567.25	2287.82
567.60	2289.06
567.96	2290.76
568.31	2291.66
568.66	2292.90
569.02	2293.66
569.37	2294.04
569.72	2295.12
570.08	2295.54
570.43	2295.67
570.78	2295.27
571.14	2293.81
571.49	2292.55
571.84	2292.21
572.20	2291.06
572.55	2289.89
572.90	2288.29
573.26	2286.99
573.61	2285.11
573.96	2283.57
574.31	2280.63
574.67	2277.73
575.02	2274.15
575.37	2270.78
575.72	2267.16
576.08	2263.61
576.43	2260.13
576.78	2256.54
577.13	2253.09
577.49	2249.75
577.84	2246.40
578.19	2242.66
578.54	2239.07
578.90	2234.92
579.25	2229.47
579.60	2224.70
579.95	2219.91
580.30	2215.11
580.66	2209.88
581.01	2205.01
581.36	2200.10
581.71	2196.03
582.06	2191.73
582.42	2187.47
582.77	2182.33
583.12	2177.76
583.47	2173.34
583.82	2168.62
584.17	2163.55
584.53	2158.29
584.88	2152.74
585.23	2146.97
585.58	2141.43
585.93	2135.95
586.28	2131.16
586.63	2126.28
586.98	2121.18
587.34	2116.41
587.69	2111.65
588.04	2106.54
588.39	2101.03
588.74	2094.53
589.09	2088.42
589.44	2081.69
589.79	2075.46
590.14	2069.90
590.49	2063.39
590.84	2056.97
591.19	2051.03
591.54	2044.43
591.89	2037.27
592.25	2030.71
592.60	2023.63
592.95	2016.23
593.30	2009.10
593.65	2001.42
594.00	1994.33
594.35	1987.11
594.70	1978.97
595.05	1971.88
595.40	1964.70
595.75	1957.11
596.10	1951.15
596.45	1944.57
596.80	1938.45
597.15	1932.14
597.50	1925.30
597.85	1918.83
598.19	1912.34
598.54	1905.28
598.89	1898.70
599.24	1892.65
599.59	1886.10
599.94	1879.96
600.29	1873.64
600.64	1866.96
600.99	1859.80
601.34	1853.12
601.69	1846.12
602.04	1839.52
602.39	1832.23
602.74	1825.45
603.08	1818.86
603.43	1811.93
603.78	1804.51
604.13	1797.30
604.48	1790.10
604.83	1783.18
605.18	1776.42
605.53	1768.43
605.87	1760.26
606.22	1752.99
606.57	1745.03
606.92	1737.53
607.27	1730.19
607.62	1723.41
607.96	1716.39
608.31	1709.90
608.66	1702.30
609.01	1694.81
609.36	1687.18
609.70	1679.04
610.05	1670.90
610.40	1663.33
610.75	1655.08
611.10	1647.41
611.44	1638.80
611.79	1630.67
612.14	1621.99
612.49	1612.66
612.83	1604.21
613.18	1596.17
613.53	1588.22
613.88	1579.84
614.22	1571.64
614.57	1563.12
614.92	1555.03
615.27	1547.50
615.61	1539.13
615.96	1531.05
616.31	1523.37
616.65	1515.91
617.00	1508.47
617.35	1500.78
617.70	1492.48
618.04	1484.16
618.39	1475.95
618.74	1468.59
619.08	1460.38
619.43	1452.81
619.78	1445.98
620.12	1438.98
620.47	1431.49
620.82	1423.25
621.16	1415.82
621.51	1408.20
621.85	1400.55
622.20	1392.12
622.55	1383.59
622.89	1375.70
623.24	1368.01
623.59	1360.58
623.93	1353.17
624.28	1345.84
624.62	1338.45
624.97	1331.21
625.32	1324.19
625.66	1317.14
626.01	1310.01
626.35	1302.60
626.70	1294.74
627.04	1287.12
627.39	1279.17
627.73	1271.70
628.08	1264.77
628.43	1257.53
628.77	1250.26
629.12	1242.72
629.46	1235.50
629.81	1228.02
630.15	1220.82
630.50	1213.47
630.84	1205.32
631.19	1197.35
631.53	1189.78
631.88	1182.14
632.22	1174.56
632.57	1167.33
632.91	1159.82
633.26	1152.52
633.60	1145.02
633.95	1137.84
634.29	1130.74
634.64	1124.16
634.98	1116.81
635.32	1109.79
635.67	1103.20
636.01	1096.53
636.36	1089.87
636.70	1083.43
637.05	1076.99
637.39	1070.54
637.73	1064.08
638.08	1058.26
638.42	1052.39
638.77	1046.05
639.11	1039.51
639.45	1033.15
639.80	1026.52
640.14	1020.24
640.49	1013.51
640.83	1007.30
641.17	1001.22
641.52	994.84
641.86	988.36
642.20	982.60
642.55	976.11
642.89	969.56
643.23	962.94
643.58	957.15
643.92	950.88
644.26	944.87
644.61	938.81
644.95	932.86
645.29	926.36
645.64	919.42
645.98	913.08
646.32	907.11
646.66	900.99
647.01	895.18
647.35	889.39
647.69	883.56
648.04	877.94
648.38	872.09
648.72	866.17
649.06	860.10
649.41	854.19
649.75	848.32
650.09	842.39
650.43	836.68
650.78	830.39
651.12	824.41
651.46	818.61
651.80	812.95
652.14	807.43
652.49	802.05
652.83	796.91
653.17	791.22
653.51	785.56
653.85	780.12
654.20	774.56
654.54	768.58
654.88	762.83
655.22	756.96
655.56	751.32
655.90	745.79
656.25	740.54
656.59	735.14
656.93	730.05
657.27	724.98
657.61	719.49
657.95	714.50
658.29	709.44
658.64	704.17
658.98	698.74
659.32	693.32
659.66	688.02
660.00	682.83
660.34	677.89
660.68	672.92
661.02	667.98
661.36	663.17
661.70	658.69
662.05	654.31
662.39	650.06
662.73	645.53
663.07	641.11
663.41	636.65
663.75	632.16
664.09	627.56
664.43	623.13
664.77	619.03
665.11	614.76
665.45	610.58
665.79	606.52
666.13	602.43
666.47	598.30
666.81	594.23
667.15	589.98
667.49	586.08
667.83	582.26
668.17	578.29
668.51	574.26
668.85	570.15
669.19	566.31
669.53	562.47
669.87	558.65
670.21	554.97
670.55	551.32
670.89	547.93
671.23	544.52
671.57	540.93
671.91	537.41
672.25	533.89
672.58	530.37
672.92	526.94
673.26	523.75
673.60	520.60
673.94	517.47
674.28	514.63
674.62	511.73
674.96	508.64
675.30	505.76
675.64	502.84
675.97	500.05
676.31	497.18
676.65	494.20
676.99	491.51
677.33	488.66
677.67	485.83
678.01	482.78
678.34	479.84
678.68	477.01
679.02	474.19
679.36	471.38
679.70	468.68
680.04	465.93
680.37	463.07
680.71	460.28
681.05	457.62
681.39	454.88
681.73	452.16
682.06	449.58
682.40	447.03
682.74	444.46
683.08	441.93
683.42	439.35
683.75	436.87
684.09	434.25
684.43	431.81
684.77	429.37
685.10	426.96
685.44	424.64
685.78	422.32
686.12	420.00
686.45	417.70
686.79	415.39
687.13	413.17
687.46	410.99
687.80	408.82
688.14	406.60
688.48	404.52
688.81	402.31
689.15	400.19
689.49	398.00
689.82	395.98
690.16	393.88
690.50	391.89
690.83	389.95
691.17	387.94
691.51	386.01
691.84	384.11
692.18	382.20
692.52	380.23
692.85	378.29
693.19	376.46
693.52	374.58
693.86	372.69
694.20	370.94
694.53	369.17
694.87	367.29
695.21	365.47
695.54	363.61
695.88	361.83
696.21	360.12
696.55	358.45
696.88	356.69
697.22	354.98
697.56	353.34
697.89	351.67
698.23	350.12
698.56	348.55
698.90	347.01
699.23	345.41
699.57	343.81
699.90	342.23
700.24	340.68
700.58	339.21
700.91	337.76
701.25	336.25
701.58	334.86
701.92	333.48
702.25	332.16
702.59	330.85
702.92	329.54
703.26	328.24
703.59	326.93
703.93	325.76
704.26	324.58
704.60	323.26
704.93	322.01
705.26	320.74
705.60	319.49
705.93	318.30
706.27	317.24
706.60	316.18
706.94	315.11
707.27	313.97
707.61	312.89
707.94	311.87
708.27	310.76
708.61	309.64
708.94	308.64
709.28	307.61
709.61	306.63
709.94	305.64
710.28	304.63
710.61	303.66
710.95	302.59
711.28	301.64
711.61	300.70
711.95	299.83
712.28	298.85
712.61	297.88
712.95	296.92
713.28	296.04
713.61	295.16
713.95	294.30
714.28	293.45
714.61	292.62
714.95	291.76
715.28	290.93
715.61	290.12
715.95	289.28
716.28	288.40
716.61	287.56
716.95	286.76
717.28	285.96
717.61	285.20
717.94	284.46
718.28	283.66
718.61	282.93
718.94	282.17
719.27	281.54
719.61	280.90
719.94	280.27
720.27	279.52
720.60	278.83
720.94	278.17
721.27	277.61
721.60	277.00
721.93	276.43
722.27	275.90
722.60	275.33
722.93	274.78
723.26	274.25
723.59	273.70
723.93	273.14
724.26	272.59
724.59	272.01
724.92	271.48
725.25	270.99
725.59	270.49
725.92	270.02
726.25	269.53
726.58	269.03
726.91	268.56
727.24	268.13
727.57	267.68
727.91	267.17
728.24	266.69
728.57	266.24
728.90	265.78
729.23	265.28
729.56	264.83
729.89	264.35
730.22	263.90
730.55	263.43
730.89	263.01
731.22	262.59
731.55	262.17
731.88	261.76
732.21	261.31
732.54	260.87
732.87	260.42
733.20	259.99
733.53	259.62
733.86	259.24
734.19	258.87
734.52	258.49
734.85	258.21
735.18	257.81
735.51	257.44
735.84	257.06
736.17	256.70
736.50	256.28
736.83	256.07
737.16	255.77
737.49	255.44
737.82	255.06
738.15	254.75
738.48	254.42
738.81	254.10
739.14	253.79
739.47	253.50
739.80	253.20
740.13	252.90
740.46	252.57
740.79	252.23
741.12	251.91
741.45	251.58
741.78	251.19
742.11	250.90
742.44	250.57
742.77	250.28
743.10	250.00
743.43	249.72
743.75	249.32
744.08	249.17
744.41	248.91
744.74	248.67
745.07	248.39
745.40	248.13
745.73	247.90
746.06	247.64
746.39	247.33
746.71	247.06
747.04	246.80
747.37	246.51
747.70	246.26
748.03	246.02
748.36	245.78
748.68	245.56
749.01	245.32
749.34	245.07
749.67	244.84
750.00	244.59
750.33	244.44
750.65	244.25
750.98	243.88
751.31	243.64
751.64	243.46
751.97	243.31
752.29	243.10
752.62	242.84
752.95	242.64
753.28	242.47
753.60	242.28
753.93	242.10
754.26	241.94
754.59	241.71
754.91	241.47
755.24	241.29
755.57	241.10
755.90	240.91
756.22	240.77
756.55	240.59
756.88	240.40
757.20	240.16
757.53	239.90
757.86	239.74
758.19	239.58
758.51	239.35
758.84	239.12
759.17	238.92
759.49	238.74
759.82	238.64
760.15	238.48
760.47	238.34
760.80	238.18
761.13	238.03
761.45	237.87
761.78	237.72
762.11	237.60
762.43	237.49
762.76	237.37
763.08	237.20
763.41	237.05
763.74	236.94
764.06	236.80
764.39	236.72
764.71	236.57
765.04	236.46
765.37	236.35
765.69	236.22
766.02	236.14
766.34	236.00
766.67	235.84
767.00	235.77
767.32	235.68
767.65	235.59
767.97	235.48
768.30	235.42
768.62	235.34
768.95	235.19
769.27	235.04
769.60	234.92
769.92	234.83
770.25	234.73
770.57	234.61
770.90	234.50
771.22	234.39
771.55	234.32
771.87	234.22
772.20	234.10
772.52	234.08
772.85	234.09
773.17	233.99
773.50	233.87
773.82	233.72
774.15	233.60
774.47	233.46
774.80	233.35
775.12	233.27
775.45	233.18
775.77	233.10
776.09	233.02
776.42	232.92
776.74	232.87
777.07	232.79
777.39	232.74
777.72	232.67
778.04	232.60
778.36	232.51
778.69	232.44
779.01	232.40
779.33	232.27
779.66	232.10
779.98	232.01
780.31	231.93
780.63	231.92
780.95	231.87
781.28	231.83
781.60	231.73
781.92	231.66
782.25	231.59
782.57	231.54
782.89	231.49
783.22	231.43
783.54	231.36
783.86	231.31
784.19	231.22
784.51	231.18
784.83	231.09
785.16	231.03
785.48	230.96
785.80	230.89
786.12	230.83
786.45	230.79
786.77	230.78
787.09	230.70
787.42	230.59
787.74	230.53
788.06	230.45
788.38	230.42
788.71	230.35
789.03	230.30
789.35	230.27
789.67	230.23
789.99	230.19
790.32	230.13
790.64	230.10
790.96	230.15
791.28	230.11
791.61	230.09
791.93	230.05
792.25	229.98
792.57	230.04
792.89	229.98
793.21	229.92
793.54	229.83
793.86	229.81
794.18	229.78
794.50	229.73
794.82	229.65
795.14	229.65
795.47	229.63
795.79	229.58
796.11	229.52
796.43	229.43
796.75	229.38
797.07	229.36
797.39	229.30
797.71	229.17
798.04	229.09
798.36	229.09
798.68	229.07
799.00	229.04
799.32	228.93
799.64	228.93
799.96	228.88
800.28	228.90
800.60	228.88
800.92	228.90
801.24	228.86
801.56	228.87
801.89	228.78
802.21	228.73
802.53	228.71
802.85	228.71
803.17	228.74
803.49	228.70
803.81	228.64
804.13	228.62
804.45	228.61
804.77	228.60
805.09	228.53
805.41	228.45
805.73	228.46
806.05	228.41
806.37	228.39
806.69	228.36
807.01	228.31
807.33	228.27
807.65	228.18
807.97	228.22
808.28	228.20
808.60	228.23
808.92	228.21
809.24	228.23
809.56	228.19
809.88	228.14
810.20	228.12
810.52	228.13
810.84	228.09
811.16	228.03
811.48	228.01
811.80	228.05
812.12	228.07
812.43	228.04
812.75	228.02
813.07	228.01
813.39	228.01
813.71	227.98
814.03	228.00
814.35	227.97
814.67	227.91
814.98	227.88
815.30	227.82
815.62	227.81
815.94	227.75
816.26	227.80
816.58	227.78
816.89	227.80
817.21	227.76
817.53	227.78
817.85	227.74
818.17	227.75
818.48	227.69
818.80	227.71
819.12	227.65
819.44	227.65
819.76	227.63
820.07	227.62
820.39	227.63
820.71	227.61
821.03	227.62
821.34	227.60
821.66	227.62
821.98	227.63
822.30	227.62
822.61	227.68
822.93	227.60
823.25	227.56
823.57	227.52
823.88	227.54
824.20	227.54
824.52	227.57
824.83	227.54
825.15	227.50
825.47	227.47
825.79	227.49
826.10	227.45
826.42	227.42
826.74	227.40
827.05	227.39
827.37	227.35
827.69	227.33
828.00	227.35
828.32	227.34
828.64	227.30
828.95	227.33
829.27	227.26
829.58	227.25
829.90	227.25
830.22	227.25
830.53	227.20
830.85	227.15
831.17	227.12
831.48	227.10
831.80	227.10
832.11	227.09
832.43	227.06
832.75	227.06
833.06	227.09
833.38	227.07
833.69	227.04
834.01	227.06
834.32	227.06
834.64	227.03
834.96	227.00
835.27	226.98
835.59	226.92
835.90	226.93
836.22	226.92
836.53	226.91
836.85	226.90
837.16	226.97
837.48	226.98
837.79	227.01
838.11	227.02
838.42	227.03
838.74	227.01
839.05	226.99
839.37	226.98
839.68	226.94
840.00	226.94
840.31	226.94
840.63	226.95
840.94	226.92
841.26	226.90
841.57	226.88
841.88	226.90
842.20	226.90
842.51	226.87
842.83	226.87
843.14	226.96
843.46	226.95
843.77	226.93
844.08	226.87
844.40	226.83
844.71	226.79
845.03	226.76
845.34	226.77
845.65	226.77
845.97	226.78
846.28	226.78
846.60	226.75
846.91	226.74
847.22	226.70
847.54	226.73
847.85	226.72
848.16	226.73
848.48	226.72
848.79	226.77
849.10	226.78
849.42	226.78
849.73	226.66
850.04	226.65
850.36	226.59
850.67	226.60
850.98	226.61
851.30	226.61
851.61	226.63
851.92	226.64
852.23	226.67
852.55	226.65
852.86	226.64
853.17	226.66
853.49	226.70
853.80	226.73
854.11	226.73
854.42	226.77
854.74	226.76
855.05	226.80
855.36	226.73
855.67	226.75
855.99	226.73
856.30	226.83
856.61	226.85
856.92	226.87
857.23	226.87
857.55	226.87
857.86	226.92
858.17	226.90
858.48	226.88
858.79	226.87
859.11	226.85
859.42	226.85
859.73	226.83
860.04	226.81
860.35	226.75
860.66	226.72
860.98	226.71
861.29	226.69
861.60	226.65
861.91	226.69
862.22	226.66
862.53	226.64
862.84	226.55
863.16	226.57
863.47	226.54
863.78	226.57
864.09	226.54
864.40	226.50
864.71	226.52
865.02	226.52
865.33	226.51
865.64	226.50
865.95	226.51
866.27	226.56
866.58	226.54
866.89	226.56
867.20	226.54
867.51	226.51
867.82	226.51
868.13	226.52
868.44	226.49
868.75	226.49
869.06	226.53
869.37	226.54
869.68	226.46
869.99	226.46
870.30	226.45
870.61	226.48
870.92	226.47
871.23	226.43
871.54	226.41
871.85	226.43
872.16	226.45
872.47	226.41
872.78	226.37
873.09	226.39
873.40	226.39
873.71	226.43
874.02	226.41
874.33	226.39
874.64	226.36
874.95	226.35
875.26	226.31
875.56	226.29
875.87	226.26
876.18	226.28
876.49	226.36
876.80	226.36
877.11	226.33
877.42	226.37
877.73	226.37
878.04	226.37
878.35	226.36
878.66	226.36
878.96	226.34
879.27	226.30
879.58	226.26
879.89	226.23
880.20	226.25
880.51	226.26
880.82	226.26
881.12	226.29
881.43	226.28
881.74	226.26
882.05	226.28
882.36	226.29
882.67	226.30
882.97	226.23
883.28	226.22
883.59	226.22
883.90	226.20
884.21	226.23
884.51	226.22
884.82	226.22
885.13	226.19
885.44	226.23
885.74	226.24
886.05	226.27
886.36	226.26
886.67	226.24
886.98	226.28
887.28	226.28
887.59	226.26
887.90	226.26
888.20	226.29
888.51	226.26
888.82	226.23
889.13	226.25
889.43	226.31
889.74	226.26
890.05	226.27
890.35	226.23
890.66	226.21
890.97	226.19
891.28	226.17
891.58	226.19
891.89	226.18
892.20	226.19
892.50	226.17
892.81	226.19
893.12	226.15
893.42	226.13
893.73	226.15
894.04	226.15
894.34	226.17
894.65	226.14
894.95	226.17
895.26	226.20
895.57	226.24
895.87	226.16
896.18	226.20
896.48	226.21
896.79	226.25
897.10	226.26
897.40	226.28
897.71	226.29
898.01	226.28
898.32	226.28
898.63	226.29
898.93	226.29
899.24	226.29
899.54	226.29
899.85	226.27
900.15	226.25
900.46	226.26
900.76	226.25
901.07	226.22
901.38	226.21
901.68	226.20
901.99	226.14
902.29	226.16
902.60	226.14
902.90	226.13
903.21	226.13
903.51	226.11
903.82	226.14
904.12	226.17
904.43	226.19
904.73	226.20
905.03	226.19
905.34	226.31
905.64	226.27
905.95	226.27
906.25	226.25
906.56	226.24
906.86	226.21
907.17	226.22
907.47	226.27
907.77	226.28
908.08	226.26
908.38	226.28
908.69	226.23
908.99	226.23
909.30	226.23
909.60	226.20
909.90	226.20
910.21	226.14
910.51	226.09
910.81	226.05
911.12	226.03
911.42	226.00
911.73	225.88
912.03	225.88
912.33	225.91
912.64	225.93
912.94	225.93
913.24	225.91
913.55	225.88
913.85	225.84
914.15	225.82
914.46	225.83
914.76	225.80
915.06	225.82
915.37	225.83
915.67	225.80
915.97	225.80
916.27	225.78
916.58	225.81
916.88	225.80
917.18	225.80
917.49	225.85
917.79	225.85
918.09	225.87
918.39	225.90
918.70	225.88
919.00	225.85
919.30	225.88
919.60	225.90
919.91	225.88
920.21	225.92
920.51	225.92
920.81	225.90
921.12	225.89
921.42	225.84
921.72	225.84
922.02	225.86
922.32	225.88
922.63	225.91
922.93	225.99
923.23	225.97
923.53	225.98
923.83	225.93
924.13	225.97
924.44	225.95
924.74	225.94
925.04	226.01
925.34	226.01
925.64	225.97
925.94	225.95
926.24	226.01
926.55	226.00
926.85	226.02
927.15	226.04
927.45	226.05
927.75	226.08
928.05	226.05
928.35	226.05
928.65	226.06
928.95	226.06
929.26	226.00
929.56	226.06
929.86	226.03
930.16	226.05
930.46	226.02
930.76	226.03
931.06	225.99
931.36	225.94
931.66	225.97
931.96	225.99
932.26	226.00
932.56	225.96
932.86	225.98
933.16	225.96
933.46	225.96
933.76	225.96
934.06	226.00
934.36	226.07
934.66	226.08
934.96	226.07
935.26	226.07
935.56	226.09
935.86	226.07
936.16	226.08
936.46	226.08
936.76	226.07
937.06	226.06
937.36	226.10
937.66	226.12
937.96	226.12
938.26	226.13
938.56	226.12
938.86	226.13
939.16	226.14
939.46	226.15
939.76	226.16
940.06	226.13
940.35	226.09
940.65	226.00
940.95	226.00
941.25	225.98
941.55	225.95
941.85	225.92
942.15	225.93
942.45	225.93
942.75	225.92
943.04	225.92
943.34	225.94
943.64	225.92
943.94	225.90
944.24	225.89
944.54	225.91
944.84	225.93
945.13	225.93
945.43	225.88
945.73	225.87
946.03	225.88
946.33	225.90
946.62	225.91
946.92	225.91
947.22	225.91
947.52	225.91
947.82	225.92
948.11	225.90
948.41	225.87
948.71	225.87
949.01	225.85
949.31	225.86
949.60	225.84
949.90	225.85
950.20	225.84
950.50	225.82
950.79	225.80
951.09	225.81
951.39	225.82
951.69	225.81
951.98	225.84
952.28	225.80
952.58	225.79
952.87	225.76
953.17	225.79
953.47	225.75
953.76	225.75
954.06	225.74
954.36	225.74
954.66	225.74
954.95	225.76
955.25	225.76
955.55	225.74
955.84	225.72
956.14	225.73
956.44	225.74
956.73	225.71
957.03	225.72
957.32	225.67
957.62	225.65
957.92	225.70
958.21	225.66
958.51	225.76
958.81	225.75
959.10	225.77
959.40	225.79
959.69	225.84
959.99	225.85
960.29	225.83
960.58	225.82
960.88	225.87
961.17	225.87
961.47	225.87
961.76	225.88
962.06	225.90
962.36	225.88
962.65	225.88
962.95	225.88
963.24	225.87
963.54	225.88
963.83	225.88
964.13	225.88
964.42	225.84
964.72	225.77
965.01	225.78
965.31	225.78
965.60	225.76
965.90	225.80
966.19	225.76
966.49	225.81
966.78	225.82
967.08	225.80
967.37	225.79
967.67	225.78
967.96	225.79
968.26	225.80
968.55	225.78
968.85	225.77
969.14	225.78
969.43	225.77
969.73	225.76
970.02	225.74
970.32	225.74
970.61	225.75
970.91	225.74
971.20	225.75
971.49	225.76
971.79	225.73
972.08	225.68
972.38	225.71
972.67	225.68
972.96	225.71
973.26	225.68
973.55	225.70
973.85	225.69
974.14	225.70
974.43	225.70
974.73	225.73
975.02	225.72
975.31	225.71
975.61	225.72
975.90	225.75
976.19	225.76
976.49	225.74
976.78	225.77
977.07	225.78
977.37	225.74
977.66	225.74
977.95	225.78
978.24	225.77
978.54	225.78
978.83	225.80
979.12	225.75
979.42	225.77
979.71	225.79
980.00	225.79
980.29	225.76
980.59	225.76
980.88	225.77
981.17	225.74
981.46	225.75
981.76	225.73
982.05	225.75
982.34	225.74
982.63	225.75
982.93	225.72
983.22	225.74
983.51	225.77
983.80	225.79
984.09	225.79
984.39	225.83
984.68	225.79
984.97	225.77
985.26	225.78
985.55	225.78
985.85	225.76
986.14	225.82
986.43	225.84
986.72	225.83
987.01	225.81
987.30	225.86
987.59	225.88
987.89	225.88
988.18	225.87
988.47	225.90
988.76	225.91
989.05	225.94
989.34	225.96
989.63	225.98
989.92	225.96
990.22	225.95
990.51	225.92
990.80	225.94
991.09	225.99
991.38	226.00
991.67	226.00
991.96	226.01
992.25	226.00
992.54	226.00
992.83	226.01
993.12	226.03
993.41	226.03
993.70	226.08
993.99	226.13
994.28	226.14
994.58	226.14
994.87	226.10
995.16	226.07
995.45	226.04
995.74	226.02
996.03	226.03
996.32	226.06
996.61	226.11
996.90	226.12
997.19	226.07
997.48	226.07
997.77	226.03
998.06	226.00
998.34	225.96
998.63	225.94
998.92	225.95
999.21	225.92
999.50	225.93
999.79	225.87
1000.08	225.85
1000.37	225.83
1000.66	225.84
1000.95	225.89
1001.24	225.93
1001.53	225.92
1001.82	225.89
1002.11	225.87
1002.40	225.87
1002.68	225.87
1002.97	225.90
1003.26	225.87
1003.55	225.88
1003.84	225.92
1004.13	225.99
1004.42	225.97
1004.71	226.00
1004.99	225.96
1005.28	225.97
1005.57	225.96
1005.86	225.94
1006.15	225.92
1006.44	225.91
1006.72	225.90
1007.01	225.87
1007.30	225.84
1007.59	225.85
1007.88	225.87
1008.17	225.87
1008.45	225.83
1008.74	225.79
1009.03	225.77
1009.32	225.78
1009.60	225.78
1009.89	225.73
1010.18	225.67
1010.47	225.68
1010.76	225.66
1011.04	225.66
1011.33	225.69
1011.62	225.66
1011.91	225.68
1012.19	225.69
1012.48	225.69
1012.77	225.66
1013.05	225.70
1013.34	225.70
1013.63	225.66
1013.92	225.66
1014.20	225.68
1014.49	225.68
1014.78	225.67
1015.06	225.61
1015.35	225.64
1015.64	225.64
1015.92	225.69
1016.21	225.67
1016.50	225.65
1016.78	225.67
1017.07	225.68
1017.36	225.66
1017.64	225.67
1017.93	225.66
1018.22	225.67
1018.50	225.64
1018.79	225.70
1019.08	225.65
1019.36	225.65
1019.65	225.63
1019.93	225.66
1020.22	225.64
1020.51	225.68
1020.79	225.70
1021.08	225.55
1021.36	225.31
1021.65	226.31
1021.94	225.52
1022.22	225.72
1022.51	224.89
1022.79	226.45
1023.08	225.34
1023.36	226.46
1023.65	225.84
>>>>>End Processed Spectral Data<<<<<
