SpectraSuite Data File
++++++++++++++++++++++++++++++++++++
Date: Fri Feb 01 14:51:23 EST 2013
User: group
Dark Spectrum Present: No
Reference Spectrum Present: No
Number of Sampled Component Spectra: 1
Spectrometers: USB2E7196
Integration Time (usec): 35000 (USB2E7196)
Spectra Averaged: 100 (USB2E7196)
Boxcar Smoothing: 10 (USB2E7196)
Correct for Electrical Dark: No (USB2E7196)
Strobe/Lamp Enabled: No (USB2E7196)
Correct for Detector Non-linearity: No (USB2E7196)
Correct for Stray Light: No (USB2E7196)
Number of Pixels in Processed Spectrum: 2048
>>>>>Begin Processed Spectral Data<<<<<
339.09	0.00
339.48	215.75
339.86	216.71
340.24	218.27
340.63	219.67
341.01	222.01
341.39	222.17
341.78	224.31
342.16	223.87
342.54	225.59
342.93	213.74
343.31	224.55
343.69	225.09
344.07	225.56
344.46	226.00
344.84	226.37
345.22	226.63
345.60	226.89
345.99	227.02
346.37	227.21
346.75	227.30
347.13	227.36
347.52	227.40
347.90	227.48
348.28	227.47
348.66	227.50
349.05	227.49
349.43	227.51
349.81	227.55
350.19	227.59
350.57	227.66
350.96	227.74
351.34	227.82
351.72	227.89
352.10	227.98
352.48	228.06
352.87	228.11
353.25	228.18
353.63	228.24
354.01	228.30
354.39	228.36
354.77	228.42
355.15	228.50
355.54	228.57
355.92	228.61
356.30	228.69
356.68	228.81
357.06	228.91
357.44	228.94
357.82	228.99
358.20	229.05
358.58	229.13
358.97	229.15
359.35	229.22
359.73	229.30
360.11	229.36
360.49	229.40
360.87	229.45
361.25	229.51
361.63	229.56
362.01	229.61
362.39	229.61
362.77	229.68
363.15	229.73
363.53	229.74
363.91	229.75
364.29	229.76
364.67	229.68
365.05	229.68
365.43	229.69
365.81	229.77
366.19	229.79
366.57	229.81
366.95	229.82
367.33	229.76
367.71	229.71
368.09	229.73
368.47	229.69
368.85	229.64
369.23	229.63
369.61	229.58
369.99	229.59
370.37	229.57
370.75	229.56
371.13	229.50
371.51	229.45
371.89	229.44
372.27	229.43
372.65	229.35
373.03	229.30
373.41	229.27
373.78	229.16
374.16	229.06
374.54	228.98
374.92	228.93
375.30	228.86
375.68	228.78
376.06	228.69
376.44	228.63
376.82	228.61
377.19	228.48
377.57	228.41
377.95	228.30
378.33	228.22
378.71	228.09
379.09	228.03
379.47	227.97
379.84	227.85
380.22	227.75
380.60	227.68
380.98	227.61
381.36	227.54
381.73	227.45
382.11	227.41
382.49	227.32
382.87	227.23
383.25	227.19
383.62	227.27
384.00	227.21
384.38	227.13
384.76	227.05
385.13	227.05
385.51	226.99
385.89	226.93
386.27	226.92
386.64	226.90
387.02	226.85
387.40	226.84
387.78	226.83
388.15	226.79
388.53	226.79
388.91	226.76
389.29	226.71
389.66	226.70
390.04	226.64
390.42	226.67
390.79	226.69
391.17	226.70
391.55	226.59
391.92	226.57
392.30	226.57
392.68	226.58
393.05	226.59
393.43	226.60
393.81	226.64
394.18	226.63
394.56	226.64
394.94	226.70
395.31	226.68
395.69	226.73
396.06	226.79
396.44	226.82
396.82	226.89
397.19	226.97
397.57	227.01
397.95	227.11
398.32	227.12
398.70	227.18
399.07	227.24
399.45	227.30
399.82	227.39
400.20	227.45
400.58	227.53
400.95	227.59
401.33	227.70
401.70	227.87
402.08	227.98
402.45	228.10
402.83	228.20
403.20	228.32
403.58	228.44
403.95	228.58
404.33	228.74
404.71	228.84
405.08	229.00
405.46	229.18
405.83	229.31
406.21	229.48
406.58	229.64
406.96	229.79
407.33	229.98
407.70	230.19
408.08	230.49
408.45	230.73
408.83	230.99
409.20	231.24
409.58	231.40
409.95	231.70
410.33	231.97
410.70	232.22
411.08	232.51
411.45	232.79
411.82	233.10
412.20	233.44
412.57	233.88
412.95	234.22
413.32	234.58
413.69	235.02
414.07	235.46
414.44	235.91
414.82	236.44
415.19	236.95
415.56	237.50
415.94	238.03
416.31	238.68
416.68	239.27
417.06	239.98
417.43	240.68
417.81	241.40
418.18	242.15
418.55	242.98
418.93	243.84
419.30	244.75
419.67	245.67
420.04	246.60
420.42	247.56
420.79	248.74
421.16	249.90
421.54	251.07
421.91	252.27
422.28	253.50
422.66	254.79
423.03	256.10
423.40	257.39
423.77	258.80
424.15	260.20
424.52	261.68
424.89	263.24
425.26	264.78
425.64	266.23
426.01	267.84
426.38	269.50
426.75	271.18
427.13	272.88
427.50	274.67
427.87	276.54
428.24	278.40
428.61	280.13
428.99	282.05
429.36	284.12
429.73	286.18
430.10	288.18
430.47	290.21
430.85	292.28
431.22	294.52
431.59	296.85
431.96	299.08
432.33	301.57
432.70	303.97
433.08	306.77
433.45	309.41
433.82	311.99
434.19	314.86
434.56	317.68
434.93	320.37
435.30	323.02
435.68	325.88
436.05	328.76
436.42	331.54
436.79	334.07
437.16	336.77
437.53	339.61
437.90	342.43
438.27	345.26
438.64	348.10
439.01	350.76
439.38	353.01
439.75	355.14
440.13	357.62
440.50	359.90
440.87	361.75
441.24	363.66
441.61	365.80
441.98	367.29
442.35	369.11
442.72	370.94
443.09	372.72
443.46	373.75
443.83	374.32
444.20	374.84
444.57	375.71
444.94	375.99
445.31	376.35
445.68	376.74
446.05	376.79
446.42	376.43
446.79	375.94
447.16	375.50
447.53	375.26
447.90	374.15
448.27	373.06
448.64	371.48
449.01	370.39
449.37	368.47
449.74	366.60
450.11	364.35
450.48	361.90
450.85	359.44
451.22	357.30
451.59	355.26
451.96	353.33
452.33	350.76
452.70	348.43
453.07	345.58
453.43	342.68
453.80	339.91
454.17	337.22
454.54	334.71
454.91	332.01
455.28	329.33
455.65	326.80
456.02	324.36
456.38	322.23
456.75	319.54
457.12	317.33
457.49	315.11
457.86	312.97
458.23	311.12
458.59	309.03
458.96	306.94
459.33	305.10
459.70	303.25
460.07	301.73
460.43	300.03
460.80	298.44
461.17	296.98
461.54	295.44
461.91	294.05
462.27	292.61
462.64	291.34
463.01	289.98
463.38	288.68
463.74	287.29
464.11	286.12
464.48	285.08
464.85	283.95
465.21	283.08
465.58	282.11
465.95	280.98
466.32	280.08
466.68	279.17
467.05	278.26
467.42	277.34
467.78	276.38
468.15	275.46
468.52	274.79
468.88	273.91
469.25	273.14
469.62	272.49
469.98	271.78
470.35	271.11
470.72	270.47
471.08	269.82
471.45	269.26
471.82	268.71
472.18	268.09
472.55	267.60
472.92	267.08
473.28	266.57
473.65	266.12
474.02	265.67
474.38	265.26
474.75	264.92
475.11	264.55
475.48	264.28
475.85	264.04
476.21	263.76
476.58	263.60
476.94	263.49
477.31	263.30
477.67	263.18
478.04	263.08
478.41	263.02
478.77	263.08
479.14	263.00
479.50	263.00
479.87	263.05
480.23	263.13
480.60	263.16
480.96	263.24
481.33	263.43
481.69	263.61
482.06	263.82
482.42	264.05
482.79	264.31
483.15	264.58
483.52	264.95
483.88	265.33
484.25	265.71
484.61	266.09
484.98	266.55
485.34	267.09
485.71	267.69
486.07	268.29
486.44	268.83
486.80	269.55
487.17	270.27
487.53	271.10
487.90	271.96
488.26	272.88
488.62	273.85
488.99	274.85
489.35	275.90
489.72	277.00
490.08	278.19
490.44	279.41
490.81	280.77
491.17	282.12
491.54	283.59
491.90	285.11
492.26	286.72
492.63	288.44
492.99	290.19
493.36	292.04
493.72	294.07
494.08	296.17
494.45	298.41
494.81	300.75
495.17	303.19
495.54	305.75
495.90	308.40
496.26	311.23
496.63	314.11
496.99	317.20
497.35	320.44
497.72	323.79
498.08	327.26
498.44	330.84
498.80	334.73
499.17	338.71
499.53	342.87
499.89	347.20
500.26	351.66
500.62	356.29
500.98	361.21
501.34	366.24
501.71	371.51
502.07	376.89
502.43	382.46
502.79	388.22
503.16	394.26
503.52	400.48
503.88	406.84
504.24	413.51
504.60	420.30
504.97	427.34
505.33	434.60
505.69	442.31
506.05	450.06
506.41	457.91
506.78	466.09
507.14	474.46
507.50	483.11
507.86	492.03
508.22	501.17
508.59	510.30
508.95	519.85
509.31	529.57
509.67	539.66
510.03	549.89
510.39	560.38
510.75	571.03
511.12	581.92
511.48	593.18
511.84	604.54
512.20	616.03
512.56	628.00
512.92	640.14
513.28	652.35
513.64	664.82
514.00	677.50
514.37	690.39
514.73	703.35
515.09	716.46
515.45	729.71
515.81	743.25
516.17	757.22
516.53	771.32
516.89	785.53
517.25	799.68
517.61	814.13
517.97	828.58
518.33	843.13
518.69	857.98
519.05	873.01
519.41	888.22
519.77	903.85
520.13	919.27
520.49	934.69
520.85	950.26
521.21	966.06
521.57	982.28
521.93	998.11
522.29	1014.61
522.65	1030.91
523.01	1047.15
523.37	1063.34
523.73	1079.64
524.09	1095.80
524.45	1112.24
524.81	1128.93
525.17	1145.79
525.53	1162.70
525.89	1179.59
526.25	1196.36
526.61	1212.75
526.97	1229.61
527.33	1245.99
527.68	1262.73
528.04	1279.28
528.40	1295.97
528.76	1313.06
529.12	1329.70
529.48	1346.50
529.84	1362.69
530.20	1379.32
530.56	1396.59
530.91	1413.96
531.27	1430.71
531.63	1447.26
531.99	1463.76
532.35	1479.63
532.71	1495.55
533.07	1511.94
533.42	1527.83
533.78	1544.01
534.14	1560.37
534.50	1575.74
534.86	1591.80
535.21	1606.82
535.57	1622.83
535.93	1638.31
536.29	1653.16
536.65	1668.45
537.00	1683.43
537.36	1698.71
537.72	1713.31
538.08	1727.70
538.44	1741.57
538.79	1755.55
539.15	1769.29
539.51	1783.22
539.87	1797.89
540.22	1811.72
540.58	1825.53
540.94	1839.09
541.29	1852.10
541.65	1864.90
542.01	1878.00
542.37	1890.25
542.72	1902.95
543.08	1914.72
543.44	1927.16
543.79	1938.35
544.15	1949.26
544.51	1960.75
544.87	1971.67
545.22	1982.44
545.58	1992.60
545.94	2002.42
546.29	2012.39
546.65	2022.19
547.01	2031.37
547.36	2040.07
547.72	2048.62
548.07	2056.44
548.43	2064.58
548.79	2072.53
549.14	2080.06
549.50	2087.68
549.86	2095.45
550.21	2102.71
550.57	2109.85
550.92	2116.43
551.28	2123.62
551.64	2130.57
551.99	2137.10
552.35	2143.27
552.70	2149.33
553.06	2155.38
553.41	2161.49
553.77	2167.45
554.13	2173.39
554.48	2179.39
554.84	2184.59
555.19	2189.86
555.55	2194.89
555.90	2199.28
556.26	2204.00
556.61	2208.57
556.97	2212.55
557.32	2216.60
557.68	2220.68
558.03	2224.93
558.39	2228.49
558.74	2232.99
559.10	2236.77
559.45	2240.28
559.81	2244.64
560.16	2248.48
560.52	2251.40
560.87	2254.85
561.23	2257.32
561.58	2260.16
561.94	2262.63
562.29	2265.02
562.64	2267.46
563.00	2269.96
563.35	2273.28
563.71	2276.27
564.06	2279.21
564.42	2281.95
564.77	2284.20
565.12	2286.27
565.48	2288.01
565.83	2289.76
566.19	2290.76
566.54	2291.60
566.89	2292.63
567.25	2292.83
567.60	2293.89
567.96	2295.43
568.31	2296.10
568.66	2296.97
569.02	2297.38
569.37	2297.41
569.72	2297.91
570.08	2297.75
570.43	2297.50
570.78	2296.38
571.14	2294.60
571.49	2293.21
571.84	2292.53
572.20	2291.13
572.55	2289.78
572.90	2287.87
573.26	2286.13
573.61	2284.16
573.96	2282.00
574.31	2278.70
574.67	2275.36
575.02	2271.49
575.37	2267.90
575.72	2263.81
576.08	2260.19
576.43	2256.63
576.78	2252.74
577.13	2249.49
577.49	2246.20
577.84	2242.53
578.19	2238.82
578.54	2234.90
578.90	2230.31
579.25	2224.69
579.60	2219.62
579.95	2214.46
580.30	2209.37
580.66	2204.08
581.01	2198.95
581.36	2193.97
581.71	2189.59
582.06	2185.09
582.42	2180.54
582.77	2175.11
583.12	2170.35
583.47	2165.52
583.82	2160.34
584.17	2155.07
584.53	2149.38
584.88	2143.59
585.23	2137.68
585.58	2132.13
585.93	2126.52
586.28	2121.68
586.63	2116.48
586.98	2111.30
587.34	2106.51
587.69	2101.42
588.04	2095.93
588.39	2090.06
588.74	2083.40
589.09	2077.20
589.44	2070.26
589.79	2064.05
590.14	2058.31
590.49	2051.62
590.84	2045.05
591.19	2038.95
591.54	2032.34
591.89	2024.62
592.25	2017.73
592.60	2010.43
592.95	2002.50
593.30	1995.18
593.65	1987.47
594.00	1980.24
594.35	1972.80
594.70	1964.61
595.05	1957.31
595.40	1949.86
595.75	1942.40
596.10	1936.10
596.45	1929.17
596.80	1922.86
597.15	1916.17
597.50	1908.95
597.85	1902.56
598.19	1895.88
598.54	1888.75
598.89	1881.94
599.24	1876.17
599.59	1869.42
599.94	1863.14
600.29	1857.04
600.64	1850.37
600.99	1842.86
601.34	1836.08
601.69	1829.25
602.04	1822.35
602.39	1815.03
602.74	1808.34
603.08	1801.52
603.43	1794.85
603.78	1787.61
604.13	1780.47
604.48	1773.22
604.83	1766.50
605.18	1759.42
605.53	1751.43
605.87	1743.39
606.22	1736.20
606.57	1728.34
606.92	1721.22
607.27	1714.07
607.62	1707.03
607.96	1699.79
608.31	1693.32
608.66	1685.67
609.01	1678.05
609.36	1670.38
609.70	1662.41
610.05	1654.34
610.40	1646.86
610.75	1638.51
611.10	1631.08
611.44	1622.71
611.79	1614.71
612.14	1605.99
612.49	1596.94
612.83	1588.65
613.18	1580.62
613.53	1572.63
613.88	1564.15
614.22	1555.81
614.57	1547.31
614.92	1539.41
615.27	1531.95
615.61	1523.61
615.96	1515.70
616.31	1508.23
616.65	1501.14
617.00	1493.71
617.35	1486.13
617.70	1477.85
618.04	1469.35
618.39	1461.10
618.74	1453.58
619.08	1445.38
619.43	1437.98
619.78	1431.19
620.12	1424.14
620.47	1416.77
620.82	1408.72
621.16	1401.47
621.51	1393.94
621.85	1386.56
622.20	1378.16
622.55	1369.93
622.89	1362.31
623.24	1354.74
623.59	1347.42
623.93	1339.88
624.28	1332.68
624.62	1325.32
624.97	1318.33
625.32	1311.77
625.66	1304.80
626.01	1297.78
626.35	1290.28
626.70	1282.56
627.04	1274.89
627.39	1267.22
627.73	1259.87
628.08	1253.02
628.43	1245.64
628.77	1238.30
629.12	1230.76
629.46	1223.61
629.81	1216.32
630.15	1209.21
630.50	1201.99
630.84	1193.78
631.19	1185.96
631.53	1178.55
631.88	1171.09
632.22	1163.43
632.57	1156.27
632.91	1148.85
633.26	1141.56
633.60	1134.48
633.95	1127.58
634.29	1120.69
634.64	1114.11
634.98	1106.83
635.32	1099.76
635.67	1093.43
636.01	1086.96
636.36	1080.25
636.70	1073.86
637.05	1067.41
637.39	1060.89
637.73	1054.49
638.08	1048.78
638.42	1042.90
638.77	1036.57
639.11	1030.07
639.45	1023.84
639.80	1017.19
640.14	1010.80
640.49	1004.23
640.83	998.02
641.17	991.77
641.52	985.51
641.86	979.17
642.20	973.43
642.55	967.26
642.89	960.72
643.23	954.23
643.58	948.54
643.92	942.39
644.26	936.32
644.61	930.44
644.95	924.35
645.29	917.86
645.64	911.19
645.98	904.91
646.32	899.17
646.66	893.15
647.01	887.42
647.35	881.80
647.69	876.10
648.04	870.68
648.38	864.98
648.72	859.04
649.06	852.95
649.41	847.03
649.75	841.03
650.09	835.23
650.43	829.51
650.78	823.34
651.12	817.46
651.46	811.81
651.80	806.06
652.14	800.78
652.49	795.49
652.83	790.38
653.17	784.70
653.51	778.95
653.85	773.56
654.20	767.99
654.54	762.07
654.88	756.42
655.22	750.58
655.56	744.99
655.90	739.59
656.25	734.45
656.59	729.23
656.93	724.20
657.27	719.10
657.61	713.73
657.95	708.67
658.29	703.63
658.64	698.43
658.98	693.26
659.32	687.85
659.66	682.59
660.00	677.35
660.34	672.53
660.68	667.72
661.02	662.73
661.36	658.05
661.70	653.64
662.05	649.25
662.39	644.86
662.73	640.40
663.07	636.08
663.41	631.68
663.75	627.20
664.09	622.76
664.43	618.35
664.77	614.29
665.11	610.08
665.45	606.05
665.79	602.01
666.13	597.88
666.47	593.83
666.81	589.75
667.15	585.69
667.49	581.84
667.83	578.06
668.17	574.19
668.51	570.19
668.85	566.21
669.19	562.44
669.53	558.65
669.87	554.83
670.21	551.16
670.55	547.55
670.89	544.24
671.23	540.82
671.57	537.38
671.91	533.94
672.25	530.59
672.58	527.09
672.92	523.82
673.26	520.74
673.60	517.69
673.94	514.62
674.28	511.80
674.62	508.88
674.96	505.81
675.30	502.95
675.64	500.12
675.97	497.34
676.31	494.58
676.65	491.73
676.99	489.08
677.33	486.34
677.67	483.55
678.01	480.50
678.34	477.56
678.68	474.73
679.02	471.92
679.36	469.12
679.70	466.51
680.04	463.73
680.37	460.88
680.71	458.12
681.05	455.62
681.39	452.92
681.73	450.29
682.06	447.86
682.40	445.38
682.74	442.85
683.08	440.37
683.42	437.79
683.75	435.35
684.09	432.86
684.43	430.38
684.77	428.03
685.10	425.78
685.44	423.55
685.78	421.31
686.12	419.14
686.45	416.90
686.79	414.60
687.13	412.50
687.46	410.38
687.80	408.22
688.14	405.99
688.48	403.98
688.81	401.81
689.15	399.65
689.49	397.52
689.82	395.48
690.16	393.39
690.50	391.46
690.83	389.53
691.17	387.54
691.51	385.65
691.84	383.78
692.18	381.83
692.52	379.85
692.85	377.93
693.19	376.06
693.52	374.31
693.86	372.53
694.20	370.71
694.53	368.94
694.87	367.13
695.21	365.38
695.54	363.57
695.88	361.86
696.21	360.14
696.55	358.49
696.88	356.84
697.22	355.22
697.56	353.60
697.89	351.97
698.23	350.41
698.56	348.81
698.90	347.22
699.23	345.59
699.57	344.08
699.90	342.57
700.24	341.00
700.58	339.45
700.91	337.97
701.25	336.58
701.58	335.19
701.92	333.89
702.25	332.54
702.59	331.14
702.92	329.83
703.26	328.55
703.59	327.27
703.93	326.08
704.26	324.85
704.60	323.55
704.93	322.28
705.26	321.03
705.60	319.85
705.93	318.72
706.27	317.76
706.60	316.75
706.94	315.65
707.27	314.61
707.61	313.56
707.94	312.54
708.27	311.46
708.61	310.41
708.94	309.38
709.28	308.42
709.61	307.52
709.94	306.60
710.28	305.64
710.61	304.67
710.95	303.59
711.28	302.73
711.61	301.80
711.95	300.92
712.28	299.97
712.61	299.00
712.95	298.07
713.28	297.17
713.61	296.25
713.95	295.38
714.28	294.54
714.61	293.70
714.95	292.88
715.28	292.05
715.61	291.22
715.95	290.38
716.28	289.56
716.61	288.74
716.95	287.93
717.28	287.14
717.61	286.45
717.94	285.76
718.28	284.94
718.61	284.29
718.94	283.61
719.27	283.02
719.61	282.42
719.94	281.78
720.27	281.06
720.60	280.43
720.94	279.82
721.27	279.21
721.60	278.65
721.93	278.02
722.27	277.43
722.60	276.90
722.93	276.33
723.26	275.74
723.59	275.15
723.93	274.60
724.26	274.06
724.59	273.47
724.92	272.94
725.25	272.46
725.59	271.95
725.92	271.47
726.25	270.91
726.58	270.44
726.91	269.96
727.24	269.50
727.57	269.03
727.91	268.55
728.24	268.09
728.57	267.60
728.90	267.23
729.23	266.77
729.56	266.34
729.89	265.87
730.22	265.45
730.55	265.03
730.89	264.61
731.22	264.24
731.55	263.80
731.88	263.39
732.21	262.96
732.54	262.52
732.87	262.07
733.20	261.68
733.53	261.28
733.86	260.91
734.19	260.52
734.52	260.11
734.85	259.80
735.18	259.39
735.51	259.04
735.84	258.63
736.17	258.27
736.50	257.84
736.83	257.60
737.16	257.23
737.49	256.88
737.82	256.48
738.15	256.10
738.48	255.77
738.81	255.45
739.14	255.12
739.47	254.80
739.80	254.51
740.13	254.23
740.46	253.89
740.79	253.54
741.12	253.25
741.45	252.97
741.78	252.60
742.11	252.27
742.44	251.93
742.77	251.62
743.10	251.30
743.43	250.99
743.75	250.64
744.08	250.50
744.41	250.25
744.74	249.99
745.07	249.71
745.40	249.44
745.73	249.19
746.06	248.93
746.39	248.63
746.71	248.36
747.04	248.08
747.37	247.84
747.70	247.59
748.03	247.29
748.36	247.07
748.68	246.85
749.01	246.62
749.34	246.38
749.67	246.15
750.00	245.94
750.33	245.82
750.65	245.55
750.98	245.19
751.31	244.94
751.64	244.75
751.97	244.58
752.29	244.37
752.62	244.12
752.95	243.91
753.28	243.71
753.60	243.49
753.93	243.25
754.26	243.03
754.59	242.82
754.91	242.64
755.24	242.40
755.57	242.20
755.90	242.03
756.22	241.86
756.55	241.70
756.88	241.50
757.20	241.27
757.53	241.10
757.86	240.94
758.19	240.78
758.51	240.61
758.84	240.40
759.17	240.22
759.49	240.08
759.82	239.95
760.15	239.83
760.47	239.68
760.80	239.57
761.13	239.43
761.45	239.25
761.78	239.11
762.11	239.01
762.43	238.84
762.76	238.67
763.08	238.54
763.41	238.40
763.74	238.28
764.06	238.13
764.39	238.00
764.71	237.88
765.04	237.76
765.37	237.61
765.69	237.50
766.02	237.38
766.34	237.25
766.67	237.10
767.00	236.97
767.32	236.92
767.65	236.88
767.97	236.79
768.30	236.73
768.62	236.62
768.95	236.48
769.27	236.41
769.60	236.33
769.92	236.20
770.25	236.11
770.57	235.97
770.90	235.87
771.22	235.78
771.55	235.70
771.87	235.57
772.20	235.49
772.52	235.48
772.85	235.49
773.17	235.40
773.50	235.35
773.82	235.23
774.15	235.12
774.47	234.95
774.80	234.86
775.12	234.74
775.45	234.66
775.77	234.61
776.09	234.54
776.42	234.49
776.74	234.44
777.07	234.33
777.39	234.29
777.72	234.22
778.04	234.13
778.36	234.07
778.69	234.04
779.01	233.98
779.33	233.82
779.66	233.68
779.98	233.61
780.31	233.50
780.63	233.49
780.95	233.42
781.28	233.40
781.60	233.34
781.92	233.29
782.25	233.20
782.57	233.12
782.89	233.06
783.22	233.01
783.54	232.93
783.86	232.93
784.19	232.85
784.51	232.84
784.83	232.78
785.16	232.72
785.48	232.66
785.80	232.58
786.12	232.52
786.45	232.44
786.77	232.36
787.09	232.33
787.42	232.24
787.74	232.21
788.06	232.13
788.38	232.08
788.71	232.00
789.03	232.01
789.35	231.98
789.67	231.92
789.99	231.86
790.32	231.81
790.64	231.74
790.96	231.77
791.28	231.70
791.61	231.68
791.93	231.64
792.25	231.58
792.57	231.61
792.89	231.58
793.21	231.57
793.54	231.53
793.86	231.47
794.18	231.46
794.50	231.38
794.82	231.35
795.14	231.32
795.47	231.32
795.79	231.26
796.11	231.21
796.43	231.21
796.75	231.17
797.07	231.14
797.39	231.12
797.71	231.05
798.04	231.01
798.36	230.97
798.68	230.94
799.00	230.95
799.32	230.89
799.64	230.88
799.96	230.85
800.28	230.87
800.60	230.89
800.92	230.88
801.24	230.86
801.56	230.81
801.89	230.76
802.21	230.75
802.53	230.69
802.85	230.68
803.17	230.69
803.49	230.65
803.81	230.59
804.13	230.54
804.45	230.49
804.77	230.49
805.09	230.44
805.41	230.42
805.73	230.36
806.05	230.30
806.37	230.26
806.69	230.23
807.01	230.19
807.33	230.14
807.65	230.07
807.97	230.07
808.28	230.03
808.60	230.04
808.92	229.99
809.24	230.04
809.56	230.00
809.88	229.93
810.20	229.89
810.52	229.91
810.84	229.86
811.16	229.82
811.48	229.76
811.80	229.76
812.12	229.68
812.43	229.68
812.75	229.64
813.07	229.61
813.39	229.56
813.71	229.53
814.03	229.48
814.35	229.46
814.67	229.40
814.98	229.39
815.30	229.29
815.62	229.25
815.94	229.15
816.26	229.16
816.58	229.10
816.89	229.09
817.21	229.03
817.53	229.03
817.85	229.03
818.17	229.03
818.48	228.97
818.80	229.00
819.12	228.94
819.44	228.92
819.76	228.89
820.07	228.89
820.39	228.86
820.71	228.86
821.03	228.84
821.34	228.82
821.66	228.81
821.98	228.84
822.30	228.83
822.61	228.89
822.93	228.85
823.25	228.82
823.57	228.81
823.88	228.82
824.20	228.81
824.52	228.79
824.83	228.75
825.15	228.73
825.47	228.72
825.79	228.73
826.10	228.75
826.42	228.74
826.74	228.72
827.05	228.74
827.37	228.71
827.69	228.72
828.00	228.69
828.32	228.70
828.64	228.69
828.95	228.73
829.27	228.68
829.58	228.66
829.90	228.69
830.22	228.69
830.53	228.67
830.85	228.64
831.17	228.62
831.48	228.63
831.80	228.63
832.11	228.60
832.43	228.59
832.75	228.55
833.06	228.62
833.38	228.59
833.69	228.58
834.01	228.61
834.32	228.59
834.64	228.60
834.96	228.61
835.27	228.58
835.59	228.55
835.90	228.57
836.22	228.56
836.53	228.53
836.85	228.47
837.16	228.54
837.48	228.55
837.79	228.60
838.11	228.61
838.42	228.64
838.74	228.65
839.05	228.60
839.37	228.59
839.68	228.51
840.00	228.51
840.31	228.48
840.63	228.47
840.94	228.44
841.26	228.42
841.57	228.40
841.88	228.38
842.20	228.36
842.51	228.30
842.83	228.27
843.14	228.38
843.46	228.37
843.77	228.30
844.08	228.28
844.40	228.21
844.71	228.17
845.03	228.14
845.34	228.14
845.65	228.14
845.97	228.15
846.28	228.18
846.60	228.17
846.91	228.16
847.22	228.10
847.54	228.14
847.85	228.16
848.16	228.14
848.48	228.14
848.79	228.18
849.10	228.21
849.42	228.22
849.73	228.10
850.04	228.12
850.36	228.09
850.67	228.09
850.98	228.07
851.30	228.09
851.61	228.08
851.92	228.05
852.23	228.10
852.55	228.10
852.86	228.09
853.17	228.08
853.49	228.09
853.80	228.13
854.11	228.12
854.42	228.08
854.74	228.06
855.05	228.05
855.36	227.99
855.67	227.99
855.99	228.04
856.30	228.15
856.61	228.14
856.92	228.14
857.23	228.13
857.55	228.15
857.86	228.12
858.17	228.12
858.48	228.10
858.79	228.05
859.11	228.03
859.42	228.00
859.73	228.01
860.04	228.01
860.35	227.95
860.66	227.91
860.98	227.90
861.29	227.94
861.60	227.87
861.91	227.87
862.22	227.84
862.53	227.78
862.84	227.67
863.16	227.69
863.47	227.70
863.78	227.72
864.09	227.69
864.40	227.70
864.71	227.70
865.02	227.71
865.33	227.71
865.64	227.68
865.95	227.69
866.27	227.74
866.58	227.75
866.89	227.79
867.20	227.78
867.51	227.79
867.82	227.80
868.13	227.87
868.44	227.86
868.75	227.89
869.06	227.91
869.37	227.92
869.68	227.90
869.99	227.91
870.30	227.91
870.61	227.95
870.92	227.93
871.23	227.95
871.54	227.98
871.85	228.01
872.16	228.03
872.47	228.02
872.78	227.97
873.09	227.98
873.40	227.97
873.71	228.01
874.02	228.03
874.33	228.00
874.64	228.00
874.95	228.04
875.26	228.04
875.56	228.05
875.87	228.03
876.18	228.02
876.49	228.12
876.80	228.09
877.11	228.04
877.42	228.10
877.73	228.10
878.04	228.08
878.35	228.09
878.66	228.09
878.96	228.07
879.27	228.12
879.58	228.09
879.89	228.07
880.20	228.07
880.51	228.10
880.82	228.11
881.12	228.13
881.43	228.11
881.74	228.06
882.05	228.04
882.36	228.06
882.67	228.07
882.97	227.96
883.28	227.97
883.59	227.96
883.90	227.93
884.21	227.93
884.51	227.94
884.82	227.93
885.13	227.91
885.44	227.94
885.74	227.89
886.05	227.90
886.36	227.93
886.67	227.88
886.98	227.85
887.28	227.86
887.59	227.83
887.90	227.79
888.20	227.81
888.51	227.80
888.82	227.79
889.13	227.80
889.43	227.85
889.74	227.87
890.05	227.87
890.35	227.89
890.66	227.85
890.97	227.88
891.28	227.85
891.58	227.85
891.89	227.85
892.20	227.84
892.50	227.83
892.81	227.82
893.12	227.85
893.42	227.81
893.73	227.82
894.04	227.81
894.34	227.83
894.65	227.81
894.95	227.79
895.26	227.79
895.57	227.82
895.87	227.76
896.18	227.73
896.48	227.74
896.79	227.71
897.10	227.74
897.40	227.72
897.71	227.69
898.01	227.70
898.32	227.68
898.63	227.67
898.93	227.64
899.24	227.64
899.54	227.61
899.85	227.62
900.15	227.59
900.46	227.61
900.76	227.62
901.07	227.63
901.38	227.63
901.68	227.62
901.99	227.56
902.29	227.57
902.60	227.59
902.90	227.59
903.21	227.60
903.51	227.58
903.82	227.61
904.12	227.65
904.43	227.63
904.73	227.63
905.03	227.65
905.34	227.74
905.64	227.74
905.95	227.75
906.25	227.75
906.56	227.74
906.86	227.76
907.17	227.70
907.47	227.71
907.77	227.69
908.08	227.68
908.38	227.69
908.69	227.67
908.99	227.68
909.30	227.66
909.60	227.65
909.90	227.66
910.21	227.60
910.51	227.59
910.81	227.59
911.12	227.62
911.42	227.63
911.73	227.57
912.03	227.57
912.33	227.57
912.64	227.56
912.94	227.55
913.24	227.53
913.55	227.55
913.85	227.52
914.15	227.57
914.46	227.58
914.76	227.58
915.06	227.57
915.37	227.54
915.67	227.56
915.97	227.58
916.27	227.58
916.58	227.62
916.88	227.58
917.18	227.56
917.49	227.62
917.79	227.59
918.09	227.63
918.39	227.67
918.70	227.66
919.00	227.66
919.30	227.71
919.60	227.71
919.91	227.73
920.21	227.74
920.51	227.71
920.81	227.73
921.12	227.74
921.42	227.74
921.72	227.76
922.02	227.72
922.32	227.74
922.63	227.73
922.93	227.77
923.23	227.79
923.53	227.84
923.83	227.79
924.13	227.80
924.44	227.73
924.74	227.73
925.04	227.79
925.34	227.79
925.64	227.72
925.94	227.74
926.24	227.77
926.55	227.78
926.85	227.81
927.15	227.78
927.45	227.78
927.75	227.80
928.05	227.80
928.35	227.82
928.65	227.78
928.95	227.80
929.26	227.74
929.56	227.78
929.86	227.76
930.16	227.72
930.46	227.73
930.76	227.75
931.06	227.71
931.36	227.66
931.66	227.67
931.96	227.70
932.26	227.67
932.56	227.63
932.86	227.64
933.16	227.64
933.46	227.66
933.76	227.64
934.06	227.64
934.36	227.67
934.66	227.68
934.96	227.70
935.26	227.70
935.56	227.70
935.86	227.66
936.16	227.65
936.46	227.64
936.76	227.59
937.06	227.58
937.36	227.59
937.66	227.59
937.96	227.59
938.26	227.56
938.56	227.54
938.86	227.52
939.16	227.53
939.46	227.50
939.76	227.51
940.06	227.52
940.35	227.52
940.65	227.45
940.95	227.43
941.25	227.39
941.55	227.33
941.85	227.34
942.15	227.37
942.45	227.37
942.75	227.39
943.04	227.41
943.34	227.43
943.64	227.41
943.94	227.39
944.24	227.38
944.54	227.40
944.84	227.43
945.13	227.44
945.43	227.40
945.73	227.43
946.03	227.41
946.33	227.38
946.62	227.36
946.92	227.38
947.22	227.38
947.52	227.39
947.82	227.44
948.11	227.41
948.41	227.37
948.71	227.37
949.01	227.36
949.31	227.36
949.60	227.35
949.90	227.37
950.20	227.38
950.50	227.40
950.79	227.38
951.09	227.39
951.39	227.37
951.69	227.39
951.98	227.42
952.28	227.42
952.58	227.43
952.87	227.40
953.17	227.42
953.47	227.46
953.76	227.45
954.06	227.44
954.36	227.42
954.66	227.44
954.95	227.45
955.25	227.46
955.55	227.47
955.84	227.45
956.14	227.45
956.44	227.46
956.73	227.45
957.03	227.44
957.32	227.42
957.62	227.42
957.92	227.45
958.21	227.40
958.51	227.50
958.81	227.51
959.10	227.54
959.40	227.56
959.69	227.52
959.99	227.56
960.29	227.57
960.58	227.57
960.88	227.60
961.17	227.60
961.47	227.60
961.76	227.58
962.06	227.58
962.36	227.57
962.65	227.58
962.95	227.61
963.24	227.63
963.54	227.63
963.83	227.64
964.13	227.61
964.42	227.58
964.72	227.54
965.01	227.57
965.31	227.56
965.60	227.54
965.90	227.62
966.19	227.59
966.49	227.59
966.78	227.59
967.08	227.58
967.37	227.57
967.67	227.58
967.96	227.62
968.26	227.64
968.55	227.65
968.85	227.64
969.14	227.58
969.43	227.56
969.73	227.58
970.02	227.57
970.32	227.53
970.61	227.54
970.91	227.47
971.20	227.46
971.49	227.44
971.79	227.44
972.08	227.37
972.38	227.37
972.67	227.35
972.96	227.35
973.26	227.31
973.55	227.32
973.85	227.30
974.14	227.28
974.43	227.26
974.73	227.25
975.02	227.24
975.31	227.24
975.61	227.22
975.90	227.21
976.19	227.21
976.49	227.23
976.78	227.22
977.07	227.22
977.37	227.17
977.66	227.18
977.95	227.15
978.24	227.16
978.54	227.14
978.83	227.14
979.12	227.13
979.42	227.15
979.71	227.12
980.00	227.09
980.29	227.11
980.59	227.07
980.88	227.08
981.17	227.08
981.46	227.08
981.76	227.10
982.05	227.11
982.34	227.09
982.63	227.08
982.93	227.09
983.22	227.13
983.51	227.18
983.80	227.18
984.09	227.20
984.39	227.20
984.68	227.20
984.97	227.21
985.26	227.20
985.55	227.20
985.85	227.19
986.14	227.24
986.43	227.24
986.72	227.24
987.01	227.21
987.30	227.18
987.59	227.19
987.89	227.23
988.18	227.22
988.47	227.23
988.76	227.27
989.05	227.26
989.34	227.23
989.63	227.24
989.92	227.24
990.22	227.22
990.51	227.21
990.80	227.21
991.09	227.23
991.38	227.27
991.67	227.26
991.96	227.25
992.25	227.25
992.54	227.25
992.83	227.29
993.12	227.30
993.41	227.34
993.70	227.37
993.99	227.38
994.28	227.36
994.58	227.40
994.87	227.38
995.16	227.39
995.45	227.40
995.74	227.36
996.03	227.36
996.32	227.38
996.61	227.41
996.90	227.42
997.19	227.42
997.48	227.43
997.77	227.42
998.06	227.43
998.34	227.43
998.63	227.41
998.92	227.40
999.21	227.43
999.50	227.40
999.79	227.38
1000.08	227.36
1000.37	227.39
1000.66	227.36
1000.95	227.38
1001.24	227.38
1001.53	227.35
1001.82	227.36
1002.11	227.37
1002.40	227.36
1002.68	227.36
1002.97	227.42
1003.26	227.41
1003.55	227.40
1003.84	227.42
1004.13	227.43
1004.42	227.44
1004.71	227.43
1004.99	227.41
1005.28	227.39
1005.57	227.42
1005.86	227.40
1006.15	227.41
1006.44	227.37
1006.72	227.38
1007.01	227.35
1007.30	227.36
1007.59	227.40
1007.88	227.39
1008.17	227.37
1008.45	227.34
1008.74	227.33
1009.03	227.27
1009.32	227.27
1009.60	227.26
1009.89	227.26
1010.18	227.22
1010.47	227.19
1010.76	227.19
1011.04	227.21
1011.33	227.25
1011.62	227.23
1011.91	227.22
1012.19	227.21
1012.48	227.23
1012.77	227.23
1013.05	227.27
1013.34	227.24
1013.63	227.22
1013.92	227.20
1014.20	227.22
1014.49	227.23
1014.78	227.25
1015.06	227.22
1015.35	227.19
1015.64	227.17
1015.92	227.17
1016.21	227.17
1016.50	227.18
1016.78	227.22
1017.07	227.22
1017.36	227.15
1017.64	227.13
1017.93	227.15
1018.22	227.17
1018.50	227.16
1018.79	227.16
1019.08	227.10
1019.36	227.15
1019.65	227.14
1019.93	227.18
1020.22	227.15
1020.51	227.21
1020.79	227.17
1021.08	227.56
1021.36	227.07
1021.65	227.19
1021.94	226.98
1022.22	227.53
1022.51	226.92
1022.79	227.42
1023.08	227.02
1023.36	228.26
1023.65	226.89
>>>>>End Processed Spectral Data<<<<<
