SpectraSuite Data File
++++++++++++++++++++++++++++++++++++
Date: Fri Feb 01 17:48:43 EST 2013
User: group
Dark Spectrum Present: No
Reference Spectrum Present: No
Number of Sampled Component Spectra: 1
Spectrometers: USB2E7196
Integration Time (usec): 35000 (USB2E7196)
Spectra Averaged: 100 (USB2E7196)
Boxcar Smoothing: 10 (USB2E7196)
Correct for Electrical Dark: No (USB2E7196)
Strobe/Lamp Enabled: No (USB2E7196)
Correct for Detector Non-linearity: No (USB2E7196)
Correct for Stray Light: No (USB2E7196)
Number of Pixels in Processed Spectrum: 2048
>>>>>Begin Processed Spectral Data<<<<<
339.09	0.00
339.48	213.21
339.86	214.11
340.24	215.68
340.63	217.45
341.01	219.15
341.39	219.85
341.78	220.88
342.16	222.15
342.54	222.55
342.93	211.10
343.31	221.75
343.69	222.25
344.07	222.72
344.46	223.14
344.84	223.48
345.22	223.74
345.60	223.93
345.99	224.13
346.37	224.24
346.75	224.32
347.13	224.38
347.52	224.45
347.90	224.52
348.28	224.52
348.66	224.56
349.05	224.56
349.43	224.64
349.81	224.68
350.19	224.73
350.57	224.76
350.96	224.85
351.34	224.94
351.72	224.99
352.10	225.07
352.48	225.14
352.87	225.18
353.25	225.25
353.63	225.34
354.01	225.38
354.39	225.46
354.77	225.54
355.15	225.64
355.54	225.68
355.92	225.71
356.30	225.77
356.68	225.90
357.06	225.93
357.44	225.94
357.82	225.95
358.20	226.00
358.58	226.06
358.97	226.10
359.35	226.17
359.73	226.30
360.11	226.34
360.49	226.39
360.87	226.45
361.25	226.51
361.63	226.60
362.01	226.67
362.39	226.69
362.77	226.74
363.15	226.75
363.53	226.80
363.91	226.83
364.29	226.88
364.67	226.81
365.05	226.87
365.43	226.94
365.81	226.99
366.19	227.04
366.57	227.11
366.95	227.14
367.33	227.11
367.71	227.08
368.09	227.10
368.47	227.08
368.85	227.09
369.23	227.09
369.61	227.06
369.99	227.04
370.37	227.08
370.75	227.11
371.13	227.10
371.51	227.03
371.89	227.02
372.27	226.98
372.65	226.95
373.03	226.92
373.41	226.85
373.78	226.80
374.16	226.73
374.54	226.66
374.92	226.60
375.30	226.55
375.68	226.50
376.06	226.44
376.44	226.38
376.82	226.33
377.19	226.26
377.57	226.21
377.95	226.13
378.33	226.03
378.71	225.93
379.09	225.90
379.47	225.88
379.84	225.83
380.22	225.79
380.60	225.72
380.98	225.64
381.36	225.59
381.73	225.52
382.11	225.45
382.49	225.38
382.87	225.33
383.25	225.31
383.62	225.37
384.00	225.32
384.38	225.27
384.76	225.24
385.13	225.22
385.51	225.15
385.89	225.09
386.27	225.07
386.64	225.04
387.02	224.96
387.40	224.91
387.78	224.87
388.15	224.82
388.53	224.77
388.91	224.74
389.29	224.72
389.66	224.73
390.04	224.70
390.42	224.72
390.79	224.69
391.17	224.67
391.55	224.54
391.92	224.53
392.30	224.54
392.68	224.51
393.05	224.49
393.43	224.52
393.81	224.50
394.18	224.46
394.56	224.45
394.94	224.43
395.31	224.43
395.69	224.45
396.06	224.46
396.44	224.50
396.82	224.51
397.19	224.58
397.57	224.61
397.95	224.65
398.32	224.65
398.70	224.70
399.07	224.73
399.45	224.78
399.82	224.84
400.20	224.85
400.58	224.94
400.95	224.93
401.33	225.01
401.70	225.16
402.08	225.25
402.45	225.34
402.83	225.46
403.20	225.58
403.58	225.68
403.95	225.81
404.33	225.92
404.71	226.08
405.08	226.21
405.46	226.31
405.83	226.48
406.21	226.63
406.58	226.81
406.96	227.02
407.33	227.20
407.70	227.40
408.08	227.75
408.45	227.97
408.83	228.28
409.20	228.51
409.58	228.72
409.95	229.07
410.33	229.38
410.70	229.72
411.08	230.08
411.45	230.49
411.82	230.88
412.20	231.34
412.57	231.85
412.95	232.25
413.32	232.79
413.69	233.31
414.07	233.84
414.44	234.46
414.82	235.08
415.19	235.82
415.56	236.53
415.94	237.23
416.31	238.07
416.68	238.87
417.06	239.81
417.43	240.70
417.81	241.67
418.18	242.69
418.55	243.79
418.93	244.93
419.30	246.09
419.67	247.36
420.04	248.59
420.42	249.87
420.79	251.40
421.16	252.91
421.54	254.44
421.91	256.04
422.28	257.66
422.66	259.36
423.03	261.00
423.40	262.72
423.77	264.54
424.15	266.36
424.52	268.32
424.89	270.42
425.26	272.47
425.64	274.36
426.01	276.43
426.38	278.55
426.75	280.71
427.13	282.94
427.50	285.23
427.87	287.67
428.24	290.09
428.61	292.37
428.99	294.85
429.36	297.59
429.73	300.25
430.10	302.87
430.47	305.56
430.85	308.34
431.22	311.25
431.59	314.32
431.96	317.25
432.33	320.43
432.70	323.53
433.08	327.16
433.45	330.62
433.82	334.00
434.19	337.77
434.56	341.45
434.93	344.90
435.30	348.32
435.68	352.08
436.05	355.74
436.42	359.36
436.79	362.61
437.16	366.12
437.53	369.80
437.90	373.46
438.27	376.99
438.64	380.68
439.01	384.04
439.38	386.99
439.75	389.79
440.13	393.07
440.50	396.11
440.87	398.55
441.24	401.04
441.61	403.91
441.98	405.83
442.35	408.15
442.72	410.60
443.09	412.93
443.46	414.22
443.83	415.01
444.20	415.67
444.57	416.82
444.94	417.22
445.31	417.75
445.68	418.16
446.05	418.23
446.42	417.72
446.79	417.23
447.16	416.66
447.53	416.29
447.90	414.80
448.27	413.26
448.64	411.16
449.01	409.70
449.37	407.10
449.74	404.60
450.11	401.68
450.48	398.39
450.85	395.14
451.22	392.38
451.59	389.79
451.96	387.26
452.33	383.87
452.70	380.76
453.07	377.07
453.43	373.36
453.80	369.82
454.17	366.37
454.54	363.06
454.91	359.51
455.28	356.04
455.65	352.81
456.02	349.60
456.38	346.83
456.75	343.35
457.12	340.41
457.49	337.54
457.86	334.73
458.23	332.34
458.59	329.63
458.96	326.92
459.33	324.47
459.70	322.06
460.07	320.08
460.43	317.85
460.80	315.70
461.17	313.84
461.54	311.91
461.91	310.00
462.27	308.10
462.64	306.44
463.01	304.64
463.38	302.94
463.74	301.21
464.11	299.67
464.48	298.31
464.85	296.88
465.21	295.73
465.58	294.50
465.95	293.10
466.32	291.93
466.68	290.73
467.05	289.54
467.42	288.36
467.78	287.17
468.15	286.02
468.52	285.15
468.88	284.00
469.25	282.97
469.62	282.16
469.98	281.31
470.35	280.48
470.72	279.70
471.08	278.83
471.45	278.12
471.82	277.36
472.18	276.61
472.55	276.00
472.92	275.30
473.28	274.71
473.65	274.09
474.02	273.53
474.38	273.02
474.75	272.60
475.11	272.12
475.48	271.75
475.85	271.42
476.21	271.09
476.58	270.81
476.94	270.61
477.31	270.35
477.67	270.10
478.04	269.90
478.41	269.76
478.77	269.73
479.14	269.57
479.50	269.52
479.87	269.51
480.23	269.56
480.60	269.60
480.96	269.62
481.33	269.79
481.69	269.93
482.06	270.07
482.42	270.23
482.79	270.47
483.15	270.77
483.52	271.11
483.88	271.36
484.25	271.74
484.61	272.16
484.98	272.55
485.34	273.09
485.71	273.68
486.07	274.28
486.44	274.78
486.80	275.52
487.17	276.26
487.53	277.07
487.90	277.91
488.26	278.87
488.62	279.88
488.99	280.86
489.35	281.93
489.72	283.15
490.08	284.39
490.44	285.65
490.81	287.02
491.17	288.41
491.54	289.98
491.90	291.55
492.26	293.19
492.63	295.01
492.99	296.87
493.36	298.85
493.72	301.02
494.08	303.26
494.45	305.58
494.81	308.03
495.17	310.61
495.54	313.34
495.90	316.14
496.26	319.10
496.63	322.22
496.99	325.49
497.35	328.86
497.72	332.43
498.08	336.14
498.44	339.94
498.80	344.05
499.17	348.30
499.53	352.70
499.89	357.35
500.26	362.11
500.62	367.01
500.98	372.20
501.34	377.47
501.71	383.07
502.07	388.82
502.43	394.75
502.79	400.83
503.16	407.19
503.52	413.80
503.88	420.50
504.24	427.44
504.60	434.63
504.97	442.13
505.33	449.80
505.69	457.87
506.05	466.11
506.41	474.46
506.78	483.08
507.14	491.98
507.50	501.12
507.86	510.65
508.22	520.31
508.59	530.02
508.95	540.15
509.31	550.49
509.67	561.12
510.03	571.90
510.39	583.05
510.75	594.36
511.12	605.89
511.48	617.84
511.84	629.96
512.20	642.15
512.56	654.71
512.92	667.57
513.28	680.72
513.64	693.95
514.00	707.36
514.37	721.07
514.73	734.93
515.09	748.74
515.45	762.79
515.81	777.27
516.17	792.07
516.53	807.10
516.89	822.26
517.25	837.40
517.61	852.84
517.97	868.28
518.33	883.68
518.69	899.47
519.05	915.38
519.41	931.65
519.77	948.31
520.13	964.83
520.49	981.40
520.85	997.75
521.21	1014.56
521.57	1032.04
521.93	1048.92
522.29	1066.51
522.65	1084.11
523.01	1101.55
523.37	1118.86
523.73	1136.32
524.09	1153.67
524.45	1171.17
524.81	1189.04
525.17	1207.12
525.53	1225.32
525.89	1243.69
526.25	1261.92
526.61	1279.83
526.97	1297.98
527.33	1315.85
527.68	1333.99
528.04	1351.92
528.40	1370.20
528.76	1388.75
529.12	1406.84
529.48	1425.36
529.84	1442.92
530.20	1460.89
530.56	1479.53
530.91	1498.63
531.27	1517.16
531.63	1535.32
531.99	1553.65
532.35	1571.42
532.71	1588.95
533.07	1607.09
533.42	1624.64
533.78	1642.47
534.14	1660.51
534.50	1677.58
534.86	1695.30
535.21	1712.21
535.57	1729.85
535.93	1747.12
536.29	1763.63
536.65	1780.55
537.00	1796.99
537.36	1814.11
537.72	1830.57
538.08	1846.78
538.44	1862.36
538.79	1878.09
539.15	1893.46
539.51	1908.99
539.87	1925.06
540.22	1940.50
540.58	1955.94
540.94	1971.16
541.29	1985.82
541.65	2000.39
542.01	2015.55
542.37	2029.77
542.72	2044.08
543.08	2057.85
543.44	2072.12
543.79	2085.29
544.15	2098.09
544.51	2111.69
544.87	2124.58
545.22	2137.36
545.58	2149.50
545.94	2161.08
546.29	2172.67
546.65	2184.54
547.01	2195.72
547.36	2206.23
547.72	2216.75
548.07	2226.41
548.43	2236.25
548.79	2245.96
549.14	2255.14
549.50	2264.09
549.86	2273.37
550.21	2282.32
550.57	2291.25
550.92	2299.47
551.28	2308.22
551.64	2317.11
551.99	2325.20
552.35	2333.12
552.70	2340.88
553.06	2348.56
553.41	2356.53
553.77	2364.24
554.13	2371.69
554.48	2379.44
554.84	2386.77
555.19	2393.53
555.55	2400.36
555.90	2406.39
556.26	2412.96
556.61	2419.13
556.97	2425.12
557.32	2430.86
557.68	2436.52
558.03	2442.10
558.39	2447.16
558.74	2453.29
559.10	2458.48
559.45	2463.55
559.81	2469.03
560.16	2474.26
560.52	2478.84
560.87	2483.62
561.23	2487.38
561.58	2491.59
561.94	2495.27
562.29	2498.57
562.64	2502.56
563.00	2506.29
563.35	2510.98
563.71	2515.26
564.06	2519.75
564.42	2523.74
564.77	2527.38
565.12	2530.83
565.48	2533.84
565.83	2536.76
566.19	2539.15
566.54	2540.83
566.89	2542.90
567.25	2544.50
567.60	2546.63
567.96	2549.29
568.31	2550.87
568.66	2552.98
569.02	2554.43
569.37	2555.59
569.72	2557.42
570.08	2558.32
570.43	2558.97
570.78	2559.17
571.14	2558.11
571.49	2557.12
571.84	2557.19
572.20	2556.65
572.55	2556.16
572.90	2555.01
573.26	2554.17
573.61	2552.68
573.96	2551.55
574.31	2548.88
574.67	2546.19
575.02	2542.70
575.37	2539.41
575.72	2535.86
576.08	2532.54
576.43	2529.31
576.78	2525.76
577.13	2522.59
577.49	2519.40
577.84	2516.08
578.19	2512.13
578.54	2508.66
578.90	2504.74
579.25	2498.99
579.60	2493.73
579.95	2488.46
580.30	2483.35
580.66	2477.84
581.01	2472.75
581.36	2467.60
581.71	2463.39
582.06	2458.77
582.42	2454.26
582.77	2448.71
583.12	2443.93
583.47	2439.07
583.82	2433.82
584.17	2428.34
584.53	2422.46
584.88	2416.63
585.23	2410.52
585.58	2404.82
585.93	2399.01
586.28	2393.52
586.63	2388.19
586.98	2382.67
587.34	2377.63
587.69	2372.27
588.04	2366.76
588.39	2360.71
588.74	2353.50
589.09	2346.77
589.44	2339.28
589.79	2332.58
590.14	2326.38
590.49	2319.08
590.84	2312.07
591.19	2305.54
591.54	2298.37
591.89	2290.42
592.25	2283.05
592.60	2275.14
592.95	2266.86
593.30	2258.63
593.65	2250.49
594.00	2242.63
594.35	2234.62
594.70	2225.72
595.05	2217.91
595.40	2209.61
595.75	2201.21
596.10	2194.50
596.45	2186.97
596.80	2180.03
597.15	2172.66
597.50	2164.98
597.85	2157.75
598.19	2150.31
598.54	2142.45
598.89	2134.83
599.24	2128.20
599.59	2120.75
599.94	2113.55
600.29	2106.33
600.64	2098.85
600.99	2090.46
601.34	2082.82
601.69	2074.91
602.04	2067.14
602.39	2058.62
602.74	2050.92
603.08	2043.17
603.43	2035.33
603.78	2026.92
604.13	2018.83
604.48	2010.63
604.83	2002.75
605.18	1994.99
605.53	1985.94
605.87	1976.74
606.22	1968.55
606.57	1959.38
606.92	1950.59
607.27	1942.56
607.62	1934.73
607.96	1926.51
608.31	1918.97
608.66	1910.22
609.01	1901.74
609.36	1893.13
609.70	1884.06
610.05	1874.95
610.40	1866.20
610.75	1856.73
611.10	1848.03
611.44	1838.27
611.79	1829.09
612.14	1819.10
612.49	1808.41
612.83	1798.69
613.18	1789.14
613.53	1779.97
613.88	1770.19
614.22	1760.85
614.57	1750.82
614.92	1741.46
615.27	1732.84
615.61	1723.37
615.96	1714.07
616.31	1705.22
616.65	1696.64
617.00	1687.99
617.35	1679.15
617.70	1669.69
618.04	1659.97
618.39	1650.39
618.74	1641.74
619.08	1632.14
619.43	1623.29
619.78	1615.44
620.12	1607.36
620.47	1598.97
620.82	1589.41
621.16	1580.87
621.51	1572.00
621.85	1563.25
622.20	1553.52
622.55	1543.79
622.89	1534.58
623.24	1525.78
623.59	1517.13
623.93	1508.62
624.28	1500.21
624.62	1491.58
624.97	1483.17
625.32	1475.33
625.66	1467.27
626.01	1458.97
626.35	1450.49
626.70	1441.74
627.04	1432.79
627.39	1423.65
627.73	1415.00
628.08	1406.95
628.43	1398.57
628.77	1390.34
629.12	1381.70
629.46	1373.46
629.81	1364.78
630.15	1356.56
630.50	1348.09
630.84	1338.84
631.19	1329.54
631.53	1320.86
631.88	1312.15
632.22	1303.53
632.57	1295.08
632.91	1286.46
633.26	1277.97
633.60	1269.38
633.95	1261.06
634.29	1252.91
634.64	1245.20
634.98	1236.88
635.32	1228.79
635.67	1221.24
636.01	1213.45
636.36	1205.65
636.70	1198.17
637.05	1190.82
637.39	1183.34
637.73	1175.95
638.08	1169.13
638.42	1162.31
638.77	1155.04
639.11	1147.49
639.45	1140.08
639.80	1132.50
640.14	1125.16
640.49	1117.73
640.83	1110.60
641.17	1103.57
641.52	1096.38
641.86	1089.04
642.20	1082.36
642.55	1075.08
642.89	1067.67
643.23	1060.23
643.58	1053.66
643.92	1046.50
644.26	1039.59
644.61	1032.66
644.95	1025.81
645.29	1018.38
645.64	1010.72
645.98	1003.36
646.32	996.64
646.66	989.85
647.01	983.31
647.35	976.80
647.69	970.06
648.04	963.68
648.38	957.08
648.72	950.40
649.06	943.58
649.41	936.83
649.75	930.15
650.09	923.41
650.43	916.89
650.78	909.86
651.12	903.18
651.46	896.64
651.80	890.24
652.14	884.06
652.49	877.98
652.83	872.12
653.17	865.77
653.51	859.35
653.85	853.21
654.20	846.83
654.54	840.10
654.88	833.65
655.22	827.01
655.56	820.55
655.90	814.23
656.25	808.25
656.59	802.15
656.93	796.35
657.27	790.49
657.61	784.28
657.95	778.57
658.29	772.81
658.64	766.81
658.98	760.70
659.32	754.56
659.66	748.62
660.00	742.64
660.34	736.98
660.68	731.38
661.02	725.62
661.36	720.29
661.70	715.18
662.05	710.23
662.39	705.32
662.73	700.26
663.07	695.32
663.41	690.40
663.75	685.30
664.09	680.10
664.43	675.07
664.77	670.46
665.11	665.60
665.45	660.93
665.79	656.38
666.13	651.74
666.47	647.10
666.81	642.42
667.15	637.72
667.49	633.32
667.83	628.95
668.17	624.56
668.51	619.94
668.85	615.31
669.19	610.91
669.53	606.58
669.87	602.22
670.21	597.99
670.55	593.76
670.89	589.89
671.23	586.01
671.57	582.08
671.91	578.08
672.25	574.02
672.58	570.00
672.92	566.08
673.26	562.44
673.60	558.79
673.94	555.25
674.28	551.89
674.62	548.62
674.96	545.14
675.30	541.82
675.64	538.47
675.97	535.32
676.31	532.10
676.65	528.79
676.99	525.72
677.33	522.52
677.67	519.34
678.01	515.95
678.34	512.60
678.68	509.34
679.02	506.17
679.36	503.13
679.70	500.11
680.04	497.07
680.37	493.93
680.71	490.77
681.05	487.83
681.39	484.83
681.73	481.82
682.06	478.94
682.40	476.06
682.74	473.23
683.08	470.36
683.42	467.42
683.75	464.56
684.09	461.60
684.43	458.81
684.77	456.04
685.10	453.35
685.44	450.77
685.78	448.16
686.12	445.57
686.45	442.94
686.79	440.24
687.13	437.73
687.46	435.17
687.80	432.77
688.14	430.24
688.48	427.88
688.81	425.32
689.15	422.86
689.49	420.39
689.82	418.00
690.16	415.61
690.50	413.36
690.83	411.16
691.17	408.91
691.51	406.74
691.84	404.63
692.18	402.46
692.52	400.19
692.85	397.98
693.19	395.81
693.52	393.74
693.86	391.73
694.20	389.66
694.53	387.67
694.87	385.52
695.21	383.45
695.54	381.37
695.88	379.37
696.21	377.46
696.55	375.55
696.88	373.63
697.22	371.72
697.56	369.86
697.89	367.99
698.23	366.22
698.56	364.39
698.90	362.56
699.23	360.72
699.57	358.96
699.90	357.17
700.24	355.44
700.58	353.71
700.91	351.96
701.25	350.28
701.58	348.69
701.92	347.19
702.25	345.64
702.59	344.10
702.92	342.61
703.26	341.14
703.59	339.69
703.93	338.29
704.26	336.91
704.60	335.44
704.93	333.98
705.26	332.56
705.60	331.17
705.93	329.84
706.27	328.65
706.60	327.47
706.94	326.30
707.27	325.03
707.61	323.79
707.94	322.64
708.27	321.44
708.61	320.24
708.94	319.06
709.28	317.92
709.61	316.83
709.94	315.71
710.28	314.52
710.61	313.37
710.95	312.19
711.28	311.16
711.61	310.08
711.95	309.02
712.28	307.92
712.61	306.81
712.95	305.74
713.28	304.71
713.61	303.66
713.95	302.65
714.28	301.68
714.61	300.71
714.95	299.73
715.28	298.75
715.61	297.73
715.95	296.76
716.28	295.82
716.61	294.84
716.95	293.91
717.28	293.06
717.61	292.21
717.94	291.39
718.28	290.43
718.61	289.59
718.94	288.83
719.27	288.07
719.61	287.38
719.94	286.66
720.27	285.85
720.60	285.10
720.94	284.41
721.27	283.72
721.60	283.09
721.93	282.46
722.27	281.84
722.60	281.23
722.93	280.58
723.26	279.95
723.59	279.30
723.93	278.70
724.26	278.09
724.59	277.46
724.92	276.88
725.25	276.35
725.59	275.79
725.92	275.19
726.25	274.65
726.58	274.10
726.91	273.53
727.24	273.04
727.57	272.52
727.91	271.92
728.24	271.41
728.57	270.85
728.90	270.35
729.23	269.81
729.56	269.32
729.89	268.81
730.22	268.25
730.55	267.76
730.89	267.24
731.22	266.73
731.55	266.26
731.88	265.74
732.21	265.22
732.54	264.71
732.87	264.22
733.20	263.74
733.53	263.27
733.86	262.83
734.19	262.35
734.52	261.90
734.85	261.51
735.18	261.03
735.51	260.60
735.84	260.13
736.17	259.71
736.50	259.28
736.83	258.95
737.16	258.60
737.49	258.20
737.82	257.82
738.15	257.44
738.48	257.01
738.81	256.66
739.14	256.28
739.47	255.94
739.80	255.64
740.13	255.26
740.46	254.90
740.79	254.55
741.12	254.19
741.45	253.83
741.78	253.43
742.11	253.07
742.44	252.72
742.77	252.39
743.10	252.05
743.43	251.69
743.75	251.29
744.08	251.10
744.41	250.81
744.74	250.51
745.07	250.17
745.40	249.92
745.73	249.61
746.06	249.29
746.39	249.01
746.71	248.69
747.04	248.41
747.37	248.09
747.70	247.78
748.03	247.54
748.36	247.27
748.68	247.02
749.01	246.75
749.34	246.49
749.67	246.21
750.00	245.92
750.33	245.73
750.65	245.49
750.98	245.10
751.31	244.81
751.64	244.55
751.97	244.37
752.29	244.10
752.62	243.86
752.95	243.65
753.28	243.39
753.60	243.13
753.93	242.92
754.26	242.69
754.59	242.44
754.91	242.16
755.24	241.91
755.57	241.67
755.90	241.47
756.22	241.22
756.55	240.99
756.88	240.79
757.20	240.53
757.53	240.31
757.86	240.09
758.19	239.90
758.51	239.72
758.84	239.46
759.17	239.24
759.49	239.05
759.82	238.89
760.15	238.72
760.47	238.53
760.80	238.30
761.13	238.13
761.45	237.99
761.78	237.83
762.11	237.69
762.43	237.55
762.76	237.38
763.08	237.26
763.41	237.12
763.74	236.99
764.06	236.82
764.39	236.66
764.71	236.54
765.04	236.36
765.37	236.20
765.69	236.05
766.02	235.91
766.34	235.74
766.67	235.55
767.00	235.42
767.32	235.36
767.65	235.30
767.97	235.16
768.30	235.04
768.62	234.90
768.95	234.77
769.27	234.60
769.60	234.47
769.92	234.31
770.25	234.16
770.57	234.02
770.90	233.90
771.22	233.79
771.55	233.67
771.87	233.59
772.20	233.48
772.52	233.48
772.85	233.51
773.17	233.38
773.50	233.29
773.82	233.17
774.15	232.99
774.47	232.81
774.80	232.68
775.12	232.55
775.45	232.44
775.77	232.33
776.09	232.25
776.42	232.19
776.74	232.14
777.07	232.06
777.39	231.97
777.72	231.90
778.04	231.79
778.36	231.70
778.69	231.65
779.01	231.58
779.33	231.39
779.66	231.21
779.98	231.14
780.31	231.08
780.63	231.04
780.95	231.02
781.28	230.96
781.60	230.93
781.92	230.86
782.25	230.83
782.57	230.75
782.89	230.67
783.22	230.58
783.54	230.49
783.86	230.42
784.19	230.34
784.51	230.27
784.83	230.24
785.16	230.17
785.48	230.08
785.80	230.03
786.12	230.00
786.45	229.97
786.77	229.95
787.09	229.87
787.42	229.80
787.74	229.73
788.06	229.68
788.38	229.59
788.71	229.55
789.03	229.46
789.35	229.44
789.67	229.40
789.99	229.40
790.32	229.36
790.64	229.33
790.96	229.41
791.28	229.34
791.61	229.27
791.93	229.25
792.25	229.21
792.57	229.23
792.89	229.17
793.21	229.10
793.54	229.06
793.86	229.01
794.18	228.98
794.50	228.95
794.82	228.95
795.14	228.94
795.47	228.94
795.79	228.93
796.11	228.89
796.43	228.86
796.75	228.81
797.07	228.78
797.39	228.74
797.71	228.60
798.04	228.56
798.36	228.54
798.68	228.51
799.00	228.47
799.32	228.35
799.64	228.34
799.96	228.31
800.28	228.27
800.60	228.22
800.92	228.16
801.24	228.11
801.56	228.07
801.89	228.04
802.21	228.02
802.53	227.96
802.85	227.91
803.17	227.91
803.49	227.84
803.81	227.79
804.13	227.78
804.45	227.74
804.77	227.70
805.09	227.66
805.41	227.60
805.73	227.56
806.05	227.51
806.37	227.47
806.69	227.44
807.01	227.40
807.33	227.41
807.65	227.38
807.97	227.39
808.28	227.38
808.60	227.33
808.92	227.25
809.24	227.28
809.56	227.27
809.88	227.23
810.20	227.18
810.52	227.17
810.84	227.12
811.16	227.07
811.48	227.07
811.80	227.07
812.12	227.07
812.43	227.06
812.75	227.06
813.07	227.01
813.39	227.01
813.71	226.99
814.03	226.95
814.35	226.92
814.67	226.84
814.98	226.75
815.30	226.70
815.62	226.64
815.94	226.55
816.26	226.56
816.58	226.49
816.89	226.52
817.21	226.48
817.53	226.49
817.85	226.47
818.17	226.41
818.48	226.39
818.80	226.39
819.12	226.36
819.44	226.32
819.76	226.31
820.07	226.28
820.39	226.21
820.71	226.21
821.03	226.14
821.34	226.13
821.66	226.15
821.98	226.20
822.30	226.20
822.61	226.21
822.93	226.14
823.25	226.14
823.57	226.13
823.88	226.13
824.20	226.09
824.52	226.11
824.83	226.13
825.15	226.09
825.47	226.05
825.79	226.04
826.10	226.02
826.42	225.99
826.74	225.96
827.05	225.96
827.37	225.96
827.69	225.97
828.00	225.96
828.32	225.93
828.64	225.85
828.95	225.91
829.27	225.93
829.58	225.92
829.90	225.92
830.22	225.88
830.53	225.85
830.85	225.84
831.17	225.75
831.48	225.75
831.80	225.69
832.11	225.72
832.43	225.68
832.75	225.71
833.06	225.76
833.38	225.74
833.69	225.76
834.01	225.77
834.32	225.78
834.64	225.76
834.96	225.78
835.27	225.80
835.59	225.76
835.90	225.72
836.22	225.68
836.53	225.65
836.85	225.67
837.16	225.75
837.48	225.76
837.79	225.82
838.11	225.79
838.42	225.81
838.74	225.79
839.05	225.80
839.37	225.79
839.68	225.70
840.00	225.72
840.31	225.72
840.63	225.65
840.94	225.65
841.26	225.69
841.57	225.68
841.88	225.71
842.20	225.69
842.51	225.67
842.83	225.70
843.14	225.81
843.46	225.78
843.77	225.73
844.08	225.72
844.40	225.67
844.71	225.69
845.03	225.66
845.34	225.64
845.65	225.64
845.97	225.60
846.28	225.61
846.60	225.59
846.91	225.57
847.22	225.58
847.54	225.59
847.85	225.52
848.16	225.49
848.48	225.43
848.79	225.48
849.10	225.49
849.42	225.47
849.73	225.35
850.04	225.31
850.36	225.26
850.67	225.25
850.98	225.27
851.30	225.26
851.61	225.27
851.92	225.27
852.23	225.27
852.55	225.29
852.86	225.26
853.17	225.25
853.49	225.27
853.80	225.28
854.11	225.27
854.42	225.31
854.74	225.31
855.05	225.30
855.36	225.22
855.67	225.20
855.99	225.19
856.30	225.32
856.61	225.33
856.92	225.33
857.23	225.31
857.55	225.28
857.86	225.25
858.17	225.26
858.48	225.21
858.79	225.20
859.11	225.20
859.42	225.22
859.73	225.20
860.04	225.16
860.35	225.14
860.66	225.10
860.98	225.08
861.29	225.07
861.60	225.08
861.91	225.11
862.22	225.10
862.53	225.09
862.84	224.96
863.16	225.00
863.47	224.99
863.78	225.00
864.09	225.05
864.40	225.04
864.71	225.05
865.02	225.06
865.33	225.05
865.64	225.02
865.95	225.02
866.27	225.11
866.58	225.11
866.89	225.12
867.20	225.12
867.51	225.12
867.82	225.11
868.13	225.16
868.44	225.12
868.75	225.16
869.06	225.17
869.37	225.19
869.68	225.15
869.99	225.16
870.30	225.18
870.61	225.16
870.92	225.16
871.23	225.12
871.54	225.14
871.85	225.19
872.16	225.20
872.47	225.18
872.78	225.10
873.09	225.09
873.40	225.07
873.71	225.10
874.02	225.14
874.33	225.12
874.64	225.08
874.95	225.13
875.26	225.11
875.56	225.11
875.87	225.08
876.18	225.07
876.49	225.19
876.80	225.19
877.11	225.17
877.42	225.18
877.73	225.20
878.04	225.19
878.35	225.17
878.66	225.22
878.96	225.23
879.27	225.25
879.58	225.28
879.89	225.28
880.20	225.33
880.51	225.29
880.82	225.31
881.12	225.29
881.43	225.23
881.74	225.21
882.05	225.23
882.36	225.25
882.67	225.29
882.97	225.20
883.28	225.18
883.59	225.14
883.90	225.15
884.21	225.20
884.51	225.17
884.82	225.16
885.13	225.13
885.44	225.13
885.74	225.14
886.05	225.12
886.36	225.15
886.67	225.06
886.98	225.10
887.28	225.12
887.59	225.15
887.90	225.17
888.20	225.18
888.51	225.16
888.82	225.16
889.13	225.13
889.43	225.20
889.74	225.18
890.05	225.22
890.35	225.21
890.66	225.16
890.97	225.18
891.28	225.16
891.58	225.15
891.89	225.13
892.20	225.09
892.50	225.09
892.81	225.09
893.12	225.11
893.42	225.07
893.73	225.09
894.04	225.08
894.34	225.07
894.65	225.08
894.95	225.08
895.26	225.08
895.57	225.13
895.87	225.01
896.18	225.03
896.48	225.04
896.79	225.01
897.10	225.01
897.40	225.02
897.71	225.01
898.01	225.01
898.32	225.04
898.63	225.04
898.93	225.02
899.24	225.00
899.54	224.99
899.85	224.96
900.15	224.94
900.46	224.90
900.76	224.89
901.07	224.86
901.38	224.86
901.68	224.87
901.99	224.80
902.29	224.82
902.60	224.82
902.90	224.80
903.21	224.81
903.51	224.81
903.82	224.80
904.12	224.82
904.43	224.82
904.73	224.79
905.03	224.77
905.34	224.90
905.64	224.91
905.95	224.91
906.25	224.93
906.56	224.91
906.86	224.94
907.17	224.94
907.47	224.95
907.77	224.92
908.08	224.89
908.38	224.91
908.69	224.89
908.99	224.91
909.30	224.92
909.60	224.94
909.90	224.95
910.21	224.91
910.51	224.89
910.81	224.88
911.12	224.89
911.42	224.90
911.73	224.76
912.03	224.75
912.33	224.75
912.64	224.75
912.94	224.75
913.24	224.73
913.55	224.72
913.85	224.72
914.15	224.76
914.46	224.78
914.76	224.79
915.06	224.81
915.37	224.74
915.67	224.74
915.97	224.75
916.27	224.75
916.58	224.77
916.88	224.75
917.18	224.75
917.49	224.88
917.79	224.86
918.09	224.90
918.39	224.93
918.70	224.92
919.00	224.89
919.30	224.93
919.60	224.96
919.91	224.97
920.21	224.95
920.51	224.91
920.81	224.88
921.12	224.90
921.42	224.89
921.72	224.91
922.02	224.90
922.32	224.86
922.63	224.82
922.93	224.84
923.23	224.81
923.53	224.78
923.83	224.66
924.13	224.68
924.44	224.64
924.74	224.65
925.04	224.67
925.34	224.67
925.64	224.62
925.94	224.60
926.24	224.65
926.55	224.64
926.85	224.68
927.15	224.68
927.45	224.64
927.75	224.60
928.05	224.63
928.35	224.62
928.65	224.63
928.95	224.66
929.26	224.64
929.56	224.68
929.86	224.73
930.16	224.71
930.46	224.70
930.76	224.73
931.06	224.67
931.36	224.61
931.66	224.63
931.96	224.62
932.26	224.61
932.56	224.55
932.86	224.57
933.16	224.54
933.46	224.52
933.76	224.52
934.06	224.56
934.36	224.55
934.66	224.54
934.96	224.53
935.26	224.51
935.56	224.51
935.86	224.46
936.16	224.42
936.46	224.39
936.76	224.39
937.06	224.35
937.36	224.33
937.66	224.37
937.96	224.34
938.26	224.32
938.56	224.32
938.86	224.31
939.16	224.31
939.46	224.32
939.76	224.30
940.06	224.29
940.35	224.28
940.65	224.23
940.95	224.26
941.25	224.26
941.55	224.25
941.85	224.25
942.15	224.30
942.45	224.34
942.75	224.36
943.04	224.35
943.34	224.37
943.64	224.36
943.94	224.32
944.24	224.32
944.54	224.33
944.84	224.33
945.13	224.31
945.43	224.31
945.73	224.32
946.03	224.32
946.33	224.29
946.62	224.29
946.92	224.32
947.22	224.31
947.52	224.33
947.82	224.32
948.11	224.34
948.41	224.32
948.71	224.30
949.01	224.30
949.31	224.30
949.60	224.31
949.90	224.32
950.20	224.35
950.50	224.34
950.79	224.34
951.09	224.39
951.39	224.40
951.69	224.39
951.98	224.40
952.28	224.42
952.58	224.44
952.87	224.41
953.17	224.38
953.47	224.36
953.76	224.34
954.06	224.37
954.36	224.34
954.66	224.33
954.95	224.35
955.25	224.36
955.55	224.33
955.84	224.32
956.14	224.34
956.44	224.35
956.73	224.35
957.03	224.37
957.32	224.35
957.62	224.36
957.92	224.37
958.21	224.35
958.51	224.47
958.81	224.48
959.10	224.52
959.40	224.53
959.69	224.55
959.99	224.58
960.29	224.58
960.58	224.58
960.88	224.61
961.17	224.58
961.47	224.62
961.76	224.63
962.06	224.61
962.36	224.62
962.65	224.61
962.95	224.64
963.24	224.64
963.54	224.65
963.83	224.62
964.13	224.62
964.42	224.63
964.72	224.53
965.01	224.56
965.31	224.52
965.60	224.52
965.90	224.56
966.19	224.53
966.49	224.55
966.78	224.57
967.08	224.57
967.37	224.58
967.67	224.56
967.96	224.55
968.26	224.58
968.55	224.60
968.85	224.60
969.14	224.59
969.43	224.57
969.73	224.52
970.02	224.54
970.32	224.55
970.61	224.55
970.91	224.53
971.20	224.49
971.49	224.48
971.79	224.49
972.08	224.45
972.38	224.48
972.67	224.42
972.96	224.38
973.26	224.35
973.55	224.36
973.85	224.33
974.14	224.36
974.43	224.35
974.73	224.30
975.02	224.30
975.31	224.31
975.61	224.31
975.90	224.32
976.19	224.34
976.49	224.34
976.78	224.33
977.07	224.33
977.37	224.36
977.66	224.39
977.95	224.41
978.24	224.38
978.54	224.39
978.83	224.41
979.12	224.41
979.42	224.44
979.71	224.44
980.00	224.45
980.29	224.45
980.59	224.47
980.88	224.52
981.17	224.49
981.46	224.48
981.76	224.48
982.05	224.52
982.34	224.52
982.63	224.53
982.93	224.51
983.22	224.54
983.51	224.54
983.80	224.55
984.09	224.53
984.39	224.55
984.68	224.52
984.97	224.53
985.26	224.54
985.55	224.53
985.85	224.52
986.14	224.55
986.43	224.57
986.72	224.55
987.01	224.50
987.30	224.50
987.59	224.49
987.89	224.48
988.18	224.42
988.47	224.40
988.76	224.40
989.05	224.39
989.34	224.37
989.63	224.38
989.92	224.39
990.22	224.39
990.51	224.40
990.80	224.42
991.09	224.43
991.38	224.44
991.67	224.42
991.96	224.41
992.25	224.42
992.54	224.39
992.83	224.40
993.12	224.40
993.41	224.42
993.70	224.48
993.99	224.51
994.28	224.56
994.58	224.60
994.87	224.57
995.16	224.58
995.45	224.57
995.74	224.54
996.03	224.52
996.32	224.55
996.61	224.57
996.90	224.57
997.19	224.57
997.48	224.57
997.77	224.58
998.06	224.59
998.34	224.55
998.63	224.53
998.92	224.53
999.21	224.54
999.50	224.54
999.79	224.48
1000.08	224.49
1000.37	224.48
1000.66	224.47
1000.95	224.49
1001.24	224.49
1001.53	224.52
1001.82	224.52
1002.11	224.50
1002.40	224.49
1002.68	224.51
1002.97	224.55
1003.26	224.53
1003.55	224.51
1003.84	224.52
1004.13	224.52
1004.42	224.49
1004.71	224.49
1004.99	224.46
1005.28	224.51
1005.57	224.49
1005.86	224.49
1006.15	224.47
1006.44	224.45
1006.72	224.45
1007.01	224.44
1007.30	224.46
1007.59	224.43
1007.88	224.41
1008.17	224.42
1008.45	224.42
1008.74	224.38
1009.03	224.36
1009.32	224.36
1009.60	224.36
1009.89	224.34
1010.18	224.34
1010.47	224.36
1010.76	224.39
1011.04	224.41
1011.33	224.41
1011.62	224.43
1011.91	224.45
1012.19	224.47
1012.48	224.52
1012.77	224.51
1013.05	224.57
1013.34	224.55
1013.63	224.53
1013.92	224.54
1014.20	224.53
1014.49	224.52
1014.78	224.51
1015.06	224.48
1015.35	224.48
1015.64	224.51
1015.92	224.53
1016.21	224.49
1016.50	224.51
1016.78	224.53
1017.07	224.52
1017.36	224.49
1017.64	224.48
1017.93	224.48
1018.22	224.45
1018.50	224.43
1018.79	224.41
1019.08	224.35
1019.36	224.36
1019.65	224.38
1019.93	224.44
1020.22	224.47
1020.51	224.51
1020.79	224.52
1021.08	224.32
1021.36	224.77
1021.65	224.16
1021.94	224.19
1022.22	224.91
1022.51	223.99
1022.79	225.23
1023.08	224.66
1023.36	225.35
1023.65	224.59
>>>>>End Processed Spectral Data<<<<<
