SpectraSuite Data File
++++++++++++++++++++++++++++++++++++
Date: Fri Feb 01 16:05:40 EST 2013
User: group
Dark Spectrum Present: No
Reference Spectrum Present: No
Number of Sampled Component Spectra: 1
Spectrometers: USB2E7196
Integration Time (usec): 35000 (USB2E7196)
Spectra Averaged: 100 (USB2E7196)
Boxcar Smoothing: 10 (USB2E7196)
Correct for Electrical Dark: No (USB2E7196)
Strobe/Lamp Enabled: No (USB2E7196)
Correct for Detector Non-linearity: No (USB2E7196)
Correct for Stray Light: No (USB2E7196)
Number of Pixels in Processed Spectrum: 2048
>>>>>Begin Processed Spectral Data<<<<<
339.09	0.00
339.48	214.52
339.86	216.47
340.24	217.66
340.63	218.84
341.01	221.92
341.39	221.73
341.78	222.72
342.16	224.51
342.54	224.37
342.93	212.90
343.31	223.64
343.69	224.15
344.07	224.59
344.46	225.00
344.84	225.37
345.22	225.59
345.60	225.83
345.99	226.02
346.37	226.12
346.75	226.22
347.13	226.32
347.52	226.41
347.90	226.44
348.28	226.51
348.66	226.53
349.05	226.55
349.43	226.61
349.81	226.65
350.19	226.68
350.57	226.73
350.96	226.83
351.34	226.92
351.72	227.03
352.10	227.12
352.48	227.19
352.87	227.25
353.25	227.30
353.63	227.35
354.01	227.44
354.39	227.52
354.77	227.62
355.15	227.69
355.54	227.74
355.92	227.80
356.30	227.85
356.68	228.03
357.06	228.09
357.44	228.14
357.82	228.18
358.20	228.28
358.58	228.34
358.97	228.35
359.35	228.41
359.73	228.49
360.11	228.52
360.49	228.57
360.87	228.63
361.25	228.73
361.63	228.83
362.01	228.82
362.39	228.83
362.77	228.86
363.15	228.87
363.53	228.91
363.91	228.95
364.29	228.99
364.67	228.91
365.05	228.93
365.43	228.96
365.81	229.00
366.19	229.04
366.57	229.09
366.95	229.12
367.33	229.13
367.71	229.12
368.09	229.16
368.47	229.13
368.85	229.11
369.23	229.05
369.61	228.98
369.99	229.04
370.37	229.04
370.75	229.04
371.13	229.02
371.51	228.95
371.89	228.92
372.27	228.88
372.65	228.85
373.03	228.79
373.41	228.71
373.78	228.64
374.16	228.55
374.54	228.47
374.92	228.39
375.30	228.35
375.68	228.26
376.06	228.20
376.44	228.15
376.82	228.07
377.19	228.04
377.57	227.94
377.95	227.84
378.33	227.77
378.71	227.66
379.09	227.56
379.47	227.51
379.84	227.41
380.22	227.33
380.60	227.24
380.98	227.18
381.36	227.11
381.73	227.04
382.11	227.00
382.49	226.91
382.87	226.85
383.25	226.78
383.62	226.82
384.00	226.74
384.38	226.68
384.76	226.65
385.13	226.62
385.51	226.60
385.89	226.53
386.27	226.51
386.64	226.46
387.02	226.41
387.40	226.36
387.78	226.30
388.15	226.26
388.53	226.25
388.91	226.22
389.29	226.19
389.66	226.19
390.04	226.11
390.42	226.15
390.79	226.12
391.17	226.08
391.55	226.00
391.92	225.97
392.30	225.99
392.68	225.97
393.05	225.99
393.43	226.01
393.81	226.01
394.18	225.96
394.56	225.98
394.94	226.04
395.31	226.10
395.69	226.17
396.06	226.17
396.44	226.21
396.82	226.23
397.19	226.31
397.57	226.33
397.95	226.41
398.32	226.39
398.70	226.47
399.07	226.56
399.45	226.61
399.82	226.69
400.20	226.73
400.58	226.78
400.95	226.80
401.33	226.86
401.70	227.02
402.08	227.14
402.45	227.24
402.83	227.34
403.20	227.41
403.58	227.52
403.95	227.70
404.33	227.80
404.71	227.92
405.08	228.09
405.46	228.22
405.83	228.38
406.21	228.55
406.58	228.71
406.96	228.86
407.33	229.04
407.70	229.25
408.08	229.50
408.45	229.71
408.83	229.95
409.20	230.19
409.58	230.35
409.95	230.63
410.33	230.91
410.70	231.14
411.08	231.46
411.45	231.79
411.82	232.06
412.20	232.39
412.57	232.81
412.95	233.12
413.32	233.54
413.69	233.93
414.07	234.35
414.44	234.81
414.82	235.30
415.19	235.85
415.56	236.39
415.94	236.94
416.31	237.57
416.68	238.19
417.06	238.93
417.43	239.64
417.81	240.38
418.18	241.17
418.55	242.02
418.93	242.88
419.30	243.77
419.67	244.73
420.04	245.71
420.42	246.73
420.79	247.93
421.16	249.10
421.54	250.30
421.91	251.52
422.28	252.77
422.66	254.08
423.03	255.34
423.40	256.70
423.77	258.12
424.15	259.56
424.52	261.08
424.89	262.65
425.26	264.17
425.64	265.61
426.01	267.20
426.38	268.83
426.75	270.53
427.13	272.23
427.50	274.03
427.87	275.92
428.24	277.76
428.61	279.50
428.99	281.44
429.36	283.52
429.73	285.60
430.10	287.65
430.47	289.73
430.85	291.90
431.22	294.13
431.59	296.53
431.96	298.76
432.33	301.20
432.70	303.59
433.08	306.44
433.45	309.13
433.82	311.76
434.19	314.71
434.56	317.51
434.93	320.15
435.30	322.79
435.68	325.65
436.05	328.49
436.42	331.27
436.79	333.77
437.16	336.50
437.53	339.33
437.90	342.13
438.27	344.88
438.64	347.70
439.01	350.28
439.38	352.44
439.75	354.63
440.13	357.08
440.50	359.38
440.87	361.21
441.24	363.11
441.61	365.21
441.98	366.69
442.35	368.46
442.72	370.33
443.09	372.12
443.46	373.16
443.83	373.71
444.20	374.19
444.57	375.00
444.94	375.26
445.31	375.60
445.68	375.94
446.05	375.97
446.42	375.57
446.79	375.14
447.16	374.73
447.53	374.40
447.90	373.26
448.27	372.11
448.64	370.55
449.01	369.38
449.37	367.44
449.74	365.49
450.11	363.28
450.48	360.80
450.85	358.25
451.22	356.09
451.59	354.10
451.96	352.19
452.33	349.59
452.70	347.22
453.07	344.41
453.43	341.51
453.80	338.76
454.17	336.10
454.54	333.56
454.91	330.86
455.28	328.17
455.65	325.71
456.02	323.27
456.38	321.07
456.75	318.43
457.12	316.17
457.49	313.99
457.86	311.83
458.23	310.00
458.59	307.96
458.96	305.84
459.33	303.94
459.70	302.09
460.07	300.61
460.43	298.89
460.80	297.25
461.17	295.83
461.54	294.35
461.91	292.91
462.27	291.47
462.64	290.22
463.01	288.88
463.38	287.62
463.74	286.27
464.11	285.15
464.48	284.12
464.85	283.01
465.21	282.15
465.58	281.18
465.95	280.04
466.32	279.16
466.68	278.28
467.05	277.41
467.42	276.54
467.78	275.58
468.15	274.70
468.52	274.04
468.88	273.14
469.25	272.33
469.62	271.72
469.98	271.06
470.35	270.47
470.72	269.87
471.08	269.19
471.45	268.70
471.82	268.16
472.18	267.62
472.55	267.19
472.92	266.69
473.28	266.22
473.65	265.85
474.02	265.43
474.38	265.08
474.75	264.78
475.11	264.43
475.48	264.19
475.85	264.01
476.21	263.81
476.58	263.65
476.94	263.55
477.31	263.38
477.67	263.23
478.04	263.11
478.41	263.07
478.77	263.10
479.14	263.01
479.50	263.02
479.87	263.09
480.23	263.16
480.60	263.24
480.96	263.38
481.33	263.59
481.69	263.79
482.06	264.01
482.42	264.23
482.79	264.49
483.15	264.80
483.52	265.19
483.88	265.52
484.25	265.92
484.61	266.34
484.98	266.81
485.34	267.38
485.71	267.95
486.07	268.58
486.44	269.15
486.80	269.88
487.17	270.64
487.53	271.40
487.90	272.26
488.26	273.20
488.62	274.20
488.99	275.13
489.35	276.19
489.72	277.31
490.08	278.47
490.44	279.66
490.81	280.99
491.17	282.34
491.54	283.83
491.90	285.39
492.26	287.04
492.63	288.81
492.99	290.55
493.36	292.43
493.72	294.41
494.08	296.51
494.45	298.75
494.81	301.08
495.17	303.53
495.54	306.09
495.90	308.76
496.26	311.55
496.63	314.51
496.99	317.58
497.35	320.81
497.72	324.25
498.08	327.78
498.44	331.49
498.80	335.40
499.17	339.47
499.53	343.62
499.89	347.99
500.26	352.48
500.62	357.19
500.98	362.19
501.34	367.33
501.71	372.69
502.07	378.09
502.43	383.69
502.79	389.52
503.16	395.61
503.52	401.87
503.88	408.26
504.24	414.96
504.60	421.90
504.97	429.03
505.33	436.34
505.69	444.06
506.05	451.79
506.41	459.68
506.78	467.79
507.14	476.25
507.50	484.98
507.86	493.97
508.22	503.14
508.59	512.37
508.95	521.91
509.31	531.71
509.67	541.84
510.03	552.18
510.39	562.74
510.75	573.54
511.12	584.44
511.48	595.72
511.84	607.13
512.20	618.58
512.56	630.53
512.92	642.75
513.28	655.16
513.64	667.67
514.00	680.31
514.37	693.29
514.73	706.36
515.09	719.33
515.45	732.70
515.81	746.30
516.17	760.24
516.53	774.38
516.89	788.60
517.25	802.85
517.61	817.27
517.97	831.77
518.33	846.19
518.69	860.95
519.05	875.95
519.41	891.17
519.77	906.80
520.13	922.20
520.49	937.53
520.85	952.84
521.21	968.56
521.57	984.80
521.93	1000.55
522.29	1016.85
522.65	1033.04
523.01	1049.10
523.37	1065.23
523.73	1081.39
524.09	1097.50
524.45	1113.77
524.81	1130.39
525.17	1147.10
525.53	1163.95
525.89	1180.88
526.25	1197.73
526.61	1214.21
526.97	1230.90
527.33	1247.28
527.68	1263.91
528.04	1280.44
528.40	1296.98
528.76	1314.10
529.12	1330.74
529.48	1347.55
529.84	1363.68
530.20	1380.34
530.56	1397.42
530.91	1414.65
531.27	1431.39
531.63	1447.79
531.99	1464.44
532.35	1480.27
532.71	1496.14
533.07	1512.44
533.42	1528.15
533.78	1544.25
534.14	1560.29
534.50	1575.56
534.86	1591.42
535.21	1606.54
535.57	1622.36
535.93	1637.78
536.29	1652.45
536.65	1667.26
537.00	1682.03
537.36	1697.25
537.72	1711.78
538.08	1726.21
538.44	1739.95
538.79	1753.83
539.15	1767.42
539.51	1781.05
539.87	1795.44
540.22	1809.09
540.58	1822.70
540.94	1835.99
541.29	1848.65
541.65	1861.40
542.01	1874.61
542.37	1886.83
542.72	1899.15
543.08	1910.74
543.44	1923.07
543.79	1934.28
544.15	1945.37
544.51	1956.83
544.87	1967.66
545.22	1978.47
545.58	1988.51
545.94	1998.28
546.29	2008.13
546.65	2018.07
547.01	2027.25
547.36	2035.91
547.72	2044.34
548.07	2052.21
548.43	2060.34
548.79	2068.36
549.14	2075.85
549.50	2083.05
549.86	2090.74
550.21	2098.07
550.57	2105.39
550.92	2111.99
551.28	2118.98
551.64	2126.07
551.99	2132.52
552.35	2138.62
552.70	2144.60
553.06	2150.56
553.41	2156.74
553.77	2162.66
554.13	2168.67
554.48	2174.72
554.84	2180.21
555.19	2185.53
555.55	2190.69
555.90	2195.26
556.26	2200.32
556.61	2205.02
556.97	2209.39
557.32	2213.44
557.68	2217.39
558.03	2221.53
558.39	2225.25
558.74	2229.79
559.10	2233.66
559.45	2237.43
559.81	2241.88
560.16	2245.77
560.52	2249.11
560.87	2252.69
561.23	2255.26
561.58	2258.11
561.94	2260.65
562.29	2262.94
562.64	2265.69
563.00	2268.24
563.35	2271.73
563.71	2274.64
564.06	2277.78
564.42	2280.64
564.77	2283.31
565.12	2285.80
565.48	2287.90
565.83	2289.85
566.19	2291.42
566.54	2292.30
566.89	2293.58
567.25	2294.20
567.60	2295.44
567.96	2297.12
568.31	2297.89
568.66	2299.11
569.02	2299.87
569.37	2300.33
569.72	2301.37
570.08	2301.50
570.43	2301.48
570.78	2300.72
571.14	2299.18
571.49	2297.89
571.84	2297.68
572.20	2296.57
572.55	2295.51
572.90	2293.86
573.26	2292.45
573.61	2290.63
573.96	2288.88
574.31	2285.82
574.67	2282.85
575.02	2279.48
575.37	2276.00
575.72	2272.46
576.08	2269.21
576.43	2265.85
576.78	2262.13
577.13	2258.74
577.49	2255.61
577.84	2252.24
578.19	2248.65
578.54	2245.25
578.90	2241.10
579.25	2235.45
579.60	2230.48
579.95	2225.48
580.30	2220.51
580.66	2215.31
581.01	2210.33
581.36	2205.53
581.71	2201.38
582.06	2196.86
582.42	2192.30
582.77	2187.10
583.12	2182.38
583.47	2177.75
583.82	2172.69
584.17	2167.47
584.53	2162.07
584.88	2156.48
585.23	2150.68
585.58	2145.22
585.93	2139.70
586.28	2134.98
586.63	2129.93
586.98	2124.95
587.34	2120.23
587.69	2115.38
588.04	2110.19
588.39	2104.59
588.74	2098.08
589.09	2091.93
589.44	2085.22
589.79	2079.17
590.14	2073.51
590.49	2066.93
590.84	2060.33
591.19	2054.38
591.54	2047.91
591.89	2040.60
592.25	2033.88
592.60	2026.71
592.95	2019.19
593.30	2011.87
593.65	2004.11
594.00	1997.17
594.35	1989.76
594.70	1981.66
595.05	1974.41
595.40	1967.15
595.75	1959.69
596.10	1953.54
596.45	1946.83
596.80	1940.60
597.15	1933.97
597.50	1927.12
597.85	1920.66
598.19	1914.15
598.54	1907.09
598.89	1900.42
599.24	1894.44
599.59	1887.75
599.94	1881.55
600.29	1875.18
600.64	1868.57
600.99	1861.27
601.34	1854.41
601.69	1847.55
602.04	1840.82
602.39	1833.58
602.74	1826.76
603.08	1819.93
603.43	1813.26
603.78	1805.92
604.13	1798.82
604.48	1791.57
604.83	1784.63
605.18	1777.83
605.53	1769.83
605.87	1761.69
606.22	1754.39
606.57	1746.48
606.92	1739.21
607.27	1732.06
607.62	1725.24
607.96	1717.98
608.31	1711.49
608.66	1703.87
609.01	1696.39
609.36	1688.93
609.70	1680.92
610.05	1672.95
610.40	1665.35
610.75	1656.93
611.10	1649.31
611.44	1640.80
611.79	1632.87
612.14	1624.12
612.49	1614.84
612.83	1606.48
613.18	1598.53
613.53	1590.53
613.88	1581.98
614.22	1573.69
614.57	1565.08
614.92	1557.03
615.27	1549.45
615.61	1540.98
615.96	1532.99
616.31	1525.23
616.65	1517.79
617.00	1510.15
617.35	1502.28
617.70	1494.01
618.04	1485.39
618.39	1477.10
618.74	1469.58
619.08	1461.27
619.43	1453.74
619.78	1446.74
620.12	1439.63
620.47	1431.96
620.82	1423.84
621.16	1416.36
621.51	1408.69
621.85	1401.06
622.20	1392.49
622.55	1384.14
622.89	1376.30
623.24	1368.65
623.59	1361.36
623.93	1353.70
624.28	1346.60
624.62	1339.14
624.97	1331.94
625.32	1325.25
625.66	1318.11
626.01	1310.90
626.35	1303.38
626.70	1295.66
627.04	1288.16
627.39	1280.21
627.73	1272.90
628.08	1266.03
628.43	1258.80
628.77	1251.47
629.12	1243.88
629.46	1236.73
629.81	1229.35
630.15	1222.17
630.50	1214.78
630.84	1206.51
631.19	1198.69
631.53	1191.13
631.88	1183.51
632.22	1175.86
632.57	1168.60
632.91	1161.20
633.26	1153.70
633.60	1146.37
633.95	1139.16
634.29	1131.96
634.64	1125.33
634.98	1117.82
635.32	1110.58
635.67	1104.00
636.01	1097.34
636.36	1090.51
636.70	1083.98
637.05	1077.42
637.39	1070.92
637.73	1064.35
638.08	1058.37
638.42	1052.29
638.77	1045.79
639.11	1039.37
639.45	1032.97
639.80	1026.23
640.14	1019.67
640.49	1013.21
640.83	1006.89
641.17	1000.78
641.52	994.46
641.86	987.98
642.20	982.17
642.55	975.77
642.89	969.32
643.23	962.77
643.58	957.07
643.92	950.90
644.26	944.82
644.61	938.76
644.95	932.74
645.29	926.23
645.64	919.53
645.98	913.22
646.32	907.33
646.66	901.31
647.01	895.54
647.35	889.99
647.69	884.13
648.04	878.53
648.38	872.71
648.72	866.72
649.06	860.73
649.41	854.90
649.75	849.02
650.09	842.96
650.43	837.22
650.78	830.95
651.12	824.94
651.46	819.17
651.80	813.46
652.14	808.13
652.49	802.72
652.83	797.55
653.17	791.89
653.51	786.14
653.85	780.64
654.20	775.00
654.54	768.96
654.88	763.25
655.22	757.37
655.56	751.61
655.90	746.14
656.25	740.85
656.59	735.45
656.93	730.36
657.27	725.29
657.61	719.78
657.95	714.72
658.29	709.64
658.64	704.38
658.98	699.09
659.32	693.57
659.66	688.50
660.00	683.19
660.34	678.17
660.68	673.23
661.02	668.23
661.36	663.49
661.70	659.02
662.05	654.67
662.39	650.38
662.73	645.89
663.07	641.54
663.41	637.11
663.75	632.60
664.09	628.01
664.43	623.58
664.77	619.54
665.11	615.33
665.45	611.24
665.79	607.25
666.13	603.07
666.47	598.95
666.81	594.69
667.15	590.54
667.49	586.69
667.83	582.85
668.17	578.93
668.51	574.85
668.85	570.81
669.19	566.88
669.53	563.04
669.87	559.21
670.21	555.48
670.55	551.81
670.89	548.35
671.23	544.99
671.57	541.49
671.91	537.92
672.25	534.37
672.58	530.77
672.92	527.28
673.26	524.08
673.60	520.92
673.94	517.77
674.28	514.82
674.62	511.79
674.96	508.70
675.30	505.82
675.64	502.87
675.97	500.09
676.31	497.26
676.65	494.27
676.99	491.56
677.33	488.68
677.67	485.84
678.01	482.88
678.34	479.86
678.68	476.95
679.02	474.17
679.36	471.35
679.70	468.72
680.04	465.99
680.37	463.14
680.71	460.37
681.05	457.79
681.39	455.10
681.73	452.47
682.06	449.93
682.40	447.33
682.74	444.79
683.08	442.21
683.42	439.58
683.75	437.12
684.09	434.57
684.43	432.06
684.77	429.61
685.10	427.22
685.44	424.92
685.78	422.60
686.12	420.23
686.45	418.03
686.79	415.69
687.13	413.50
687.46	411.32
687.80	409.19
688.14	406.98
688.48	404.95
688.81	402.67
689.15	400.53
689.49	398.40
689.82	396.36
690.16	394.24
690.50	392.31
690.83	390.37
691.17	388.39
691.51	386.52
691.84	384.69
692.18	382.76
692.52	380.80
692.85	378.90
693.19	377.09
693.52	375.25
693.86	373.43
694.20	371.67
694.53	369.90
694.87	368.02
695.21	366.20
695.54	364.37
695.88	362.68
696.21	361.01
696.55	359.37
696.88	357.67
697.22	356.07
697.56	354.46
697.89	352.85
698.23	351.22
698.56	349.67
698.90	348.11
699.23	346.50
699.57	344.92
699.90	343.39
700.24	341.86
700.58	340.34
700.91	338.86
701.25	337.38
701.58	336.02
701.92	334.67
702.25	333.32
702.59	331.96
702.92	330.66
703.26	329.35
703.59	328.03
703.93	326.85
704.26	325.60
704.60	324.30
704.93	322.99
705.26	321.81
705.60	320.56
705.93	319.38
706.27	318.31
706.60	317.24
706.94	316.18
707.27	315.05
707.61	313.95
707.94	312.91
708.27	311.82
708.61	310.71
708.94	309.65
709.28	308.65
709.61	307.67
709.94	306.71
710.28	305.65
710.61	304.67
710.95	303.58
711.28	302.66
711.61	301.71
711.95	300.80
712.28	299.78
712.61	298.82
712.95	297.88
713.28	297.00
713.61	296.11
713.95	295.20
714.28	294.32
714.61	293.47
714.95	292.64
715.28	291.78
715.61	290.89
715.95	290.09
716.28	289.20
716.61	288.36
716.95	287.51
717.28	286.78
717.61	286.00
717.94	285.28
718.28	284.48
718.61	283.74
718.94	283.06
719.27	282.45
719.61	281.82
719.94	281.16
720.27	280.43
720.60	279.74
720.94	279.09
721.27	278.51
721.60	277.92
721.93	277.35
722.27	276.79
722.60	276.21
722.93	275.60
723.26	275.10
723.59	274.57
723.93	274.04
724.26	273.47
724.59	272.92
724.92	272.39
725.25	271.90
725.59	271.37
725.92	270.85
726.25	270.32
726.58	269.83
726.91	269.34
727.24	268.89
727.57	268.43
727.91	267.92
728.24	267.45
728.57	266.96
728.90	266.50
729.23	266.04
729.56	265.63
729.89	265.21
730.22	264.75
730.55	264.27
730.89	263.85
731.22	263.43
731.55	263.02
731.88	262.60
732.21	262.17
732.54	261.78
732.87	261.34
733.20	260.93
733.53	260.55
733.86	260.16
734.19	259.80
734.52	259.42
734.85	259.15
735.18	258.75
735.51	258.41
735.84	258.03
736.17	257.69
736.50	257.30
736.83	257.10
737.16	256.76
737.49	256.48
737.82	256.10
738.15	255.79
738.48	255.43
738.81	255.10
739.14	254.80
739.47	254.47
739.80	254.19
740.13	253.90
740.46	253.56
740.79	253.23
741.12	252.91
741.45	252.62
741.78	252.26
742.11	251.99
742.44	251.65
742.77	251.36
743.10	251.04
743.43	250.74
743.75	250.33
744.08	250.13
744.41	249.81
744.74	249.54
745.07	249.25
745.40	249.00
745.73	248.79
746.06	248.50
746.39	248.20
746.71	247.89
747.04	247.63
747.37	247.33
747.70	247.09
748.03	246.83
748.36	246.58
748.68	246.34
749.01	246.04
749.34	245.82
749.67	245.58
750.00	245.35
750.33	245.15
750.65	244.95
750.98	244.62
751.31	244.43
751.64	244.24
751.97	244.05
752.29	243.82
752.62	243.51
752.95	243.27
753.28	243.10
753.60	242.92
753.93	242.71
754.26	242.52
754.59	242.28
754.91	242.05
755.24	241.84
755.57	241.63
755.90	241.48
756.22	241.26
756.55	241.05
756.88	240.85
757.20	240.63
757.53	240.42
757.86	240.23
758.19	240.06
758.51	239.86
758.84	239.67
759.17	239.51
759.49	239.39
759.82	239.30
760.15	239.13
760.47	238.97
760.80	238.81
761.13	238.68
761.45	238.52
761.78	238.38
762.11	238.24
762.43	238.10
762.76	237.94
763.08	237.81
763.41	237.68
763.74	237.57
764.06	237.43
764.39	237.29
764.71	237.20
765.04	237.03
765.37	236.89
765.69	236.76
766.02	236.63
766.34	236.50
766.67	236.32
767.00	236.21
767.32	236.15
767.65	236.06
767.97	235.97
768.30	235.86
768.62	235.77
768.95	235.65
769.27	235.55
769.60	235.46
769.92	235.35
770.25	235.24
770.57	235.08
770.90	234.97
771.22	234.91
771.55	234.83
771.87	234.75
772.20	234.63
772.52	234.62
772.85	234.68
773.17	234.58
773.50	234.50
773.82	234.40
774.15	234.29
774.47	234.20
774.80	234.10
775.12	234.02
775.45	233.93
775.77	233.84
776.09	233.76
776.42	233.66
776.74	233.64
777.07	233.57
777.39	233.53
777.72	233.44
778.04	233.34
778.36	233.23
778.69	233.12
779.01	233.11
779.33	232.95
779.66	232.75
779.98	232.69
780.31	232.65
780.63	232.66
780.95	232.55
781.28	232.46
781.60	232.39
781.92	232.32
782.25	232.24
782.57	232.16
782.89	232.13
783.22	232.09
783.54	231.97
783.86	231.94
784.19	231.89
784.51	231.88
784.83	231.83
785.16	231.77
785.48	231.77
785.80	231.73
786.12	231.68
786.45	231.60
786.77	231.55
787.09	231.48
787.42	231.39
787.74	231.37
788.06	231.33
788.38	231.30
788.71	231.25
789.03	231.20
789.35	231.20
789.67	231.16
789.99	231.11
790.32	231.05
790.64	230.99
790.96	231.02
791.28	230.96
791.61	230.91
791.93	230.88
792.25	230.83
792.57	230.82
792.89	230.74
793.21	230.74
793.54	230.71
793.86	230.65
794.18	230.57
794.50	230.51
794.82	230.47
795.14	230.41
795.47	230.42
795.79	230.39
796.11	230.34
796.43	230.25
796.75	230.21
797.07	230.22
797.39	230.19
797.71	230.05
798.04	230.01
798.36	229.94
798.68	229.91
799.00	229.87
799.32	229.78
799.64	229.77
799.96	229.75
800.28	229.71
800.60	229.66
800.92	229.66
801.24	229.64
801.56	229.59
801.89	229.56
802.21	229.50
802.53	229.48
802.85	229.49
803.17	229.51
803.49	229.43
803.81	229.40
804.13	229.36
804.45	229.33
804.77	229.34
805.09	229.33
805.41	229.28
805.73	229.24
806.05	229.20
806.37	229.15
806.69	229.10
807.01	229.09
807.33	229.10
807.65	229.04
807.97	229.08
808.28	229.05
808.60	229.03
808.92	229.02
809.24	229.06
809.56	228.99
809.88	228.96
810.20	228.93
810.52	228.91
810.84	228.86
811.16	228.84
811.48	228.76
811.80	228.80
812.12	228.77
812.43	228.79
812.75	228.77
813.07	228.78
813.39	228.75
813.71	228.70
814.03	228.67
814.35	228.66
814.67	228.58
814.98	228.57
815.30	228.53
815.62	228.48
815.94	228.38
816.26	228.43
816.58	228.37
816.89	228.40
817.21	228.34
817.53	228.35
817.85	228.34
818.17	228.36
818.48	228.29
818.80	228.31
819.12	228.27
819.44	228.22
819.76	228.19
820.07	228.19
820.39	228.20
820.71	228.20
821.03	228.21
821.34	228.22
821.66	228.21
821.98	228.24
822.30	228.25
822.61	228.30
822.93	228.25
823.25	228.27
823.57	228.24
823.88	228.26
824.20	228.26
824.52	228.27
824.83	228.26
825.15	228.27
825.47	228.26
825.79	228.27
826.10	228.29
826.42	228.28
826.74	228.25
827.05	228.26
827.37	228.25
827.69	228.22
828.00	228.18
828.32	228.21
828.64	228.18
828.95	228.22
829.27	228.19
829.58	228.18
829.90	228.17
830.22	228.17
830.53	228.14
830.85	228.13
831.17	228.11
831.48	228.11
831.80	228.10
832.11	228.06
832.43	228.04
832.75	228.05
833.06	228.10
833.38	228.09
833.69	228.04
834.01	228.00
834.32	228.01
834.64	228.01
834.96	227.97
835.27	227.95
835.59	227.91
835.90	227.85
836.22	227.84
836.53	227.83
836.85	227.80
837.16	227.88
837.48	227.86
837.79	227.87
838.11	227.84
838.42	227.82
838.74	227.85
839.05	227.85
839.37	227.82
839.68	227.74
840.00	227.73
840.31	227.74
840.63	227.77
840.94	227.74
841.26	227.71
841.57	227.68
841.88	227.65
842.20	227.64
842.51	227.64
842.83	227.60
843.14	227.64
843.46	227.63
843.77	227.59
844.08	227.59
844.40	227.54
844.71	227.54
845.03	227.54
845.34	227.50
845.65	227.46
845.97	227.44
846.28	227.43
846.60	227.39
846.91	227.37
847.22	227.35
847.54	227.36
847.85	227.35
848.16	227.34
848.48	227.31
848.79	227.31
849.10	227.33
849.42	227.34
849.73	227.25
850.04	227.24
850.36	227.18
850.67	227.19
850.98	227.21
851.30	227.20
851.61	227.20
851.92	227.19
852.23	227.20
852.55	227.22
852.86	227.22
853.17	227.23
853.49	227.24
853.80	227.23
854.11	227.21
854.42	227.23
854.74	227.22
855.05	227.23
855.36	227.15
855.67	227.15
855.99	227.13
856.30	227.25
856.61	227.24
856.92	227.23
857.23	227.25
857.55	227.23
857.86	227.20
858.17	227.19
858.48	227.16
858.79	227.16
859.11	227.16
859.42	227.17
859.73	227.17
860.04	227.16
860.35	227.15
860.66	227.16
860.98	227.15
861.29	227.16
861.60	227.15
861.91	227.22
862.22	227.19
862.53	227.20
862.84	227.09
863.16	227.11
863.47	227.11
863.78	227.05
864.09	227.08
864.40	227.09
864.71	227.09
865.02	227.12
865.33	227.12
865.64	227.11
865.95	227.10
866.27	227.15
866.58	227.16
866.89	227.18
867.20	227.14
867.51	227.15
867.82	227.15
868.13	227.17
868.44	227.15
868.75	227.20
869.06	227.21
869.37	227.25
869.68	227.25
869.99	227.27
870.30	227.31
870.61	227.28
870.92	227.26
871.23	227.24
871.54	227.25
871.85	227.27
872.16	227.28
872.47	227.27
872.78	227.22
873.09	227.21
873.40	227.19
873.71	227.25
874.02	227.24
874.33	227.24
874.64	227.26
874.95	227.30
875.26	227.27
875.56	227.27
875.87	227.24
876.18	227.24
876.49	227.32
876.80	227.31
877.11	227.30
877.42	227.32
877.73	227.31
878.04	227.29
878.35	227.27
878.66	227.26
878.96	227.29
879.27	227.31
879.58	227.29
879.89	227.30
880.20	227.28
880.51	227.22
880.82	227.21
881.12	227.18
881.43	227.14
881.74	227.12
882.05	227.08
882.36	227.08
882.67	227.05
882.97	226.93
883.28	226.90
883.59	226.88
883.90	226.88
884.21	226.90
884.51	226.89
884.82	226.84
885.13	226.84
885.44	226.80
885.74	226.75
886.05	226.75
886.36	226.74
886.67	226.69
886.98	226.74
887.28	226.73
887.59	226.71
887.90	226.69
888.20	226.65
888.51	226.68
888.82	226.65
889.13	226.69
889.43	226.75
889.74	226.74
890.05	226.75
890.35	226.75
890.66	226.74
890.97	226.70
891.28	226.69
891.58	226.70
891.89	226.70
892.20	226.71
892.50	226.70
892.81	226.68
893.12	226.70
893.42	226.65
893.73	226.63
894.04	226.62
894.34	226.63
894.65	226.65
894.95	226.61
895.26	226.62
895.57	226.63
895.87	226.55
896.18	226.57
896.48	226.58
896.79	226.54
897.10	226.54
897.40	226.55
897.71	226.56
898.01	226.53
898.32	226.55
898.63	226.55
898.93	226.56
899.24	226.56
899.54	226.52
899.85	226.54
900.15	226.58
900.46	226.59
900.76	226.62
901.07	226.65
901.38	226.67
901.68	226.66
901.99	226.62
902.29	226.62
902.60	226.59
902.90	226.57
903.21	226.58
903.51	226.60
903.82	226.62
904.12	226.63
904.43	226.65
904.73	226.64
905.03	226.67
905.34	226.77
905.64	226.79
905.95	226.83
906.25	226.83
906.56	226.83
906.86	226.87
907.17	226.84
907.47	226.84
907.77	226.86
908.08	226.85
908.38	226.85
908.69	226.89
908.99	226.94
909.30	226.95
909.60	226.95
909.90	226.94
910.21	226.92
910.51	226.93
910.81	226.95
911.12	226.97
911.42	226.93
911.73	226.82
912.03	226.84
912.33	226.86
912.64	226.84
912.94	226.83
913.24	226.76
913.55	226.74
913.85	226.71
914.15	226.67
914.46	226.68
914.76	226.67
915.06	226.63
915.37	226.59
915.67	226.59
915.97	226.61
916.27	226.63
916.58	226.68
916.88	226.69
917.18	226.65
917.49	226.69
917.79	226.71
918.09	226.73
918.39	226.76
918.70	226.75
919.00	226.78
919.30	226.82
919.60	226.85
919.91	226.86
920.21	226.87
920.51	226.87
920.81	226.88
921.12	226.92
921.42	226.92
921.72	226.95
922.02	226.94
922.32	226.95
922.63	226.90
922.93	226.89
923.23	226.89
923.53	226.86
923.83	226.78
924.13	226.76
924.44	226.72
924.74	226.72
925.04	226.74
925.34	226.72
925.64	226.67
925.94	226.63
926.24	226.70
926.55	226.69
926.85	226.71
927.15	226.71
927.45	226.66
927.75	226.65
928.05	226.64
928.35	226.60
928.65	226.59
928.95	226.60
929.26	226.59
929.56	226.60
929.86	226.64
930.16	226.67
930.46	226.68
930.76	226.70
931.06	226.62
931.36	226.59
931.66	226.60
931.96	226.62
932.26	226.64
932.56	226.62
932.86	226.64
933.16	226.63
933.46	226.61
933.76	226.61
934.06	226.65
934.36	226.70
934.66	226.72
934.96	226.73
935.26	226.77
935.56	226.78
935.86	226.76
936.16	226.75
936.46	226.72
936.76	226.72
937.06	226.72
937.36	226.75
937.66	226.76
937.96	226.78
938.26	226.78
938.56	226.81
938.86	226.79
939.16	226.81
939.46	226.84
939.76	226.88
940.06	226.89
940.35	226.85
940.65	226.80
940.95	226.83
941.25	226.79
941.55	226.76
941.85	226.76
942.15	226.78
942.45	226.80
942.75	226.83
943.04	226.81
943.34	226.86
943.64	226.88
943.94	226.90
944.24	226.90
944.54	226.87
944.84	226.83
945.13	226.81
945.43	226.77
945.73	226.76
946.03	226.75
946.33	226.75
946.62	226.77
946.92	226.75
947.22	226.78
947.52	226.77
947.82	226.78
948.11	226.76
948.41	226.76
948.71	226.73
949.01	226.70
949.31	226.71
949.60	226.67
949.90	226.67
950.20	226.64
950.50	226.64
950.79	226.65
951.09	226.65
951.39	226.64
951.69	226.64
951.98	226.66
952.28	226.65
952.58	226.63
952.87	226.61
953.17	226.65
953.47	226.59
953.76	226.60
954.06	226.59
954.36	226.58
954.66	226.57
954.95	226.60
955.25	226.62
955.55	226.63
955.84	226.62
956.14	226.62
956.44	226.62
956.73	226.59
957.03	226.59
957.32	226.65
957.62	226.62
957.92	226.62
958.21	226.60
958.51	226.71
958.81	226.72
959.10	226.70
959.40	226.69
959.69	226.73
959.99	226.75
960.29	226.75
960.58	226.75
960.88	226.76
961.17	226.75
961.47	226.73
961.76	226.73
962.06	226.73
962.36	226.71
962.65	226.72
962.95	226.73
963.24	226.72
963.54	226.70
963.83	226.74
964.13	226.75
964.42	226.71
964.72	226.63
965.01	226.65
965.31	226.67
965.60	226.68
965.90	226.72
966.19	226.70
966.49	226.72
966.78	226.72
967.08	226.74
967.37	226.73
967.67	226.71
967.96	226.74
968.26	226.70
968.55	226.72
968.85	226.75
969.14	226.75
969.43	226.74
969.73	226.74
970.02	226.74
970.32	226.70
970.61	226.71
970.91	226.68
971.20	226.66
971.49	226.68
971.79	226.67
972.08	226.62
972.38	226.61
972.67	226.60
972.96	226.61
973.26	226.56
973.55	226.60
973.85	226.61
974.14	226.61
974.43	226.65
974.73	226.65
975.02	226.62
975.31	226.63
975.61	226.66
975.90	226.63
976.19	226.60
976.49	226.62
976.78	226.68
977.07	226.71
977.37	226.73
977.66	226.76
977.95	226.74
978.24	226.75
978.54	226.80
978.83	226.80
979.12	226.81
979.42	226.83
979.71	226.83
980.00	226.82
980.29	226.81
980.59	226.79
980.88	226.80
981.17	226.80
981.46	226.78
981.76	226.75
982.05	226.78
982.34	226.81
982.63	226.82
982.93	226.79
983.22	226.78
983.51	226.78
983.80	226.75
984.09	226.78
984.39	226.76
984.68	226.71
984.97	226.70
985.26	226.70
985.55	226.73
985.85	226.68
986.14	226.72
986.43	226.73
986.72	226.75
987.01	226.73
987.30	226.74
987.59	226.73
987.89	226.76
988.18	226.74
988.47	226.72
988.76	226.71
989.05	226.70
989.34	226.71
989.63	226.75
989.92	226.74
990.22	226.73
990.51	226.74
990.80	226.74
991.09	226.75
991.38	226.72
991.67	226.67
991.96	226.67
992.25	226.66
992.54	226.62
992.83	226.58
993.12	226.54
993.41	226.52
993.70	226.56
993.99	226.54
994.28	226.56
994.58	226.59
994.87	226.58
995.16	226.55
995.45	226.51
995.74	226.44
996.03	226.45
996.32	226.43
996.61	226.43
996.90	226.44
997.19	226.43
997.48	226.43
997.77	226.42
998.06	226.43
998.34	226.40
998.63	226.43
998.92	226.43
999.21	226.45
999.50	226.47
999.79	226.45
1000.08	226.46
1000.37	226.47
1000.66	226.44
1000.95	226.44
1001.24	226.48
1001.53	226.52
1001.82	226.52
1002.11	226.50
1002.40	226.47
1002.68	226.47
1002.97	226.53
1003.26	226.52
1003.55	226.53
1003.84	226.52
1004.13	226.56
1004.42	226.54
1004.71	226.56
1004.99	226.57
1005.28	226.63
1005.57	226.63
1005.86	226.59
1006.15	226.59
1006.44	226.56
1006.72	226.57
1007.01	226.57
1007.30	226.57
1007.59	226.54
1007.88	226.51
1008.17	226.51
1008.45	226.52
1008.74	226.53
1009.03	226.48
1009.32	226.49
1009.60	226.49
1009.89	226.49
1010.18	226.45
1010.47	226.45
1010.76	226.41
1011.04	226.42
1011.33	226.41
1011.62	226.39
1011.91	226.42
1012.19	226.43
1012.48	226.41
1012.77	226.44
1013.05	226.47
1013.34	226.45
1013.63	226.45
1013.92	226.50
1014.20	226.51
1014.49	226.54
1014.78	226.53
1015.06	226.51
1015.35	226.51
1015.64	226.53
1015.92	226.58
1016.21	226.58
1016.50	226.60
1016.78	226.62
1017.07	226.61
1017.36	226.55
1017.64	226.56
1017.93	226.57
1018.22	226.54
1018.50	226.54
1018.79	226.52
1019.08	226.47
1019.36	226.45
1019.65	226.44
1019.93	226.45
1020.22	226.47
1020.51	226.51
1020.79	226.49
1021.08	226.12
1021.36	226.28
1021.65	226.55
1021.94	226.00
1022.22	225.92
1022.51	226.14
1022.79	226.87
1023.08	226.83
1023.36	227.81
1023.65	225.73
>>>>>End Processed Spectral Data<<<<<
