SpectraSuite Data File
++++++++++++++++++++++++++++++++++++
Date: Fri Feb 01 17:52:40 EST 2013
User: group
Dark Spectrum Present: No
Reference Spectrum Present: No
Number of Sampled Component Spectra: 1
Spectrometers: USB2E7196
Integration Time (usec): 35000 (USB2E7196)
Spectra Averaged: 100 (USB2E7196)
Boxcar Smoothing: 10 (USB2E7196)
Correct for Electrical Dark: No (USB2E7196)
Strobe/Lamp Enabled: No (USB2E7196)
Correct for Detector Non-linearity: No (USB2E7196)
Correct for Stray Light: No (USB2E7196)
Number of Pixels in Processed Spectrum: 2048
>>>>>Begin Processed Spectral Data<<<<<
339.09	0.00
339.48	212.87
339.86	214.17
340.24	215.88
340.63	217.26
341.01	219.73
341.39	220.26
341.78	221.18
342.16	222.06
342.54	223.93
342.93	211.22
343.31	221.93
343.69	222.45
344.07	222.92
344.46	223.31
344.84	223.71
345.22	223.97
345.60	224.19
345.99	224.38
346.37	224.52
346.75	224.58
347.13	224.68
347.52	224.75
347.90	224.82
348.28	224.88
348.66	224.95
349.05	224.93
349.43	225.01
349.81	225.05
350.19	225.13
350.57	225.20
350.96	225.31
351.34	225.38
351.72	225.48
352.10	225.58
352.48	225.68
352.87	225.73
353.25	225.79
353.63	225.87
354.01	225.95
354.39	226.06
354.77	226.13
355.15	226.19
355.54	226.28
355.92	226.35
356.30	226.40
356.68	226.53
357.06	226.60
357.44	226.62
357.82	226.65
358.20	226.71
358.58	226.76
358.97	226.81
359.35	226.85
359.73	226.92
360.11	226.95
360.49	226.97
360.87	227.01
361.25	227.05
361.63	227.11
362.01	227.15
362.39	227.14
362.77	227.16
363.15	227.19
363.53	227.20
363.91	227.22
364.29	227.22
364.67	227.11
365.05	227.15
365.43	227.18
365.81	227.19
366.19	227.25
366.57	227.29
366.95	227.29
367.33	227.28
367.71	227.27
368.09	227.29
368.47	227.30
368.85	227.29
369.23	227.27
369.61	227.21
369.99	227.21
370.37	227.20
370.75	227.21
371.13	227.17
371.51	227.15
371.89	227.11
372.27	227.09
372.65	227.06
373.03	227.00
373.41	226.97
373.78	226.92
374.16	226.80
374.54	226.73
374.92	226.67
375.30	226.60
375.68	226.53
376.06	226.47
376.44	226.41
376.82	226.35
377.19	226.31
377.57	226.23
377.95	226.13
378.33	226.06
378.71	225.94
379.09	225.89
379.47	225.83
379.84	225.75
380.22	225.66
380.60	225.58
380.98	225.53
381.36	225.46
381.73	225.39
382.11	225.37
382.49	225.34
382.87	225.27
383.25	225.25
383.62	225.30
384.00	225.22
384.38	225.17
384.76	225.15
385.13	225.16
385.51	225.13
385.89	225.07
386.27	225.03
386.64	225.01
387.02	224.95
387.40	224.89
387.78	224.88
388.15	224.84
388.53	224.84
388.91	224.79
389.29	224.76
389.66	224.77
390.04	224.70
390.42	224.66
390.79	224.63
391.17	224.61
391.55	224.48
391.92	224.49
392.30	224.51
392.68	224.46
393.05	224.45
393.43	224.48
393.81	224.51
394.18	224.50
394.56	224.50
394.94	224.53
395.31	224.54
395.69	224.57
396.06	224.63
396.44	224.65
396.82	224.69
397.19	224.79
397.57	224.81
397.95	224.90
398.32	224.95
398.70	225.01
399.07	225.05
399.45	225.12
399.82	225.18
400.20	225.22
400.58	225.29
400.95	225.27
401.33	225.34
401.70	225.46
402.08	225.59
402.45	225.72
402.83	225.84
403.20	225.95
403.58	226.07
403.95	226.19
404.33	226.33
404.71	226.47
405.08	226.64
405.46	226.77
405.83	226.89
406.21	227.04
406.58	227.24
406.96	227.43
407.33	227.63
407.70	227.85
408.08	228.13
408.45	228.41
408.83	228.72
409.20	229.00
409.58	229.19
409.95	229.49
410.33	229.79
410.70	230.09
411.08	230.46
411.45	230.88
411.82	231.25
412.20	231.71
412.57	232.22
412.95	232.64
413.32	233.17
413.69	233.74
414.07	234.29
414.44	234.91
414.82	235.54
415.19	236.25
415.56	236.96
415.94	237.70
416.31	238.52
416.68	239.34
417.06	240.28
417.43	241.20
417.81	242.21
418.18	243.23
418.55	244.34
418.93	245.50
419.30	246.64
419.67	247.91
420.04	249.17
420.42	250.48
420.79	251.99
421.16	253.54
421.54	255.06
421.91	256.69
422.28	258.34
422.66	260.10
423.03	261.82
423.40	263.54
423.77	265.42
424.15	267.29
424.52	269.29
424.89	271.40
425.26	273.45
425.64	275.41
426.01	277.53
426.38	279.74
426.75	281.94
427.13	284.26
427.50	286.61
427.87	289.11
428.24	291.57
428.61	293.90
428.99	296.47
429.36	299.28
429.73	301.98
430.10	304.68
430.47	307.39
430.85	310.22
431.22	313.23
431.59	316.35
431.96	319.35
432.33	322.58
432.70	325.71
433.08	329.41
433.45	332.83
433.82	336.29
434.19	340.09
434.56	343.80
434.93	347.35
435.30	350.85
435.68	354.64
436.05	358.39
436.42	362.08
436.79	365.39
437.16	368.96
437.53	372.74
437.90	376.46
438.27	380.12
438.64	383.93
439.01	387.35
439.38	390.37
439.75	393.21
440.13	396.52
440.50	399.64
440.87	402.14
441.24	404.78
441.61	407.66
441.98	409.63
442.35	412.07
442.72	414.50
443.09	416.92
443.46	418.22
443.83	419.00
444.20	419.72
444.57	420.86
444.94	421.22
445.31	421.72
445.68	422.12
446.05	422.21
446.42	421.65
446.79	421.11
447.16	420.51
447.53	420.11
447.90	418.64
448.27	417.09
448.64	414.97
449.01	413.46
449.37	410.87
449.74	408.39
450.11	405.36
450.48	402.10
450.85	398.77
451.22	395.93
451.59	393.28
451.96	390.67
452.33	387.22
452.70	384.10
453.07	380.35
453.43	376.60
453.80	372.99
454.17	369.46
454.54	366.12
454.91	362.56
455.28	359.00
455.65	355.69
456.02	352.39
456.38	349.54
456.75	346.02
457.12	343.05
457.49	340.09
457.86	337.26
458.23	334.75
458.59	332.03
458.96	329.29
459.33	326.80
459.70	324.32
460.07	322.31
460.43	320.05
460.80	317.86
461.17	315.90
461.54	313.87
461.91	311.98
462.27	310.03
462.64	308.35
463.01	306.54
463.38	304.77
463.74	303.04
464.11	301.52
464.48	300.11
464.85	298.59
465.21	297.46
465.58	296.17
465.95	294.77
466.32	293.53
466.68	292.33
467.05	291.12
467.42	289.95
467.78	288.71
468.15	287.53
468.52	286.63
468.88	285.51
469.25	284.45
469.62	283.56
469.98	282.67
470.35	281.81
470.72	281.01
471.08	280.15
471.45	279.39
471.82	278.63
472.18	277.83
472.55	277.24
472.92	276.51
473.28	275.91
473.65	275.27
474.02	274.65
474.38	274.13
474.75	273.67
475.11	273.18
475.48	272.79
475.85	272.45
476.21	272.12
476.58	271.82
476.94	271.60
477.31	271.32
477.67	271.04
478.04	270.83
478.41	270.68
478.77	270.63
479.14	270.47
479.50	270.42
479.87	270.45
480.23	270.43
480.60	270.43
480.96	270.44
481.33	270.62
481.69	270.78
482.06	270.95
482.42	271.12
482.79	271.35
483.15	271.64
483.52	272.00
483.88	272.29
484.25	272.63
484.61	272.98
484.98	273.45
485.34	273.98
485.71	274.54
486.07	275.14
486.44	275.72
486.80	276.40
487.17	277.13
487.53	277.95
487.90	278.83
488.26	279.78
488.62	280.77
488.99	281.71
489.35	282.78
489.72	283.87
490.08	285.15
490.44	286.39
490.81	287.79
491.17	289.14
491.54	290.74
491.90	292.36
492.26	294.08
492.63	295.87
492.99	297.76
493.36	299.76
493.72	301.93
494.08	304.16
494.45	306.54
494.81	309.02
495.17	311.55
495.54	314.28
495.90	317.12
496.26	320.08
496.63	323.20
496.99	326.47
497.35	329.91
497.72	333.48
498.08	337.19
498.44	341.00
498.80	345.12
499.17	349.33
499.53	353.67
499.89	358.27
500.26	363.05
500.62	367.91
500.98	373.14
501.34	378.46
501.71	384.06
502.07	389.82
502.43	395.77
502.79	401.92
503.16	408.31
503.52	414.88
503.88	421.62
504.24	428.62
504.60	435.85
504.97	443.40
505.33	451.20
505.69	459.42
506.05	467.63
506.41	476.00
506.78	484.60
507.14	493.61
507.50	502.88
507.86	512.44
508.22	522.24
508.59	532.03
508.95	542.15
509.31	552.58
509.67	563.30
510.03	574.19
510.39	585.41
510.75	596.88
511.12	608.51
511.48	620.62
511.84	632.87
512.20	645.17
512.56	657.89
512.92	670.76
513.28	683.90
513.64	697.24
514.00	710.84
514.37	724.74
514.73	738.71
515.09	752.69
515.45	766.89
515.81	781.44
516.17	796.38
516.53	811.59
516.89	826.82
517.25	842.09
517.61	857.59
517.97	873.16
518.33	888.65
518.69	904.58
519.05	920.59
519.41	936.88
519.77	953.64
520.13	970.34
520.49	987.01
520.85	1003.66
521.21	1020.69
521.57	1038.32
521.93	1055.36
522.29	1073.07
522.65	1090.74
523.01	1108.39
523.37	1125.87
523.73	1143.51
524.09	1161.07
524.45	1178.66
524.81	1196.76
525.17	1215.07
525.53	1233.49
525.89	1252.08
526.25	1270.60
526.61	1288.60
526.97	1307.01
527.33	1325.25
527.68	1343.53
528.04	1361.77
528.40	1379.98
528.76	1398.79
529.12	1417.05
529.48	1435.83
529.84	1453.41
530.20	1471.73
530.56	1490.41
530.91	1509.59
531.27	1528.29
531.63	1546.51
531.99	1565.07
532.35	1582.98
532.71	1600.79
533.07	1619.02
533.42	1636.75
533.78	1654.66
534.14	1672.94
534.50	1690.10
534.86	1707.95
535.21	1725.06
535.57	1742.89
535.93	1760.46
536.29	1777.05
536.65	1794.06
537.00	1810.66
537.36	1828.23
537.72	1844.71
538.08	1861.22
538.44	1877.12
538.79	1892.96
539.15	1908.59
539.51	1924.30
539.87	1940.67
540.22	1956.20
540.58	1971.98
540.94	1987.28
541.29	2002.08
541.65	2016.66
542.01	2032.08
542.37	2046.30
542.72	2060.76
543.08	2074.61
543.44	2089.02
543.79	2102.46
544.15	2115.55
544.51	2129.25
544.87	2142.06
545.22	2155.14
545.58	2167.33
545.94	2179.03
546.29	2190.90
546.65	2202.85
547.01	2214.23
547.36	2224.90
547.72	2235.53
548.07	2245.42
548.43	2255.53
548.79	2265.48
549.14	2275.19
549.50	2284.30
549.86	2293.70
550.21	2302.99
550.57	2311.99
550.92	2320.33
551.28	2329.12
551.64	2338.01
551.99	2346.25
552.35	2354.31
552.70	2362.07
553.06	2369.90
553.41	2378.06
553.77	2385.70
554.13	2393.50
554.48	2401.31
554.84	2408.52
555.19	2415.39
555.55	2422.01
555.90	2428.13
556.26	2434.71
556.61	2440.86
556.97	2446.87
557.32	2452.66
557.68	2458.31
558.03	2464.06
558.39	2469.36
558.74	2475.52
559.10	2480.90
559.45	2486.02
559.81	2491.74
560.16	2497.14
560.52	2501.71
560.87	2506.30
561.23	2510.30
561.58	2514.41
561.94	2518.18
562.29	2521.65
562.64	2525.72
563.00	2529.53
563.35	2534.38
563.71	2538.82
564.06	2543.27
564.42	2547.42
564.77	2551.34
565.12	2554.92
565.48	2558.11
565.83	2561.05
566.19	2563.62
566.54	2565.33
566.89	2567.64
567.25	2569.31
567.60	2571.39
567.96	2574.35
568.31	2576.15
568.66	2578.24
569.02	2579.71
569.37	2580.76
569.72	2582.59
570.08	2583.64
570.43	2584.43
570.78	2584.61
571.14	2583.54
571.49	2582.68
571.84	2582.67
572.20	2582.10
572.55	2581.38
572.90	2580.05
573.26	2579.27
573.61	2577.80
573.96	2576.77
574.31	2573.97
574.67	2571.20
575.02	2567.71
575.37	2564.03
575.72	2560.41
576.08	2557.09
576.43	2553.85
576.78	2550.44
577.13	2547.29
577.49	2544.08
577.84	2540.76
578.19	2536.88
578.54	2533.44
578.90	2529.33
579.25	2523.55
579.60	2518.41
579.95	2513.27
580.30	2508.00
580.66	2502.51
581.01	2497.16
581.36	2491.72
581.71	2487.51
582.06	2482.85
582.42	2478.43
582.77	2473.07
583.12	2468.31
583.47	2463.52
583.82	2458.34
584.17	2452.69
584.53	2446.87
584.88	2440.80
585.23	2434.76
585.58	2428.85
585.93	2422.82
586.28	2417.24
586.63	2411.86
586.98	2406.19
587.34	2400.94
587.69	2395.66
588.04	2390.08
588.39	2384.14
588.74	2376.96
589.09	2369.99
589.44	2362.60
589.79	2355.62
590.14	2349.22
590.49	2341.82
590.84	2334.54
591.19	2327.87
591.54	2320.72
591.89	2312.57
592.25	2305.12
592.60	2296.89
592.95	2288.46
593.30	2280.23
593.65	2271.93
594.00	2264.00
594.35	2255.76
594.70	2246.53
595.05	2238.65
595.40	2230.24
595.75	2221.68
596.10	2214.83
596.45	2207.45
596.80	2200.36
597.15	2192.93
597.50	2185.35
597.85	2178.02
598.19	2170.62
598.54	2162.75
598.89	2155.22
599.24	2148.36
599.59	2140.84
599.94	2133.68
600.29	2126.32
600.64	2118.67
600.99	2110.24
601.34	2102.52
601.69	2094.61
602.04	2087.09
602.39	2078.68
602.74	2070.87
603.08	2063.20
603.43	2055.38
603.78	2046.89
604.13	2038.64
604.48	2030.52
604.83	2022.52
605.18	2014.77
605.53	2005.62
605.87	1996.26
606.22	1987.96
606.57	1978.83
606.92	1970.12
607.27	1962.02
607.62	1954.19
607.96	1946.04
608.31	1938.68
608.66	1929.96
609.01	1921.30
609.36	1912.40
609.70	1903.06
610.05	1893.85
610.40	1885.05
610.75	1875.42
611.10	1866.46
611.44	1856.55
611.79	1847.07
612.14	1837.00
612.49	1826.31
612.83	1816.41
613.18	1806.82
613.53	1797.36
613.88	1787.44
614.22	1777.81
614.57	1767.62
614.92	1758.28
615.27	1749.55
615.61	1739.88
615.96	1730.47
616.31	1721.43
616.65	1712.97
617.00	1704.27
617.35	1695.29
617.70	1685.66
618.04	1675.80
618.39	1666.24
618.74	1657.49
619.08	1647.89
619.43	1638.93
619.78	1630.79
620.12	1622.54
620.47	1613.91
620.82	1604.31
621.16	1595.57
621.51	1586.72
621.85	1577.79
622.20	1567.92
622.55	1558.06
622.89	1548.79
623.24	1539.82
623.59	1531.14
623.93	1522.33
624.28	1513.74
624.62	1504.93
624.97	1496.36
625.32	1488.48
625.66	1480.30
626.01	1471.98
626.35	1463.64
626.70	1454.66
627.04	1445.77
627.39	1436.61
627.73	1427.85
628.08	1419.84
628.43	1411.51
628.77	1402.96
629.12	1394.30
629.46	1385.91
629.81	1377.17
630.15	1368.60
630.50	1360.02
630.84	1350.73
631.19	1341.41
631.53	1332.59
631.88	1323.82
632.22	1315.08
632.57	1306.58
632.91	1297.76
633.26	1289.08
633.60	1280.14
633.95	1271.74
634.29	1263.32
634.64	1255.56
634.98	1247.11
635.32	1238.89
635.67	1231.19
636.01	1223.50
636.36	1215.70
636.70	1208.02
637.05	1200.46
637.39	1193.11
637.73	1185.63
638.08	1178.74
638.42	1171.83
638.77	1164.41
639.11	1156.85
639.45	1149.41
639.80	1141.71
640.14	1134.34
640.49	1126.90
640.83	1119.62
641.17	1112.61
641.52	1105.47
641.86	1098.08
642.20	1091.26
642.55	1083.85
642.89	1076.40
643.23	1068.87
643.58	1062.10
643.92	1055.12
644.26	1048.27
644.61	1041.09
644.95	1034.13
645.29	1026.62
645.64	1018.91
645.98	1011.63
646.32	1004.70
646.66	997.73
647.01	990.99
647.35	984.46
647.69	977.55
648.04	971.19
648.38	964.59
648.72	957.75
649.06	950.84
649.41	944.09
649.75	937.34
650.09	930.49
650.43	923.84
650.78	916.80
651.12	909.85
651.46	903.14
651.80	896.79
652.14	890.50
652.49	884.32
652.83	878.35
653.17	871.96
653.51	865.55
653.85	859.32
654.20	852.96
654.54	846.01
654.88	839.51
655.22	832.76
655.56	826.09
655.90	819.74
656.25	813.67
656.59	807.65
656.93	801.74
657.27	795.91
657.61	789.70
657.95	783.91
658.29	778.09
658.64	772.00
658.98	765.83
659.32	759.60
659.66	753.60
660.00	747.63
660.34	741.97
660.68	736.35
661.02	730.61
661.36	725.17
661.70	720.16
662.05	715.24
662.39	710.35
662.73	705.24
663.07	700.27
663.41	695.19
663.75	690.10
664.09	684.91
664.43	679.74
664.77	675.06
665.11	670.17
665.45	665.52
665.79	660.95
666.13	656.23
666.47	651.62
666.81	646.92
667.15	642.20
667.49	637.68
667.83	633.24
668.17	628.76
668.51	624.15
668.85	619.48
669.19	615.02
669.53	610.60
669.87	606.26
670.21	601.98
670.55	597.81
670.89	593.80
671.23	589.86
671.57	585.90
671.91	581.91
672.25	577.87
672.58	573.83
672.92	569.89
673.26	566.23
673.60	562.59
673.94	558.99
674.28	555.61
674.62	552.26
674.96	548.75
675.30	545.45
675.64	542.14
675.97	538.92
676.31	535.65
676.65	532.32
676.99	529.17
677.33	525.88
677.67	522.70
678.01	519.22
678.34	515.89
678.68	512.59
679.02	509.30
679.36	506.17
679.70	503.03
680.04	499.92
680.37	496.69
680.71	493.49
681.05	490.54
681.39	487.44
681.73	484.40
682.06	481.52
682.40	478.64
682.74	475.70
683.08	472.75
683.42	469.71
683.75	466.89
684.09	464.00
684.43	461.16
684.77	458.36
685.10	455.67
685.44	452.94
685.78	450.26
686.12	447.67
686.45	445.01
686.79	442.39
687.13	439.80
687.46	437.31
687.80	434.81
688.14	432.24
688.48	429.86
688.81	427.29
689.15	424.77
689.49	422.23
689.82	419.86
690.16	417.47
690.50	415.23
690.83	413.03
691.17	410.70
691.51	408.53
691.84	406.35
692.18	404.18
692.52	401.97
692.85	399.74
693.19	397.58
693.52	395.47
693.86	393.35
694.20	391.33
694.53	389.26
694.87	387.16
695.21	385.09
695.54	382.97
695.88	380.96
696.21	379.04
696.55	377.15
696.88	375.16
697.22	373.26
697.56	371.41
697.89	369.44
698.23	367.65
698.56	365.86
698.90	364.07
699.23	362.17
699.57	360.43
699.90	358.70
700.24	356.96
700.58	355.24
700.91	353.55
701.25	351.91
701.58	350.38
701.92	348.90
702.25	347.38
702.59	345.87
702.92	344.40
703.26	342.85
703.59	341.40
703.93	340.03
704.26	338.66
704.60	337.20
704.93	335.74
705.26	334.31
705.60	332.88
705.93	331.50
706.27	330.28
706.60	329.04
706.94	327.78
707.27	326.49
707.61	325.24
707.94	324.09
708.27	322.84
708.61	321.55
708.94	320.34
709.28	319.19
709.61	318.08
709.94	316.94
710.28	315.80
710.61	314.63
710.95	313.43
711.28	312.34
711.61	311.25
711.95	310.24
712.28	309.15
712.61	308.03
712.95	306.99
713.28	305.96
713.61	304.89
713.95	303.88
714.28	302.93
714.61	301.97
714.95	300.94
715.28	299.96
715.61	298.96
715.95	297.95
716.28	296.96
716.61	295.93
716.95	294.96
717.28	294.11
717.61	293.23
717.94	292.35
718.28	291.43
718.61	290.58
718.94	289.75
719.27	289.00
719.61	288.27
719.94	287.48
720.27	286.69
720.60	285.95
720.94	285.23
721.27	284.50
721.60	283.78
721.93	283.12
722.27	282.50
722.60	281.87
722.93	281.21
723.26	280.60
723.59	279.99
723.93	279.35
724.26	278.67
724.59	278.04
724.92	277.47
725.25	276.91
725.59	276.31
725.92	275.72
726.25	275.12
726.58	274.51
726.91	273.97
727.24	273.41
727.57	272.84
727.91	272.25
728.24	271.71
728.57	271.16
728.90	270.61
729.23	270.00
729.56	269.49
729.89	268.91
730.22	268.31
730.55	267.72
730.89	267.24
731.22	266.74
731.55	266.21
731.88	265.66
732.21	265.14
732.54	264.65
732.87	264.18
733.20	263.72
733.53	263.26
733.86	262.83
734.19	262.38
734.52	261.97
734.85	261.60
735.18	261.12
735.51	260.71
735.84	260.27
736.17	259.90
736.50	259.44
736.83	259.19
737.16	258.83
737.49	258.51
737.82	258.10
738.15	257.70
738.48	257.32
738.81	256.99
739.14	256.62
739.47	256.24
739.80	255.90
740.13	255.54
740.46	255.18
740.79	254.81
741.12	254.46
741.45	254.07
741.78	253.68
742.11	253.36
742.44	253.01
742.77	252.69
743.10	252.34
743.43	252.02
743.75	251.58
744.08	251.39
744.41	251.06
744.74	250.77
745.07	250.49
745.40	250.21
745.73	249.93
746.06	249.60
746.39	249.30
746.71	249.00
747.04	248.67
747.37	248.39
747.70	248.11
748.03	247.81
748.36	247.56
748.68	247.29
749.01	247.03
749.34	246.79
749.67	246.52
750.00	246.29
750.33	246.09
750.65	245.88
750.98	245.51
751.31	245.26
751.64	245.02
751.97	244.78
752.29	244.53
752.62	244.23
752.95	244.01
753.28	243.79
753.60	243.57
753.93	243.39
754.26	243.15
754.59	242.89
754.91	242.65
755.24	242.44
755.57	242.20
755.90	241.98
756.22	241.76
756.55	241.52
756.88	241.29
757.20	241.05
757.53	240.83
757.86	240.63
758.19	240.46
758.51	240.25
758.84	240.04
759.17	239.86
759.49	239.69
759.82	239.57
760.15	239.40
760.47	239.16
760.80	238.96
761.13	238.83
761.45	238.65
761.78	238.49
762.11	238.29
762.43	238.16
762.76	237.99
763.08	237.84
763.41	237.67
763.74	237.49
764.06	237.32
764.39	237.14
764.71	236.98
765.04	236.81
765.37	236.64
765.69	236.51
766.02	236.38
766.34	236.22
766.67	236.03
767.00	235.93
767.32	235.86
767.65	235.80
767.97	235.63
768.30	235.50
768.62	235.36
768.95	235.22
769.27	235.07
769.60	234.94
769.92	234.79
770.25	234.71
770.57	234.57
770.90	234.47
771.22	234.34
771.55	234.22
771.87	234.13
772.20	234.04
772.52	233.98
772.85	233.96
773.17	233.88
773.50	233.76
773.82	233.60
774.15	233.46
774.47	233.28
774.80	233.17
775.12	233.09
775.45	233.00
775.77	232.93
776.09	232.89
776.42	232.81
776.74	232.78
777.07	232.65
777.39	232.60
777.72	232.48
778.04	232.41
778.36	232.30
778.69	232.22
779.01	232.11
779.33	231.99
779.66	231.78
779.98	231.67
780.31	231.62
780.63	231.61
780.95	231.54
781.28	231.48
781.60	231.41
781.92	231.31
782.25	231.24
782.57	231.15
782.89	231.04
783.22	230.92
783.54	230.78
783.86	230.72
784.19	230.61
784.51	230.57
784.83	230.50
785.16	230.46
785.48	230.36
785.80	230.33
786.12	230.27
786.45	230.22
786.77	230.20
787.09	230.13
787.42	230.00
787.74	229.93
788.06	229.87
788.38	229.82
788.71	229.77
789.03	229.75
789.35	229.72
789.67	229.69
789.99	229.67
790.32	229.63
790.64	229.55
790.96	229.58
791.28	229.50
791.61	229.46
791.93	229.39
792.25	229.36
792.57	229.33
792.89	229.24
793.21	229.19
793.54	229.12
793.86	229.07
794.18	229.04
794.50	228.99
794.82	228.97
795.14	228.89
795.47	228.84
795.79	228.78
796.11	228.73
796.43	228.67
796.75	228.64
797.07	228.60
797.39	228.56
797.71	228.46
798.04	228.46
798.36	228.41
798.68	228.37
799.00	228.32
799.32	228.27
799.64	228.26
799.96	228.23
800.28	228.21
800.60	228.17
800.92	228.14
801.24	228.09
801.56	228.02
801.89	228.04
802.21	228.02
802.53	227.96
802.85	227.93
803.17	227.93
803.49	227.88
803.81	227.86
804.13	227.85
804.45	227.85
804.77	227.80
805.09	227.78
805.41	227.74
805.73	227.71
806.05	227.67
806.37	227.63
806.69	227.61
807.01	227.60
807.33	227.59
807.65	227.53
807.97	227.60
808.28	227.64
808.60	227.57
808.92	227.56
809.24	227.61
809.56	227.59
809.88	227.54
810.20	227.52
810.52	227.51
810.84	227.47
811.16	227.41
811.48	227.39
811.80	227.40
812.12	227.41
812.43	227.44
812.75	227.42
813.07	227.39
813.39	227.34
813.71	227.30
814.03	227.23
814.35	227.22
814.67	227.09
814.98	227.04
815.30	227.03
815.62	226.98
815.94	226.89
816.26	226.87
816.58	226.87
816.89	226.84
817.21	226.79
817.53	226.76
817.85	226.76
818.17	226.72
818.48	226.67
818.80	226.66
819.12	226.58
819.44	226.55
819.76	226.51
820.07	226.49
820.39	226.49
820.71	226.52
821.03	226.49
821.34	226.49
821.66	226.46
821.98	226.44
822.30	226.40
822.61	226.46
822.93	226.41
823.25	226.37
823.57	226.33
823.88	226.37
824.20	226.36
824.52	226.35
824.83	226.30
825.15	226.27
825.47	226.23
825.79	226.21
826.10	226.17
826.42	226.17
826.74	226.16
827.05	226.10
827.37	226.07
827.69	226.06
828.00	226.07
828.32	226.08
828.64	226.02
828.95	226.05
829.27	226.00
829.58	225.98
829.90	225.97
830.22	225.96
830.53	225.90
830.85	225.85
831.17	225.81
831.48	225.81
831.80	225.79
832.11	225.77
832.43	225.75
832.75	225.75
833.06	225.78
833.38	225.74
833.69	225.73
834.01	225.75
834.32	225.75
834.64	225.70
834.96	225.66
835.27	225.68
835.59	225.62
835.90	225.57
836.22	225.57
836.53	225.54
836.85	225.55
837.16	225.63
837.48	225.65
837.79	225.66
838.11	225.65
838.42	225.65
838.74	225.68
839.05	225.66
839.37	225.66
839.68	225.59
840.00	225.58
840.31	225.56
840.63	225.51
840.94	225.48
841.26	225.44
841.57	225.44
841.88	225.47
842.20	225.47
842.51	225.48
842.83	225.48
843.14	225.57
843.46	225.55
843.77	225.52
844.08	225.51
844.40	225.47
844.71	225.47
845.03	225.46
845.34	225.44
845.65	225.46
845.97	225.44
846.28	225.45
846.60	225.48
846.91	225.49
847.22	225.49
847.54	225.53
847.85	225.53
848.16	225.53
848.48	225.47
848.79	225.49
849.10	225.48
849.42	225.45
849.73	225.36
850.04	225.34
850.36	225.28
850.67	225.27
850.98	225.29
851.30	225.27
851.61	225.27
851.92	225.24
852.23	225.28
852.55	225.30
852.86	225.28
853.17	225.26
853.49	225.25
853.80	225.29
854.11	225.27
854.42	225.29
854.74	225.30
855.05	225.27
855.36	225.21
855.67	225.21
855.99	225.20
856.30	225.29
856.61	225.33
856.92	225.30
857.23	225.30
857.55	225.30
857.86	225.29
858.17	225.29
858.48	225.27
858.79	225.24
859.11	225.18
859.42	225.16
859.73	225.16
860.04	225.17
860.35	225.09
860.66	225.06
860.98	225.05
861.29	225.04
861.60	225.04
861.91	225.05
862.22	225.04
862.53	225.05
862.84	224.95
863.16	224.92
863.47	224.89
863.78	224.88
864.09	224.87
864.40	224.86
864.71	224.83
865.02	224.84
865.33	224.84
865.64	224.85
865.95	224.86
866.27	224.91
866.58	224.88
866.89	224.89
867.20	224.90
867.51	224.90
867.82	224.90
868.13	224.95
868.44	224.94
868.75	224.94
869.06	224.94
869.37	224.94
869.68	224.92
869.99	224.97
870.30	224.99
870.61	224.98
870.92	225.00
871.23	225.00
871.54	225.00
871.85	225.00
872.16	225.03
872.47	225.04
872.78	224.97
873.09	224.98
873.40	224.97
873.71	224.95
874.02	224.96
874.33	224.91
874.64	224.88
874.95	224.89
875.26	224.87
875.56	224.89
875.87	224.86
876.18	224.85
876.49	224.95
876.80	224.92
877.11	224.93
877.42	224.90
877.73	224.93
878.04	224.92
878.35	224.96
878.66	224.96
878.96	224.96
879.27	225.00
879.58	225.01
879.89	225.02
880.20	225.06
880.51	225.06
880.82	225.08
881.12	225.11
881.43	225.14
881.74	225.16
882.05	225.14
882.36	225.22
882.67	225.25
882.97	225.17
883.28	225.18
883.59	225.19
883.90	225.25
884.21	225.25
884.51	225.28
884.82	225.23
885.13	225.25
885.44	225.27
885.74	225.25
886.05	225.29
886.36	225.30
886.67	225.27
886.98	225.32
887.28	225.34
887.59	225.33
887.90	225.31
888.20	225.30
888.51	225.33
888.82	225.28
889.13	225.31
889.43	225.38
889.74	225.39
890.05	225.37
890.35	225.36
890.66	225.36
890.97	225.34
891.28	225.32
891.58	225.31
891.89	225.26
892.20	225.24
892.50	225.18
892.81	225.15
893.12	225.17
893.42	225.10
893.73	225.09
894.04	225.08
894.34	225.07
894.65	225.07
894.95	225.02
895.26	225.00
895.57	225.02
895.87	224.91
896.18	224.88
896.48	224.91
896.79	224.88
897.10	224.85
897.40	224.82
897.71	224.83
898.01	224.83
898.32	224.86
898.63	224.86
898.93	224.86
899.24	224.87
899.54	224.86
899.85	224.86
900.15	224.82
900.46	224.80
900.76	224.83
901.07	224.80
901.38	224.80
901.68	224.82
901.99	224.76
902.29	224.74
902.60	224.74
902.90	224.68
903.21	224.66
903.51	224.67
903.82	224.70
904.12	224.70
904.43	224.69
904.73	224.70
905.03	224.71
905.34	224.82
905.64	224.80
905.95	224.81
906.25	224.79
906.56	224.80
906.86	224.80
907.17	224.75
907.47	224.77
907.77	224.77
908.08	224.70
908.38	224.72
908.69	224.74
908.99	224.77
909.30	224.80
909.60	224.82
909.90	224.79
910.21	224.78
910.51	224.71
910.81	224.73
911.12	224.71
911.42	224.67
911.73	224.54
912.03	224.56
912.33	224.58
912.64	224.55
912.94	224.57
913.24	224.54
913.55	224.56
913.85	224.52
914.15	224.56
914.46	224.60
914.76	224.58
915.06	224.56
915.37	224.52
915.67	224.51
915.97	224.51
916.27	224.49
916.58	224.47
916.88	224.50
917.18	224.47
917.49	224.54
917.79	224.55
918.09	224.55
918.39	224.57
918.70	224.54
919.00	224.57
919.30	224.58
919.60	224.57
919.91	224.54
920.21	224.58
920.51	224.54
920.81	224.55
921.12	224.58
921.42	224.62
921.72	224.63
922.02	224.66
922.32	224.68
922.63	224.71
922.93	224.75
923.23	224.79
923.53	224.82
923.83	224.72
924.13	224.73
924.44	224.75
924.74	224.78
925.04	224.80
925.34	224.81
925.64	224.76
925.94	224.76
926.24	224.83
926.55	224.81
926.85	224.81
927.15	224.78
927.45	224.79
927.75	224.78
928.05	224.81
928.35	224.79
928.65	224.80
928.95	224.79
929.26	224.75
929.56	224.75
929.86	224.73
930.16	224.73
930.46	224.74
930.76	224.71
931.06	224.66
931.36	224.66
931.66	224.71
931.96	224.73
932.26	224.74
932.56	224.73
932.86	224.73
933.16	224.72
933.46	224.73
933.76	224.71
934.06	224.72
934.36	224.73
934.66	224.71
934.96	224.70
935.26	224.73
935.56	224.75
935.86	224.72
936.16	224.69
936.46	224.67
936.76	224.67
937.06	224.69
937.36	224.69
937.66	224.65
937.96	224.60
938.26	224.58
938.56	224.59
938.86	224.57
939.16	224.61
939.46	224.63
939.76	224.63
940.06	224.65
940.35	224.60
940.65	224.55
940.95	224.56
941.25	224.56
941.55	224.52
941.85	224.53
942.15	224.57
942.45	224.59
942.75	224.62
943.04	224.62
943.34	224.63
943.64	224.61
943.94	224.60
944.24	224.61
944.54	224.62
944.84	224.63
945.13	224.60
945.43	224.57
945.73	224.56
946.03	224.56
946.33	224.53
946.62	224.56
946.92	224.61
947.22	224.62
947.52	224.63
947.82	224.66
948.11	224.64
948.41	224.63
948.71	224.62
949.01	224.62
949.31	224.62
949.60	224.59
949.90	224.64
950.20	224.66
950.50	224.63
950.79	224.65
951.09	224.65
951.39	224.68
951.69	224.66
951.98	224.67
952.28	224.66
952.58	224.64
952.87	224.60
953.17	224.57
953.47	224.56
953.76	224.52
954.06	224.47
954.36	224.43
954.66	224.43
954.95	224.46
955.25	224.44
955.55	224.45
955.84	224.45
956.14	224.43
956.44	224.43
956.73	224.43
957.03	224.42
957.32	224.44
957.62	224.43
957.92	224.47
958.21	224.46
958.51	224.58
958.81	224.61
959.10	224.65
959.40	224.66
959.69	224.69
959.99	224.72
960.29	224.74
960.58	224.75
960.88	224.79
961.17	224.77
961.47	224.82
961.76	224.79
962.06	224.81
962.36	224.80
962.65	224.79
962.95	224.81
963.24	224.81
963.54	224.80
963.83	224.79
964.13	224.78
964.42	224.76
964.72	224.67
965.01	224.67
965.31	224.66
965.60	224.63
965.90	224.70
966.19	224.66
966.49	224.70
966.78	224.70
967.08	224.67
967.37	224.67
967.67	224.63
967.96	224.67
968.26	224.68
968.55	224.69
968.85	224.71
969.14	224.70
969.43	224.67
969.73	224.67
970.02	224.68
970.32	224.68
970.61	224.69
970.91	224.67
971.20	224.65
971.49	224.63
971.79	224.65
972.08	224.57
972.38	224.61
972.67	224.60
972.96	224.61
973.26	224.59
973.55	224.60
973.85	224.60
974.14	224.58
974.43	224.55
974.73	224.52
975.02	224.52
975.31	224.51
975.61	224.53
975.90	224.50
976.19	224.48
976.49	224.49
976.78	224.50
977.07	224.51
977.37	224.51
977.66	224.57
977.95	224.54
978.24	224.52
978.54	224.52
978.83	224.51
979.12	224.48
979.42	224.49
979.71	224.49
980.00	224.51
980.29	224.51
980.59	224.52
980.88	224.56
981.17	224.57
981.46	224.56
981.76	224.57
982.05	224.60
982.34	224.59
982.63	224.57
982.93	224.57
983.22	224.58
983.51	224.57
983.80	224.57
984.09	224.61
984.39	224.60
984.68	224.59
984.97	224.58
985.26	224.57
985.55	224.61
985.85	224.58
986.14	224.62
986.43	224.64
986.72	224.63
987.01	224.61
987.30	224.61
987.59	224.66
987.89	224.66
988.18	224.64
988.47	224.65
988.76	224.68
989.05	224.65
989.34	224.64
989.63	224.67
989.92	224.62
990.22	224.62
990.51	224.63
990.80	224.66
991.09	224.66
991.38	224.70
991.67	224.65
991.96	224.69
992.25	224.67
992.54	224.63
992.83	224.68
993.12	224.67
993.41	224.66
993.70	224.64
993.99	224.65
994.28	224.66
994.58	224.66
994.87	224.63
995.16	224.66
995.45	224.67
995.74	224.63
996.03	224.70
996.32	224.70
996.61	224.75
996.90	224.73
997.19	224.73
997.48	224.73
997.77	224.74
998.06	224.68
998.34	224.67
998.63	224.67
998.92	224.64
999.21	224.65
999.50	224.65
999.79	224.63
1000.08	224.64
1000.37	224.63
1000.66	224.64
1000.95	224.68
1001.24	224.68
1001.53	224.68
1001.82	224.68
1002.11	224.61
1002.40	224.61
1002.68	224.60
1002.97	224.69
1003.26	224.68
1003.55	224.69
1003.84	224.66
1004.13	224.70
1004.42	224.70
1004.71	224.71
1004.99	224.71
1005.28	224.75
1005.57	224.75
1005.86	224.75
1006.15	224.71
1006.44	224.72
1006.72	224.72
1007.01	224.70
1007.30	224.67
1007.59	224.69
1007.88	224.66
1008.17	224.65
1008.45	224.60
1008.74	224.57
1009.03	224.47
1009.32	224.45
1009.60	224.45
1009.89	224.46
1010.18	224.41
1010.47	224.42
1010.76	224.41
1011.04	224.39
1011.33	224.35
1011.62	224.34
1011.91	224.33
1012.19	224.36
1012.48	224.36
1012.77	224.37
1013.05	224.40
1013.34	224.38
1013.63	224.36
1013.92	224.38
1014.20	224.40
1014.49	224.42
1014.78	224.42
1015.06	224.37
1015.35	224.42
1015.64	224.37
1015.92	224.40
1016.21	224.43
1016.50	224.41
1016.78	224.40
1017.07	224.41
1017.36	224.43
1017.64	224.39
1017.93	224.40
1018.22	224.37
1018.50	224.33
1018.79	224.32
1019.08	224.27
1019.36	224.30
1019.65	224.29
1019.93	224.29
1020.22	224.31
1020.51	224.39
1020.79	224.38
1021.08	224.11
1021.36	224.26
1021.65	224.34
1021.94	224.14
1022.22	224.47
1022.51	224.25
1022.79	224.24
1023.08	224.62
1023.36	226.11
1023.65	224.22
>>>>>End Processed Spectral Data<<<<<
