SpectraSuite Data File
++++++++++++++++++++++++++++++++++++
Date: Fri Feb 01 16:14:57 EST 2013
User: group
Dark Spectrum Present: No
Reference Spectrum Present: No
Number of Sampled Component Spectra: 1
Spectrometers: USB2E7196
Integration Time (usec): 35000 (USB2E7196)
Spectra Averaged: 100 (USB2E7196)
Boxcar Smoothing: 10 (USB2E7196)
Correct for Electrical Dark: No (USB2E7196)
Strobe/Lamp Enabled: No (USB2E7196)
Correct for Detector Non-linearity: No (USB2E7196)
Correct for Stray Light: No (USB2E7196)
Number of Pixels in Processed Spectrum: 2048
>>>>>Begin Processed Spectral Data<<<<<
339.09	0.00
339.48	214.57
339.86	215.94
340.24	217.20
340.63	218.77
341.01	221.18
341.39	221.01
341.78	221.94
342.16	223.39
342.54	224.03
342.93	212.71
343.31	223.48
343.69	224.02
344.07	224.49
344.46	224.91
344.84	225.30
345.22	225.56
345.60	225.80
345.99	226.02
346.37	226.18
346.75	226.29
347.13	226.39
347.52	226.47
347.90	226.54
348.28	226.56
348.66	226.61
349.05	226.57
349.43	226.61
349.81	226.65
350.19	226.68
350.57	226.75
350.96	226.82
351.34	226.90
351.72	226.96
352.10	227.05
352.48	227.12
352.87	227.18
353.25	227.22
353.63	227.31
354.01	227.39
354.39	227.46
354.77	227.55
355.15	227.63
355.54	227.65
355.92	227.68
356.30	227.75
356.68	227.85
357.06	227.93
357.44	227.98
357.82	228.03
358.20	228.08
358.58	228.14
358.97	228.18
359.35	228.24
359.73	228.32
360.11	228.37
360.49	228.43
360.87	228.48
361.25	228.52
361.63	228.58
362.01	228.62
362.39	228.62
362.77	228.64
363.15	228.68
363.53	228.72
363.91	228.75
364.29	228.75
364.67	228.68
365.05	228.68
365.43	228.70
365.81	228.70
366.19	228.75
366.57	228.79
366.95	228.81
367.33	228.78
367.71	228.76
368.09	228.76
368.47	228.72
368.85	228.66
369.23	228.66
369.61	228.58
369.99	228.59
370.37	228.57
370.75	228.58
371.13	228.52
371.51	228.44
371.89	228.39
372.27	228.36
372.65	228.31
373.03	228.24
373.41	228.16
373.78	228.08
374.16	227.99
374.54	227.86
374.92	227.80
375.30	227.71
375.68	227.59
376.06	227.50
376.44	227.42
376.82	227.38
377.19	227.32
377.57	227.27
377.95	227.15
378.33	227.06
378.71	226.93
379.09	226.87
379.47	226.82
379.84	226.76
380.22	226.68
380.60	226.61
380.98	226.54
381.36	226.52
381.73	226.47
382.11	226.40
382.49	226.36
382.87	226.27
383.25	226.23
383.62	226.33
384.00	226.26
384.38	226.20
384.76	226.15
385.13	226.13
385.51	226.09
385.89	226.02
386.27	225.99
386.64	225.97
387.02	225.89
387.40	225.82
387.78	225.78
388.15	225.75
388.53	225.71
388.91	225.72
389.29	225.66
389.66	225.67
390.04	225.65
390.42	225.63
390.79	225.62
391.17	225.60
391.55	225.49
391.92	225.49
392.30	225.50
392.68	225.52
393.05	225.50
393.43	225.49
393.81	225.52
394.18	225.54
394.56	225.57
394.94	225.62
395.31	225.67
395.69	225.75
396.06	225.78
396.44	225.84
396.82	225.86
397.19	225.92
397.57	225.96
397.95	226.04
398.32	226.06
398.70	226.11
399.07	226.22
399.45	226.27
399.82	226.34
400.20	226.40
400.58	226.44
400.95	226.50
401.33	226.59
401.70	226.73
402.08	226.81
402.45	226.87
402.83	227.02
403.20	227.12
403.58	227.17
403.95	227.28
404.33	227.42
404.71	227.53
405.08	227.71
405.46	227.86
405.83	227.98
406.21	228.15
406.58	228.34
406.96	228.48
407.33	228.66
407.70	228.85
408.08	229.12
408.45	229.35
408.83	229.59
409.20	229.80
409.58	230.01
409.95	230.27
410.33	230.55
410.70	230.77
411.08	231.07
411.45	231.40
411.82	231.73
412.20	232.09
412.57	232.53
412.95	232.82
413.32	233.20
413.69	233.59
414.07	234.04
414.44	234.53
414.82	234.99
415.19	235.52
415.56	236.07
415.94	236.61
416.31	237.23
416.68	237.87
417.06	238.57
417.43	239.23
417.81	240.02
418.18	240.75
418.55	241.59
418.93	242.45
419.30	243.36
419.67	244.26
420.04	245.18
420.42	246.14
420.79	247.30
421.16	248.47
421.54	249.68
421.91	250.89
422.28	252.12
422.66	253.47
423.03	254.78
423.40	256.11
423.77	257.51
424.15	258.90
424.52	260.35
424.89	261.99
425.26	263.56
425.64	264.96
426.01	266.59
426.38	268.23
426.75	269.89
427.13	271.57
427.50	273.37
427.87	275.26
428.24	277.12
428.61	278.87
428.99	280.77
429.36	282.83
429.73	284.89
430.10	286.92
430.47	288.96
430.85	291.06
431.22	293.26
431.59	295.64
431.96	297.91
432.33	300.40
432.70	302.74
433.08	305.52
433.45	308.15
433.82	310.79
434.19	313.65
434.56	316.46
434.93	319.11
435.30	321.71
435.68	324.61
436.05	327.40
436.42	330.16
436.79	332.67
437.16	335.41
437.53	338.24
437.90	341.03
438.27	343.73
438.64	346.56
439.01	349.20
439.38	351.39
439.75	353.58
440.13	356.02
440.50	358.34
440.87	360.17
441.24	362.13
441.61	364.24
441.98	365.72
442.35	367.52
442.72	369.38
443.09	371.23
443.46	372.20
443.83	372.79
444.20	373.31
444.57	374.16
444.94	374.41
445.31	374.72
445.68	375.07
446.05	375.18
446.42	374.79
446.79	374.35
447.16	373.94
447.53	373.59
447.90	372.51
448.27	371.37
448.64	369.80
449.01	368.65
449.37	366.69
449.74	364.81
450.11	362.60
450.48	360.11
450.85	357.57
451.22	355.46
451.59	353.44
451.96	351.53
452.33	348.89
452.70	346.54
453.07	343.75
453.43	340.87
453.80	338.04
454.17	335.36
454.54	332.81
454.91	330.10
455.28	327.39
455.65	324.84
456.02	322.36
456.38	320.23
456.75	317.58
457.12	315.31
457.49	313.13
457.86	310.96
458.23	309.16
458.59	307.13
458.96	305.04
459.33	303.21
459.70	301.31
460.07	299.85
460.43	298.19
460.80	296.57
461.17	295.15
461.54	293.76
461.91	292.35
462.27	290.94
462.64	289.69
463.01	288.37
463.38	287.12
463.74	285.83
464.11	284.65
464.48	283.62
464.85	282.56
465.21	281.67
465.58	280.73
465.95	279.64
466.32	278.74
466.68	277.82
467.05	276.92
467.42	276.10
467.78	275.19
468.15	274.30
468.52	273.61
468.88	272.74
469.25	271.95
469.62	271.35
469.98	270.72
470.35	270.09
470.72	269.55
471.08	268.87
471.45	268.33
471.82	267.81
472.18	267.25
472.55	266.84
472.92	266.33
473.28	265.86
473.65	265.39
474.02	264.97
474.38	264.60
474.75	264.30
475.11	263.95
475.48	263.70
475.85	263.48
476.21	263.24
476.58	263.05
476.94	262.92
477.31	262.74
477.67	262.57
478.04	262.49
478.41	262.43
478.77	262.49
479.14	262.42
479.50	262.46
479.87	262.54
480.23	262.61
480.60	262.70
480.96	262.84
481.33	263.08
481.69	263.29
482.06	263.53
482.42	263.73
482.79	263.98
483.15	264.26
483.52	264.63
483.88	265.05
484.25	265.43
484.61	265.84
484.98	266.30
485.34	266.89
485.71	267.45
486.07	268.03
486.44	268.63
486.80	269.34
487.17	270.08
487.53	270.92
487.90	271.76
488.26	272.68
488.62	273.66
488.99	274.66
489.35	275.71
489.72	276.83
490.08	278.03
490.44	279.29
490.81	280.65
491.17	282.02
491.54	283.49
491.90	285.04
492.26	286.69
492.63	288.45
492.99	290.19
493.36	292.09
493.72	294.16
494.08	296.22
494.45	298.47
494.81	300.81
495.17	303.21
495.54	305.80
495.90	308.45
496.26	311.25
496.63	314.21
496.99	317.30
497.35	320.58
497.72	324.01
498.08	327.53
498.44	331.20
498.80	335.15
499.17	339.20
499.53	343.36
499.89	347.75
500.26	352.20
500.62	356.87
500.98	361.84
501.34	366.90
501.71	372.29
502.07	377.70
502.43	383.37
502.79	389.17
503.16	395.22
503.52	401.57
503.88	407.99
504.24	414.66
504.60	421.56
504.97	428.66
505.33	435.99
505.69	443.73
506.05	451.50
506.41	459.34
506.78	467.50
507.14	475.99
507.50	484.73
507.86	493.77
508.22	502.95
508.59	512.17
508.95	521.74
509.31	531.54
509.67	541.66
510.03	551.90
510.39	562.51
510.75	573.22
511.12	584.10
511.48	595.35
511.84	606.75
512.20	618.23
512.56	630.17
512.92	642.35
513.28	654.71
513.64	667.10
514.00	679.80
514.37	692.71
514.73	705.73
515.09	718.67
515.45	731.94
515.81	745.52
516.17	759.43
516.53	773.52
516.89	787.59
517.25	801.75
517.61	816.23
517.97	830.63
518.33	845.10
518.69	859.83
519.05	874.77
519.41	889.88
519.77	905.43
520.13	920.86
520.49	936.19
520.85	951.50
521.21	967.29
521.57	983.50
521.93	999.09
522.29	1015.43
522.65	1031.79
523.01	1047.94
523.37	1063.90
523.73	1080.00
524.09	1096.10
524.45	1112.37
524.81	1128.98
525.17	1145.67
525.53	1162.52
525.89	1179.33
526.25	1196.11
526.61	1212.48
526.97	1229.18
527.33	1245.66
527.68	1262.20
528.04	1278.65
528.40	1295.12
528.76	1312.04
529.12	1328.65
529.48	1345.60
529.84	1361.57
530.20	1378.13
530.56	1395.11
530.91	1412.50
531.27	1429.27
531.63	1445.73
531.99	1462.23
532.35	1478.11
532.71	1494.06
533.07	1510.30
533.42	1526.09
533.78	1542.13
534.14	1558.31
534.50	1573.52
534.86	1589.20
535.21	1604.29
535.57	1620.09
535.93	1635.68
536.29	1650.41
536.65	1665.33
537.00	1680.03
537.36	1695.32
537.72	1709.72
538.08	1724.10
538.44	1737.83
538.79	1751.74
539.15	1765.29
539.51	1778.95
539.87	1793.19
540.22	1806.71
540.58	1820.31
540.94	1833.48
541.29	1846.25
541.65	1858.84
542.01	1871.94
542.37	1884.20
542.72	1896.66
543.08	1908.44
543.44	1920.74
543.79	1932.00
544.15	1943.04
544.51	1954.64
544.87	1965.51
545.22	1976.16
545.58	1986.39
545.94	1996.08
546.29	2005.96
546.65	2015.80
547.01	2025.09
547.36	2033.76
547.72	2042.20
548.07	2050.21
548.43	2058.41
548.79	2066.26
549.14	2073.91
549.50	2081.31
549.86	2088.94
550.21	2096.17
550.57	2103.19
550.92	2109.70
551.28	2116.59
551.64	2123.61
551.99	2130.05
552.35	2136.14
552.70	2142.39
553.06	2148.37
553.41	2154.71
553.77	2160.44
554.13	2166.37
554.48	2172.41
554.84	2177.91
555.19	2183.18
555.55	2188.10
555.90	2192.66
556.26	2197.67
556.61	2202.34
556.97	2206.73
557.32	2210.90
557.68	2215.02
558.03	2219.32
558.39	2222.84
558.74	2227.54
559.10	2231.30
559.45	2234.91
559.81	2239.10
560.16	2242.90
560.52	2246.07
560.87	2249.58
561.23	2252.35
561.58	2255.36
561.94	2257.92
562.29	2260.20
562.64	2262.79
563.00	2265.41
563.35	2268.88
563.71	2271.87
564.06	2274.99
564.42	2277.69
564.77	2280.21
565.12	2282.60
565.48	2284.63
565.83	2286.61
566.19	2287.95
566.54	2288.74
566.89	2289.93
567.25	2290.66
567.60	2291.88
567.96	2293.54
568.31	2294.24
568.66	2295.49
569.02	2296.14
569.37	2296.52
569.72	2297.44
570.08	2297.82
570.43	2297.88
570.78	2297.30
571.14	2295.89
571.49	2294.61
571.84	2294.51
572.20	2293.41
572.55	2292.13
572.90	2290.62
573.26	2289.39
573.61	2287.73
573.96	2286.13
574.31	2283.21
574.67	2280.28
575.02	2276.77
575.37	2273.39
575.72	2269.74
576.08	2266.13
576.43	2262.69
576.78	2259.05
577.13	2255.92
577.49	2252.54
577.84	2249.12
578.19	2245.27
578.54	2241.74
578.90	2237.71
579.25	2232.08
579.60	2227.21
579.95	2222.35
580.30	2217.21
580.66	2211.98
581.01	2207.07
581.36	2202.13
581.71	2198.03
582.06	2193.61
582.42	2189.24
582.77	2184.11
583.12	2179.55
583.47	2174.98
583.82	2170.15
584.17	2164.99
584.53	2159.46
584.88	2154.13
585.23	2148.47
585.58	2143.14
585.93	2137.79
586.28	2132.94
586.63	2127.96
586.98	2122.85
587.34	2118.22
587.69	2113.57
588.04	2108.40
588.39	2102.76
588.74	2096.36
589.09	2090.11
589.44	2083.38
589.79	2077.26
590.14	2071.67
590.49	2065.10
590.84	2058.81
591.19	2052.81
591.54	2046.38
591.89	2039.14
592.25	2032.27
592.60	2025.03
592.95	2017.60
593.30	2010.22
593.65	2002.62
594.00	1995.46
594.35	1988.31
594.70	1980.12
595.05	1972.78
595.40	1965.57
595.75	1958.12
596.10	1952.08
596.45	1945.51
596.80	1939.41
597.15	1932.85
597.50	1925.86
597.85	1919.48
598.19	1912.85
598.54	1905.78
598.89	1899.02
599.24	1893.18
599.59	1886.66
599.94	1880.43
600.29	1874.01
600.64	1867.42
600.99	1859.98
601.34	1853.31
601.69	1846.34
602.04	1839.72
602.39	1832.53
602.74	1825.59
603.08	1818.89
603.43	1812.03
603.78	1804.75
604.13	1797.53
604.48	1790.38
604.83	1783.52
605.18	1776.64
605.53	1768.68
605.87	1760.72
606.22	1753.60
606.57	1745.69
606.92	1738.33
607.27	1731.29
607.62	1724.47
607.96	1717.24
608.31	1710.74
608.66	1703.00
609.01	1695.39
609.36	1687.76
609.70	1679.60
610.05	1671.67
610.40	1664.03
610.75	1655.77
611.10	1648.01
611.44	1639.51
611.79	1631.47
612.14	1622.69
612.49	1613.45
612.83	1605.11
613.18	1596.95
613.53	1588.89
613.88	1580.24
614.22	1571.98
614.57	1563.42
614.92	1555.36
615.27	1547.79
615.61	1539.55
615.96	1531.68
616.31	1524.10
616.65	1516.78
617.00	1509.20
617.35	1501.47
617.70	1493.05
618.04	1484.52
618.39	1476.41
618.74	1468.86
619.08	1460.51
619.43	1452.99
619.78	1446.11
620.12	1438.85
620.47	1431.33
620.82	1423.15
621.16	1415.79
621.51	1408.13
621.85	1400.38
622.20	1391.95
622.55	1383.61
622.89	1375.68
623.24	1368.00
623.59	1360.55
623.93	1352.94
624.28	1345.91
624.62	1338.33
624.97	1331.17
625.32	1324.42
625.66	1317.26
626.01	1310.14
626.35	1302.70
626.70	1294.98
627.04	1287.19
627.39	1279.47
627.73	1272.12
628.08	1265.23
628.43	1257.95
628.77	1250.59
629.12	1243.12
629.46	1235.84
629.81	1228.38
630.15	1221.07
630.50	1213.59
630.84	1205.40
631.19	1197.57
631.53	1190.00
631.88	1182.49
632.22	1174.90
632.57	1167.57
632.91	1160.13
633.26	1152.74
633.60	1145.34
633.95	1138.20
634.29	1131.24
634.64	1124.54
634.98	1117.17
635.32	1109.97
635.67	1103.39
636.01	1096.77
636.36	1089.88
636.70	1083.36
637.05	1076.88
637.39	1070.51
637.73	1064.19
638.08	1058.39
638.42	1052.34
638.77	1045.91
639.11	1039.34
639.45	1032.97
639.80	1026.36
640.14	1019.91
640.49	1013.28
640.83	1007.06
641.17	1000.84
641.52	994.43
641.86	987.88
642.20	982.01
642.55	975.69
642.89	969.12
643.23	962.50
643.58	956.82
643.92	950.65
644.26	944.60
644.61	938.54
644.95	932.40
645.29	925.76
645.64	918.97
645.98	912.53
646.32	906.67
646.66	900.59
647.01	894.83
647.35	889.09
647.69	883.27
648.04	877.62
648.38	871.81
648.72	865.86
649.06	859.86
649.41	853.89
649.75	847.94
650.09	842.09
650.43	836.35
650.78	830.09
651.12	824.20
651.46	818.45
651.80	812.72
652.14	807.35
652.49	802.00
652.83	796.88
653.17	791.32
653.51	785.59
653.85	780.11
654.20	774.44
654.54	768.45
654.88	762.73
655.22	756.87
655.56	751.15
655.90	745.68
656.25	740.53
656.59	735.22
656.93	730.09
657.27	724.88
657.61	719.45
657.95	714.41
658.29	709.28
658.64	703.98
658.98	698.63
659.32	693.16
659.66	687.91
660.00	682.63
660.34	677.61
660.68	672.71
661.02	667.75
661.36	662.98
661.70	658.46
662.05	654.06
662.39	649.74
662.73	645.27
663.07	640.90
663.41	636.41
663.75	631.88
664.09	627.31
664.43	622.93
664.77	618.80
665.11	614.51
665.45	610.39
665.79	606.29
666.13	602.20
666.47	598.09
666.81	593.99
667.15	589.82
667.49	585.89
667.83	582.02
668.17	578.09
668.51	574.04
668.85	570.05
669.19	566.20
669.53	562.38
669.87	558.51
670.21	554.80
670.55	551.17
670.89	547.76
671.23	544.38
671.57	540.84
671.91	537.30
672.25	533.84
672.58	530.25
672.92	526.87
673.26	523.66
673.60	520.54
673.94	517.49
674.28	514.63
674.62	511.72
674.96	508.68
675.30	505.81
675.64	502.92
675.97	500.12
676.31	497.27
676.65	494.38
676.99	491.70
677.33	488.87
677.67	485.99
678.01	482.99
678.34	480.03
678.68	477.18
679.02	474.39
679.36	471.57
679.70	468.89
680.04	466.16
680.37	463.31
680.71	460.45
681.05	457.79
681.39	455.04
681.73	452.32
682.06	449.79
682.40	447.20
682.74	444.69
683.08	442.14
683.42	439.58
683.75	437.06
684.09	434.40
684.43	431.91
684.77	429.47
685.10	427.06
685.44	424.69
685.78	422.40
686.12	420.13
686.45	417.89
686.79	415.58
687.13	413.34
687.46	411.17
687.80	409.07
688.14	406.85
688.48	404.79
688.81	402.57
689.15	400.38
689.49	398.19
689.82	396.07
690.16	393.98
690.50	391.98
690.83	390.03
691.17	388.12
691.51	386.23
691.84	384.39
692.18	382.48
692.52	380.55
692.85	378.61
693.19	376.75
693.52	374.92
693.86	373.13
694.20	371.31
694.53	369.50
694.87	367.57
695.21	365.74
695.54	363.89
695.88	362.18
696.21	360.48
696.55	358.83
696.88	357.08
697.22	355.38
697.56	353.73
697.89	352.05
698.23	350.43
698.56	348.81
698.90	347.20
699.23	345.52
699.57	343.96
699.90	342.41
700.24	340.88
700.58	339.32
700.91	337.82
701.25	336.39
701.58	335.02
701.92	333.69
702.25	332.30
702.59	330.94
702.92	329.58
703.26	328.28
703.59	326.95
703.93	325.79
704.26	324.56
704.60	323.27
704.93	321.99
705.26	320.75
705.60	319.59
705.93	318.43
706.27	317.41
706.60	316.39
706.94	315.32
707.27	314.14
707.61	313.07
707.94	312.04
708.27	310.95
708.61	309.86
708.94	308.91
709.28	307.99
709.61	307.06
709.94	306.13
710.28	305.13
710.61	304.17
710.95	303.10
711.28	302.20
711.61	301.27
711.95	300.39
712.28	299.46
712.61	298.44
712.95	297.56
713.28	296.67
713.61	295.76
713.95	294.88
714.28	294.04
714.61	293.21
714.95	292.35
715.28	291.51
715.61	290.63
715.95	289.74
716.28	288.85
716.61	287.95
716.95	287.13
717.28	286.39
717.61	285.64
717.94	284.93
718.28	284.12
718.61	283.36
718.94	282.69
719.27	281.99
719.61	281.37
719.94	280.65
720.27	279.93
720.60	279.22
720.94	278.63
721.27	278.05
721.60	277.44
721.93	276.86
722.27	276.30
722.60	275.76
722.93	275.19
723.26	274.64
723.59	274.13
723.93	273.58
724.26	273.04
724.59	272.48
724.92	271.93
725.25	271.47
725.59	271.00
725.92	270.48
726.25	269.97
726.58	269.46
726.91	268.97
727.24	268.47
727.57	268.04
727.91	267.45
728.24	266.96
728.57	266.47
728.90	265.98
729.23	265.44
729.56	265.01
729.89	264.56
730.22	264.10
730.55	263.59
730.89	263.19
731.22	262.69
731.55	262.26
731.88	261.86
732.21	261.40
732.54	260.97
732.87	260.51
733.20	260.14
733.53	259.76
733.86	259.39
734.19	259.02
734.52	258.60
734.85	258.35
735.18	257.98
735.51	257.66
735.84	257.29
736.17	256.98
736.50	256.56
736.83	256.32
737.16	255.99
737.49	255.70
737.82	255.31
738.15	254.98
738.48	254.66
738.81	254.32
739.14	254.01
739.47	253.67
739.80	253.33
740.13	253.02
740.46	252.69
740.79	252.36
741.12	252.04
741.45	251.78
741.78	251.43
742.11	251.13
742.44	250.77
742.77	250.49
743.10	250.19
743.43	249.94
743.75	249.56
744.08	249.39
744.41	249.08
744.74	248.80
745.07	248.53
745.40	248.28
745.73	248.05
746.06	247.78
746.39	247.52
746.71	247.28
747.04	246.99
747.37	246.75
747.70	246.52
748.03	246.24
748.36	246.01
748.68	245.77
749.01	245.51
749.34	245.32
749.67	245.10
750.00	244.88
750.33	244.70
750.65	244.48
750.98	244.15
751.31	243.92
751.64	243.73
751.97	243.57
752.29	243.36
752.62	243.10
752.95	242.86
753.28	242.63
753.60	242.47
753.93	242.33
754.26	242.12
754.59	241.91
754.91	241.73
755.24	241.52
755.57	241.34
755.90	241.17
756.22	240.97
756.55	240.79
756.88	240.59
757.20	240.35
757.53	240.14
757.86	239.99
758.19	239.84
758.51	239.68
758.84	239.47
759.17	239.28
759.49	239.16
759.82	239.05
760.15	238.89
760.47	238.73
760.80	238.50
761.13	238.36
761.45	238.21
761.78	238.06
762.11	237.92
762.43	237.75
762.76	237.60
763.08	237.49
763.41	237.36
763.74	237.23
764.06	237.10
764.39	236.96
764.71	236.82
765.04	236.71
765.37	236.55
765.69	236.44
766.02	236.30
766.34	236.17
766.67	236.02
767.00	235.95
767.32	235.89
767.65	235.87
767.97	235.77
768.30	235.65
768.62	235.52
768.95	235.38
769.27	235.26
769.60	235.15
769.92	235.01
770.25	234.88
770.57	234.75
770.90	234.64
771.22	234.55
771.55	234.41
771.87	234.30
772.20	234.19
772.52	234.15
772.85	234.20
773.17	234.09
773.50	234.00
773.82	233.88
774.15	233.71
774.47	233.55
774.80	233.44
775.12	233.38
775.45	233.33
775.77	233.26
776.09	233.18
776.42	233.12
776.74	233.07
777.07	232.97
777.39	232.88
777.72	232.81
778.04	232.74
778.36	232.68
778.69	232.66
779.01	232.61
779.33	232.45
779.66	232.26
779.98	232.18
780.31	232.11
780.63	232.11
780.95	232.09
781.28	232.05
781.60	231.99
781.92	231.91
782.25	231.85
782.57	231.79
782.89	231.74
783.22	231.65
783.54	231.57
783.86	231.53
784.19	231.48
784.51	231.46
784.83	231.38
785.16	231.33
785.48	231.22
785.80	231.17
786.12	231.14
786.45	231.12
786.77	231.09
787.09	231.04
787.42	230.96
787.74	230.93
788.06	230.88
788.38	230.85
788.71	230.80
789.03	230.76
789.35	230.75
789.67	230.68
789.99	230.65
790.32	230.62
790.64	230.61
790.96	230.67
791.28	230.61
791.61	230.58
791.93	230.55
792.25	230.52
792.57	230.57
792.89	230.50
793.21	230.47
793.54	230.45
793.86	230.39
794.18	230.34
794.50	230.25
794.82	230.22
795.14	230.21
795.47	230.21
795.79	230.16
796.11	230.10
796.43	230.11
796.75	230.08
797.07	230.04
797.39	229.99
797.71	229.90
798.04	229.88
798.36	229.84
798.68	229.81
799.00	229.80
799.32	229.70
799.64	229.70
799.96	229.66
800.28	229.64
800.60	229.61
800.92	229.58
801.24	229.57
801.56	229.54
801.89	229.47
802.21	229.45
802.53	229.42
802.85	229.41
803.17	229.38
803.49	229.38
803.81	229.34
804.13	229.30
804.45	229.24
804.77	229.22
805.09	229.17
805.41	229.14
805.73	229.13
806.05	229.06
806.37	229.02
806.69	228.97
807.01	228.93
807.33	228.95
807.65	228.90
807.97	228.93
808.28	228.90
808.60	228.87
808.92	228.82
809.24	228.86
809.56	228.81
809.88	228.77
810.20	228.71
810.52	228.68
810.84	228.62
811.16	228.60
811.48	228.55
811.80	228.58
812.12	228.53
812.43	228.48
812.75	228.47
813.07	228.46
813.39	228.47
813.71	228.43
814.03	228.36
814.35	228.35
814.67	228.23
814.98	228.21
815.30	228.19
815.62	228.12
815.94	228.06
816.26	228.11
816.58	228.05
816.89	228.05
817.21	228.04
817.53	228.02
817.85	228.03
818.17	228.01
818.48	227.99
818.80	228.02
819.12	228.01
819.44	227.99
819.76	227.96
820.07	227.91
820.39	227.91
820.71	227.89
821.03	227.89
821.34	227.89
821.66	227.87
821.98	227.84
822.30	227.82
822.61	227.83
822.93	227.76
823.25	227.74
823.57	227.71
823.88	227.69
824.20	227.69
824.52	227.66
824.83	227.64
825.15	227.62
825.47	227.57
825.79	227.55
826.10	227.51
826.42	227.49
826.74	227.50
827.05	227.49
827.37	227.49
827.69	227.46
828.00	227.44
828.32	227.46
828.64	227.46
828.95	227.54
829.27	227.51
829.58	227.51
829.90	227.54
830.22	227.55
830.53	227.56
830.85	227.55
831.17	227.55
831.48	227.53
831.80	227.50
832.11	227.50
832.43	227.49
832.75	227.51
833.06	227.56
833.38	227.54
833.69	227.53
834.01	227.51
834.32	227.51
834.64	227.52
834.96	227.49
835.27	227.46
835.59	227.41
835.90	227.40
836.22	227.40
836.53	227.38
836.85	227.36
837.16	227.43
837.48	227.42
837.79	227.45
838.11	227.44
838.42	227.47
838.74	227.46
839.05	227.45
839.37	227.45
839.68	227.38
840.00	227.37
840.31	227.38
840.63	227.38
840.94	227.37
841.26	227.36
841.57	227.32
841.88	227.33
842.20	227.30
842.51	227.28
842.83	227.24
843.14	227.32
843.46	227.32
843.77	227.25
844.08	227.23
844.40	227.21
844.71	227.18
845.03	227.11
845.34	227.12
845.65	227.08
845.97	227.07
846.28	227.06
846.60	227.09
846.91	227.05
847.22	227.00
847.54	227.00
847.85	226.99
848.16	227.00
848.48	226.98
848.79	227.00
849.10	227.00
849.42	226.96
849.73	226.84
850.04	226.84
850.36	226.80
850.67	226.82
850.98	226.80
851.30	226.81
851.61	226.83
851.92	226.79
852.23	226.86
852.55	226.86
852.86	226.86
853.17	226.84
853.49	226.85
853.80	226.91
854.11	226.93
854.42	226.93
854.74	226.92
855.05	226.93
855.36	226.89
855.67	226.88
855.99	226.91
856.30	227.04
856.61	227.01
856.92	227.03
857.23	227.01
857.55	226.98
857.86	226.99
858.17	227.01
858.48	227.01
858.79	226.98
859.11	226.98
859.42	226.96
859.73	226.94
860.04	226.93
860.35	226.89
860.66	226.85
860.98	226.84
861.29	226.85
861.60	226.82
861.91	226.84
862.22	226.83
862.53	226.81
862.84	226.69
863.16	226.72
863.47	226.69
863.78	226.70
864.09	226.69
864.40	226.69
864.71	226.66
865.02	226.65
865.33	226.61
865.64	226.61
865.95	226.60
866.27	226.66
866.58	226.67
866.89	226.68
867.20	226.67
867.51	226.66
867.82	226.66
868.13	226.71
868.44	226.67
868.75	226.67
869.06	226.70
869.37	226.69
869.68	226.67
869.99	226.69
870.30	226.65
870.61	226.64
870.92	226.66
871.23	226.65
871.54	226.67
871.85	226.71
872.16	226.69
872.47	226.68
872.78	226.64
873.09	226.63
873.40	226.63
873.71	226.63
874.02	226.63
874.33	226.60
874.64	226.56
874.95	226.60
875.26	226.63
875.56	226.63
875.87	226.64
876.18	226.63
876.49	226.73
876.80	226.77
877.11	226.77
877.42	226.71
877.73	226.71
878.04	226.71
878.35	226.70
878.66	226.73
878.96	226.74
879.27	226.73
879.58	226.74
879.89	226.72
880.20	226.74
880.51	226.74
880.82	226.75
881.12	226.75
881.43	226.70
881.74	226.64
882.05	226.64
882.36	226.64
882.67	226.65
882.97	226.53
883.28	226.50
883.59	226.49
883.90	226.52
884.21	226.53
884.51	226.50
884.82	226.48
885.13	226.45
885.44	226.43
885.74	226.41
886.05	226.41
886.36	226.41
886.67	226.37
886.98	226.43
887.28	226.40
887.59	226.40
887.90	226.42
888.20	226.42
888.51	226.42
888.82	226.39
889.13	226.39
889.43	226.46
889.74	226.46
890.05	226.44
890.35	226.43
890.66	226.41
890.97	226.40
891.28	226.39
891.58	226.38
891.89	226.37
892.20	226.36
892.50	226.35
892.81	226.35
893.12	226.32
893.42	226.25
893.73	226.27
894.04	226.28
894.34	226.29
894.65	226.30
894.95	226.30
895.26	226.32
895.57	226.36
895.87	226.27
896.18	226.28
896.48	226.32
896.79	226.32
897.10	226.35
897.40	226.35
897.71	226.39
898.01	226.40
898.32	226.40
898.63	226.40
898.93	226.40
899.24	226.39
899.54	226.42
899.85	226.39
900.15	226.36
900.46	226.35
900.76	226.35
901.07	226.33
901.38	226.28
901.68	226.28
901.99	226.21
902.29	226.20
902.60	226.18
902.90	226.16
903.21	226.16
903.51	226.13
903.82	226.18
904.12	226.15
904.43	226.14
904.73	226.15
905.03	226.15
905.34	226.22
905.64	226.21
905.95	226.22
906.25	226.24
906.56	226.28
906.86	226.30
907.17	226.29
907.47	226.32
907.77	226.36
908.08	226.35
908.38	226.36
908.69	226.40
908.99	226.41
909.30	226.45
909.60	226.47
909.90	226.49
910.21	226.46
910.51	226.45
910.81	226.45
911.12	226.50
911.42	226.50
911.73	226.45
912.03	226.46
912.33	226.47
912.64	226.50
912.94	226.47
913.24	226.45
913.55	226.47
913.85	226.47
914.15	226.45
914.46	226.49
914.76	226.50
915.06	226.49
915.37	226.48
915.67	226.46
915.97	226.47
916.27	226.44
916.58	226.45
916.88	226.43
917.18	226.42
917.49	226.45
917.79	226.46
918.09	226.46
918.39	226.51
918.70	226.52
919.00	226.53
919.30	226.59
919.60	226.60
919.91	226.57
920.21	226.55
920.51	226.56
920.81	226.53
921.12	226.53
921.42	226.56
921.72	226.56
922.02	226.57
922.32	226.58
922.63	226.59
922.93	226.62
923.23	226.63
923.53	226.65
923.83	226.57
924.13	226.57
924.44	226.54
924.74	226.48
925.04	226.48
925.34	226.44
925.64	226.39
925.94	226.37
926.24	226.42
926.55	226.44
926.85	226.42
927.15	226.43
927.45	226.41
927.75	226.37
928.05	226.39
928.35	226.36
928.65	226.33
928.95	226.33
929.26	226.28
929.56	226.27
929.86	226.24
930.16	226.24
930.46	226.24
930.76	226.24
931.06	226.26
931.36	226.23
931.66	226.26
931.96	226.25
932.26	226.24
932.56	226.19
932.86	226.14
933.16	226.14
933.46	226.12
933.76	226.13
934.06	226.16
934.36	226.17
934.66	226.17
934.96	226.15
935.26	226.13
935.56	226.15
935.86	226.13
936.16	226.10
936.46	226.10
936.76	226.08
937.06	226.09
937.36	226.06
937.66	226.04
937.96	226.02
938.26	225.98
938.56	226.01
938.86	226.02
939.16	226.08
939.46	226.11
939.76	226.12
940.06	226.10
940.35	226.08
940.65	226.04
940.95	226.03
941.25	226.01
941.55	226.02
941.85	226.01
942.15	226.05
942.45	226.09
942.75	226.08
943.04	226.10
943.34	226.11
943.64	226.13
943.94	226.11
944.24	226.11
944.54	226.15
944.84	226.11
945.13	226.10
945.43	226.07
945.73	226.07
946.03	226.06
946.33	226.08
946.62	226.08
946.92	226.06
947.22	226.08
947.52	226.13
947.82	226.15
948.11	226.14
948.41	226.15
948.71	226.14
949.01	226.15
949.31	226.13
949.60	226.11
949.90	226.13
950.20	226.15
950.50	226.19
950.79	226.19
951.09	226.27
951.39	226.25
951.69	226.28
951.98	226.30
952.28	226.31
952.58	226.27
952.87	226.28
953.17	226.33
953.47	226.33
953.76	226.29
954.06	226.27
954.36	226.28
954.66	226.25
954.95	226.27
955.25	226.26
955.55	226.27
955.84	226.26
956.14	226.26
956.44	226.26
956.73	226.22
957.03	226.21
957.32	226.18
957.62	226.23
957.92	226.20
958.21	226.21
958.51	226.30
958.81	226.35
959.10	226.35
959.40	226.36
959.69	226.35
959.99	226.37
960.29	226.37
960.58	226.35
960.88	226.40
961.17	226.40
961.47	226.42
961.76	226.42
962.06	226.45
962.36	226.43
962.65	226.46
962.95	226.46
963.24	226.45
963.54	226.45
963.83	226.43
964.13	226.44
964.42	226.36
964.72	226.32
965.01	226.34
965.31	226.33
965.60	226.30
965.90	226.38
966.19	226.39
966.49	226.40
966.78	226.41
967.08	226.39
967.37	226.36
967.67	226.31
967.96	226.36
968.26	226.34
968.55	226.36
968.85	226.31
969.14	226.30
969.43	226.32
969.73	226.30
970.02	226.30
970.32	226.25
970.61	226.29
970.91	226.25
971.20	226.19
971.49	226.19
971.79	226.23
972.08	226.14
972.38	226.12
972.67	226.08
972.96	226.09
973.26	226.09
973.55	226.12
973.85	226.16
974.14	226.10
974.43	226.13
974.73	226.12
975.02	226.13
975.31	226.13
975.61	226.11
975.90	226.11
976.19	226.11
976.49	226.14
976.78	226.12
977.07	226.07
977.37	226.06
977.66	226.04
977.95	226.01
978.24	226.01
978.54	226.05
978.83	226.04
979.12	226.05
979.42	226.03
979.71	226.02
980.00	226.01
980.29	226.03
980.59	226.00
980.88	226.05
981.17	226.03
981.46	226.03
981.76	226.05
982.05	226.07
982.34	226.05
982.63	226.05
982.93	226.11
983.22	226.17
983.51	226.20
983.80	226.24
984.09	226.25
984.39	226.28
984.68	226.26
984.97	226.29
985.26	226.29
985.55	226.32
985.85	226.32
986.14	226.33
986.43	226.36
986.72	226.36
987.01	226.29
987.30	226.32
987.59	226.37
987.89	226.37
988.18	226.32
988.47	226.32
988.76	226.33
989.05	226.28
989.34	226.27
989.63	226.30
989.92	226.26
990.22	226.26
990.51	226.24
990.80	226.21
991.09	226.18
991.38	226.17
991.67	226.13
991.96	226.13
992.25	226.12
992.54	226.09
992.83	226.09
993.12	226.08
993.41	226.06
993.70	226.03
993.99	226.03
994.28	226.08
994.58	226.11
994.87	226.11
995.16	226.13
995.45	226.12
995.74	226.07
996.03	226.08
996.32	226.09
996.61	226.11
996.90	226.14
997.19	226.17
997.48	226.18
997.77	226.19
998.06	226.19
998.34	226.18
998.63	226.16
998.92	226.16
999.21	226.20
999.50	226.18
999.79	226.18
1000.08	226.21
1000.37	226.18
1000.66	226.13
1000.95	226.14
1001.24	226.15
1001.53	226.15
1001.82	226.16
1002.11	226.15
1002.40	226.18
1002.68	226.21
1002.97	226.25
1003.26	226.23
1003.55	226.21
1003.84	226.20
1004.13	226.19
1004.42	226.18
1004.71	226.24
1004.99	226.21
1005.28	226.23
1005.57	226.22
1005.86	226.21
1006.15	226.17
1006.44	226.14
1006.72	226.20
1007.01	226.17
1007.30	226.16
1007.59	226.12
1007.88	226.09
1008.17	226.07
1008.45	226.01
1008.74	225.97
1009.03	225.96
1009.32	225.97
1009.60	225.98
1009.89	225.97
1010.18	225.97
1010.47	225.96
1010.76	225.92
1011.04	225.93
1011.33	225.93
1011.62	225.94
1011.91	225.94
1012.19	225.96
1012.48	225.98
1012.77	225.96
1013.05	226.02
1013.34	225.99
1013.63	226.02
1013.92	226.05
1014.20	226.03
1014.49	226.07
1014.78	226.07
1015.06	226.01
1015.35	226.01
1015.64	226.03
1015.92	226.06
1016.21	226.04
1016.50	226.08
1016.78	226.09
1017.07	226.09
1017.36	226.06
1017.64	226.09
1017.93	226.08
1018.22	226.03
1018.50	226.03
1018.79	226.00
1019.08	225.95
1019.36	225.97
1019.65	225.98
1019.93	226.01
1020.22	226.05
1020.51	226.10
1020.79	226.09
1021.08	225.38
1021.36	225.71
1021.65	225.56
1021.94	226.15
1022.22	225.90
1022.51	226.29
1022.79	226.51
1023.08	226.36
1023.36	227.51
1023.65	226.00
>>>>>End Processed Spectral Data<<<<<
