SpectraSuite Data File
++++++++++++++++++++++++++++++++++++
Date: Fri Feb 01 15:55:03 EST 2013
User: group
Dark Spectrum Present: No
Reference Spectrum Present: No
Number of Sampled Component Spectra: 1
Spectrometers: USB2E7196
Integration Time (usec): 35000 (USB2E7196)
Spectra Averaged: 100 (USB2E7196)
Boxcar Smoothing: 10 (USB2E7196)
Correct for Electrical Dark: No (USB2E7196)
Strobe/Lamp Enabled: No (USB2E7196)
Correct for Detector Non-linearity: No (USB2E7196)
Correct for Stray Light: No (USB2E7196)
Number of Pixels in Processed Spectrum: 2048
>>>>>Begin Processed Spectral Data<<<<<
339.09	0.00
339.48	214.58
339.86	216.19
340.24	217.54
340.63	219.09
341.01	221.62
341.39	222.09
341.78	223.24
342.16	224.31
342.54	225.18
342.93	213.27
343.31	224.02
343.69	224.55
344.07	225.01
344.46	225.41
344.84	225.78
345.22	226.02
345.60	226.24
345.99	226.43
346.37	226.55
346.75	226.61
347.13	226.68
347.52	226.73
347.90	226.79
348.28	226.81
348.66	226.86
349.05	226.84
349.43	226.86
349.81	226.91
350.19	226.94
350.57	226.95
350.96	227.03
351.34	227.09
351.72	227.20
352.10	227.31
352.48	227.42
352.87	227.48
353.25	227.54
353.63	227.62
354.01	227.67
354.39	227.73
354.77	227.81
355.15	227.89
355.54	227.96
355.92	228.00
356.30	228.10
356.68	228.22
357.06	228.25
357.44	228.31
357.82	228.38
358.20	228.45
358.58	228.55
358.97	228.62
359.35	228.71
359.73	228.79
360.11	228.81
360.49	228.89
360.87	228.94
361.25	229.00
361.63	229.10
362.01	229.15
362.39	229.21
362.77	229.27
363.15	229.30
363.53	229.33
363.91	229.37
364.29	229.40
364.67	229.33
365.05	229.35
365.43	229.35
365.81	229.36
366.19	229.43
366.57	229.45
366.95	229.44
367.33	229.42
367.71	229.42
368.09	229.43
368.47	229.37
368.85	229.34
369.23	229.34
369.61	229.23
369.99	229.22
370.37	229.22
370.75	229.20
371.13	229.13
371.51	229.07
371.89	229.01
372.27	228.93
372.65	228.90
373.03	228.88
373.41	228.83
373.78	228.79
374.16	228.66
374.54	228.54
374.92	228.47
375.30	228.42
375.68	228.33
376.06	228.25
376.44	228.20
376.82	228.16
377.19	228.09
377.57	228.04
377.95	227.94
378.33	227.86
378.71	227.75
379.09	227.70
379.47	227.64
379.84	227.56
380.22	227.52
380.60	227.42
380.98	227.31
381.36	227.23
381.73	227.13
382.11	227.08
382.49	227.06
382.87	226.99
383.25	226.92
383.62	226.95
384.00	226.87
384.38	226.85
384.76	226.79
385.13	226.75
385.51	226.69
385.89	226.61
386.27	226.55
386.64	226.49
387.02	226.44
387.40	226.37
387.78	226.33
388.15	226.31
388.53	226.25
388.91	226.25
389.29	226.23
389.66	226.22
390.04	226.20
390.42	226.19
390.79	226.14
391.17	226.16
391.55	226.02
391.92	226.00
392.30	225.98
392.68	225.98
393.05	225.96
393.43	225.97
393.81	226.00
394.18	225.99
394.56	226.03
394.94	226.09
395.31	226.13
395.69	226.18
396.06	226.20
396.44	226.27
396.82	226.33
397.19	226.43
397.57	226.48
397.95	226.55
398.32	226.57
398.70	226.68
399.07	226.75
399.45	226.83
399.82	226.89
400.20	226.94
400.58	227.01
400.95	227.06
401.33	227.19
401.70	227.31
402.08	227.43
402.45	227.52
402.83	227.61
403.20	227.71
403.58	227.82
403.95	227.97
404.33	228.10
404.71	228.23
405.08	228.40
405.46	228.56
405.83	228.72
406.21	228.90
406.58	229.06
406.96	229.23
407.33	229.42
407.70	229.66
408.08	229.94
408.45	230.16
408.83	230.42
409.20	230.64
409.58	230.84
409.95	231.12
410.33	231.39
410.70	231.65
411.08	231.98
411.45	232.32
411.82	232.61
412.20	232.98
412.57	233.41
412.95	233.67
413.32	234.04
413.69	234.47
414.07	234.87
414.44	235.34
414.82	235.82
415.19	236.39
415.56	236.93
415.94	237.46
416.31	238.12
416.68	238.72
417.06	239.42
417.43	240.10
417.81	240.85
418.18	241.62
418.55	242.46
418.93	243.30
419.30	244.17
419.67	245.12
420.04	246.05
420.42	247.01
420.79	248.24
421.16	249.38
421.54	250.53
421.91	251.76
422.28	253.01
422.66	254.37
423.03	255.65
423.40	256.98
423.77	258.42
424.15	259.75
424.52	261.27
424.89	262.91
425.26	264.49
425.64	265.96
426.01	267.56
426.38	269.21
426.75	270.87
427.13	272.58
427.50	274.36
427.87	276.26
428.24	278.11
428.61	279.82
428.99	281.74
429.36	283.84
429.73	285.86
430.10	287.82
430.47	289.85
430.85	291.94
431.22	294.14
431.59	296.51
431.96	298.76
432.33	301.23
432.70	303.55
433.08	306.34
433.45	308.97
433.82	311.60
434.19	314.52
434.56	317.30
434.93	319.98
435.30	322.60
435.68	325.46
436.05	328.28
436.42	331.08
436.79	333.61
437.16	336.29
437.53	339.16
437.90	342.04
438.27	344.73
438.64	347.56
439.01	350.16
439.38	352.41
439.75	354.65
440.13	357.15
440.50	359.51
440.87	361.36
441.24	363.29
441.61	365.42
441.98	366.87
442.35	368.71
442.72	370.54
443.09	372.33
443.46	373.32
443.83	373.93
444.20	374.44
444.57	375.29
444.94	375.59
445.31	375.91
445.68	376.24
446.05	376.33
446.42	375.95
446.79	375.59
447.16	375.12
447.53	374.77
447.90	373.58
448.27	372.39
448.64	370.79
449.01	369.62
449.37	367.62
449.74	365.77
450.11	363.50
450.48	361.03
450.85	358.54
451.22	356.38
451.59	354.39
451.96	352.45
452.33	349.85
452.70	347.49
453.07	344.68
453.43	341.82
453.80	339.06
454.17	336.40
454.54	333.78
454.91	331.09
455.28	328.39
455.65	325.92
456.02	323.50
456.38	321.34
456.75	318.71
457.12	316.48
457.49	314.20
457.86	312.09
458.23	310.25
458.59	308.19
458.96	306.10
459.33	304.18
459.70	302.34
460.07	300.83
460.43	299.16
460.80	297.54
461.17	296.08
461.54	294.62
461.91	293.19
462.27	291.78
462.64	290.50
463.01	289.18
463.38	287.86
463.74	286.51
464.11	285.33
464.48	284.32
464.85	283.19
465.21	282.35
465.58	281.37
465.95	280.28
466.32	279.37
466.68	278.53
467.05	277.66
467.42	276.75
467.78	275.82
468.15	274.94
468.52	274.26
468.88	273.38
469.25	272.62
469.62	272.01
469.98	271.33
470.35	270.72
470.72	270.09
471.08	269.45
471.45	268.90
471.82	268.37
472.18	267.80
472.55	267.39
472.92	266.85
473.28	266.42
473.65	265.94
474.02	265.50
474.38	265.11
474.75	264.78
475.11	264.45
475.48	264.13
475.85	263.91
476.21	263.67
476.58	263.49
476.94	263.35
477.31	263.15
477.67	263.02
478.04	262.92
478.41	262.88
478.77	262.96
479.14	262.89
479.50	262.90
479.87	262.96
480.23	263.03
480.60	263.10
480.96	263.17
481.33	263.41
481.69	263.61
482.06	263.81
482.42	264.00
482.79	264.23
483.15	264.57
483.52	264.90
483.88	265.28
484.25	265.66
484.61	266.09
484.98	266.58
485.34	267.17
485.71	267.76
486.07	268.37
486.44	268.92
486.80	269.64
487.17	270.37
487.53	271.16
487.90	272.01
488.26	272.94
488.62	273.96
488.99	274.90
489.35	275.95
489.72	277.07
490.08	278.32
490.44	279.55
490.81	280.89
491.17	282.28
491.54	283.75
491.90	285.31
492.26	286.98
492.63	288.69
492.99	290.43
493.36	292.30
493.72	294.33
494.08	296.42
494.45	298.68
494.81	301.10
495.17	303.59
495.54	306.17
495.90	308.88
496.26	311.69
496.63	314.65
496.99	317.78
497.35	321.08
497.72	324.48
498.08	328.09
498.44	331.75
498.80	335.64
499.17	339.66
499.53	343.82
499.89	348.19
500.26	352.71
500.62	357.41
500.98	362.47
501.34	367.56
501.71	372.92
502.07	378.32
502.43	383.87
502.79	389.68
503.16	395.76
503.52	402.00
503.88	408.45
504.24	415.15
504.60	422.00
504.97	429.12
505.33	436.42
505.69	444.05
506.05	451.85
506.41	459.77
506.78	467.94
507.14	476.45
507.50	485.15
507.86	494.16
508.22	503.33
508.59	512.47
508.95	522.07
509.31	531.96
509.67	542.06
510.03	552.46
510.39	562.98
510.75	573.72
511.12	584.70
511.48	595.98
511.84	607.41
512.20	618.92
512.56	630.84
512.92	643.05
513.28	655.44
513.64	667.88
514.00	680.59
514.37	693.57
514.73	706.54
515.09	719.55
515.45	732.94
515.81	746.50
516.17	760.50
516.53	774.57
516.89	788.61
517.25	802.84
517.61	817.19
517.97	831.68
518.33	846.18
518.69	860.88
519.05	875.89
519.41	891.01
519.77	906.67
520.13	922.25
520.49	937.61
520.85	953.00
521.21	968.72
521.57	984.94
521.93	1000.65
522.29	1017.09
522.65	1033.30
523.01	1049.46
523.37	1065.54
523.73	1081.66
524.09	1097.67
524.45	1113.98
524.81	1130.58
525.17	1147.33
525.53	1164.15
525.89	1181.01
526.25	1197.85
526.61	1214.17
526.97	1230.92
527.33	1247.29
527.68	1263.79
528.04	1280.20
528.40	1296.91
528.76	1313.97
529.12	1330.57
529.48	1347.38
529.84	1363.30
530.20	1380.01
530.56	1396.91
530.91	1414.26
531.27	1431.01
531.63	1447.68
531.99	1464.27
532.35	1480.09
532.71	1496.02
533.07	1512.28
533.42	1528.14
533.78	1544.14
534.14	1560.45
534.50	1575.82
534.86	1591.64
535.21	1606.70
535.57	1622.67
535.93	1637.96
536.29	1652.75
536.65	1667.78
537.00	1682.51
537.36	1697.91
537.72	1712.32
538.08	1726.64
538.44	1740.44
538.79	1754.20
539.15	1767.75
539.51	1781.43
539.87	1795.76
540.22	1809.48
540.58	1823.28
540.94	1836.51
541.29	1849.38
541.65	1861.93
542.01	1875.10
542.37	1887.41
542.72	1899.83
543.08	1911.44
543.44	1923.85
543.79	1935.07
544.15	1945.91
544.51	1957.52
544.87	1968.42
545.22	1979.20
545.58	1989.57
545.94	1999.19
546.29	2009.06
546.65	2018.86
547.01	2028.17
547.36	2036.87
547.72	2045.33
548.07	2053.01
548.43	2061.20
548.79	2069.26
549.14	2076.78
549.50	2084.14
549.86	2091.67
550.21	2099.13
550.57	2106.42
550.92	2112.96
551.28	2119.99
551.64	2127.10
551.99	2133.52
552.35	2139.57
552.70	2145.83
553.06	2151.60
553.41	2158.07
553.77	2164.03
554.13	2170.08
554.48	2176.18
554.84	2181.62
555.19	2186.72
555.55	2191.94
555.90	2196.41
556.26	2201.17
556.61	2205.88
556.97	2210.04
557.32	2214.35
557.68	2218.46
558.03	2222.82
558.39	2226.50
558.74	2231.24
559.10	2235.18
559.45	2238.93
559.81	2243.38
560.16	2247.18
560.52	2250.49
560.87	2253.74
561.23	2256.49
561.58	2259.47
561.94	2261.94
562.29	2264.47
562.64	2267.24
563.00	2269.77
563.35	2273.27
563.71	2276.42
564.06	2279.71
564.42	2282.60
564.77	2285.04
565.12	2287.16
565.48	2288.89
565.83	2290.73
566.19	2291.86
566.54	2292.69
566.89	2293.71
567.25	2294.29
567.60	2295.53
567.96	2297.25
568.31	2298.14
568.66	2299.22
569.02	2299.73
569.37	2300.10
569.72	2300.82
570.08	2300.97
570.43	2301.17
570.78	2300.58
571.14	2299.04
571.49	2297.74
571.84	2297.47
572.20	2296.32
572.55	2295.30
572.90	2293.73
573.26	2292.25
573.61	2290.62
573.96	2288.94
574.31	2286.04
574.67	2283.03
575.02	2279.38
575.37	2276.02
575.72	2272.31
576.08	2269.06
576.43	2265.80
576.78	2262.15
577.13	2259.08
577.49	2256.03
577.84	2252.46
578.19	2248.70
578.54	2245.07
578.90	2240.73
579.25	2235.23
579.60	2230.21
579.95	2225.24
580.30	2220.28
580.66	2215.31
581.01	2210.38
581.36	2205.40
581.71	2201.35
582.06	2196.83
582.42	2192.48
582.77	2187.31
583.12	2182.82
583.47	2178.07
583.82	2173.18
584.17	2167.96
584.53	2162.41
584.88	2156.84
585.23	2151.09
585.58	2145.66
585.93	2140.28
586.28	2135.62
586.63	2130.41
586.98	2125.50
587.34	2120.88
587.69	2116.08
588.04	2110.82
588.39	2105.14
588.74	2098.57
589.09	2092.44
589.44	2085.62
589.79	2079.61
590.14	2074.01
590.49	2067.52
590.84	2061.18
591.19	2054.95
591.54	2048.50
591.89	2041.13
592.25	2034.31
592.60	2027.11
592.95	2019.52
593.30	2012.09
593.65	2004.49
594.00	1997.56
594.35	1990.29
594.70	1982.13
595.05	1974.80
595.40	1967.55
595.75	1960.07
596.10	1953.87
596.45	1946.96
596.80	1940.75
597.15	1934.07
597.50	1926.93
597.85	1920.32
598.19	1913.56
598.54	1906.41
598.89	1899.82
599.24	1893.93
599.59	1887.14
599.94	1880.97
600.29	1874.59
600.64	1868.13
600.99	1860.62
601.34	1853.62
601.69	1846.64
602.04	1839.79
602.39	1832.51
602.74	1825.65
603.08	1818.82
603.43	1812.10
603.78	1804.85
604.13	1797.69
604.48	1790.32
604.83	1783.46
605.18	1776.42
605.53	1768.38
605.87	1760.50
606.22	1753.10
606.57	1745.13
606.92	1737.95
607.27	1730.58
607.62	1723.75
607.96	1716.36
608.31	1709.81
608.66	1702.29
609.01	1694.77
609.36	1687.14
609.70	1679.03
610.05	1670.96
610.40	1663.30
610.75	1655.04
611.10	1647.32
611.44	1638.94
611.79	1631.06
612.14	1622.40
612.49	1613.27
612.83	1605.09
613.18	1596.95
613.53	1588.95
613.88	1580.35
614.22	1572.01
614.57	1563.48
614.92	1555.35
615.27	1547.89
615.61	1539.52
615.96	1531.47
616.31	1523.85
616.65	1516.50
617.00	1508.93
617.35	1501.27
617.70	1492.92
618.04	1484.41
618.39	1476.30
618.74	1468.63
619.08	1460.28
619.43	1452.72
619.78	1445.84
620.12	1438.55
620.47	1431.19
620.82	1423.01
621.16	1415.71
621.51	1408.07
621.85	1400.51
622.20	1392.00
622.55	1383.53
622.89	1375.66
623.24	1368.10
623.59	1360.64
623.93	1353.18
624.28	1346.01
624.62	1338.40
624.97	1331.19
625.32	1324.49
625.66	1317.45
626.01	1310.34
626.35	1302.81
626.70	1295.04
627.04	1287.34
627.39	1279.58
627.73	1272.07
628.08	1265.08
628.43	1257.75
628.77	1250.45
629.12	1242.93
629.46	1235.89
629.81	1228.53
630.15	1221.34
630.50	1214.00
630.84	1205.81
631.19	1197.86
631.53	1190.42
631.88	1182.92
632.22	1175.36
632.57	1168.03
632.91	1160.49
633.26	1153.05
633.60	1145.75
633.95	1138.62
634.29	1131.55
634.64	1124.83
634.98	1117.52
635.32	1110.35
635.67	1103.85
636.01	1097.20
636.36	1090.39
636.70	1083.78
637.05	1077.24
637.39	1070.83
637.73	1064.22
638.08	1058.37
638.42	1052.47
638.77	1046.03
639.11	1039.41
639.45	1033.03
639.80	1026.29
640.14	1019.85
640.49	1013.39
640.83	1007.08
641.17	1000.75
641.52	994.46
641.86	988.02
642.20	982.10
642.55	975.87
642.89	969.26
643.23	962.74
643.58	956.98
643.92	950.80
644.26	944.73
644.61	938.61
644.95	932.58
645.29	926.00
645.64	919.14
645.98	912.76
646.32	906.90
646.66	900.79
647.01	895.05
647.35	889.28
647.69	883.39
648.04	877.92
648.38	872.13
648.72	866.08
649.06	860.09
649.41	854.19
649.75	848.16
650.09	842.22
650.43	836.35
650.78	830.20
651.12	824.30
651.46	818.57
651.80	812.82
652.14	807.40
652.49	802.03
652.83	796.85
653.17	791.18
653.51	785.44
653.85	780.17
654.20	774.50
654.54	768.51
654.88	762.77
655.22	756.86
655.56	751.27
655.90	745.82
656.25	740.59
656.59	735.24
656.93	730.19
657.27	725.03
657.61	719.59
657.95	714.48
658.29	709.39
658.64	704.13
658.98	698.79
659.32	693.31
659.66	688.08
660.00	682.84
660.34	677.88
660.68	673.04
661.02	667.98
661.36	663.25
661.70	658.73
662.05	654.39
662.39	650.06
662.73	645.59
663.07	641.24
663.41	636.76
663.75	632.28
664.09	627.65
664.43	623.28
664.77	619.19
665.11	614.88
665.45	610.78
665.79	606.75
666.13	602.66
666.47	598.61
666.81	594.45
667.15	590.33
667.49	586.40
667.83	582.60
668.17	578.64
668.51	574.60
668.85	570.63
669.19	566.78
669.53	562.93
669.87	559.00
670.21	555.29
670.55	551.66
670.89	548.24
671.23	544.87
671.57	541.37
671.91	537.80
672.25	534.34
672.58	530.76
672.92	527.32
673.26	524.17
673.60	521.09
673.94	517.95
674.28	515.04
674.62	512.07
674.96	508.95
675.30	506.05
675.64	503.13
675.97	500.33
676.31	497.44
676.65	494.60
676.99	491.93
677.33	489.04
677.67	486.18
678.01	483.14
678.34	480.14
678.68	477.26
679.02	474.50
679.36	471.79
679.70	469.10
680.04	466.31
680.37	463.46
680.71	460.61
681.05	458.02
681.39	455.28
681.73	452.66
682.06	450.09
682.40	447.58
682.74	445.05
683.08	442.51
683.42	439.95
683.75	437.40
684.09	434.84
684.43	432.36
684.77	429.92
685.10	427.52
685.44	425.27
685.78	422.97
686.12	420.72
686.45	418.39
686.79	416.05
687.13	413.87
687.46	411.70
687.80	409.54
688.14	407.37
688.48	405.31
688.81	403.08
689.15	400.95
689.49	398.76
689.82	396.68
690.16	394.60
690.50	392.59
690.83	390.62
691.17	388.66
691.51	386.77
691.84	384.93
692.18	383.03
692.52	380.99
692.85	379.09
693.19	377.15
693.52	375.35
693.86	373.52
694.20	371.72
694.53	369.92
694.87	368.10
695.21	366.28
695.54	364.48
695.88	362.74
696.21	361.05
696.55	359.36
696.88	357.69
697.22	356.05
697.56	354.45
697.89	352.79
698.23	351.19
698.56	349.58
698.90	348.01
699.23	346.35
699.57	344.82
699.90	343.24
700.24	341.72
700.58	340.15
700.91	338.71
701.25	337.28
701.58	335.88
701.92	334.52
702.25	333.15
702.59	331.73
702.92	330.39
703.26	329.09
703.59	327.81
703.93	326.61
704.26	325.35
704.60	324.04
704.93	322.80
705.26	321.56
705.60	320.42
705.93	319.23
706.27	318.21
706.60	317.16
706.94	316.10
707.27	314.99
707.61	313.95
707.94	312.91
708.27	311.80
708.61	310.69
708.94	309.70
709.28	308.74
709.61	307.79
709.94	306.85
710.28	305.77
710.61	304.85
710.95	303.77
711.28	302.87
711.61	301.92
711.95	300.99
712.28	300.03
712.61	299.02
712.95	298.08
713.28	297.21
713.61	296.30
713.95	295.41
714.28	294.54
714.61	293.67
714.95	292.83
715.28	291.99
715.61	291.14
715.95	290.25
716.28	289.37
716.61	288.56
716.95	287.77
717.28	287.07
717.61	286.28
717.94	285.54
718.28	284.72
718.61	284.01
718.94	283.27
719.27	282.60
719.61	281.95
719.94	281.30
720.27	280.59
720.60	279.93
720.94	279.27
721.27	278.68
721.60	278.09
721.93	277.49
722.27	276.95
722.60	276.39
722.93	275.81
723.26	275.25
723.59	274.67
723.93	274.10
724.26	273.57
724.59	273.00
724.92	272.47
725.25	271.99
725.59	271.45
725.92	270.96
726.25	270.44
726.58	269.93
726.91	269.38
727.24	268.93
727.57	268.46
727.91	267.98
728.24	267.52
728.57	267.01
728.90	266.57
729.23	266.06
729.56	265.62
729.89	265.18
730.22	264.70
730.55	264.28
730.89	263.81
731.22	263.36
731.55	262.94
731.88	262.52
732.21	262.08
732.54	261.69
732.87	261.28
733.20	260.88
733.53	260.52
733.86	260.20
734.19	259.78
734.52	259.37
734.85	259.07
735.18	258.68
735.51	258.34
735.84	257.97
736.17	257.64
736.50	257.26
736.83	257.01
737.16	256.69
737.49	256.32
737.82	256.01
738.15	255.68
738.48	255.35
738.81	255.05
739.14	254.75
739.47	254.46
739.80	254.16
740.13	253.90
740.46	253.57
740.79	253.23
741.12	252.93
741.45	252.65
741.78	252.27
742.11	251.96
742.44	251.65
742.77	251.34
743.10	251.05
743.43	250.73
743.75	250.34
744.08	250.22
744.41	249.95
744.74	249.65
745.07	249.35
745.40	249.10
745.73	248.84
746.06	248.53
746.39	248.22
746.71	247.95
747.04	247.65
747.37	247.38
747.70	247.12
748.03	246.88
748.36	246.65
748.68	246.41
749.01	246.19
749.34	245.95
749.67	245.71
750.00	245.48
750.33	245.32
750.65	245.12
750.98	244.74
751.31	244.52
751.64	244.35
751.97	244.16
752.29	243.93
752.62	243.67
752.95	243.45
753.28	243.23
753.60	243.01
753.93	242.83
754.26	242.61
754.59	242.39
754.91	242.13
755.24	241.93
755.57	241.75
755.90	241.54
756.22	241.34
756.55	241.15
756.88	240.93
757.20	240.74
757.53	240.53
757.86	240.37
758.19	240.21
758.51	239.98
758.84	239.81
759.17	239.69
759.49	239.55
759.82	239.43
760.15	239.32
760.47	239.17
760.80	238.97
761.13	238.82
761.45	238.70
761.78	238.57
762.11	238.42
762.43	238.26
762.76	238.14
763.08	237.99
763.41	237.86
763.74	237.72
764.06	237.55
764.39	237.44
764.71	237.28
765.04	237.15
765.37	237.05
765.69	236.91
766.02	236.70
766.34	236.58
766.67	236.40
767.00	236.27
767.32	236.19
767.65	236.15
767.97	236.09
768.30	235.96
768.62	235.89
768.95	235.75
769.27	235.67
769.60	235.57
769.92	235.46
770.25	235.35
770.57	235.24
770.90	235.17
771.22	235.07
771.55	234.97
771.87	234.90
772.20	234.76
772.52	234.77
772.85	234.80
773.17	234.71
773.50	234.64
773.82	234.53
774.15	234.42
774.47	234.28
774.80	234.16
775.12	234.07
775.45	233.93
775.77	233.87
776.09	233.77
776.42	233.72
776.74	233.68
777.07	233.59
777.39	233.55
777.72	233.45
778.04	233.40
778.36	233.35
778.69	233.26
779.01	233.23
779.33	233.07
779.66	232.89
779.98	232.83
780.31	232.76
780.63	232.72
780.95	232.67
781.28	232.57
781.60	232.51
781.92	232.48
782.25	232.44
782.57	232.39
782.89	232.36
783.22	232.29
783.54	232.22
783.86	232.17
784.19	232.09
784.51	232.07
784.83	231.98
785.16	231.91
785.48	231.89
785.80	231.84
786.12	231.79
786.45	231.78
786.77	231.75
787.09	231.73
787.42	231.68
787.74	231.64
788.06	231.64
788.38	231.59
788.71	231.54
789.03	231.50
789.35	231.48
789.67	231.40
789.99	231.35
790.32	231.29
790.64	231.25
790.96	231.32
791.28	231.26
791.61	231.24
791.93	231.18
792.25	231.12
792.57	231.13
792.89	231.09
793.21	231.03
793.54	230.96
793.86	230.86
794.18	230.81
794.50	230.76
794.82	230.72
795.14	230.70
795.47	230.66
795.79	230.62
796.11	230.55
796.43	230.53
796.75	230.49
797.07	230.46
797.39	230.42
797.71	230.28
798.04	230.21
798.36	230.18
798.68	230.16
799.00	230.12
799.32	230.04
799.64	230.00
799.96	229.96
800.28	229.95
800.60	229.92
800.92	229.91
801.24	229.85
801.56	229.80
801.89	229.76
802.21	229.71
802.53	229.67
802.85	229.65
803.17	229.66
803.49	229.58
803.81	229.55
804.13	229.51
804.45	229.50
804.77	229.49
805.09	229.44
805.41	229.43
805.73	229.37
806.05	229.35
806.37	229.31
806.69	229.29
807.01	229.26
807.33	229.26
807.65	229.19
807.97	229.21
808.28	229.18
808.60	229.11
808.92	229.10
809.24	229.12
809.56	229.09
809.88	229.02
810.20	229.03
810.52	229.03
810.84	228.98
811.16	228.97
811.48	228.94
811.80	228.98
812.12	228.92
812.43	228.93
812.75	228.90
813.07	228.86
813.39	228.87
813.71	228.85
814.03	228.80
814.35	228.79
814.67	228.78
814.98	228.76
815.30	228.77
815.62	228.72
815.94	228.65
816.26	228.67
816.58	228.65
816.89	228.63
817.21	228.56
817.53	228.54
817.85	228.51
818.17	228.48
818.48	228.44
818.80	228.48
819.12	228.46
819.44	228.41
819.76	228.40
820.07	228.35
820.39	228.30
820.71	228.33
821.03	228.32
821.34	228.28
821.66	228.28
821.98	228.29
822.30	228.29
822.61	228.34
822.93	228.30
823.25	228.25
823.57	228.21
823.88	228.27
824.20	228.27
824.52	228.28
824.83	228.31
825.15	228.28
825.47	228.24
825.79	228.24
826.10	228.28
826.42	228.26
826.74	228.27
827.05	228.26
827.37	228.25
827.69	228.27
828.00	228.26
828.32	228.27
828.64	228.24
828.95	228.29
829.27	228.25
829.58	228.23
829.90	228.27
830.22	228.33
830.53	228.27
830.85	228.27
831.17	228.24
831.48	228.20
831.80	228.21
832.11	228.18
832.43	228.15
832.75	228.13
833.06	228.17
833.38	228.13
833.69	228.13
834.01	228.11
834.32	228.06
834.64	228.07
834.96	228.04
835.27	228.02
835.59	227.98
835.90	227.94
836.22	227.92
836.53	227.88
836.85	227.84
837.16	227.92
837.48	227.92
837.79	227.94
838.11	227.91
838.42	227.88
838.74	227.89
839.05	227.84
839.37	227.82
839.68	227.78
840.00	227.77
840.31	227.78
840.63	227.76
840.94	227.78
841.26	227.74
841.57	227.73
841.88	227.76
842.20	227.73
842.51	227.74
842.83	227.70
843.14	227.77
843.46	227.76
843.77	227.69
844.08	227.65
844.40	227.61
844.71	227.61
845.03	227.61
845.34	227.61
845.65	227.64
845.97	227.65
846.28	227.64
846.60	227.65
846.91	227.61
847.22	227.61
847.54	227.59
847.85	227.60
848.16	227.60
848.48	227.54
848.79	227.59
849.10	227.60
849.42	227.62
849.73	227.54
850.04	227.55
850.36	227.52
850.67	227.53
850.98	227.55
851.30	227.57
851.61	227.57
851.92	227.56
852.23	227.57
852.55	227.58
852.86	227.60
853.17	227.61
853.49	227.66
853.80	227.68
854.11	227.66
854.42	227.67
854.74	227.66
855.05	227.71
855.36	227.60
855.67	227.58
855.99	227.58
856.30	227.70
856.61	227.67
856.92	227.69
857.23	227.70
857.55	227.65
857.86	227.58
858.17	227.59
858.48	227.57
858.79	227.55
859.11	227.56
859.42	227.54
859.73	227.56
860.04	227.54
860.35	227.50
860.66	227.46
860.98	227.46
861.29	227.44
861.60	227.37
861.91	227.46
862.22	227.43
862.53	227.38
862.84	227.27
863.16	227.28
863.47	227.25
863.78	227.26
864.09	227.23
864.40	227.29
864.71	227.28
865.02	227.26
865.33	227.24
865.64	227.19
865.95	227.17
866.27	227.19
866.58	227.15
866.89	227.15
867.20	227.17
867.51	227.11
867.82	227.13
868.13	227.17
868.44	227.14
868.75	227.20
869.06	227.23
869.37	227.26
869.68	227.21
869.99	227.25
870.30	227.22
870.61	227.25
870.92	227.22
871.23	227.22
871.54	227.25
871.85	227.27
872.16	227.28
872.47	227.29
872.78	227.22
873.09	227.28
873.40	227.27
873.71	227.26
874.02	227.30
874.33	227.27
874.64	227.28
874.95	227.28
875.26	227.23
875.56	227.21
875.87	227.17
876.18	227.21
876.49	227.28
876.80	227.27
877.11	227.23
877.42	227.23
877.73	227.23
878.04	227.18
878.35	227.16
878.66	227.16
878.96	227.16
879.27	227.15
879.58	227.12
879.89	227.12
880.20	227.15
880.51	227.17
880.82	227.19
881.12	227.18
881.43	227.17
881.74	227.16
882.05	227.16
882.36	227.17
882.67	227.17
882.97	227.07
883.28	227.10
883.59	227.12
883.90	227.14
884.21	227.15
884.51	227.17
884.82	227.17
885.13	227.18
885.44	227.20
885.74	227.21
886.05	227.23
886.36	227.23
886.67	227.20
886.98	227.24
887.28	227.25
887.59	227.26
887.90	227.25
888.20	227.27
888.51	227.25
888.82	227.22
889.13	227.19
889.43	227.26
889.74	227.24
890.05	227.22
890.35	227.21
890.66	227.18
890.97	227.20
891.28	227.18
891.58	227.17
891.89	227.13
892.20	227.12
892.50	227.06
892.81	227.07
893.12	227.05
893.42	226.99
893.73	226.97
894.04	226.93
894.34	226.92
894.65	226.92
894.95	226.94
895.26	226.95
895.57	227.01
895.87	226.93
896.18	226.92
896.48	226.95
896.79	226.92
897.10	226.93
897.40	226.90
897.71	226.95
898.01	226.97
898.32	226.96
898.63	226.96
898.93	226.98
899.24	226.99
899.54	226.97
899.85	226.93
900.15	226.95
900.46	226.96
900.76	226.98
901.07	226.96
901.38	226.93
901.68	226.96
901.99	226.86
902.29	226.86
902.60	226.87
902.90	226.82
903.21	226.89
903.51	226.87
903.82	226.93
904.12	226.91
904.43	226.86
904.73	226.92
905.03	226.92
905.34	227.03
905.64	226.99
905.95	227.01
906.25	227.04
906.56	227.05
906.86	227.05
907.17	227.04
907.47	227.04
907.77	227.05
908.08	227.04
908.38	227.10
908.69	227.13
908.99	227.15
909.30	227.19
909.60	227.12
909.90	227.13
910.21	227.10
910.51	227.09
910.81	227.10
911.12	227.08
911.42	227.08
911.73	226.96
912.03	226.96
912.33	226.99
912.64	226.95
912.94	226.91
913.24	226.88
913.55	226.89
913.85	226.88
914.15	226.95
914.46	226.96
914.76	226.93
915.06	226.92
915.37	226.87
915.67	226.86
915.97	226.89
916.27	226.87
916.58	226.87
916.88	226.83
917.18	226.84
917.49	226.89
917.79	226.88
918.09	226.91
918.39	226.98
918.70	226.96
919.00	226.96
919.30	227.02
919.60	227.03
919.91	227.01
920.21	227.01
920.51	226.96
920.81	226.92
921.12	226.95
921.42	226.93
921.72	226.98
922.02	226.95
922.32	226.95
922.63	226.92
922.93	226.97
923.23	227.01
923.53	226.99
923.83	226.93
924.13	226.94
924.44	226.92
924.74	226.90
925.04	226.91
925.34	226.93
925.64	226.88
925.94	226.87
926.24	226.91
926.55	226.90
926.85	226.89
927.15	226.91
927.45	226.92
927.75	226.91
928.05	226.88
928.35	226.88
928.65	226.93
928.95	226.93
929.26	226.90
929.56	226.89
929.86	226.90
930.16	226.91
930.46	226.90
930.76	226.89
931.06	226.85
931.36	226.84
931.66	226.84
931.96	226.87
932.26	226.88
932.56	226.86
932.86	226.88
933.16	226.88
933.46	226.86
933.76	226.87
934.06	226.90
934.36	226.93
934.66	226.95
934.96	226.90
935.26	226.90
935.56	226.89
935.86	226.87
936.16	226.87
936.46	226.84
936.76	226.83
937.06	226.83
937.36	226.83
937.66	226.79
937.96	226.80
938.26	226.76
938.56	226.75
938.86	226.76
939.16	226.81
939.46	226.81
939.76	226.84
940.06	226.80
940.35	226.80
940.65	226.74
940.95	226.75
941.25	226.73
941.55	226.76
941.85	226.78
942.15	226.82
942.45	226.86
942.75	226.87
943.04	226.88
943.34	226.90
943.64	226.89
943.94	226.91
944.24	226.91
944.54	226.91
944.84	226.94
945.13	226.93
945.43	226.91
945.73	226.93
946.03	226.87
946.33	226.87
946.62	226.81
946.92	226.83
947.22	226.82
947.52	226.85
947.82	226.87
948.11	226.82
948.41	226.80
948.71	226.79
949.01	226.82
949.31	226.80
949.60	226.79
949.90	226.81
950.20	226.83
950.50	226.84
950.79	226.85
951.09	226.88
951.39	226.87
951.69	226.84
951.98	226.85
952.28	226.89
952.58	226.87
952.87	226.91
953.17	226.91
953.47	226.90
953.76	226.89
954.06	226.85
954.36	226.86
954.66	226.84
954.95	226.84
955.25	226.82
955.55	226.84
955.84	226.80
956.14	226.81
956.44	226.79
956.73	226.75
957.03	226.79
957.32	226.73
957.62	226.73
957.92	226.70
958.21	226.66
958.51	226.77
958.81	226.82
959.10	226.80
959.40	226.84
959.69	226.83
959.99	226.83
960.29	226.81
960.58	226.79
960.88	226.84
961.17	226.87
961.47	226.87
961.76	226.87
962.06	226.88
962.36	226.86
962.65	226.87
962.95	226.86
963.24	226.82
963.54	226.82
963.83	226.82
964.13	226.86
964.42	226.81
964.72	226.72
965.01	226.68
965.31	226.69
965.60	226.65
965.90	226.73
966.19	226.71
966.49	226.75
966.78	226.76
967.08	226.74
967.37	226.70
967.67	226.67
967.96	226.66
968.26	226.67
968.55	226.69
968.85	226.71
969.14	226.74
969.43	226.72
969.73	226.71
970.02	226.68
970.32	226.68
970.61	226.70
970.91	226.69
971.20	226.70
971.49	226.70
971.79	226.72
972.08	226.63
972.38	226.64
972.67	226.58
972.96	226.59
973.26	226.55
973.55	226.61
973.85	226.62
974.14	226.61
974.43	226.60
974.73	226.57
975.02	226.53
975.31	226.53
975.61	226.53
975.90	226.55
976.19	226.58
976.49	226.61
976.78	226.62
977.07	226.63
977.37	226.63
977.66	226.64
977.95	226.63
978.24	226.65
978.54	226.68
978.83	226.70
979.12	226.69
979.42	226.73
979.71	226.69
980.00	226.70
980.29	226.70
980.59	226.72
980.88	226.75
981.17	226.74
981.46	226.75
981.76	226.73
982.05	226.75
982.34	226.72
982.63	226.70
982.93	226.69
983.22	226.69
983.51	226.69
983.80	226.71
984.09	226.74
984.39	226.73
984.68	226.70
984.97	226.70
985.26	226.70
985.55	226.67
985.85	226.62
986.14	226.64
986.43	226.68
986.72	226.65
987.01	226.64
987.30	226.64
987.59	226.62
987.89	226.64
988.18	226.62
988.47	226.62
988.76	226.62
989.05	226.60
989.34	226.59
989.63	226.61
989.92	226.59
990.22	226.58
990.51	226.62
990.80	226.63
991.09	226.67
991.38	226.68
991.67	226.71
991.96	226.74
992.25	226.75
992.54	226.70
992.83	226.70
993.12	226.72
993.41	226.73
993.70	226.79
993.99	226.83
994.28	226.86
994.58	226.87
994.87	226.87
995.16	226.87
995.45	226.89
995.74	226.87
996.03	226.88
996.32	226.88
996.61	226.86
996.90	226.84
997.19	226.84
997.48	226.86
997.77	226.84
998.06	226.82
998.34	226.78
998.63	226.80
998.92	226.81
999.21	226.79
999.50	226.80
999.79	226.75
1000.08	226.74
1000.37	226.70
1000.66	226.70
1000.95	226.72
1001.24	226.71
1001.53	226.69
1001.82	226.70
1002.11	226.69
1002.40	226.71
1002.68	226.75
1002.97	226.80
1003.26	226.79
1003.55	226.75
1003.84	226.73
1004.13	226.77
1004.42	226.79
1004.71	226.79
1004.99	226.77
1005.28	226.80
1005.57	226.80
1005.86	226.79
1006.15	226.79
1006.44	226.80
1006.72	226.82
1007.01	226.81
1007.30	226.81
1007.59	226.83
1007.88	226.81
1008.17	226.82
1008.45	226.78
1008.74	226.72
1009.03	226.67
1009.32	226.64
1009.60	226.64
1009.89	226.67
1010.18	226.64
1010.47	226.59
1010.76	226.62
1011.04	226.63
1011.33	226.67
1011.62	226.67
1011.91	226.67
1012.19	226.67
1012.48	226.64
1012.77	226.63
1013.05	226.64
1013.34	226.65
1013.63	226.63
1013.92	226.64
1014.20	226.63
1014.49	226.62
1014.78	226.65
1015.06	226.64
1015.35	226.66
1015.64	226.69
1015.92	226.68
1016.21	226.69
1016.50	226.71
1016.78	226.71
1017.07	226.73
1017.36	226.65
1017.64	226.62
1017.93	226.62
1018.22	226.60
1018.50	226.62
1018.79	226.62
1019.08	226.58
1019.36	226.57
1019.65	226.56
1019.93	226.59
1020.22	226.64
1020.51	226.71
1020.79	226.66
1021.08	226.29
1021.36	226.60
1021.65	226.69
1021.94	226.42
1022.22	226.06
1022.51	226.45
1022.79	227.36
1023.08	227.66
1023.36	228.00
1023.65	225.66
>>>>>End Processed Spectral Data<<<<<
