SpectraSuite Data File
++++++++++++++++++++++++++++++++++++
Date: Fri Feb 01 15:20:23 EST 2013
User: group
Dark Spectrum Present: No
Reference Spectrum Present: No
Number of Sampled Component Spectra: 1
Spectrometers: USB2E7196
Integration Time (usec): 35000 (USB2E7196)
Spectra Averaged: 100 (USB2E7196)
Boxcar Smoothing: 10 (USB2E7196)
Correct for Electrical Dark: No (USB2E7196)
Strobe/Lamp Enabled: No (USB2E7196)
Correct for Detector Non-linearity: No (USB2E7196)
Correct for Stray Light: No (USB2E7196)
Number of Pixels in Processed Spectrum: 2048
>>>>>Begin Processed Spectral Data<<<<<
339.09	0.00
339.48	215.15
339.86	216.48
340.24	218.49
340.63	219.29
341.01	221.80
341.39	222.40
341.78	223.58
342.16	224.90
342.54	225.40
342.93	213.59
343.31	224.39
343.69	224.93
344.07	225.40
344.46	225.81
344.84	226.19
345.22	226.42
345.60	226.65
345.99	226.82
346.37	226.91
346.75	227.00
347.13	227.05
347.52	227.08
347.90	227.12
348.28	227.17
348.66	227.22
349.05	227.27
349.43	227.29
349.81	227.33
350.19	227.38
350.57	227.44
350.96	227.51
351.34	227.58
351.72	227.67
352.10	227.77
352.48	227.83
352.87	227.88
353.25	227.98
353.63	228.02
354.01	228.08
354.39	228.21
354.77	228.28
355.15	228.39
355.54	228.45
355.92	228.53
356.30	228.59
356.68	228.72
357.06	228.75
357.44	228.80
357.82	228.84
358.20	228.89
358.58	228.97
358.97	229.04
359.35	229.14
359.73	229.21
360.11	229.25
360.49	229.33
360.87	229.34
361.25	229.40
361.63	229.51
362.01	229.59
362.39	229.59
362.77	229.60
363.15	229.60
363.53	229.62
363.91	229.61
364.29	229.65
364.67	229.55
365.05	229.61
365.43	229.65
365.81	229.68
366.19	229.73
366.57	229.76
366.95	229.71
367.33	229.66
367.71	229.64
368.09	229.65
368.47	229.60
368.85	229.60
369.23	229.59
369.61	229.50
369.99	229.47
370.37	229.46
370.75	229.48
371.13	229.43
371.51	229.37
371.89	229.31
372.27	229.23
372.65	229.20
373.03	229.09
373.41	229.02
373.78	228.95
374.16	228.81
374.54	228.67
374.92	228.62
375.30	228.53
375.68	228.43
376.06	228.40
376.44	228.32
376.82	228.25
377.19	228.18
377.57	228.12
377.95	227.97
378.33	227.89
378.71	227.77
379.09	227.71
379.47	227.64
379.84	227.55
380.22	227.49
380.60	227.40
380.98	227.35
381.36	227.27
381.73	227.20
382.11	227.19
382.49	227.16
382.87	227.08
383.25	227.05
383.62	227.08
384.00	226.99
384.38	226.93
384.76	226.88
385.13	226.85
385.51	226.78
385.89	226.73
386.27	226.70
386.64	226.67
387.02	226.60
387.40	226.55
387.78	226.52
388.15	226.51
388.53	226.50
388.91	226.48
389.29	226.42
389.66	226.42
390.04	226.38
390.42	226.38
390.79	226.38
391.17	226.34
391.55	226.26
391.92	226.27
392.30	226.29
392.68	226.29
393.05	226.29
393.43	226.32
393.81	226.39
394.18	226.39
394.56	226.41
394.94	226.48
395.31	226.52
395.69	226.61
396.06	226.63
396.44	226.62
396.82	226.69
397.19	226.81
397.57	226.84
397.95	226.88
398.32	226.93
398.70	226.98
399.07	227.05
399.45	227.11
399.82	227.17
400.20	227.23
400.58	227.31
400.95	227.33
401.33	227.45
401.70	227.58
402.08	227.65
402.45	227.77
402.83	227.90
403.20	228.00
403.58	228.10
403.95	228.25
404.33	228.38
404.71	228.46
405.08	228.63
405.46	228.76
405.83	228.96
406.21	229.09
406.58	229.25
406.96	229.44
407.33	229.63
407.70	229.82
408.08	230.13
408.45	230.36
408.83	230.59
409.20	230.82
409.58	231.00
409.95	231.28
410.33	231.52
410.70	231.76
411.08	232.06
411.45	232.37
411.82	232.69
412.20	233.08
412.57	233.49
412.95	233.78
413.32	234.20
413.69	234.61
414.07	235.04
414.44	235.52
414.82	235.98
415.19	236.52
415.56	237.06
415.94	237.55
416.31	238.18
416.68	238.85
417.06	239.51
417.43	240.22
417.81	241.00
418.18	241.80
418.55	242.63
418.93	243.52
419.30	244.40
419.67	245.35
420.04	246.31
420.42	247.32
420.79	248.53
421.16	249.66
421.54	250.82
421.91	252.04
422.28	253.34
422.66	254.67
423.03	255.99
423.40	257.29
423.77	258.73
424.15	260.17
424.52	261.64
424.89	263.28
425.26	264.81
425.64	266.27
426.01	267.87
426.38	269.52
426.75	271.18
427.13	272.91
427.50	274.68
427.87	276.58
428.24	278.44
428.61	280.16
428.99	282.12
429.36	284.22
429.73	286.27
430.10	288.28
430.47	290.33
430.85	292.41
431.22	294.69
431.59	297.01
431.96	299.26
432.33	301.77
432.70	304.13
433.08	306.96
433.45	309.57
433.82	312.16
434.19	315.09
434.56	317.91
434.93	320.58
435.30	323.21
435.68	326.05
436.05	328.88
436.42	331.68
436.79	334.23
437.16	336.98
437.53	339.84
437.90	342.72
438.27	345.46
438.64	348.34
439.01	350.94
439.38	353.22
439.75	355.39
440.13	357.88
440.50	360.25
440.87	362.11
441.24	364.04
441.61	366.21
441.98	367.69
442.35	369.49
442.72	371.35
443.09	373.18
443.46	374.23
443.83	374.82
444.20	375.31
444.57	376.13
444.94	376.37
445.31	376.72
445.68	376.99
446.05	377.07
446.42	376.67
446.79	376.22
447.16	375.75
447.53	375.45
447.90	374.29
448.27	373.11
448.64	371.52
449.01	370.42
449.37	368.44
449.74	366.54
450.11	364.27
450.48	361.78
450.85	359.22
451.22	357.05
451.59	355.06
451.96	353.12
452.33	350.50
452.70	348.20
453.07	345.35
453.43	342.46
453.80	339.71
454.17	337.06
454.54	334.47
454.91	331.77
455.28	329.11
455.65	326.60
456.02	324.15
456.38	321.99
456.75	319.34
457.12	317.09
457.49	314.84
457.86	312.69
458.23	310.83
458.59	308.79
458.96	306.72
459.33	304.82
459.70	302.97
460.07	301.45
460.43	299.66
460.80	298.00
461.17	296.58
461.54	295.06
461.91	293.56
462.27	292.14
462.64	290.91
463.01	289.51
463.38	288.21
463.74	286.79
464.11	285.58
464.48	284.53
464.85	283.40
465.21	282.53
465.58	281.58
465.95	280.47
466.32	279.57
466.68	278.65
467.05	277.75
467.42	276.85
467.78	275.91
468.15	275.09
468.52	274.42
468.88	273.54
469.25	272.76
469.62	272.15
469.98	271.47
470.35	270.80
470.72	270.19
471.08	269.49
471.45	268.98
471.82	268.46
472.18	267.86
472.55	267.45
472.92	266.88
473.28	266.41
473.65	265.96
474.02	265.48
474.38	265.08
474.75	264.76
475.11	264.39
475.48	264.12
475.85	263.84
476.21	263.62
476.58	263.47
476.94	263.31
477.31	263.14
477.67	262.98
478.04	262.86
478.41	262.77
478.77	262.83
479.14	262.75
479.50	262.75
479.87	262.80
480.23	262.86
480.60	262.96
480.96	263.04
481.33	263.27
481.69	263.51
482.06	263.70
482.42	263.89
482.79	264.16
483.15	264.47
483.52	264.90
483.88	265.21
484.25	265.60
484.61	266.03
484.98	266.50
485.34	267.09
485.71	267.68
486.07	268.30
486.44	268.84
486.80	269.55
487.17	270.27
487.53	271.08
487.90	271.94
488.26	272.87
488.62	273.85
488.99	274.79
489.35	275.76
489.72	276.86
490.08	278.03
490.44	279.27
490.81	280.61
491.17	281.90
491.54	283.39
491.90	284.88
492.26	286.52
492.63	288.22
492.99	290.00
493.36	291.89
493.72	293.94
494.08	296.11
494.45	298.36
494.81	300.71
495.17	303.11
495.54	305.68
495.90	308.36
496.26	311.18
496.63	314.19
496.99	317.35
497.35	320.62
497.72	324.02
498.08	327.53
498.44	331.18
498.80	335.16
499.17	339.24
499.53	343.48
499.89	347.88
500.26	352.43
500.62	357.07
500.98	362.00
501.34	367.06
501.71	372.31
502.07	377.72
502.43	383.34
502.79	389.16
503.16	395.22
503.52	401.54
503.88	407.94
504.24	414.56
504.60	421.48
504.97	428.65
505.33	436.02
505.69	443.75
506.05	451.53
506.41	459.42
506.78	467.55
507.14	475.98
507.50	484.65
507.86	493.63
508.22	502.79
508.59	511.99
508.95	521.60
509.31	531.41
509.67	541.59
510.03	551.87
510.39	562.41
510.75	573.22
511.12	584.10
511.48	595.36
511.84	606.79
512.20	618.31
512.56	630.19
512.92	642.33
513.28	654.60
513.64	667.15
514.00	679.86
514.37	692.77
514.73	705.80
515.09	718.95
515.45	732.30
515.81	745.95
516.17	759.98
516.53	774.00
516.89	788.21
517.25	802.35
517.61	816.80
517.97	831.40
518.33	845.91
518.69	860.72
519.05	875.77
519.41	891.03
519.77	906.58
520.13	922.18
520.49	937.57
520.85	953.07
521.21	968.79
521.57	985.01
521.93	1000.91
522.29	1017.42
522.65	1033.64
523.01	1049.90
523.37	1066.03
523.73	1082.26
524.09	1098.50
524.45	1114.89
524.81	1131.55
525.17	1148.46
525.53	1165.37
525.89	1182.19
526.25	1199.11
526.61	1215.49
526.97	1232.21
527.33	1248.71
527.68	1265.34
528.04	1281.93
528.40	1298.52
528.76	1315.67
529.12	1332.35
529.48	1349.28
529.84	1365.36
530.20	1382.03
530.56	1399.18
530.91	1416.66
531.27	1433.45
531.63	1450.06
531.99	1466.74
532.35	1482.73
532.71	1498.73
533.07	1514.93
533.42	1530.90
533.78	1546.97
534.14	1563.52
534.50	1578.92
534.86	1594.94
535.21	1610.08
535.57	1626.08
535.93	1641.72
536.29	1656.65
536.65	1671.76
537.00	1686.61
537.36	1701.87
537.72	1716.57
538.08	1730.95
538.44	1744.75
538.79	1758.84
539.15	1772.72
539.51	1786.46
539.87	1800.90
540.22	1814.69
540.58	1828.70
540.94	1842.24
541.29	1855.20
541.65	1867.88
542.01	1881.31
542.37	1893.73
542.72	1906.32
543.08	1918.21
543.44	1930.70
543.79	1941.92
544.15	1952.85
544.51	1964.44
544.87	1975.51
545.22	1986.26
545.58	1996.48
545.94	2006.25
546.29	2016.18
546.65	2025.78
547.01	2035.03
547.36	2043.99
547.72	2052.47
548.07	2060.35
548.43	2068.56
548.79	2076.70
549.14	2084.09
549.50	2091.53
549.86	2099.26
550.21	2106.51
550.57	2113.62
550.92	2120.25
551.28	2127.49
551.64	2134.70
551.99	2141.27
552.35	2147.61
552.70	2153.80
553.06	2159.72
553.41	2166.01
553.77	2171.95
554.13	2178.30
554.48	2184.54
554.84	2189.76
555.19	2195.16
555.55	2200.12
555.90	2204.55
556.26	2209.43
556.61	2214.34
556.97	2218.41
557.32	2222.45
557.68	2226.59
558.03	2230.95
558.39	2234.65
558.74	2239.10
559.10	2242.94
559.45	2246.74
559.81	2251.01
560.16	2254.83
560.52	2258.25
560.87	2261.86
561.23	2264.54
561.58	2267.40
561.94	2269.91
562.29	2272.51
562.64	2275.10
563.00	2277.76
563.35	2281.29
563.71	2284.29
564.06	2287.42
564.42	2290.29
564.77	2292.85
565.12	2295.13
565.48	2296.95
565.83	2298.61
566.19	2299.94
566.54	2300.83
566.89	2301.82
567.25	2302.19
567.60	2303.63
567.96	2305.18
568.31	2305.85
568.66	2306.86
569.02	2307.22
569.37	2307.45
569.72	2308.02
570.08	2307.90
570.43	2307.84
570.78	2307.03
571.14	2305.56
571.49	2304.23
571.84	2303.81
572.20	2302.41
572.55	2301.23
572.90	2299.69
573.26	2298.30
573.61	2296.46
573.96	2294.62
574.31	2291.54
574.67	2288.51
575.02	2284.66
575.37	2281.22
575.72	2277.43
576.08	2274.01
576.43	2270.69
576.78	2266.98
577.13	2264.01
577.49	2261.16
577.84	2257.70
578.19	2253.93
578.54	2250.12
578.90	2245.74
579.25	2240.06
579.60	2235.01
579.95	2229.93
580.30	2224.83
580.66	2219.65
581.01	2214.84
581.36	2209.87
581.71	2205.55
582.06	2201.05
582.42	2196.46
582.77	2191.13
583.12	2186.58
583.47	2181.74
583.82	2176.67
584.17	2171.40
584.53	2165.55
584.88	2159.67
585.23	2153.70
585.58	2148.16
585.93	2142.61
586.28	2137.84
586.63	2132.65
586.98	2127.60
587.34	2123.01
587.69	2118.07
588.04	2112.67
588.39	2106.67
588.74	2100.20
589.09	2093.98
589.44	2087.03
589.79	2081.05
590.14	2075.40
590.49	2068.59
590.84	2062.12
591.19	2055.89
591.54	2049.23
591.89	2041.78
592.25	2034.93
592.60	2027.68
592.95	2019.96
593.30	2012.64
593.65	2004.92
594.00	1997.84
594.35	1990.58
594.70	1982.28
595.05	1974.84
595.40	1967.43
595.75	1959.90
596.10	1953.42
596.45	1946.45
596.80	1940.26
597.15	1933.41
597.50	1926.16
597.85	1919.75
598.19	1913.15
598.54	1906.05
598.89	1899.49
599.24	1893.53
599.59	1886.73
599.94	1880.55
600.29	1874.27
600.64	1867.58
600.99	1860.05
601.34	1853.32
601.69	1846.26
602.04	1839.43
602.39	1832.01
602.74	1825.25
603.08	1818.47
603.43	1811.73
603.78	1804.50
604.13	1797.24
604.48	1789.92
604.83	1783.14
605.18	1775.91
605.53	1767.78
605.87	1759.72
606.22	1752.55
606.57	1744.56
606.92	1737.29
607.27	1729.93
607.62	1722.94
607.96	1715.74
608.31	1709.06
608.66	1701.24
609.01	1693.51
609.36	1685.89
609.70	1677.85
610.05	1669.70
610.40	1662.03
610.75	1653.78
611.10	1646.12
611.44	1637.78
611.79	1629.75
612.14	1620.98
612.49	1611.99
612.83	1603.64
613.18	1595.61
613.53	1587.40
613.88	1578.93
614.22	1570.65
614.57	1562.15
614.92	1554.08
615.27	1546.34
615.61	1537.99
615.96	1530.08
616.31	1522.59
616.65	1515.29
617.00	1507.74
617.35	1500.05
617.70	1491.54
618.04	1482.99
618.39	1474.73
618.74	1467.05
619.08	1458.71
619.43	1451.19
619.78	1444.28
620.12	1437.04
620.47	1429.42
620.82	1421.25
621.16	1413.88
621.51	1406.15
621.85	1398.61
622.20	1390.08
622.55	1381.85
622.89	1374.12
623.24	1366.50
623.59	1359.10
623.93	1351.49
624.28	1344.34
624.62	1336.81
624.97	1329.72
625.32	1322.98
625.66	1315.97
626.01	1308.71
626.35	1301.43
626.70	1293.64
627.04	1285.91
627.39	1278.30
627.73	1270.93
628.08	1263.90
628.43	1256.55
628.77	1249.14
629.12	1241.56
629.46	1234.42
629.81	1226.93
630.15	1219.58
630.50	1212.16
630.84	1203.98
631.19	1196.19
631.53	1188.69
631.88	1181.17
632.22	1173.57
632.57	1166.25
632.91	1158.71
633.26	1151.44
633.60	1144.01
633.95	1136.90
634.29	1129.86
634.64	1123.10
634.98	1115.79
635.32	1108.61
635.67	1102.11
636.01	1095.57
636.36	1088.74
636.70	1082.24
637.05	1075.68
637.39	1069.26
637.73	1062.84
638.08	1056.95
638.42	1050.89
638.77	1044.39
639.11	1037.78
639.45	1031.36
639.80	1024.72
640.14	1018.27
640.49	1011.69
640.83	1005.39
641.17	999.15
641.52	992.84
641.86	986.44
642.20	980.64
642.55	974.46
642.89	967.92
643.23	961.36
643.58	955.58
643.92	949.40
644.26	943.29
644.61	937.22
644.95	931.19
645.29	924.58
645.64	917.82
645.98	911.54
646.32	905.85
646.66	899.88
647.01	894.05
647.35	888.42
647.69	882.58
648.04	877.10
648.38	871.29
648.72	865.24
649.06	859.13
649.41	853.21
649.75	847.19
650.09	841.21
650.43	835.42
650.78	829.21
651.12	823.27
651.46	817.57
651.80	811.85
652.14	806.39
652.49	801.11
652.83	795.97
653.17	790.29
653.51	784.43
653.85	779.04
654.20	773.36
654.54	767.31
654.88	761.58
655.22	755.71
655.56	750.01
655.90	744.61
656.25	739.40
656.59	734.02
656.93	728.95
657.27	723.80
657.61	718.40
657.95	713.35
658.29	708.20
658.64	702.99
658.98	697.75
659.32	692.29
659.66	687.02
660.00	681.69
660.34	676.72
660.68	671.83
661.02	666.83
661.36	662.18
661.70	657.74
662.05	653.44
662.39	649.11
662.73	644.73
663.07	640.32
663.41	635.85
663.75	631.33
664.09	626.79
664.43	622.48
664.77	618.31
665.11	614.07
665.45	610.02
665.79	605.95
666.13	601.82
666.47	597.73
666.81	593.62
667.15	589.49
667.49	585.60
667.83	581.84
668.17	577.90
668.51	573.84
668.85	569.85
669.19	565.98
669.53	562.12
669.87	558.24
670.21	554.56
670.55	550.93
670.89	547.53
671.23	544.12
671.57	540.59
671.91	537.09
672.25	533.63
672.58	530.10
672.92	526.70
673.26	523.51
673.60	520.36
673.94	517.25
674.28	514.35
674.62	511.42
674.96	508.32
675.30	505.44
675.64	502.63
675.97	499.86
676.31	497.03
676.65	494.12
676.99	491.39
677.33	488.50
677.67	485.70
678.01	482.67
678.34	479.64
678.68	476.78
679.02	474.03
679.36	471.23
679.70	468.53
680.04	465.78
680.37	462.90
680.71	460.12
681.05	457.54
681.39	454.84
681.73	452.23
682.06	449.67
682.40	447.09
682.74	444.52
683.08	441.98
683.42	439.35
683.75	436.82
684.09	434.26
684.43	431.83
684.77	429.38
685.10	427.09
685.44	424.85
685.78	422.58
686.12	420.29
686.45	418.02
686.79	415.75
687.13	413.56
687.46	411.45
687.80	409.35
688.14	407.09
688.48	405.05
688.81	402.78
689.15	400.68
689.49	398.57
689.82	396.49
690.16	394.38
690.50	392.40
690.83	390.47
691.17	388.56
691.51	386.70
691.84	384.87
692.18	382.89
692.52	380.85
692.85	378.94
693.19	377.05
693.52	375.29
693.86	373.49
694.20	371.72
694.53	369.97
694.87	368.09
695.21	366.31
695.54	364.49
695.88	362.76
696.21	361.04
696.55	359.32
696.88	357.62
697.22	355.97
697.56	354.38
697.89	352.72
698.23	351.08
698.56	349.42
698.90	347.79
699.23	346.15
699.57	344.62
699.90	343.07
700.24	341.54
700.58	339.94
700.91	338.43
701.25	336.95
701.58	335.50
701.92	334.11
702.25	332.76
702.59	331.40
702.92	330.10
703.26	328.79
703.59	327.55
703.93	326.37
704.26	325.13
704.60	323.85
704.93	322.59
705.26	321.35
705.60	320.19
705.93	319.07
706.27	318.04
706.60	316.99
706.94	315.94
707.27	314.82
707.61	313.79
707.94	312.80
708.27	311.76
708.61	310.72
708.94	309.74
709.28	308.79
709.61	307.82
709.94	306.88
710.28	305.89
710.61	304.93
710.95	303.86
711.28	302.97
711.61	302.05
711.95	301.14
712.28	300.20
712.61	299.26
712.95	298.32
713.28	297.45
713.61	296.57
713.95	295.66
714.28	294.84
714.61	293.98
714.95	293.17
715.28	292.34
715.61	291.46
715.95	290.66
716.28	289.79
716.61	288.99
716.95	288.20
717.28	287.44
717.61	286.69
717.94	285.97
718.28	285.17
718.61	284.43
718.94	283.75
719.27	283.12
719.61	282.50
719.94	281.85
720.27	281.14
720.60	280.50
720.94	279.88
721.27	279.25
721.60	278.67
721.93	278.04
722.27	277.51
722.60	276.94
722.93	276.31
723.26	275.77
723.59	275.20
723.93	274.61
724.26	274.09
724.59	273.53
724.92	273.04
725.25	272.55
725.59	272.03
725.92	271.49
726.25	270.95
726.58	270.45
726.91	269.94
727.24	269.46
727.57	268.98
727.91	268.47
728.24	268.05
728.57	267.56
728.90	267.08
729.23	266.54
729.56	266.14
729.89	265.70
730.22	265.23
730.55	264.74
730.89	264.30
731.22	263.81
731.55	263.38
731.88	262.94
732.21	262.49
732.54	262.06
732.87	261.64
733.20	261.25
733.53	260.84
733.86	260.43
734.19	260.03
734.52	259.64
734.85	259.36
735.18	258.88
735.51	258.52
735.84	258.18
736.17	257.82
736.50	257.40
736.83	257.17
737.16	256.79
737.49	256.44
737.82	256.10
738.15	255.78
738.48	255.37
738.81	255.02
739.14	254.69
739.47	254.33
739.80	254.02
740.13	253.74
740.46	253.43
740.79	253.12
741.12	252.81
741.45	252.52
741.78	252.15
742.11	251.88
742.44	251.59
742.77	251.29
743.10	250.97
743.43	250.70
743.75	250.28
744.08	250.15
744.41	249.92
744.74	249.63
745.07	249.33
745.40	249.16
745.73	248.94
746.06	248.68
746.39	248.44
746.71	248.13
747.04	247.85
747.37	247.56
747.70	247.33
748.03	247.07
748.36	246.82
748.68	246.57
749.01	246.30
749.34	246.03
749.67	245.82
750.00	245.61
750.33	245.43
750.65	245.22
750.98	244.88
751.31	244.66
751.64	244.45
751.97	244.31
752.29	244.06
752.62	243.80
752.95	243.59
753.28	243.41
753.60	243.27
753.93	243.08
754.26	242.93
754.59	242.71
754.91	242.53
755.24	242.33
755.57	242.19
755.90	242.02
756.22	241.84
756.55	241.63
756.88	241.46
757.20	241.26
757.53	241.11
757.86	240.95
758.19	240.81
758.51	240.70
758.84	240.51
759.17	240.34
759.49	240.18
759.82	240.09
760.15	239.92
760.47	239.75
760.80	239.59
761.13	239.44
761.45	239.30
761.78	239.18
762.11	239.05
762.43	238.86
762.76	238.74
763.08	238.63
763.41	238.50
763.74	238.37
764.06	238.23
764.39	238.08
764.71	237.98
765.04	237.80
765.37	237.61
765.69	237.44
766.02	237.28
766.34	237.18
766.67	237.01
767.00	236.90
767.32	236.84
767.65	236.77
767.97	236.62
768.30	236.51
768.62	236.38
768.95	236.24
769.27	236.14
769.60	236.07
769.92	235.94
770.25	235.80
770.57	235.68
770.90	235.58
771.22	235.50
771.55	235.35
771.87	235.24
772.20	235.13
772.52	235.15
772.85	235.17
773.17	235.05
773.50	234.97
773.82	234.86
774.15	234.71
774.47	234.60
774.80	234.48
775.12	234.35
775.45	234.28
775.77	234.19
776.09	234.14
776.42	234.01
776.74	233.95
777.07	233.90
777.39	233.81
777.72	233.68
778.04	233.59
778.36	233.53
778.69	233.46
779.01	233.41
779.33	233.26
779.66	233.11
779.98	233.01
780.31	232.91
780.63	232.89
780.95	232.85
781.28	232.74
781.60	232.67
781.92	232.63
782.25	232.59
782.57	232.51
782.89	232.40
783.22	232.33
783.54	232.25
783.86	232.19
784.19	232.16
784.51	232.16
784.83	232.10
785.16	232.01
785.48	232.02
785.80	231.98
786.12	231.93
786.45	231.91
786.77	231.89
787.09	231.86
787.42	231.73
787.74	231.67
788.06	231.63
788.38	231.59
788.71	231.54
789.03	231.49
789.35	231.47
789.67	231.43
789.99	231.42
790.32	231.35
790.64	231.34
790.96	231.37
791.28	231.31
791.61	231.26
791.93	231.26
792.25	231.19
792.57	231.19
792.89	231.13
793.21	231.08
793.54	231.04
793.86	231.02
794.18	231.02
794.50	231.00
794.82	230.98
795.14	230.94
795.47	230.91
795.79	230.88
796.11	230.82
796.43	230.81
796.75	230.78
797.07	230.78
797.39	230.74
797.71	230.63
798.04	230.61
798.36	230.60
798.68	230.57
799.00	230.54
799.32	230.49
799.64	230.49
799.96	230.45
800.28	230.42
800.60	230.40
800.92	230.39
801.24	230.37
801.56	230.34
801.89	230.33
802.21	230.32
802.53	230.29
802.85	230.28
803.17	230.25
803.49	230.21
803.81	230.16
804.13	230.10
804.45	230.03
804.77	229.99
805.09	229.95
805.41	229.86
805.73	229.83
806.05	229.78
806.37	229.73
806.69	229.69
807.01	229.68
807.33	229.62
807.65	229.55
807.97	229.54
808.28	229.52
808.60	229.50
808.92	229.44
809.24	229.45
809.56	229.40
809.88	229.37
810.20	229.33
810.52	229.29
810.84	229.30
811.16	229.28
811.48	229.24
811.80	229.20
812.12	229.23
812.43	229.23
812.75	229.20
813.07	229.15
813.39	229.11
813.71	229.04
814.03	228.99
814.35	228.95
814.67	228.86
814.98	228.81
815.30	228.76
815.62	228.76
815.94	228.65
816.26	228.71
816.58	228.65
816.89	228.65
817.21	228.60
817.53	228.55
817.85	228.53
818.17	228.52
818.48	228.47
818.80	228.42
819.12	228.37
819.44	228.32
819.76	228.32
820.07	228.32
820.39	228.28
820.71	228.26
821.03	228.25
821.34	228.24
821.66	228.25
821.98	228.24
822.30	228.20
822.61	228.27
822.93	228.18
823.25	228.20
823.57	228.19
823.88	228.21
824.20	228.20
824.52	228.19
824.83	228.16
825.15	228.19
825.47	228.19
825.79	228.17
826.10	228.18
826.42	228.17
826.74	228.17
827.05	228.20
827.37	228.23
827.69	228.25
828.00	228.24
828.32	228.23
828.64	228.24
828.95	228.26
829.27	228.22
829.58	228.22
829.90	228.21
830.22	228.23
830.53	228.19
830.85	228.21
831.17	228.20
831.48	228.22
831.80	228.22
832.11	228.24
832.43	228.25
832.75	228.22
833.06	228.28
833.38	228.28
833.69	228.26
834.01	228.30
834.32	228.26
834.64	228.26
834.96	228.27
835.27	228.27
835.59	228.26
835.90	228.25
836.22	228.24
836.53	228.24
836.85	228.21
837.16	228.35
837.48	228.32
837.79	228.36
838.11	228.35
838.42	228.34
838.74	228.36
839.05	228.34
839.37	228.35
839.68	228.29
840.00	228.24
840.31	228.24
840.63	228.21
840.94	228.21
841.26	228.22
841.57	228.23
841.88	228.25
842.20	228.23
842.51	228.20
842.83	228.20
843.14	228.26
843.46	228.30
843.77	228.20
844.08	228.23
844.40	228.19
844.71	228.18
845.03	228.14
845.34	228.11
845.65	228.12
845.97	228.10
846.28	228.10
846.60	228.09
846.91	228.07
847.22	228.06
847.54	228.08
847.85	228.04
848.16	228.01
848.48	227.95
848.79	228.00
849.10	227.98
849.42	228.01
849.73	227.91
850.04	227.84
850.36	227.85
850.67	227.84
850.98	227.83
851.30	227.85
851.61	227.85
851.92	227.84
852.23	227.86
852.55	227.91
852.86	227.89
853.17	227.89
853.49	227.93
853.80	227.93
854.11	227.91
854.42	227.93
854.74	227.91
855.05	227.93
855.36	227.87
855.67	227.84
855.99	227.82
856.30	227.93
856.61	227.94
856.92	227.90
857.23	227.87
857.55	227.85
857.86	227.83
858.17	227.86
858.48	227.82
858.79	227.78
859.11	227.76
859.42	227.75
859.73	227.71
860.04	227.68
860.35	227.62
860.66	227.58
860.98	227.54
861.29	227.55
861.60	227.50
861.91	227.53
862.22	227.55
862.53	227.52
862.84	227.39
863.16	227.41
863.47	227.37
863.78	227.38
864.09	227.40
864.40	227.39
864.71	227.34
865.02	227.38
865.33	227.39
865.64	227.38
865.95	227.37
866.27	227.47
866.58	227.46
866.89	227.50
867.20	227.51
867.51	227.52
867.82	227.52
868.13	227.55
868.44	227.53
868.75	227.55
869.06	227.58
869.37	227.61
869.68	227.57
869.99	227.61
870.30	227.60
870.61	227.59
870.92	227.59
871.23	227.58
871.54	227.59
871.85	227.58
872.16	227.58
872.47	227.60
872.78	227.55
873.09	227.59
873.40	227.56
873.71	227.57
874.02	227.58
874.33	227.57
874.64	227.57
874.95	227.58
875.26	227.57
875.56	227.56
875.87	227.55
876.18	227.53
876.49	227.64
876.80	227.65
877.11	227.66
877.42	227.66
877.73	227.69
878.04	227.66
878.35	227.65
878.66	227.66
878.96	227.65
879.27	227.63
879.58	227.61
879.89	227.62
880.20	227.66
880.51	227.67
880.82	227.63
881.12	227.65
881.43	227.63
881.74	227.60
882.05	227.61
882.36	227.63
882.67	227.67
882.97	227.56
883.28	227.54
883.59	227.55
883.90	227.58
884.21	227.60
884.51	227.59
884.82	227.58
885.13	227.57
885.44	227.57
885.74	227.57
886.05	227.55
886.36	227.55
886.67	227.51
886.98	227.55
887.28	227.58
887.59	227.55
887.90	227.54
888.20	227.54
888.51	227.51
888.82	227.46
889.13	227.47
889.43	227.53
889.74	227.50
890.05	227.44
890.35	227.40
890.66	227.38
890.97	227.37
891.28	227.35
891.58	227.34
891.89	227.36
892.20	227.33
892.50	227.33
892.81	227.30
893.12	227.30
893.42	227.23
893.73	227.24
894.04	227.24
894.34	227.22
894.65	227.20
894.95	227.19
895.26	227.20
895.57	227.24
895.87	227.12
896.18	227.14
896.48	227.16
896.79	227.15
897.10	227.14
897.40	227.13
897.71	227.16
898.01	227.16
898.32	227.18
898.63	227.17
898.93	227.17
899.24	227.14
899.54	227.12
899.85	227.09
900.15	227.09
900.46	227.09
900.76	227.11
901.07	227.12
901.38	227.13
901.68	227.13
901.99	227.04
902.29	227.05
902.60	227.05
902.90	227.00
903.21	226.99
903.51	226.96
903.82	226.99
904.12	226.95
904.43	226.92
904.73	226.86
905.03	226.85
905.34	226.92
905.64	226.97
905.95	226.95
906.25	226.97
906.56	226.93
906.86	226.93
907.17	226.94
907.47	226.95
907.77	226.91
908.08	226.88
908.38	226.92
908.69	226.97
908.99	226.98
909.30	227.03
909.60	227.03
909.90	227.05
910.21	227.00
910.51	226.99
910.81	227.01
911.12	227.03
911.42	227.06
911.73	226.98
912.03	226.97
912.33	227.02
912.64	227.01
912.94	227.04
913.24	227.02
913.55	227.00
913.85	226.98
914.15	227.04
914.46	227.08
914.76	227.09
915.06	227.04
915.37	227.00
915.67	226.98
915.97	226.99
916.27	226.97
916.58	226.99
916.88	227.02
917.18	226.98
917.49	227.04
917.79	227.03
918.09	227.06
918.39	227.06
918.70	227.05
919.00	227.07
919.30	227.09
919.60	227.09
919.91	227.07
920.21	227.06
920.51	227.01
920.81	226.97
921.12	226.93
921.42	226.94
921.72	226.96
922.02	226.97
922.32	226.97
922.63	226.98
922.93	227.01
923.23	227.03
923.53	227.03
923.83	226.98
924.13	227.01
924.44	227.00
924.74	227.03
925.04	227.06
925.34	227.05
925.64	227.06
925.94	227.07
926.24	227.14
926.55	227.18
926.85	227.20
927.15	227.23
927.45	227.26
927.75	227.28
928.05	227.28
928.35	227.29
928.65	227.33
928.95	227.34
929.26	227.32
929.56	227.32
929.86	227.35
930.16	227.32
930.46	227.31
930.76	227.32
931.06	227.29
931.36	227.24
931.66	227.26
931.96	227.26
932.26	227.28
932.56	227.24
932.86	227.23
933.16	227.25
933.46	227.22
933.76	227.20
934.06	227.22
934.36	227.29
934.66	227.30
934.96	227.28
935.26	227.32
935.56	227.33
935.86	227.31
936.16	227.29
936.46	227.29
936.76	227.27
937.06	227.28
937.36	227.28
937.66	227.28
937.96	227.31
938.26	227.23
938.56	227.21
938.86	227.24
939.16	227.25
939.46	227.25
939.76	227.28
940.06	227.29
940.35	227.25
940.65	227.18
940.95	227.15
941.25	227.12
941.55	227.10
941.85	227.09
942.15	227.11
942.45	227.13
942.75	227.12
943.04	227.13
943.34	227.15
943.64	227.11
943.94	227.12
944.24	227.08
944.54	227.14
944.84	227.14
945.13	227.13
945.43	227.11
945.73	227.11
946.03	227.10
946.33	227.11
946.62	227.10
946.92	227.11
947.22	227.15
947.52	227.18
947.82	227.18
948.11	227.18
948.41	227.16
948.71	227.16
949.01	227.17
949.31	227.18
949.60	227.16
949.90	227.19
950.20	227.17
950.50	227.19
950.79	227.20
951.09	227.23
951.39	227.20
951.69	227.17
951.98	227.19
952.28	227.17
952.58	227.16
952.87	227.18
953.17	227.19
953.47	227.16
953.76	227.18
954.06	227.15
954.36	227.14
954.66	227.16
954.95	227.19
955.25	227.19
955.55	227.17
955.84	227.17
956.14	227.20
956.44	227.22
956.73	227.20
957.03	227.21
957.32	227.17
957.62	227.18
957.92	227.22
958.21	227.20
958.51	227.35
958.81	227.34
959.10	227.35
959.40	227.35
959.69	227.38
959.99	227.38
960.29	227.40
960.58	227.40
960.88	227.40
961.17	227.38
961.47	227.39
961.76	227.41
962.06	227.39
962.36	227.35
962.65	227.33
962.95	227.31
963.24	227.28
963.54	227.27
963.83	227.28
964.13	227.26
964.42	227.21
964.72	227.11
965.01	227.13
965.31	227.12
965.60	227.12
965.90	227.15
966.19	227.14
966.49	227.15
966.78	227.14
967.08	227.15
967.37	227.17
967.67	227.16
967.96	227.18
968.26	227.22
968.55	227.25
968.85	227.25
969.14	227.27
969.43	227.29
969.73	227.28
970.02	227.27
970.32	227.26
970.61	227.31
970.91	227.26
971.20	227.26
971.49	227.27
971.79	227.26
972.08	227.21
972.38	227.20
972.67	227.19
972.96	227.19
973.26	227.14
973.55	227.13
973.85	227.13
974.14	227.08
974.43	227.05
974.73	227.04
975.02	227.01
975.31	227.01
975.61	226.98
975.90	226.99
976.19	227.00
976.49	227.02
976.78	227.02
977.07	227.05
977.37	227.05
977.66	227.05
977.95	227.06
978.24	227.05
978.54	227.09
978.83	227.06
979.12	227.05
979.42	227.06
979.71	227.05
980.00	227.06
980.29	227.07
980.59	227.08
980.88	227.09
981.17	227.11
981.46	227.12
981.76	227.13
982.05	227.16
982.34	227.13
982.63	227.16
982.93	227.14
983.22	227.15
983.51	227.13
983.80	227.11
984.09	227.10
984.39	227.10
984.68	227.06
984.97	227.07
985.26	227.08
985.55	227.09
985.85	227.05
986.14	227.08
986.43	227.07
986.72	227.06
987.01	227.04
987.30	227.01
987.59	227.02
987.89	227.00
988.18	226.99
988.47	227.00
988.76	226.94
989.05	226.96
989.34	226.96
989.63	227.00
989.92	226.98
990.22	226.96
990.51	226.95
990.80	226.93
991.09	226.95
991.38	226.97
991.67	226.98
991.96	226.99
992.25	226.98
992.54	226.99
992.83	227.02
993.12	227.00
993.41	227.02
993.70	227.00
993.99	227.04
994.28	227.04
994.58	227.02
994.87	227.03
995.16	227.03
995.45	227.01
995.74	226.97
996.03	226.98
996.32	227.01
996.61	227.02
996.90	227.06
997.19	227.07
997.48	227.07
997.77	227.03
998.06	227.03
998.34	227.01
998.63	226.98
998.92	226.95
999.21	226.98
999.50	226.98
999.79	227.00
1000.08	226.98
1000.37	227.00
1000.66	227.01
1000.95	227.04
1001.24	227.03
1001.53	227.01
1001.82	227.04
1002.11	227.05
1002.40	227.03
1002.68	227.05
1002.97	227.11
1003.26	227.07
1003.55	227.04
1003.84	227.07
1004.13	227.15
1004.42	227.14
1004.71	227.18
1004.99	227.18
1005.28	227.17
1005.57	227.17
1005.86	227.14
1006.15	227.15
1006.44	227.12
1006.72	227.10
1007.01	227.08
1007.30	227.10
1007.59	227.08
1007.88	227.06
1008.17	227.05
1008.45	227.07
1008.74	227.04
1009.03	227.01
1009.32	227.00
1009.60	226.99
1009.89	226.96
1010.18	226.88
1010.47	226.91
1010.76	226.88
1011.04	226.89
1011.33	226.90
1011.62	226.91
1011.91	226.91
1012.19	226.90
1012.48	226.89
1012.77	226.92
1013.05	226.94
1013.34	226.93
1013.63	226.94
1013.92	226.94
1014.20	226.95
1014.49	226.94
1014.78	226.95
1015.06	226.90
1015.35	226.92
1015.64	226.94
1015.92	226.96
1016.21	226.98
1016.50	226.97
1016.78	227.01
1017.07	227.02
1017.36	227.04
1017.64	227.03
1017.93	227.05
1018.22	227.03
1018.50	227.03
1018.79	227.01
1019.08	226.97
1019.36	226.97
1019.65	226.97
1019.93	227.01
1020.22	227.02
1020.51	227.05
1020.79	227.02
1021.08	226.24
1021.36	226.65
1021.65	226.79
1021.94	226.59
1022.22	226.76
1022.51	226.68
1022.79	227.79
1023.08	227.06
1023.36	227.82
1023.65	226.65
>>>>>End Processed Spectral Data<<<<<
