SpectraSuite Data File
++++++++++++++++++++++++++++++++++++
Date: Fri Feb 01 15:49:04 EST 2013
User: group
Dark Spectrum Present: No
Reference Spectrum Present: No
Number of Sampled Component Spectra: 1
Spectrometers: USB2E7196
Integration Time (usec): 35000 (USB2E7196)
Spectra Averaged: 100 (USB2E7196)
Boxcar Smoothing: 10 (USB2E7196)
Correct for Electrical Dark: No (USB2E7196)
Strobe/Lamp Enabled: No (USB2E7196)
Correct for Detector Non-linearity: No (USB2E7196)
Correct for Stray Light: No (USB2E7196)
Number of Pixels in Processed Spectrum: 2048
>>>>>Begin Processed Spectral Data<<<<<
339.09	0.00
339.48	215.59
339.86	216.33
340.24	217.47
340.63	219.70
341.01	221.80
341.39	222.31
341.78	222.83
342.16	224.50
342.54	225.34
342.93	213.39
343.31	224.19
343.69	224.70
344.07	225.16
344.46	225.61
344.84	225.99
345.22	226.24
345.60	226.48
345.99	226.69
346.37	226.81
346.75	226.89
347.13	226.98
347.52	227.00
347.90	227.08
348.28	227.13
348.66	227.19
349.05	227.17
349.43	227.20
349.81	227.22
350.19	227.26
350.57	227.30
350.96	227.37
351.34	227.43
351.72	227.52
352.10	227.62
352.48	227.69
352.87	227.72
353.25	227.79
353.63	227.86
354.01	227.91
354.39	227.99
354.77	228.07
355.15	228.16
355.54	228.26
355.92	228.26
356.30	228.33
356.68	228.46
357.06	228.55
357.44	228.61
357.82	228.67
358.20	228.76
358.58	228.81
358.97	228.87
359.35	228.93
359.73	228.98
360.11	229.01
360.49	229.07
360.87	229.10
361.25	229.15
361.63	229.18
362.01	229.23
362.39	229.21
362.77	229.25
363.15	229.27
363.53	229.27
363.91	229.34
364.29	229.36
364.67	229.24
365.05	229.23
365.43	229.23
365.81	229.26
366.19	229.29
366.57	229.31
366.95	229.28
367.33	229.24
367.71	229.24
368.09	229.24
368.47	229.18
368.85	229.13
369.23	229.13
369.61	229.07
369.99	229.05
370.37	229.09
370.75	229.07
371.13	228.99
371.51	228.92
371.89	228.86
372.27	228.77
372.65	228.72
373.03	228.67
373.41	228.59
373.78	228.51
374.16	228.39
374.54	228.31
374.92	228.25
375.30	228.18
375.68	228.07
376.06	228.01
376.44	227.93
376.82	227.87
377.19	227.79
377.57	227.73
377.95	227.62
378.33	227.52
378.71	227.38
379.09	227.35
379.47	227.29
379.84	227.20
380.22	227.14
380.60	227.08
380.98	227.02
381.36	226.99
381.73	226.90
382.11	226.87
382.49	226.82
382.87	226.76
383.25	226.74
383.62	226.82
384.00	226.77
384.38	226.74
384.76	226.72
385.13	226.71
385.51	226.67
385.89	226.63
386.27	226.56
386.64	226.56
387.02	226.49
387.40	226.45
387.78	226.41
388.15	226.40
388.53	226.40
388.91	226.35
389.29	226.33
389.66	226.34
390.04	226.33
390.42	226.33
390.79	226.34
391.17	226.32
391.55	226.21
391.92	226.20
392.30	226.21
392.68	226.22
393.05	226.22
393.43	226.23
393.81	226.25
394.18	226.30
394.56	226.31
394.94	226.37
395.31	226.39
395.69	226.48
396.06	226.50
396.44	226.52
396.82	226.56
397.19	226.63
397.57	226.67
397.95	226.74
398.32	226.76
398.70	226.82
399.07	226.86
399.45	226.93
399.82	227.02
400.20	227.08
400.58	227.14
400.95	227.17
401.33	227.29
401.70	227.45
402.08	227.55
402.45	227.64
402.83	227.74
403.20	227.87
403.58	227.95
403.95	228.10
404.33	228.23
404.71	228.37
405.08	228.59
405.46	228.72
405.83	228.86
406.21	229.00
406.58	229.20
406.96	229.39
407.33	229.56
407.70	229.73
408.08	230.02
408.45	230.21
408.83	230.45
409.20	230.66
409.58	230.83
409.95	231.09
410.33	231.38
410.70	231.66
411.08	231.96
411.45	232.29
411.82	232.59
412.20	232.95
412.57	233.36
412.95	233.62
413.32	234.02
413.69	234.44
414.07	234.87
414.44	235.27
414.82	235.77
415.19	236.30
415.56	236.84
415.94	237.38
416.31	238.03
416.68	238.67
417.06	239.38
417.43	240.05
417.81	240.79
418.18	241.54
418.55	242.37
418.93	243.23
419.30	244.09
419.67	245.02
420.04	245.97
420.42	246.96
420.79	248.14
421.16	249.26
421.54	250.42
421.91	251.65
422.28	252.88
422.66	254.20
423.03	255.55
423.40	256.89
423.77	258.29
424.15	259.69
424.52	261.15
424.89	262.75
425.26	264.36
425.64	265.82
426.01	267.42
426.38	269.07
426.75	270.72
427.13	272.45
427.50	274.25
427.87	276.15
428.24	278.00
428.61	279.75
428.99	281.71
429.36	283.83
429.73	285.89
430.10	287.95
430.47	290.02
430.85	292.09
431.22	294.31
431.59	296.69
431.96	298.96
432.33	301.43
432.70	303.81
433.08	306.60
433.45	309.22
433.82	311.82
434.19	314.70
434.56	317.54
434.93	320.21
435.30	322.82
435.68	325.69
436.05	328.55
436.42	331.32
436.79	333.84
437.16	336.53
437.53	339.37
437.90	342.21
438.27	344.95
438.64	347.75
439.01	350.38
439.38	352.66
439.75	354.84
440.13	357.38
440.50	359.69
440.87	361.52
441.24	363.52
441.61	365.68
441.98	367.21
442.35	369.02
442.72	370.86
443.09	372.68
443.46	373.66
443.83	374.21
444.20	374.76
444.57	375.57
444.94	375.90
445.31	376.21
445.68	376.55
446.05	376.62
446.42	376.26
446.79	375.81
447.16	375.37
447.53	375.06
447.90	373.87
448.27	372.72
448.64	371.14
449.01	369.97
449.37	367.99
449.74	366.09
450.11	363.86
450.48	361.40
450.85	358.85
451.22	356.73
451.59	354.71
451.96	352.75
452.33	350.17
452.70	347.76
453.07	344.98
453.43	342.09
453.80	339.34
454.17	336.66
454.54	334.11
454.91	331.37
455.28	328.69
455.65	326.22
456.02	323.81
456.38	321.67
456.75	319.00
457.12	316.75
457.49	314.52
457.86	312.29
458.23	310.40
458.59	308.37
458.96	306.28
459.33	304.42
459.70	302.54
460.07	301.08
460.43	299.39
460.80	297.72
461.17	296.25
461.54	294.72
461.91	293.33
462.27	291.89
462.64	290.63
463.01	289.26
463.38	287.93
463.74	286.52
464.11	285.34
464.48	284.32
464.85	283.19
465.21	282.31
465.58	281.40
465.95	280.32
466.32	279.44
466.68	278.51
467.05	277.64
467.42	276.76
467.78	275.78
468.15	274.89
468.52	274.24
468.88	273.39
469.25	272.63
469.62	271.96
469.98	271.26
470.35	270.62
470.72	270.01
471.08	269.37
471.45	268.83
471.82	268.31
472.18	267.73
472.55	267.33
472.92	266.79
473.28	266.34
473.65	265.92
474.02	265.48
474.38	265.15
474.75	264.80
475.11	264.47
475.48	264.24
475.85	263.99
476.21	263.75
476.58	263.58
476.94	263.39
477.31	263.26
477.67	263.13
478.04	263.02
478.41	262.99
478.77	263.03
479.14	262.98
479.50	262.99
479.87	263.04
480.23	263.14
480.60	263.23
480.96	263.31
481.33	263.49
481.69	263.67
482.06	263.83
482.42	264.02
482.79	264.27
483.15	264.58
483.52	264.94
483.88	265.28
484.25	265.67
484.61	266.11
484.98	266.55
485.34	267.08
485.71	267.69
486.07	268.26
486.44	268.85
486.80	269.58
487.17	270.29
487.53	271.08
487.90	271.92
488.26	272.86
488.62	273.86
488.99	274.85
489.35	275.89
489.72	277.02
490.08	278.23
490.44	279.50
490.81	280.86
491.17	282.24
491.54	283.74
491.90	285.27
492.26	286.95
492.63	288.71
492.99	290.51
493.36	292.44
493.72	294.50
494.08	296.59
494.45	298.83
494.81	301.22
495.17	303.67
495.54	306.24
495.90	308.91
496.26	311.71
496.63	314.67
496.99	317.80
497.35	321.07
497.72	324.50
498.08	327.97
498.44	331.64
498.80	335.61
499.17	339.63
499.53	343.85
499.89	348.22
500.26	352.72
500.62	357.40
500.98	362.37
501.34	367.43
501.71	372.77
502.07	378.22
502.43	383.87
502.79	389.70
503.16	395.79
503.52	402.12
503.88	408.50
504.24	415.16
504.60	422.10
504.97	429.24
505.33	436.54
505.69	444.28
506.05	452.02
506.41	459.86
506.78	468.03
507.14	476.44
507.50	485.15
507.86	494.15
508.22	503.42
508.59	512.53
508.95	522.19
509.31	532.00
509.67	542.05
510.03	552.28
510.39	562.76
510.75	573.53
511.12	584.44
511.48	595.77
511.84	607.23
512.20	618.70
512.56	630.72
512.92	642.87
513.28	655.21
513.64	667.69
514.00	680.38
514.37	693.31
514.73	706.38
515.09	719.45
515.45	732.77
515.81	746.24
516.17	760.26
516.53	774.39
516.89	788.53
517.25	802.75
517.61	817.21
517.97	831.69
518.33	846.12
518.69	860.80
519.05	875.76
519.41	890.92
519.77	906.44
520.13	921.88
520.49	937.32
520.85	952.71
521.21	968.45
521.57	984.74
521.93	1000.50
522.29	1016.92
522.65	1033.12
523.01	1049.37
523.37	1065.44
523.73	1081.59
524.09	1097.59
524.45	1113.95
524.81	1130.54
525.17	1147.39
525.53	1164.30
525.89	1181.14
526.25	1198.11
526.61	1214.55
526.97	1231.25
527.33	1247.62
527.68	1264.03
528.04	1280.54
528.40	1297.21
528.76	1314.25
529.12	1330.84
529.48	1347.69
529.84	1363.60
530.20	1380.28
530.56	1397.22
530.91	1414.73
531.27	1431.49
531.63	1447.97
531.99	1464.49
532.35	1480.51
532.71	1496.24
533.07	1512.54
533.42	1528.34
533.78	1544.30
534.14	1560.55
534.50	1575.97
534.86	1592.03
535.21	1607.29
535.57	1623.20
535.93	1638.65
536.29	1653.45
536.65	1668.43
537.00	1683.10
537.36	1698.40
537.72	1712.87
538.08	1727.36
538.44	1741.08
538.79	1754.98
539.15	1768.62
539.51	1782.34
539.87	1796.61
540.22	1810.41
540.58	1824.16
540.94	1837.50
541.29	1850.47
541.65	1862.96
542.01	1876.18
542.37	1888.37
542.72	1900.75
543.08	1912.35
543.44	1924.71
543.79	1935.98
544.15	1947.06
544.51	1958.79
544.87	1969.79
545.22	1980.54
545.58	1990.73
545.94	2000.38
546.29	2010.31
546.65	2020.28
547.01	2029.68
547.36	2038.37
547.72	2046.86
548.07	2054.73
548.43	2062.94
548.79	2070.89
549.14	2078.62
549.50	2085.91
549.86	2093.62
550.21	2101.06
550.57	2108.21
550.92	2114.69
551.28	2121.75
551.64	2128.78
551.99	2135.20
552.35	2141.29
552.70	2147.51
553.06	2153.50
553.41	2159.98
553.77	2166.03
554.13	2172.20
554.48	2178.24
554.84	2183.69
555.19	2188.96
555.55	2194.08
555.90	2198.66
556.26	2203.50
556.61	2208.31
556.97	2212.58
557.32	2216.71
557.68	2220.67
558.03	2225.10
558.39	2228.79
558.74	2233.42
559.10	2237.32
559.45	2241.00
559.81	2245.56
560.16	2249.46
560.52	2252.58
560.87	2256.02
561.23	2258.61
561.58	2261.37
561.94	2263.73
562.29	2266.14
562.64	2268.69
563.00	2271.22
563.35	2274.61
563.71	2277.78
564.06	2280.85
564.42	2283.53
564.77	2285.89
565.12	2288.30
565.48	2290.07
565.83	2292.00
566.19	2293.25
566.54	2294.19
566.89	2295.24
567.25	2295.51
567.60	2296.71
567.96	2298.29
568.31	2299.10
568.66	2300.22
569.02	2300.73
569.37	2301.13
569.72	2301.87
570.08	2302.15
570.43	2302.17
570.78	2301.52
571.14	2299.93
571.49	2298.57
571.84	2298.50
572.20	2297.49
572.55	2296.29
572.90	2294.88
573.26	2293.68
573.61	2291.98
573.96	2290.04
574.31	2287.10
574.67	2284.13
575.02	2280.47
575.37	2277.01
575.72	2273.18
576.08	2269.67
576.43	2266.40
576.78	2262.64
577.13	2259.49
577.49	2256.35
577.84	2252.82
578.19	2249.21
578.54	2245.59
578.90	2241.38
579.25	2235.72
579.60	2230.72
579.95	2225.74
580.30	2220.63
580.66	2215.26
581.01	2210.28
581.36	2205.39
581.71	2201.24
582.06	2196.86
582.42	2192.42
582.77	2187.35
583.12	2182.76
583.47	2178.16
583.82	2173.14
584.17	2167.98
584.53	2162.46
584.88	2156.92
585.23	2151.15
585.58	2145.60
585.93	2140.19
586.28	2135.52
586.63	2130.51
586.98	2125.51
587.34	2120.76
587.69	2115.94
588.04	2110.59
588.39	2104.84
588.74	2098.39
589.09	2092.25
589.44	2085.42
589.79	2079.48
590.14	2074.00
590.49	2067.38
590.84	2060.89
591.19	2054.83
591.54	2048.33
591.89	2041.00
592.25	2034.12
592.60	2027.03
592.95	2019.52
593.30	2012.12
593.65	2004.40
594.00	1997.32
594.35	1990.07
594.70	1982.24
595.05	1974.97
595.40	1967.78
595.75	1960.18
596.10	1953.99
596.45	1947.34
596.80	1941.11
597.15	1934.29
597.50	1927.04
597.85	1920.60
598.19	1914.02
598.54	1906.85
598.89	1900.27
599.24	1894.42
599.59	1887.67
599.94	1881.48
600.29	1875.15
600.64	1868.65
600.99	1861.22
601.34	1854.45
601.69	1847.43
602.04	1840.39
602.39	1832.98
602.74	1826.17
603.08	1819.53
603.43	1812.76
603.78	1805.28
604.13	1798.12
604.48	1790.88
604.83	1784.10
605.18	1777.05
605.53	1768.94
605.87	1760.97
606.22	1753.71
606.57	1745.77
606.92	1738.41
607.27	1731.02
607.62	1723.94
607.96	1716.56
608.31	1709.81
608.66	1701.99
609.01	1694.43
609.36	1686.88
609.70	1678.98
610.05	1670.90
610.40	1663.28
610.75	1654.92
611.10	1647.29
611.44	1638.85
611.79	1630.85
612.14	1622.10
612.49	1612.98
612.83	1604.72
613.18	1596.65
613.53	1588.51
613.88	1580.01
614.22	1571.84
614.57	1563.35
614.92	1555.47
615.27	1547.95
615.61	1539.74
615.96	1531.87
616.31	1524.32
616.65	1516.97
617.00	1509.31
617.35	1501.63
617.70	1493.23
618.04	1484.78
618.39	1476.58
618.74	1469.07
619.08	1460.72
619.43	1453.27
619.78	1446.36
620.12	1439.11
620.47	1431.59
620.82	1423.46
621.16	1416.00
621.51	1408.42
621.85	1400.79
622.20	1392.12
622.55	1383.74
622.89	1375.79
623.24	1368.07
623.59	1360.62
623.93	1353.08
624.28	1345.93
624.62	1338.49
624.97	1331.31
625.32	1324.60
625.66	1317.64
626.01	1310.49
626.35	1303.04
626.70	1295.25
627.04	1287.45
627.39	1279.70
627.73	1272.30
628.08	1265.36
628.43	1257.99
628.77	1250.54
629.12	1242.98
629.46	1235.88
629.81	1228.43
630.15	1221.28
630.50	1213.91
630.84	1205.68
631.19	1197.78
631.53	1190.31
631.88	1182.76
632.22	1175.19
632.57	1167.87
632.91	1160.26
633.26	1152.67
633.60	1145.36
633.95	1138.26
634.29	1131.27
634.64	1124.64
634.98	1117.26
635.32	1110.05
635.67	1103.56
636.01	1096.92
636.36	1090.14
636.70	1083.60
637.05	1077.09
637.39	1070.56
637.73	1064.03
638.08	1058.20
638.42	1052.16
638.77	1045.75
639.11	1039.05
639.45	1032.59
639.80	1025.92
640.14	1019.51
640.49	1012.98
640.83	1006.74
641.17	1000.42
641.52	994.07
641.86	987.59
642.20	981.76
642.55	975.50
642.89	968.97
643.23	962.47
643.58	956.73
643.92	950.54
644.26	944.35
644.61	938.41
644.95	932.38
645.29	925.75
645.64	919.05
645.98	912.56
646.32	906.79
646.66	900.76
647.01	894.91
647.35	889.16
647.69	883.41
648.04	877.83
648.38	872.02
648.72	866.05
649.06	859.94
649.41	854.11
649.75	848.16
650.09	842.18
650.43	836.31
650.78	830.08
651.12	824.12
651.46	818.38
651.80	812.64
652.14	807.25
652.49	801.92
652.83	796.68
653.17	791.05
653.51	785.31
653.85	779.95
654.20	774.26
654.54	768.29
654.88	762.53
655.22	756.66
655.56	750.97
655.90	745.49
656.25	740.24
656.59	734.74
656.93	729.69
657.27	724.63
657.61	719.25
657.95	714.18
658.29	709.15
658.64	703.95
658.98	698.59
659.32	693.16
659.66	687.99
660.00	682.71
660.34	677.77
660.68	672.80
661.02	667.79
661.36	663.14
661.70	658.62
662.05	654.27
662.39	649.96
662.73	645.56
663.07	641.25
663.41	636.89
663.75	632.48
664.09	627.88
664.43	623.39
664.77	619.28
665.11	615.02
665.45	610.93
665.79	606.87
666.13	602.76
666.47	598.72
666.81	594.44
667.15	590.30
667.49	586.38
667.83	582.64
668.17	578.70
668.51	574.60
668.85	570.58
669.19	566.79
669.53	562.90
669.87	558.97
670.21	555.27
670.55	551.62
670.89	548.16
671.23	544.80
671.57	541.35
671.91	537.80
672.25	534.26
672.58	530.73
672.92	527.32
673.26	524.16
673.60	520.94
673.94	517.86
674.28	514.98
674.62	512.06
674.96	508.93
675.30	506.02
675.64	503.02
675.97	500.27
676.31	497.33
676.65	494.46
676.99	491.78
677.33	488.93
677.67	486.07
678.01	483.06
678.34	480.03
678.68	477.13
679.02	474.32
679.36	471.64
679.70	468.89
680.04	466.14
680.37	463.18
680.71	460.43
681.05	457.82
681.39	455.08
681.73	452.44
682.06	449.91
682.40	447.38
682.74	444.92
683.08	442.36
683.42	439.82
683.75	437.25
684.09	434.71
684.43	432.17
684.77	429.70
685.10	427.33
685.44	425.01
685.78	422.69
686.12	420.42
686.45	418.14
686.79	415.82
687.13	413.60
687.46	411.50
687.80	409.33
688.14	407.14
688.48	405.11
688.81	402.81
689.15	400.65
689.49	398.50
689.82	396.42
690.16	394.33
690.50	392.28
690.83	390.38
691.17	388.40
691.51	386.58
691.84	384.76
692.18	382.79
692.52	380.81
692.85	378.94
693.19	377.07
693.52	375.21
693.86	373.45
694.20	371.68
694.53	369.91
694.87	368.05
695.21	366.26
695.54	364.42
695.88	362.71
696.21	360.98
696.55	359.28
696.88	357.58
697.22	355.95
697.56	354.40
697.89	352.73
698.23	351.12
698.56	349.46
698.90	347.82
699.23	346.19
699.57	344.70
699.90	343.16
700.24	341.61
700.58	340.08
700.91	338.52
701.25	337.04
701.58	335.66
701.92	334.31
702.25	332.94
702.59	331.59
702.92	330.28
703.26	328.97
703.59	327.70
703.93	326.53
704.26	325.31
704.60	324.01
704.93	322.75
705.26	321.54
705.60	320.39
705.93	319.21
706.27	318.19
706.60	317.09
706.94	316.00
707.27	314.87
707.61	313.83
707.94	312.87
708.27	311.78
708.61	310.70
708.94	309.70
709.28	308.70
709.61	307.73
709.94	306.80
710.28	305.79
710.61	304.79
710.95	303.72
711.28	302.77
711.61	301.82
711.95	300.90
712.28	299.90
712.61	298.91
712.95	298.03
713.28	297.15
713.61	296.30
713.95	295.39
714.28	294.53
714.61	293.65
714.95	292.80
715.28	291.99
715.61	291.10
715.95	290.22
716.28	289.40
716.61	288.57
716.95	287.73
717.28	286.99
717.61	286.27
717.94	285.54
718.28	284.72
718.61	284.01
718.94	283.30
719.27	282.68
719.61	282.03
719.94	281.38
720.27	280.65
720.60	279.95
720.94	279.32
721.27	278.74
721.60	278.15
721.93	277.53
722.27	276.96
722.60	276.41
722.93	275.86
723.26	275.32
723.59	274.76
723.93	274.20
724.26	273.62
724.59	273.05
724.92	272.51
725.25	272.05
725.59	271.51
725.92	270.98
726.25	270.46
726.58	269.97
726.91	269.47
727.24	269.04
727.57	268.57
727.91	268.06
728.24	267.59
728.57	267.10
728.90	266.66
729.23	266.17
729.56	265.76
729.89	265.28
730.22	264.79
730.55	264.32
730.89	263.88
731.22	263.47
731.55	263.04
731.88	262.64
732.21	262.20
732.54	261.78
732.87	261.40
733.20	261.00
733.53	260.58
733.86	260.19
734.19	259.74
734.52	259.37
734.85	259.07
735.18	258.64
735.51	258.29
735.84	257.88
736.17	257.51
736.50	257.11
736.83	256.87
737.16	256.52
737.49	256.17
737.82	255.84
738.15	255.51
738.48	255.17
738.81	254.82
739.14	254.49
739.47	254.16
739.80	253.85
740.13	253.54
740.46	253.22
740.79	252.90
741.12	252.61
741.45	252.25
741.78	251.89
742.11	251.62
742.44	251.31
742.77	251.04
743.10	250.77
743.43	250.49
743.75	250.11
744.08	249.96
744.41	249.70
744.74	249.45
745.07	249.15
745.40	248.92
745.73	248.69
746.06	248.44
746.39	248.16
746.71	247.88
747.04	247.61
747.37	247.36
747.70	247.09
748.03	246.87
748.36	246.69
748.68	246.43
749.01	246.21
749.34	245.97
749.67	245.77
750.00	245.53
750.33	245.33
750.65	245.13
750.98	244.79
751.31	244.61
751.64	244.35
751.97	244.21
752.29	244.00
752.62	243.74
752.95	243.48
753.28	243.28
753.60	243.09
753.93	242.93
754.26	242.76
754.59	242.56
754.91	242.35
755.24	242.16
755.57	242.00
755.90	241.82
756.22	241.65
756.55	241.42
756.88	241.22
757.20	241.01
757.53	240.84
757.86	240.71
758.19	240.54
758.51	240.40
758.84	240.18
759.17	239.99
759.49	239.83
759.82	239.75
760.15	239.65
760.47	239.48
760.80	239.31
761.13	239.16
761.45	239.02
761.78	238.90
762.11	238.75
762.43	238.62
762.76	238.50
763.08	238.39
763.41	238.28
763.74	238.15
764.06	238.03
764.39	237.91
764.71	237.72
765.04	237.55
765.37	237.42
765.69	237.28
766.02	237.17
766.34	237.06
766.67	236.91
767.00	236.79
767.32	236.72
767.65	236.70
767.97	236.56
768.30	236.44
768.62	236.32
768.95	236.19
769.27	236.05
769.60	235.95
769.92	235.79
770.25	235.70
770.57	235.60
770.90	235.53
771.22	235.41
771.55	235.34
771.87	235.23
772.20	235.16
772.52	235.18
772.85	235.21
773.17	235.10
773.50	235.00
773.82	234.88
774.15	234.76
774.47	234.56
774.80	234.48
775.12	234.43
775.45	234.33
775.77	234.25
776.09	234.16
776.42	234.07
776.74	234.00
777.07	233.90
777.39	233.82
777.72	233.69
778.04	233.62
778.36	233.57
778.69	233.53
779.01	233.46
779.33	233.27
779.66	233.10
779.98	233.02
780.31	232.96
780.63	232.96
780.95	232.90
781.28	232.86
781.60	232.81
781.92	232.71
782.25	232.66
782.57	232.59
782.89	232.53
783.22	232.44
783.54	232.37
783.86	232.31
784.19	232.23
784.51	232.21
784.83	232.14
785.16	232.06
785.48	231.99
785.80	231.90
786.12	231.87
786.45	231.81
786.77	231.77
787.09	231.74
787.42	231.65
787.74	231.61
788.06	231.52
788.38	231.48
788.71	231.43
789.03	231.39
789.35	231.35
789.67	231.32
789.99	231.31
790.32	231.25
790.64	231.20
790.96	231.25
791.28	231.15
791.61	231.09
791.93	231.06
792.25	231.01
792.57	231.05
792.89	230.98
793.21	230.91
793.54	230.88
793.86	230.82
794.18	230.77
794.50	230.73
794.82	230.72
795.14	230.64
795.47	230.63
795.79	230.59
796.11	230.52
796.43	230.44
796.75	230.37
797.07	230.34
797.39	230.32
797.71	230.20
798.04	230.21
798.36	230.21
798.68	230.14
799.00	230.15
799.32	230.05
799.64	230.06
799.96	230.07
800.28	230.02
800.60	229.98
800.92	229.93
801.24	229.88
801.56	229.85
801.89	229.83
802.21	229.82
802.53	229.76
802.85	229.79
803.17	229.83
803.49	229.80
803.81	229.74
804.13	229.71
804.45	229.70
804.77	229.67
805.09	229.63
805.41	229.62
805.73	229.55
806.05	229.54
806.37	229.50
806.69	229.46
807.01	229.45
807.33	229.44
807.65	229.41
807.97	229.43
808.28	229.39
808.60	229.37
808.92	229.32
809.24	229.38
809.56	229.31
809.88	229.25
810.20	229.22
810.52	229.25
810.84	229.22
811.16	229.16
811.48	229.14
811.80	229.14
812.12	229.10
812.43	229.08
812.75	229.03
813.07	228.99
813.39	228.98
813.71	228.97
814.03	228.93
814.35	228.92
814.67	228.86
814.98	228.85
815.30	228.81
815.62	228.78
815.94	228.70
816.26	228.73
816.58	228.67
816.89	228.67
817.21	228.63
817.53	228.60
817.85	228.59
818.17	228.57
818.48	228.51
818.80	228.51
819.12	228.48
819.44	228.44
819.76	228.40
820.07	228.36
820.39	228.30
820.71	228.27
821.03	228.23
821.34	228.16
821.66	228.13
821.98	228.15
822.30	228.14
822.61	228.16
822.93	228.10
823.25	228.10
823.57	228.11
823.88	228.10
824.20	228.08
824.52	228.09
824.83	228.06
825.15	228.06
825.47	228.05
825.79	228.06
826.10	228.06
826.42	228.05
826.74	228.05
827.05	228.04
827.37	228.06
827.69	228.02
828.00	228.04
828.32	228.05
828.64	228.03
828.95	228.05
829.27	228.02
829.58	228.01
829.90	228.03
830.22	228.01
830.53	227.98
830.85	228.00
831.17	227.96
831.48	227.94
831.80	227.93
832.11	227.91
832.43	227.87
832.75	227.88
833.06	227.94
833.38	227.89
833.69	227.88
834.01	227.91
834.32	227.93
834.64	227.91
834.96	227.89
835.27	227.88
835.59	227.85
835.90	227.82
836.22	227.78
836.53	227.75
836.85	227.71
837.16	227.82
837.48	227.78
837.79	227.81
838.11	227.82
838.42	227.82
838.74	227.85
839.05	227.84
839.37	227.84
839.68	227.78
840.00	227.77
840.31	227.79
840.63	227.76
840.94	227.76
841.26	227.79
841.57	227.77
841.88	227.77
842.20	227.76
842.51	227.74
842.83	227.75
843.14	227.82
843.46	227.80
843.77	227.74
844.08	227.76
844.40	227.71
844.71	227.70
845.03	227.69
845.34	227.65
845.65	227.63
845.97	227.61
846.28	227.63
846.60	227.63
846.91	227.59
847.22	227.59
847.54	227.59
847.85	227.56
848.16	227.55
848.48	227.51
848.79	227.55
849.10	227.58
849.42	227.61
849.73	227.55
850.04	227.59
850.36	227.54
850.67	227.54
850.98	227.55
851.30	227.53
851.61	227.53
851.92	227.56
852.23	227.59
852.55	227.59
852.86	227.55
853.17	227.57
853.49	227.62
853.80	227.62
854.11	227.63
854.42	227.66
854.74	227.63
855.05	227.62
855.36	227.57
855.67	227.56
855.99	227.51
856.30	227.61
856.61	227.57
856.92	227.58
857.23	227.57
857.55	227.56
857.86	227.57
858.17	227.54
858.48	227.52
858.79	227.50
859.11	227.51
859.42	227.53
859.73	227.52
860.04	227.52
860.35	227.47
860.66	227.43
860.98	227.43
861.29	227.45
861.60	227.46
861.91	227.47
862.22	227.43
862.53	227.44
862.84	227.30
863.16	227.34
863.47	227.30
863.78	227.26
864.09	227.23
864.40	227.27
864.71	227.30
865.02	227.31
865.33	227.27
865.64	227.21
865.95	227.15
866.27	227.22
866.58	227.18
866.89	227.18
867.20	227.17
867.51	227.15
867.82	227.15
868.13	227.15
868.44	227.11
868.75	227.14
869.06	227.11
869.37	227.15
869.68	227.10
869.99	227.12
870.30	227.19
870.61	227.22
870.92	227.17
871.23	227.13
871.54	227.11
871.85	227.14
872.16	227.14
872.47	227.15
872.78	227.06
873.09	227.08
873.40	227.08
873.71	227.06
874.02	227.06
874.33	227.06
874.64	227.09
874.95	227.12
875.26	227.06
875.56	227.08
875.87	227.07
876.18	227.09
876.49	227.18
876.80	227.12
877.11	227.11
877.42	227.10
877.73	227.15
878.04	227.15
878.35	227.18
878.66	227.27
878.96	227.27
879.27	227.29
879.58	227.29
879.89	227.29
880.20	227.37
880.51	227.38
880.82	227.36
881.12	227.35
881.43	227.32
881.74	227.32
882.05	227.31
882.36	227.28
882.67	227.25
882.97	227.14
883.28	227.13
883.59	227.11
883.90	227.12
884.21	227.08
884.51	227.06
884.82	227.06
885.13	227.03
885.44	227.02
885.74	227.01
886.05	227.00
886.36	227.02
886.67	226.97
886.98	227.04
887.28	227.04
887.59	227.01
887.90	227.02
888.20	227.05
888.51	227.09
888.82	227.10
889.13	227.09
889.43	227.18
889.74	227.19
890.05	227.22
890.35	227.23
890.66	227.23
890.97	227.22
891.28	227.19
891.58	227.22
891.89	227.21
892.20	227.21
892.50	227.22
892.81	227.23
893.12	227.23
893.42	227.15
893.73	227.18
894.04	227.20
894.34	227.19
894.65	227.20
894.95	227.15
895.26	227.15
895.57	227.22
895.87	227.11
896.18	227.09
896.48	227.09
896.79	227.06
897.10	227.06
897.40	227.06
897.71	227.06
898.01	227.00
898.32	226.99
898.63	227.00
898.93	226.98
899.24	226.97
899.54	226.95
899.85	226.94
900.15	226.91
900.46	226.89
900.76	226.93
901.07	226.91
901.38	226.92
901.68	226.95
901.99	226.91
902.29	226.89
902.60	226.92
902.90	226.91
903.21	226.89
903.51	226.88
903.82	226.90
904.12	226.91
904.43	226.94
904.73	226.95
905.03	226.95
905.34	227.03
905.64	227.00
905.95	227.00
906.25	227.01
906.56	227.04
906.86	227.04
907.17	227.02
907.47	227.04
907.77	227.04
908.08	227.02
908.38	227.02
908.69	227.05
908.99	227.08
909.30	227.11
909.60	227.15
909.90	227.13
910.21	227.12
910.51	227.12
910.81	227.11
911.12	227.13
911.42	227.10
911.73	227.03
912.03	227.05
912.33	227.05
912.64	227.07
912.94	227.04
913.24	227.01
913.55	227.00
913.85	226.98
914.15	226.99
914.46	226.97
914.76	226.98
915.06	227.01
915.37	226.95
915.67	226.92
915.97	226.91
916.27	226.93
916.58	226.93
916.88	226.89
917.18	226.88
917.49	226.93
917.79	226.93
918.09	226.94
918.39	226.99
918.70	227.01
919.00	227.00
919.30	227.07
919.60	227.05
919.91	227.02
920.21	227.03
920.51	227.00
920.81	227.01
921.12	227.01
921.42	226.99
921.72	227.00
922.02	227.02
922.32	227.03
922.63	227.03
922.93	227.08
923.23	227.08
923.53	227.06
923.83	227.01
924.13	227.05
924.44	227.03
924.74	227.00
925.04	227.02
925.34	226.98
925.64	226.92
925.94	226.94
926.24	227.00
926.55	226.97
926.85	226.98
927.15	226.96
927.45	226.96
927.75	226.97
928.05	226.94
928.35	226.92
928.65	226.94
928.95	226.96
929.26	226.92
929.56	226.95
929.86	227.00
930.16	226.99
930.46	226.96
930.76	226.96
931.06	226.93
931.36	226.90
931.66	226.95
931.96	226.99
932.26	227.00
932.56	226.95
932.86	226.94
933.16	226.93
933.46	226.92
933.76	226.91
934.06	226.92
934.36	226.98
934.66	226.97
934.96	226.93
935.26	226.91
935.56	226.92
935.86	226.88
936.16	226.87
936.46	226.85
936.76	226.86
937.06	226.85
937.36	226.87
937.66	226.85
937.96	226.84
938.26	226.80
938.56	226.81
938.86	226.83
939.16	226.90
939.46	226.93
939.76	226.95
940.06	226.93
940.35	226.92
940.65	226.88
940.95	226.89
941.25	226.89
941.55	226.90
941.85	226.87
942.15	226.92
942.45	226.92
942.75	226.92
943.04	226.92
943.34	226.97
943.64	226.94
943.94	226.96
944.24	226.96
944.54	226.95
944.84	226.95
945.13	226.96
945.43	226.92
945.73	226.91
946.03	226.89
946.33	226.91
946.62	226.88
946.92	226.89
947.22	226.91
947.52	226.91
947.82	226.90
948.11	226.91
948.41	226.90
948.71	226.86
949.01	226.87
949.31	226.84
949.60	226.82
949.90	226.83
950.20	226.81
950.50	226.79
950.79	226.76
951.09	226.76
951.39	226.75
951.69	226.72
951.98	226.74
952.28	226.75
952.58	226.76
952.87	226.80
953.17	226.76
953.47	226.75
953.76	226.77
954.06	226.73
954.36	226.73
954.66	226.69
954.95	226.71
955.25	226.71
955.55	226.72
955.84	226.71
956.14	226.74
956.44	226.76
956.73	226.73
957.03	226.79
957.32	226.78
957.62	226.77
957.92	226.79
958.21	226.79
958.51	226.89
958.81	226.88
959.10	226.85
959.40	226.89
959.69	226.87
959.99	226.86
960.29	226.92
960.58	226.92
960.88	226.96
961.17	226.98
961.47	226.99
961.76	226.97
962.06	226.98
962.36	226.94
962.65	226.93
962.95	226.97
963.24	226.95
963.54	226.96
963.83	226.97
964.13	226.98
964.42	226.96
964.72	226.88
965.01	226.89
965.31	226.89
965.60	226.87
965.90	226.94
966.19	226.94
966.49	226.91
966.78	226.88
967.08	226.85
967.37	226.87
967.67	226.86
967.96	226.87
968.26	226.87
968.55	226.90
968.85	226.90
969.14	226.89
969.43	226.90
969.73	226.87
970.02	226.84
970.32	226.85
970.61	226.82
970.91	226.78
971.20	226.76
971.49	226.76
971.79	226.78
972.08	226.74
972.38	226.75
972.67	226.74
972.96	226.78
973.26	226.77
973.55	226.78
973.85	226.80
974.14	226.82
974.43	226.81
974.73	226.80
975.02	226.78
975.31	226.79
975.61	226.77
975.90	226.77
976.19	226.77
976.49	226.75
976.78	226.78
977.07	226.80
977.37	226.81
977.66	226.81
977.95	226.78
978.24	226.75
978.54	226.77
978.83	226.79
979.12	226.76
979.42	226.78
979.71	226.75
980.00	226.75
980.29	226.75
980.59	226.72
980.88	226.76
981.17	226.75
981.46	226.75
981.76	226.76
982.05	226.82
982.34	226.85
982.63	226.85
982.93	226.83
983.22	226.87
983.51	226.90
983.80	226.92
984.09	226.93
984.39	226.91
984.68	226.86
984.97	226.86
985.26	226.86
985.55	226.85
985.85	226.80
986.14	226.79
986.43	226.82
986.72	226.83
987.01	226.79
987.30	226.82
987.59	226.79
987.89	226.79
988.18	226.75
988.47	226.74
988.76	226.76
989.05	226.75
989.34	226.72
989.63	226.72
989.92	226.73
990.22	226.72
990.51	226.74
990.80	226.76
991.09	226.76
991.38	226.77
991.67	226.74
991.96	226.79
992.25	226.81
992.54	226.73
992.83	226.73
993.12	226.73
993.41	226.73
993.70	226.77
993.99	226.78
994.28	226.77
994.58	226.77
994.87	226.75
995.16	226.76
995.45	226.74
995.74	226.69
996.03	226.68
996.32	226.72
996.61	226.75
996.90	226.76
997.19	226.74
997.48	226.73
997.77	226.74
998.06	226.73
998.34	226.68
998.63	226.72
998.92	226.71
999.21	226.71
999.50	226.70
999.79	226.66
1000.08	226.65
1000.37	226.65
1000.66	226.66
1000.95	226.69
1001.24	226.67
1001.53	226.68
1001.82	226.70
1002.11	226.67
1002.40	226.65
1002.68	226.61
1002.97	226.68
1003.26	226.70
1003.55	226.69
1003.84	226.69
1004.13	226.70
1004.42	226.72
1004.71	226.72
1004.99	226.74
1005.28	226.74
1005.57	226.75
1005.86	226.74
1006.15	226.75
1006.44	226.75
1006.72	226.72
1007.01	226.69
1007.30	226.71
1007.59	226.67
1007.88	226.67
1008.17	226.66
1008.45	226.66
1008.74	226.69
1009.03	226.60
1009.32	226.57
1009.60	226.56
1009.89	226.54
1010.18	226.52
1010.47	226.50
1010.76	226.48
1011.04	226.46
1011.33	226.47
1011.62	226.47
1011.91	226.48
1012.19	226.48
1012.48	226.48
1012.77	226.49
1013.05	226.54
1013.34	226.50
1013.63	226.51
1013.92	226.51
1014.20	226.53
1014.49	226.53
1014.78	226.53
1015.06	226.53
1015.35	226.52
1015.64	226.55
1015.92	226.58
1016.21	226.57
1016.50	226.61
1016.78	226.64
1017.07	226.64
1017.36	226.61
1017.64	226.58
1017.93	226.56
1018.22	226.55
1018.50	226.55
1018.79	226.53
1019.08	226.48
1019.36	226.51
1019.65	226.51
1019.93	226.58
1020.22	226.60
1020.51	226.62
1020.79	226.59
1021.08	226.47
1021.36	226.34
1021.65	226.18
1021.94	226.31
1022.22	226.76
1022.51	226.44
1022.79	227.72
1023.08	226.95
1023.36	227.44
1023.65	226.14
>>>>>End Processed Spectral Data<<<<<
