SpectraSuite Data File
++++++++++++++++++++++++++++++++++++
Date: Fri Feb 01 15:11:09 EST 2013
User: group
Dark Spectrum Present: No
Reference Spectrum Present: No
Number of Sampled Component Spectra: 1
Spectrometers: USB2E7196
Integration Time (usec): 35000 (USB2E7196)
Spectra Averaged: 100 (USB2E7196)
Boxcar Smoothing: 10 (USB2E7196)
Correct for Electrical Dark: No (USB2E7196)
Strobe/Lamp Enabled: No (USB2E7196)
Correct for Detector Non-linearity: No (USB2E7196)
Correct for Stray Light: No (USB2E7196)
Number of Pixels in Processed Spectrum: 2048
>>>>>Begin Processed Spectral Data<<<<<
339.09	0.00
339.48	214.84
339.86	216.07
340.24	217.73
340.63	219.54
341.01	221.76
341.39	222.38
341.78	223.69
342.16	224.64
342.54	224.86
342.93	213.36
343.31	224.13
343.69	224.69
344.07	225.14
344.46	225.58
344.84	225.95
345.22	226.21
345.60	226.45
345.99	226.61
346.37	226.72
346.75	226.81
347.13	226.86
347.52	226.96
347.90	227.03
348.28	227.06
348.66	227.11
349.05	227.10
349.43	227.16
349.81	227.19
350.19	227.27
350.57	227.34
350.96	227.41
351.34	227.51
351.72	227.59
352.10	227.74
352.48	227.82
352.87	227.89
353.25	227.93
353.63	228.00
354.01	228.07
354.39	228.17
354.77	228.29
355.15	228.41
355.54	228.44
355.92	228.49
356.30	228.56
356.68	228.70
357.06	228.82
357.44	228.88
357.82	228.96
358.20	229.00
358.58	229.06
358.97	229.13
359.35	229.22
359.73	229.32
360.11	229.38
360.49	229.41
360.87	229.44
361.25	229.52
361.63	229.61
362.01	229.65
362.39	229.70
362.77	229.71
363.15	229.72
363.53	229.76
363.91	229.77
364.29	229.77
364.67	229.66
365.05	229.69
365.43	229.70
365.81	229.73
366.19	229.77
366.57	229.80
366.95	229.77
367.33	229.74
367.71	229.72
368.09	229.68
368.47	229.68
368.85	229.65
369.23	229.64
369.61	229.53
369.99	229.51
370.37	229.48
370.75	229.49
371.13	229.43
371.51	229.35
371.89	229.32
372.27	229.26
372.65	229.22
373.03	229.14
373.41	229.10
373.78	229.02
374.16	228.91
374.54	228.82
374.92	228.79
375.30	228.69
375.68	228.56
376.06	228.48
376.44	228.40
376.82	228.33
377.19	228.23
377.57	228.18
377.95	228.09
378.33	228.00
378.71	227.85
379.09	227.79
379.47	227.75
379.84	227.67
380.22	227.58
380.60	227.52
380.98	227.41
381.36	227.33
381.73	227.25
382.11	227.18
382.49	227.09
382.87	226.95
383.25	226.91
383.62	226.98
384.00	226.93
384.38	226.86
384.76	226.80
385.13	226.78
385.51	226.74
385.89	226.66
386.27	226.59
386.64	226.58
387.02	226.50
387.40	226.45
387.78	226.41
388.15	226.39
388.53	226.36
388.91	226.33
389.29	226.29
389.66	226.28
390.04	226.27
390.42	226.26
390.79	226.27
391.17	226.22
391.55	226.12
391.92	226.11
392.30	226.13
392.68	226.14
393.05	226.12
393.43	226.16
393.81	226.19
394.18	226.20
394.56	226.22
394.94	226.27
395.31	226.29
395.69	226.35
396.06	226.40
396.44	226.44
396.82	226.48
397.19	226.57
397.57	226.61
397.95	226.68
398.32	226.71
398.70	226.80
399.07	226.89
399.45	226.96
399.82	227.03
400.20	227.10
400.58	227.19
400.95	227.26
401.33	227.34
401.70	227.48
402.08	227.60
402.45	227.73
402.83	227.89
403.20	228.02
403.58	228.13
403.95	228.26
404.33	228.38
404.71	228.55
405.08	228.75
405.46	228.90
405.83	229.05
406.21	229.23
406.58	229.44
406.96	229.63
407.33	229.83
407.70	230.03
408.08	230.30
408.45	230.54
408.83	230.80
409.20	231.01
409.58	231.22
409.95	231.52
410.33	231.80
410.70	232.03
411.08	232.34
411.45	232.65
411.82	232.97
412.20	233.34
412.57	233.78
412.95	234.04
413.32	234.46
413.69	234.84
414.07	235.27
414.44	235.70
414.82	236.19
415.19	236.72
415.56	237.24
415.94	237.78
416.31	238.40
416.68	239.01
417.06	239.72
417.43	240.40
417.81	241.14
418.18	241.92
418.55	242.79
418.93	243.66
419.30	244.55
419.67	245.47
420.04	246.43
420.42	247.42
420.79	248.62
421.16	249.78
421.54	251.00
421.91	252.24
422.28	253.50
422.66	254.83
423.03	256.11
423.40	257.51
423.77	258.94
424.15	260.39
424.52	261.87
424.89	263.48
425.26	265.04
425.64	266.49
426.01	268.07
426.38	269.68
426.75	271.39
427.13	273.11
427.50	274.88
427.87	276.75
428.24	278.59
428.61	280.31
428.99	282.27
429.36	284.40
429.73	286.44
430.10	288.46
430.47	290.50
430.85	292.63
431.22	294.84
431.59	297.18
431.96	299.40
432.33	301.89
432.70	304.29
433.08	307.09
433.45	309.71
433.82	312.32
434.19	315.25
434.56	318.04
434.93	320.71
435.30	323.39
435.68	326.25
436.05	329.10
436.42	331.94
436.79	334.44
437.16	337.10
437.53	339.92
437.90	342.76
438.27	345.49
438.64	348.39
439.01	350.98
439.38	353.25
439.75	355.46
440.13	358.00
440.50	360.38
440.87	362.23
441.24	364.19
441.61	366.37
441.98	367.85
442.35	369.67
442.72	371.52
443.09	373.33
443.46	374.36
443.83	374.94
444.20	375.41
444.57	376.24
444.94	376.57
445.31	376.91
445.68	377.25
446.05	377.28
446.42	376.85
446.79	376.47
447.16	376.03
447.53	375.68
447.90	374.47
448.27	373.29
448.64	371.68
449.01	370.54
449.37	368.52
449.74	366.59
450.11	364.32
450.48	361.84
450.85	359.30
451.22	357.12
451.59	355.11
451.96	353.15
452.33	350.58
452.70	348.19
453.07	345.38
453.43	342.45
453.80	339.71
454.17	337.03
454.54	334.46
454.91	331.71
455.28	329.03
455.65	326.52
456.02	324.05
456.38	321.93
456.75	319.25
457.12	317.03
457.49	314.84
457.86	312.67
458.23	310.82
458.59	308.76
458.96	306.71
459.33	304.84
459.70	302.97
460.07	301.42
460.43	299.69
460.80	298.05
461.17	296.62
461.54	295.15
461.91	293.71
462.27	292.26
462.64	290.98
463.01	289.58
463.38	288.31
463.74	286.94
464.11	285.77
464.48	284.75
464.85	283.61
465.21	282.72
465.58	281.75
465.95	280.64
466.32	279.70
466.68	278.77
467.05	277.87
467.42	277.00
467.78	276.09
468.15	275.16
468.52	274.47
468.88	273.60
469.25	272.83
469.62	272.22
469.98	271.53
470.35	270.90
470.72	270.29
471.08	269.64
471.45	269.06
471.82	268.48
472.18	267.87
472.55	267.44
472.92	266.90
473.28	266.45
473.65	265.98
474.02	265.55
474.38	265.18
474.75	264.82
475.11	264.44
475.48	264.13
475.85	263.93
476.21	263.71
476.58	263.54
476.94	263.36
477.31	263.14
477.67	262.96
478.04	262.88
478.41	262.82
478.77	262.82
479.14	262.76
479.50	262.76
479.87	262.78
480.23	262.82
480.60	262.90
480.96	263.00
481.33	263.25
481.69	263.44
482.06	263.66
482.42	263.86
482.79	264.15
483.15	264.48
483.52	264.86
483.88	265.22
484.25	265.58
484.61	266.02
484.98	266.47
485.34	267.07
485.71	267.66
486.07	268.29
486.44	268.85
486.80	269.56
487.17	270.31
487.53	271.15
487.90	272.02
488.26	272.90
488.62	273.88
488.99	274.82
489.35	275.85
489.72	276.92
490.08	278.14
490.44	279.34
490.81	280.68
491.17	282.01
491.54	283.47
491.90	285.05
492.26	286.70
492.63	288.45
492.99	290.21
493.36	292.09
493.72	294.15
494.08	296.29
494.45	298.51
494.81	300.87
495.17	303.32
495.54	305.85
495.90	308.54
496.26	311.33
496.63	314.31
496.99	317.40
497.35	320.63
497.72	324.04
498.08	327.58
498.44	331.21
498.80	335.18
499.17	339.20
499.53	343.31
499.89	347.68
500.26	352.17
500.62	356.84
500.98	361.81
501.34	366.90
501.71	372.19
502.07	377.68
502.43	383.29
502.79	389.04
503.16	395.14
503.52	401.42
503.88	407.84
504.24	414.44
504.60	421.35
504.97	428.50
505.33	435.81
505.69	443.40
506.05	451.17
506.41	459.01
506.78	467.17
507.14	475.68
507.50	484.38
507.86	493.37
508.22	502.57
508.59	511.76
508.95	521.32
509.31	531.11
509.67	541.19
510.03	551.48
510.39	562.09
510.75	572.92
511.12	583.92
511.48	595.24
511.84	606.70
512.20	618.23
512.56	630.27
512.92	642.46
513.28	654.90
513.64	667.37
514.00	680.03
514.37	692.96
514.73	705.98
515.09	719.10
515.45	732.44
515.81	745.95
516.17	759.92
516.53	774.03
516.89	788.22
517.25	802.41
517.61	816.90
517.97	831.37
518.33	845.79
518.69	860.55
519.05	875.53
519.41	890.77
519.77	906.34
520.13	921.74
520.49	937.11
520.85	952.55
521.21	968.39
521.57	984.76
521.93	1000.67
522.29	1017.11
522.65	1033.34
523.01	1049.62
523.37	1065.79
523.73	1082.03
524.09	1098.12
524.45	1114.59
524.81	1131.17
525.17	1148.04
525.53	1164.94
525.89	1181.80
526.25	1198.59
526.61	1215.10
526.97	1231.79
527.33	1248.19
527.68	1264.91
528.04	1281.45
528.40	1298.19
528.76	1315.37
529.12	1331.99
529.48	1348.92
529.84	1364.99
530.20	1381.69
530.56	1398.91
530.91	1416.37
531.27	1433.29
531.63	1449.89
531.99	1466.43
532.35	1482.53
532.71	1498.42
533.07	1514.80
533.42	1530.78
533.78	1546.91
534.14	1563.18
534.50	1578.62
534.86	1594.64
535.21	1609.81
535.57	1625.93
535.93	1641.46
536.29	1656.25
536.65	1671.49
537.00	1686.33
537.36	1701.72
537.72	1716.37
538.08	1730.63
538.44	1744.43
538.79	1758.40
539.15	1772.17
539.51	1785.95
539.87	1800.40
540.22	1814.23
540.58	1828.04
540.94	1841.53
541.29	1854.59
541.65	1867.42
542.01	1880.77
542.37	1893.11
542.72	1905.54
543.08	1917.34
543.44	1929.77
543.79	1941.06
544.15	1952.04
544.51	1963.66
544.87	1974.90
545.22	1985.73
545.58	1996.12
545.94	2005.99
546.29	2015.94
546.65	2025.70
547.01	2035.04
547.36	2043.82
547.72	2052.46
548.07	2060.39
548.43	2068.59
548.79	2076.71
549.14	2084.22
549.50	2091.64
549.86	2099.47
550.21	2106.98
550.57	2114.19
550.92	2120.80
551.28	2127.86
551.64	2135.02
551.99	2141.64
552.35	2147.54
552.70	2153.65
553.06	2159.52
553.41	2165.89
553.77	2171.89
554.13	2178.19
554.48	2184.28
554.84	2189.57
555.19	2194.82
555.55	2199.88
555.90	2204.27
556.26	2209.01
556.61	2213.68
556.97	2217.87
557.32	2221.86
557.68	2225.92
558.03	2230.23
558.39	2234.04
558.74	2238.63
559.10	2242.28
559.45	2245.86
559.81	2250.15
560.16	2253.94
560.52	2257.21
560.87	2260.74
561.23	2263.20
561.58	2266.00
561.94	2268.58
562.29	2271.21
562.64	2273.87
563.00	2276.48
563.35	2279.99
563.71	2283.04
564.06	2286.30
564.42	2289.11
564.77	2291.65
565.12	2293.68
565.48	2295.40
565.83	2297.00
566.19	2298.23
566.54	2299.18
566.89	2300.13
567.25	2300.67
567.60	2301.97
567.96	2303.50
568.31	2304.23
568.66	2305.31
569.02	2305.85
569.37	2306.01
569.72	2306.61
570.08	2306.58
570.43	2306.47
570.78	2305.74
571.14	2304.30
571.49	2302.81
571.84	2302.42
572.20	2301.15
572.55	2300.14
572.90	2298.63
573.26	2297.18
573.61	2295.41
573.96	2293.44
574.31	2290.38
574.67	2287.26
575.02	2283.46
575.37	2280.03
575.72	2275.97
576.08	2272.53
576.43	2269.08
576.78	2265.33
577.13	2262.10
577.49	2258.84
577.84	2255.32
578.19	2251.47
578.54	2247.67
578.90	2243.13
579.25	2237.46
579.60	2232.31
579.95	2227.25
580.30	2221.98
580.66	2216.71
581.01	2211.73
581.36	2206.78
581.71	2202.49
582.06	2197.81
582.42	2193.25
582.77	2187.91
583.12	2183.23
583.47	2178.37
583.82	2173.22
584.17	2167.73
584.53	2162.19
584.88	2156.59
585.23	2150.63
585.58	2145.20
585.93	2139.53
586.28	2134.93
586.63	2129.73
586.98	2124.71
587.34	2119.99
587.69	2115.04
588.04	2109.67
588.39	2103.87
588.74	2097.28
589.09	2090.99
589.44	2084.26
589.79	2078.32
590.14	2072.62
590.49	2066.03
590.84	2059.54
591.19	2053.45
591.54	2047.05
591.89	2039.38
592.25	2032.32
592.60	2025.24
592.95	2017.42
593.30	2010.08
593.65	2002.32
594.00	1995.27
594.35	1987.94
594.70	1979.70
595.05	1972.42
595.40	1965.02
595.75	1957.49
596.10	1951.09
596.45	1944.34
596.80	1938.04
597.15	1931.20
597.50	1923.94
597.85	1917.50
598.19	1910.93
598.54	1903.72
598.89	1897.07
599.24	1891.16
599.59	1884.42
599.94	1878.10
600.29	1871.86
600.64	1865.32
600.99	1857.66
601.34	1850.74
601.69	1843.68
602.04	1836.71
602.39	1829.34
602.74	1822.46
603.08	1815.70
603.43	1809.00
603.78	1801.70
604.13	1794.53
604.48	1787.14
604.83	1780.27
605.18	1773.08
605.53	1764.97
605.87	1757.04
606.22	1749.67
606.57	1741.71
606.92	1734.44
607.27	1727.15
607.62	1720.13
607.96	1712.76
608.31	1706.26
608.66	1698.62
609.01	1691.04
609.36	1683.61
609.70	1675.52
610.05	1667.46
610.40	1659.66
610.75	1651.35
611.10	1643.73
611.44	1635.38
611.79	1627.45
612.14	1618.85
612.49	1609.75
612.83	1601.39
613.18	1593.20
613.53	1585.33
613.88	1576.86
614.22	1568.63
614.57	1560.04
614.92	1552.02
615.27	1544.43
615.61	1536.02
615.96	1528.00
616.31	1520.42
616.65	1513.02
617.00	1505.47
617.35	1497.93
617.70	1489.59
618.04	1481.07
618.39	1472.76
618.74	1465.09
619.08	1456.78
619.43	1449.16
619.78	1442.41
620.12	1435.26
620.47	1427.80
620.82	1419.50
621.16	1412.17
621.51	1404.50
621.85	1396.82
622.20	1388.33
622.55	1379.93
622.89	1372.20
623.24	1364.60
623.59	1357.30
623.93	1349.74
624.28	1342.52
624.62	1334.85
624.97	1327.64
625.32	1320.96
625.66	1314.00
626.01	1306.76
626.35	1299.29
626.70	1291.54
627.04	1283.68
627.39	1275.89
627.73	1268.40
628.08	1261.52
628.43	1254.12
628.77	1246.70
629.12	1239.17
629.46	1231.97
629.81	1224.64
630.15	1217.45
630.50	1210.03
630.84	1201.80
631.19	1193.95
631.53	1186.51
631.88	1179.14
632.22	1171.64
632.57	1164.35
632.91	1156.87
633.26	1149.52
633.60	1142.26
633.95	1135.32
634.29	1128.29
634.64	1121.63
634.98	1114.35
635.32	1107.19
635.67	1100.72
636.01	1094.14
636.36	1087.45
636.70	1081.04
637.05	1074.36
637.39	1067.94
637.73	1061.43
638.08	1055.62
638.42	1049.71
638.77	1043.31
639.11	1036.73
639.45	1030.36
639.80	1023.68
640.14	1017.15
640.49	1010.63
640.83	1004.35
641.17	998.02
641.52	991.76
641.86	985.37
642.20	979.50
642.55	973.23
642.89	966.71
643.23	960.24
643.58	954.41
643.92	948.21
644.26	942.26
644.61	936.25
644.95	930.25
645.29	923.61
645.64	916.84
645.98	910.50
646.32	904.66
646.66	898.62
647.01	892.89
647.35	887.23
647.69	881.41
648.04	875.82
648.38	870.07
648.72	864.10
649.06	858.03
649.41	852.25
649.75	846.29
650.09	840.31
650.43	834.47
650.78	828.32
651.12	822.31
651.46	816.56
651.80	810.81
652.14	805.46
652.49	800.06
652.83	794.89
653.17	789.20
653.51	783.44
653.85	778.02
654.20	772.41
654.54	766.42
654.88	760.69
655.22	754.85
655.56	749.13
655.90	743.66
656.25	738.48
656.59	733.06
656.93	728.00
657.27	722.87
657.61	717.48
657.95	712.45
658.29	707.42
658.64	702.25
658.98	696.93
659.32	691.42
659.66	686.20
660.00	680.87
660.34	675.95
660.68	671.10
661.02	666.13
661.36	661.39
661.70	656.98
662.05	652.71
662.39	648.49
662.73	644.09
663.07	639.77
663.41	635.29
663.75	630.81
664.09	626.19
664.43	621.85
664.77	617.76
665.11	613.55
665.45	609.40
665.79	605.29
666.13	601.21
666.47	597.15
666.81	593.09
667.15	588.97
667.49	585.08
667.83	581.28
668.17	577.37
668.51	573.36
668.85	569.33
669.19	565.40
669.53	561.50
669.87	557.68
670.21	553.95
670.55	550.33
670.89	546.90
671.23	543.54
671.57	540.05
671.91	536.57
672.25	533.08
672.58	529.63
672.92	526.31
673.26	523.14
673.60	520.09
673.94	516.99
674.28	514.12
674.62	511.18
674.96	508.10
675.30	505.18
675.64	502.25
675.97	499.55
676.31	496.71
676.65	493.77
676.99	491.02
677.33	488.12
677.67	485.29
678.01	482.29
678.34	479.25
678.68	476.40
679.02	473.52
679.36	470.75
679.70	468.03
680.04	465.24
680.37	462.43
680.71	459.61
681.05	457.00
681.39	454.30
681.73	451.66
682.06	449.13
682.40	446.59
682.74	444.11
683.08	441.48
683.42	438.95
683.75	436.51
684.09	433.93
684.43	431.54
684.77	429.06
685.10	426.74
685.44	424.51
685.78	422.25
686.12	420.07
686.45	417.76
686.79	415.47
687.13	413.31
687.46	411.12
687.80	408.96
688.14	406.72
688.48	404.69
688.81	402.44
689.15	400.25
689.49	398.16
689.82	396.08
690.16	394.03
690.50	392.04
690.83	390.07
691.17	388.16
691.51	386.25
691.84	384.47
692.18	382.53
692.52	380.59
692.85	378.63
693.19	376.74
693.52	374.94
693.86	373.13
694.20	371.32
694.53	369.54
694.87	367.72
695.21	366.00
695.54	364.16
695.88	362.43
696.21	360.72
696.55	359.02
696.88	357.30
697.22	355.68
697.56	354.10
697.89	352.48
698.23	350.88
698.56	349.29
698.90	347.64
699.23	346.04
699.57	344.48
699.90	342.95
700.24	341.42
700.58	339.91
700.91	338.42
701.25	336.99
701.58	335.66
701.92	334.30
702.25	332.93
702.59	331.55
702.92	330.27
703.26	328.96
703.59	327.69
703.93	326.50
704.26	325.24
704.60	323.95
704.93	322.70
705.26	321.47
705.60	320.30
705.93	319.18
706.27	318.16
706.60	317.14
706.94	316.06
707.27	314.93
707.61	313.88
707.94	312.86
708.27	311.77
708.61	310.71
708.94	309.67
709.28	308.71
709.61	307.77
709.94	306.80
710.28	305.79
710.61	304.79
710.95	303.77
711.28	302.87
711.61	301.94
711.95	300.98
712.28	299.99
712.61	299.03
712.95	298.10
713.28	297.15
713.61	296.24
713.95	295.32
714.28	294.50
714.61	293.68
714.95	292.81
715.28	291.95
715.61	291.07
715.95	290.24
716.28	289.38
716.61	288.53
716.95	287.74
717.28	287.00
717.61	286.28
717.94	285.54
718.28	284.76
718.61	284.02
718.94	283.36
719.27	282.76
719.61	282.12
719.94	281.45
720.27	280.77
720.60	280.12
720.94	279.53
721.27	278.97
721.60	278.42
721.93	277.85
722.27	277.29
722.60	276.76
722.93	276.18
723.26	275.62
723.59	275.09
723.93	274.54
724.26	274.03
724.59	273.44
724.92	272.91
725.25	272.37
725.59	271.85
725.92	271.35
726.25	270.85
726.58	270.35
726.91	269.86
727.24	269.41
727.57	268.93
727.91	268.45
728.24	267.95
728.57	267.41
728.90	266.97
729.23	266.50
729.56	266.03
729.89	265.58
730.22	265.14
730.55	264.70
730.89	264.25
731.22	263.78
731.55	263.35
731.88	262.92
732.21	262.49
732.54	262.06
732.87	261.63
733.20	261.21
733.53	260.82
733.86	260.46
734.19	260.04
734.52	259.67
734.85	259.33
735.18	258.91
735.51	258.55
735.84	258.16
736.17	257.83
736.50	257.45
736.83	257.23
737.16	256.85
737.49	256.51
737.82	256.17
738.15	255.82
738.48	255.53
738.81	255.14
739.14	254.87
739.47	254.55
739.80	254.21
740.13	253.90
740.46	253.53
740.79	253.20
741.12	252.89
741.45	252.56
741.78	252.18
742.11	251.92
742.44	251.61
742.77	251.29
743.10	250.96
743.43	250.65
743.75	250.28
744.08	250.12
744.41	249.84
744.74	249.54
745.07	249.28
745.40	249.00
745.73	248.83
746.06	248.56
746.39	248.30
746.71	247.99
747.04	247.70
747.37	247.48
747.70	247.23
748.03	246.98
748.36	246.75
748.68	246.54
749.01	246.26
749.34	246.06
749.67	245.86
750.00	245.63
750.33	245.51
750.65	245.29
750.98	244.99
751.31	244.78
751.64	244.58
751.97	244.43
752.29	244.21
752.62	243.94
752.95	243.71
753.28	243.53
753.60	243.38
753.93	243.22
754.26	243.04
754.59	242.82
754.91	242.62
755.24	242.41
755.57	242.23
755.90	242.07
756.22	241.87
756.55	241.69
756.88	241.53
757.20	241.29
757.53	241.08
757.86	240.90
758.19	240.76
758.51	240.61
758.84	240.43
759.17	240.27
759.49	240.12
759.82	240.06
760.15	239.89
760.47	239.75
760.80	239.60
761.13	239.48
761.45	239.35
761.78	239.20
762.11	239.10
762.43	238.97
762.76	238.82
763.08	238.69
763.41	238.55
763.74	238.44
764.06	238.29
764.39	238.17
764.71	238.05
765.04	237.91
765.37	237.76
765.69	237.60
766.02	237.47
766.34	237.34
766.67	237.17
767.00	237.03
767.32	236.98
767.65	236.91
767.97	236.75
768.30	236.63
768.62	236.53
768.95	236.40
769.27	236.27
769.60	236.18
769.92	236.04
770.25	235.91
770.57	235.77
770.90	235.67
771.22	235.57
771.55	235.46
771.87	235.35
772.20	235.23
772.52	235.25
772.85	235.25
773.17	235.14
773.50	235.00
773.82	234.93
774.15	234.79
774.47	234.63
774.80	234.54
775.12	234.48
775.45	234.40
775.77	234.32
776.09	234.25
776.42	234.17
776.74	234.15
777.07	234.05
777.39	233.98
777.72	233.88
778.04	233.80
778.36	233.72
778.69	233.68
779.01	233.63
779.33	233.46
779.66	233.30
779.98	233.23
780.31	233.19
780.63	233.13
780.95	233.07
781.28	232.99
781.60	232.88
781.92	232.79
782.25	232.71
782.57	232.63
782.89	232.58
783.22	232.53
783.54	232.40
783.86	232.37
784.19	232.32
784.51	232.27
784.83	232.20
785.16	232.14
785.48	232.07
785.80	232.00
786.12	231.96
786.45	231.89
786.77	231.89
787.09	231.83
787.42	231.77
787.74	231.73
788.06	231.69
788.38	231.68
788.71	231.62
789.03	231.60
789.35	231.58
789.67	231.49
789.99	231.48
790.32	231.43
790.64	231.38
790.96	231.40
791.28	231.35
791.61	231.30
791.93	231.28
792.25	231.22
792.57	231.29
792.89	231.24
793.21	231.22
793.54	231.17
793.86	231.14
794.18	231.11
794.50	231.04
794.82	231.01
795.14	231.00
795.47	230.99
795.79	230.96
796.11	230.88
796.43	230.85
796.75	230.83
797.07	230.84
797.39	230.81
797.71	230.74
798.04	230.71
798.36	230.69
798.68	230.64
799.00	230.64
799.32	230.53
799.64	230.53
799.96	230.51
800.28	230.49
800.60	230.45
800.92	230.43
801.24	230.40
801.56	230.37
801.89	230.32
802.21	230.32
802.53	230.26
802.85	230.25
803.17	230.28
803.49	230.19
803.81	230.15
804.13	230.13
804.45	230.07
804.77	230.07
805.09	230.02
805.41	229.99
805.73	229.94
806.05	229.88
806.37	229.78
806.69	229.72
807.01	229.63
807.33	229.63
807.65	229.58
807.97	229.55
808.28	229.52
808.60	229.47
808.92	229.41
809.24	229.42
809.56	229.39
809.88	229.30
810.20	229.30
810.52	229.26
810.84	229.17
811.16	229.14
811.48	229.10
811.80	229.09
812.12	229.06
812.43	229.04
812.75	229.00
813.07	229.00
813.39	228.99
813.71	228.98
814.03	228.91
814.35	228.89
814.67	228.84
814.98	228.79
815.30	228.79
815.62	228.74
815.94	228.68
816.26	228.68
816.58	228.68
816.89	228.62
817.21	228.61
817.53	228.63
817.85	228.60
818.17	228.58
818.48	228.53
818.80	228.51
819.12	228.51
819.44	228.49
819.76	228.44
820.07	228.44
820.39	228.44
820.71	228.42
821.03	228.40
821.34	228.40
821.66	228.40
821.98	228.38
822.30	228.36
822.61	228.40
822.93	228.34
823.25	228.29
823.57	228.31
823.88	228.32
824.20	228.29
824.52	228.31
824.83	228.30
825.15	228.28
825.47	228.28
825.79	228.28
826.10	228.29
826.42	228.30
826.74	228.29
827.05	228.27
827.37	228.27
827.69	228.28
828.00	228.26
828.32	228.28
828.64	228.25
828.95	228.30
829.27	228.26
829.58	228.28
829.90	228.31
830.22	228.30
830.53	228.28
830.85	228.27
831.17	228.25
831.48	228.25
831.80	228.28
832.11	228.30
832.43	228.27
832.75	228.27
833.06	228.33
833.38	228.33
833.69	228.32
834.01	228.34
834.32	228.34
834.64	228.35
834.96	228.33
835.27	228.31
835.59	228.26
835.90	228.26
836.22	228.27
836.53	228.27
836.85	228.27
837.16	228.36
837.48	228.39
837.79	228.41
838.11	228.41
838.42	228.39
838.74	228.35
839.05	228.36
839.37	228.33
839.68	228.28
840.00	228.29
840.31	228.32
840.63	228.28
840.94	228.26
841.26	228.22
841.57	228.25
841.88	228.29
842.20	228.29
842.51	228.27
842.83	228.26
843.14	228.31
843.46	228.29
843.77	228.18
844.08	228.17
844.40	228.11
844.71	228.09
845.03	228.06
845.34	228.03
845.65	228.01
845.97	228.02
846.28	227.98
846.60	227.93
846.91	227.88
847.22	227.85
847.54	227.87
847.85	227.87
848.16	227.83
848.48	227.77
848.79	227.80
849.10	227.78
849.42	227.80
849.73	227.71
850.04	227.70
850.36	227.65
850.67	227.64
850.98	227.64
851.30	227.66
851.61	227.62
851.92	227.63
852.23	227.63
852.55	227.60
852.86	227.59
853.17	227.60
853.49	227.60
853.80	227.62
854.11	227.58
854.42	227.55
854.74	227.54
855.05	227.54
855.36	227.48
855.67	227.47
855.99	227.46
856.30	227.55
856.61	227.54
856.92	227.55
857.23	227.56
857.55	227.52
857.86	227.48
858.17	227.50
858.48	227.51
858.79	227.49
859.11	227.50
859.42	227.50
859.73	227.49
860.04	227.50
860.35	227.46
860.66	227.43
860.98	227.47
861.29	227.46
861.60	227.47
861.91	227.52
862.22	227.50
862.53	227.46
862.84	227.37
863.16	227.41
863.47	227.40
863.78	227.36
864.09	227.42
864.40	227.45
864.71	227.47
865.02	227.49
865.33	227.51
865.64	227.48
865.95	227.50
866.27	227.55
866.58	227.54
866.89	227.56
867.20	227.58
867.51	227.54
867.82	227.56
868.13	227.58
868.44	227.53
868.75	227.57
869.06	227.60
869.37	227.59
869.68	227.54
869.99	227.55
870.30	227.57
870.61	227.57
870.92	227.56
871.23	227.56
871.54	227.60
871.85	227.57
872.16	227.55
872.47	227.53
872.78	227.46
873.09	227.45
873.40	227.45
873.71	227.46
874.02	227.49
874.33	227.46
874.64	227.43
874.95	227.46
875.26	227.44
875.56	227.42
875.87	227.44
876.18	227.43
876.49	227.51
876.80	227.49
877.11	227.45
877.42	227.42
877.73	227.38
878.04	227.32
878.35	227.35
878.66	227.40
878.96	227.41
879.27	227.41
879.58	227.43
879.89	227.42
880.20	227.42
880.51	227.42
880.82	227.42
881.12	227.42
881.43	227.38
881.74	227.36
882.05	227.35
882.36	227.33
882.67	227.32
882.97	227.21
883.28	227.21
883.59	227.24
883.90	227.26
884.21	227.28
884.51	227.27
884.82	227.25
885.13	227.22
885.44	227.18
885.74	227.22
886.05	227.20
886.36	227.21
886.67	227.16
886.98	227.22
887.28	227.26
887.59	227.26
887.90	227.27
888.20	227.25
888.51	227.23
888.82	227.21
889.13	227.24
889.43	227.34
889.74	227.35
890.05	227.31
890.35	227.31
890.66	227.29
890.97	227.28
891.28	227.27
891.58	227.28
891.89	227.29
892.20	227.27
892.50	227.24
892.81	227.21
893.12	227.23
893.42	227.17
893.73	227.15
894.04	227.16
894.34	227.16
894.65	227.17
894.95	227.21
895.26	227.19
895.57	227.22
895.87	227.12
896.18	227.14
896.48	227.14
896.79	227.15
897.10	227.16
897.40	227.17
897.71	227.20
898.01	227.20
898.32	227.24
898.63	227.22
898.93	227.24
899.24	227.27
899.54	227.26
899.85	227.27
900.15	227.27
900.46	227.28
900.76	227.31
901.07	227.33
901.38	227.32
901.68	227.37
901.99	227.33
902.29	227.33
902.60	227.29
902.90	227.31
903.21	227.31
903.51	227.31
903.82	227.35
904.12	227.35
904.43	227.36
904.73	227.36
905.03	227.40
905.34	227.49
905.64	227.48
905.95	227.51
906.25	227.53
906.56	227.54
906.86	227.56
907.17	227.55
907.47	227.56
907.77	227.57
908.08	227.56
908.38	227.57
908.69	227.60
908.99	227.62
909.30	227.61
909.60	227.62
909.90	227.60
910.21	227.56
910.51	227.53
910.81	227.54
911.12	227.52
911.42	227.52
911.73	227.44
912.03	227.42
912.33	227.43
912.64	227.40
912.94	227.37
913.24	227.34
913.55	227.31
913.85	227.30
914.15	227.30
914.46	227.27
914.76	227.23
915.06	227.23
915.37	227.23
915.67	227.23
915.97	227.19
916.27	227.17
916.58	227.15
916.88	227.15
917.18	227.13
917.49	227.17
917.79	227.17
918.09	227.18
918.39	227.20
918.70	227.18
919.00	227.17
919.30	227.23
919.60	227.21
919.91	227.17
920.21	227.14
920.51	227.12
920.81	227.08
921.12	227.10
921.42	227.08
921.72	227.07
922.02	227.06
922.32	227.08
922.63	227.10
922.93	227.14
923.23	227.12
923.53	227.08
923.83	226.99
924.13	226.98
924.44	226.93
924.74	226.92
925.04	226.92
925.34	226.91
925.64	226.87
925.94	226.87
926.24	226.97
926.55	226.98
926.85	226.98
927.15	227.04
927.45	227.05
927.75	227.06
928.05	227.04
928.35	227.06
928.65	227.08
928.95	227.10
929.26	227.07
929.56	227.08
929.86	227.11
930.16	227.14
930.46	227.15
930.76	227.18
931.06	227.17
931.36	227.14
931.66	227.17
931.96	227.20
932.26	227.22
932.56	227.15
932.86	227.16
933.16	227.18
933.46	227.17
933.76	227.18
934.06	227.21
934.36	227.29
934.66	227.30
934.96	227.31
935.26	227.32
935.56	227.37
935.86	227.39
936.16	227.38
936.46	227.39
936.76	227.37
937.06	227.38
937.36	227.42
937.66	227.45
937.96	227.45
938.26	227.45
938.56	227.46
938.86	227.50
939.16	227.56
939.46	227.55
939.76	227.58
940.06	227.61
940.35	227.57
940.65	227.51
940.95	227.51
941.25	227.49
941.55	227.47
941.85	227.48
942.15	227.51
942.45	227.52
942.75	227.52
943.04	227.56
943.34	227.57
943.64	227.56
943.94	227.56
944.24	227.56
944.54	227.56
944.84	227.55
945.13	227.53
945.43	227.46
945.73	227.49
946.03	227.46
946.33	227.43
946.62	227.45
946.92	227.45
947.22	227.43
947.52	227.43
947.82	227.44
948.11	227.40
948.41	227.37
948.71	227.33
949.01	227.35
949.31	227.32
949.60	227.29
949.90	227.29
950.20	227.29
950.50	227.28
950.79	227.24
951.09	227.25
951.39	227.26
951.69	227.26
951.98	227.27
952.28	227.26
952.58	227.27
952.87	227.23
953.17	227.22
953.47	227.22
953.76	227.22
954.06	227.20
954.36	227.20
954.66	227.16
954.95	227.21
955.25	227.18
955.55	227.17
955.84	227.16
956.14	227.15
956.44	227.12
956.73	227.11
957.03	227.12
957.32	227.10
957.62	227.08
957.92	227.05
958.21	227.01
958.51	227.11
958.81	227.07
959.10	227.11
959.40	227.11
959.69	227.12
959.99	227.11
960.29	227.10
960.58	227.05
960.88	227.13
961.17	227.12
961.47	227.12
961.76	227.11
962.06	227.15
962.36	227.13
962.65	227.15
962.95	227.17
963.24	227.16
963.54	227.16
963.83	227.14
964.13	227.18
964.42	227.15
964.72	227.07
965.01	227.12
965.31	227.07
965.60	227.07
965.90	227.12
966.19	227.13
966.49	227.17
966.78	227.20
967.08	227.16
967.37	227.14
967.67	227.17
967.96	227.19
968.26	227.18
968.55	227.22
968.85	227.23
969.14	227.23
969.43	227.23
969.73	227.22
970.02	227.26
970.32	227.23
970.61	227.24
970.91	227.23
971.20	227.19
971.49	227.22
971.79	227.24
972.08	227.16
972.38	227.17
972.67	227.15
972.96	227.15
973.26	227.17
973.55	227.23
973.85	227.21
974.14	227.20
974.43	227.20
974.73	227.18
975.02	227.17
975.31	227.17
975.61	227.19
975.90	227.21
976.19	227.17
976.49	227.22
976.78	227.23
977.07	227.25
977.37	227.26
977.66	227.27
977.95	227.28
978.24	227.29
978.54	227.32
978.83	227.33
979.12	227.34
979.42	227.31
979.71	227.25
980.00	227.25
980.29	227.25
980.59	227.26
980.88	227.29
981.17	227.28
981.46	227.29
981.76	227.29
982.05	227.26
982.34	227.29
982.63	227.28
982.93	227.27
983.22	227.27
983.51	227.30
983.80	227.30
984.09	227.28
984.39	227.28
984.68	227.26
984.97	227.28
985.26	227.23
985.55	227.25
985.85	227.24
986.14	227.27
986.43	227.28
986.72	227.26
987.01	227.17
987.30	227.16
987.59	227.16
987.89	227.13
988.18	227.13
988.47	227.11
988.76	227.11
989.05	227.10
989.34	227.08
989.63	227.03
989.92	227.04
990.22	227.01
990.51	226.97
990.80	226.95
991.09	226.92
991.38	226.93
991.67	226.90
991.96	226.89
992.25	226.89
992.54	226.86
992.83	226.84
993.12	226.85
993.41	226.85
993.70	226.85
993.99	226.86
994.28	226.88
994.58	226.89
994.87	226.84
995.16	226.85
995.45	226.84
995.74	226.81
996.03	226.82
996.32	226.82
996.61	226.86
996.90	226.85
997.19	226.82
997.48	226.84
997.77	226.82
998.06	226.83
998.34	226.80
998.63	226.81
998.92	226.82
999.21	226.88
999.50	226.85
999.79	226.82
1000.08	226.85
1000.37	226.82
1000.66	226.80
1000.95	226.83
1001.24	226.84
1001.53	226.87
1001.82	226.90
1002.11	226.87
1002.40	226.87
1002.68	226.91
1002.97	227.02
1003.26	227.02
1003.55	227.01
1003.84	227.02
1004.13	227.08
1004.42	227.10
1004.71	227.12
1004.99	227.09
1005.28	227.10
1005.57	227.14
1005.86	227.15
1006.15	227.12
1006.44	227.10
1006.72	227.12
1007.01	227.09
1007.30	227.11
1007.59	227.09
1007.88	227.11
1008.17	227.12
1008.45	227.09
1008.74	227.06
1009.03	226.98
1009.32	227.00
1009.60	227.00
1009.89	227.00
1010.18	226.92
1010.47	226.91
1010.76	226.93
1011.04	226.95
1011.33	226.93
1011.62	226.93
1011.91	226.95
1012.19	226.98
1012.48	227.01
1012.77	227.02
1013.05	227.10
1013.34	227.09
1013.63	227.10
1013.92	227.07
1014.20	227.10
1014.49	227.13
1014.78	227.13
1015.06	227.11
1015.35	227.10
1015.64	227.12
1015.92	227.12
1016.21	227.14
1016.50	227.12
1016.78	227.09
1017.07	227.10
1017.36	227.12
1017.64	227.10
1017.93	227.09
1018.22	227.09
1018.50	227.06
1018.79	227.08
1019.08	227.00
1019.36	226.98
1019.65	226.99
1019.93	227.00
1020.22	226.97
1020.51	227.03
1020.79	227.03
1021.08	227.53
1021.36	226.36
1021.65	227.22
1021.94	226.71
1022.22	226.84
1022.51	227.43
1022.79	226.76
1023.08	227.09
1023.36	228.42
1023.65	226.91
>>>>>End Processed Spectral Data<<<<<
