SpectraSuite Data File
++++++++++++++++++++++++++++++++++++
Date: Fri Feb 01 15:23:18 EST 2013
User: group
Dark Spectrum Present: No
Reference Spectrum Present: No
Number of Sampled Component Spectra: 1
Spectrometers: USB2E7196
Integration Time (usec): 35000 (USB2E7196)
Spectra Averaged: 100 (USB2E7196)
Boxcar Smoothing: 10 (USB2E7196)
Correct for Electrical Dark: No (USB2E7196)
Strobe/Lamp Enabled: No (USB2E7196)
Correct for Detector Non-linearity: No (USB2E7196)
Correct for Stray Light: No (USB2E7196)
Number of Pixels in Processed Spectrum: 2048
>>>>>Begin Processed Spectral Data<<<<<
339.09	0.00
339.48	215.37
339.86	216.88
340.24	217.96
340.63	219.62
341.01	222.14
341.39	222.23
341.78	223.86
342.16	224.35
342.54	225.33
342.93	213.51
343.31	224.32
343.69	224.84
344.07	225.26
344.46	225.68
344.84	226.05
345.22	226.28
345.60	226.49
345.99	226.67
346.37	226.78
346.75	226.84
347.13	226.89
347.52	226.96
347.90	227.06
348.28	227.07
348.66	227.07
349.05	227.07
349.43	227.09
349.81	227.11
350.19	227.16
350.57	227.21
350.96	227.26
351.34	227.31
351.72	227.38
352.10	227.51
352.48	227.57
352.87	227.64
353.25	227.71
353.63	227.78
354.01	227.83
354.39	227.92
354.77	228.01
355.15	228.12
355.54	228.14
355.92	228.18
356.30	228.26
356.68	228.41
357.06	228.47
357.44	228.55
357.82	228.63
358.20	228.67
358.58	228.72
358.97	228.77
359.35	228.87
359.73	228.95
360.11	229.00
360.49	229.07
360.87	229.12
361.25	229.15
361.63	229.25
362.01	229.29
362.39	229.32
362.77	229.38
363.15	229.39
363.53	229.42
363.91	229.42
364.29	229.40
364.67	229.32
365.05	229.36
365.43	229.35
365.81	229.37
366.19	229.42
366.57	229.48
366.95	229.48
367.33	229.43
367.71	229.41
368.09	229.39
368.47	229.34
368.85	229.27
369.23	229.29
369.61	229.20
369.99	229.20
370.37	229.21
370.75	229.20
371.13	229.16
371.51	229.10
371.89	229.07
372.27	229.06
372.65	229.05
373.03	228.96
373.41	228.92
373.78	228.84
374.16	228.70
374.54	228.60
374.92	228.52
375.30	228.45
375.68	228.36
376.06	228.30
376.44	228.24
376.82	228.21
377.19	228.14
377.57	228.06
377.95	227.94
378.33	227.82
378.71	227.70
379.09	227.63
379.47	227.59
379.84	227.53
380.22	227.45
380.60	227.35
380.98	227.31
381.36	227.22
381.73	227.13
382.11	227.11
382.49	227.04
382.87	226.94
383.25	226.85
383.62	226.92
384.00	226.88
384.38	226.84
384.76	226.79
385.13	226.77
385.51	226.75
385.89	226.70
386.27	226.66
386.64	226.61
387.02	226.57
387.40	226.53
387.78	226.47
388.15	226.42
388.53	226.38
388.91	226.33
389.29	226.31
389.66	226.33
390.04	226.31
390.42	226.31
390.79	226.33
391.17	226.33
391.55	226.22
391.92	226.15
392.30	226.14
392.68	226.12
393.05	226.10
393.43	226.09
393.81	226.07
394.18	226.04
394.56	226.07
394.94	226.10
395.31	226.10
395.69	226.18
396.06	226.23
396.44	226.30
396.82	226.33
397.19	226.40
397.57	226.42
397.95	226.48
398.32	226.48
398.70	226.53
399.07	226.66
399.45	226.72
399.82	226.86
400.20	226.93
400.58	226.99
400.95	227.02
401.33	227.14
401.70	227.34
402.08	227.48
402.45	227.61
402.83	227.76
403.20	227.87
403.58	227.98
403.95	228.14
404.33	228.27
404.71	228.40
405.08	228.62
405.46	228.81
405.83	228.97
406.21	229.17
406.58	229.38
406.96	229.54
407.33	229.73
407.70	229.89
408.08	230.17
408.45	230.45
408.83	230.72
409.20	230.95
409.58	231.12
409.95	231.39
410.33	231.65
410.70	231.91
411.08	232.22
411.45	232.52
411.82	232.82
412.20	233.20
412.57	233.66
412.95	233.96
413.32	234.36
413.69	234.78
414.07	235.22
414.44	235.66
414.82	236.11
415.19	236.68
415.56	237.23
415.94	237.76
416.31	238.39
416.68	239.03
417.06	239.75
417.43	240.46
417.81	241.23
418.18	242.00
418.55	242.80
418.93	243.66
419.30	244.55
419.67	245.47
420.04	246.42
420.42	247.43
420.79	248.57
421.16	249.70
421.54	250.87
421.91	252.09
422.28	253.34
422.66	254.70
423.03	255.98
423.40	257.32
423.77	258.73
424.15	260.15
424.52	261.63
424.89	263.21
425.26	264.73
425.64	266.16
426.01	267.78
426.38	269.47
426.75	271.17
427.13	272.93
427.50	274.76
427.87	276.60
428.24	278.40
428.61	280.17
428.99	282.11
429.36	284.22
429.73	286.28
430.10	288.32
430.47	290.35
430.85	292.49
431.22	294.74
431.59	297.12
431.96	299.33
432.33	301.80
432.70	304.21
433.08	307.03
433.45	309.68
433.82	312.27
434.19	315.14
434.56	317.95
434.93	320.56
435.30	323.18
435.68	326.11
436.05	328.97
436.42	331.77
436.79	334.28
437.16	336.96
437.53	339.81
437.90	342.60
438.27	345.36
438.64	348.18
439.01	350.74
439.38	352.99
439.75	355.17
440.13	357.66
440.50	359.95
440.87	361.79
441.24	363.76
441.61	365.94
441.98	367.39
442.35	369.19
442.72	371.08
443.09	372.88
443.46	373.85
443.83	374.46
444.20	374.98
444.57	375.81
444.94	376.08
445.31	376.41
445.68	376.80
446.05	376.88
446.42	376.47
446.79	376.09
447.16	375.65
447.53	375.34
447.90	374.20
448.27	373.02
448.64	371.43
449.01	370.27
449.37	368.29
449.74	366.44
450.11	364.22
450.48	361.78
450.85	359.28
451.22	357.19
451.59	355.17
451.96	353.19
452.33	350.63
452.70	348.31
453.07	345.54
453.43	342.61
453.80	339.84
454.17	337.19
454.54	334.63
454.91	331.89
455.28	329.20
455.65	326.72
456.02	324.32
456.38	322.18
456.75	319.55
457.12	317.31
457.49	315.07
457.86	312.87
458.23	310.97
458.59	308.87
458.96	306.76
459.33	304.88
459.70	303.05
460.07	301.52
460.43	299.79
460.80	298.11
461.17	296.70
461.54	295.20
461.91	293.76
462.27	292.31
462.64	291.08
463.01	289.77
463.38	288.47
463.74	287.04
464.11	285.91
464.48	284.88
464.85	283.71
465.21	282.81
465.58	281.89
465.95	280.79
466.32	279.86
466.68	278.95
467.05	278.04
467.42	277.18
467.78	276.25
468.15	275.35
468.52	274.68
468.88	273.82
469.25	273.03
469.62	272.43
469.98	271.74
470.35	271.08
470.72	270.42
471.08	269.77
471.45	269.30
471.82	268.72
472.18	268.09
472.55	267.67
472.92	267.18
473.28	266.69
473.65	266.22
474.02	265.79
474.38	265.41
474.75	265.07
475.11	264.68
475.48	264.42
475.85	264.20
476.21	263.98
476.58	263.78
476.94	263.62
477.31	263.39
477.67	263.25
478.04	263.14
478.41	263.08
478.77	263.09
479.14	262.99
479.50	263.00
479.87	263.06
480.23	263.14
480.60	263.20
480.96	263.28
481.33	263.47
481.69	263.68
482.06	263.85
482.42	264.06
482.79	264.32
483.15	264.61
483.52	264.98
483.88	265.31
484.25	265.67
484.61	266.11
484.98	266.55
485.34	267.12
485.71	267.69
486.07	268.29
486.44	268.88
486.80	269.59
487.17	270.28
487.53	271.09
487.90	271.94
488.26	272.85
488.62	273.86
488.99	274.86
489.35	275.87
489.72	276.99
490.08	278.16
490.44	279.39
490.81	280.71
491.17	282.06
491.54	283.55
491.90	285.12
492.26	286.75
492.63	288.49
492.99	290.28
493.36	292.19
493.72	294.22
494.08	296.30
494.45	298.60
494.81	301.00
495.17	303.41
495.54	305.97
495.90	308.66
496.26	311.44
496.63	314.36
496.99	317.50
497.35	320.75
497.72	324.15
498.08	327.67
498.44	331.36
498.80	335.24
499.17	339.25
499.53	343.37
499.89	347.71
500.26	352.22
500.62	356.88
500.98	361.80
501.34	366.87
501.71	372.20
502.07	377.62
502.43	383.20
502.79	389.01
503.16	395.06
503.52	401.36
503.88	407.79
504.24	414.41
504.60	421.32
504.97	428.48
505.33	435.81
505.69	443.47
506.05	451.21
506.41	459.08
506.78	467.28
507.14	475.76
507.50	484.50
507.86	493.54
508.22	502.71
508.59	511.97
508.95	521.51
509.31	531.33
509.67	541.43
510.03	551.69
510.39	562.27
510.75	573.17
511.12	584.11
511.48	595.44
511.84	606.94
512.20	618.44
512.56	630.39
512.92	642.57
513.28	654.90
513.64	667.43
514.00	680.19
514.37	693.12
514.73	706.19
515.09	719.25
515.45	732.59
515.81	746.22
516.17	760.22
516.53	774.44
516.89	788.69
517.25	802.92
517.61	817.36
517.97	831.92
518.33	846.34
518.69	861.12
519.05	876.09
519.41	891.29
519.77	906.84
520.13	922.36
520.49	937.76
520.85	953.30
521.21	969.02
521.57	985.29
521.93	1001.16
522.29	1017.66
522.65	1033.91
523.01	1050.25
523.37	1066.27
523.73	1082.53
524.09	1098.68
524.45	1115.07
524.81	1131.77
525.17	1148.68
525.53	1165.64
525.89	1182.57
526.25	1199.47
526.61	1215.95
526.97	1232.73
527.33	1249.28
527.68	1265.87
528.04	1282.52
528.40	1299.23
528.76	1316.42
529.12	1333.04
529.48	1349.94
529.84	1365.93
530.20	1382.72
530.56	1399.81
530.91	1417.25
531.27	1434.06
531.63	1450.59
531.99	1467.16
532.35	1483.01
532.71	1498.95
533.07	1515.33
533.42	1531.25
533.78	1547.35
534.14	1563.66
534.50	1579.13
534.86	1595.11
535.21	1610.30
535.57	1626.24
535.93	1641.66
536.29	1656.43
536.65	1671.69
537.00	1686.47
537.36	1701.89
537.72	1716.43
538.08	1730.74
538.44	1744.60
538.79	1758.47
539.15	1772.24
539.51	1786.02
539.87	1800.45
540.22	1814.26
540.58	1828.06
540.94	1841.45
541.29	1854.52
541.65	1867.21
542.01	1880.54
542.37	1892.87
542.72	1905.38
543.08	1917.22
543.44	1929.65
543.79	1940.83
544.15	1951.73
544.51	1963.35
544.87	1974.39
545.22	1985.24
545.58	1995.49
545.94	2005.45
546.29	2015.30
546.65	2025.10
547.01	2034.30
547.36	2043.24
547.72	2051.79
548.07	2059.72
548.43	2067.91
548.79	2075.86
549.14	2083.52
549.50	2090.79
549.86	2098.53
550.21	2106.00
550.57	2113.25
550.92	2119.88
551.28	2127.09
551.64	2134.24
551.99	2140.75
552.35	2146.72
552.70	2152.80
553.06	2158.86
553.41	2165.15
553.77	2171.25
554.13	2177.30
554.48	2183.51
554.84	2188.75
555.19	2193.91
555.55	2198.81
555.90	2203.26
556.26	2208.04
556.61	2212.72
556.97	2216.91
557.32	2220.99
557.68	2225.04
558.03	2229.27
558.39	2233.11
558.74	2237.68
559.10	2241.47
559.45	2245.09
559.81	2249.60
560.16	2253.51
560.52	2256.80
560.87	2260.21
561.23	2262.82
561.58	2265.75
561.94	2268.33
562.29	2270.71
562.64	2273.47
563.00	2276.23
563.35	2279.78
563.71	2282.98
564.06	2286.10
564.42	2289.07
564.77	2291.58
565.12	2293.75
565.48	2295.51
565.83	2297.16
566.19	2298.41
566.54	2299.52
566.89	2300.63
567.25	2301.03
567.60	2302.25
567.96	2303.90
568.31	2304.78
568.66	2305.82
569.02	2306.40
569.37	2306.67
569.72	2307.61
570.08	2307.82
570.43	2307.69
570.78	2307.05
571.14	2305.45
571.49	2304.27
571.84	2303.79
572.20	2302.58
572.55	2301.54
572.90	2300.10
573.26	2298.78
573.61	2297.04
573.96	2295.02
574.31	2291.99
574.67	2288.90
575.02	2285.33
575.37	2281.82
575.72	2277.78
576.08	2274.47
576.43	2271.03
576.78	2267.29
577.13	2264.09
577.49	2260.73
577.84	2257.18
578.19	2253.38
578.54	2249.50
578.90	2245.05
579.25	2239.49
579.60	2234.46
579.95	2229.33
580.30	2224.11
580.66	2218.77
581.01	2213.85
581.36	2208.66
581.71	2204.52
582.06	2200.01
582.42	2195.36
582.77	2189.89
583.12	2185.26
583.47	2180.31
583.82	2175.26
584.17	2169.80
584.53	2164.12
584.88	2158.47
585.23	2152.62
585.58	2147.13
585.93	2141.81
586.28	2137.01
586.63	2131.71
586.98	2126.49
587.34	2121.81
587.69	2116.86
588.04	2111.66
588.39	2105.77
588.74	2099.44
589.09	2093.22
589.44	2086.34
589.79	2080.39
590.14	2074.82
590.49	2068.16
590.84	2061.86
591.19	2055.87
591.54	2049.46
591.89	2041.97
592.25	2035.07
592.60	2027.77
592.95	2020.07
593.30	2012.60
593.65	2004.86
594.00	1997.82
594.35	1990.57
594.70	1982.49
595.05	1975.08
595.40	1967.66
595.75	1960.13
596.10	1953.85
596.45	1946.97
596.80	1940.68
597.15	1933.81
597.50	1926.54
597.85	1920.14
598.19	1913.34
598.54	1906.10
598.89	1899.36
599.24	1893.43
599.59	1886.73
599.94	1880.53
600.29	1874.01
600.64	1867.42
600.99	1860.01
601.34	1853.07
601.69	1846.06
602.04	1838.97
602.39	1831.74
602.74	1824.76
603.08	1818.11
603.43	1811.38
603.78	1804.03
604.13	1796.88
604.48	1789.60
604.83	1782.79
605.18	1775.72
605.53	1767.81
605.87	1759.77
606.22	1752.60
606.57	1744.62
606.92	1737.23
607.27	1729.99
607.62	1723.19
607.96	1715.85
608.31	1709.11
608.66	1701.52
609.01	1694.01
609.36	1686.52
609.70	1678.40
610.05	1670.35
610.40	1662.64
610.75	1654.19
611.10	1646.64
611.44	1638.28
611.79	1630.39
612.14	1621.66
612.49	1612.54
612.83	1604.08
613.18	1596.04
613.53	1587.92
613.88	1579.47
614.22	1571.24
614.57	1562.66
614.92	1554.50
615.27	1546.90
615.61	1538.61
615.96	1530.59
616.31	1522.95
616.65	1515.60
617.00	1508.04
617.35	1500.53
617.70	1492.00
618.04	1483.39
618.39	1475.04
618.74	1467.41
619.08	1458.99
619.43	1451.47
619.78	1444.45
620.12	1437.24
620.47	1429.64
620.82	1421.42
621.16	1413.92
621.51	1406.33
621.85	1398.75
622.20	1390.24
622.55	1381.86
622.89	1373.95
623.24	1366.48
623.59	1359.22
623.93	1351.66
624.28	1344.52
624.62	1336.95
624.97	1329.85
625.32	1323.17
625.66	1316.12
626.01	1308.82
626.35	1301.31
626.70	1293.57
627.04	1285.91
627.39	1278.15
627.73	1270.71
628.08	1263.72
628.43	1256.36
628.77	1248.87
629.12	1241.31
629.46	1234.16
629.81	1226.86
630.15	1219.68
630.50	1212.18
630.84	1203.88
631.19	1195.95
631.53	1188.38
631.88	1180.82
632.22	1173.21
632.57	1166.07
632.91	1158.57
633.26	1151.23
633.60	1143.95
633.95	1136.96
634.29	1129.93
634.64	1123.31
634.98	1116.00
635.32	1108.91
635.67	1102.42
636.01	1095.83
636.36	1088.93
636.70	1082.51
637.05	1075.96
637.39	1069.57
637.73	1063.00
638.08	1057.04
638.42	1051.12
638.77	1044.61
639.11	1037.95
639.45	1031.62
639.80	1024.87
640.14	1018.47
640.49	1011.94
640.83	1005.64
641.17	999.35
641.52	993.07
641.86	986.63
642.20	980.72
642.55	974.47
642.89	967.94
643.23	961.42
643.58	955.74
643.92	949.38
644.26	943.18
644.61	937.04
644.95	931.09
645.29	924.59
645.64	917.81
645.98	911.57
646.32	905.78
646.66	899.72
647.01	893.96
647.35	888.21
647.69	882.48
648.04	877.01
648.38	871.19
648.72	865.06
649.06	858.92
649.41	853.03
649.75	847.01
650.09	841.08
650.43	835.28
650.78	829.10
651.12	823.23
651.46	817.56
651.80	811.83
652.14	806.40
652.49	801.02
652.83	795.84
653.17	790.04
653.51	784.34
653.85	778.92
654.20	773.29
654.54	767.28
654.88	761.46
655.22	755.58
655.56	749.91
655.90	744.55
656.25	739.34
656.59	734.12
656.93	729.05
657.27	723.93
657.61	718.50
657.95	713.41
658.29	708.35
658.64	703.16
658.98	697.88
659.32	692.40
659.66	687.08
660.00	681.71
660.34	676.80
660.68	671.84
661.02	666.82
661.36	662.13
661.70	657.69
662.05	653.34
662.39	649.04
662.73	644.53
663.07	640.15
663.41	635.68
663.75	631.04
664.09	626.44
664.43	622.07
664.77	618.02
665.11	613.73
665.45	609.61
665.79	605.42
666.13	601.31
666.47	597.26
666.81	593.19
667.15	589.15
667.49	585.29
667.83	581.56
668.17	577.58
668.51	573.43
668.85	569.41
669.19	565.61
669.53	561.75
669.87	557.86
670.21	554.19
670.55	550.62
670.89	547.25
671.23	543.89
671.57	540.36
671.91	536.79
672.25	533.38
672.58	529.88
672.92	526.57
673.26	523.45
673.60	520.29
673.94	517.16
674.28	514.22
674.62	511.29
674.96	508.13
675.30	505.27
675.64	502.36
675.97	499.61
676.31	496.76
676.65	493.78
676.99	491.13
677.33	488.22
677.67	485.35
678.01	482.30
678.34	479.33
678.68	476.45
679.02	473.67
679.36	470.84
679.70	468.11
680.04	465.29
680.37	462.39
680.71	459.64
681.05	457.04
681.39	454.39
681.73	451.72
682.06	449.24
682.40	446.69
682.74	444.20
683.08	441.66
683.42	439.02
683.75	436.54
684.09	434.03
684.43	431.63
684.77	429.19
685.10	426.87
685.44	424.62
685.78	422.32
686.12	420.01
686.45	417.77
686.79	415.49
687.13	413.32
687.46	411.21
687.80	409.06
688.14	406.84
688.48	404.80
688.81	402.61
689.15	400.51
689.49	398.44
689.82	396.40
690.16	394.31
690.50	392.40
690.83	390.50
691.17	388.46
691.51	386.57
691.84	384.75
692.18	382.86
692.52	380.84
692.85	378.99
693.19	377.19
693.52	375.40
693.86	373.64
694.20	371.89
694.53	370.05
694.87	368.24
695.21	366.50
695.54	364.68
695.88	362.94
696.21	361.20
696.55	359.53
696.88	357.85
697.22	356.22
697.56	354.59
697.89	352.96
698.23	351.42
698.56	349.80
698.90	348.18
699.23	346.54
699.57	345.01
699.90	343.45
700.24	341.87
700.58	340.34
700.91	338.81
701.25	337.44
701.58	336.08
701.92	334.75
702.25	333.35
702.59	331.98
702.92	330.73
703.26	329.43
703.59	328.14
703.93	326.97
704.26	325.70
704.60	324.38
704.93	323.07
705.26	321.78
705.60	320.62
705.93	319.53
706.27	318.51
706.60	317.45
706.94	316.35
707.27	315.19
707.61	314.13
707.94	313.13
708.27	311.97
708.61	310.94
708.94	309.90
709.28	308.96
709.61	307.98
709.94	307.01
710.28	305.98
710.61	304.98
710.95	303.90
711.28	302.99
711.61	302.05
711.95	301.13
712.28	300.17
712.61	299.16
712.95	298.18
713.28	297.27
713.61	296.33
713.95	295.46
714.28	294.65
714.61	293.78
714.95	292.89
715.28	292.03
715.61	291.16
715.95	290.30
716.28	289.41
716.61	288.58
716.95	287.77
717.28	287.03
717.61	286.25
717.94	285.51
718.28	284.71
718.61	283.99
718.94	283.31
719.27	282.71
719.61	282.09
719.94	281.47
720.27	280.76
720.60	280.10
720.94	279.46
721.27	278.86
721.60	278.28
721.93	277.70
722.27	277.15
722.60	276.58
722.93	275.99
723.26	275.46
723.59	274.90
723.93	274.31
724.26	273.76
724.59	273.22
724.92	272.69
725.25	272.20
725.59	271.67
725.92	271.17
726.25	270.65
726.58	270.15
726.91	269.66
727.24	269.16
727.57	268.71
727.91	268.21
728.24	267.74
728.57	267.23
728.90	266.79
729.23	266.29
729.56	265.85
729.89	265.34
730.22	264.89
730.55	264.43
730.89	263.98
731.22	263.53
731.55	263.11
731.88	262.67
732.21	262.19
732.54	261.79
732.87	261.38
733.20	260.96
733.53	260.55
733.86	260.19
734.19	259.83
734.52	259.50
734.85	259.23
735.18	258.82
735.51	258.47
735.84	258.06
736.17	257.74
736.50	257.37
736.83	257.18
737.16	256.83
737.49	256.52
737.82	256.18
738.15	255.87
738.48	255.51
738.81	255.19
739.14	254.87
739.47	254.55
739.80	254.25
740.13	253.96
740.46	253.65
740.79	253.30
741.12	253.00
741.45	252.64
741.78	252.26
742.11	251.99
742.44	251.69
742.77	251.47
743.10	251.17
743.43	250.90
743.75	250.54
744.08	250.34
744.41	250.09
744.74	249.84
745.07	249.55
745.40	249.34
745.73	249.13
746.06	248.87
746.39	248.60
746.71	248.32
747.04	248.08
747.37	247.82
747.70	247.59
748.03	247.37
748.36	247.19
748.68	246.99
749.01	246.73
749.34	246.49
749.67	246.22
750.00	246.00
750.33	245.82
750.65	245.60
750.98	245.31
751.31	245.06
751.64	244.84
751.97	244.70
752.29	244.45
752.62	244.19
752.95	243.99
753.28	243.79
753.60	243.59
753.93	243.42
754.26	243.22
754.59	242.97
754.91	242.73
755.24	242.48
755.57	242.27
755.90	242.10
756.22	241.93
756.55	241.73
756.88	241.54
757.20	241.31
757.53	241.14
757.86	240.96
758.19	240.83
758.51	240.66
758.84	240.42
759.17	240.25
759.49	240.11
759.82	239.97
760.15	239.84
760.47	239.69
760.80	239.49
761.13	239.36
761.45	239.22
761.78	239.10
762.11	238.97
762.43	238.84
762.76	238.68
763.08	238.56
763.41	238.45
763.74	238.30
764.06	238.14
764.39	237.98
764.71	237.84
765.04	237.67
765.37	237.55
765.69	237.41
766.02	237.30
766.34	237.16
766.67	237.03
767.00	236.90
767.32	236.84
767.65	236.76
767.97	236.66
768.30	236.56
768.62	236.41
768.95	236.28
769.27	236.13
769.60	236.04
769.92	235.89
770.25	235.76
770.57	235.63
770.90	235.55
771.22	235.44
771.55	235.35
771.87	235.24
772.20	235.10
772.52	235.13
772.85	235.16
773.17	235.06
773.50	234.97
773.82	234.88
774.15	234.73
774.47	234.58
774.80	234.47
775.12	234.38
775.45	234.29
775.77	234.26
776.09	234.21
776.42	234.13
776.74	234.06
777.07	234.01
777.39	233.99
777.72	233.91
778.04	233.85
778.36	233.78
778.69	233.74
779.01	233.70
779.33	233.49
779.66	233.29
779.98	233.26
780.31	233.20
780.63	233.16
780.95	233.14
781.28	233.08
781.60	233.01
781.92	232.95
782.25	232.91
782.57	232.81
782.89	232.72
783.22	232.67
783.54	232.60
783.86	232.53
784.19	232.47
784.51	232.44
784.83	232.34
785.16	232.29
785.48	232.25
785.80	232.19
786.12	232.18
786.45	232.16
786.77	232.10
787.09	232.05
787.42	231.96
787.74	231.90
788.06	231.87
788.38	231.82
788.71	231.76
789.03	231.72
789.35	231.74
789.67	231.72
789.99	231.66
790.32	231.64
790.64	231.61
790.96	231.61
791.28	231.55
791.61	231.53
791.93	231.51
792.25	231.45
792.57	231.50
792.89	231.42
793.21	231.34
793.54	231.27
793.86	231.21
794.18	231.16
794.50	231.12
794.82	231.09
795.14	231.05
795.47	231.01
795.79	230.99
796.11	230.90
796.43	230.85
796.75	230.82
797.07	230.76
797.39	230.71
797.71	230.60
798.04	230.55
798.36	230.49
798.68	230.43
799.00	230.40
799.32	230.31
799.64	230.32
799.96	230.29
800.28	230.30
800.60	230.23
800.92	230.21
801.24	230.15
801.56	230.11
801.89	230.09
802.21	230.09
802.53	230.01
802.85	230.03
803.17	230.03
803.49	229.98
803.81	229.92
804.13	229.90
804.45	229.89
804.77	229.88
805.09	229.85
805.41	229.81
805.73	229.79
806.05	229.74
806.37	229.71
806.69	229.69
807.01	229.65
807.33	229.67
807.65	229.64
807.97	229.67
808.28	229.66
808.60	229.62
808.92	229.56
809.24	229.60
809.56	229.56
809.88	229.49
810.20	229.52
810.52	229.50
810.84	229.46
811.16	229.43
811.48	229.38
811.80	229.39
812.12	229.37
812.43	229.34
812.75	229.32
813.07	229.29
813.39	229.27
813.71	229.26
814.03	229.22
814.35	229.17
814.67	229.09
814.98	229.06
815.30	229.03
815.62	228.99
815.94	228.90
816.26	228.91
816.58	228.90
816.89	228.86
817.21	228.84
817.53	228.85
817.85	228.85
818.17	228.86
818.48	228.84
818.80	228.84
819.12	228.82
819.44	228.79
819.76	228.79
820.07	228.75
820.39	228.71
820.71	228.70
821.03	228.68
821.34	228.68
821.66	228.67
821.98	228.69
822.30	228.70
822.61	228.76
822.93	228.70
823.25	228.68
823.57	228.66
823.88	228.70
824.20	228.69
824.52	228.70
824.83	228.67
825.15	228.62
825.47	228.61
825.79	228.62
826.10	228.59
826.42	228.59
826.74	228.58
827.05	228.60
827.37	228.61
827.69	228.65
828.00	228.64
828.32	228.63
828.64	228.61
828.95	228.63
829.27	228.60
829.58	228.59
829.90	228.61
830.22	228.61
830.53	228.56
830.85	228.50
831.17	228.44
831.48	228.43
831.80	228.44
832.11	228.41
832.43	228.39
832.75	228.39
833.06	228.39
833.38	228.38
833.69	228.38
834.01	228.37
834.32	228.32
834.64	228.33
834.96	228.31
835.27	228.27
835.59	228.23
835.90	228.17
836.22	228.13
836.53	228.08
836.85	228.04
837.16	228.13
837.48	228.15
837.79	228.18
838.11	228.17
838.42	228.16
838.74	228.17
839.05	228.14
839.37	228.12
839.68	228.04
840.00	228.01
840.31	227.96
840.63	227.91
840.94	227.88
841.26	227.84
841.57	227.85
841.88	227.87
842.20	227.85
842.51	227.84
842.83	227.84
843.14	227.94
843.46	227.96
843.77	227.91
844.08	227.87
844.40	227.86
844.71	227.82
845.03	227.82
845.34	227.81
845.65	227.78
845.97	227.77
846.28	227.79
846.60	227.83
846.91	227.84
847.22	227.86
847.54	227.88
847.85	227.87
848.16	227.85
848.48	227.85
848.79	227.88
849.10	227.92
849.42	227.92
849.73	227.83
850.04	227.77
850.36	227.71
850.67	227.69
850.98	227.68
851.30	227.70
851.61	227.68
851.92	227.68
852.23	227.75
852.55	227.77
852.86	227.77
853.17	227.76
853.49	227.77
853.80	227.76
854.11	227.79
854.42	227.82
854.74	227.83
855.05	227.81
855.36	227.78
855.67	227.76
855.99	227.76
856.30	227.88
856.61	227.93
856.92	227.96
857.23	227.98
857.55	227.98
857.86	227.95
858.17	227.97
858.48	227.93
858.79	227.88
859.11	227.89
859.42	227.87
859.73	227.86
860.04	227.84
860.35	227.82
860.66	227.74
860.98	227.71
861.29	227.71
861.60	227.70
861.91	227.71
862.22	227.67
862.53	227.65
862.84	227.56
863.16	227.55
863.47	227.53
863.78	227.55
864.09	227.54
864.40	227.56
864.71	227.54
865.02	227.55
865.33	227.54
865.64	227.51
865.95	227.52
866.27	227.56
866.58	227.56
866.89	227.57
867.20	227.58
867.51	227.52
867.82	227.48
868.13	227.51
868.44	227.50
868.75	227.54
869.06	227.55
869.37	227.51
869.68	227.50
869.99	227.48
870.30	227.46
870.61	227.46
870.92	227.43
871.23	227.46
871.54	227.48
871.85	227.51
872.16	227.48
872.47	227.47
872.78	227.42
873.09	227.43
873.40	227.42
873.71	227.45
874.02	227.47
874.33	227.46
874.64	227.44
874.95	227.43
875.26	227.37
875.56	227.37
875.87	227.37
876.18	227.34
876.49	227.42
876.80	227.39
877.11	227.41
877.42	227.41
877.73	227.36
878.04	227.33
878.35	227.29
878.66	227.33
878.96	227.32
879.27	227.30
879.58	227.28
879.89	227.26
880.20	227.27
880.51	227.30
880.82	227.31
881.12	227.31
881.43	227.30
881.74	227.27
882.05	227.25
882.36	227.25
882.67	227.26
882.97	227.16
883.28	227.18
883.59	227.15
883.90	227.15
884.21	227.20
884.51	227.22
884.82	227.25
885.13	227.22
885.44	227.22
885.74	227.25
886.05	227.29
886.36	227.28
886.67	227.25
886.98	227.28
887.28	227.31
887.59	227.33
887.90	227.33
888.20	227.34
888.51	227.37
888.82	227.33
889.13	227.37
889.43	227.45
889.74	227.45
890.05	227.46
890.35	227.46
890.66	227.43
890.97	227.43
891.28	227.41
891.58	227.44
891.89	227.45
892.20	227.42
892.50	227.39
892.81	227.39
893.12	227.38
893.42	227.36
893.73	227.38
894.04	227.37
894.34	227.38
894.65	227.40
894.95	227.39
895.26	227.38
895.57	227.42
895.87	227.34
896.18	227.34
896.48	227.34
896.79	227.33
897.10	227.35
897.40	227.35
897.71	227.36
898.01	227.34
898.32	227.34
898.63	227.38
898.93	227.39
899.24	227.40
899.54	227.46
899.85	227.44
900.15	227.40
900.46	227.38
900.76	227.35
901.07	227.34
901.38	227.32
901.68	227.40
901.99	227.35
902.29	227.38
902.60	227.37
902.90	227.39
903.21	227.39
903.51	227.36
903.82	227.37
904.12	227.38
904.43	227.36
904.73	227.33
905.03	227.32
905.34	227.38
905.64	227.36
905.95	227.31
906.25	227.29
906.56	227.27
906.86	227.25
907.17	227.28
907.47	227.26
907.77	227.25
908.08	227.19
908.38	227.16
908.69	227.13
908.99	227.16
909.30	227.14
909.60	227.12
909.90	227.16
910.21	227.15
910.51	227.14
910.81	227.15
911.12	227.19
911.42	227.17
911.73	227.09
912.03	227.12
912.33	227.16
912.64	227.17
912.94	227.17
913.24	227.19
913.55	227.16
913.85	227.18
914.15	227.19
914.46	227.22
914.76	227.24
915.06	227.26
915.37	227.24
915.67	227.23
915.97	227.23
916.27	227.21
916.58	227.20
916.88	227.18
917.18	227.18
917.49	227.23
917.79	227.24
918.09	227.26
918.39	227.29
918.70	227.27
919.00	227.31
919.30	227.37
919.60	227.36
919.91	227.36
920.21	227.35
920.51	227.33
920.81	227.30
921.12	227.32
921.42	227.30
921.72	227.33
922.02	227.37
922.32	227.40
922.63	227.38
922.93	227.43
923.23	227.43
923.53	227.43
923.83	227.36
924.13	227.37
924.44	227.40
924.74	227.39
925.04	227.41
925.34	227.38
925.64	227.31
925.94	227.35
926.24	227.40
926.55	227.40
926.85	227.44
927.15	227.47
927.45	227.44
927.75	227.44
928.05	227.40
928.35	227.37
928.65	227.35
928.95	227.36
929.26	227.31
929.56	227.33
929.86	227.35
930.16	227.36
930.46	227.36
930.76	227.34
931.06	227.30
931.36	227.26
931.66	227.29
931.96	227.31
932.26	227.29
932.56	227.27
932.86	227.26
933.16	227.23
933.46	227.18
933.76	227.17
934.06	227.20
934.36	227.25
934.66	227.24
934.96	227.23
935.26	227.25
935.56	227.27
935.86	227.26
936.16	227.22
936.46	227.20
936.76	227.19
937.06	227.17
937.36	227.16
937.66	227.16
937.96	227.15
938.26	227.13
938.56	227.11
938.86	227.11
939.16	227.14
939.46	227.13
939.76	227.13
940.06	227.12
940.35	227.11
940.65	227.04
940.95	227.05
941.25	227.03
941.55	226.97
941.85	226.96
942.15	226.95
942.45	226.96
942.75	226.95
943.04	226.95
943.34	226.93
943.64	226.89
943.94	226.87
944.24	226.86
944.54	226.85
944.84	226.84
945.13	226.79
945.43	226.81
945.73	226.83
946.03	226.86
946.33	226.82
946.62	226.81
946.92	226.83
947.22	226.82
947.52	226.83
947.82	226.88
948.11	226.88
948.41	226.86
948.71	226.83
949.01	226.84
949.31	226.83
949.60	226.83
949.90	226.87
950.20	226.86
950.50	226.87
950.79	226.87
951.09	226.90
951.39	226.93
951.69	226.90
951.98	226.95
952.28	226.95
952.58	227.01
952.87	226.99
953.17	226.99
953.47	226.98
953.76	227.01
954.06	227.01
954.36	227.00
954.66	227.03
954.95	227.07
955.25	227.09
955.55	227.09
955.84	227.11
956.14	227.11
956.44	227.17
956.73	227.16
957.03	227.14
957.32	227.13
957.62	227.12
957.92	227.17
958.21	227.13
958.51	227.22
958.81	227.18
959.10	227.21
959.40	227.28
959.69	227.30
959.99	227.29
960.29	227.28
960.58	227.26
960.88	227.27
961.17	227.25
961.47	227.26
961.76	227.28
962.06	227.26
962.36	227.25
962.65	227.25
962.95	227.28
963.24	227.29
963.54	227.31
963.83	227.33
964.13	227.30
964.42	227.26
964.72	227.19
965.01	227.19
965.31	227.16
965.60	227.11
965.90	227.15
966.19	227.13
966.49	227.14
966.78	227.16
967.08	227.16
967.37	227.18
967.67	227.15
967.96	227.16
968.26	227.20
968.55	227.23
968.85	227.22
969.14	227.18
969.43	227.16
969.73	227.12
970.02	227.11
970.32	227.10
970.61	227.12
970.91	227.09
971.20	227.10
971.49	227.11
971.79	227.13
972.08	227.07
972.38	227.09
972.67	227.06
972.96	227.07
973.26	227.04
973.55	227.05
973.85	227.04
974.14	227.01
974.43	227.00
974.73	226.98
975.02	226.95
975.31	226.96
975.61	226.98
975.90	226.99
976.19	226.98
976.49	226.97
976.78	226.93
977.07	226.91
977.37	226.88
977.66	226.88
977.95	226.84
978.24	226.82
978.54	226.84
978.83	226.86
979.12	226.84
979.42	226.85
979.71	226.83
980.00	226.84
980.29	226.84
980.59	226.85
980.88	226.85
981.17	226.85
981.46	226.86
981.76	226.85
982.05	226.92
982.34	226.93
982.63	226.95
982.93	227.01
983.22	227.07
983.51	227.12
983.80	227.14
984.09	227.18
984.39	227.19
984.68	227.14
984.97	227.13
985.26	227.13
985.55	227.15
985.85	227.17
986.14	227.18
986.43	227.24
986.72	227.18
987.01	227.16
987.30	227.15
987.59	227.19
987.89	227.19
988.18	227.14
988.47	227.12
988.76	227.13
989.05	227.10
989.34	227.06
989.63	227.08
989.92	227.09
990.22	227.07
990.51	227.06
990.80	227.09
991.09	227.12
991.38	227.14
991.67	227.10
991.96	227.07
992.25	227.06
992.54	227.02
992.83	227.05
993.12	227.04
993.41	227.08
993.70	227.10
993.99	227.11
994.28	227.14
994.58	227.14
994.87	227.11
995.16	227.14
995.45	227.15
995.74	227.10
996.03	227.10
996.32	227.08
996.61	227.12
996.90	227.13
997.19	227.08
997.48	227.06
997.77	227.07
998.06	227.10
998.34	227.13
998.63	227.11
998.92	227.09
999.21	227.13
999.50	227.10
999.79	227.05
1000.08	227.05
1000.37	227.04
1000.66	227.03
1000.95	227.06
1001.24	227.03
1001.53	226.99
1001.82	226.99
1002.11	226.97
1002.40	226.98
1002.68	226.97
1002.97	227.02
1003.26	227.01
1003.55	227.03
1003.84	227.03
1004.13	227.04
1004.42	227.02
1004.71	227.04
1004.99	227.05
1005.28	227.06
1005.57	227.06
1005.86	227.04
1006.15	227.05
1006.44	227.01
1006.72	227.02
1007.01	227.01
1007.30	227.02
1007.59	227.02
1007.88	227.04
1008.17	227.03
1008.45	227.03
1008.74	227.00
1009.03	226.95
1009.32	226.96
1009.60	226.94
1009.89	226.96
1010.18	226.93
1010.47	226.91
1010.76	226.91
1011.04	226.91
1011.33	226.88
1011.62	226.87
1011.91	226.94
1012.19	226.92
1012.48	226.94
1012.77	226.94
1013.05	226.97
1013.34	226.97
1013.63	227.00
1013.92	226.99
1014.20	226.99
1014.49	226.99
1014.78	227.02
1015.06	227.04
1015.35	227.06
1015.64	227.07
1015.92	227.05
1016.21	227.05
1016.50	227.07
1016.78	227.06
1017.07	227.11
1017.36	227.09
1017.64	227.08
1017.93	227.06
1018.22	227.05
1018.50	227.06
1018.79	227.06
1019.08	227.04
1019.36	227.02
1019.65	226.98
1019.93	226.99
1020.22	227.00
1020.51	227.07
1020.79	227.03
1021.08	226.77
1021.36	226.96
1021.65	227.26
1021.94	227.03
1022.22	226.65
1022.51	226.25
1022.79	227.11
1023.08	226.76
1023.36	228.51
1023.65	226.44
>>>>>End Processed Spectral Data<<<<<
