SpectraSuite Data File
++++++++++++++++++++++++++++++++++++
Date: Fri Feb 01 16:15:23 EST 2013
User: group
Dark Spectrum Present: No
Reference Spectrum Present: No
Number of Sampled Component Spectra: 1
Spectrometers: USB2E7196
Integration Time (usec): 35000 (USB2E7196)
Spectra Averaged: 100 (USB2E7196)
Boxcar Smoothing: 10 (USB2E7196)
Correct for Electrical Dark: No (USB2E7196)
Strobe/Lamp Enabled: No (USB2E7196)
Correct for Detector Non-linearity: No (USB2E7196)
Correct for Stray Light: No (USB2E7196)
Number of Pixels in Processed Spectrum: 2048
>>>>>Begin Processed Spectral Data<<<<<
339.09	0.00
339.48	213.71
339.86	215.57
340.24	216.64
340.63	218.03
341.01	221.19
341.39	220.91
341.78	222.43
342.16	223.72
342.54	224.55
342.93	212.48
343.31	223.22
343.69	223.79
344.07	224.27
344.46	224.72
344.84	225.13
345.22	225.40
345.60	225.66
345.99	225.87
346.37	225.98
346.75	226.08
347.13	226.17
347.52	226.21
347.90	226.31
348.28	226.34
348.66	226.37
349.05	226.36
349.43	226.39
349.81	226.44
350.19	226.47
350.57	226.53
350.96	226.62
351.34	226.70
351.72	226.76
352.10	226.83
352.48	226.91
352.87	226.97
353.25	227.03
353.63	227.11
354.01	227.14
354.39	227.22
354.77	227.28
355.15	227.38
355.54	227.46
355.92	227.50
356.30	227.55
356.68	227.69
357.06	227.77
357.44	227.86
357.82	227.86
358.20	227.94
358.58	227.97
358.97	228.00
359.35	228.09
359.73	228.17
360.11	228.23
360.49	228.25
360.87	228.29
361.25	228.31
361.63	228.34
362.01	228.36
362.39	228.40
362.77	228.43
363.15	228.46
363.53	228.48
363.91	228.49
364.29	228.52
364.67	228.48
365.05	228.50
365.43	228.49
365.81	228.53
366.19	228.59
366.57	228.67
366.95	228.69
367.33	228.68
367.71	228.69
368.09	228.68
368.47	228.68
368.85	228.63
369.23	228.62
369.61	228.58
369.99	228.60
370.37	228.58
370.75	228.57
371.13	228.51
371.51	228.46
371.89	228.44
372.27	228.41
372.65	228.36
373.03	228.28
373.41	228.24
373.78	228.17
374.16	228.03
374.54	227.93
374.92	227.84
375.30	227.75
375.68	227.65
376.06	227.62
376.44	227.54
376.82	227.50
377.19	227.47
377.57	227.43
377.95	227.31
378.33	227.24
378.71	227.15
379.09	227.07
379.47	227.02
379.84	226.96
380.22	226.90
380.60	226.82
380.98	226.79
381.36	226.71
381.73	226.64
382.11	226.58
382.49	226.52
382.87	226.44
383.25	226.37
383.62	226.43
384.00	226.33
384.38	226.27
384.76	226.24
385.13	226.18
385.51	226.10
385.89	226.05
386.27	225.99
386.64	225.97
387.02	225.95
387.40	225.90
387.78	225.84
388.15	225.80
388.53	225.76
388.91	225.71
389.29	225.68
389.66	225.70
390.04	225.67
390.42	225.70
390.79	225.74
391.17	225.71
391.55	225.58
391.92	225.59
392.30	225.58
392.68	225.57
393.05	225.56
393.43	225.58
393.81	225.63
394.18	225.65
394.56	225.65
394.94	225.70
395.31	225.68
395.69	225.75
396.06	225.78
396.44	225.82
396.82	225.85
397.19	225.93
397.57	225.96
397.95	226.04
398.32	226.02
398.70	226.05
399.07	226.12
399.45	226.21
399.82	226.24
400.20	226.29
400.58	226.36
400.95	226.38
401.33	226.48
401.70	226.58
402.08	226.67
402.45	226.78
402.83	226.86
403.20	226.99
403.58	227.06
403.95	227.18
404.33	227.33
404.71	227.44
405.08	227.58
405.46	227.68
405.83	227.81
406.21	227.98
406.58	228.17
406.96	228.35
407.33	228.52
407.70	228.72
408.08	229.01
408.45	229.23
408.83	229.53
409.20	229.71
409.58	229.92
409.95	230.18
410.33	230.44
410.70	230.72
411.08	230.98
411.45	231.32
411.82	231.64
412.20	231.97
412.57	232.42
412.95	232.76
413.32	233.19
413.69	233.62
414.07	234.05
414.44	234.47
414.82	234.93
415.19	235.48
415.56	236.04
415.94	236.56
416.31	237.19
416.68	237.82
417.06	238.56
417.43	239.23
417.81	240.02
418.18	240.81
418.55	241.64
418.93	242.54
419.30	243.43
419.67	244.32
420.04	245.29
420.42	246.30
420.79	247.48
421.16	248.65
421.54	249.84
421.91	251.06
422.28	252.28
422.66	253.61
423.03	254.89
423.40	256.19
423.77	257.62
424.15	259.03
424.52	260.47
424.89	262.10
425.26	263.62
425.64	265.07
426.01	266.62
426.38	268.26
426.75	269.95
427.13	271.63
427.50	273.47
427.87	275.33
428.24	277.15
428.61	278.90
428.99	280.82
429.36	282.88
429.73	284.92
430.10	286.99
430.47	289.05
430.85	291.19
431.22	293.43
431.59	295.82
431.96	298.04
432.33	300.52
432.70	302.86
433.08	305.65
433.45	308.27
433.82	310.91
434.19	313.75
434.56	316.53
434.93	319.20
435.30	321.80
435.68	324.70
436.05	327.52
436.42	330.26
436.79	332.78
437.16	335.50
437.53	338.35
437.90	341.14
438.27	343.86
438.64	346.66
439.01	349.25
439.38	351.48
439.75	353.67
440.13	356.15
440.50	358.48
440.87	360.37
441.24	362.32
441.61	364.42
441.98	365.92
442.35	367.68
442.72	369.55
443.09	371.35
443.46	372.36
443.83	372.94
444.20	373.45
444.57	374.26
444.94	374.56
445.31	374.88
445.68	375.21
446.05	375.32
446.42	374.93
446.79	374.55
447.16	374.06
447.53	373.72
447.90	372.61
448.27	371.45
448.64	369.87
449.01	368.69
449.37	366.76
449.74	364.88
450.11	362.68
450.48	360.21
450.85	357.67
451.22	355.52
451.59	353.52
451.96	351.59
452.33	349.00
452.70	346.66
453.07	343.83
453.43	340.96
453.80	338.21
454.17	335.58
454.54	333.02
454.91	330.38
455.28	327.70
455.65	325.20
456.02	322.77
456.38	320.58
456.75	317.95
457.12	315.72
457.49	313.51
457.86	311.33
458.23	309.50
458.59	307.48
458.96	305.40
459.33	303.53
459.70	301.68
460.07	300.16
460.43	298.39
460.80	296.80
461.17	295.33
461.54	293.81
461.91	292.41
462.27	290.95
462.64	289.69
463.01	288.38
463.38	287.06
463.74	285.71
464.11	284.54
464.48	283.53
464.85	282.40
465.21	281.51
465.58	280.60
465.95	279.50
466.32	278.59
466.68	277.65
467.05	276.76
467.42	275.88
467.78	274.95
468.15	274.12
468.52	273.44
468.88	272.64
469.25	271.86
469.62	271.22
469.98	270.57
470.35	269.93
470.72	269.31
471.08	268.68
471.45	268.15
471.82	267.65
472.18	267.04
472.55	266.62
472.92	266.13
473.28	265.69
473.65	265.24
474.02	264.80
474.38	264.47
474.75	264.14
475.11	263.81
475.48	263.59
475.85	263.36
476.21	263.14
476.58	262.96
476.94	262.83
477.31	262.66
477.67	262.52
478.04	262.40
478.41	262.34
478.77	262.35
479.14	262.27
479.50	262.28
479.87	262.35
480.23	262.43
480.60	262.49
480.96	262.55
481.33	262.77
481.69	263.02
482.06	263.22
482.42	263.43
482.79	263.69
483.15	264.00
483.52	264.39
483.88	264.74
484.25	265.08
484.61	265.50
484.98	265.96
485.34	266.51
485.71	267.10
486.07	267.69
486.44	268.28
486.80	269.00
487.17	269.71
487.53	270.53
487.90	271.41
488.26	272.37
488.62	273.35
488.99	274.30
489.35	275.33
489.72	276.47
490.08	277.68
490.44	278.92
490.81	280.24
491.17	281.59
491.54	283.09
491.90	284.69
492.26	286.35
492.63	288.05
492.99	289.80
493.36	291.66
493.72	293.72
494.08	295.83
494.45	298.08
494.81	300.48
495.17	302.91
495.54	305.46
495.90	308.11
496.26	310.93
496.63	313.92
496.99	316.99
497.35	320.22
497.72	323.63
498.08	327.13
498.44	330.80
498.80	334.70
499.17	338.76
499.53	342.92
499.89	347.34
500.26	351.88
500.62	356.57
500.98	361.57
501.34	366.64
501.71	371.99
502.07	377.40
502.43	382.97
502.79	388.80
503.16	394.88
503.52	401.18
503.88	407.56
504.24	414.18
504.60	421.09
504.97	428.27
505.33	435.57
505.69	443.29
506.05	451.11
506.41	459.00
506.78	467.18
507.14	475.62
507.50	484.28
507.86	493.29
508.22	502.54
508.59	511.76
508.95	521.34
509.31	531.15
509.67	541.22
510.03	551.52
510.39	562.08
510.75	572.85
511.12	583.86
511.48	595.23
511.84	606.72
512.20	618.23
512.56	630.18
512.92	642.36
513.28	654.72
513.64	667.13
514.00	679.83
514.37	692.74
514.73	705.72
515.09	718.79
515.45	732.03
515.81	745.55
516.17	759.54
516.53	773.71
516.89	787.92
517.25	802.12
517.61	816.49
517.97	830.94
518.33	845.37
518.69	860.06
519.05	875.02
519.41	890.15
519.77	905.70
520.13	921.06
520.49	936.48
520.85	951.87
521.21	967.57
521.57	983.76
521.93	999.43
522.29	1015.82
522.65	1032.04
523.01	1048.27
523.37	1064.26
523.73	1080.39
524.09	1096.49
524.45	1112.74
524.81	1129.40
525.17	1146.26
525.53	1163.10
525.89	1179.96
526.25	1196.73
526.61	1212.97
526.97	1229.70
527.33	1246.07
527.68	1262.67
528.04	1279.04
528.40	1295.58
528.76	1312.61
529.12	1329.18
529.48	1346.11
529.84	1361.95
530.20	1378.47
530.56	1395.36
530.91	1412.74
531.27	1429.39
531.63	1445.67
531.99	1462.27
532.35	1478.15
532.71	1493.98
533.07	1510.13
533.42	1525.92
533.78	1541.82
534.14	1558.12
534.50	1573.35
534.86	1589.19
535.21	1604.32
535.57	1620.20
535.93	1635.51
536.29	1650.27
536.65	1665.26
537.00	1679.85
537.36	1695.21
537.72	1709.66
538.08	1724.08
538.44	1737.79
538.79	1751.69
539.15	1765.34
539.51	1778.88
539.87	1793.11
540.22	1806.70
540.58	1820.42
540.94	1833.65
541.29	1846.53
541.65	1859.11
542.01	1872.17
542.37	1884.38
542.72	1896.72
543.08	1908.39
543.44	1920.81
543.79	1931.98
544.15	1942.91
544.51	1954.50
544.87	1965.39
545.22	1976.24
545.58	1986.35
545.94	1996.04
546.29	2005.63
546.65	2015.47
547.01	2024.74
547.36	2033.43
547.72	2041.92
548.07	2049.88
548.43	2057.95
548.79	2065.96
549.14	2073.47
549.50	2080.78
549.86	2088.43
550.21	2095.65
550.57	2102.97
550.92	2109.51
551.28	2116.59
551.64	2123.70
551.99	2130.10
552.35	2136.24
552.70	2142.45
553.06	2148.43
553.41	2154.72
553.77	2160.84
554.13	2166.89
554.48	2173.00
554.84	2178.53
555.19	2183.64
555.55	2188.69
555.90	2193.31
556.26	2198.18
556.61	2202.97
556.97	2207.40
557.32	2211.50
557.68	2215.74
558.03	2219.90
558.39	2223.66
558.74	2228.16
559.10	2232.03
559.45	2235.69
559.81	2239.99
560.16	2243.67
560.52	2246.82
560.87	2250.22
561.23	2252.97
561.58	2255.84
561.94	2258.34
562.29	2260.70
562.64	2263.46
563.00	2266.04
563.35	2269.53
563.71	2272.64
564.06	2275.73
564.42	2278.62
564.77	2281.17
565.12	2283.46
565.48	2285.55
565.83	2287.23
566.19	2288.54
566.54	2289.27
566.89	2290.44
567.25	2291.04
567.60	2292.32
567.96	2294.17
568.31	2295.10
568.66	2296.33
569.02	2297.01
569.37	2297.26
569.72	2298.03
570.08	2298.31
570.43	2298.36
570.78	2297.79
571.14	2296.16
571.49	2294.93
571.84	2294.54
572.20	2293.50
572.55	2292.41
572.90	2290.68
573.26	2289.52
573.61	2287.86
573.96	2286.16
574.31	2283.16
574.67	2280.28
575.02	2276.71
575.37	2273.26
575.72	2269.54
576.08	2266.09
576.43	2262.80
576.78	2259.35
577.13	2256.14
577.49	2252.98
577.84	2249.54
578.19	2245.83
578.54	2242.32
578.90	2238.12
579.25	2232.54
579.60	2227.69
579.95	2222.62
580.30	2217.59
580.66	2212.33
581.01	2207.45
581.36	2202.79
581.71	2198.75
582.06	2194.33
582.42	2190.01
582.77	2185.00
583.12	2180.42
583.47	2175.74
583.82	2170.78
584.17	2165.49
584.53	2160.14
584.88	2154.59
585.23	2148.95
585.58	2143.63
585.93	2138.08
586.28	2133.32
586.63	2128.36
586.98	2123.26
587.34	2118.64
587.69	2113.84
588.04	2108.72
588.39	2103.16
588.74	2096.46
589.09	2090.40
589.44	2083.68
589.79	2077.76
590.14	2072.10
590.49	2065.62
590.84	2059.19
591.19	2053.15
591.54	2046.60
591.89	2039.24
592.25	2032.53
592.60	2025.30
592.95	2017.62
593.30	2010.51
593.65	2003.06
594.00	1995.97
594.35	1988.67
594.70	1980.77
595.05	1973.68
595.40	1966.49
595.75	1958.86
596.10	1952.81
596.45	1946.08
596.80	1939.97
597.15	1933.37
597.50	1926.39
597.85	1920.02
598.19	1913.46
598.54	1906.40
598.89	1899.88
599.24	1893.99
599.59	1887.31
599.94	1881.07
600.29	1874.82
600.64	1868.19
600.99	1860.68
601.34	1854.02
601.69	1847.14
602.04	1840.26
602.39	1832.91
602.74	1826.14
603.08	1819.51
603.43	1812.78
603.78	1805.56
604.13	1798.34
604.48	1791.00
604.83	1783.98
605.18	1776.97
605.53	1769.12
605.87	1761.06
606.22	1753.81
606.57	1745.92
606.92	1738.55
607.27	1731.53
607.62	1724.68
607.96	1717.50
608.31	1710.97
608.66	1703.44
609.01	1695.93
609.36	1688.39
609.70	1680.35
610.05	1672.24
610.40	1664.58
610.75	1656.26
611.10	1648.50
611.44	1640.05
611.79	1632.08
612.14	1623.43
612.49	1614.29
612.83	1605.84
613.18	1597.73
613.53	1589.65
613.88	1581.11
614.22	1572.92
614.57	1564.18
614.92	1556.04
615.27	1548.49
615.61	1540.05
615.96	1531.87
616.31	1524.19
616.65	1516.82
617.00	1509.24
617.35	1501.55
617.70	1493.30
618.04	1484.80
618.39	1476.54
618.74	1468.97
619.08	1460.67
619.43	1453.19
619.78	1446.26
620.12	1439.10
620.47	1431.59
620.82	1423.38
621.16	1415.89
621.51	1408.24
621.85	1400.65
622.20	1392.26
622.55	1383.86
622.89	1376.10
623.24	1368.53
623.59	1361.02
623.93	1353.46
624.28	1346.36
624.62	1338.87
624.97	1331.53
625.32	1324.80
625.66	1317.85
626.01	1310.67
626.35	1303.22
626.70	1295.36
627.04	1287.66
627.39	1279.80
627.73	1272.38
628.08	1265.54
628.43	1258.35
628.77	1250.96
629.12	1243.40
629.46	1236.22
629.81	1228.74
630.15	1221.48
630.50	1214.04
630.84	1205.91
631.19	1198.04
631.53	1190.37
631.88	1182.71
632.22	1175.15
632.57	1167.79
632.91	1160.21
633.26	1152.75
633.60	1145.27
633.95	1138.16
634.29	1131.09
634.64	1124.44
634.98	1117.09
635.32	1109.92
635.67	1103.26
636.01	1096.61
636.36	1089.79
636.70	1083.14
637.05	1076.68
637.39	1070.19
637.73	1063.64
638.08	1057.68
638.42	1051.61
638.77	1045.26
639.11	1038.70
639.45	1032.23
639.80	1025.61
640.14	1019.24
640.49	1012.65
640.83	1006.37
641.17	1000.14
641.52	993.73
641.86	987.25
642.20	981.40
642.55	975.17
642.89	968.65
643.23	962.08
643.58	956.36
643.92	950.15
644.26	944.07
644.61	938.09
644.95	932.07
645.29	925.58
645.64	918.94
645.98	912.62
646.32	906.77
646.66	900.78
647.01	894.94
647.35	889.15
647.69	883.31
648.04	877.78
648.38	871.97
648.72	866.04
649.06	860.04
649.41	854.14
649.75	848.10
650.09	842.22
650.43	836.49
650.78	830.27
651.12	824.28
651.46	818.46
651.80	812.68
652.14	807.33
652.49	801.95
652.83	796.68
653.17	790.88
653.51	785.18
653.85	779.77
654.20	774.16
654.54	768.21
654.88	762.55
655.22	756.66
655.56	751.06
655.90	745.60
656.25	740.34
656.59	735.02
656.93	729.97
657.27	724.77
657.61	719.28
657.95	714.25
658.29	709.29
658.64	704.08
658.98	698.76
659.32	693.25
659.66	687.97
660.00	682.70
660.34	677.78
660.68	672.84
661.02	667.83
661.36	663.15
661.70	658.65
662.05	654.24
662.39	649.90
662.73	645.34
663.07	640.94
663.41	636.51
663.75	632.01
664.09	627.41
664.43	623.02
664.77	619.01
665.11	614.68
665.45	610.53
665.79	606.44
666.13	602.23
666.47	598.15
666.81	594.04
667.15	589.84
667.49	586.00
667.83	582.16
668.17	578.26
668.51	574.17
668.85	570.10
669.19	566.29
669.53	562.41
669.87	558.60
670.21	554.91
670.55	551.21
670.89	547.74
671.23	544.30
671.57	540.78
671.91	537.18
672.25	533.69
672.58	530.11
672.92	526.70
673.26	523.62
673.60	520.45
673.94	517.39
674.28	514.54
674.62	511.56
674.96	508.43
675.30	505.52
675.64	502.58
675.97	499.80
676.31	496.94
676.65	494.00
676.99	491.29
677.33	488.46
677.67	485.63
678.01	482.62
678.34	479.64
678.68	476.77
679.02	473.92
679.36	471.16
679.70	468.48
680.04	465.76
680.37	462.84
680.71	460.05
681.05	457.40
681.39	454.67
681.73	451.98
682.06	449.53
682.40	446.91
682.74	444.37
683.08	441.81
683.42	439.18
683.75	436.71
684.09	434.11
684.43	431.59
684.77	429.16
685.10	426.80
685.44	424.51
685.78	422.20
686.12	419.95
686.45	417.60
686.79	415.30
687.13	413.07
687.46	410.96
687.80	408.80
688.14	406.59
688.48	404.52
688.81	402.32
689.15	400.16
689.49	398.05
689.82	396.02
690.16	394.01
690.50	392.06
690.83	390.15
691.17	388.17
691.51	386.31
691.84	384.47
692.18	382.52
692.52	380.53
692.85	378.61
693.19	376.70
693.52	374.88
693.86	373.06
694.20	371.23
694.53	369.38
694.87	367.56
695.21	365.78
695.54	363.95
695.88	362.23
696.21	360.50
696.55	358.83
696.88	357.11
697.22	355.39
697.56	353.76
697.89	352.08
698.23	350.44
698.56	348.81
698.90	347.22
699.23	345.62
699.57	344.06
699.90	342.57
700.24	341.06
700.58	339.57
700.91	338.05
701.25	336.66
701.58	335.29
701.92	333.90
702.25	332.55
702.59	331.17
702.92	329.84
703.26	328.53
703.59	327.25
703.93	326.06
704.26	324.85
704.60	323.56
704.93	322.30
705.26	321.12
705.60	319.90
705.93	318.74
706.27	317.71
706.60	316.66
706.94	315.57
707.27	314.47
707.61	313.40
707.94	312.42
708.27	311.29
708.61	310.22
708.94	309.21
709.28	308.23
709.61	307.28
709.94	306.30
710.28	305.24
710.61	304.23
710.95	303.16
711.28	302.24
711.61	301.28
711.95	300.38
712.28	299.43
712.61	298.48
712.95	297.55
713.28	296.65
713.61	295.75
713.95	294.88
714.28	294.02
714.61	293.14
714.95	292.24
715.28	291.38
715.61	290.50
715.95	289.66
716.28	288.78
716.61	287.94
716.95	287.11
717.28	286.38
717.61	285.61
717.94	284.86
718.28	284.06
718.61	283.34
718.94	282.67
719.27	281.98
719.61	281.35
719.94	280.71
720.27	279.97
720.60	279.28
720.94	278.63
721.27	278.00
721.60	277.45
721.93	276.87
722.27	276.35
722.60	275.79
722.93	275.22
723.26	274.64
723.59	274.08
723.93	273.53
724.26	272.98
724.59	272.44
724.92	271.91
725.25	271.41
725.59	270.90
725.92	270.33
726.25	269.84
726.58	269.33
726.91	268.80
727.24	268.33
727.57	267.86
727.91	267.35
728.24	266.91
728.57	266.39
728.90	265.94
729.23	265.43
729.56	265.02
729.89	264.56
730.22	264.06
730.55	263.60
730.89	263.20
731.22	262.76
731.55	262.37
731.88	261.95
732.21	261.49
732.54	261.05
732.87	260.63
733.20	260.23
733.53	259.84
733.86	259.45
734.19	259.04
734.52	258.64
734.85	258.34
735.18	257.95
735.51	257.62
735.84	257.25
736.17	256.95
736.50	256.55
736.83	256.35
737.16	256.07
737.49	255.77
737.82	255.41
738.15	255.09
738.48	254.72
738.81	254.38
739.14	254.08
739.47	253.75
739.80	253.44
740.13	253.13
740.46	252.80
740.79	252.50
741.12	252.20
741.45	251.93
741.78	251.59
742.11	251.30
742.44	250.97
742.77	250.68
743.10	250.35
743.43	250.03
743.75	249.64
744.08	249.48
744.41	249.18
744.74	248.91
745.07	248.65
745.40	248.42
745.73	248.21
746.06	247.96
746.39	247.70
746.71	247.45
747.04	247.21
747.37	246.95
747.70	246.68
748.03	246.46
748.36	246.23
748.68	245.97
749.01	245.73
749.34	245.48
749.67	245.24
750.00	245.01
750.33	244.84
750.65	244.57
750.98	244.24
751.31	244.01
751.64	243.80
751.97	243.62
752.29	243.40
752.62	243.16
752.95	242.96
753.28	242.76
753.60	242.56
753.93	242.38
754.26	242.19
754.59	241.97
754.91	241.76
755.24	241.56
755.57	241.38
755.90	241.19
756.22	240.99
756.55	240.82
756.88	240.65
757.20	240.45
757.53	240.30
757.86	240.15
758.19	239.99
758.51	239.83
758.84	239.63
759.17	239.45
759.49	239.26
759.82	239.17
760.15	239.06
760.47	238.90
760.80	238.73
761.13	238.58
761.45	238.43
761.78	238.33
762.11	238.20
762.43	238.03
762.76	237.89
763.08	237.77
763.41	237.64
763.74	237.47
764.06	237.32
764.39	237.17
764.71	237.00
765.04	236.86
765.37	236.72
765.69	236.55
766.02	236.39
766.34	236.26
766.67	236.08
767.00	235.93
767.32	235.86
767.65	235.81
767.97	235.69
768.30	235.57
768.62	235.43
768.95	235.31
769.27	235.22
769.60	235.10
769.92	235.00
770.25	234.89
770.57	234.83
770.90	234.73
771.22	234.62
771.55	234.49
771.87	234.39
772.20	234.27
772.52	234.29
772.85	234.33
773.17	234.24
773.50	234.14
773.82	234.05
774.15	233.91
774.47	233.73
774.80	233.64
775.12	233.59
775.45	233.51
775.77	233.42
776.09	233.33
776.42	233.25
776.74	233.15
777.07	233.04
777.39	232.94
777.72	232.87
778.04	232.82
778.36	232.78
778.69	232.71
779.01	232.66
779.33	232.48
779.66	232.28
779.98	232.20
780.31	232.11
780.63	232.04
780.95	232.01
781.28	231.94
781.60	231.84
781.92	231.76
782.25	231.72
782.57	231.64
782.89	231.62
783.22	231.55
783.54	231.50
783.86	231.48
784.19	231.42
784.51	231.38
784.83	231.30
785.16	231.24
785.48	231.17
785.80	231.14
786.12	231.12
786.45	231.12
786.77	231.10
787.09	231.07
787.42	231.01
787.74	230.94
788.06	230.90
788.38	230.87
788.71	230.80
789.03	230.73
789.35	230.70
789.67	230.62
789.99	230.56
790.32	230.52
790.64	230.50
790.96	230.53
791.28	230.49
791.61	230.46
791.93	230.42
792.25	230.40
792.57	230.41
792.89	230.35
793.21	230.30
793.54	230.22
793.86	230.16
794.18	230.14
794.50	230.09
794.82	230.08
795.14	230.10
795.47	230.07
795.79	230.04
796.11	230.00
796.43	229.98
796.75	229.92
797.07	229.90
797.39	229.84
797.71	229.73
798.04	229.67
798.36	229.64
798.68	229.59
799.00	229.56
799.32	229.50
799.64	229.50
799.96	229.48
800.28	229.47
800.60	229.44
800.92	229.37
801.24	229.36
801.56	229.30
801.89	229.22
802.21	229.22
802.53	229.19
802.85	229.20
803.17	229.23
803.49	229.21
803.81	229.18
804.13	229.13
804.45	229.13
804.77	229.11
805.09	229.12
805.41	229.07
805.73	229.04
806.05	228.97
806.37	228.92
806.69	228.88
807.01	228.87
807.33	228.85
807.65	228.80
807.97	228.79
808.28	228.75
808.60	228.73
808.92	228.67
809.24	228.69
809.56	228.63
809.88	228.56
810.20	228.57
810.52	228.56
810.84	228.55
811.16	228.50
811.48	228.43
811.80	228.44
812.12	228.45
812.43	228.42
812.75	228.39
813.07	228.37
813.39	228.36
813.71	228.32
814.03	228.27
814.35	228.29
814.67	228.26
814.98	228.25
815.30	228.24
815.62	228.20
815.94	228.14
816.26	228.15
816.58	228.10
816.89	228.07
817.21	228.00
817.53	227.98
817.85	227.96
818.17	228.00
818.48	227.89
818.80	227.86
819.12	227.85
819.44	227.80
819.76	227.78
820.07	227.74
820.39	227.73
820.71	227.73
821.03	227.69
821.34	227.66
821.66	227.65
821.98	227.66
822.30	227.64
822.61	227.66
822.93	227.59
823.25	227.58
823.57	227.58
823.88	227.60
824.20	227.59
824.52	227.59
824.83	227.54
825.15	227.53
825.47	227.50
825.79	227.46
826.10	227.45
826.42	227.43
826.74	227.41
827.05	227.37
827.37	227.35
827.69	227.33
828.00	227.31
828.32	227.28
828.64	227.23
828.95	227.25
829.27	227.21
829.58	227.21
829.90	227.21
830.22	227.17
830.53	227.12
830.85	227.10
831.17	227.06
831.48	227.06
831.80	227.04
832.11	227.02
832.43	227.02
832.75	227.00
833.06	227.04
833.38	226.99
833.69	226.98
834.01	226.99
834.32	227.00
834.64	226.99
834.96	226.95
835.27	226.93
835.59	226.90
835.90	226.89
836.22	226.85
836.53	226.81
836.85	226.78
837.16	226.87
837.48	226.86
837.79	226.89
838.11	226.90
838.42	226.91
838.74	226.94
839.05	226.89
839.37	226.89
839.68	226.83
840.00	226.85
840.31	226.89
840.63	226.87
840.94	226.83
841.26	226.81
841.57	226.84
841.88	226.88
842.20	226.88
842.51	226.85
842.83	226.87
843.14	226.94
843.46	227.00
843.77	226.93
844.08	226.94
844.40	226.93
844.71	226.92
845.03	226.88
845.34	226.92
845.65	226.95
845.97	226.96
846.28	226.96
846.60	226.94
846.91	226.93
847.22	226.92
847.54	226.97
847.85	227.00
848.16	226.98
848.48	226.93
848.79	226.96
849.10	226.99
849.42	226.99
849.73	226.92
850.04	226.92
850.36	226.90
850.67	226.89
850.98	226.87
851.30	226.86
851.61	226.87
851.92	226.85
852.23	226.85
852.55	226.86
852.86	226.88
853.17	226.88
853.49	226.90
853.80	226.92
854.11	226.93
854.42	226.90
854.74	226.92
855.05	226.95
855.36	226.90
855.67	226.90
855.99	226.92
856.30	227.02
856.61	226.99
856.92	227.01
857.23	227.02
857.55	227.00
857.86	226.99
858.17	227.03
858.48	226.99
858.79	227.00
859.11	226.97
859.42	226.98
859.73	226.98
860.04	226.93
860.35	226.88
860.66	226.83
860.98	226.84
861.29	226.85
861.60	226.80
861.91	226.82
862.22	226.78
862.53	226.78
862.84	226.64
863.16	226.67
863.47	226.64
863.78	226.63
864.09	226.62
864.40	226.62
864.71	226.61
865.02	226.56
865.33	226.53
865.64	226.52
865.95	226.47
866.27	226.51
866.58	226.50
866.89	226.53
867.20	226.55
867.51	226.50
867.82	226.46
868.13	226.50
868.44	226.46
868.75	226.46
869.06	226.43
869.37	226.46
869.68	226.44
869.99	226.43
870.30	226.41
870.61	226.43
870.92	226.42
871.23	226.39
871.54	226.46
871.85	226.47
872.16	226.47
872.47	226.46
872.78	226.41
873.09	226.45
873.40	226.42
873.71	226.43
874.02	226.44
874.33	226.43
874.64	226.41
874.95	226.42
875.26	226.42
875.56	226.42
875.87	226.41
876.18	226.37
876.49	226.48
876.80	226.48
877.11	226.48
877.42	226.48
877.73	226.50
878.04	226.50
878.35	226.50
878.66	226.52
878.96	226.52
879.27	226.51
879.58	226.50
879.89	226.47
880.20	226.46
880.51	226.46
880.82	226.47
881.12	226.48
881.43	226.47
881.74	226.44
882.05	226.43
882.36	226.44
882.67	226.44
882.97	226.34
883.28	226.35
883.59	226.32
883.90	226.34
884.21	226.36
884.51	226.34
884.82	226.34
885.13	226.34
885.44	226.35
885.74	226.34
886.05	226.33
886.36	226.34
886.67	226.36
886.98	226.43
887.28	226.42
887.59	226.41
887.90	226.41
888.20	226.41
888.51	226.45
888.82	226.43
889.13	226.45
889.43	226.55
889.74	226.53
890.05	226.54
890.35	226.52
890.66	226.47
890.97	226.44
891.28	226.42
891.58	226.41
891.89	226.41
892.20	226.41
892.50	226.40
892.81	226.38
893.12	226.34
893.42	226.29
893.73	226.29
894.04	226.28
894.34	226.27
894.65	226.29
894.95	226.24
895.26	226.23
895.57	226.28
895.87	226.18
896.18	226.21
896.48	226.23
896.79	226.18
897.10	226.20
897.40	226.20
897.71	226.22
898.01	226.24
898.32	226.27
898.63	226.29
898.93	226.29
899.24	226.31
899.54	226.28
899.85	226.24
900.15	226.27
900.46	226.27
900.76	226.28
901.07	226.26
901.38	226.27
901.68	226.30
901.99	226.25
902.29	226.24
902.60	226.18
902.90	226.13
903.21	226.18
903.51	226.15
903.82	226.18
904.12	226.15
904.43	226.13
904.73	226.10
905.03	226.08
905.34	226.15
905.64	226.16
905.95	226.20
906.25	226.21
906.56	226.18
906.86	226.19
907.17	226.20
907.47	226.22
907.77	226.20
908.08	226.17
908.38	226.18
908.69	226.21
908.99	226.28
909.30	226.32
909.60	226.32
909.90	226.36
910.21	226.36
910.51	226.34
910.81	226.32
911.12	226.34
911.42	226.38
911.73	226.30
912.03	226.29
912.33	226.34
912.64	226.34
912.94	226.37
913.24	226.37
913.55	226.37
913.85	226.36
914.15	226.38
914.46	226.42
914.76	226.41
915.06	226.41
915.37	226.38
915.67	226.37
915.97	226.39
916.27	226.37
916.58	226.33
916.88	226.35
917.18	226.38
917.49	226.46
917.79	226.44
918.09	226.48
918.39	226.55
918.70	226.50
919.00	226.52
919.30	226.53
919.60	226.52
919.91	226.51
920.21	226.52
920.51	226.54
920.81	226.54
921.12	226.58
921.42	226.57
921.72	226.60
922.02	226.62
922.32	226.63
922.63	226.63
922.93	226.69
923.23	226.71
923.53	226.69
923.83	226.64
924.13	226.67
924.44	226.66
924.74	226.66
925.04	226.68
925.34	226.69
925.64	226.65
925.94	226.65
926.24	226.70
926.55	226.67
926.85	226.70
927.15	226.65
927.45	226.63
927.75	226.62
928.05	226.58
928.35	226.56
928.65	226.57
928.95	226.56
929.26	226.55
929.56	226.57
929.86	226.59
930.16	226.56
930.46	226.54
930.76	226.55
931.06	226.49
931.36	226.46
931.66	226.48
931.96	226.51
932.26	226.51
932.56	226.45
932.86	226.44
933.16	226.41
933.46	226.40
933.76	226.34
934.06	226.34
934.36	226.39
934.66	226.38
934.96	226.33
935.26	226.36
935.56	226.35
935.86	226.33
936.16	226.33
936.46	226.30
936.76	226.26
937.06	226.20
937.36	226.19
937.66	226.18
937.96	226.13
938.26	226.05
938.56	226.01
938.86	226.03
939.16	226.06
939.46	226.03
939.76	226.06
940.06	226.09
940.35	226.10
940.65	226.02
940.95	225.99
941.25	225.97
941.55	225.95
941.85	225.95
942.15	225.93
942.45	225.91
942.75	225.89
943.04	225.93
943.34	225.96
943.64	225.94
943.94	225.96
944.24	225.96
944.54	226.00
944.84	226.05
945.13	226.04
945.43	226.01
945.73	226.01
946.03	226.00
946.33	226.00
946.62	225.95
946.92	225.97
947.22	225.97
947.52	226.00
947.82	226.00
948.11	225.96
948.41	225.95
948.71	225.95
949.01	225.97
949.31	225.97
949.60	225.97
949.90	226.00
950.20	225.99
950.50	226.03
950.79	226.02
951.09	226.03
951.39	226.03
951.69	226.08
951.98	226.10
952.28	226.12
952.58	226.11
952.87	226.14
953.17	226.21
953.47	226.24
953.76	226.22
954.06	226.24
954.36	226.24
954.66	226.23
954.95	226.25
955.25	226.28
955.55	226.27
955.84	226.26
956.14	226.28
956.44	226.31
956.73	226.29
957.03	226.30
957.32	226.32
957.62	226.34
957.92	226.35
958.21	226.35
958.51	226.46
958.81	226.48
959.10	226.51
959.40	226.49
959.69	226.52
959.99	226.55
960.29	226.55
960.58	226.58
960.88	226.65
961.17	226.66
961.47	226.65
961.76	226.65
962.06	226.70
962.36	226.68
962.65	226.64
962.95	226.65
963.24	226.67
963.54	226.65
963.83	226.63
964.13	226.61
964.42	226.61
964.72	226.52
965.01	226.51
965.31	226.46
965.60	226.45
965.90	226.48
966.19	226.46
966.49	226.47
966.78	226.42
967.08	226.40
967.37	226.38
967.67	226.37
967.96	226.36
968.26	226.32
968.55	226.31
968.85	226.35
969.14	226.35
969.43	226.32
969.73	226.30
970.02	226.32
970.32	226.31
970.61	226.29
970.91	226.27
971.20	226.27
971.49	226.26
971.79	226.25
972.08	226.17
972.38	226.19
972.67	226.17
972.96	226.21
973.26	226.18
973.55	226.24
973.85	226.24
974.14	226.23
974.43	226.24
974.73	226.22
975.02	226.17
975.31	226.16
975.61	226.15
975.90	226.14
976.19	226.11
976.49	226.13
976.78	226.10
977.07	226.09
977.37	226.08
977.66	226.09
977.95	226.08
978.24	226.09
978.54	226.08
978.83	226.11
979.12	226.06
979.42	226.03
979.71	226.02
980.00	226.04
980.29	226.06
980.59	226.05
980.88	226.07
981.17	226.07
981.46	226.03
981.76	226.03
982.05	226.09
982.34	226.09
982.63	226.07
982.93	226.09
983.22	226.09
983.51	226.10
983.80	226.13
984.09	226.14
984.39	226.15
984.68	226.16
984.97	226.13
985.26	226.15
985.55	226.19
985.85	226.15
986.14	226.14
986.43	226.15
986.72	226.14
987.01	226.14
987.30	226.15
987.59	226.21
987.89	226.23
988.18	226.19
988.47	226.19
988.76	226.21
989.05	226.22
989.34	226.21
989.63	226.25
989.92	226.22
990.22	226.21
990.51	226.19
990.80	226.16
991.09	226.20
991.38	226.23
991.67	226.17
991.96	226.18
992.25	226.20
992.54	226.17
992.83	226.20
993.12	226.19
993.41	226.18
993.70	226.20
993.99	226.21
994.28	226.22
994.58	226.25
994.87	226.24
995.16	226.26
995.45	226.27
995.74	226.24
996.03	226.28
996.32	226.29
996.61	226.33
996.90	226.35
997.19	226.30
997.48	226.28
997.77	226.33
998.06	226.30
998.34	226.28
998.63	226.28
998.92	226.25
999.21	226.27
999.50	226.28
999.79	226.28
1000.08	226.27
1000.37	226.28
1000.66	226.25
1000.95	226.26
1001.24	226.25
1001.53	226.29
1001.82	226.28
1002.11	226.23
1002.40	226.26
1002.68	226.25
1002.97	226.33
1003.26	226.33
1003.55	226.31
1003.84	226.32
1004.13	226.35
1004.42	226.39
1004.71	226.37
1004.99	226.38
1005.28	226.40
1005.57	226.39
1005.86	226.33
1006.15	226.32
1006.44	226.32
1006.72	226.34
1007.01	226.32
1007.30	226.31
1007.59	226.27
1007.88	226.29
1008.17	226.32
1008.45	226.29
1008.74	226.24
1009.03	226.16
1009.32	226.16
1009.60	226.15
1009.89	226.14
1010.18	226.10
1010.47	226.04
1010.76	226.05
1011.04	226.05
1011.33	226.02
1011.62	226.01
1011.91	226.01
1012.19	226.02
1012.48	225.99
1012.77	225.95
1013.05	225.97
1013.34	225.95
1013.63	225.94
1013.92	225.93
1014.20	225.90
1014.49	225.89
1014.78	225.92
1015.06	225.90
1015.35	225.89
1015.64	225.87
1015.92	225.89
1016.21	225.89
1016.50	225.90
1016.78	225.91
1017.07	225.89
1017.36	225.88
1017.64	225.88
1017.93	225.92
1018.22	225.87
1018.50	225.88
1018.79	225.87
1019.08	225.86
1019.36	225.89
1019.65	225.88
1019.93	225.90
1020.22	225.93
1020.51	225.99
1020.79	225.95
1021.08	225.21
1021.36	226.09
1021.65	225.64
1021.94	226.29
1022.22	226.48
1022.51	225.65
1022.79	226.63
1023.08	225.94
1023.36	227.27
1023.65	225.60
>>>>>End Processed Spectral Data<<<<<
