SpectraSuite Data File
++++++++++++++++++++++++++++++++++++
Date: Fri Feb 01 16:40:14 EST 2013
User: group
Dark Spectrum Present: No
Reference Spectrum Present: No
Number of Sampled Component Spectra: 1
Spectrometers: USB2E7196
Integration Time (usec): 35000 (USB2E7196)
Spectra Averaged: 100 (USB2E7196)
Boxcar Smoothing: 10 (USB2E7196)
Correct for Electrical Dark: No (USB2E7196)
Strobe/Lamp Enabled: No (USB2E7196)
Correct for Detector Non-linearity: No (USB2E7196)
Correct for Stray Light: No (USB2E7196)
Number of Pixels in Processed Spectrum: 2048
>>>>>Begin Processed Spectral Data<<<<<
339.09	0.00
339.48	213.87
339.86	215.47
340.24	216.96
340.63	217.59
341.01	220.54
341.39	220.75
341.78	221.99
342.16	223.06
342.54	223.74
342.93	212.21
343.31	222.91
343.69	223.42
344.07	223.89
344.46	224.31
344.84	224.70
345.22	224.96
345.60	225.20
345.99	225.39
346.37	225.52
346.75	225.62
347.13	225.67
347.52	225.73
347.90	225.80
348.28	225.82
348.66	225.80
349.05	225.78
349.43	225.82
349.81	225.84
350.19	225.91
350.57	225.97
350.96	226.04
351.34	226.15
351.72	226.25
352.10	226.30
352.48	226.34
352.87	226.37
353.25	226.41
353.63	226.47
354.01	226.54
354.39	226.62
354.77	226.67
355.15	226.74
355.54	226.81
355.92	226.83
356.30	226.93
356.68	227.04
357.06	227.11
357.44	227.17
357.82	227.21
358.20	227.26
358.58	227.31
358.97	227.40
359.35	227.45
359.73	227.53
360.11	227.62
360.49	227.69
360.87	227.73
361.25	227.78
361.63	227.82
362.01	227.87
362.39	227.91
362.77	227.94
363.15	228.00
363.53	227.99
363.91	228.03
364.29	228.02
364.67	227.97
365.05	228.00
365.43	228.01
365.81	228.07
366.19	228.10
366.57	228.16
366.95	228.12
367.33	228.08
367.71	228.07
368.09	228.09
368.47	228.09
368.85	228.11
369.23	228.12
369.61	228.10
369.99	228.08
370.37	228.08
370.75	228.10
371.13	228.02
371.51	228.00
371.89	227.94
372.27	227.91
372.65	227.86
373.03	227.81
373.41	227.78
373.78	227.72
374.16	227.63
374.54	227.55
374.92	227.48
375.30	227.46
375.68	227.40
376.06	227.33
376.44	227.28
376.82	227.20
377.19	227.11
377.57	227.04
377.95	226.95
378.33	226.86
378.71	226.75
379.09	226.71
379.47	226.67
379.84	226.64
380.22	226.57
380.60	226.50
380.98	226.41
381.36	226.35
381.73	226.26
382.11	226.21
382.49	226.15
382.87	226.11
383.25	226.03
383.62	226.12
384.00	226.04
384.38	225.96
384.76	225.97
385.13	225.98
385.51	225.94
385.89	225.91
386.27	225.88
386.64	225.84
387.02	225.78
387.40	225.74
387.78	225.73
388.15	225.68
388.53	225.69
388.91	225.65
389.29	225.61
389.66	225.63
390.04	225.60
390.42	225.60
390.79	225.60
391.17	225.60
391.55	225.44
391.92	225.42
392.30	225.44
392.68	225.41
393.05	225.41
393.43	225.43
393.81	225.45
394.18	225.43
394.56	225.47
394.94	225.50
395.31	225.48
395.69	225.51
396.06	225.55
396.44	225.56
396.82	225.59
397.19	225.70
397.57	225.71
397.95	225.78
398.32	225.78
398.70	225.81
399.07	225.85
399.45	225.90
399.82	225.93
400.20	225.97
400.58	226.01
400.95	226.04
401.33	226.12
401.70	226.25
402.08	226.34
402.45	226.41
402.83	226.56
403.20	226.66
403.58	226.74
403.95	226.91
404.33	227.02
404.71	227.13
405.08	227.26
405.46	227.40
405.83	227.52
406.21	227.67
406.58	227.83
406.96	227.99
407.33	228.18
407.70	228.40
408.08	228.67
408.45	228.89
408.83	229.13
409.20	229.34
409.58	229.53
409.95	229.79
410.33	230.04
410.70	230.26
411.08	230.58
411.45	230.85
411.82	231.12
412.20	231.49
412.57	231.93
412.95	232.26
413.32	232.64
413.69	233.05
414.07	233.48
414.44	233.93
414.82	234.40
415.19	234.94
415.56	235.46
415.94	235.98
416.31	236.63
416.68	237.24
417.06	237.93
417.43	238.58
417.81	239.34
418.18	240.09
418.55	240.92
418.93	241.75
419.30	242.67
419.67	243.58
420.04	244.51
420.42	245.49
420.79	246.62
421.16	247.77
421.54	248.95
421.91	250.16
422.28	251.44
422.66	252.81
423.03	254.09
423.40	255.42
423.77	256.83
424.15	258.23
424.52	259.69
424.89	261.26
425.26	262.78
425.64	264.23
426.01	265.84
426.38	267.52
426.75	269.20
427.13	270.90
427.50	272.75
427.87	274.58
428.24	276.41
428.61	278.15
428.99	280.09
429.36	282.18
429.73	284.26
430.10	286.22
430.47	288.22
430.85	290.32
431.22	292.54
431.59	294.88
431.96	297.10
432.33	299.56
432.70	301.98
433.08	304.80
433.45	307.39
433.82	309.95
434.19	312.76
434.56	315.54
434.93	318.15
435.30	320.71
435.68	323.63
436.05	326.40
436.42	329.23
436.79	331.72
437.16	334.38
437.53	337.14
437.90	339.94
438.27	342.63
438.64	345.42
439.01	347.98
439.38	350.14
439.75	352.31
440.13	354.73
440.50	357.00
440.87	358.81
441.24	360.77
441.61	362.91
441.98	364.45
442.35	366.24
442.72	368.08
443.09	369.89
443.46	370.85
443.83	371.43
444.20	371.87
444.57	372.67
444.94	372.93
445.31	373.27
445.68	373.64
446.05	373.75
446.42	373.42
446.79	373.04
447.16	372.65
447.53	372.35
447.90	371.26
448.27	370.13
448.64	368.61
449.01	367.44
449.37	365.49
449.74	363.60
450.11	361.35
450.48	358.90
450.85	356.37
451.22	354.26
451.59	352.31
451.96	350.37
452.33	347.82
452.70	345.51
453.07	342.64
453.43	339.77
453.80	337.03
454.17	334.34
454.54	331.79
454.91	329.09
455.28	326.41
455.65	323.93
456.02	321.53
456.38	319.36
456.75	316.72
457.12	314.50
457.49	312.29
457.86	310.18
458.23	308.36
458.59	306.33
458.96	304.26
459.33	302.43
459.70	300.58
460.07	299.06
460.43	297.35
460.80	295.83
461.17	294.43
461.54	292.95
461.91	291.56
462.27	290.16
462.64	288.89
463.01	287.56
463.38	286.26
463.74	284.89
464.11	283.72
464.48	282.71
464.85	281.60
465.21	280.71
465.58	279.80
465.95	278.71
466.32	277.84
466.68	276.94
467.05	276.05
467.42	275.18
467.78	274.30
468.15	273.46
468.52	272.82
468.88	271.94
469.25	271.21
469.62	270.57
469.98	269.89
470.35	269.32
470.72	268.75
471.08	268.13
471.45	267.63
471.82	267.13
472.18	266.57
472.55	266.15
472.92	265.65
473.28	265.22
473.65	264.78
474.02	264.36
474.38	264.02
474.75	263.69
475.11	263.37
475.48	263.12
475.85	262.91
476.21	262.70
476.58	262.55
476.94	262.40
477.31	262.26
477.67	262.14
478.04	262.02
478.41	261.98
478.77	262.00
479.14	261.93
479.50	261.93
479.87	262.01
480.23	262.10
480.60	262.18
480.96	262.23
481.33	262.44
481.69	262.62
482.06	262.78
482.42	262.95
482.79	263.21
483.15	263.51
483.52	263.86
483.88	264.18
484.25	264.54
484.61	264.95
484.98	265.37
485.34	265.92
485.71	266.46
486.07	267.01
486.44	267.60
486.80	268.27
487.17	269.02
487.53	269.83
487.90	270.66
488.26	271.61
488.62	272.60
488.99	273.58
489.35	274.64
489.72	275.81
490.08	277.03
490.44	278.29
490.81	279.63
491.17	281.01
491.54	282.52
491.90	284.06
492.26	285.75
492.63	287.50
492.99	289.26
493.36	291.18
493.72	293.27
494.08	295.40
494.45	297.68
494.81	300.04
495.17	302.49
495.54	305.11
495.90	307.78
496.26	310.63
496.63	313.57
496.99	316.70
497.35	319.99
497.72	323.45
498.08	326.94
498.44	330.59
498.80	334.52
499.17	338.56
499.53	342.80
499.89	347.14
500.26	351.68
500.62	356.37
500.98	361.37
501.34	366.45
501.71	371.81
502.07	377.29
502.43	382.93
502.79	388.73
503.16	394.79
503.52	401.08
503.88	407.46
504.24	414.15
504.60	421.04
504.97	428.15
505.33	435.39
505.69	443.10
506.05	450.87
506.41	458.74
506.78	466.92
507.14	475.26
507.50	483.99
507.86	492.95
508.22	502.15
508.59	511.41
508.95	520.96
509.31	530.68
509.67	540.73
510.03	551.01
510.39	561.56
510.75	572.32
511.12	583.24
511.48	594.53
511.84	605.93
512.20	617.44
512.56	629.35
512.92	641.60
513.28	653.89
513.64	666.31
514.00	679.01
514.37	691.88
514.73	704.91
515.09	717.88
515.45	731.14
515.81	744.75
516.17	758.63
516.53	772.73
516.89	786.91
517.25	800.92
517.61	815.29
517.97	829.69
518.33	844.01
518.69	858.70
519.05	873.57
519.41	888.64
519.77	904.09
520.13	919.44
520.49	934.71
520.85	949.97
521.21	965.66
521.57	981.78
521.93	997.35
522.29	1013.65
522.65	1029.83
523.01	1045.97
523.37	1061.87
523.73	1077.83
524.09	1093.76
524.45	1109.94
524.81	1126.49
525.17	1143.07
525.53	1159.77
525.89	1176.54
526.25	1193.18
526.61	1209.50
526.97	1226.09
527.33	1242.46
527.68	1258.88
528.04	1275.27
528.40	1291.80
528.76	1308.69
529.12	1325.17
529.48	1342.09
529.84	1357.99
530.20	1374.42
530.56	1391.30
530.91	1408.58
531.27	1425.26
531.63	1441.69
531.99	1458.14
532.35	1474.12
532.71	1490.01
533.07	1506.12
533.42	1521.90
533.78	1537.93
534.14	1554.02
534.50	1569.11
534.86	1584.82
535.21	1599.91
535.57	1615.59
535.93	1630.81
536.29	1645.46
536.65	1660.32
537.00	1674.79
537.36	1689.99
537.72	1704.45
538.08	1718.84
538.44	1732.41
538.79	1746.10
539.15	1759.34
539.51	1772.76
539.87	1786.79
540.22	1800.23
540.58	1813.75
540.94	1826.64
541.29	1839.17
541.65	1851.69
542.01	1864.82
542.37	1876.99
542.72	1889.23
543.08	1900.79
543.44	1913.06
543.79	1924.18
544.15	1934.97
544.51	1946.34
544.87	1957.08
545.22	1967.79
545.58	1977.80
545.94	1987.63
546.29	1997.37
546.65	2007.29
547.01	2016.56
547.36	2025.27
547.72	2033.82
548.07	2041.87
548.43	2050.19
548.79	2058.07
549.14	2065.60
549.50	2072.82
549.86	2080.37
550.21	2087.63
550.57	2094.95
550.92	2101.60
551.28	2108.71
551.64	2115.79
551.99	2122.44
552.35	2128.60
552.70	2134.63
553.06	2140.62
553.41	2146.69
553.77	2152.65
554.13	2158.71
554.48	2164.81
554.84	2170.39
555.19	2175.41
555.55	2180.47
555.90	2185.01
556.26	2190.07
556.61	2194.84
556.97	2199.34
557.32	2203.41
557.68	2207.64
558.03	2211.73
558.39	2215.25
558.74	2219.75
559.10	2223.55
559.45	2227.12
559.81	2231.31
560.16	2235.18
560.52	2238.33
560.87	2241.80
561.23	2244.57
561.58	2247.44
561.94	2249.90
562.29	2252.16
562.64	2255.09
563.00	2257.59
563.35	2260.99
563.71	2264.13
564.06	2267.18
564.42	2270.00
564.77	2272.69
565.12	2275.04
565.48	2277.21
565.83	2279.27
566.19	2280.63
566.54	2281.58
566.89	2282.94
567.25	2283.65
567.60	2284.97
567.96	2286.80
568.31	2287.58
568.66	2288.76
569.02	2289.49
569.37	2290.10
569.72	2290.97
570.08	2291.12
570.43	2291.20
570.78	2290.80
571.14	2289.34
571.49	2287.97
571.84	2287.61
572.20	2286.46
572.55	2285.40
572.90	2283.63
573.26	2282.41
573.61	2280.78
573.96	2279.23
574.31	2276.35
574.67	2273.43
575.02	2269.86
575.37	2266.32
575.72	2262.91
576.08	2259.50
576.43	2256.13
576.78	2252.51
577.13	2249.23
577.49	2246.15
577.84	2242.79
578.19	2238.89
578.54	2235.43
578.90	2231.51
579.25	2226.04
579.60	2221.25
579.95	2216.22
580.30	2211.31
580.66	2206.08
581.01	2201.02
581.36	2196.13
581.71	2191.89
582.06	2187.59
582.42	2183.36
582.77	2178.27
583.12	2173.61
583.47	2169.21
583.82	2164.38
584.17	2159.27
584.53	2153.89
584.88	2148.30
585.23	2142.68
585.58	2137.38
585.93	2131.95
586.28	2127.15
586.63	2122.37
586.98	2117.35
587.34	2112.77
587.69	2107.97
588.04	2102.93
588.39	2097.45
588.74	2090.98
589.09	2084.77
589.44	2078.11
589.79	2071.83
590.14	2066.24
590.49	2059.78
590.84	2053.25
591.19	2047.30
591.54	2040.86
591.89	2033.79
592.25	2027.16
592.60	2019.99
592.95	2012.63
593.30	2005.23
593.65	1997.60
594.00	1990.46
594.35	1983.23
594.70	1975.17
595.05	1968.15
595.40	1960.84
595.75	1953.50
596.10	1947.47
596.45	1941.02
596.80	1934.92
597.15	1928.50
597.50	1921.70
597.85	1915.22
598.19	1908.78
598.54	1902.04
598.89	1895.38
599.24	1889.53
599.59	1883.10
599.94	1876.86
600.29	1870.59
600.64	1864.10
600.99	1856.93
601.34	1850.14
601.69	1843.16
602.04	1836.52
602.39	1829.22
602.74	1822.50
603.08	1815.82
603.43	1809.07
603.78	1801.70
604.13	1794.46
604.48	1787.33
604.83	1780.43
605.18	1773.77
605.53	1765.85
605.87	1757.67
606.22	1750.41
606.57	1742.40
606.92	1734.77
607.27	1727.76
607.62	1720.93
607.96	1713.82
608.31	1707.29
608.66	1699.80
609.01	1692.36
609.36	1684.77
609.70	1676.74
610.05	1668.79
610.40	1661.25
610.75	1653.01
611.10	1645.53
611.44	1637.06
611.79	1629.03
612.14	1620.42
612.49	1611.13
612.83	1602.72
613.18	1594.61
613.53	1586.69
613.88	1578.11
614.22	1570.04
614.57	1561.50
614.92	1553.47
615.27	1545.98
615.61	1537.73
615.96	1529.78
616.31	1522.12
616.65	1514.80
617.00	1507.25
617.35	1499.52
617.70	1491.17
618.04	1482.69
618.39	1474.37
618.74	1466.96
619.08	1458.66
619.43	1451.07
619.78	1444.17
620.12	1437.04
620.47	1429.64
620.82	1421.22
621.16	1413.96
621.51	1406.30
621.85	1398.62
622.20	1390.13
622.55	1381.77
622.89	1373.90
623.24	1366.20
623.59	1358.80
623.93	1351.38
624.28	1344.21
624.62	1336.80
624.97	1329.59
625.32	1322.83
625.66	1315.87
626.01	1308.80
626.35	1301.54
626.70	1293.79
627.04	1286.10
627.39	1278.38
627.73	1270.93
628.08	1264.19
628.43	1256.94
628.77	1249.73
629.12	1242.28
629.46	1235.11
629.81	1227.54
630.15	1220.26
630.50	1212.85
630.84	1204.75
631.19	1196.73
631.53	1189.24
631.88	1181.57
632.22	1173.99
632.57	1166.61
632.91	1159.11
633.26	1151.56
633.60	1144.10
633.95	1136.93
634.29	1129.87
634.64	1123.14
634.98	1115.75
635.32	1108.61
635.67	1102.00
636.01	1095.31
636.36	1088.45
636.70	1081.96
637.05	1075.49
637.39	1069.13
637.73	1062.72
638.08	1056.91
638.42	1050.99
638.77	1044.54
639.11	1038.12
639.45	1031.75
639.80	1025.08
640.14	1018.73
640.49	1012.31
640.83	1006.10
641.17	999.97
641.52	993.74
641.86	987.22
642.20	981.38
642.55	975.01
642.89	968.61
643.23	962.08
643.58	956.35
643.92	950.16
644.26	944.17
644.61	938.03
644.95	931.97
645.29	925.36
645.64	918.56
645.98	912.23
646.32	906.28
646.66	900.25
647.01	894.53
647.35	888.76
647.69	882.85
648.04	877.20
648.38	871.41
648.72	865.39
649.06	859.39
649.41	853.53
649.75	847.66
650.09	841.65
650.43	835.77
650.78	829.60
651.12	823.62
651.46	817.80
651.80	812.10
652.14	806.70
652.49	801.38
652.83	796.23
653.17	790.68
653.51	785.03
653.85	779.57
654.20	773.97
654.54	767.95
654.88	762.20
655.22	756.35
655.56	750.59
655.90	745.00
656.25	739.73
656.59	734.28
656.93	729.20
657.27	724.14
657.61	718.69
657.95	713.59
658.29	708.50
658.64	703.30
658.98	697.98
659.32	692.54
659.66	687.37
660.00	682.12
660.34	677.10
660.68	672.10
661.02	667.08
661.36	662.37
661.70	657.90
662.05	653.60
662.39	649.27
662.73	644.83
663.07	640.54
663.41	636.18
663.75	631.79
664.09	627.22
664.43	622.77
664.77	618.77
665.11	614.60
665.45	610.52
665.79	606.50
666.13	602.36
666.47	598.23
666.81	593.98
667.15	589.87
667.49	585.91
667.83	582.07
668.17	578.19
668.51	574.15
668.85	570.07
669.19	566.12
669.53	562.33
669.87	558.50
670.21	554.78
670.55	551.09
670.89	547.60
671.23	544.16
671.57	540.67
671.91	537.13
672.25	533.52
672.58	529.99
672.92	526.52
673.26	523.30
673.60	520.13
673.94	517.07
674.28	514.08
674.62	511.16
674.96	508.10
675.30	505.21
675.64	502.28
675.97	499.47
676.31	496.62
676.65	493.58
676.99	490.83
677.33	488.00
677.67	485.16
678.01	482.14
678.34	479.18
678.68	476.20
679.02	473.38
679.36	470.59
679.70	467.80
680.04	465.04
680.37	462.26
680.71	459.49
681.05	456.80
681.39	454.04
681.73	451.37
682.06	448.87
682.40	446.26
682.74	443.70
683.08	441.14
683.42	438.56
683.75	436.12
684.09	433.55
684.43	431.05
684.77	428.60
685.10	426.24
685.44	423.91
685.78	421.65
686.12	419.30
686.45	417.02
686.79	414.77
687.13	412.56
687.46	410.36
687.80	408.18
688.14	405.99
688.48	403.99
688.81	401.78
689.15	399.56
689.49	397.43
689.82	395.33
690.16	393.27
690.50	391.28
690.83	389.38
691.17	387.37
691.51	385.53
691.84	383.65
692.18	381.75
692.52	379.82
692.85	377.93
693.19	376.13
693.52	374.30
693.86	372.46
694.20	370.68
694.53	368.92
694.87	367.06
695.21	365.32
695.54	363.48
695.88	361.76
696.21	360.06
696.55	358.41
696.88	356.73
697.22	355.02
697.56	353.40
697.89	351.71
698.23	350.18
698.56	348.54
698.90	347.03
699.23	345.41
699.57	343.88
699.90	342.31
700.24	340.73
700.58	339.23
700.91	337.76
701.25	336.34
701.58	334.93
701.92	333.62
702.25	332.22
702.59	330.85
702.92	329.49
703.26	328.19
703.59	326.88
703.93	325.70
704.26	324.52
704.60	323.24
704.93	321.99
705.26	320.76
705.60	319.58
705.93	318.39
706.27	317.35
706.60	316.23
706.94	315.13
707.27	313.99
707.61	312.92
707.94	311.91
708.27	310.80
708.61	309.74
708.94	308.70
709.28	307.74
709.61	306.80
709.94	305.86
710.28	304.87
710.61	303.89
710.95	302.78
711.28	301.89
711.61	300.94
711.95	300.03
712.28	299.05
712.61	298.10
712.95	297.16
713.28	296.24
713.61	295.36
713.95	294.54
714.28	293.74
714.61	292.85
714.95	291.94
715.28	291.10
715.61	290.21
715.95	289.35
716.28	288.48
716.61	287.65
716.95	286.76
717.28	285.99
717.61	285.20
717.94	284.50
718.28	283.66
718.61	282.91
718.94	282.20
719.27	281.54
719.61	280.87
719.94	280.19
720.27	279.46
720.60	278.78
720.94	278.10
721.27	277.47
721.60	276.91
721.93	276.36
722.27	275.78
722.60	275.22
722.93	274.64
723.26	274.11
723.59	273.54
723.93	273.06
724.26	272.48
724.59	271.93
724.92	271.38
725.25	270.88
725.59	270.36
725.92	269.83
726.25	269.32
726.58	268.84
726.91	268.36
727.24	267.91
727.57	267.40
727.91	266.91
728.24	266.45
728.57	265.95
728.90	265.49
729.23	265.02
729.56	264.63
729.89	264.15
730.22	263.63
730.55	263.17
730.89	262.72
731.22	262.30
731.55	261.88
731.88	261.46
732.21	261.05
732.54	260.63
732.87	260.21
733.20	259.78
733.53	259.36
733.86	258.98
734.19	258.55
734.52	258.19
734.85	257.88
735.18	257.48
735.51	257.12
735.84	256.76
736.17	256.40
736.50	256.00
736.83	255.80
737.16	255.51
737.49	255.17
737.82	254.86
738.15	254.48
738.48	254.16
738.81	253.87
739.14	253.52
739.47	253.24
739.80	252.95
740.13	252.68
740.46	252.38
740.79	252.06
741.12	251.76
741.45	251.47
741.78	251.12
742.11	250.83
742.44	250.51
742.77	250.21
743.10	249.91
743.43	249.60
743.75	249.23
744.08	249.10
744.41	248.84
744.74	248.55
745.07	248.33
745.40	248.06
745.73	247.84
746.06	247.59
746.39	247.29
746.71	247.01
747.04	246.72
747.37	246.46
747.70	246.20
748.03	246.00
748.36	245.80
748.68	245.56
749.01	245.31
749.34	245.08
749.67	244.84
750.00	244.63
750.33	244.47
750.65	244.22
750.98	243.84
751.31	243.61
751.64	243.41
751.97	243.21
752.29	243.00
752.62	242.69
752.95	242.48
753.28	242.28
753.60	242.06
753.93	241.88
754.26	241.70
754.59	241.52
754.91	241.29
755.24	241.04
755.57	240.87
755.90	240.68
756.22	240.48
756.55	240.28
756.88	240.08
757.20	239.85
757.53	239.64
757.86	239.44
758.19	239.29
758.51	239.11
758.84	238.93
759.17	238.75
759.49	238.62
759.82	238.49
760.15	238.37
760.47	238.23
760.80	238.04
761.13	237.89
761.45	237.71
761.78	237.53
762.11	237.39
762.43	237.20
762.76	237.09
763.08	236.96
763.41	236.84
763.74	236.68
764.06	236.50
764.39	236.40
764.71	236.27
765.04	236.10
765.37	235.99
765.69	235.83
766.02	235.68
766.34	235.52
766.67	235.37
767.00	235.25
767.32	235.18
767.65	235.13
767.97	235.01
768.30	234.89
768.62	234.80
768.95	234.66
769.27	234.59
769.60	234.46
769.92	234.36
770.25	234.23
770.57	234.12
770.90	234.07
771.22	233.96
771.55	233.88
771.87	233.81
772.20	233.71
772.52	233.71
772.85	233.79
773.17	233.72
773.50	233.63
773.82	233.53
774.15	233.41
774.47	233.28
774.80	233.17
775.12	233.11
775.45	233.04
775.77	233.00
776.09	232.96
776.42	232.90
776.74	232.83
777.07	232.78
777.39	232.72
777.72	232.62
778.04	232.58
778.36	232.50
778.69	232.41
779.01	232.33
779.33	232.19
779.66	232.00
779.98	231.95
780.31	231.87
780.63	231.82
780.95	231.78
781.28	231.72
781.60	231.70
781.92	231.63
782.25	231.57
782.57	231.50
782.89	231.41
783.22	231.32
783.54	231.25
783.86	231.20
784.19	231.16
784.51	231.14
784.83	231.05
785.16	230.98
785.48	230.94
785.80	230.90
786.12	230.84
786.45	230.72
786.77	230.67
787.09	230.66
787.42	230.56
787.74	230.51
788.06	230.44
788.38	230.39
788.71	230.31
789.03	230.27
789.35	230.20
789.67	230.15
789.99	230.10
790.32	230.07
790.64	230.01
790.96	230.03
791.28	229.91
791.61	229.86
791.93	229.85
792.25	229.81
792.57	229.84
792.89	229.77
793.21	229.78
793.54	229.72
793.86	229.61
794.18	229.58
794.50	229.50
794.82	229.47
795.14	229.45
795.47	229.43
795.79	229.38
796.11	229.33
796.43	229.31
796.75	229.28
797.07	229.23
797.39	229.20
797.71	229.09
798.04	229.09
798.36	229.08
798.68	229.02
799.00	229.00
799.32	228.90
799.64	228.90
799.96	228.87
800.28	228.86
800.60	228.88
800.92	228.85
801.24	228.85
801.56	228.81
801.89	228.74
802.21	228.70
802.53	228.65
802.85	228.63
803.17	228.64
803.49	228.63
803.81	228.60
804.13	228.54
804.45	228.48
804.77	228.47
805.09	228.40
805.41	228.38
805.73	228.32
806.05	228.28
806.37	228.24
806.69	228.19
807.01	228.17
807.33	228.13
807.65	228.09
807.97	228.06
808.28	228.02
808.60	228.01
808.92	228.01
809.24	228.06
809.56	228.05
809.88	227.95
810.20	227.92
810.52	227.93
810.84	227.90
811.16	227.89
811.48	227.88
811.80	227.89
812.12	227.87
812.43	227.85
812.75	227.84
813.07	227.84
813.39	227.84
813.71	227.79
814.03	227.77
814.35	227.78
814.67	227.75
814.98	227.73
815.30	227.71
815.62	227.68
815.94	227.60
816.26	227.60
816.58	227.61
816.89	227.62
817.21	227.56
817.53	227.55
817.85	227.57
818.17	227.54
818.48	227.48
818.80	227.47
819.12	227.46
819.44	227.40
819.76	227.34
820.07	227.33
820.39	227.31
820.71	227.31
821.03	227.28
821.34	227.25
821.66	227.24
821.98	227.23
822.30	227.20
822.61	227.24
822.93	227.21
823.25	227.21
823.57	227.17
823.88	227.20
824.20	227.19
824.52	227.17
824.83	227.15
825.15	227.15
825.47	227.13
825.79	227.12
826.10	227.13
826.42	227.13
826.74	227.12
827.05	227.11
827.37	227.10
827.69	227.05
828.00	227.06
828.32	227.06
828.64	227.02
828.95	227.07
829.27	227.04
829.58	226.99
829.90	226.99
830.22	226.99
830.53	226.95
830.85	226.91
831.17	226.88
831.48	226.88
831.80	226.85
832.11	226.85
832.43	226.84
832.75	226.81
833.06	226.85
833.38	226.82
833.69	226.81
834.01	226.78
834.32	226.82
834.64	226.82
834.96	226.82
835.27	226.84
835.59	226.80
835.90	226.76
836.22	226.77
836.53	226.72
836.85	226.71
837.16	226.79
837.48	226.81
837.79	226.84
838.11	226.84
838.42	226.86
838.74	226.83
839.05	226.81
839.37	226.83
839.68	226.74
840.00	226.75
840.31	226.78
840.63	226.77
840.94	226.71
841.26	226.67
841.57	226.68
841.88	226.69
842.20	226.69
842.51	226.67
842.83	226.67
843.14	226.76
843.46	226.75
843.77	226.67
844.08	226.68
844.40	226.61
844.71	226.61
845.03	226.57
845.34	226.58
845.65	226.56
845.97	226.57
846.28	226.63
846.60	226.60
846.91	226.60
847.22	226.60
847.54	226.62
847.85	226.63
848.16	226.61
848.48	226.56
848.79	226.55
849.10	226.58
849.42	226.55
849.73	226.42
850.04	226.38
850.36	226.36
850.67	226.33
850.98	226.35
851.30	226.35
851.61	226.35
851.92	226.34
852.23	226.38
852.55	226.36
852.86	226.33
853.17	226.33
853.49	226.32
853.80	226.34
854.11	226.36
854.42	226.37
854.74	226.35
855.05	226.36
855.36	226.32
855.67	226.32
855.99	226.34
856.30	226.47
856.61	226.49
856.92	226.48
857.23	226.48
857.55	226.45
857.86	226.41
858.17	226.43
858.48	226.41
858.79	226.39
859.11	226.39
859.42	226.38
859.73	226.37
860.04	226.36
860.35	226.32
860.66	226.28
860.98	226.27
861.29	226.29
861.60	226.26
861.91	226.29
862.22	226.28
862.53	226.26
862.84	226.13
863.16	226.15
863.47	226.14
863.78	226.13
864.09	226.15
864.40	226.17
864.71	226.20
865.02	226.20
865.33	226.19
865.64	226.16
865.95	226.16
866.27	226.22
866.58	226.19
866.89	226.21
867.20	226.20
867.51	226.20
867.82	226.18
868.13	226.24
868.44	226.19
868.75	226.19
869.06	226.20
869.37	226.24
869.68	226.20
869.99	226.20
870.30	226.21
870.61	226.21
870.92	226.19
871.23	226.16
871.54	226.17
871.85	226.20
872.16	226.20
872.47	226.20
872.78	226.11
873.09	226.12
873.40	226.10
873.71	226.13
874.02	226.11
874.33	226.10
874.64	226.06
874.95	226.12
875.26	226.11
875.56	226.11
875.87	226.08
876.18	226.08
876.49	226.19
876.80	226.18
877.11	226.16
877.42	226.18
877.73	226.17
878.04	226.14
878.35	226.14
878.66	226.14
878.96	226.11
879.27	226.10
879.58	226.11
879.89	226.10
880.20	226.10
880.51	226.10
880.82	226.07
881.12	226.04
881.43	226.02
881.74	226.00
882.05	225.99
882.36	225.99
882.67	225.98
882.97	225.87
883.28	225.89
883.59	225.87
883.90	225.88
884.21	225.88
884.51	225.89
884.82	225.86
885.13	225.88
885.44	225.90
885.74	225.93
886.05	225.93
886.36	225.91
886.67	225.88
886.98	225.91
887.28	225.95
887.59	225.93
887.90	225.93
888.20	225.94
888.51	225.95
888.82	225.94
889.13	225.95
889.43	226.04
889.74	226.01
890.05	226.03
890.35	226.01
890.66	226.02
890.97	226.02
891.28	226.06
891.58	226.05
891.89	226.07
892.20	226.09
892.50	226.05
892.81	226.08
893.12	226.05
893.42	226.02
893.73	226.02
894.04	226.08
894.34	226.05
894.65	226.03
894.95	226.02
895.26	226.03
895.57	226.11
895.87	226.01
896.18	226.00
896.48	225.98
896.79	225.99
897.10	226.01
897.40	225.99
897.71	225.98
898.01	225.97
898.32	225.96
898.63	225.95
898.93	226.00
899.24	226.00
899.54	226.07
899.85	226.05
900.15	226.07
900.46	226.04
900.76	226.08
901.07	226.07
901.38	226.07
901.68	226.09
901.99	226.01
902.29	226.00
902.60	226.02
902.90	226.01
903.21	225.99
903.51	225.96
903.82	225.97
904.12	225.96
904.43	225.94
904.73	225.92
905.03	225.94
905.34	225.98
905.64	225.98
905.95	225.93
906.25	225.95
906.56	225.89
906.86	225.89
907.17	225.85
907.47	225.86
907.77	225.86
908.08	225.82
908.38	225.81
908.69	225.84
908.99	225.87
909.30	225.87
909.60	225.88
909.90	225.89
910.21	225.89
910.51	225.83
910.81	225.84
911.12	225.82
911.42	225.80
911.73	225.67
912.03	225.67
912.33	225.71
912.64	225.71
912.94	225.73
913.24	225.74
913.55	225.75
913.85	225.74
914.15	225.78
914.46	225.80
914.76	225.79
915.06	225.79
915.37	225.77
915.67	225.80
915.97	225.78
916.27	225.77
916.58	225.74
916.88	225.77
917.18	225.75
917.49	225.82
917.79	225.83
918.09	225.86
918.39	225.88
918.70	225.90
919.00	225.92
919.30	225.96
919.60	225.92
919.91	225.93
920.21	225.91
920.51	225.86
920.81	225.88
921.12	225.89
921.42	225.90
921.72	225.91
922.02	225.90
922.32	225.95
922.63	225.94
922.93	225.99
923.23	225.97
923.53	226.02
923.83	225.98
924.13	226.00
924.44	226.03
924.74	226.00
925.04	225.99
925.34	225.97
925.64	225.92
925.94	225.90
926.24	225.96
926.55	225.97
926.85	226.00
927.15	225.97
927.45	226.00
927.75	225.95
928.05	225.92
928.35	225.91
928.65	225.91
928.95	225.93
929.26	225.87
929.56	225.93
929.86	225.90
930.16	225.88
930.46	225.87
930.76	225.86
931.06	225.86
931.36	225.83
931.66	225.84
931.96	225.85
932.26	225.87
932.56	225.84
932.86	225.81
933.16	225.78
933.46	225.78
933.76	225.75
934.06	225.82
934.36	225.86
934.66	225.86
934.96	225.82
935.26	225.79
935.56	225.84
935.86	225.77
936.16	225.76
936.46	225.76
936.76	225.73
937.06	225.71
937.36	225.69
937.66	225.71
937.96	225.68
938.26	225.68
938.56	225.65
938.86	225.64
939.16	225.69
939.46	225.68
939.76	225.68
940.06	225.67
940.35	225.60
940.65	225.56
940.95	225.55
941.25	225.53
941.55	225.52
941.85	225.49
942.15	225.54
942.45	225.56
942.75	225.56
943.04	225.57
943.34	225.61
943.64	225.61
943.94	225.58
944.24	225.59
944.54	225.59
944.84	225.61
945.13	225.58
945.43	225.57
945.73	225.60
946.03	225.56
946.33	225.55
946.62	225.52
946.92	225.54
947.22	225.55
947.52	225.57
947.82	225.54
948.11	225.54
948.41	225.50
948.71	225.50
949.01	225.49
949.31	225.47
949.60	225.43
949.90	225.46
950.20	225.41
950.50	225.42
950.79	225.40
951.09	225.41
951.39	225.41
951.69	225.41
951.98	225.42
952.28	225.47
952.58	225.48
952.87	225.53
953.17	225.53
953.47	225.51
953.76	225.53
954.06	225.54
954.36	225.52
954.66	225.57
954.95	225.58
955.25	225.58
955.55	225.61
955.84	225.60
956.14	225.64
956.44	225.68
956.73	225.68
957.03	225.71
957.32	225.76
957.62	225.73
957.92	225.77
958.21	225.77
958.51	225.85
958.81	225.86
959.10	225.88
959.40	225.91
959.69	225.92
959.99	225.92
960.29	225.94
960.58	225.96
960.88	225.98
961.17	225.97
961.47	225.99
961.76	226.01
962.06	226.03
962.36	225.97
962.65	225.98
962.95	225.95
963.24	225.95
963.54	225.93
963.83	225.97
964.13	225.94
964.42	225.92
964.72	225.84
965.01	225.84
965.31	225.83
965.60	225.83
965.90	225.88
966.19	225.85
966.49	225.85
966.78	225.80
967.08	225.81
967.37	225.81
967.67	225.81
967.96	225.80
968.26	225.82
968.55	225.86
968.85	225.85
969.14	225.85
969.43	225.84
969.73	225.81
970.02	225.80
970.32	225.81
970.61	225.78
970.91	225.75
971.20	225.76
971.49	225.75
971.79	225.76
972.08	225.71
972.38	225.70
972.67	225.67
972.96	225.73
973.26	225.69
973.55	225.70
973.85	225.68
974.14	225.63
974.43	225.60
974.73	225.57
975.02	225.58
975.31	225.57
975.61	225.58
975.90	225.55
976.19	225.54
976.49	225.50
976.78	225.51
977.07	225.51
977.37	225.49
977.66	225.50
977.95	225.44
978.24	225.43
978.54	225.46
978.83	225.44
979.12	225.41
979.42	225.42
979.71	225.40
980.00	225.42
980.29	225.43
980.59	225.44
980.88	225.46
981.17	225.43
981.46	225.43
981.76	225.43
982.05	225.49
982.34	225.51
982.63	225.52
982.93	225.53
983.22	225.55
983.51	225.55
983.80	225.54
984.09	225.58
984.39	225.57
984.68	225.56
984.97	225.57
985.26	225.60
985.55	225.59
985.85	225.58
986.14	225.56
986.43	225.57
986.72	225.57
987.01	225.55
987.30	225.53
987.59	225.53
987.89	225.51
988.18	225.49
988.47	225.45
988.76	225.46
989.05	225.47
989.34	225.47
989.63	225.50
989.92	225.45
990.22	225.45
990.51	225.46
990.80	225.49
991.09	225.53
991.38	225.53
991.67	225.51
991.96	225.48
992.25	225.48
992.54	225.47
992.83	225.44
993.12	225.45
993.41	225.51
993.70	225.58
993.99	225.61
994.28	225.62
994.58	225.67
994.87	225.64
995.16	225.62
995.45	225.63
995.74	225.60
996.03	225.64
996.32	225.65
996.61	225.65
996.90	225.62
997.19	225.61
997.48	225.60
997.77	225.62
998.06	225.65
998.34	225.66
998.63	225.68
998.92	225.73
999.21	225.75
999.50	225.71
999.79	225.64
1000.08	225.63
1000.37	225.62
1000.66	225.58
1000.95	225.60
1001.24	225.61
1001.53	225.64
1001.82	225.63
1002.11	225.59
1002.40	225.60
1002.68	225.65
1002.97	225.71
1003.26	225.67
1003.55	225.62
1003.84	225.64
1004.13	225.67
1004.42	225.67
1004.71	225.65
1004.99	225.62
1005.28	225.62
1005.57	225.63
1005.86	225.60
1006.15	225.63
1006.44	225.60
1006.72	225.62
1007.01	225.62
1007.30	225.63
1007.59	225.59
1007.88	225.55
1008.17	225.56
1008.45	225.57
1008.74	225.54
1009.03	225.49
1009.32	225.50
1009.60	225.53
1009.89	225.48
1010.18	225.45
1010.47	225.44
1010.76	225.44
1011.04	225.45
1011.33	225.45
1011.62	225.45
1011.91	225.47
1012.19	225.43
1012.48	225.42
1012.77	225.42
1013.05	225.44
1013.34	225.42
1013.63	225.42
1013.92	225.47
1014.20	225.46
1014.49	225.44
1014.78	225.42
1015.06	225.39
1015.35	225.38
1015.64	225.37
1015.92	225.39
1016.21	225.36
1016.50	225.36
1016.78	225.38
1017.07	225.36
1017.36	225.36
1017.64	225.35
1017.93	225.35
1018.22	225.35
1018.50	225.36
1018.79	225.35
1019.08	225.31
1019.36	225.28
1019.65	225.25
1019.93	225.29
1020.22	225.31
1020.51	225.35
1020.79	225.35
1021.08	225.05
1021.36	225.26
1021.65	225.28
1021.94	225.31
1022.22	224.64
1022.51	225.05
1022.79	226.11
1023.08	225.76
1023.36	226.52
1023.65	225.39
>>>>>End Processed Spectral Data<<<<<
