SpectraSuite Data File
++++++++++++++++++++++++++++++++++++
Date: Fri Feb 01 16:03:24 EST 2013
User: group
Dark Spectrum Present: No
Reference Spectrum Present: No
Number of Sampled Component Spectra: 1
Spectrometers: USB2E7196
Integration Time (usec): 35000 (USB2E7196)
Spectra Averaged: 100 (USB2E7196)
Boxcar Smoothing: 10 (USB2E7196)
Correct for Electrical Dark: No (USB2E7196)
Strobe/Lamp Enabled: No (USB2E7196)
Correct for Detector Non-linearity: No (USB2E7196)
Correct for Stray Light: No (USB2E7196)
Number of Pixels in Processed Spectrum: 2048
>>>>>Begin Processed Spectral Data<<<<<
339.09	0.00
339.48	214.70
339.86	216.14
340.24	218.03
340.63	219.19
341.01	222.05
341.39	221.74
341.78	223.55
342.16	224.64
342.54	225.12
342.93	213.36
343.31	224.13
343.69	224.67
344.07	225.14
344.46	225.53
344.84	225.91
345.22	226.14
345.60	226.41
345.99	226.58
346.37	226.70
346.75	226.78
347.13	226.83
347.52	226.87
347.90	226.94
348.28	226.96
348.66	226.98
349.05	227.01
349.43	227.02
349.81	227.03
350.19	227.06
350.57	227.14
350.96	227.22
351.34	227.29
351.72	227.37
352.10	227.45
352.48	227.53
352.87	227.58
353.25	227.65
353.63	227.71
354.01	227.77
354.39	227.85
354.77	227.93
355.15	228.07
355.54	228.11
355.92	228.15
356.30	228.19
356.68	228.33
357.06	228.38
357.44	228.42
357.82	228.49
358.20	228.60
358.58	228.62
358.97	228.69
359.35	228.78
359.73	228.86
360.11	228.93
360.49	229.01
360.87	229.05
361.25	229.09
361.63	229.14
362.01	229.20
362.39	229.22
362.77	229.26
363.15	229.26
363.53	229.29
363.91	229.30
364.29	229.35
364.67	229.26
365.05	229.30
365.43	229.34
365.81	229.35
366.19	229.38
366.57	229.43
366.95	229.40
367.33	229.37
367.71	229.36
368.09	229.37
368.47	229.31
368.85	229.27
369.23	229.27
369.61	229.24
369.99	229.19
370.37	229.16
370.75	229.17
371.13	229.09
371.51	229.02
371.89	228.97
372.27	228.91
372.65	228.88
373.03	228.81
373.41	228.71
373.78	228.63
374.16	228.53
374.54	228.47
374.92	228.41
375.30	228.33
375.68	228.25
376.06	228.16
376.44	228.11
376.82	228.02
377.19	227.94
377.57	227.85
377.95	227.77
378.33	227.73
378.71	227.60
379.09	227.55
379.47	227.52
379.84	227.43
380.22	227.37
380.60	227.26
380.98	227.21
381.36	227.17
381.73	227.08
382.11	227.03
382.49	226.94
382.87	226.89
383.25	226.85
383.62	226.91
384.00	226.88
384.38	226.84
384.76	226.83
385.13	226.83
385.51	226.76
385.89	226.72
386.27	226.65
386.64	226.60
387.02	226.57
387.40	226.50
387.78	226.48
388.15	226.45
388.53	226.46
388.91	226.40
389.29	226.37
389.66	226.37
390.04	226.33
390.42	226.35
390.79	226.30
391.17	226.28
391.55	226.15
391.92	226.11
392.30	226.13
392.68	226.09
393.05	226.08
393.43	226.09
393.81	226.10
394.18	226.11
394.56	226.10
394.94	226.16
395.31	226.20
395.69	226.24
396.06	226.29
396.44	226.31
396.82	226.36
397.19	226.42
397.57	226.46
397.95	226.54
398.32	226.55
398.70	226.64
399.07	226.73
399.45	226.79
399.82	226.87
400.20	226.90
400.58	226.99
400.95	227.01
401.33	227.11
401.70	227.25
402.08	227.33
402.45	227.48
402.83	227.60
403.20	227.71
403.58	227.81
403.95	227.93
404.33	228.06
404.71	228.19
405.08	228.39
405.46	228.51
405.83	228.64
406.21	228.77
406.58	228.92
406.96	229.09
407.33	229.25
407.70	229.43
408.08	229.71
408.45	229.93
408.83	230.17
409.20	230.40
409.58	230.56
409.95	230.84
410.33	231.08
410.70	231.32
411.08	231.60
411.45	231.90
411.82	232.21
412.20	232.54
412.57	232.95
412.95	233.23
413.32	233.65
413.69	234.05
414.07	234.50
414.44	234.96
414.82	235.42
415.19	235.99
415.56	236.56
415.94	237.10
416.31	237.73
416.68	238.36
417.06	239.06
417.43	239.76
417.81	240.51
418.18	241.27
418.55	242.10
418.93	242.95
419.30	243.85
419.67	244.81
420.04	245.78
420.42	246.76
420.79	247.91
421.16	249.09
421.54	250.31
421.91	251.53
422.28	252.78
422.66	254.11
423.03	255.39
423.40	256.67
423.77	258.09
424.15	259.52
424.52	261.03
424.89	262.63
425.26	264.19
425.64	265.61
426.01	267.22
426.38	268.89
426.75	270.58
427.13	272.32
427.50	274.09
427.87	275.98
428.24	277.80
428.61	279.57
428.99	281.51
429.36	283.57
429.73	285.63
430.10	287.62
430.47	289.69
430.85	291.81
431.22	294.08
431.59	296.39
431.96	298.61
432.33	301.10
432.70	303.50
433.08	306.31
433.45	308.99
433.82	311.59
434.19	314.48
434.56	317.28
434.93	319.94
435.30	322.55
435.68	325.42
436.05	328.28
436.42	331.11
436.79	333.62
437.16	336.33
437.53	339.12
437.90	341.94
438.27	344.68
438.64	347.53
439.01	350.12
439.38	352.39
439.75	354.55
440.13	357.01
440.50	359.36
440.87	361.17
441.24	363.06
441.61	365.21
441.98	366.67
442.35	368.47
442.72	370.31
443.09	372.14
443.46	373.13
443.83	373.67
444.20	374.13
444.57	374.95
444.94	375.24
445.31	375.60
445.68	375.95
446.05	376.01
446.42	375.64
446.79	375.22
447.16	374.79
447.53	374.44
447.90	373.28
448.27	372.04
448.64	370.44
449.01	369.28
449.37	367.36
449.74	365.49
450.11	363.24
450.48	360.73
450.85	358.17
451.22	356.04
451.59	354.04
451.96	352.12
452.33	349.55
452.70	347.17
453.07	344.37
453.43	341.45
453.80	338.64
454.17	335.95
454.54	333.39
454.91	330.68
455.28	328.08
455.65	325.59
456.02	323.20
456.38	321.12
456.75	318.52
457.12	316.28
457.49	314.02
457.86	311.88
458.23	310.06
458.59	308.05
458.96	305.99
459.33	304.13
459.70	302.27
460.07	300.74
460.43	299.04
460.80	297.41
461.17	296.05
461.54	294.57
461.91	293.13
462.27	291.68
462.64	290.43
463.01	289.07
463.38	287.77
463.74	286.39
464.11	285.21
464.48	284.17
464.85	282.99
465.21	282.12
465.58	281.22
465.95	280.13
466.32	279.22
466.68	278.32
467.05	277.44
467.42	276.56
467.78	275.61
468.15	274.78
468.52	274.16
468.88	273.25
469.25	272.52
469.62	271.90
469.98	271.22
470.35	270.57
470.72	269.99
471.08	269.35
471.45	268.84
471.82	268.30
472.18	267.69
472.55	267.29
472.92	266.82
473.28	266.30
473.65	265.84
474.02	265.42
474.38	265.04
474.75	264.75
475.11	264.40
475.48	264.13
475.85	263.89
476.21	263.62
476.58	263.46
476.94	263.31
477.31	263.14
477.67	263.00
478.04	262.92
478.41	262.85
478.77	262.89
479.14	262.82
479.50	262.84
479.87	262.91
480.23	262.99
480.60	263.06
480.96	263.20
481.33	263.40
481.69	263.58
482.06	263.76
482.42	263.93
482.79	264.18
483.15	264.51
483.52	264.85
483.88	265.22
484.25	265.66
484.61	266.10
484.98	266.56
485.34	267.11
485.71	267.72
486.07	268.29
486.44	268.85
486.80	269.56
487.17	270.27
487.53	271.09
487.90	271.92
488.26	272.89
488.62	273.88
488.99	274.85
489.35	275.87
489.72	277.04
490.08	278.23
490.44	279.51
490.81	280.84
491.17	282.20
491.54	283.69
491.90	285.19
492.26	286.83
492.63	288.55
492.99	290.34
493.36	292.16
493.72	294.22
494.08	296.36
494.45	298.59
494.81	301.00
495.17	303.42
495.54	305.99
495.90	308.66
496.26	311.45
496.63	314.41
496.99	317.53
497.35	320.84
497.72	324.24
498.08	327.74
498.44	331.45
498.80	335.40
499.17	339.43
499.53	343.65
499.89	348.05
500.26	352.58
500.62	357.32
500.98	362.33
501.34	367.46
501.71	372.82
502.07	378.27
502.43	383.86
502.79	389.65
503.16	395.72
503.52	401.95
503.88	408.37
504.24	415.07
504.60	421.99
504.97	429.04
505.33	436.38
505.69	444.13
506.05	451.90
506.41	459.79
506.78	467.97
507.14	476.36
507.50	485.06
507.86	494.15
508.22	503.32
508.59	512.58
508.95	522.23
509.31	532.02
509.67	542.11
510.03	552.44
510.39	563.09
510.75	574.01
511.12	585.05
511.48	596.37
511.84	607.84
512.20	619.32
512.56	631.32
512.92	643.53
513.28	655.89
513.64	668.37
514.00	681.08
514.37	694.00
514.73	707.11
515.09	720.10
515.45	733.30
515.81	746.89
516.17	760.89
516.53	774.95
516.89	789.15
517.25	803.35
517.61	817.75
517.97	832.13
518.33	846.54
518.69	861.22
519.05	876.24
519.41	891.38
519.77	906.92
520.13	922.26
520.49	937.62
520.85	952.97
521.21	968.68
521.57	984.94
521.93	1000.66
522.29	1016.96
522.65	1033.23
523.01	1049.49
523.37	1065.45
523.73	1081.48
524.09	1097.54
524.45	1113.85
524.81	1130.49
525.17	1147.29
525.53	1164.14
525.89	1181.00
526.25	1197.84
526.61	1214.23
526.97	1230.86
527.33	1247.29
527.68	1263.96
528.04	1280.32
528.40	1296.84
528.76	1313.81
529.12	1330.37
529.48	1347.23
529.84	1363.16
530.20	1379.76
530.56	1396.68
530.91	1414.03
531.27	1430.86
531.63	1447.16
531.99	1463.66
532.35	1479.52
532.71	1495.39
533.07	1511.70
533.42	1527.52
533.78	1543.57
534.14	1559.75
534.50	1575.11
534.86	1590.98
535.21	1606.08
535.57	1622.00
535.93	1637.43
536.29	1652.24
536.65	1667.16
537.00	1681.85
537.36	1697.24
537.72	1711.80
538.08	1726.18
538.44	1740.07
538.79	1753.90
539.15	1767.67
539.51	1781.25
539.87	1795.52
540.22	1809.07
540.58	1822.71
540.94	1836.00
541.29	1848.79
541.65	1861.29
542.01	1874.43
542.37	1886.66
542.72	1899.12
543.08	1910.96
543.44	1923.38
543.79	1934.63
544.15	1945.73
544.51	1957.38
544.87	1968.38
545.22	1979.09
545.58	1989.31
545.94	1998.92
546.29	2008.80
546.65	2018.60
547.01	2027.93
547.36	2036.65
547.72	2045.25
548.07	2053.15
548.43	2061.42
548.79	2069.55
549.14	2077.03
549.50	2084.26
549.86	2091.86
550.21	2099.15
550.57	2106.18
550.92	2112.60
551.28	2119.49
551.64	2126.48
551.99	2132.90
552.35	2138.98
552.70	2145.16
553.06	2151.18
553.41	2157.65
553.77	2163.54
554.13	2169.67
554.48	2175.80
554.84	2181.14
555.19	2186.36
555.55	2191.54
555.90	2195.97
556.26	2200.75
556.61	2205.66
556.97	2210.03
557.32	2214.33
557.68	2218.45
558.03	2222.64
558.39	2226.46
558.74	2231.07
559.10	2234.91
559.45	2238.57
559.81	2242.77
560.16	2246.50
560.52	2249.73
560.87	2253.00
561.23	2255.77
561.58	2258.69
561.94	2261.29
562.29	2263.74
562.64	2266.34
563.00	2268.87
563.35	2272.24
563.71	2275.30
564.06	2278.56
564.42	2281.54
564.77	2283.97
565.12	2286.15
565.48	2288.29
565.83	2290.26
566.19	2291.66
566.54	2292.57
566.89	2293.78
567.25	2294.41
567.60	2295.79
567.96	2297.50
568.31	2298.53
568.66	2299.74
569.02	2300.21
569.37	2300.43
569.72	2301.39
570.08	2301.65
570.43	2301.71
570.78	2301.20
571.14	2299.71
571.49	2298.38
571.84	2298.07
572.20	2297.02
572.55	2296.13
572.90	2294.56
573.26	2293.14
573.61	2291.42
573.96	2289.71
574.31	2286.76
574.67	2283.79
575.02	2280.25
575.37	2276.79
575.72	2272.95
576.08	2269.55
576.43	2266.38
576.78	2262.89
577.13	2259.89
577.49	2256.84
577.84	2253.41
578.19	2249.76
578.54	2246.18
578.90	2241.84
579.25	2236.26
579.60	2231.30
579.95	2226.26
580.30	2221.23
580.66	2216.06
581.01	2211.22
581.36	2206.27
581.71	2202.04
582.06	2197.65
582.42	2193.16
582.77	2188.00
583.12	2183.46
583.47	2178.64
583.82	2173.50
584.17	2168.21
584.53	2162.52
584.88	2156.89
585.23	2151.10
585.58	2145.59
585.93	2140.10
586.28	2135.42
586.63	2130.33
586.98	2125.35
587.34	2120.76
587.69	2115.99
588.04	2110.67
588.39	2105.07
588.74	2098.71
589.09	2092.54
589.44	2085.79
589.79	2079.84
590.14	2074.32
590.49	2067.75
590.84	2061.51
591.19	2055.62
591.54	2049.20
591.89	2041.89
592.25	2035.24
592.60	2028.06
592.95	2020.46
593.30	2013.23
593.65	2005.67
594.00	1998.65
594.35	1991.20
594.70	1983.15
595.05	1975.70
595.40	1968.46
595.75	1960.91
596.10	1954.65
596.45	1947.97
596.80	1941.87
597.15	1935.21
597.50	1928.04
597.85	1921.55
598.19	1914.82
598.54	1907.81
598.89	1901.11
599.24	1895.19
599.59	1888.31
599.94	1882.20
600.29	1875.92
600.64	1869.27
600.99	1861.74
601.34	1854.88
601.69	1848.12
602.04	1841.18
602.39	1833.91
602.74	1827.15
603.08	1820.32
603.43	1813.52
603.78	1806.16
604.13	1798.79
604.48	1791.39
604.83	1784.55
605.18	1777.59
605.53	1769.54
605.87	1761.33
606.22	1754.09
606.57	1746.14
606.92	1738.83
607.27	1731.57
607.62	1724.58
607.96	1717.27
608.31	1710.68
608.66	1703.13
609.01	1695.41
609.36	1687.84
609.70	1679.89
610.05	1671.87
610.40	1664.18
610.75	1655.96
611.10	1648.41
611.44	1640.04
611.79	1632.03
612.14	1623.33
612.49	1614.21
612.83	1605.98
613.18	1597.99
613.53	1589.90
613.88	1581.38
614.22	1573.15
614.57	1564.58
614.92	1556.62
615.27	1549.08
615.61	1540.84
615.96	1532.82
616.31	1525.33
616.65	1517.85
617.00	1510.28
617.35	1502.58
617.70	1494.25
618.04	1485.83
618.39	1477.52
618.74	1469.92
619.08	1461.62
619.43	1454.01
619.78	1447.04
620.12	1439.79
620.47	1432.20
620.82	1424.02
621.16	1416.68
621.51	1409.01
621.85	1401.25
622.20	1392.70
622.55	1384.33
622.89	1376.51
623.24	1368.97
623.59	1361.50
623.93	1354.01
624.28	1346.75
624.62	1339.20
624.97	1332.07
625.32	1325.21
625.66	1318.18
626.01	1311.00
626.35	1303.63
626.70	1296.00
627.04	1288.27
627.39	1280.54
627.73	1273.16
628.08	1266.26
628.43	1258.85
628.77	1251.51
629.12	1243.99
629.46	1236.80
629.81	1229.43
630.15	1222.04
630.50	1214.50
630.84	1206.28
631.19	1198.37
631.53	1190.91
631.88	1183.36
632.22	1175.72
632.57	1168.39
632.91	1160.88
633.26	1153.47
633.60	1146.10
633.95	1138.91
634.29	1131.92
634.64	1125.26
634.98	1117.86
635.32	1110.64
635.67	1104.12
636.01	1097.50
636.36	1090.68
636.70	1084.20
637.05	1077.55
637.39	1071.11
637.73	1064.53
638.08	1058.64
638.42	1052.72
638.77	1046.24
639.11	1039.56
639.45	1033.24
639.80	1026.50
640.14	1020.05
640.49	1013.44
640.83	1007.10
641.17	1000.82
641.52	994.32
641.86	987.77
642.20	981.90
642.55	975.68
642.89	969.08
643.23	962.56
643.58	956.83
643.92	950.55
644.26	944.44
644.61	938.39
644.95	932.47
645.29	925.90
645.64	919.16
645.98	912.86
646.32	907.04
646.66	901.08
647.01	895.38
647.35	889.64
647.69	883.84
648.04	878.31
648.38	872.51
648.72	866.60
649.06	860.49
649.41	854.65
649.75	848.65
650.09	842.72
650.43	836.91
650.78	830.74
651.12	824.82
651.46	819.13
651.80	813.39
652.14	807.93
652.49	802.62
652.83	797.43
653.17	791.68
653.51	786.03
653.85	780.53
654.20	774.84
654.54	768.86
654.88	763.13
655.22	757.27
655.56	751.61
655.90	746.15
656.25	740.93
656.59	735.59
656.93	730.45
657.27	725.36
657.61	719.91
657.95	714.79
658.29	709.65
658.64	704.38
658.98	699.15
659.32	693.69
659.66	688.50
660.00	683.15
660.34	678.19
660.68	673.24
661.02	668.20
661.36	663.50
661.70	659.04
662.05	654.74
662.39	650.42
662.73	645.96
663.07	641.60
663.41	637.14
663.75	632.59
664.09	628.11
664.43	623.71
664.77	619.60
665.11	615.29
665.45	611.24
665.79	607.20
666.13	602.98
666.47	598.93
666.81	594.78
667.15	590.68
667.49	586.85
667.83	582.99
668.17	578.99
668.51	574.90
668.85	570.84
669.19	567.01
669.53	563.13
669.87	559.18
670.21	555.48
670.55	551.81
670.89	548.44
671.23	544.97
671.57	541.41
671.91	537.86
672.25	534.39
672.58	530.82
672.92	527.43
673.26	524.29
673.60	521.07
673.94	517.87
674.28	514.96
674.62	512.05
674.96	508.96
675.30	506.11
675.64	503.17
675.97	500.40
676.31	497.44
676.65	494.50
676.99	491.82
677.33	488.89
677.67	486.08
678.01	482.98
678.34	479.99
678.68	477.13
679.02	474.29
679.36	471.58
679.70	468.92
680.04	466.18
680.37	463.31
680.71	460.50
681.05	457.83
681.39	455.11
681.73	452.40
682.06	449.90
682.40	447.31
682.74	444.84
683.08	442.30
683.42	439.74
683.75	437.26
684.09	434.76
684.43	432.33
684.77	429.92
685.10	427.58
685.44	425.30
685.78	423.04
686.12	420.83
686.45	418.49
686.79	416.18
687.13	413.94
687.46	411.77
687.80	409.68
688.14	407.51
688.48	405.45
688.81	403.19
689.15	401.05
689.49	398.96
689.82	396.88
690.16	394.81
690.50	392.85
690.83	390.95
691.17	388.99
691.51	387.11
691.84	385.28
692.18	383.35
692.52	381.36
692.85	379.39
693.19	377.47
693.52	375.66
693.86	373.81
694.20	372.03
694.53	370.26
694.87	368.41
695.21	366.62
695.54	364.77
695.88	363.04
696.21	361.29
696.55	359.57
696.88	357.83
697.22	356.19
697.56	354.53
697.89	352.87
698.23	351.24
698.56	349.59
698.90	347.98
699.23	346.31
699.57	344.76
699.90	343.24
700.24	341.67
700.58	340.10
700.91	338.61
701.25	337.18
701.58	335.78
701.92	334.41
702.25	333.05
702.59	331.69
702.92	330.39
703.26	329.08
703.59	327.84
703.93	326.68
704.26	325.40
704.60	324.09
704.93	322.79
705.26	321.51
705.60	320.35
705.93	319.20
706.27	318.18
706.60	317.11
706.94	316.00
707.27	314.89
707.61	313.84
707.94	312.82
708.27	311.70
708.61	310.62
708.94	309.61
709.28	308.63
709.61	307.66
709.94	306.68
710.28	305.65
710.61	304.60
710.95	303.53
711.28	302.61
711.61	301.70
711.95	300.76
712.28	299.83
712.61	298.81
712.95	297.85
713.28	296.96
713.61	296.05
713.95	295.17
714.28	294.35
714.61	293.50
714.95	292.66
715.28	291.83
715.61	290.94
715.95	290.10
716.28	289.24
716.61	288.41
716.95	287.58
717.28	286.87
717.61	286.11
717.94	285.35
718.28	284.55
718.61	283.82
718.94	283.14
719.27	282.47
719.61	281.84
719.94	281.21
720.27	280.48
720.60	279.82
720.94	279.18
721.27	278.59
721.60	278.03
721.93	277.42
722.27	276.90
722.60	276.36
722.93	275.79
723.26	275.26
723.59	274.72
723.93	274.18
724.26	273.63
724.59	273.09
724.92	272.58
725.25	272.10
725.59	271.57
725.92	271.06
726.25	270.57
726.58	270.09
726.91	269.62
727.24	269.17
727.57	268.71
727.91	268.20
728.24	267.69
728.57	267.19
728.90	266.75
729.23	266.24
729.56	265.82
729.89	265.32
730.22	264.83
730.55	264.34
730.89	263.92
731.22	263.48
731.55	263.02
731.88	262.59
732.21	262.14
732.54	261.72
732.87	261.30
733.20	260.90
733.53	260.52
733.86	260.10
734.19	259.71
734.52	259.37
734.85	259.07
735.18	258.69
735.51	258.36
735.84	257.94
736.17	257.61
736.50	257.20
736.83	256.98
737.16	256.63
737.49	256.31
737.82	255.97
738.15	255.61
738.48	255.26
738.81	254.94
739.14	254.61
739.47	254.31
739.80	254.04
740.13	253.71
740.46	253.37
740.79	253.07
741.12	252.74
741.45	252.44
741.78	252.10
742.11	251.82
742.44	251.47
742.77	251.18
743.10	250.84
743.43	250.58
743.75	250.19
744.08	250.07
744.41	249.78
744.74	249.50
745.07	249.21
745.40	249.03
745.73	248.81
746.06	248.52
746.39	248.21
746.71	247.92
747.04	247.68
747.37	247.39
747.70	247.14
748.03	246.90
748.36	246.64
748.68	246.38
749.01	246.11
749.34	245.89
749.67	245.67
750.00	245.46
750.33	245.31
750.65	245.10
750.98	244.75
751.31	244.56
751.64	244.37
751.97	244.20
752.29	243.93
752.62	243.71
752.95	243.47
753.28	243.27
753.60	243.05
753.93	242.85
754.26	242.67
754.59	242.45
754.91	242.22
755.24	242.02
755.57	241.83
755.90	241.65
756.22	241.45
756.55	241.31
756.88	241.11
757.20	240.87
757.53	240.67
757.86	240.50
758.19	240.33
758.51	240.14
758.84	239.97
759.17	239.81
759.49	239.63
759.82	239.54
760.15	239.41
760.47	239.24
760.80	239.05
761.13	238.90
761.45	238.74
761.78	238.60
762.11	238.45
762.43	238.30
762.76	238.16
763.08	238.03
763.41	237.85
763.74	237.72
764.06	237.54
764.39	237.40
764.71	237.29
765.04	237.12
765.37	236.96
765.69	236.83
766.02	236.70
766.34	236.53
766.67	236.38
767.00	236.25
767.32	236.19
767.65	236.13
767.97	236.03
768.30	235.93
768.62	235.79
768.95	235.68
769.27	235.56
769.60	235.45
769.92	235.34
770.25	235.23
770.57	235.09
770.90	235.03
771.22	234.91
771.55	234.77
771.87	234.68
772.20	234.60
772.52	234.58
772.85	234.59
773.17	234.51
773.50	234.39
773.82	234.33
774.15	234.19
774.47	234.05
774.80	233.95
775.12	233.87
775.45	233.81
775.77	233.70
776.09	233.63
776.42	233.58
776.74	233.53
777.07	233.45
777.39	233.40
777.72	233.30
778.04	233.25
778.36	233.19
778.69	233.13
779.01	233.07
779.33	232.91
779.66	232.73
779.98	232.66
780.31	232.63
780.63	232.60
780.95	232.54
781.28	232.47
781.60	232.40
781.92	232.33
782.25	232.26
782.57	232.23
782.89	232.17
783.22	232.09
783.54	232.04
783.86	231.97
784.19	231.96
784.51	231.95
784.83	231.88
785.16	231.82
785.48	231.77
785.80	231.72
786.12	231.70
786.45	231.67
786.77	231.62
787.09	231.57
787.42	231.48
787.74	231.44
788.06	231.43
788.38	231.42
788.71	231.40
789.03	231.36
789.35	231.32
789.67	231.29
789.99	231.23
790.32	231.20
790.64	231.16
790.96	231.15
791.28	231.07
791.61	231.08
791.93	231.05
792.25	231.01
792.57	231.04
792.89	230.97
793.21	230.93
793.54	230.87
793.86	230.85
794.18	230.82
794.50	230.77
794.82	230.72
795.14	230.66
795.47	230.62
795.79	230.60
796.11	230.58
796.43	230.48
796.75	230.46
797.07	230.39
797.39	230.37
797.71	230.31
798.04	230.30
798.36	230.21
798.68	230.19
799.00	230.17
799.32	230.11
799.64	230.09
799.96	230.07
800.28	230.07
800.60	229.99
800.92	229.95
801.24	229.90
801.56	229.86
801.89	229.82
802.21	229.81
802.53	229.75
802.85	229.74
803.17	229.84
803.49	229.82
803.81	229.80
804.13	229.77
804.45	229.69
804.77	229.64
805.09	229.62
805.41	229.55
805.73	229.50
806.05	229.44
806.37	229.36
806.69	229.33
807.01	229.31
807.33	229.32
807.65	229.26
807.97	229.28
808.28	229.24
808.60	229.22
808.92	229.14
809.24	229.17
809.56	229.10
809.88	229.00
810.20	228.91
810.52	228.90
810.84	228.83
811.16	228.82
811.48	228.81
811.80	228.82
812.12	228.80
812.43	228.83
812.75	228.80
813.07	228.79
813.39	228.78
813.71	228.75
814.03	228.70
814.35	228.68
814.67	228.61
814.98	228.61
815.30	228.62
815.62	228.60
815.94	228.54
816.26	228.57
816.58	228.55
816.89	228.61
817.21	228.55
817.53	228.57
817.85	228.57
818.17	228.53
818.48	228.50
818.80	228.51
819.12	228.44
819.44	228.39
819.76	228.43
820.07	228.41
820.39	228.36
820.71	228.36
821.03	228.38
821.34	228.40
821.66	228.39
821.98	228.36
822.30	228.38
822.61	228.44
822.93	228.39
823.25	228.38
823.57	228.36
823.88	228.39
824.20	228.37
824.52	228.35
824.83	228.34
825.15	228.29
825.47	228.29
825.79	228.30
826.10	228.30
826.42	228.25
826.74	228.23
827.05	228.23
827.37	228.26
827.69	228.25
828.00	228.22
828.32	228.20
828.64	228.18
828.95	228.23
829.27	228.19
829.58	228.18
829.90	228.16
830.22	228.17
830.53	228.12
830.85	228.12
831.17	228.09
831.48	228.08
831.80	228.09
832.11	228.06
832.43	228.02
832.75	228.01
833.06	228.06
833.38	228.06
833.69	228.03
834.01	228.00
834.32	228.00
834.64	227.98
834.96	227.99
835.27	227.98
835.59	227.91
835.90	227.87
836.22	227.84
836.53	227.80
836.85	227.77
837.16	227.88
837.48	227.83
837.79	227.86
838.11	227.85
838.42	227.84
838.74	227.85
839.05	227.84
839.37	227.84
839.68	227.76
840.00	227.70
840.31	227.76
840.63	227.73
840.94	227.70
841.26	227.68
841.57	227.65
841.88	227.63
842.20	227.60
842.51	227.58
842.83	227.58
843.14	227.66
843.46	227.65
843.77	227.55
844.08	227.52
844.40	227.48
844.71	227.46
845.03	227.44
845.34	227.43
845.65	227.40
845.97	227.40
846.28	227.39
846.60	227.42
846.91	227.37
847.22	227.35
847.54	227.35
847.85	227.31
848.16	227.29
848.48	227.27
848.79	227.29
849.10	227.28
849.42	227.26
849.73	227.15
850.04	227.11
850.36	227.07
850.67	227.13
850.98	227.11
851.30	227.11
851.61	227.11
851.92	227.09
852.23	227.12
852.55	227.11
852.86	227.14
853.17	227.14
853.49	227.13
853.80	227.15
854.11	227.19
854.42	227.22
854.74	227.19
855.05	227.21
855.36	227.17
855.67	227.19
855.99	227.21
856.30	227.35
856.61	227.39
856.92	227.40
857.23	227.38
857.55	227.36
857.86	227.35
858.17	227.36
858.48	227.34
858.79	227.33
859.11	227.36
859.42	227.34
859.73	227.33
860.04	227.37
860.35	227.32
860.66	227.28
860.98	227.28
861.29	227.30
861.60	227.30
861.91	227.35
862.22	227.34
862.53	227.33
862.84	227.23
863.16	227.26
863.47	227.29
863.78	227.30
864.09	227.35
864.40	227.39
864.71	227.39
865.02	227.42
865.33	227.44
865.64	227.40
865.95	227.41
866.27	227.48
866.58	227.48
866.89	227.49
867.20	227.50
867.51	227.48
867.82	227.47
868.13	227.52
868.44	227.48
868.75	227.50
869.06	227.50
869.37	227.47
869.68	227.45
869.99	227.45
870.30	227.46
870.61	227.45
870.92	227.42
871.23	227.42
871.54	227.43
871.85	227.43
872.16	227.47
872.47	227.46
872.78	227.38
873.09	227.37
873.40	227.38
873.71	227.40
874.02	227.40
874.33	227.41
874.64	227.39
874.95	227.39
875.26	227.34
875.56	227.35
875.87	227.37
876.18	227.33
876.49	227.39
876.80	227.35
877.11	227.30
877.42	227.28
877.73	227.27
878.04	227.24
878.35	227.21
878.66	227.21
878.96	227.16
879.27	227.18
879.58	227.16
879.89	227.13
880.20	227.13
880.51	227.15
880.82	227.12
881.12	227.08
881.43	227.04
881.74	227.04
882.05	227.03
882.36	227.00
882.67	226.98
882.97	226.84
883.28	226.87
883.59	226.90
883.90	226.89
884.21	226.90
884.51	226.87
884.82	226.88
885.13	226.83
885.44	226.87
885.74	226.83
886.05	226.84
886.36	226.86
886.67	226.82
886.98	226.84
887.28	226.85
887.59	226.86
887.90	226.86
888.20	226.84
888.51	226.82
888.82	226.82
889.13	226.86
889.43	226.94
889.74	226.89
890.05	226.84
890.35	226.84
890.66	226.79
890.97	226.81
891.28	226.77
891.58	226.77
891.89	226.73
892.20	226.73
892.50	226.70
892.81	226.66
893.12	226.67
893.42	226.64
893.73	226.64
894.04	226.64
894.34	226.65
894.65	226.68
894.95	226.70
895.26	226.71
895.57	226.73
895.87	226.66
896.18	226.69
896.48	226.70
896.79	226.71
897.10	226.75
897.40	226.73
897.71	226.78
898.01	226.78
898.32	226.82
898.63	226.81
898.93	226.81
899.24	226.83
899.54	226.80
899.85	226.79
900.15	226.79
900.46	226.80
900.76	226.83
901.07	226.86
901.38	226.86
901.68	226.90
901.99	226.86
902.29	226.89
902.60	226.89
902.90	226.92
903.21	226.90
903.51	226.88
903.82	226.93
904.12	226.91
904.43	226.94
904.73	226.94
905.03	226.99
905.34	227.10
905.64	227.10
905.95	227.10
906.25	227.10
906.56	227.10
906.86	227.10
907.17	227.10
907.47	227.07
907.77	227.08
908.08	227.03
908.38	227.01
908.69	227.04
908.99	227.06
909.30	227.07
909.60	227.10
909.90	227.11
910.21	227.07
910.51	227.06
910.81	227.09
911.12	227.08
911.42	227.05
911.73	226.99
912.03	226.99
912.33	227.01
912.64	227.01
912.94	226.99
913.24	226.98
913.55	226.96
913.85	226.94
914.15	226.94
914.46	226.97
914.76	226.96
915.06	226.96
915.37	226.92
915.67	226.93
915.97	226.93
916.27	226.93
916.58	226.95
916.88	226.94
917.18	226.88
917.49	226.97
917.79	226.96
918.09	226.90
918.39	226.93
918.70	226.95
919.00	226.98
919.30	227.03
919.60	226.99
919.91	226.98
920.21	227.00
920.51	226.97
920.81	226.96
921.12	226.98
921.42	226.92
921.72	226.92
922.02	226.86
922.32	226.81
922.63	226.83
922.93	226.84
923.23	226.83
923.53	226.81
923.83	226.72
924.13	226.72
924.44	226.74
924.74	226.75
925.04	226.75
925.34	226.72
925.64	226.69
925.94	226.70
926.24	226.74
926.55	226.70
926.85	226.70
927.15	226.69
927.45	226.69
927.75	226.68
928.05	226.69
928.35	226.70
928.65	226.75
928.95	226.73
929.26	226.69
929.56	226.73
929.86	226.77
930.16	226.76
930.46	226.74
930.76	226.73
931.06	226.68
931.36	226.67
931.66	226.68
931.96	226.66
932.26	226.67
932.56	226.62
932.86	226.63
933.16	226.62
933.46	226.63
933.76	226.63
934.06	226.65
934.36	226.65
934.66	226.66
934.96	226.64
935.26	226.63
935.56	226.66
935.86	226.60
936.16	226.56
936.46	226.55
936.76	226.56
937.06	226.55
937.36	226.55
937.66	226.52
937.96	226.50
938.26	226.49
938.56	226.47
938.86	226.48
939.16	226.50
939.46	226.53
939.76	226.50
940.06	226.47
940.35	226.46
940.65	226.43
940.95	226.42
941.25	226.42
941.55	226.43
941.85	226.42
942.15	226.47
942.45	226.48
942.75	226.51
943.04	226.53
943.34	226.53
943.64	226.52
943.94	226.54
944.24	226.56
944.54	226.55
944.84	226.56
945.13	226.56
945.43	226.54
945.73	226.54
946.03	226.56
946.33	226.55
946.62	226.57
946.92	226.61
947.22	226.63
947.52	226.63
947.82	226.65
948.11	226.65
948.41	226.62
948.71	226.61
949.01	226.61
949.31	226.56
949.60	226.56
949.90	226.59
950.20	226.58
950.50	226.56
950.79	226.56
951.09	226.59
951.39	226.57
951.69	226.58
951.98	226.64
952.28	226.65
952.58	226.63
952.87	226.64
953.17	226.64
953.47	226.64
953.76	226.64
954.06	226.63
954.36	226.64
954.66	226.67
954.95	226.70
955.25	226.69
955.55	226.73
955.84	226.73
956.14	226.75
956.44	226.75
956.73	226.74
957.03	226.77
957.32	226.76
957.62	226.75
957.92	226.77
958.21	226.72
958.51	226.79
958.81	226.85
959.10	226.85
959.40	226.88
959.69	226.87
959.99	226.87
960.29	226.86
960.58	226.88
960.88	226.90
961.17	226.87
961.47	226.90
961.76	226.89
962.06	226.93
962.36	226.90
962.65	226.90
962.95	226.92
963.24	226.90
963.54	226.92
963.83	226.94
964.13	226.92
964.42	226.90
964.72	226.84
965.01	226.83
965.31	226.82
965.60	226.76
965.90	226.84
966.19	226.80
966.49	226.79
966.78	226.77
967.08	226.75
967.37	226.78
967.67	226.78
967.96	226.79
968.26	226.80
968.55	226.82
968.85	226.79
969.14	226.76
969.43	226.79
969.73	226.78
970.02	226.78
970.32	226.78
970.61	226.78
970.91	226.77
971.20	226.76
971.49	226.75
971.79	226.78
972.08	226.71
972.38	226.77
972.67	226.73
972.96	226.74
973.26	226.73
973.55	226.74
973.85	226.70
974.14	226.72
974.43	226.70
974.73	226.71
975.02	226.74
975.31	226.76
975.61	226.73
975.90	226.71
976.19	226.72
976.49	226.76
976.78	226.79
977.07	226.80
977.37	226.81
977.66	226.83
977.95	226.82
978.24	226.81
978.54	226.80
978.83	226.85
979.12	226.83
979.42	226.85
979.71	226.83
980.00	226.87
980.29	226.85
980.59	226.85
980.88	226.84
981.17	226.85
981.46	226.86
981.76	226.88
982.05	226.92
982.34	226.95
982.63	226.94
982.93	226.92
983.22	226.95
983.51	226.97
983.80	226.96
984.09	226.99
984.39	227.02
984.68	227.00
984.97	227.01
985.26	227.00
985.55	226.97
985.85	226.96
986.14	226.99
986.43	226.99
986.72	227.00
987.01	226.97
987.30	226.97
987.59	226.93
987.89	226.93
988.18	226.89
988.47	226.85
988.76	226.85
989.05	226.81
989.34	226.79
989.63	226.80
989.92	226.84
990.22	226.81
990.51	226.81
990.80	226.80
991.09	226.78
991.38	226.77
991.67	226.76
991.96	226.75
992.25	226.73
992.54	226.71
992.83	226.70
993.12	226.73
993.41	226.72
993.70	226.75
993.99	226.77
994.28	226.77
994.58	226.79
994.87	226.78
995.16	226.79
995.45	226.79
995.74	226.75
996.03	226.71
996.32	226.73
996.61	226.72
996.90	226.72
997.19	226.71
997.48	226.75
997.77	226.76
998.06	226.74
998.34	226.70
998.63	226.70
998.92	226.67
999.21	226.63
999.50	226.64
999.79	226.62
1000.08	226.59
1000.37	226.59
1000.66	226.55
1000.95	226.56
1001.24	226.58
1001.53	226.57
1001.82	226.54
1002.11	226.51
1002.40	226.52
1002.68	226.53
1002.97	226.59
1003.26	226.57
1003.55	226.52
1003.84	226.53
1004.13	226.58
1004.42	226.60
1004.71	226.59
1004.99	226.58
1005.28	226.59
1005.57	226.56
1005.86	226.56
1006.15	226.54
1006.44	226.54
1006.72	226.55
1007.01	226.52
1007.30	226.52
1007.59	226.50
1007.88	226.51
1008.17	226.53
1008.45	226.46
1008.74	226.40
1009.03	226.35
1009.32	226.37
1009.60	226.37
1009.89	226.36
1010.18	226.29
1010.47	226.27
1010.76	226.27
1011.04	226.30
1011.33	226.33
1011.62	226.36
1011.91	226.35
1012.19	226.36
1012.48	226.38
1012.77	226.36
1013.05	226.41
1013.34	226.42
1013.63	226.42
1013.92	226.42
1014.20	226.42
1014.49	226.46
1014.78	226.51
1015.06	226.53
1015.35	226.53
1015.64	226.53
1015.92	226.53
1016.21	226.58
1016.50	226.61
1016.78	226.63
1017.07	226.63
1017.36	226.62
1017.64	226.62
1017.93	226.67
1018.22	226.68
1018.50	226.67
1018.79	226.73
1019.08	226.71
1019.36	226.71
1019.65	226.71
1019.93	226.75
1020.22	226.78
1020.51	226.84
1020.79	226.80
1021.08	226.39
1021.36	226.86
1021.65	227.38
1021.94	226.69
1022.22	226.89
1022.51	226.47
1022.79	227.24
1023.08	226.96
1023.36	227.76
1023.65	226.16
>>>>>End Processed Spectral Data<<<<<
