SpectraSuite Data File
++++++++++++++++++++++++++++++++++++
Date: Fri Feb 01 15:49:51 EST 2013
User: group
Dark Spectrum Present: No
Reference Spectrum Present: No
Number of Sampled Component Spectra: 1
Spectrometers: USB2E7196
Integration Time (usec): 35000 (USB2E7196)
Spectra Averaged: 100 (USB2E7196)
Boxcar Smoothing: 10 (USB2E7196)
Correct for Electrical Dark: No (USB2E7196)
Strobe/Lamp Enabled: No (USB2E7196)
Correct for Detector Non-linearity: No (USB2E7196)
Correct for Stray Light: No (USB2E7196)
Number of Pixels in Processed Spectrum: 2048
>>>>>Begin Processed Spectral Data<<<<<
339.09	0.00
339.48	215.03
339.86	215.58
340.24	217.88
340.63	218.52
341.01	222.15
341.39	221.65
341.78	222.52
342.16	224.26
342.54	224.96
342.93	213.14
343.31	223.90
343.69	224.44
344.07	224.94
344.46	225.35
344.84	225.79
345.22	226.01
345.60	226.28
345.99	226.50
346.37	226.63
346.75	226.72
347.13	226.79
347.52	226.82
347.90	226.90
348.28	226.97
348.66	227.03
349.05	227.02
349.43	227.07
349.81	227.14
350.19	227.17
350.57	227.26
350.96	227.32
351.34	227.43
351.72	227.51
352.10	227.62
352.48	227.71
352.87	227.73
353.25	227.80
353.63	227.88
354.01	227.98
354.39	228.07
354.77	228.15
355.15	228.23
355.54	228.32
355.92	228.36
356.30	228.39
356.68	228.49
357.06	228.54
357.44	228.60
357.82	228.71
358.20	228.78
358.58	228.84
358.97	228.89
359.35	228.98
359.73	229.07
360.11	229.10
360.49	229.13
360.87	229.19
361.25	229.22
361.63	229.26
362.01	229.27
362.39	229.27
362.77	229.32
363.15	229.36
363.53	229.34
363.91	229.35
364.29	229.40
364.67	229.33
365.05	229.40
365.43	229.41
365.81	229.39
366.19	229.44
366.57	229.46
366.95	229.48
367.33	229.42
367.71	229.38
368.09	229.37
368.47	229.32
368.85	229.28
369.23	229.29
369.61	229.23
369.99	229.22
370.37	229.24
370.75	229.25
371.13	229.18
371.51	229.15
371.89	229.11
372.27	229.02
372.65	228.99
373.03	228.88
373.41	228.81
373.78	228.75
374.16	228.63
374.54	228.52
374.92	228.44
375.30	228.38
375.68	228.31
376.06	228.28
376.44	228.22
376.82	228.16
377.19	228.11
377.57	228.04
377.95	227.94
378.33	227.83
378.71	227.70
379.09	227.64
379.47	227.57
379.84	227.48
380.22	227.41
380.60	227.32
380.98	227.27
381.36	227.20
381.73	227.14
382.11	227.09
382.49	227.06
382.87	226.97
383.25	226.94
383.62	226.97
384.00	226.87
384.38	226.82
384.76	226.79
385.13	226.74
385.51	226.65
385.89	226.61
386.27	226.56
386.64	226.53
387.02	226.45
387.40	226.40
387.78	226.38
388.15	226.34
388.53	226.29
388.91	226.26
389.29	226.22
389.66	226.21
390.04	226.17
390.42	226.16
390.79	226.17
391.17	226.13
391.55	226.01
391.92	226.02
392.30	226.05
392.68	226.02
393.05	226.01
393.43	226.04
393.81	226.03
394.18	226.01
394.56	226.02
394.94	226.05
395.31	226.08
395.69	226.12
396.06	226.18
396.44	226.25
396.82	226.28
397.19	226.38
397.57	226.40
397.95	226.44
398.32	226.47
398.70	226.53
399.07	226.63
399.45	226.72
399.82	226.75
400.20	226.80
400.58	226.87
400.95	226.91
401.33	227.03
401.70	227.20
402.08	227.32
402.45	227.42
402.83	227.56
403.20	227.68
403.58	227.76
403.95	227.89
404.33	228.00
404.71	228.12
405.08	228.25
405.46	228.40
405.83	228.58
406.21	228.73
406.58	228.88
406.96	229.02
407.33	229.19
407.70	229.42
408.08	229.69
408.45	229.93
408.83	230.17
409.20	230.40
409.58	230.58
409.95	230.84
410.33	231.11
410.70	231.35
411.08	231.64
411.45	231.97
411.82	232.28
412.20	232.66
412.57	233.07
412.95	233.38
413.32	233.77
413.69	234.18
414.07	234.63
414.44	235.10
414.82	235.60
415.19	236.13
415.56	236.67
415.94	237.21
416.31	237.86
416.68	238.53
417.06	239.23
417.43	239.92
417.81	240.67
418.18	241.48
418.55	242.32
418.93	243.21
419.30	244.12
419.67	245.02
420.04	245.96
420.42	247.01
420.79	248.20
421.16	249.37
421.54	250.54
421.91	251.76
422.28	252.99
422.66	254.33
423.03	255.64
423.40	256.96
423.77	258.37
424.15	259.77
424.52	261.23
424.89	262.82
425.26	264.36
425.64	265.84
426.01	267.40
426.38	269.04
426.75	270.72
427.13	272.41
427.50	274.25
427.87	276.13
428.24	277.97
428.61	279.71
428.99	281.62
429.36	283.72
429.73	285.76
430.10	287.80
430.47	289.86
430.85	291.99
431.22	294.24
431.59	296.64
431.96	298.92
432.33	301.43
432.70	303.85
433.08	306.67
433.45	309.28
433.82	311.89
434.19	314.81
434.56	317.59
434.93	320.27
435.30	322.87
435.68	325.74
436.05	328.51
436.42	331.29
436.79	333.80
437.16	336.51
437.53	339.35
437.90	342.20
438.27	344.93
438.64	347.75
439.01	350.37
439.38	352.57
439.75	354.70
440.13	357.20
440.50	359.46
440.87	361.31
441.24	363.27
441.61	365.43
441.98	366.90
442.35	368.73
442.72	370.60
443.09	372.43
443.46	373.42
443.83	374.06
444.20	374.57
444.57	375.44
444.94	375.73
445.31	376.06
445.68	376.35
446.05	376.42
446.42	376.01
446.79	375.58
447.16	375.16
447.53	374.85
447.90	373.70
448.27	372.62
448.64	371.03
449.01	369.90
449.37	367.89
449.74	366.02
450.11	363.74
450.48	361.20
450.85	358.66
451.22	356.58
451.59	354.58
451.96	352.64
452.33	350.03
452.70	347.68
453.07	344.87
453.43	342.04
453.80	339.27
454.17	336.64
454.54	334.08
454.91	331.30
455.28	328.65
455.65	326.16
456.02	323.69
456.38	321.54
456.75	318.83
457.12	316.60
457.49	314.38
457.86	312.19
458.23	310.40
458.59	308.33
458.96	306.21
459.33	304.32
459.70	302.48
460.07	300.96
460.43	299.26
460.80	297.63
461.17	296.16
461.54	294.67
461.91	293.24
462.27	291.82
462.64	290.61
463.01	289.23
463.38	287.90
463.74	286.51
464.11	285.32
464.48	284.32
464.85	283.24
465.21	282.36
465.58	281.44
465.95	280.33
466.32	279.43
466.68	278.53
467.05	277.65
467.42	276.73
467.78	275.81
468.15	274.88
468.52	274.24
468.88	273.40
469.25	272.65
469.62	272.01
469.98	271.34
470.35	270.68
470.72	270.06
471.08	269.43
471.45	268.91
471.82	268.44
472.18	267.85
472.55	267.39
472.92	266.87
473.28	266.42
473.65	266.00
474.02	265.55
474.38	265.21
474.75	264.85
475.11	264.51
475.48	264.24
475.85	264.04
476.21	263.80
476.58	263.58
476.94	263.42
477.31	263.28
477.67	263.13
478.04	263.04
478.41	263.01
478.77	263.07
479.14	263.01
479.50	263.01
479.87	263.12
480.23	263.22
480.60	263.29
480.96	263.38
481.33	263.57
481.69	263.77
482.06	263.91
482.42	264.12
482.79	264.40
483.15	264.71
483.52	265.09
483.88	265.46
484.25	265.88
484.61	266.31
484.98	266.78
485.34	267.34
485.71	267.92
486.07	268.53
486.44	269.09
486.80	269.81
487.17	270.52
487.53	271.29
487.90	272.14
488.26	273.10
488.62	274.09
488.99	275.08
489.35	276.15
489.72	277.34
490.08	278.57
490.44	279.81
490.81	281.19
491.17	282.59
491.54	284.06
491.90	285.60
492.26	287.26
492.63	288.96
492.99	290.77
493.36	292.69
493.72	294.75
494.08	296.86
494.45	299.10
494.81	301.48
495.17	303.95
495.54	306.53
495.90	309.21
496.26	312.04
496.63	315.00
496.99	318.05
497.35	321.33
497.72	324.73
498.08	328.25
498.44	331.93
498.80	335.84
499.17	339.88
499.53	344.04
499.89	348.41
500.26	352.93
500.62	357.60
500.98	362.60
501.34	367.65
501.71	372.95
502.07	378.36
502.43	383.97
502.79	389.76
503.16	395.84
503.52	402.12
503.88	408.49
504.24	415.18
504.60	422.11
504.97	429.23
505.33	436.55
505.69	444.25
506.05	452.01
506.41	459.95
506.78	468.10
507.14	476.54
507.50	485.29
507.86	494.29
508.22	503.46
508.59	512.64
508.95	522.21
509.31	531.98
509.67	542.15
510.03	552.48
510.39	563.10
510.75	573.91
511.12	584.80
511.48	596.16
511.84	607.58
512.20	619.14
512.56	631.08
512.92	643.29
513.28	655.63
513.64	668.10
514.00	680.74
514.37	693.68
514.73	706.76
515.09	719.72
515.45	733.08
515.81	746.70
516.17	760.72
516.53	774.86
516.89	789.15
517.25	803.24
517.61	817.59
517.97	831.95
518.33	846.32
518.69	861.05
519.05	876.01
519.41	891.13
519.77	906.59
520.13	921.99
520.49	937.31
520.85	952.82
521.21	968.51
521.57	984.68
521.93	1000.44
522.29	1016.86
522.65	1033.12
523.01	1049.30
523.37	1065.27
523.73	1081.38
524.09	1097.38
524.45	1113.67
524.81	1130.27
525.17	1147.16
525.53	1164.12
525.89	1181.02
526.25	1197.88
526.61	1214.22
526.97	1231.00
527.33	1247.45
527.68	1264.08
528.04	1280.55
528.40	1297.05
528.76	1314.13
529.12	1330.73
529.48	1347.60
529.84	1363.52
530.20	1380.10
530.56	1397.15
530.91	1414.57
531.27	1431.34
531.63	1447.89
531.99	1464.32
532.35	1480.37
532.71	1496.14
533.07	1512.38
533.42	1528.26
533.78	1544.24
534.14	1560.53
534.50	1575.75
534.86	1591.69
535.21	1606.83
535.57	1622.80
535.93	1638.28
536.29	1652.96
536.65	1667.99
537.00	1682.85
537.36	1698.20
537.72	1712.78
538.08	1727.12
538.44	1740.73
538.79	1754.61
539.15	1768.27
539.51	1782.20
539.87	1796.49
540.22	1810.28
540.58	1824.05
540.94	1837.36
541.29	1850.49
541.65	1863.21
542.01	1876.48
542.37	1888.70
542.72	1901.19
543.08	1912.90
543.44	1925.29
543.79	1936.53
544.15	1947.59
544.51	1959.00
544.87	1970.02
545.22	1980.73
545.58	1990.98
545.94	2000.85
546.29	2010.69
546.65	2020.51
547.01	2029.68
547.36	2038.38
547.72	2046.85
548.07	2054.58
548.43	2062.79
548.79	2070.65
549.14	2078.05
549.50	2085.37
549.86	2093.23
550.21	2100.47
550.57	2107.60
550.92	2114.12
551.28	2121.36
551.64	2128.31
551.99	2134.76
552.35	2140.98
552.70	2147.16
553.06	2153.09
553.41	2159.49
553.77	2165.51
554.13	2171.50
554.48	2177.56
554.84	2182.90
555.19	2188.16
555.55	2193.31
555.90	2197.80
556.26	2202.74
556.61	2207.55
556.97	2211.94
557.32	2216.00
557.68	2220.10
558.03	2224.47
558.39	2228.22
558.74	2232.83
559.10	2236.73
559.45	2240.50
559.81	2244.74
560.16	2248.70
560.52	2251.90
560.87	2255.22
561.23	2257.96
561.58	2261.08
561.94	2263.55
562.29	2266.11
562.64	2268.79
563.00	2271.32
563.35	2274.76
563.71	2277.92
564.06	2281.14
564.42	2283.83
564.77	2286.26
565.12	2288.53
565.48	2290.29
565.83	2292.11
566.19	2293.39
566.54	2294.36
566.89	2295.51
567.25	2295.96
567.60	2297.21
567.96	2298.86
568.31	2299.77
568.66	2300.85
569.02	2301.24
569.37	2301.52
569.72	2302.41
570.08	2302.43
570.43	2302.55
570.78	2301.96
571.14	2300.33
571.49	2299.07
571.84	2298.88
572.20	2297.64
572.55	2296.62
572.90	2295.11
573.26	2293.80
573.61	2292.07
573.96	2290.10
574.31	2287.18
574.67	2284.12
575.02	2280.34
575.37	2277.00
575.72	2273.18
576.08	2269.74
576.43	2266.57
576.78	2262.98
577.13	2259.77
577.49	2256.82
577.84	2253.33
578.19	2249.73
578.54	2246.07
578.90	2241.76
579.25	2236.08
579.60	2231.12
579.95	2226.04
580.30	2221.05
580.66	2215.77
581.01	2210.78
581.36	2206.03
581.71	2201.75
582.06	2197.45
582.42	2193.07
582.77	2187.76
583.12	2183.15
583.47	2178.51
583.82	2173.47
584.17	2168.26
584.53	2162.64
584.88	2156.84
585.23	2151.02
585.58	2145.45
585.93	2140.00
586.28	2135.28
586.63	2130.31
586.98	2125.28
587.34	2120.67
587.69	2115.70
588.04	2110.53
588.39	2104.74
588.74	2098.30
589.09	2092.23
589.44	2085.35
589.79	2079.43
590.14	2073.88
590.49	2067.32
590.84	2060.92
591.19	2054.74
591.54	2048.26
591.89	2040.90
592.25	2034.25
592.60	2027.08
592.95	2019.50
593.30	2012.14
593.65	2004.46
594.00	1997.40
594.35	1990.22
594.70	1982.10
595.05	1974.90
595.40	1967.60
595.75	1960.11
596.10	1953.89
596.45	1947.09
596.80	1940.97
597.15	1934.36
597.50	1927.16
597.85	1920.81
598.19	1914.04
598.54	1906.96
598.89	1900.33
599.24	1894.50
599.59	1887.80
599.94	1881.62
600.29	1875.35
600.64	1868.84
600.99	1861.35
601.34	1854.51
601.69	1847.63
602.04	1840.82
602.39	1833.63
602.74	1826.67
603.08	1820.06
603.43	1813.33
603.78	1805.98
604.13	1798.79
604.48	1791.32
604.83	1784.49
605.18	1777.31
605.53	1769.36
605.87	1761.41
606.22	1754.20
606.57	1746.21
606.92	1738.85
607.27	1731.60
607.62	1724.51
607.96	1717.20
608.31	1710.63
608.66	1702.99
609.01	1695.30
609.36	1687.63
609.70	1679.59
610.05	1671.65
610.40	1663.94
610.75	1655.46
611.10	1647.78
611.44	1639.19
611.79	1631.28
612.14	1622.57
612.49	1613.48
612.83	1605.17
613.18	1597.11
613.53	1588.88
613.88	1580.25
614.22	1571.85
614.57	1563.29
614.92	1555.28
615.27	1547.58
615.61	1539.16
615.96	1531.20
616.31	1523.64
616.65	1516.30
617.00	1508.59
617.35	1500.91
617.70	1492.46
618.04	1484.09
618.39	1475.86
618.74	1468.34
619.08	1459.96
619.43	1452.41
619.78	1445.60
620.12	1438.31
620.47	1430.64
620.82	1422.44
621.16	1415.08
621.51	1407.55
621.85	1399.93
622.20	1391.33
622.55	1383.03
622.89	1375.17
623.24	1367.54
623.59	1360.07
623.93	1352.54
624.28	1345.38
624.62	1337.71
624.97	1330.58
625.32	1323.82
625.66	1316.82
626.01	1309.68
626.35	1302.24
626.70	1294.58
627.04	1286.79
627.39	1279.13
627.73	1271.90
628.08	1265.10
628.43	1257.83
628.77	1250.52
629.12	1242.93
629.46	1235.85
629.81	1228.46
630.15	1221.34
630.50	1213.84
630.84	1205.72
631.19	1197.81
631.53	1190.26
631.88	1182.80
632.22	1175.22
632.57	1167.87
632.91	1160.39
633.26	1152.91
633.60	1145.65
633.95	1138.51
634.29	1131.52
634.64	1124.84
634.98	1117.42
635.32	1110.29
635.67	1103.77
636.01	1097.04
636.36	1090.24
636.70	1083.73
637.05	1077.17
637.39	1070.72
637.73	1064.21
638.08	1058.35
638.42	1052.40
638.77	1046.07
639.11	1039.44
639.45	1033.01
639.80	1026.37
640.14	1019.94
640.49	1013.46
640.83	1007.11
641.17	1000.80
641.52	994.41
641.86	987.93
642.20	981.94
642.55	975.64
642.89	969.10
643.23	962.52
643.58	956.82
643.92	950.66
644.26	944.57
644.61	938.47
644.95	932.52
645.29	925.83
645.64	919.09
645.98	912.68
646.32	906.87
646.66	900.83
647.01	895.06
647.35	889.32
647.69	883.43
648.04	877.87
648.38	872.15
648.72	866.11
649.06	860.02
649.41	854.27
649.75	848.26
650.09	842.26
650.43	836.64
650.78	830.38
651.12	824.34
651.46	818.66
651.80	812.89
652.14	807.47
652.49	802.17
652.83	796.96
653.17	791.23
653.51	785.53
653.85	780.11
654.20	774.41
654.54	768.39
654.88	762.73
655.22	756.90
655.56	751.22
655.90	745.80
656.25	740.61
656.59	735.23
656.93	730.17
657.27	725.01
657.61	719.51
657.95	714.47
658.29	709.38
658.64	704.16
658.98	698.89
659.32	693.42
659.66	688.16
660.00	682.83
660.34	677.88
660.68	672.95
661.02	667.97
661.36	663.18
661.70	658.72
662.05	654.30
662.39	649.96
662.73	645.43
663.07	641.04
663.41	636.54
663.75	632.04
664.09	627.45
664.43	623.06
664.77	618.90
665.11	614.64
665.45	610.54
665.79	606.42
666.13	602.28
666.47	598.24
666.81	594.11
667.15	589.97
667.49	586.12
667.83	582.27
668.17	578.36
668.51	574.40
668.85	570.33
669.19	566.52
669.53	562.60
669.87	558.73
670.21	555.09
670.55	551.44
670.89	548.00
671.23	544.55
671.57	541.06
671.91	537.50
672.25	533.97
672.58	530.43
672.92	527.03
673.26	523.91
673.60	520.68
673.94	517.54
674.28	514.61
674.62	511.69
674.96	508.64
675.30	505.68
675.64	502.70
675.97	499.97
676.31	497.10
676.65	494.20
676.99	491.54
677.33	488.66
677.67	485.90
678.01	482.86
678.34	479.86
678.68	477.03
679.02	474.28
679.36	471.56
679.70	468.90
680.04	466.15
680.37	463.28
680.71	460.50
681.05	457.91
681.39	455.24
681.73	452.58
682.06	450.05
682.40	447.54
682.74	445.06
683.08	442.49
683.42	439.93
683.75	437.47
684.09	434.90
684.43	432.40
684.77	429.91
685.10	427.57
685.44	425.32
685.78	423.03
686.12	420.79
686.45	418.47
686.79	416.19
687.13	413.97
687.46	411.81
687.80	409.65
688.14	407.48
688.48	405.44
688.81	403.17
689.15	401.05
689.49	398.93
689.82	396.82
690.16	394.76
690.50	392.78
690.83	390.81
691.17	388.83
691.51	386.96
691.84	385.10
692.18	383.14
692.52	381.15
692.85	379.20
693.19	377.31
693.52	375.52
693.86	373.71
694.20	371.95
694.53	370.13
694.87	368.34
695.21	366.52
695.54	364.70
695.88	363.01
696.21	361.26
696.55	359.57
696.88	357.91
697.22	356.25
697.56	354.63
697.89	352.97
698.23	351.38
698.56	349.75
698.90	348.17
699.23	346.55
699.57	345.00
699.90	343.48
700.24	341.93
700.58	340.39
700.91	338.83
701.25	337.42
701.58	336.02
701.92	334.64
702.25	333.27
702.59	331.86
702.92	330.53
703.26	329.20
703.59	327.90
703.93	326.67
704.26	325.42
704.60	324.13
704.93	322.84
705.26	321.55
705.60	320.39
705.93	319.20
706.27	318.16
706.60	317.08
706.94	315.94
707.27	314.83
707.61	313.73
707.94	312.73
708.27	311.55
708.61	310.47
708.94	309.44
709.28	308.44
709.61	307.51
709.94	306.54
710.28	305.53
710.61	304.52
710.95	303.46
711.28	302.52
711.61	301.58
711.95	300.66
712.28	299.75
712.61	298.80
712.95	297.89
713.28	297.01
713.61	296.10
713.95	295.26
714.28	294.37
714.61	293.50
714.95	292.64
715.28	291.84
715.61	291.01
715.95	290.14
716.28	289.33
716.61	288.51
716.95	287.66
717.28	286.90
717.61	286.19
717.94	285.46
718.28	284.71
718.61	283.96
718.94	283.28
719.27	282.61
719.61	281.98
719.94	281.31
720.27	280.59
720.60	279.94
720.94	279.33
721.27	278.78
721.60	278.24
721.93	277.65
722.27	277.08
722.60	276.50
722.93	275.97
723.26	275.41
723.59	274.85
723.93	274.35
724.26	273.81
724.59	273.23
724.92	272.72
725.25	272.17
725.59	271.69
725.92	271.19
726.25	270.69
726.58	270.19
726.91	269.70
727.24	269.25
727.57	268.82
727.91	268.29
728.24	267.83
728.57	267.33
728.90	266.90
729.23	266.43
729.56	266.01
729.89	265.50
730.22	265.02
730.55	264.56
730.89	264.12
731.22	263.68
731.55	263.24
731.88	262.81
732.21	262.42
732.54	261.96
732.87	261.52
733.20	261.13
733.53	260.73
733.86	260.34
734.19	259.94
734.52	259.55
734.85	259.24
735.18	258.84
735.51	258.46
735.84	258.04
736.17	257.67
736.50	257.26
736.83	257.05
737.16	256.73
737.49	256.40
737.82	256.03
738.15	255.72
738.48	255.35
738.81	255.00
739.14	254.67
739.47	254.38
739.80	254.07
740.13	253.75
740.46	253.43
740.79	253.11
741.12	252.79
741.45	252.50
741.78	252.15
742.11	251.84
742.44	251.51
742.77	251.23
743.10	250.94
743.43	250.64
743.75	250.26
744.08	250.10
744.41	249.83
744.74	249.57
745.07	249.27
745.40	249.07
745.73	248.81
746.06	248.53
746.39	248.26
746.71	248.02
747.04	247.74
747.37	247.45
747.70	247.23
748.03	246.98
748.36	246.72
748.68	246.48
749.01	246.24
749.34	246.04
749.67	245.83
750.00	245.60
750.33	245.45
750.65	245.23
750.98	244.89
751.31	244.64
751.64	244.45
751.97	244.27
752.29	244.00
752.62	243.77
752.95	243.56
753.28	243.34
753.60	243.10
753.93	242.93
754.26	242.77
754.59	242.51
754.91	242.28
755.24	242.12
755.57	241.92
755.90	241.73
756.22	241.53
756.55	241.31
756.88	241.09
757.20	240.84
757.53	240.66
757.86	240.46
758.19	240.32
758.51	240.14
758.84	239.90
759.17	239.73
759.49	239.58
759.82	239.45
760.15	239.28
760.47	239.13
760.80	238.95
761.13	238.79
761.45	238.65
761.78	238.52
762.11	238.34
762.43	238.19
762.76	238.04
763.08	237.91
763.41	237.79
763.74	237.67
764.06	237.54
764.39	237.39
764.71	237.27
765.04	237.13
765.37	236.98
765.69	236.87
766.02	236.77
766.34	236.64
766.67	236.49
767.00	236.44
767.32	236.36
767.65	236.34
767.97	236.17
768.30	236.03
768.62	235.94
768.95	235.84
769.27	235.72
769.60	235.63
769.92	235.50
770.25	235.39
770.57	235.25
770.90	235.14
771.22	235.04
771.55	234.94
771.87	234.85
772.20	234.75
772.52	234.75
772.85	234.77
773.17	234.67
773.50	234.57
773.82	234.44
774.15	234.31
774.47	234.11
774.80	234.06
775.12	234.00
775.45	233.90
775.77	233.78
776.09	233.69
776.42	233.62
776.74	233.58
777.07	233.49
777.39	233.41
777.72	233.35
778.04	233.26
778.36	233.18
778.69	233.13
779.01	233.09
779.33	232.96
779.66	232.80
779.98	232.73
780.31	232.65
780.63	232.63
780.95	232.59
781.28	232.55
781.60	232.46
781.92	232.41
782.25	232.37
782.57	232.30
782.89	232.26
783.22	232.19
783.54	232.11
783.86	232.06
784.19	232.02
784.51	232.00
784.83	231.96
785.16	231.89
785.48	231.83
785.80	231.76
786.12	231.69
786.45	231.65
786.77	231.59
787.09	231.57
787.42	231.51
787.74	231.48
788.06	231.44
788.38	231.43
788.71	231.38
789.03	231.33
789.35	231.32
789.67	231.29
789.99	231.25
790.32	231.24
790.64	231.21
790.96	231.25
791.28	231.14
791.61	231.09
791.93	231.08
792.25	231.05
792.57	231.07
792.89	231.03
793.21	230.94
793.54	230.96
793.86	230.84
794.18	230.78
794.50	230.73
794.82	230.71
795.14	230.71
795.47	230.67
795.79	230.62
796.11	230.57
796.43	230.54
796.75	230.52
797.07	230.49
797.39	230.49
797.71	230.39
798.04	230.37
798.36	230.33
798.68	230.30
799.00	230.25
799.32	230.17
799.64	230.16
799.96	230.16
800.28	230.11
800.60	230.16
800.92	230.16
801.24	230.11
801.56	230.08
801.89	230.02
802.21	230.01
802.53	230.02
802.85	230.02
803.17	230.04
803.49	229.99
803.81	229.93
804.13	229.88
804.45	229.84
804.77	229.84
805.09	229.82
805.41	229.80
805.73	229.77
806.05	229.72
806.37	229.67
806.69	229.63
807.01	229.62
807.33	229.56
807.65	229.47
807.97	229.48
808.28	229.42
808.60	229.41
808.92	229.37
809.24	229.36
809.56	229.29
809.88	229.20
810.20	229.17
810.52	229.14
810.84	229.09
811.16	229.08
811.48	229.03
811.80	229.03
812.12	228.95
812.43	228.95
812.75	228.96
813.07	228.96
813.39	228.94
813.71	228.91
814.03	228.89
814.35	228.90
814.67	228.82
814.98	228.82
815.30	228.79
815.62	228.77
815.94	228.66
816.26	228.71
816.58	228.71
816.89	228.73
817.21	228.70
817.53	228.72
817.85	228.68
818.17	228.70
818.48	228.67
818.80	228.68
819.12	228.61
819.44	228.57
819.76	228.55
820.07	228.54
820.39	228.52
820.71	228.49
821.03	228.46
821.34	228.48
821.66	228.49
821.98	228.48
822.30	228.45
822.61	228.51
822.93	228.42
823.25	228.39
823.57	228.34
823.88	228.38
824.20	228.33
824.52	228.35
824.83	228.35
825.15	228.32
825.47	228.34
825.79	228.36
826.10	228.35
826.42	228.31
826.74	228.31
827.05	228.33
827.37	228.37
827.69	228.35
828.00	228.33
828.32	228.31
828.64	228.29
828.95	228.34
829.27	228.34
829.58	228.35
829.90	228.37
830.22	228.38
830.53	228.34
830.85	228.36
831.17	228.31
831.48	228.28
831.80	228.29
832.11	228.30
832.43	228.24
832.75	228.24
833.06	228.32
833.38	228.29
833.69	228.27
834.01	228.22
834.32	228.24
834.64	228.23
834.96	228.21
835.27	228.20
835.59	228.17
835.90	228.14
836.22	228.13
836.53	228.08
836.85	228.09
837.16	228.17
837.48	228.14
837.79	228.19
838.11	228.18
838.42	228.16
838.74	228.14
839.05	228.15
839.37	228.09
839.68	228.02
840.00	228.02
840.31	228.01
840.63	228.00
840.94	227.96
841.26	227.96
841.57	227.95
841.88	227.95
842.20	227.91
842.51	227.89
842.83	227.85
843.14	227.94
843.46	227.91
843.77	227.87
844.08	227.86
844.40	227.82
844.71	227.82
845.03	227.82
845.34	227.82
845.65	227.82
845.97	227.85
846.28	227.82
846.60	227.79
846.91	227.76
847.22	227.79
847.54	227.81
847.85	227.77
848.16	227.77
848.48	227.76
848.79	227.84
849.10	227.87
849.42	227.90
849.73	227.79
850.04	227.78
850.36	227.75
850.67	227.81
850.98	227.79
851.30	227.76
851.61	227.77
851.92	227.75
852.23	227.80
852.55	227.78
852.86	227.80
853.17	227.81
853.49	227.84
853.80	227.80
854.11	227.81
854.42	227.81
854.74	227.78
855.05	227.77
855.36	227.67
855.67	227.68
855.99	227.71
856.30	227.82
856.61	227.82
856.92	227.79
857.23	227.77
857.55	227.76
857.86	227.75
858.17	227.74
858.48	227.69
858.79	227.64
859.11	227.65
859.42	227.63
859.73	227.61
860.04	227.59
860.35	227.58
860.66	227.52
860.98	227.54
861.29	227.53
861.60	227.52
861.91	227.53
862.22	227.45
862.53	227.38
862.84	227.30
863.16	227.30
863.47	227.31
863.78	227.29
864.09	227.29
864.40	227.32
864.71	227.35
865.02	227.38
865.33	227.40
865.64	227.39
865.95	227.39
866.27	227.43
866.58	227.42
866.89	227.41
867.20	227.42
867.51	227.39
867.82	227.44
868.13	227.44
868.44	227.45
868.75	227.49
869.06	227.51
869.37	227.48
869.68	227.43
869.99	227.43
870.30	227.43
870.61	227.42
870.92	227.40
871.23	227.37
871.54	227.38
871.85	227.38
872.16	227.39
872.47	227.38
872.78	227.31
873.09	227.33
873.40	227.33
873.71	227.36
874.02	227.39
874.33	227.37
874.64	227.35
874.95	227.35
875.26	227.32
875.56	227.31
875.87	227.30
876.18	227.33
876.49	227.39
876.80	227.35
877.11	227.33
877.42	227.31
877.73	227.33
878.04	227.30
878.35	227.27
878.66	227.28
878.96	227.28
879.27	227.26
879.58	227.25
879.89	227.24
880.20	227.27
880.51	227.25
880.82	227.25
881.12	227.24
881.43	227.21
881.74	227.20
882.05	227.18
882.36	227.20
882.67	227.23
882.97	227.16
883.28	227.15
883.59	227.17
883.90	227.19
884.21	227.14
884.51	227.12
884.82	227.11
885.13	227.06
885.44	227.05
885.74	227.06
886.05	227.06
886.36	227.07
886.67	227.02
886.98	227.03
887.28	227.02
887.59	227.05
887.90	227.04
888.20	227.03
888.51	227.04
888.82	227.01
889.13	226.98
889.43	227.03
889.74	227.05
890.05	227.04
890.35	227.05
890.66	227.07
890.97	227.04
891.28	227.03
891.58	227.06
891.89	227.06
892.20	227.07
892.50	227.04
892.81	227.03
893.12	227.00
893.42	226.99
893.73	227.00
894.04	227.00
894.34	227.03
894.65	227.01
894.95	227.00
895.26	226.97
895.57	227.03
895.87	226.95
896.18	226.94
896.48	226.98
896.79	226.95
897.10	226.95
897.40	227.00
897.71	227.01
898.01	227.02
898.32	227.03
898.63	227.02
898.93	227.01
899.24	227.02
899.54	227.06
899.85	227.06
900.15	227.02
900.46	227.04
900.76	227.04
901.07	227.06
901.38	227.12
901.68	227.16
901.99	227.11
902.29	227.13
902.60	227.12
902.90	227.09
903.21	227.09
903.51	227.09
903.82	227.11
904.12	227.17
904.43	227.19
904.73	227.19
905.03	227.19
905.34	227.31
905.64	227.31
905.95	227.30
906.25	227.30
906.56	227.33
906.86	227.33
907.17	227.34
907.47	227.35
907.77	227.30
908.08	227.28
908.38	227.27
908.69	227.29
908.99	227.31
909.30	227.34
909.60	227.34
909.90	227.35
910.21	227.31
910.51	227.25
910.81	227.24
911.12	227.26
911.42	227.28
911.73	227.18
912.03	227.18
912.33	227.22
912.64	227.20
912.94	227.20
913.24	227.17
913.55	227.14
913.85	227.13
914.15	227.14
914.46	227.14
914.76	227.15
915.06	227.14
915.37	227.14
915.67	227.12
915.97	227.14
916.27	227.15
916.58	227.14
916.88	227.13
917.18	227.11
917.49	227.15
917.79	227.12
918.09	227.11
918.39	227.12
918.70	227.07
919.00	227.06
919.30	227.08
919.60	227.09
919.91	227.08
920.21	227.06
920.51	227.05
920.81	227.05
921.12	227.05
921.42	227.05
921.72	227.03
922.02	227.03
922.32	226.99
922.63	226.95
922.93	226.99
923.23	226.99
923.53	226.97
923.83	226.93
924.13	226.94
924.44	226.95
924.74	226.97
925.04	227.00
925.34	227.01
925.64	226.97
925.94	226.97
926.24	227.02
926.55	227.03
926.85	227.04
927.15	227.01
927.45	227.00
927.75	226.96
928.05	226.96
928.35	226.94
928.65	226.95
928.95	226.97
929.26	226.96
929.56	226.96
929.86	226.98
930.16	226.94
930.46	226.94
930.76	226.93
931.06	226.90
931.36	226.88
931.66	226.89
931.96	226.91
932.26	226.92
932.56	226.86
932.86	226.87
933.16	226.84
933.46	226.83
933.76	226.78
934.06	226.81
934.36	226.84
934.66	226.83
934.96	226.83
935.26	226.86
935.56	226.84
935.86	226.84
936.16	226.82
936.46	226.83
936.76	226.82
937.06	226.80
937.36	226.79
937.66	226.77
937.96	226.76
938.26	226.75
938.56	226.73
938.86	226.74
939.16	226.77
939.46	226.84
939.76	226.88
940.06	226.93
940.35	226.91
940.65	226.87
940.95	226.92
941.25	226.92
941.55	226.88
941.85	226.90
942.15	226.95
942.45	226.97
942.75	226.97
943.04	226.99
943.34	227.04
943.64	227.03
943.94	227.05
944.24	227.06
944.54	227.05
944.84	227.06
945.13	227.08
945.43	227.11
945.73	227.08
946.03	227.07
946.33	227.09
946.62	227.12
946.92	227.11
947.22	227.10
947.52	227.10
947.82	227.12
948.11	227.11
948.41	227.08
948.71	227.08
949.01	227.06
949.31	227.08
949.60	227.07
949.90	227.11
950.20	227.08
950.50	227.08
950.79	227.07
951.09	227.10
951.39	227.11
951.69	227.07
951.98	227.09
952.28	227.08
952.58	227.07
952.87	227.06
953.17	227.10
953.47	227.09
953.76	227.10
954.06	227.07
954.36	227.06
954.66	227.08
954.95	227.10
955.25	227.12
955.55	227.12
955.84	227.11
956.14	227.08
956.44	227.09
956.73	227.07
957.03	227.07
957.32	227.04
957.62	226.99
957.92	226.99
958.21	226.98
958.51	227.08
958.81	227.08
959.10	227.06
959.40	227.06
959.69	227.07
959.99	227.06
960.29	227.08
960.58	227.09
960.88	227.11
961.17	227.08
961.47	227.04
961.76	227.01
962.06	226.95
962.36	226.96
962.65	226.94
962.95	226.95
963.24	226.94
963.54	226.96
963.83	226.97
964.13	226.96
964.42	226.96
964.72	226.86
965.01	226.84
965.31	226.82
965.60	226.78
965.90	226.79
966.19	226.75
966.49	226.75
966.78	226.71
967.08	226.70
967.37	226.70
967.67	226.71
967.96	226.73
968.26	226.76
968.55	226.76
968.85	226.78
969.14	226.77
969.43	226.76
969.73	226.74
970.02	226.72
970.32	226.70
970.61	226.64
970.91	226.62
971.20	226.64
971.49	226.64
971.79	226.63
972.08	226.57
972.38	226.60
972.67	226.58
972.96	226.59
973.26	226.51
973.55	226.54
973.85	226.54
974.14	226.51
974.43	226.52
974.73	226.51
975.02	226.47
975.31	226.47
975.61	226.47
975.90	226.47
976.19	226.46
976.49	226.48
976.78	226.48
977.07	226.46
977.37	226.45
977.66	226.46
977.95	226.48
978.24	226.47
978.54	226.49
978.83	226.47
979.12	226.44
979.42	226.49
979.71	226.47
980.00	226.50
980.29	226.53
980.59	226.50
980.88	226.53
981.17	226.57
981.46	226.58
981.76	226.58
982.05	226.58
982.34	226.62
982.63	226.62
982.93	226.66
983.22	226.70
983.51	226.71
983.80	226.74
984.09	226.71
984.39	226.73
984.68	226.74
984.97	226.79
985.26	226.80
985.55	226.81
985.85	226.81
986.14	226.79
986.43	226.76
986.72	226.77
987.01	226.75
987.30	226.73
987.59	226.72
987.89	226.75
988.18	226.72
988.47	226.72
988.76	226.69
989.05	226.69
989.34	226.69
989.63	226.72
989.92	226.68
990.22	226.69
990.51	226.69
990.80	226.66
991.09	226.62
991.38	226.65
991.67	226.66
991.96	226.62
992.25	226.62
992.54	226.62
992.83	226.62
993.12	226.60
993.41	226.63
993.70	226.67
993.99	226.68
994.28	226.74
994.58	226.72
994.87	226.72
995.16	226.72
995.45	226.70
995.74	226.66
996.03	226.72
996.32	226.75
996.61	226.76
996.90	226.75
997.19	226.78
997.48	226.80
997.77	226.74
998.06	226.78
998.34	226.79
998.63	226.81
998.92	226.80
999.21	226.82
999.50	226.81
999.79	226.77
1000.08	226.77
1000.37	226.76
1000.66	226.77
1000.95	226.80
1001.24	226.80
1001.53	226.82
1001.82	226.82
1002.11	226.79
1002.40	226.81
1002.68	226.85
1002.97	226.92
1003.26	226.90
1003.55	226.89
1003.84	226.90
1004.13	226.92
1004.42	226.93
1004.71	226.94
1004.99	226.93
1005.28	226.92
1005.57	226.94
1005.86	226.92
1006.15	226.90
1006.44	226.86
1006.72	226.88
1007.01	226.85
1007.30	226.85
1007.59	226.82
1007.88	226.82
1008.17	226.79
1008.45	226.77
1008.74	226.73
1009.03	226.71
1009.32	226.71
1009.60	226.70
1009.89	226.73
1010.18	226.71
1010.47	226.70
1010.76	226.69
1011.04	226.69
1011.33	226.81
1011.62	226.79
1011.91	226.81
1012.19	226.86
1012.48	226.88
1012.77	226.89
1013.05	226.95
1013.34	226.93
1013.63	226.96
1013.92	226.98
1014.20	227.01
1014.49	227.01
1014.78	226.99
1015.06	226.97
1015.35	227.00
1015.64	227.02
1015.92	227.06
1016.21	227.04
1016.50	227.05
1016.78	227.07
1017.07	227.08
1017.36	227.00
1017.64	227.01
1017.93	227.01
1018.22	226.97
1018.50	226.99
1018.79	226.97
1019.08	226.91
1019.36	226.92
1019.65	226.91
1019.93	226.93
1020.22	226.93
1020.51	226.98
1020.79	226.97
1021.08	226.92
1021.36	227.11
1021.65	226.98
1021.94	226.29
1022.22	226.51
1022.51	226.99
1022.79	227.46
1023.08	226.85
1023.36	228.06
1023.65	226.32
>>>>>End Processed Spectral Data<<<<<
