SpectraSuite Data File
++++++++++++++++++++++++++++++++++++
Date: Fri Feb 01 16:44:11 EST 2013
User: group
Dark Spectrum Present: No
Reference Spectrum Present: No
Number of Sampled Component Spectra: 1
Spectrometers: USB2E7196
Integration Time (usec): 35000 (USB2E7196)
Spectra Averaged: 100 (USB2E7196)
Boxcar Smoothing: 10 (USB2E7196)
Correct for Electrical Dark: No (USB2E7196)
Strobe/Lamp Enabled: No (USB2E7196)
Correct for Detector Non-linearity: No (USB2E7196)
Correct for Stray Light: No (USB2E7196)
Number of Pixels in Processed Spectrum: 2048
>>>>>Begin Processed Spectral Data<<<<<
339.09	0.00
339.48	213.05
339.86	214.46
340.24	216.53
340.63	218.26
341.01	220.61
341.39	220.26
341.78	221.77
342.16	222.97
342.54	223.27
342.93	211.88
343.31	222.59
343.69	223.15
344.07	223.61
344.46	224.04
344.84	224.39
345.22	224.60
345.60	224.86
345.99	225.04
346.37	225.17
346.75	225.26
347.13	225.35
347.52	225.42
347.90	225.53
348.28	225.52
348.66	225.58
349.05	225.59
349.43	225.62
349.81	225.64
350.19	225.70
350.57	225.74
350.96	225.81
351.34	225.91
351.72	225.99
352.10	226.09
352.48	226.14
352.87	226.23
353.25	226.33
353.63	226.40
354.01	226.46
354.39	226.55
354.77	226.66
355.15	226.72
355.54	226.74
355.92	226.74
356.30	226.86
356.68	227.00
357.06	227.04
357.44	227.11
357.82	227.20
358.20	227.27
358.58	227.35
358.97	227.38
359.35	227.45
359.73	227.54
360.11	227.59
360.49	227.65
360.87	227.67
361.25	227.72
361.63	227.81
362.01	227.87
362.39	227.91
362.77	227.96
363.15	227.99
363.53	228.05
363.91	228.10
364.29	228.09
364.67	228.00
365.05	228.07
365.43	228.09
365.81	228.12
366.19	228.16
366.57	228.21
366.95	228.26
367.33	228.21
367.71	228.20
368.09	228.23
368.47	228.23
368.85	228.22
369.23	228.22
369.61	228.14
369.99	228.13
370.37	228.11
370.75	228.09
371.13	228.04
371.51	228.01
371.89	227.95
372.27	227.92
372.65	227.86
373.03	227.82
373.41	227.76
373.78	227.67
374.16	227.54
374.54	227.44
374.92	227.35
375.30	227.27
375.68	227.18
376.06	227.12
376.44	227.06
376.82	227.01
377.19	226.93
377.57	226.84
377.95	226.74
378.33	226.68
378.71	226.54
379.09	226.47
379.47	226.40
379.84	226.37
380.22	226.32
380.60	226.24
380.98	226.16
381.36	226.11
381.73	226.05
382.11	226.02
382.49	225.95
382.87	225.87
383.25	225.86
383.62	225.92
384.00	225.82
384.38	225.73
384.76	225.72
385.13	225.72
385.51	225.73
385.89	225.68
386.27	225.61
386.64	225.60
387.02	225.57
387.40	225.49
387.78	225.44
388.15	225.43
388.53	225.42
388.91	225.39
389.29	225.34
389.66	225.30
390.04	225.26
390.42	225.26
390.79	225.26
391.17	225.22
391.55	225.09
391.92	225.10
392.30	225.09
392.68	225.02
393.05	224.99
393.43	224.95
393.81	224.97
394.18	224.98
394.56	224.97
394.94	225.01
395.31	225.04
395.69	225.06
396.06	225.04
396.44	225.07
396.82	225.07
397.19	225.18
397.57	225.21
397.95	225.27
398.32	225.28
398.70	225.34
399.07	225.41
399.45	225.49
399.82	225.55
400.20	225.64
400.58	225.72
400.95	225.74
401.33	225.84
401.70	225.98
402.08	226.06
402.45	226.13
402.83	226.23
403.20	226.33
403.58	226.45
403.95	226.59
404.33	226.69
404.71	226.84
405.08	226.99
405.46	227.11
405.83	227.24
406.21	227.38
406.58	227.54
406.96	227.70
407.33	227.84
407.70	227.99
408.08	228.26
408.45	228.49
408.83	228.76
409.20	228.97
409.58	229.15
409.95	229.38
410.33	229.67
410.70	229.93
411.08	230.22
411.45	230.53
411.82	230.82
412.20	231.20
412.57	231.59
412.95	231.88
413.32	232.32
413.69	232.71
414.07	233.18
414.44	233.65
414.82	234.15
415.19	234.70
415.56	235.27
415.94	235.78
416.31	236.40
416.68	237.02
417.06	237.74
417.43	238.42
417.81	239.19
418.18	239.99
418.55	240.79
418.93	241.65
419.30	242.53
419.67	243.47
420.04	244.43
420.42	245.42
420.79	246.59
421.16	247.75
421.54	248.95
421.91	250.12
422.28	251.40
422.66	252.67
423.03	253.96
423.40	255.30
423.77	256.70
424.15	258.09
424.52	259.55
424.89	261.15
425.26	262.70
425.64	264.15
426.01	265.72
426.38	267.41
426.75	269.10
427.13	270.81
427.50	272.60
427.87	274.46
428.24	276.32
428.61	278.06
428.99	279.95
429.36	282.01
429.73	284.06
430.10	286.03
430.47	288.08
430.85	290.18
431.22	292.39
431.59	294.73
431.96	296.97
432.33	299.40
432.70	301.70
433.08	304.47
433.45	307.08
433.82	309.58
434.19	312.41
434.56	315.18
434.93	317.81
435.30	320.41
435.68	323.22
436.05	326.02
436.42	328.78
436.79	331.29
437.16	333.98
437.53	336.74
437.90	339.53
438.27	342.27
438.64	345.09
439.01	347.68
439.38	349.88
439.75	352.03
440.13	354.50
440.50	356.85
440.87	358.64
441.24	360.54
441.61	362.79
441.98	364.27
442.35	366.04
442.72	367.85
443.09	369.63
443.46	370.63
443.83	371.21
444.20	371.68
444.57	372.56
444.94	372.83
445.31	373.24
445.68	373.56
446.05	373.62
446.42	373.24
446.79	372.81
447.16	372.40
447.53	372.08
447.90	370.96
448.27	369.81
448.64	368.30
449.01	367.19
449.37	365.19
449.74	363.34
450.11	361.13
450.48	358.72
450.85	356.25
451.22	354.16
451.59	352.17
451.96	350.29
452.33	347.65
452.70	345.29
453.07	342.47
453.43	339.65
453.80	336.92
454.17	334.29
454.54	331.80
454.91	329.11
455.28	326.46
455.65	324.00
456.02	321.59
456.38	319.48
456.75	316.87
457.12	314.64
457.49	312.43
457.86	310.30
458.23	308.50
458.59	306.46
458.96	304.39
459.33	302.58
459.70	300.73
460.07	299.30
460.43	297.67
460.80	296.12
461.17	294.70
461.54	293.24
461.91	291.83
462.27	290.39
462.64	289.17
463.01	287.88
463.38	286.62
463.74	285.29
464.11	284.13
464.48	283.12
464.85	282.05
465.21	281.20
465.58	280.29
465.95	279.16
466.32	278.31
466.68	277.45
467.05	276.52
467.42	275.64
467.78	274.71
468.15	273.85
468.52	273.13
468.88	272.28
469.25	271.53
469.62	270.93
469.98	270.25
470.35	269.64
470.72	269.03
471.08	268.40
471.45	267.86
471.82	267.33
472.18	266.75
472.55	266.35
472.92	265.84
473.28	265.41
473.65	264.97
474.02	264.51
474.38	264.15
474.75	263.86
475.11	263.55
475.48	263.31
475.85	263.09
476.21	262.89
476.58	262.70
476.94	262.56
477.31	262.37
477.67	262.25
478.04	262.18
478.41	262.10
478.77	262.15
479.14	262.08
479.50	262.10
479.87	262.18
480.23	262.23
480.60	262.30
480.96	262.38
481.33	262.62
481.69	262.80
482.06	263.00
482.42	263.23
482.79	263.47
483.15	263.73
483.52	264.14
483.88	264.50
484.25	264.95
484.61	265.36
484.98	265.82
485.34	266.36
485.71	266.88
486.07	267.52
486.44	268.06
486.80	268.75
487.17	269.47
487.53	270.25
487.90	271.13
488.26	272.04
488.62	273.02
488.99	273.99
489.35	275.04
489.72	276.12
490.08	277.32
490.44	278.55
490.81	279.90
491.17	281.18
491.54	282.63
491.90	284.12
492.26	285.77
492.63	287.49
492.99	289.29
493.36	291.24
493.72	293.27
494.08	295.41
494.45	297.64
494.81	300.00
495.17	302.42
495.54	304.99
495.90	307.69
496.26	310.47
496.63	313.45
496.99	316.58
497.35	319.86
497.72	323.28
498.08	326.77
498.44	330.45
498.80	334.39
499.17	338.47
499.53	342.64
499.89	347.02
500.26	351.54
500.62	356.20
500.98	361.15
501.34	366.18
501.71	371.48
502.07	376.93
502.43	382.58
502.79	388.43
503.16	394.49
503.52	400.73
503.88	407.13
504.24	413.73
504.60	420.58
504.97	427.69
505.33	434.94
505.69	442.61
506.05	450.37
506.41	458.23
506.78	466.34
507.14	474.79
507.50	483.44
507.86	492.44
508.22	501.55
508.59	510.68
508.95	520.27
509.31	530.02
509.67	540.12
510.03	550.31
510.39	560.84
510.75	571.52
511.12	582.46
511.48	593.70
511.84	605.16
512.20	616.53
512.56	628.38
512.92	640.48
513.28	652.84
513.64	665.25
514.00	677.95
514.37	690.86
514.73	703.96
515.09	716.97
515.45	730.13
515.81	743.62
516.17	757.54
516.53	771.58
516.89	785.71
517.25	799.73
517.61	814.12
517.97	828.46
518.33	842.89
518.69	857.54
519.05	872.43
519.41	887.41
519.77	902.94
520.13	918.31
520.49	933.53
520.85	948.72
521.21	964.23
521.57	980.34
521.93	995.89
522.29	1011.91
522.65	1028.08
523.01	1044.20
523.37	1060.10
523.73	1076.21
524.09	1092.22
524.45	1108.39
524.81	1124.92
525.17	1141.52
525.53	1158.20
525.89	1174.87
526.25	1191.61
526.61	1207.78
526.97	1224.39
527.33	1240.68
527.68	1257.17
528.04	1273.53
528.40	1289.97
528.76	1306.97
529.12	1323.48
529.48	1340.32
529.84	1356.23
530.20	1372.66
530.56	1389.43
530.91	1406.74
531.27	1423.31
531.63	1439.47
531.99	1455.91
532.35	1471.79
532.71	1487.50
533.07	1503.56
533.42	1519.31
533.78	1535.22
534.14	1551.36
534.50	1566.54
534.86	1582.21
535.21	1597.19
535.57	1612.95
535.93	1628.31
536.29	1642.93
536.65	1657.64
537.00	1672.02
537.36	1687.22
537.72	1701.52
538.08	1715.83
538.44	1729.45
538.79	1743.15
539.15	1756.60
539.51	1770.13
539.87	1784.30
540.22	1797.82
540.58	1811.27
540.94	1824.34
541.29	1836.86
541.65	1849.38
542.01	1862.47
542.37	1874.65
542.72	1886.88
543.08	1898.51
543.44	1910.77
543.79	1921.91
544.15	1932.75
544.51	1944.37
544.87	1955.15
545.22	1965.87
545.58	1976.15
545.94	1985.87
546.29	1995.56
546.65	2005.54
547.01	2014.77
547.36	2023.26
547.72	2031.80
548.07	2040.03
548.43	2048.16
548.79	2055.99
549.14	2063.61
549.50	2070.78
549.86	2078.40
550.21	2085.70
550.57	2092.92
550.92	2099.38
551.28	2106.34
551.64	2113.39
551.99	2119.77
552.35	2125.83
552.70	2132.01
553.06	2137.90
553.41	2144.07
553.77	2150.03
554.13	2155.89
554.48	2162.00
554.84	2167.64
555.19	2172.72
555.55	2177.58
555.90	2181.89
556.26	2187.06
556.61	2191.62
556.97	2196.10
557.32	2200.26
557.68	2204.41
558.03	2208.66
558.39	2212.38
558.74	2216.89
559.10	2220.79
559.45	2224.39
559.81	2228.73
560.16	2232.46
560.52	2235.61
560.87	2239.05
561.23	2241.77
561.58	2244.74
561.94	2247.16
562.29	2249.26
562.64	2252.16
563.00	2254.87
563.35	2258.62
563.71	2261.73
564.06	2264.87
564.42	2267.70
564.77	2270.32
565.12	2272.66
565.48	2274.57
565.83	2276.47
566.19	2277.99
566.54	2278.94
566.89	2280.18
567.25	2280.93
567.60	2282.22
567.96	2284.04
568.31	2284.78
568.66	2285.92
569.02	2286.57
569.37	2287.16
569.72	2288.31
570.08	2288.58
570.43	2288.59
570.78	2288.05
571.14	2286.54
571.49	2285.17
571.84	2284.87
572.20	2283.79
572.55	2282.74
572.90	2281.02
573.26	2279.79
573.61	2278.05
573.96	2276.43
574.31	2273.63
574.67	2270.68
575.02	2267.15
575.37	2263.66
575.72	2260.14
576.08	2256.66
576.43	2253.22
576.78	2249.57
577.13	2246.36
577.49	2243.03
577.84	2239.72
578.19	2236.06
578.54	2232.67
578.90	2228.83
579.25	2223.31
579.60	2218.48
579.95	2213.61
580.30	2208.92
580.66	2203.74
581.01	2198.83
581.36	2193.96
581.71	2189.90
582.06	2185.64
582.42	2181.39
582.77	2176.37
583.12	2171.96
583.47	2167.69
583.82	2163.07
584.17	2157.94
584.53	2152.55
584.88	2147.13
585.23	2141.50
585.58	2136.02
585.93	2130.52
586.28	2125.65
586.63	2120.74
586.98	2115.74
587.34	2111.03
587.69	2106.05
588.04	2101.04
588.39	2095.57
588.74	2089.13
589.09	2083.08
589.44	2076.42
589.79	2070.33
590.14	2064.73
590.49	2058.14
590.84	2051.64
591.19	2045.55
591.54	2039.11
591.89	2031.95
592.25	2025.51
592.60	2018.41
592.95	2011.08
593.30	2003.87
593.65	1996.54
594.00	1989.50
594.35	1982.32
594.70	1974.34
595.05	1967.55
595.40	1960.25
595.75	1952.80
596.10	1946.73
596.45	1940.14
596.80	1934.00
597.15	1927.57
597.50	1920.76
597.85	1914.40
598.19	1908.03
598.54	1901.29
598.89	1894.78
599.24	1888.91
599.59	1882.25
599.94	1875.95
600.29	1869.67
600.64	1863.07
600.99	1855.67
601.34	1849.00
601.69	1842.01
602.04	1835.46
602.39	1828.02
602.74	1821.42
603.08	1814.92
603.43	1808.23
603.78	1800.83
604.13	1793.67
604.48	1786.60
604.83	1779.72
605.18	1772.95
605.53	1765.04
605.87	1756.97
606.22	1749.72
606.57	1741.86
606.92	1734.38
607.27	1727.42
607.62	1720.51
607.96	1713.43
608.31	1707.04
608.66	1699.50
609.01	1692.12
609.36	1684.59
609.70	1676.71
610.05	1668.69
610.40	1660.97
610.75	1652.71
611.10	1645.20
611.44	1636.82
611.79	1628.64
612.14	1620.02
612.49	1610.79
612.83	1602.29
613.18	1594.08
613.53	1585.92
613.88	1577.34
614.22	1569.15
614.57	1560.48
614.92	1552.56
615.27	1545.04
615.61	1536.63
615.96	1528.57
616.31	1520.95
616.65	1513.41
617.00	1505.83
617.35	1498.20
617.70	1489.99
618.04	1481.51
618.39	1473.24
618.74	1465.63
619.08	1457.43
619.43	1449.79
619.78	1442.95
620.12	1435.94
620.47	1428.50
620.82	1420.40
621.16	1413.00
621.51	1405.27
621.85	1397.67
622.20	1389.10
622.55	1380.73
622.89	1372.84
623.24	1365.10
623.59	1357.58
623.93	1350.16
624.28	1342.97
624.62	1335.31
624.97	1328.05
625.32	1321.34
625.66	1314.33
626.01	1307.25
626.35	1299.98
626.70	1292.32
627.04	1284.65
627.39	1276.81
627.73	1269.41
628.08	1262.56
628.43	1255.41
628.77	1248.25
629.12	1240.70
629.46	1233.62
629.81	1226.21
630.15	1219.05
630.50	1211.78
630.84	1203.77
631.19	1195.83
631.53	1188.33
631.88	1180.88
632.22	1173.28
632.57	1165.96
632.91	1158.49
633.26	1151.12
633.60	1143.60
633.95	1136.43
634.29	1129.25
634.64	1122.50
634.98	1115.26
635.32	1108.14
635.67	1101.49
636.01	1094.81
636.36	1088.20
636.70	1081.61
637.05	1075.01
637.39	1068.56
637.73	1062.13
638.08	1056.14
638.42	1050.19
638.77	1043.73
639.11	1037.16
639.45	1030.76
639.80	1024.17
640.14	1017.80
640.49	1011.16
640.83	1004.84
641.17	998.70
641.52	992.55
641.86	986.19
642.20	980.24
642.55	973.85
642.89	967.52
643.23	960.95
643.58	955.12
643.92	948.99
644.26	943.04
644.61	936.98
644.95	931.01
645.29	924.57
645.64	917.83
645.98	911.51
646.32	905.60
646.66	899.65
647.01	893.86
647.35	888.14
647.69	882.41
648.04	876.92
648.38	871.13
648.72	865.15
649.06	859.07
649.41	853.23
649.75	847.38
650.09	841.33
650.43	835.58
650.78	829.32
651.12	823.41
651.46	817.63
651.80	811.91
652.14	806.54
652.49	801.13
652.83	795.97
653.17	790.35
653.51	784.76
653.85	779.25
654.20	773.69
654.54	767.70
654.88	761.89
655.22	755.96
655.56	750.26
655.90	744.78
656.25	739.61
656.59	734.21
656.93	729.12
657.27	724.00
657.61	718.55
657.95	713.51
658.29	708.45
658.64	703.23
658.98	697.84
659.32	692.36
659.66	687.18
660.00	681.89
660.34	676.92
660.68	671.94
661.02	666.95
661.36	662.18
661.70	657.73
662.05	653.34
662.39	649.12
662.73	644.63
663.07	640.22
663.41	635.78
663.75	631.31
664.09	626.72
664.43	622.28
664.77	618.21
665.11	614.01
665.45	609.77
665.79	605.65
666.13	601.58
666.47	597.46
666.81	593.30
667.15	589.16
667.49	585.21
667.83	581.31
668.17	577.41
668.51	573.33
668.85	569.22
669.19	565.33
669.53	561.52
669.87	557.66
670.21	554.00
670.55	550.30
670.89	546.87
671.23	543.51
671.57	539.91
671.91	536.37
672.25	532.87
672.58	529.37
672.92	525.98
673.26	522.83
673.60	519.65
673.94	516.53
674.28	513.60
674.62	510.71
674.96	507.68
675.30	504.81
675.64	501.88
675.97	499.10
676.31	496.28
676.65	493.32
676.99	490.59
677.33	487.68
677.67	484.92
678.01	481.91
678.34	478.90
678.68	476.13
679.02	473.36
679.36	470.57
679.70	467.84
680.04	465.12
680.37	462.25
680.71	459.44
681.05	456.89
681.39	454.21
681.73	451.54
682.06	449.04
682.40	446.51
682.74	444.00
683.08	441.42
683.42	438.82
683.75	436.38
684.09	433.84
684.43	431.43
684.77	429.01
685.10	426.63
685.44	424.33
685.78	422.04
686.12	419.74
686.45	417.44
686.79	415.13
687.13	412.90
687.46	410.73
687.80	408.60
688.14	406.30
688.48	404.26
688.81	402.02
689.15	399.88
689.49	397.65
689.82	395.57
690.16	393.52
690.50	391.59
690.83	389.63
691.17	387.61
691.51	385.70
691.84	383.81
692.18	381.94
692.52	379.98
692.85	378.06
693.19	376.21
693.52	374.38
693.86	372.57
694.20	370.78
694.53	369.03
694.87	367.18
695.21	365.37
695.54	363.50
695.88	361.77
696.21	359.97
696.55	358.32
696.88	356.62
697.22	354.97
697.56	353.31
697.89	351.64
698.23	350.04
698.56	348.41
698.90	346.79
699.23	345.15
699.57	343.60
699.90	342.00
700.24	340.41
700.58	338.87
700.91	337.41
701.25	335.97
701.58	334.57
701.92	333.20
702.25	331.84
702.59	330.50
702.92	329.12
703.26	327.84
703.59	326.51
703.93	325.28
704.26	324.04
704.60	322.77
704.93	321.48
705.26	320.25
705.60	319.07
705.93	317.91
706.27	316.85
706.60	315.80
706.94	314.74
707.27	313.65
707.61	312.61
707.94	311.57
708.27	310.51
708.61	309.40
708.94	308.35
709.28	307.36
709.61	306.36
709.94	305.44
710.28	304.47
710.61	303.55
710.95	302.53
711.28	301.59
711.61	300.62
711.95	299.71
712.28	298.80
712.61	297.81
712.95	296.89
713.28	295.98
713.61	295.06
713.95	294.20
714.28	293.36
714.61	292.49
714.95	291.65
715.28	290.79
715.61	289.94
715.95	289.12
716.28	288.29
716.61	287.46
716.95	286.63
717.28	285.87
717.61	285.07
717.94	284.31
718.28	283.52
718.61	282.82
718.94	282.11
719.27	281.46
719.61	280.81
719.94	280.17
720.27	279.48
720.60	278.83
720.94	278.18
721.27	277.61
721.60	277.03
721.93	276.42
722.27	275.88
722.60	275.30
722.93	274.77
723.26	274.24
723.59	273.68
723.93	273.18
724.26	272.62
724.59	272.05
724.92	271.50
725.25	270.99
725.59	270.44
725.92	269.92
726.25	269.36
726.58	268.83
726.91	268.32
727.24	267.83
727.57	267.36
727.91	266.80
728.24	266.28
728.57	265.79
728.90	265.32
729.23	264.81
729.56	264.41
729.89	263.88
730.22	263.38
730.55	262.96
730.89	262.49
731.22	262.05
731.55	261.65
731.88	261.23
732.21	260.79
732.54	260.37
732.87	259.92
733.20	259.51
733.53	259.17
733.86	258.80
734.19	258.38
734.52	257.95
734.85	257.65
735.18	257.23
735.51	256.90
735.84	256.50
736.17	256.15
736.50	255.71
736.83	255.47
737.16	255.13
737.49	254.79
737.82	254.45
738.15	254.08
738.48	253.72
738.81	253.37
739.14	253.07
739.47	252.74
739.80	252.45
740.13	252.14
740.46	251.77
740.79	251.44
741.12	251.16
741.45	250.86
741.78	250.53
742.11	250.25
742.44	249.87
742.77	249.55
743.10	249.24
743.43	248.99
743.75	248.62
744.08	248.43
744.41	248.15
744.74	247.83
745.07	247.52
745.40	247.28
745.73	247.06
746.06	246.76
746.39	246.52
746.71	246.24
747.04	245.98
747.37	245.74
747.70	245.49
748.03	245.23
748.36	245.01
748.68	244.79
749.01	244.54
749.34	244.33
749.67	244.16
750.00	243.95
750.33	243.73
750.65	243.52
750.98	243.21
751.31	243.00
751.64	242.81
751.97	242.68
752.29	242.46
752.62	242.23
752.95	242.02
753.28	241.77
753.60	241.57
753.93	241.38
754.26	241.18
754.59	240.99
754.91	240.77
755.24	240.57
755.57	240.35
755.90	240.14
756.22	239.96
756.55	239.74
756.88	239.55
757.20	239.37
757.53	239.20
757.86	238.99
758.19	238.84
758.51	238.67
758.84	238.48
759.17	238.31
759.49	238.13
759.82	238.02
760.15	237.91
760.47	237.78
760.80	237.62
761.13	237.50
761.45	237.32
761.78	237.20
762.11	237.06
762.43	236.95
762.76	236.84
763.08	236.74
763.41	236.63
763.74	236.50
764.06	236.35
764.39	236.20
764.71	236.11
765.04	235.97
765.37	235.83
765.69	235.69
766.02	235.55
766.34	235.45
766.67	235.29
767.00	235.17
767.32	235.07
767.65	235.03
767.97	234.90
768.30	234.81
768.62	234.69
768.95	234.56
769.27	234.44
769.60	234.33
769.92	234.22
770.25	234.09
770.57	233.96
770.90	233.86
771.22	233.77
771.55	233.69
771.87	233.57
772.20	233.51
772.52	233.52
772.85	233.57
773.17	233.46
773.50	233.39
773.82	233.28
774.15	233.14
774.47	232.99
774.80	232.89
775.12	232.79
775.45	232.71
775.77	232.65
776.09	232.59
776.42	232.48
776.74	232.40
777.07	232.36
777.39	232.29
777.72	232.20
778.04	232.12
778.36	232.01
778.69	231.98
779.01	231.91
779.33	231.75
779.66	231.56
779.98	231.50
780.31	231.42
780.63	231.41
780.95	231.39
781.28	231.34
781.60	231.30
781.92	231.25
782.25	231.20
782.57	231.16
782.89	231.08
783.22	231.01
783.54	230.97
783.86	230.88
784.19	230.80
784.51	230.80
784.83	230.76
785.16	230.71
785.48	230.63
785.80	230.57
786.12	230.53
786.45	230.46
786.77	230.44
787.09	230.40
787.42	230.34
787.74	230.28
788.06	230.26
788.38	230.16
788.71	230.10
789.03	230.09
789.35	230.04
789.67	230.02
789.99	230.02
790.32	229.93
790.64	229.92
790.96	229.97
791.28	229.89
791.61	229.86
791.93	229.82
792.25	229.79
792.57	229.85
792.89	229.81
793.21	229.79
793.54	229.73
793.86	229.69
794.18	229.66
794.50	229.63
794.82	229.59
795.14	229.59
795.47	229.59
795.79	229.54
796.11	229.50
796.43	229.43
796.75	229.45
797.07	229.43
797.39	229.36
797.71	229.28
798.04	229.27
798.36	229.24
798.68	229.21
799.00	229.17
799.32	229.05
799.64	229.03
799.96	228.99
800.28	228.97
800.60	228.93
800.92	228.87
801.24	228.84
801.56	228.79
801.89	228.75
802.21	228.72
802.53	228.70
802.85	228.65
803.17	228.69
803.49	228.58
803.81	228.57
804.13	228.55
804.45	228.50
804.77	228.45
805.09	228.44
805.41	228.39
805.73	228.34
806.05	228.31
806.37	228.27
806.69	228.22
807.01	228.21
807.33	228.20
807.65	228.13
807.97	228.14
808.28	228.07
808.60	228.03
808.92	227.98
809.24	228.00
809.56	227.95
809.88	227.86
810.20	227.86
810.52	227.82
810.84	227.76
811.16	227.71
811.48	227.70
811.80	227.69
812.12	227.66
812.43	227.66
812.75	227.62
813.07	227.60
813.39	227.59
813.71	227.55
814.03	227.51
814.35	227.51
814.67	227.41
814.98	227.38
815.30	227.33
815.62	227.31
815.94	227.18
816.26	227.20
816.58	227.20
816.89	227.14
817.21	227.07
817.53	227.07
817.85	227.03
818.17	226.98
818.48	226.90
818.80	226.89
819.12	226.84
819.44	226.82
819.76	226.77
820.07	226.77
820.39	226.75
820.71	226.74
821.03	226.72
821.34	226.72
821.66	226.73
821.98	226.79
822.30	226.75
822.61	226.82
822.93	226.76
823.25	226.73
823.57	226.71
823.88	226.79
824.20	226.81
824.52	226.83
824.83	226.81
825.15	226.80
825.47	226.80
825.79	226.81
826.10	226.78
826.42	226.79
826.74	226.79
827.05	226.78
827.37	226.77
827.69	226.75
828.00	226.77
828.32	226.76
828.64	226.73
828.95	226.78
829.27	226.75
829.58	226.75
829.90	226.75
830.22	226.77
830.53	226.74
830.85	226.73
831.17	226.72
831.48	226.74
831.80	226.74
832.11	226.74
832.43	226.73
832.75	226.73
833.06	226.79
833.38	226.72
833.69	226.71
834.01	226.72
834.32	226.74
834.64	226.72
834.96	226.73
835.27	226.73
835.59	226.72
835.90	226.68
836.22	226.67
836.53	226.68
836.85	226.66
837.16	226.77
837.48	226.74
837.79	226.76
838.11	226.74
838.42	226.72
838.74	226.72
839.05	226.71
839.37	226.72
839.68	226.66
840.00	226.69
840.31	226.73
840.63	226.71
840.94	226.71
841.26	226.70
841.57	226.68
841.88	226.68
842.20	226.65
842.51	226.67
842.83	226.67
843.14	226.75
843.46	226.76
843.77	226.68
844.08	226.69
844.40	226.66
844.71	226.65
845.03	226.66
845.34	226.64
845.65	226.60
845.97	226.57
846.28	226.57
846.60	226.56
846.91	226.51
847.22	226.47
847.54	226.43
847.85	226.43
848.16	226.43
848.48	226.40
848.79	226.43
849.10	226.40
849.42	226.41
849.73	226.27
850.04	226.24
850.36	226.16
850.67	226.14
850.98	226.14
851.30	226.12
851.61	226.13
851.92	226.11
852.23	226.12
852.55	226.14
852.86	226.13
853.17	226.11
853.49	226.13
853.80	226.17
854.11	226.19
854.42	226.19
854.74	226.14
855.05	226.13
855.36	226.05
855.67	226.03
855.99	225.99
856.30	226.10
856.61	226.07
856.92	226.07
857.23	226.08
857.55	226.02
857.86	226.03
858.17	226.01
858.48	225.99
858.79	225.98
859.11	225.95
859.42	225.91
859.73	225.89
860.04	225.86
860.35	225.84
860.66	225.78
860.98	225.72
861.29	225.72
861.60	225.72
861.91	225.73
862.22	225.72
862.53	225.70
862.84	225.61
863.16	225.62
863.47	225.61
863.78	225.58
864.09	225.58
864.40	225.56
864.71	225.55
865.02	225.57
865.33	225.57
865.64	225.55
865.95	225.58
866.27	225.64
866.58	225.63
866.89	225.60
867.20	225.62
867.51	225.61
867.82	225.61
868.13	225.66
868.44	225.63
868.75	225.64
869.06	225.65
869.37	225.66
869.68	225.66
869.99	225.69
870.30	225.69
870.61	225.75
870.92	225.75
871.23	225.80
871.54	225.82
871.85	225.83
872.16	225.85
872.47	225.85
872.78	225.81
873.09	225.83
873.40	225.84
873.71	225.85
874.02	225.88
874.33	225.83
874.64	225.78
874.95	225.83
875.26	225.85
875.56	225.88
875.87	225.90
876.18	225.94
876.49	226.02
876.80	226.02
877.11	225.99
877.42	226.01
877.73	225.99
878.04	225.98
878.35	225.99
878.66	225.99
878.96	225.99
879.27	225.98
879.58	226.01
879.89	226.03
880.20	226.08
880.51	226.08
880.82	226.14
881.12	226.15
881.43	226.10
881.74	226.10
882.05	226.07
882.36	226.07
882.67	226.04
882.97	225.96
883.28	225.96
883.59	225.97
883.90	225.98
884.21	226.02
884.51	226.01
884.82	226.00
885.13	226.02
885.44	226.00
885.74	226.02
886.05	225.99
886.36	225.98
886.67	225.93
886.98	226.00
887.28	225.99
887.59	226.01
887.90	226.01
888.20	226.02
888.51	226.03
888.82	225.98
889.13	226.01
889.43	226.07
889.74	226.08
890.05	226.04
890.35	226.00
890.66	225.92
890.97	225.90
891.28	225.90
891.58	225.86
891.89	225.87
892.20	225.82
892.50	225.80
892.81	225.78
893.12	225.77
893.42	225.67
893.73	225.66
894.04	225.65
894.34	225.64
894.65	225.59
894.95	225.55
895.26	225.53
895.57	225.56
895.87	225.45
896.18	225.43
896.48	225.44
896.79	225.41
897.10	225.46
897.40	225.47
897.71	225.44
898.01	225.42
898.32	225.41
898.63	225.44
898.93	225.44
899.24	225.46
899.54	225.42
899.85	225.42
900.15	225.41
900.46	225.41
900.76	225.43
901.07	225.43
901.38	225.42
901.68	225.44
901.99	225.38
902.29	225.39
902.60	225.35
902.90	225.33
903.21	225.36
903.51	225.32
903.82	225.35
904.12	225.35
904.43	225.38
904.73	225.38
905.03	225.40
905.34	225.48
905.64	225.44
905.95	225.48
906.25	225.48
906.56	225.51
906.86	225.51
907.17	225.50
907.47	225.53
907.77	225.59
908.08	225.61
908.38	225.61
908.69	225.64
908.99	225.68
909.30	225.73
909.60	225.73
909.90	225.78
910.21	225.73
910.51	225.76
910.81	225.77
911.12	225.80
911.42	225.80
911.73	225.73
912.03	225.75
912.33	225.80
912.64	225.83
912.94	225.83
913.24	225.83
913.55	225.85
913.85	225.83
914.15	225.83
914.46	225.82
914.76	225.85
915.06	225.86
915.37	225.84
915.67	225.86
915.97	225.89
916.27	225.89
916.58	225.92
916.88	225.93
917.18	225.94
917.49	226.00
917.79	226.04
918.09	226.05
918.39	226.11
918.70	226.10
919.00	226.09
919.30	226.16
919.60	226.15
919.91	226.15
920.21	226.16
920.51	226.13
920.81	226.19
921.12	226.18
921.42	226.14
921.72	226.17
922.02	226.16
922.32	226.17
922.63	226.16
922.93	226.18
923.23	226.16
923.53	226.12
923.83	226.07
924.13	226.05
924.44	226.03
924.74	226.05
925.04	226.04
925.34	226.04
925.64	225.94
925.94	225.95
926.24	226.00
926.55	225.97
926.85	225.97
927.15	225.95
927.45	225.94
927.75	225.93
928.05	225.90
928.35	225.87
928.65	225.86
928.95	225.80
929.26	225.76
929.56	225.78
929.86	225.81
930.16	225.79
930.46	225.75
930.76	225.75
931.06	225.68
931.36	225.62
931.66	225.61
931.96	225.64
932.26	225.61
932.56	225.54
932.86	225.55
933.16	225.52
933.46	225.47
933.76	225.44
934.06	225.45
934.36	225.47
934.66	225.45
934.96	225.41
935.26	225.47
935.56	225.47
935.86	225.41
936.16	225.36
936.46	225.32
936.76	225.32
937.06	225.29
937.36	225.27
937.66	225.27
937.96	225.25
938.26	225.20
938.56	225.19
938.86	225.19
939.16	225.20
939.46	225.22
939.76	225.22
940.06	225.22
940.35	225.21
940.65	225.15
940.95	225.15
941.25	225.15
941.55	225.12
941.85	225.09
942.15	225.10
942.45	225.15
942.75	225.13
943.04	225.15
943.34	225.14
943.64	225.14
943.94	225.14
944.24	225.14
944.54	225.16
944.84	225.15
945.13	225.14
945.43	225.11
945.73	225.09
946.03	225.07
946.33	225.08
946.62	225.06
946.92	225.08
947.22	225.07
947.52	225.06
947.82	225.07
948.11	225.13
948.41	225.10
948.71	225.11
949.01	225.15
949.31	225.16
949.60	225.17
949.90	225.20
950.20	225.20
950.50	225.20
950.79	225.19
951.09	225.23
951.39	225.25
951.69	225.27
951.98	225.32
952.28	225.36
952.58	225.37
952.87	225.39
953.17	225.43
953.47	225.46
953.76	225.47
954.06	225.43
954.36	225.40
954.66	225.41
954.95	225.44
955.25	225.44
955.55	225.43
955.84	225.45
956.14	225.46
956.44	225.51
956.73	225.55
957.03	225.58
957.32	225.58
957.62	225.56
957.92	225.58
958.21	225.60
958.51	225.73
958.81	225.74
959.10	225.79
959.40	225.81
959.69	225.83
959.99	225.88
960.29	225.91
960.58	225.91
960.88	225.95
961.17	225.93
961.47	225.96
961.76	225.96
962.06	225.95
962.36	225.92
962.65	225.90
962.95	225.85
963.24	225.85
963.54	225.84
963.83	225.85
964.13	225.87
964.42	225.81
964.72	225.70
965.01	225.70
965.31	225.67
965.60	225.62
965.90	225.65
966.19	225.61
966.49	225.60
966.78	225.59
967.08	225.59
967.37	225.56
967.67	225.54
967.96	225.52
968.26	225.51
968.55	225.52
968.85	225.52
969.14	225.52
969.43	225.51
969.73	225.51
970.02	225.50
970.32	225.44
970.61	225.44
970.91	225.42
971.20	225.41
971.49	225.37
971.79	225.38
972.08	225.33
972.38	225.34
972.67	225.31
972.96	225.31
973.26	225.28
973.55	225.30
973.85	225.27
974.14	225.26
974.43	225.26
974.73	225.22
975.02	225.20
975.31	225.19
975.61	225.19
975.90	225.18
976.19	225.18
976.49	225.22
976.78	225.23
977.07	225.21
977.37	225.19
977.66	225.21
977.95	225.22
978.24	225.21
978.54	225.23
978.83	225.24
979.12	225.27
979.42	225.24
979.71	225.23
980.00	225.24
980.29	225.29
980.59	225.28
980.88	225.30
981.17	225.32
981.46	225.32
981.76	225.34
982.05	225.37
982.34	225.37
982.63	225.35
982.93	225.34
983.22	225.40
983.51	225.42
983.80	225.44
984.09	225.42
984.39	225.43
984.68	225.41
984.97	225.40
985.26	225.39
985.55	225.41
985.85	225.38
986.14	225.40
986.43	225.39
986.72	225.41
987.01	225.40
987.30	225.38
987.59	225.41
987.89	225.38
988.18	225.33
988.47	225.34
988.76	225.33
989.05	225.30
989.34	225.28
989.63	225.30
989.92	225.25
990.22	225.27
990.51	225.25
990.80	225.26
991.09	225.27
991.38	225.28
991.67	225.33
991.96	225.34
992.25	225.33
992.54	225.30
992.83	225.31
993.12	225.34
993.41	225.35
993.70	225.36
993.99	225.40
994.28	225.42
994.58	225.41
994.87	225.44
995.16	225.47
995.45	225.47
995.74	225.45
996.03	225.49
996.32	225.48
996.61	225.51
996.90	225.50
997.19	225.50
997.48	225.50
997.77	225.47
998.06	225.48
998.34	225.48
998.63	225.49
998.92	225.48
999.21	225.48
999.50	225.52
999.79	225.49
1000.08	225.50
1000.37	225.49
1000.66	225.51
1000.95	225.51
1001.24	225.50
1001.53	225.50
1001.82	225.49
1002.11	225.45
1002.40	225.45
1002.68	225.46
1002.97	225.54
1003.26	225.50
1003.55	225.49
1003.84	225.51
1004.13	225.55
1004.42	225.54
1004.71	225.54
1004.99	225.52
1005.28	225.53
1005.57	225.47
1005.86	225.46
1006.15	225.40
1006.44	225.38
1006.72	225.36
1007.01	225.35
1007.30	225.36
1007.59	225.38
1007.88	225.37
1008.17	225.36
1008.45	225.34
1008.74	225.31
1009.03	225.26
1009.32	225.27
1009.60	225.26
1009.89	225.21
1010.18	225.17
1010.47	225.17
1010.76	225.14
1011.04	225.16
1011.33	225.17
1011.62	225.18
1011.91	225.16
1012.19	225.17
1012.48	225.19
1012.77	225.18
1013.05	225.21
1013.34	225.18
1013.63	225.12
1013.92	225.13
1014.20	225.15
1014.49	225.16
1014.78	225.19
1015.06	225.12
1015.35	225.11
1015.64	225.08
1015.92	225.10
1016.21	225.10
1016.50	225.06
1016.78	225.09
1017.07	225.07
1017.36	225.05
1017.64	225.04
1017.93	225.05
1018.22	225.07
1018.50	225.06
1018.79	225.05
1019.08	225.03
1019.36	225.05
1019.65	225.08
1019.93	225.08
1020.22	225.11
1020.51	225.14
1020.79	225.11
1021.08	225.09
1021.36	224.93
1021.65	224.60
1021.94	225.81
1022.22	225.40
1022.51	225.34
1022.79	225.17
1023.08	225.68
1023.36	226.17
1023.65	224.86
>>>>>End Processed Spectral Data<<<<<
