SpectraSuite Data File
++++++++++++++++++++++++++++++++++++
Date: Fri Feb 01 15:44:57 EST 2013
User: group
Dark Spectrum Present: No
Reference Spectrum Present: No
Number of Sampled Component Spectra: 1
Spectrometers: USB2E7196
Integration Time (usec): 35000 (USB2E7196)
Spectra Averaged: 100 (USB2E7196)
Boxcar Smoothing: 10 (USB2E7196)
Correct for Electrical Dark: No (USB2E7196)
Strobe/Lamp Enabled: No (USB2E7196)
Correct for Detector Non-linearity: No (USB2E7196)
Correct for Stray Light: No (USB2E7196)
Number of Pixels in Processed Spectrum: 2048
>>>>>Begin Processed Spectral Data<<<<<
339.09	0.00
339.48	214.81
339.86	216.64
340.24	217.64
340.63	218.85
341.01	222.29
341.39	221.99
341.78	223.42
342.16	224.07
342.54	224.40
342.93	213.09
343.31	223.90
343.69	224.44
344.07	224.88
344.46	225.30
344.84	225.72
345.22	225.93
345.60	226.15
345.99	226.29
346.37	226.43
346.75	226.54
347.13	226.63
347.52	226.73
347.90	226.79
348.28	226.88
348.66	226.92
349.05	226.90
349.43	226.97
349.81	227.03
350.19	227.06
350.57	227.14
350.96	227.16
351.34	227.18
351.72	227.28
352.10	227.41
352.48	227.49
352.87	227.50
353.25	227.60
353.63	227.66
354.01	227.75
354.39	227.84
354.77	227.96
355.15	228.05
355.54	228.12
355.92	228.16
356.30	228.22
356.68	228.35
357.06	228.46
357.44	228.52
357.82	228.61
358.20	228.71
358.58	228.77
358.97	228.85
359.35	228.96
359.73	229.03
360.11	229.05
360.49	229.13
360.87	229.21
361.25	229.27
361.63	229.37
362.01	229.46
362.39	229.49
362.77	229.51
363.15	229.55
363.53	229.58
363.91	229.63
364.29	229.64
364.67	229.57
365.05	229.60
365.43	229.60
365.81	229.60
366.19	229.61
366.57	229.66
366.95	229.66
367.33	229.60
367.71	229.58
368.09	229.60
368.47	229.56
368.85	229.53
369.23	229.51
369.61	229.44
369.99	229.42
370.37	229.36
370.75	229.36
371.13	229.28
371.51	229.22
371.89	229.14
372.27	229.09
372.65	229.05
373.03	229.00
373.41	228.96
373.78	228.89
374.16	228.80
374.54	228.68
374.92	228.61
375.30	228.60
375.68	228.52
376.06	228.47
376.44	228.38
376.82	228.31
377.19	228.24
377.57	228.16
377.95	228.05
378.33	227.99
378.71	227.83
379.09	227.79
379.47	227.72
379.84	227.64
380.22	227.56
380.60	227.47
380.98	227.36
381.36	227.30
381.73	227.22
382.11	227.16
382.49	227.12
382.87	227.04
383.25	226.96
383.62	226.99
384.00	226.90
384.38	226.82
384.76	226.77
385.13	226.73
385.51	226.68
385.89	226.61
386.27	226.54
386.64	226.51
387.02	226.45
387.40	226.37
387.78	226.36
388.15	226.32
388.53	226.27
388.91	226.25
389.29	226.21
389.66	226.20
390.04	226.16
390.42	226.14
390.79	226.09
391.17	226.08
391.55	225.99
391.92	225.99
392.30	226.03
392.68	226.02
393.05	226.02
393.43	226.04
393.81	226.08
394.18	226.12
394.56	226.16
394.94	226.18
395.31	226.22
395.69	226.28
396.06	226.35
396.44	226.39
396.82	226.42
397.19	226.49
397.57	226.53
397.95	226.64
398.32	226.67
398.70	226.76
399.07	226.81
399.45	226.87
399.82	226.94
400.20	227.00
400.58	227.06
400.95	227.09
401.33	227.19
401.70	227.28
402.08	227.37
402.45	227.47
402.83	227.59
403.20	227.72
403.58	227.78
403.95	227.90
404.33	228.07
404.71	228.21
405.08	228.42
405.46	228.54
405.83	228.65
406.21	228.82
406.58	228.98
406.96	229.16
407.33	229.31
407.70	229.51
408.08	229.77
408.45	230.02
408.83	230.26
409.20	230.45
409.58	230.68
409.95	230.94
410.33	231.23
410.70	231.47
411.08	231.75
411.45	232.06
411.82	232.35
412.20	232.69
412.57	233.11
412.95	233.37
413.32	233.78
413.69	234.21
414.07	234.65
414.44	235.12
414.82	235.58
415.19	236.17
415.56	236.68
415.94	237.24
416.31	237.87
416.68	238.53
417.06	239.24
417.43	239.93
417.81	240.68
418.18	241.45
418.55	242.31
418.93	243.16
419.30	244.06
419.67	245.04
420.04	245.97
420.42	246.94
420.79	248.14
421.16	249.29
421.54	250.48
421.91	251.66
422.28	252.91
422.66	254.22
423.03	255.51
423.40	256.86
423.77	258.25
424.15	259.64
424.52	261.11
424.89	262.74
425.26	264.28
425.64	265.73
426.01	267.32
426.38	268.95
426.75	270.60
427.13	272.34
427.50	274.14
427.87	276.03
428.24	277.89
428.61	279.62
428.99	281.57
429.36	283.63
429.73	285.75
430.10	287.82
430.47	289.90
430.85	292.04
431.22	294.31
431.59	296.68
431.96	298.92
432.33	301.43
432.70	303.74
433.08	306.55
433.45	309.19
433.82	311.81
434.19	314.71
434.56	317.54
434.93	320.21
435.30	322.83
435.68	325.71
436.05	328.53
436.42	331.31
436.79	333.83
437.16	336.58
437.53	339.43
437.90	342.19
438.27	344.97
438.64	347.76
439.01	350.33
439.38	352.58
439.75	354.75
440.13	357.20
440.50	359.57
440.87	361.42
441.24	363.33
441.61	365.49
441.98	366.97
442.35	368.74
442.72	370.57
443.09	372.37
443.46	373.37
443.83	373.97
444.20	374.50
444.57	375.33
444.94	375.57
445.31	375.86
445.68	376.21
446.05	376.27
446.42	375.91
446.79	375.48
447.16	375.01
447.53	374.76
447.90	373.64
448.27	372.49
448.64	370.89
449.01	369.77
449.37	367.82
449.74	365.92
450.11	363.72
450.48	361.23
450.85	358.69
451.22	356.53
451.59	354.47
451.96	352.47
452.33	349.89
452.70	347.56
453.07	344.74
453.43	341.83
453.80	339.03
454.17	336.36
454.54	333.81
454.91	331.07
455.28	328.35
455.65	325.86
456.02	323.39
456.38	321.27
456.75	318.61
457.12	316.33
457.49	314.11
457.86	311.96
458.23	310.14
458.59	308.08
458.96	306.04
459.33	304.19
459.70	302.38
460.07	300.88
460.43	299.17
460.80	297.55
461.17	296.12
461.54	294.69
461.91	293.25
462.27	291.81
462.64	290.62
463.01	289.28
463.38	287.92
463.74	286.59
464.11	285.42
464.48	284.40
464.85	283.30
465.21	282.47
465.58	281.52
465.95	280.43
466.32	279.55
466.68	278.60
467.05	277.74
467.42	276.84
467.78	275.90
468.15	274.99
468.52	274.32
468.88	273.45
469.25	272.63
469.62	272.02
469.98	271.38
470.35	270.71
470.72	270.11
471.08	269.52
471.45	268.92
471.82	268.38
472.18	267.79
472.55	267.36
472.92	266.84
473.28	266.38
473.65	265.88
474.02	265.44
474.38	265.09
474.75	264.79
475.11	264.45
475.48	264.20
475.85	264.03
476.21	263.80
476.58	263.64
476.94	263.50
477.31	263.32
477.67	263.13
478.04	263.02
478.41	262.98
478.77	263.05
479.14	263.04
479.50	263.04
479.87	263.11
480.23	263.16
480.60	263.22
480.96	263.32
481.33	263.58
481.69	263.76
482.06	263.97
482.42	264.15
482.79	264.42
483.15	264.77
483.52	265.11
483.88	265.46
484.25	265.86
484.61	266.27
484.98	266.73
485.34	267.35
485.71	267.96
486.07	268.56
486.44	269.10
486.80	269.82
487.17	270.56
487.53	271.41
487.90	272.31
488.26	273.24
488.62	274.24
488.99	275.21
489.35	276.28
489.72	277.39
490.08	278.61
490.44	279.84
490.81	281.14
491.17	282.51
491.54	284.00
491.90	285.55
492.26	287.21
492.63	288.93
492.99	290.70
493.36	292.59
493.72	294.62
494.08	296.75
494.45	299.00
494.81	301.35
495.17	303.76
495.54	306.32
495.90	309.00
496.26	311.79
496.63	314.73
496.99	317.85
497.35	321.10
497.72	324.50
498.08	328.00
498.44	331.65
498.80	335.57
499.17	339.61
499.53	343.76
499.89	348.15
500.26	352.65
500.62	357.31
500.98	362.25
501.34	367.37
501.71	372.64
502.07	378.06
502.43	383.68
502.79	389.52
503.16	395.58
503.52	401.88
503.88	408.28
504.24	414.91
504.60	421.81
504.97	428.91
505.33	436.25
505.69	444.01
506.05	451.78
506.41	459.68
506.78	467.82
507.14	476.29
507.50	485.05
507.86	494.06
508.22	503.26
508.59	512.48
508.95	522.00
509.31	531.86
509.67	542.00
510.03	552.31
510.39	562.83
510.75	573.61
511.12	584.47
511.48	595.84
511.84	607.33
512.20	618.83
512.56	630.82
512.92	642.96
513.28	655.23
513.64	667.74
514.00	680.41
514.37	693.36
514.73	706.39
515.09	719.33
515.45	732.72
515.81	746.32
516.17	760.31
516.53	774.44
516.89	788.63
517.25	802.80
517.61	817.18
517.97	831.63
518.33	846.07
518.69	860.85
519.05	875.79
519.41	890.90
519.77	906.49
520.13	921.94
520.49	937.40
520.85	952.88
521.21	968.66
521.57	984.82
521.93	1000.51
522.29	1016.86
522.65	1033.17
523.01	1049.30
523.37	1065.27
523.73	1081.43
524.09	1097.51
524.45	1113.89
524.81	1130.51
525.17	1147.49
525.53	1164.47
525.89	1181.38
526.25	1198.29
526.61	1214.72
526.97	1231.56
527.33	1248.03
527.68	1264.68
528.04	1281.07
528.40	1297.69
528.76	1314.77
529.12	1331.54
529.48	1348.55
529.84	1364.61
530.20	1381.31
530.56	1398.30
530.91	1415.73
531.27	1432.49
531.63	1449.05
531.99	1465.58
532.35	1481.58
532.71	1497.29
533.07	1513.55
533.42	1529.42
533.78	1545.35
534.14	1561.65
534.50	1576.98
534.86	1592.83
535.21	1607.90
535.57	1623.96
535.93	1639.45
536.29	1654.20
536.65	1669.18
537.00	1683.81
537.36	1699.22
537.72	1713.74
538.08	1728.20
538.44	1742.03
538.79	1755.87
539.15	1769.63
539.51	1783.44
539.87	1797.76
540.22	1811.56
540.58	1825.32
540.94	1838.61
541.29	1851.57
541.65	1864.34
542.01	1877.53
542.37	1889.74
542.72	1902.26
543.08	1913.89
543.44	1926.35
543.79	1937.66
544.15	1948.66
544.51	1960.31
544.87	1971.17
545.22	1981.97
545.58	1992.17
545.94	2001.98
546.29	2011.86
546.65	2021.48
547.01	2030.61
547.36	2039.36
547.72	2047.73
548.07	2055.55
548.43	2063.71
548.79	2071.86
549.14	2079.25
549.50	2086.54
549.86	2094.41
550.21	2101.70
550.57	2108.99
550.92	2115.41
551.28	2122.42
551.64	2129.41
551.99	2135.88
552.35	2142.04
552.70	2148.24
553.06	2154.33
553.41	2160.54
553.77	2166.69
554.13	2172.81
554.48	2178.90
554.84	2184.29
555.19	2189.58
555.55	2194.73
555.90	2199.23
556.26	2203.89
556.61	2208.68
556.97	2213.00
557.32	2217.08
557.68	2221.20
558.03	2225.40
558.39	2229.11
558.74	2233.73
559.10	2237.55
559.45	2241.26
559.81	2245.63
560.16	2249.38
560.52	2252.49
560.87	2256.04
561.23	2258.64
561.58	2261.70
561.94	2264.42
562.29	2266.80
562.64	2269.40
563.00	2271.99
563.35	2275.56
563.71	2278.72
564.06	2281.82
564.42	2284.73
564.77	2287.23
565.12	2289.48
565.48	2291.46
565.83	2293.31
566.19	2294.52
566.54	2295.65
566.89	2296.71
567.25	2297.28
567.60	2298.61
567.96	2300.27
568.31	2301.06
568.66	2302.04
569.02	2302.53
569.37	2302.74
569.72	2303.48
570.08	2303.70
570.43	2303.75
570.78	2303.08
571.14	2301.51
571.49	2300.29
571.84	2300.01
572.20	2298.74
572.55	2297.73
572.90	2296.10
573.26	2294.80
573.61	2293.11
573.96	2291.15
574.31	2288.16
574.67	2285.12
575.02	2281.46
575.37	2278.10
575.72	2274.33
576.08	2271.17
576.43	2267.84
576.78	2264.14
577.13	2261.12
577.49	2258.04
577.84	2254.47
578.19	2250.84
578.54	2247.22
578.90	2242.89
579.25	2237.23
579.60	2232.45
579.95	2227.40
580.30	2222.35
580.66	2217.08
581.01	2212.20
581.36	2207.22
581.71	2203.08
582.06	2198.53
582.42	2194.13
582.77	2188.92
583.12	2184.26
583.47	2179.32
583.82	2174.12
584.17	2168.79
584.53	2163.18
584.88	2157.53
585.23	2151.66
585.58	2146.05
585.93	2140.58
586.28	2135.84
586.63	2130.71
586.98	2125.53
587.34	2120.89
587.69	2116.10
588.04	2110.89
588.39	2105.14
588.74	2098.82
589.09	2092.67
589.44	2085.89
589.79	2079.75
590.14	2074.09
590.49	2067.54
590.84	2061.30
591.19	2055.47
591.54	2049.13
591.89	2041.77
592.25	2035.06
592.60	2027.82
592.95	2020.23
593.30	2012.79
593.65	2005.26
594.00	1998.27
594.35	1990.90
594.70	1982.69
595.05	1975.38
595.40	1968.05
595.75	1960.58
596.10	1954.25
596.45	1947.55
596.80	1941.33
597.15	1934.61
597.50	1927.37
597.85	1920.98
598.19	1914.30
598.54	1906.96
598.89	1900.27
599.24	1894.29
599.59	1887.53
599.94	1881.50
600.29	1875.25
600.64	1868.80
600.99	1861.28
601.34	1854.48
601.69	1847.67
602.04	1840.88
602.39	1833.51
602.74	1826.61
603.08	1819.82
603.43	1813.20
603.78	1805.80
604.13	1798.75
604.48	1791.44
604.83	1784.78
605.18	1777.71
605.53	1769.76
605.87	1761.94
606.22	1754.53
606.57	1746.63
606.92	1739.27
607.27	1731.97
607.62	1725.04
607.96	1717.63
608.31	1710.89
608.66	1703.19
609.01	1695.42
609.36	1687.78
609.70	1679.83
610.05	1671.87
610.40	1664.06
610.75	1655.56
611.10	1647.87
611.44	1639.43
611.79	1631.57
612.14	1622.76
612.49	1613.58
612.83	1605.09
613.18	1596.99
613.53	1589.00
613.88	1580.42
614.22	1572.11
614.57	1563.47
614.92	1555.46
615.27	1548.01
615.61	1539.72
615.96	1531.73
616.31	1524.33
616.65	1516.93
617.00	1509.36
617.35	1501.67
617.70	1493.43
618.04	1484.95
618.39	1476.82
618.74	1469.16
619.08	1460.87
619.43	1453.29
619.78	1446.49
620.12	1439.27
620.47	1431.69
620.82	1423.54
621.16	1416.26
621.51	1408.70
621.85	1401.22
622.20	1392.65
622.55	1384.23
622.89	1376.51
623.24	1368.91
623.59	1361.40
623.93	1353.89
624.28	1346.61
624.62	1339.01
624.97	1331.76
625.32	1325.11
625.66	1318.03
626.01	1310.73
626.35	1303.18
626.70	1295.48
627.04	1287.64
627.39	1279.93
627.73	1272.45
628.08	1265.50
628.43	1258.17
628.77	1250.73
629.12	1243.03
629.46	1235.84
629.81	1228.43
630.15	1221.09
630.50	1213.56
630.84	1205.40
631.19	1197.62
631.53	1190.09
631.88	1182.60
632.22	1174.98
632.57	1167.62
632.91	1160.04
633.26	1152.60
633.60	1145.22
633.95	1138.12
634.29	1131.09
634.64	1124.50
634.98	1117.22
635.32	1110.14
635.67	1103.52
636.01	1096.92
636.36	1090.17
636.70	1083.60
637.05	1077.07
637.39	1070.62
637.73	1064.17
638.08	1058.25
638.42	1052.23
638.77	1045.78
639.11	1039.13
639.45	1032.79
639.80	1026.07
640.14	1019.69
640.49	1013.29
640.83	1007.05
641.17	1000.71
641.52	994.36
641.86	987.86
642.20	981.91
642.55	975.59
642.89	969.12
643.23	962.60
643.58	956.83
643.92	950.68
644.26	944.58
644.61	938.57
644.95	932.51
645.29	925.87
645.64	918.99
645.98	912.70
646.32	906.85
646.66	900.89
647.01	895.08
647.35	889.39
647.69	883.54
648.04	877.97
648.38	872.22
648.72	866.23
649.06	860.06
649.41	854.27
649.75	848.33
650.09	842.37
650.43	836.52
650.78	830.32
651.12	824.33
651.46	818.61
651.80	812.78
652.14	807.49
652.49	802.14
652.83	797.00
653.17	791.30
653.51	785.57
653.85	780.21
654.20	774.58
654.54	768.63
654.88	762.91
655.22	757.05
655.56	751.43
655.90	746.02
656.25	740.84
656.59	735.45
656.93	730.30
657.27	725.16
657.61	719.74
657.95	714.72
658.29	709.63
658.64	704.33
658.98	699.20
659.32	693.65
659.66	688.49
660.00	683.23
660.34	678.25
660.68	673.39
661.02	668.28
661.36	663.59
661.70	659.02
662.05	654.64
662.39	650.35
662.73	645.80
663.07	641.38
663.41	636.91
663.75	632.39
664.09	627.86
664.43	623.46
664.77	619.40
665.11	615.10
665.45	610.97
665.79	606.91
666.13	602.70
666.47	598.61
666.81	594.38
667.15	590.25
667.49	586.38
667.83	582.58
668.17	578.72
668.51	574.69
668.85	570.67
669.19	566.84
669.53	562.93
669.87	559.10
670.21	555.46
670.55	551.82
670.89	548.40
671.23	544.97
671.57	541.38
671.91	537.86
672.25	534.34
672.58	530.86
672.92	527.50
673.26	524.26
673.60	521.12
673.94	518.03
674.28	515.15
674.62	512.16
674.96	509.05
675.30	506.01
675.64	503.04
675.97	500.29
676.31	497.38
676.65	494.43
676.99	491.72
677.33	488.84
677.67	486.02
678.01	483.01
678.34	479.94
678.68	477.08
679.02	474.22
679.36	471.51
679.70	468.74
680.04	465.93
680.37	463.08
680.71	460.28
681.05	457.69
681.39	454.93
681.73	452.29
682.06	449.76
682.40	447.24
682.74	444.65
683.08	442.10
683.42	439.53
683.75	437.05
684.09	434.52
684.43	432.04
684.77	429.54
685.10	427.15
685.44	424.91
685.78	422.68
686.12	420.43
686.45	418.15
686.79	415.85
687.13	413.65
687.46	411.48
687.80	409.35
688.14	407.12
688.48	405.05
688.81	402.80
689.15	400.60
689.49	398.43
689.82	396.42
690.16	394.30
690.50	392.33
690.83	390.43
691.17	388.41
691.51	386.50
691.84	384.67
692.18	382.76
692.52	380.77
692.85	378.79
693.19	376.91
693.52	375.07
693.86	373.28
694.20	371.52
694.53	369.75
694.87	367.86
695.21	366.08
695.54	364.25
695.88	362.58
696.21	360.87
696.55	359.23
696.88	357.51
697.22	355.88
697.56	354.22
697.89	352.55
698.23	350.98
698.56	349.34
698.90	347.76
699.23	346.12
699.57	344.62
699.90	343.16
700.24	341.63
700.58	340.10
700.91	338.63
701.25	337.19
701.58	335.82
701.92	334.50
702.25	333.13
702.59	331.78
702.92	330.42
703.26	329.15
703.59	327.91
703.93	326.77
704.26	325.56
704.60	324.27
704.93	323.03
705.26	321.76
705.60	320.60
705.93	319.46
706.27	318.43
706.60	317.33
706.94	316.20
707.27	315.09
707.61	314.05
707.94	313.01
708.27	311.91
708.61	310.90
708.94	309.90
709.28	308.93
709.61	307.95
709.94	307.00
710.28	305.97
710.61	304.98
710.95	303.89
711.28	302.95
711.61	302.02
711.95	301.08
712.28	300.14
712.61	299.18
712.95	298.28
713.28	297.40
713.61	296.50
713.95	295.62
714.28	294.76
714.61	293.90
714.95	293.04
715.28	292.18
715.61	291.26
715.95	290.39
716.28	289.51
716.61	288.71
716.95	287.89
717.28	287.18
717.61	286.39
717.94	285.65
718.28	284.85
718.61	284.13
718.94	283.44
719.27	282.77
719.61	282.12
719.94	281.39
720.27	280.67
720.60	280.00
720.94	279.36
721.27	278.75
721.60	278.21
721.93	277.60
722.27	277.06
722.60	276.50
722.93	275.92
723.26	275.36
723.59	274.80
723.93	274.22
724.26	273.65
724.59	273.07
724.92	272.56
725.25	272.08
725.59	271.58
725.92	271.07
726.25	270.57
726.58	270.07
726.91	269.60
727.24	269.13
727.57	268.67
727.91	268.16
728.24	267.71
728.57	267.19
728.90	266.73
729.23	266.23
729.56	265.80
729.89	265.34
730.22	264.89
730.55	264.42
730.89	263.97
731.22	263.54
731.55	263.12
731.88	262.72
732.21	262.25
732.54	261.79
732.87	261.37
733.20	261.01
733.53	260.64
733.86	260.25
734.19	259.85
734.52	259.45
734.85	259.16
735.18	258.72
735.51	258.35
735.84	258.00
736.17	257.67
736.50	257.28
736.83	257.05
737.16	256.72
737.49	256.41
737.82	256.08
738.15	255.77
738.48	255.44
738.81	255.09
739.14	254.82
739.47	254.49
739.80	254.20
740.13	253.86
740.46	253.55
740.79	253.24
741.12	252.96
741.45	252.69
741.78	252.36
742.11	252.09
742.44	251.79
742.77	251.51
743.10	251.19
743.43	250.89
743.75	250.52
744.08	250.36
744.41	250.08
744.74	249.83
745.07	249.53
745.40	249.32
745.73	249.08
746.06	248.78
746.39	248.56
746.71	248.30
747.04	248.05
747.37	247.75
747.70	247.53
748.03	247.25
748.36	246.99
748.68	246.73
749.01	246.48
749.34	246.23
749.67	246.00
750.00	245.79
750.33	245.64
750.65	245.44
750.98	245.12
751.31	244.86
751.64	244.63
751.97	244.44
752.29	244.21
752.62	243.97
752.95	243.74
753.28	243.52
753.60	243.28
753.93	243.07
754.26	242.87
754.59	242.63
754.91	242.44
755.24	242.22
755.57	242.04
755.90	241.85
756.22	241.69
756.55	241.45
756.88	241.23
757.20	240.97
757.53	240.76
757.86	240.58
758.19	240.45
758.51	240.29
758.84	240.08
759.17	239.88
759.49	239.72
759.82	239.58
760.15	239.42
760.47	239.25
760.80	239.10
761.13	238.97
761.45	238.82
761.78	238.65
762.11	238.54
762.43	238.38
762.76	238.22
763.08	238.09
763.41	237.99
763.74	237.84
764.06	237.72
764.39	237.56
764.71	237.40
765.04	237.23
765.37	237.08
765.69	236.94
766.02	236.80
766.34	236.68
766.67	236.52
767.00	236.45
767.32	236.38
767.65	236.32
767.97	236.21
768.30	236.09
768.62	235.96
768.95	235.80
769.27	235.70
769.60	235.59
769.92	235.48
770.25	235.33
770.57	235.24
770.90	235.15
771.22	235.08
771.55	234.97
771.87	234.89
772.20	234.79
772.52	234.79
772.85	234.82
773.17	234.73
773.50	234.66
773.82	234.52
774.15	234.38
774.47	234.20
774.80	234.11
775.12	234.02
775.45	233.96
775.77	233.91
776.09	233.81
776.42	233.76
776.74	233.68
777.07	233.63
777.39	233.59
777.72	233.48
778.04	233.40
778.36	233.38
778.69	233.32
779.01	233.26
779.33	233.11
779.66	232.93
779.98	232.85
780.31	232.78
780.63	232.76
780.95	232.70
781.28	232.65
781.60	232.59
781.92	232.53
782.25	232.46
782.57	232.38
782.89	232.34
783.22	232.26
783.54	232.20
783.86	232.16
784.19	232.09
784.51	232.06
784.83	232.01
785.16	231.93
785.48	231.87
785.80	231.82
786.12	231.76
786.45	231.69
786.77	231.65
787.09	231.59
787.42	231.49
787.74	231.49
788.06	231.45
788.38	231.40
788.71	231.36
789.03	231.32
789.35	231.30
789.67	231.25
789.99	231.24
790.32	231.19
790.64	231.15
790.96	231.18
791.28	231.11
791.61	231.04
791.93	231.04
792.25	230.96
792.57	230.98
792.89	230.95
793.21	230.97
793.54	230.92
793.86	230.88
794.18	230.85
794.50	230.76
794.82	230.73
795.14	230.68
795.47	230.68
795.79	230.64
796.11	230.59
796.43	230.54
796.75	230.49
797.07	230.47
797.39	230.43
797.71	230.35
798.04	230.30
798.36	230.30
798.68	230.22
799.00	230.25
799.32	230.17
799.64	230.14
799.96	230.11
800.28	230.09
800.60	230.08
800.92	230.06
801.24	230.03
801.56	230.02
801.89	230.01
802.21	229.93
802.53	229.90
802.85	229.89
803.17	229.93
803.49	229.89
803.81	229.81
804.13	229.77
804.45	229.71
804.77	229.72
805.09	229.68
805.41	229.65
805.73	229.61
806.05	229.57
806.37	229.56
806.69	229.48
807.01	229.47
807.33	229.41
807.65	229.37
807.97	229.38
808.28	229.33
808.60	229.29
808.92	229.28
809.24	229.31
809.56	229.25
809.88	229.19
810.20	229.18
810.52	229.20
810.84	229.17
811.16	229.12
811.48	229.09
811.80	229.08
812.12	229.06
812.43	229.04
812.75	229.01
813.07	228.95
813.39	228.96
813.71	228.92
814.03	228.90
814.35	228.87
814.67	228.86
814.98	228.84
815.30	228.82
815.62	228.78
815.94	228.67
816.26	228.71
816.58	228.65
816.89	228.63
817.21	228.60
817.53	228.59
817.85	228.59
818.17	228.56
818.48	228.56
818.80	228.55
819.12	228.53
819.44	228.52
819.76	228.51
820.07	228.49
820.39	228.44
820.71	228.44
821.03	228.43
821.34	228.37
821.66	228.37
821.98	228.38
822.30	228.37
822.61	228.45
822.93	228.35
823.25	228.33
823.57	228.27
823.88	228.26
824.20	228.27
824.52	228.28
824.83	228.26
825.15	228.21
825.47	228.23
825.79	228.22
826.10	228.21
826.42	228.18
826.74	228.19
827.05	228.19
827.37	228.19
827.69	228.17
828.00	228.18
828.32	228.14
828.64	228.12
828.95	228.13
829.27	228.08
829.58	228.08
829.90	228.12
830.22	228.15
830.53	228.13
830.85	228.09
831.17	228.04
831.48	228.03
831.80	228.02
832.11	228.00
832.43	227.94
832.75	227.91
833.06	227.98
833.38	227.93
833.69	227.88
834.01	227.85
834.32	227.85
834.64	227.82
834.96	227.85
835.27	227.83
835.59	227.80
835.90	227.77
836.22	227.77
836.53	227.71
836.85	227.69
837.16	227.76
837.48	227.75
837.79	227.76
838.11	227.76
838.42	227.79
838.74	227.78
839.05	227.80
839.37	227.78
839.68	227.71
840.00	227.72
840.31	227.74
840.63	227.75
840.94	227.72
841.26	227.73
841.57	227.74
841.88	227.75
842.20	227.74
842.51	227.74
842.83	227.73
843.14	227.85
843.46	227.84
843.77	227.80
844.08	227.77
844.40	227.76
844.71	227.75
845.03	227.71
845.34	227.70
845.65	227.67
845.97	227.71
846.28	227.71
846.60	227.69
846.91	227.69
847.22	227.66
847.54	227.71
847.85	227.71
848.16	227.70
848.48	227.66
848.79	227.69
849.10	227.70
849.42	227.71
849.73	227.59
850.04	227.59
850.36	227.52
850.67	227.53
850.98	227.52
851.30	227.50
851.61	227.46
851.92	227.46
852.23	227.48
852.55	227.45
852.86	227.43
853.17	227.47
853.49	227.50
853.80	227.53
854.11	227.50
854.42	227.52
854.74	227.48
855.05	227.49
855.36	227.43
855.67	227.42
855.99	227.43
856.30	227.52
856.61	227.49
856.92	227.54
857.23	227.55
857.55	227.55
857.86	227.57
858.17	227.59
858.48	227.58
858.79	227.58
859.11	227.60
859.42	227.62
859.73	227.55
860.04	227.54
860.35	227.50
860.66	227.50
860.98	227.44
861.29	227.48
861.60	227.46
861.91	227.48
862.22	227.46
862.53	227.43
862.84	227.34
863.16	227.35
863.47	227.33
863.78	227.33
864.09	227.35
864.40	227.34
864.71	227.34
865.02	227.34
865.33	227.34
865.64	227.29
865.95	227.30
866.27	227.36
866.58	227.34
866.89	227.33
867.20	227.31
867.51	227.32
867.82	227.30
868.13	227.34
868.44	227.33
868.75	227.35
869.06	227.34
869.37	227.35
869.68	227.33
869.99	227.32
870.30	227.31
870.61	227.29
870.92	227.30
871.23	227.30
871.54	227.30
871.85	227.30
872.16	227.35
872.47	227.32
872.78	227.26
873.09	227.28
873.40	227.27
873.71	227.30
874.02	227.32
874.33	227.30
874.64	227.26
874.95	227.26
875.26	227.24
875.56	227.25
875.87	227.23
876.18	227.23
876.49	227.32
876.80	227.33
877.11	227.35
877.42	227.34
877.73	227.33
878.04	227.30
878.35	227.28
878.66	227.26
878.96	227.27
879.27	227.28
879.58	227.27
879.89	227.28
880.20	227.30
880.51	227.27
880.82	227.31
881.12	227.31
881.43	227.32
881.74	227.29
882.05	227.28
882.36	227.32
882.67	227.33
882.97	227.23
883.28	227.20
883.59	227.18
883.90	227.19
884.21	227.21
884.51	227.25
884.82	227.27
885.13	227.27
885.44	227.29
885.74	227.30
886.05	227.28
886.36	227.28
886.67	227.21
886.98	227.28
887.28	227.28
887.59	227.32
887.90	227.31
888.20	227.32
888.51	227.32
888.82	227.33
889.13	227.34
889.43	227.41
889.74	227.42
890.05	227.42
890.35	227.41
890.66	227.38
890.97	227.34
891.28	227.31
891.58	227.32
891.89	227.27
892.20	227.25
892.50	227.25
892.81	227.21
893.12	227.24
893.42	227.18
893.73	227.16
894.04	227.10
894.34	227.11
894.65	227.11
894.95	227.07
895.26	227.06
895.57	227.09
895.87	226.98
896.18	227.00
896.48	226.98
896.79	226.96
897.10	226.97
897.40	226.97
897.71	226.98
898.01	226.92
898.32	226.96
898.63	226.96
898.93	226.98
899.24	226.98
899.54	226.97
899.85	226.98
900.15	226.95
900.46	226.97
900.76	226.95
901.07	226.94
901.38	226.95
901.68	226.95
901.99	226.92
902.29	226.93
902.60	226.92
902.90	226.90
903.21	226.91
903.51	226.89
903.82	226.91
904.12	226.91
904.43	226.94
904.73	226.91
905.03	226.90
905.34	226.96
905.64	226.95
905.95	226.92
906.25	226.91
906.56	226.90
906.86	226.88
907.17	226.87
907.47	226.89
907.77	226.88
908.08	226.85
908.38	226.82
908.69	226.84
908.99	226.87
909.30	226.91
909.60	226.92
909.90	226.90
910.21	226.91
910.51	226.91
910.81	226.90
911.12	226.93
911.42	226.94
911.73	226.86
912.03	226.86
912.33	226.93
912.64	226.93
912.94	226.94
913.24	226.92
913.55	226.93
913.85	226.89
914.15	226.92
914.46	226.94
914.76	226.95
915.06	226.96
915.37	226.93
915.67	226.91
915.97	226.90
916.27	226.91
916.58	226.86
916.88	226.85
917.18	226.83
917.49	226.91
917.79	226.91
918.09	226.92
918.39	226.95
918.70	226.93
919.00	226.92
919.30	226.99
919.60	227.00
919.91	227.00
920.21	227.04
920.51	227.02
920.81	227.02
921.12	227.03
921.42	227.01
921.72	227.03
922.02	227.05
922.32	227.06
922.63	227.06
922.93	227.17
923.23	227.21
923.53	227.19
923.83	227.09
924.13	227.11
924.44	227.12
924.74	227.18
925.04	227.19
925.34	227.21
925.64	227.15
925.94	227.15
926.24	227.20
926.55	227.21
926.85	227.24
927.15	227.24
927.45	227.26
927.75	227.27
928.05	227.29
928.35	227.26
928.65	227.28
928.95	227.31
929.26	227.25
929.56	227.23
929.86	227.29
930.16	227.31
930.46	227.27
930.76	227.26
931.06	227.19
931.36	227.14
931.66	227.15
931.96	227.18
932.26	227.19
932.56	227.16
932.86	227.17
933.16	227.17
933.46	227.17
933.76	227.14
934.06	227.15
934.36	227.18
934.66	227.21
934.96	227.21
935.26	227.21
935.56	227.23
935.86	227.22
936.16	227.18
936.46	227.17
936.76	227.19
937.06	227.21
937.36	227.20
937.66	227.21
937.96	227.22
938.26	227.19
938.56	227.18
938.86	227.20
939.16	227.21
939.46	227.21
939.76	227.20
940.06	227.21
940.35	227.22
940.65	227.17
940.95	227.14
941.25	227.09
941.55	227.07
941.85	227.05
942.15	227.05
942.45	227.08
942.75	227.05
943.04	227.07
943.34	227.05
943.64	227.08
943.94	227.07
944.24	227.06
944.54	227.06
944.84	227.06
945.13	227.04
945.43	227.00
945.73	226.98
946.03	226.95
946.33	226.91
946.62	226.90
946.92	226.87
947.22	226.89
947.52	226.89
947.82	226.90
948.11	226.90
948.41	226.88
948.71	226.88
949.01	226.88
949.31	226.87
949.60	226.86
949.90	226.82
950.20	226.81
950.50	226.78
950.79	226.77
951.09	226.78
951.39	226.74
951.69	226.73
951.98	226.75
952.28	226.74
952.58	226.76
952.87	226.75
953.17	226.76
953.47	226.73
953.76	226.74
954.06	226.73
954.36	226.69
954.66	226.66
954.95	226.66
955.25	226.68
955.55	226.68
955.84	226.70
956.14	226.72
956.44	226.76
956.73	226.75
957.03	226.78
957.32	226.78
957.62	226.80
957.92	226.85
958.21	226.83
958.51	226.95
958.81	226.96
959.10	226.96
959.40	227.00
959.69	227.00
959.99	227.01
960.29	227.04
960.58	227.06
960.88	227.11
961.17	227.12
961.47	227.14
961.76	227.14
962.06	227.14
962.36	227.12
962.65	227.13
962.95	227.16
963.24	227.14
963.54	227.15
963.83	227.17
964.13	227.18
964.42	227.17
964.72	227.10
965.01	227.10
965.31	227.11
965.60	227.06
965.90	227.13
966.19	227.10
966.49	227.08
966.78	227.09
967.08	227.08
967.37	227.08
967.67	227.05
967.96	227.09
968.26	227.06
968.55	227.05
968.85	227.03
969.14	227.01
969.43	227.01
969.73	226.99
970.02	226.99
970.32	226.93
970.61	226.94
970.91	226.92
971.20	226.89
971.49	226.89
971.79	226.90
972.08	226.84
972.38	226.86
972.67	226.84
972.96	226.87
973.26	226.84
973.55	226.88
973.85	226.89
974.14	226.86
974.43	226.90
974.73	226.88
975.02	226.85
975.31	226.86
975.61	226.88
975.90	226.86
976.19	226.89
976.49	226.89
976.78	226.88
977.07	226.87
977.37	226.90
977.66	226.89
977.95	226.89
978.24	226.92
978.54	226.92
978.83	226.90
979.12	226.91
979.42	226.93
979.71	226.85
980.00	226.84
980.29	226.84
980.59	226.79
980.88	226.83
981.17	226.85
981.46	226.84
981.76	226.79
982.05	226.84
982.34	226.78
982.63	226.79
982.93	226.78
983.22	226.80
983.51	226.77
983.80	226.77
984.09	226.75
984.39	226.72
984.68	226.72
984.97	226.77
985.26	226.70
985.55	226.70
985.85	226.68
986.14	226.69
986.43	226.68
986.72	226.69
987.01	226.66
987.30	226.63
987.59	226.64
987.89	226.65
988.18	226.59
988.47	226.61
988.76	226.61
989.05	226.64
989.34	226.61
989.63	226.64
989.92	226.63
990.22	226.61
990.51	226.64
990.80	226.64
991.09	226.63
991.38	226.70
991.67	226.69
991.96	226.71
992.25	226.72
992.54	226.69
992.83	226.70
993.12	226.71
993.41	226.73
993.70	226.78
993.99	226.80
994.28	226.83
994.58	226.84
994.87	226.81
995.16	226.80
995.45	226.80
995.74	226.76
996.03	226.78
996.32	226.81
996.61	226.80
996.90	226.79
997.19	226.77
997.48	226.74
997.77	226.73
998.06	226.76
998.34	226.77
998.63	226.78
998.92	226.78
999.21	226.78
999.50	226.82
999.79	226.77
1000.08	226.80
1000.37	226.79
1000.66	226.78
1000.95	226.84
1001.24	226.84
1001.53	226.88
1001.82	226.88
1002.11	226.87
1002.40	226.87
1002.68	226.89
1002.97	226.96
1003.26	226.97
1003.55	226.95
1003.84	227.00
1004.13	227.01
1004.42	227.03
1004.71	227.06
1004.99	227.06
1005.28	227.08
1005.57	227.08
1005.86	227.06
1006.15	227.03
1006.44	227.04
1006.72	227.05
1007.01	227.01
1007.30	227.01
1007.59	226.98
1007.88	227.01
1008.17	227.00
1008.45	226.97
1008.74	226.94
1009.03	226.91
1009.32	226.89
1009.60	226.91
1009.89	226.89
1010.18	226.88
1010.47	226.84
1010.76	226.82
1011.04	226.82
1011.33	226.84
1011.62	226.80
1011.91	226.82
1012.19	226.83
1012.48	226.80
1012.77	226.79
1013.05	226.83
1013.34	226.81
1013.63	226.80
1013.92	226.80
1014.20	226.79
1014.49	226.82
1014.78	226.81
1015.06	226.75
1015.35	226.76
1015.64	226.76
1015.92	226.76
1016.21	226.72
1016.50	226.69
1016.78	226.71
1017.07	226.71
1017.36	226.65
1017.64	226.65
1017.93	226.65
1018.22	226.60
1018.50	226.62
1018.79	226.63
1019.08	226.58
1019.36	226.60
1019.65	226.61
1019.93	226.63
1020.22	226.64
1020.51	226.67
1020.79	226.68
1021.08	225.95
1021.36	226.63
1021.65	226.69
1021.94	226.72
1022.22	226.71
1022.51	226.89
1022.79	227.12
1023.08	226.63
1023.36	227.62
1023.65	226.77
>>>>>End Processed Spectral Data<<<<<
