SpectraSuite Data File
++++++++++++++++++++++++++++++++++++
Date: Fri Feb 01 17:59:24 EST 2013
User: group
Dark Spectrum Present: No
Reference Spectrum Present: No
Number of Sampled Component Spectra: 1
Spectrometers: USB2E7196
Integration Time (usec): 35000 (USB2E7196)
Spectra Averaged: 100 (USB2E7196)
Boxcar Smoothing: 10 (USB2E7196)
Correct for Electrical Dark: No (USB2E7196)
Strobe/Lamp Enabled: No (USB2E7196)
Correct for Detector Non-linearity: No (USB2E7196)
Correct for Stray Light: No (USB2E7196)
Number of Pixels in Processed Spectrum: 2048
>>>>>Begin Processed Spectral Data<<<<<
339.09	0.00
339.48	213.08
339.86	214.58
340.24	215.62
340.63	217.03
341.01	220.58
341.39	219.81
341.78	221.33
342.16	221.79
342.54	222.93
342.93	211.39
343.31	222.06
343.69	222.60
344.07	223.06
344.46	223.53
344.84	223.91
345.22	224.14
345.60	224.40
345.99	224.58
346.37	224.73
346.75	224.84
347.13	224.92
347.52	224.97
347.90	225.06
348.28	225.06
348.66	225.13
349.05	225.12
349.43	225.18
349.81	225.24
350.19	225.28
350.57	225.32
350.96	225.39
351.34	225.50
351.72	225.58
352.10	225.68
352.48	225.72
352.87	225.79
353.25	225.85
353.63	225.93
354.01	225.97
354.39	226.06
354.77	226.12
355.15	226.21
355.54	226.27
355.92	226.31
356.30	226.38
356.68	226.49
357.06	226.54
357.44	226.58
357.82	226.63
358.20	226.70
358.58	226.75
358.97	226.85
359.35	226.94
359.73	227.01
360.11	227.05
360.49	227.11
360.87	227.16
361.25	227.20
361.63	227.25
362.01	227.34
362.39	227.37
362.77	227.42
363.15	227.43
363.53	227.48
363.91	227.47
364.29	227.46
364.67	227.37
365.05	227.40
365.43	227.48
365.81	227.50
366.19	227.55
366.57	227.62
366.95	227.56
367.33	227.50
367.71	227.49
368.09	227.51
368.47	227.49
368.85	227.45
369.23	227.43
369.61	227.37
369.99	227.34
370.37	227.33
370.75	227.37
371.13	227.33
371.51	227.28
371.89	227.25
372.27	227.27
372.65	227.27
373.03	227.23
373.41	227.17
373.78	227.11
374.16	227.00
374.54	226.88
374.92	226.83
375.30	226.82
375.68	226.73
376.06	226.67
376.44	226.61
376.82	226.56
377.19	226.48
377.57	226.43
377.95	226.33
378.33	226.25
378.71	226.08
379.09	226.03
379.47	226.00
379.84	225.94
380.22	225.84
380.60	225.79
380.98	225.75
381.36	225.67
381.73	225.61
382.11	225.56
382.49	225.52
382.87	225.45
383.25	225.38
383.62	225.46
384.00	225.40
384.38	225.32
384.76	225.32
385.13	225.35
385.51	225.28
385.89	225.22
386.27	225.19
386.64	225.19
387.02	225.14
387.40	225.07
387.78	225.04
388.15	225.04
388.53	224.99
388.91	224.97
389.29	224.94
389.66	224.91
390.04	224.87
390.42	224.88
390.79	224.87
391.17	224.86
391.55	224.74
391.92	224.72
392.30	224.76
392.68	224.70
393.05	224.68
393.43	224.71
393.81	224.75
394.18	224.75
394.56	224.74
394.94	224.80
395.31	224.80
395.69	224.85
396.06	224.88
396.44	224.88
396.82	224.88
397.19	224.95
397.57	224.96
397.95	225.06
398.32	225.05
398.70	225.12
399.07	225.20
399.45	225.22
399.82	225.26
400.20	225.28
400.58	225.38
400.95	225.39
401.33	225.49
401.70	225.60
402.08	225.67
402.45	225.78
402.83	225.89
403.20	226.02
403.58	226.11
403.95	226.22
404.33	226.38
404.71	226.54
405.08	226.71
405.46	226.88
405.83	227.03
406.21	227.25
406.58	227.43
406.96	227.58
407.33	227.81
407.70	228.03
408.08	228.38
408.45	228.65
408.83	228.97
409.20	229.22
409.58	229.46
409.95	229.81
410.33	230.16
410.70	230.44
411.08	230.83
411.45	231.21
411.82	231.63
412.20	232.05
412.57	232.56
412.95	232.99
413.32	233.55
413.69	234.06
414.07	234.62
414.44	235.23
414.82	235.89
415.19	236.66
415.56	237.44
415.94	238.13
416.31	238.96
416.68	239.78
417.06	240.75
417.43	241.68
417.81	242.67
418.18	243.70
418.55	244.86
418.93	246.01
419.30	247.26
419.67	248.52
420.04	249.85
420.42	251.15
420.79	252.69
421.16	254.22
421.54	255.81
421.91	257.45
422.28	259.14
422.66	260.94
423.03	262.61
423.40	264.38
423.77	266.34
424.15	268.26
424.52	270.33
424.89	272.48
425.26	274.62
425.64	276.59
426.01	278.80
426.38	281.02
426.75	283.31
427.13	285.59
427.50	288.01
427.87	290.54
428.24	293.10
428.61	295.53
428.99	298.14
429.36	301.03
429.73	303.84
430.10	306.55
430.47	309.33
430.85	312.22
431.22	315.22
431.59	318.35
431.96	321.34
432.33	324.59
432.70	327.81
433.08	331.53
433.45	335.07
433.82	338.54
434.19	342.44
434.56	346.15
434.93	349.74
435.30	353.29
435.68	357.17
436.05	361.00
436.42	364.73
436.79	368.15
437.16	371.70
437.53	375.50
437.90	379.28
438.27	382.97
438.64	386.78
439.01	390.33
439.38	393.39
439.75	396.32
440.13	399.72
440.50	402.86
440.87	405.39
441.24	408.03
441.61	410.90
441.98	412.89
442.35	415.42
442.72	417.91
443.09	420.33
443.46	421.70
443.83	422.44
444.20	423.16
444.57	424.28
444.94	424.75
445.31	425.20
445.68	425.64
446.05	425.74
446.42	425.26
446.79	424.63
447.16	424.02
447.53	423.63
447.90	422.06
448.27	420.49
448.64	418.29
449.01	416.76
449.37	414.11
449.74	411.54
450.11	408.45
450.48	405.14
450.85	401.71
451.22	398.81
451.59	396.06
451.96	393.39
452.33	389.90
452.70	386.72
453.07	382.90
453.43	379.00
453.80	375.25
454.17	371.59
454.54	368.17
454.91	364.51
455.28	360.93
455.65	357.54
456.02	354.19
456.38	351.27
456.75	347.66
457.12	344.60
457.49	341.64
457.86	338.69
458.23	336.14
458.59	333.36
458.96	330.47
459.33	327.96
459.70	325.47
460.07	323.42
460.43	321.03
460.80	318.81
461.17	316.87
461.54	314.84
461.91	312.92
462.27	310.95
462.64	309.24
463.01	307.36
463.38	305.62
463.74	303.86
464.11	302.33
464.48	300.94
464.85	299.45
465.21	298.24
465.58	296.99
465.95	295.56
466.32	294.37
466.68	293.18
467.05	291.98
467.42	290.72
467.78	289.45
468.15	288.29
468.52	287.36
468.88	286.21
469.25	285.18
469.62	284.36
469.98	283.46
470.35	282.57
470.72	281.74
471.08	280.82
471.45	280.04
471.82	279.27
472.18	278.40
472.55	277.82
472.92	277.09
473.28	276.52
473.65	275.87
474.02	275.21
474.38	274.68
474.75	274.23
475.11	273.78
475.48	273.39
475.85	273.06
476.21	272.73
476.58	272.45
476.94	272.20
477.31	271.90
477.67	271.65
478.04	271.48
478.41	271.36
478.77	271.31
479.14	271.14
479.50	271.11
479.87	271.19
480.23	271.21
480.60	271.25
480.96	271.23
481.33	271.42
481.69	271.60
482.06	271.76
482.42	271.96
482.79	272.14
483.15	272.45
483.52	272.79
483.88	273.12
484.25	273.51
484.61	273.90
484.98	274.30
485.34	274.83
485.71	275.38
486.07	275.98
486.44	276.59
486.80	277.36
487.17	278.07
487.53	278.91
487.90	279.78
488.26	280.71
488.62	281.75
488.99	282.70
489.35	283.75
489.72	284.91
490.08	286.13
490.44	287.46
490.81	288.79
491.17	290.16
491.54	291.68
491.90	293.26
492.26	295.00
492.63	296.84
492.99	298.70
493.36	300.72
493.72	302.86
494.08	305.08
494.45	307.44
494.81	309.95
495.17	312.47
495.54	315.17
495.90	318.00
496.26	320.92
496.63	324.09
496.99	327.42
497.35	330.87
497.72	334.48
498.08	338.16
498.44	342.06
498.80	346.26
499.17	350.55
499.53	354.95
499.89	359.58
500.26	364.36
500.62	369.31
500.98	374.58
501.34	379.97
501.71	385.61
502.07	391.37
502.43	397.34
502.79	403.56
503.16	410.03
503.52	416.65
503.88	423.44
504.24	430.48
504.60	437.78
504.97	445.37
505.33	453.09
505.69	461.36
506.05	469.64
506.41	478.04
506.78	486.72
507.14	495.77
507.50	505.03
507.86	514.65
508.22	524.47
508.59	534.31
508.95	544.48
509.31	554.96
509.67	565.69
510.03	576.65
510.39	587.87
510.75	599.35
511.12	611.07
511.48	623.23
511.84	635.56
512.20	647.90
512.56	660.66
512.92	673.74
513.28	686.97
513.64	700.38
514.00	714.08
514.37	728.02
514.73	742.07
515.09	756.21
515.45	770.57
515.81	785.25
516.17	800.30
516.53	815.61
516.89	831.02
517.25	846.43
517.61	862.04
517.97	877.75
518.33	893.47
518.69	909.50
519.05	925.78
519.41	942.18
519.77	959.07
520.13	975.91
520.49	992.74
520.85	1009.43
521.21	1026.55
521.57	1044.20
521.93	1061.40
522.29	1079.23
522.65	1096.93
523.01	1114.60
523.37	1132.20
523.73	1149.94
524.09	1167.61
524.45	1185.43
524.81	1203.76
525.17	1222.19
525.53	1240.73
525.89	1259.25
526.25	1277.80
526.61	1295.80
526.97	1314.24
527.33	1332.46
527.68	1350.83
528.04	1369.18
528.40	1387.61
528.76	1406.47
529.12	1424.92
529.48	1443.75
529.84	1461.60
530.20	1480.10
530.56	1498.92
530.91	1518.28
531.27	1537.02
531.63	1555.45
531.99	1573.99
532.35	1592.02
532.71	1609.96
533.07	1628.33
533.42	1646.33
533.78	1664.49
534.14	1682.85
534.50	1700.24
534.86	1718.26
535.21	1735.43
535.57	1753.42
535.93	1771.11
536.29	1788.15
536.65	1805.32
537.00	1822.02
537.36	1839.60
537.72	1856.38
538.08	1873.22
538.44	1889.12
538.79	1905.09
539.15	1920.90
539.51	1936.78
539.87	1953.23
540.22	1969.21
540.58	1985.16
540.94	2000.53
541.29	2015.56
541.65	2030.58
542.01	2046.09
542.37	2060.56
542.72	2075.27
543.08	2089.28
543.44	2103.95
543.79	2117.40
544.15	2130.62
544.51	2144.56
544.87	2157.79
545.22	2170.86
545.58	2183.17
545.94	2195.22
546.29	2207.41
546.65	2219.41
547.01	2230.90
547.36	2241.70
547.72	2252.10
548.07	2262.19
548.43	2272.44
548.79	2282.46
549.14	2292.06
549.50	2301.32
549.86	2310.96
550.21	2320.28
550.57	2329.44
550.92	2338.03
551.28	2346.97
551.64	2355.93
551.99	2364.38
552.35	2372.38
552.70	2380.36
553.06	2388.18
553.41	2396.34
553.77	2404.09
554.13	2411.92
554.48	2419.88
554.84	2427.39
555.19	2434.41
555.55	2441.26
555.90	2447.58
556.26	2454.43
556.61	2460.60
556.97	2466.93
557.32	2472.78
557.68	2478.72
558.03	2484.49
558.39	2489.60
558.74	2495.92
559.10	2501.42
559.45	2506.57
559.81	2512.29
560.16	2517.72
560.52	2522.50
560.87	2527.28
561.23	2531.35
561.58	2535.81
561.94	2539.79
562.29	2543.18
562.64	2547.53
563.00	2551.26
563.35	2556.11
563.71	2560.42
564.06	2565.06
564.42	2569.09
564.77	2572.91
565.12	2576.33
565.48	2579.49
565.83	2582.49
566.19	2585.11
566.54	2587.00
566.89	2589.36
567.25	2591.07
567.60	2593.34
567.96	2596.23
568.31	2598.07
568.66	2600.37
569.02	2601.81
569.37	2602.81
569.72	2604.63
570.08	2605.51
570.43	2606.36
570.78	2606.51
571.14	2605.48
571.49	2604.81
571.84	2604.96
572.20	2604.45
572.55	2603.97
572.90	2602.90
573.26	2602.26
573.61	2600.69
573.96	2599.46
574.31	2596.70
574.67	2594.05
575.02	2590.46
575.37	2587.03
575.72	2583.55
576.08	2580.14
576.43	2576.97
576.78	2573.58
577.13	2570.42
577.49	2567.20
577.84	2563.73
578.19	2560.02
578.54	2556.62
578.90	2552.37
579.25	2546.68
579.60	2541.43
579.95	2536.12
580.30	2530.91
580.66	2525.38
581.01	2520.17
581.36	2514.96
581.71	2510.63
582.06	2505.96
582.42	2501.31
582.77	2495.73
583.12	2490.79
583.47	2485.90
583.82	2480.61
584.17	2474.94
584.53	2468.99
584.88	2462.89
585.23	2456.69
585.58	2450.61
585.93	2444.47
586.28	2439.09
586.63	2433.50
586.98	2428.08
587.34	2422.97
587.69	2417.46
588.04	2411.74
588.39	2405.60
588.74	2398.40
589.09	2391.64
589.44	2384.15
589.79	2377.23
590.14	2371.00
590.49	2363.62
590.84	2356.38
591.19	2349.65
591.54	2342.44
591.89	2334.48
592.25	2327.05
592.60	2318.88
592.95	2310.46
593.30	2302.28
593.65	2293.63
594.00	2285.79
594.35	2277.40
594.70	2268.17
595.05	2260.30
595.40	2251.90
595.75	2243.38
596.10	2236.18
596.45	2228.33
596.80	2221.10
597.15	2213.70
597.50	2205.75
597.85	2198.24
598.19	2190.50
598.54	2182.41
598.89	2174.69
599.24	2167.72
599.59	2160.09
599.94	2153.02
600.29	2145.67
600.64	2137.93
600.99	2129.63
601.34	2121.64
601.69	2113.70
602.04	2105.89
602.39	2097.21
602.74	2089.29
603.08	2081.43
603.43	2073.72
603.78	2065.34
604.13	2057.04
604.48	2048.71
604.83	2040.62
605.18	2032.75
605.53	2023.59
605.87	2014.26
606.22	2005.76
606.57	1996.48
606.92	1987.63
607.27	1979.32
607.62	1971.33
607.96	1962.94
608.31	1955.23
608.66	1946.40
609.01	1937.59
609.36	1928.82
609.70	1919.40
610.05	1909.99
610.40	1900.82
610.75	1891.00
611.10	1882.11
611.44	1872.11
611.79	1862.63
612.14	1852.50
612.49	1841.61
612.83	1831.73
613.18	1822.07
613.53	1812.58
613.88	1802.61
614.22	1792.93
614.57	1782.60
614.92	1773.17
615.27	1764.37
615.61	1754.46
615.96	1744.88
616.31	1735.78
616.65	1727.05
617.00	1718.19
617.35	1709.14
617.70	1699.58
618.04	1689.69
618.39	1679.85
618.74	1670.99
619.08	1661.23
619.43	1652.21
619.78	1644.12
620.12	1635.67
620.47	1626.88
620.82	1617.20
621.16	1608.26
621.51	1599.32
621.85	1590.44
622.20	1580.36
622.55	1570.43
622.89	1561.32
623.24	1552.40
623.59	1543.62
623.93	1534.67
624.28	1526.14
624.62	1517.37
624.97	1508.73
625.32	1500.68
625.66	1492.37
626.01	1483.98
626.35	1475.35
626.70	1466.17
627.04	1457.10
627.39	1447.92
627.73	1439.19
628.08	1431.11
628.43	1422.76
628.77	1414.19
629.12	1405.29
629.46	1396.97
629.81	1388.10
630.15	1379.48
630.50	1370.73
630.84	1361.23
631.19	1351.90
631.53	1343.10
631.88	1334.17
632.22	1325.28
632.57	1316.74
632.91	1307.90
633.26	1299.24
633.60	1290.45
633.95	1282.12
634.29	1273.78
634.64	1265.94
634.98	1257.39
635.32	1248.99
635.67	1241.11
636.01	1233.26
636.36	1225.47
636.70	1217.70
637.05	1210.07
637.39	1202.44
637.73	1194.86
638.08	1187.89
638.42	1180.90
638.77	1173.39
639.11	1165.76
639.45	1158.35
639.80	1150.62
640.14	1143.23
640.49	1135.61
640.83	1128.36
641.17	1121.13
641.52	1113.69
641.86	1106.15
642.20	1099.17
642.55	1091.78
642.89	1084.33
643.23	1076.73
643.58	1069.91
643.92	1062.77
644.26	1055.87
644.61	1048.84
644.95	1041.89
645.29	1034.38
645.64	1026.64
645.98	1019.21
646.32	1012.34
646.66	1005.24
647.01	998.47
647.35	991.80
647.69	984.85
648.04	978.32
648.38	971.67
648.72	964.84
649.06	957.87
649.41	951.12
649.75	944.25
650.09	937.40
650.43	930.68
650.78	923.53
651.12	916.54
651.46	909.87
651.80	903.35
652.14	897.07
652.49	890.77
652.83	884.76
653.17	878.24
653.51	871.67
653.85	865.44
654.20	858.96
654.54	852.07
654.88	845.52
655.22	838.74
655.56	832.12
655.90	825.78
656.25	819.71
656.59	813.56
656.93	807.71
657.27	801.76
657.61	795.54
657.95	789.69
658.29	783.87
658.64	777.78
658.98	771.52
659.32	765.23
659.66	759.27
660.00	753.09
660.34	747.40
660.68	741.67
661.02	735.84
661.36	730.38
661.70	725.14
662.05	720.07
662.39	715.10
662.73	709.96
663.07	704.90
663.41	699.79
663.75	694.57
664.09	689.30
664.43	684.21
664.77	679.48
665.11	674.56
665.45	669.73
665.79	665.03
666.13	660.34
666.47	655.64
666.81	650.81
667.15	646.09
667.49	641.54
667.83	637.09
668.17	632.58
668.51	627.87
668.85	623.14
669.19	618.70
669.53	614.27
669.87	609.77
670.21	605.48
670.55	601.19
670.89	597.18
671.23	593.20
671.57	589.05
671.91	584.97
672.25	580.86
672.58	576.81
672.92	572.85
673.26	569.18
673.60	565.47
673.94	561.87
674.28	558.50
674.62	555.11
674.96	551.61
675.30	548.30
675.64	544.96
675.97	541.78
676.31	538.50
676.65	535.15
676.99	532.06
677.33	528.76
677.67	525.55
678.01	522.14
678.34	518.76
678.68	515.45
679.02	512.15
679.36	508.93
679.70	505.81
680.04	502.69
680.37	499.41
680.71	496.20
681.05	493.13
681.39	489.99
681.73	486.88
682.06	483.92
682.40	480.95
682.74	477.98
683.08	475.05
683.42	472.01
683.75	469.14
684.09	466.12
684.43	463.21
684.77	460.38
685.10	457.63
685.44	454.90
685.78	452.31
686.12	449.71
686.45	447.08
686.79	444.43
687.13	441.83
687.46	439.25
687.80	436.78
688.14	434.22
688.48	431.78
688.81	429.22
689.15	426.72
689.49	424.22
689.82	421.78
690.16	419.28
690.50	417.04
690.83	414.81
691.17	412.56
691.51	410.41
691.84	408.26
692.18	406.09
692.52	403.77
692.85	401.50
693.19	399.33
693.52	397.14
693.86	395.03
694.20	392.96
694.53	390.89
694.87	388.68
695.21	386.63
695.54	384.55
695.88	382.51
696.21	380.52
696.55	378.59
696.88	376.61
697.22	374.72
697.56	372.84
697.89	370.88
698.23	368.99
698.56	367.13
698.90	365.26
699.23	363.30
699.57	361.60
699.90	359.80
700.24	358.03
700.58	356.34
700.91	354.60
701.25	352.93
701.58	351.33
701.92	349.77
702.25	348.15
702.59	346.57
702.92	345.04
703.26	343.54
703.59	342.05
703.93	340.74
704.26	339.34
704.60	337.80
704.93	336.34
705.26	334.93
705.60	333.54
705.93	332.19
706.27	331.00
706.60	329.77
706.94	328.55
707.27	327.22
707.61	325.95
707.94	324.80
708.27	323.54
708.61	322.27
708.94	321.09
709.28	319.99
709.61	318.86
709.94	317.79
710.28	316.62
710.61	315.45
710.95	314.19
711.28	313.10
711.61	312.04
711.95	310.98
712.28	309.87
712.61	308.73
712.95	307.66
713.28	306.61
713.61	305.54
713.95	304.51
714.28	303.56
714.61	302.56
714.95	301.54
715.28	300.56
715.61	299.58
715.95	298.59
716.28	297.60
716.61	296.63
716.95	295.67
717.28	294.75
717.61	293.90
717.94	293.01
718.28	292.08
718.61	291.22
718.94	290.36
719.27	289.60
719.61	288.84
719.94	288.07
720.27	287.19
720.60	286.39
720.94	285.62
721.27	284.90
721.60	284.26
721.93	283.55
722.27	282.94
722.60	282.29
722.93	281.60
723.26	280.94
723.59	280.28
723.93	279.62
724.26	279.00
724.59	278.35
724.92	277.75
725.25	277.16
725.59	276.56
725.92	275.98
726.25	275.39
726.58	274.83
726.91	274.28
727.24	273.75
727.57	273.20
727.91	272.65
728.24	272.07
728.57	271.46
728.90	270.96
729.23	270.37
729.56	269.85
729.89	269.32
730.22	268.76
730.55	268.25
730.89	267.74
731.22	267.20
731.55	266.72
731.88	266.21
732.21	265.75
732.54	265.25
732.87	264.79
733.20	264.32
733.53	263.85
733.86	263.39
734.19	262.97
734.52	262.55
734.85	262.18
735.18	261.75
735.51	261.34
735.84	260.90
736.17	260.49
736.50	260.04
736.83	259.78
737.16	259.40
737.49	259.01
737.82	258.61
738.15	258.20
738.48	257.81
738.81	257.45
739.14	257.05
739.47	256.69
739.80	256.32
740.13	255.94
740.46	255.52
740.79	255.15
741.12	254.78
741.45	254.37
741.78	253.96
742.11	253.61
742.44	253.23
742.77	252.88
743.10	252.53
743.43	252.18
743.75	251.76
744.08	251.56
744.41	251.23
744.74	250.92
745.07	250.64
745.40	250.33
745.73	250.04
746.06	249.73
746.39	249.41
746.71	249.09
747.04	248.81
747.37	248.56
747.70	248.28
748.03	248.00
748.36	247.80
748.68	247.53
749.01	247.27
749.34	247.02
749.67	246.76
750.00	246.49
750.33	246.31
750.65	246.06
750.98	245.68
751.31	245.43
751.64	245.19
751.97	245.01
752.29	244.74
752.62	244.44
752.95	244.21
753.28	243.97
753.60	243.74
753.93	243.51
754.26	243.25
754.59	243.00
754.91	242.72
755.24	242.46
755.57	242.23
755.90	241.98
756.22	241.75
756.55	241.51
756.88	241.29
757.20	241.01
757.53	240.78
757.86	240.61
758.19	240.43
758.51	240.22
758.84	239.98
759.17	239.78
759.49	239.61
759.82	239.44
760.15	239.27
760.47	239.11
760.80	238.90
761.13	238.76
761.45	238.60
761.78	238.45
762.11	238.29
762.43	238.12
762.76	237.96
763.08	237.81
763.41	237.67
763.74	237.51
764.06	237.33
764.39	237.15
764.71	236.95
765.04	236.74
765.37	236.58
765.69	236.42
766.02	236.28
766.34	236.12
766.67	235.96
767.00	235.84
767.32	235.73
767.65	235.68
767.97	235.55
768.30	235.43
768.62	235.28
768.95	235.13
769.27	235.03
769.60	234.93
769.92	234.77
770.25	234.66
770.57	234.54
770.90	234.43
771.22	234.36
771.55	234.28
771.87	234.20
772.20	234.08
772.52	234.04
772.85	234.04
773.17	233.96
773.50	233.86
773.82	233.72
774.15	233.55
774.47	233.37
774.80	233.26
775.12	233.13
775.45	233.08
775.77	232.99
776.09	232.88
776.42	232.76
776.74	232.71
777.07	232.63
777.39	232.53
777.72	232.43
778.04	232.34
778.36	232.24
778.69	232.14
779.01	232.10
779.33	231.96
779.66	231.76
779.98	231.64
780.31	231.55
780.63	231.54
780.95	231.51
781.28	231.41
781.60	231.32
781.92	231.28
782.25	231.17
782.57	231.11
782.89	231.05
783.22	231.00
783.54	230.93
783.86	230.85
784.19	230.77
784.51	230.75
784.83	230.66
785.16	230.61
785.48	230.57
785.80	230.49
786.12	230.41
786.45	230.37
786.77	230.38
787.09	230.30
787.42	230.20
787.74	230.15
788.06	230.12
788.38	230.08
788.71	230.01
789.03	229.99
789.35	229.95
789.67	229.88
789.99	229.83
790.32	229.76
790.64	229.73
790.96	229.77
791.28	229.69
791.61	229.62
791.93	229.58
792.25	229.54
792.57	229.57
792.89	229.48
793.21	229.40
793.54	229.31
793.86	229.27
794.18	229.21
794.50	229.16
794.82	229.10
795.14	229.09
795.47	229.08
795.79	229.03
796.11	228.99
796.43	228.96
796.75	228.91
797.07	228.86
797.39	228.78
797.71	228.65
798.04	228.59
798.36	228.56
798.68	228.53
799.00	228.48
799.32	228.38
799.64	228.39
799.96	228.37
800.28	228.38
800.60	228.36
800.92	228.34
801.24	228.29
801.56	228.28
801.89	228.18
802.21	228.12
802.53	228.05
802.85	228.01
803.17	228.00
803.49	227.92
803.81	227.87
804.13	227.84
804.45	227.84
804.77	227.81
805.09	227.77
805.41	227.70
805.73	227.64
806.05	227.58
806.37	227.55
806.69	227.53
807.01	227.48
807.33	227.46
807.65	227.40
807.97	227.42
808.28	227.40
808.60	227.41
808.92	227.37
809.24	227.41
809.56	227.37
809.88	227.33
810.20	227.33
810.52	227.35
810.84	227.35
811.16	227.28
811.48	227.27
811.80	227.27
812.12	227.27
812.43	227.28
812.75	227.26
813.07	227.21
813.39	227.20
813.71	227.14
814.03	227.06
814.35	227.03
814.67	226.94
814.98	226.90
815.30	226.87
815.62	226.84
815.94	226.76
816.26	226.81
816.58	226.73
816.89	226.74
817.21	226.70
817.53	226.68
817.85	226.69
818.17	226.69
818.48	226.69
818.80	226.69
819.12	226.64
819.44	226.65
819.76	226.62
820.07	226.60
820.39	226.61
820.71	226.65
821.03	226.63
821.34	226.65
821.66	226.65
821.98	226.65
822.30	226.61
822.61	226.67
822.93	226.62
823.25	226.64
823.57	226.61
823.88	226.65
824.20	226.63
824.52	226.64
824.83	226.62
825.15	226.59
825.47	226.59
825.79	226.61
826.10	226.58
826.42	226.58
826.74	226.59
827.05	226.55
827.37	226.49
827.69	226.49
828.00	226.47
828.32	226.45
828.64	226.40
828.95	226.49
829.27	226.45
829.58	226.43
829.90	226.42
830.22	226.41
830.53	226.35
830.85	226.31
831.17	226.28
831.48	226.24
831.80	226.22
832.11	226.19
832.43	226.14
832.75	226.10
833.06	226.17
833.38	226.13
833.69	226.13
834.01	226.16
834.32	226.14
834.64	226.11
834.96	226.11
835.27	226.09
835.59	226.00
835.90	225.92
836.22	225.87
836.53	225.84
836.85	225.83
837.16	225.89
837.48	225.88
837.79	225.88
838.11	225.89
838.42	225.88
838.74	225.86
839.05	225.86
839.37	225.86
839.68	225.79
840.00	225.78
840.31	225.76
840.63	225.74
840.94	225.72
841.26	225.70
841.57	225.67
841.88	225.68
842.20	225.66
842.51	225.68
842.83	225.68
843.14	225.76
843.46	225.72
843.77	225.68
844.08	225.64
844.40	225.58
844.71	225.57
845.03	225.56
845.34	225.53
845.65	225.49
845.97	225.48
846.28	225.47
846.60	225.44
846.91	225.43
847.22	225.39
847.54	225.40
847.85	225.40
848.16	225.42
848.48	225.38
848.79	225.41
849.10	225.43
849.42	225.43
849.73	225.31
850.04	225.33
850.36	225.27
850.67	225.29
850.98	225.32
851.30	225.32
851.61	225.29
851.92	225.31
852.23	225.35
852.55	225.37
852.86	225.34
853.17	225.34
853.49	225.35
853.80	225.40
854.11	225.42
854.42	225.43
854.74	225.37
855.05	225.37
855.36	225.33
855.67	225.30
855.99	225.33
856.30	225.49
856.61	225.49
856.92	225.50
857.23	225.50
857.55	225.49
857.86	225.48
858.17	225.51
858.48	225.51
858.79	225.50
859.11	225.48
859.42	225.50
859.73	225.51
860.04	225.51
860.35	225.47
860.66	225.49
860.98	225.50
861.29	225.54
861.60	225.57
861.91	225.58
862.22	225.57
862.53	225.56
862.84	225.42
863.16	225.43
863.47	225.45
863.78	225.47
864.09	225.49
864.40	225.51
864.71	225.49
865.02	225.53
865.33	225.54
865.64	225.55
865.95	225.55
866.27	225.61
866.58	225.61
866.89	225.62
867.20	225.58
867.51	225.55
867.82	225.56
868.13	225.56
868.44	225.57
868.75	225.62
869.06	225.65
869.37	225.68
869.68	225.64
869.99	225.64
870.30	225.63
870.61	225.63
870.92	225.59
871.23	225.59
871.54	225.56
871.85	225.57
872.16	225.55
872.47	225.56
872.78	225.53
873.09	225.51
873.40	225.52
873.71	225.53
874.02	225.55
874.33	225.54
874.64	225.52
874.95	225.52
875.26	225.47
875.56	225.44
875.87	225.40
876.18	225.38
876.49	225.45
876.80	225.41
877.11	225.39
877.42	225.38
877.73	225.39
878.04	225.37
878.35	225.35
878.66	225.34
878.96	225.32
879.27	225.28
879.58	225.28
879.89	225.23
880.20	225.25
880.51	225.22
880.82	225.21
881.12	225.19
881.43	225.16
881.74	225.12
882.05	225.12
882.36	225.10
882.67	225.10
882.97	224.98
883.28	225.00
883.59	224.97
883.90	224.99
884.21	224.99
884.51	224.96
884.82	224.96
885.13	224.94
885.44	224.90
885.74	224.90
886.05	224.85
886.36	224.86
886.67	224.79
886.98	224.85
887.28	224.85
887.59	224.86
887.90	224.85
888.20	224.85
888.51	224.84
888.82	224.86
889.13	224.89
889.43	225.00
889.74	224.94
890.05	224.94
890.35	224.93
890.66	224.93
890.97	224.92
891.28	224.89
891.58	224.91
891.89	224.93
892.20	224.93
892.50	224.97
892.81	224.99
893.12	225.01
893.42	224.93
893.73	224.94
894.04	224.93
894.34	224.96
894.65	224.97
894.95	224.99
895.26	224.96
895.57	224.99
895.87	224.90
896.18	224.96
896.48	225.00
896.79	224.98
897.10	224.99
897.40	225.00
897.71	225.03
898.01	225.05
898.32	225.06
898.63	225.07
898.93	225.07
899.24	225.06
899.54	225.04
899.85	225.07
900.15	225.10
900.46	225.10
900.76	225.10
901.07	225.10
901.38	225.05
901.68	225.08
901.99	225.01
902.29	225.03
902.60	225.05
902.90	225.02
903.21	225.05
903.51	224.99
903.82	225.04
904.12	225.03
904.43	224.98
904.73	225.01
905.03	225.02
905.34	225.12
905.64	225.13
905.95	225.16
906.25	225.15
906.56	225.13
906.86	225.11
907.17	225.08
907.47	225.10
907.77	225.10
908.08	225.06
908.38	225.08
908.69	225.08
908.99	225.07
909.30	225.07
909.60	225.05
909.90	225.07
910.21	225.03
910.51	225.03
910.81	225.07
911.12	225.04
911.42	225.04
911.73	224.93
912.03	224.95
912.33	224.95
912.64	224.92
912.94	224.90
913.24	224.90
913.55	224.94
913.85	224.92
914.15	224.96
914.46	225.01
914.76	225.01
915.06	225.02
915.37	225.02
915.67	225.06
915.97	225.06
916.27	225.06
916.58	225.07
916.88	225.07
917.18	225.05
917.49	225.12
917.79	225.08
918.09	225.08
918.39	225.09
918.70	225.05
919.00	225.06
919.30	225.12
919.60	225.12
919.91	225.08
920.21	225.08
920.51	225.06
920.81	225.03
921.12	225.03
921.42	225.03
921.72	225.03
922.02	224.98
922.32	224.99
922.63	224.98
922.93	224.99
923.23	224.96
923.53	224.97
923.83	224.92
924.13	224.94
924.44	224.93
924.74	224.91
925.04	224.95
925.34	224.96
925.64	224.91
925.94	224.93
926.24	224.99
926.55	224.97
926.85	224.98
927.15	224.97
927.45	224.93
927.75	224.88
928.05	224.89
928.35	224.88
928.65	224.89
928.95	224.90
929.26	224.90
929.56	224.90
929.86	224.88
930.16	224.84
930.46	224.84
930.76	224.86
931.06	224.85
931.36	224.82
931.66	224.80
931.96	224.82
932.26	224.82
932.56	224.76
932.86	224.77
933.16	224.76
933.46	224.75
933.76	224.73
934.06	224.77
934.36	224.73
934.66	224.73
934.96	224.72
935.26	224.70
935.56	224.70
935.86	224.69
936.16	224.68
936.46	224.67
936.76	224.62
937.06	224.59
937.36	224.55
937.66	224.55
937.96	224.57
938.26	224.54
938.56	224.52
938.86	224.51
939.16	224.54
939.46	224.56
939.76	224.58
940.06	224.61
940.35	224.60
940.65	224.60
940.95	224.60
941.25	224.58
941.55	224.55
941.85	224.54
942.15	224.58
942.45	224.61
942.75	224.60
943.04	224.60
943.34	224.61
943.64	224.64
943.94	224.62
944.24	224.60
944.54	224.61
944.84	224.60
945.13	224.61
945.43	224.58
945.73	224.55
946.03	224.53
946.33	224.52
946.62	224.50
946.92	224.48
947.22	224.49
947.52	224.48
947.82	224.55
948.11	224.54
948.41	224.49
948.71	224.48
949.01	224.50
949.31	224.53
949.60	224.51
949.90	224.52
950.20	224.53
950.50	224.54
950.79	224.49
951.09	224.51
951.39	224.48
951.69	224.47
951.98	224.47
952.28	224.50
952.58	224.51
952.87	224.51
953.17	224.55
953.47	224.53
953.76	224.53
954.06	224.50
954.36	224.45
954.66	224.47
954.95	224.50
955.25	224.50
955.55	224.48
955.84	224.49
956.14	224.51
956.44	224.50
956.73	224.49
957.03	224.55
957.32	224.55
957.62	224.56
957.92	224.59
958.21	224.61
958.51	224.69
958.81	224.69
959.10	224.70
959.40	224.73
959.69	224.73
959.99	224.75
960.29	224.74
960.58	224.78
960.88	224.81
961.17	224.78
961.47	224.78
961.76	224.79
962.06	224.79
962.36	224.77
962.65	224.78
962.95	224.80
963.24	224.78
963.54	224.76
963.83	224.76
964.13	224.76
964.42	224.73
964.72	224.68
965.01	224.67
965.31	224.68
965.60	224.64
965.90	224.72
966.19	224.72
966.49	224.75
966.78	224.77
967.08	224.75
967.37	224.76
967.67	224.77
967.96	224.75
968.26	224.77
968.55	224.81
968.85	224.78
969.14	224.78
969.43	224.77
969.73	224.80
970.02	224.80
970.32	224.80
970.61	224.80
970.91	224.81
971.20	224.80
971.49	224.79
971.79	224.78
972.08	224.69
972.38	224.69
972.67	224.70
972.96	224.67
973.26	224.66
973.55	224.71
973.85	224.68
974.14	224.74
974.43	224.75
974.73	224.71
975.02	224.72
975.31	224.72
975.61	224.70
975.90	224.67
976.19	224.68
976.49	224.69
976.78	224.73
977.07	224.71
977.37	224.73
977.66	224.75
977.95	224.77
978.24	224.76
978.54	224.75
978.83	224.74
979.12	224.76
979.42	224.79
979.71	224.77
980.00	224.78
980.29	224.74
980.59	224.69
980.88	224.72
981.17	224.72
981.46	224.73
981.76	224.75
982.05	224.77
982.34	224.77
982.63	224.78
982.93	224.75
983.22	224.75
983.51	224.75
983.80	224.76
984.09	224.78
984.39	224.81
984.68	224.82
984.97	224.79
985.26	224.75
985.55	224.75
985.85	224.71
986.14	224.73
986.43	224.77
986.72	224.78
987.01	224.76
987.30	224.75
987.59	224.74
987.89	224.75
988.18	224.75
988.47	224.75
988.76	224.69
989.05	224.68
989.34	224.68
989.63	224.71
989.92	224.66
990.22	224.63
990.51	224.60
990.80	224.58
991.09	224.63
991.38	224.69
991.67	224.66
991.96	224.66
992.25	224.64
992.54	224.61
992.83	224.59
993.12	224.59
993.41	224.62
993.70	224.64
993.99	224.68
994.28	224.68
994.58	224.69
994.87	224.70
995.16	224.69
995.45	224.67
995.74	224.64
996.03	224.71
996.32	224.74
996.61	224.77
996.90	224.77
997.19	224.74
997.48	224.71
997.77	224.69
998.06	224.72
998.34	224.72
998.63	224.74
998.92	224.74
999.21	224.76
999.50	224.73
999.79	224.70
1000.08	224.68
1000.37	224.67
1000.66	224.63
1000.95	224.66
1001.24	224.68
1001.53	224.67
1001.82	224.64
1002.11	224.57
1002.40	224.59
1002.68	224.58
1002.97	224.65
1003.26	224.66
1003.55	224.68
1003.84	224.70
1004.13	224.69
1004.42	224.68
1004.71	224.64
1004.99	224.64
1005.28	224.64
1005.57	224.66
1005.86	224.66
1006.15	224.62
1006.44	224.62
1006.72	224.64
1007.01	224.62
1007.30	224.59
1007.59	224.60
1007.88	224.62
1008.17	224.62
1008.45	224.58
1008.74	224.56
1009.03	224.51
1009.32	224.51
1009.60	224.48
1009.89	224.48
1010.18	224.44
1010.47	224.43
1010.76	224.43
1011.04	224.41
1011.33	224.45
1011.62	224.42
1011.91	224.40
1012.19	224.39
1012.48	224.40
1012.77	224.39
1013.05	224.44
1013.34	224.44
1013.63	224.40
1013.92	224.40
1014.20	224.43
1014.49	224.44
1014.78	224.46
1015.06	224.43
1015.35	224.38
1015.64	224.38
1015.92	224.38
1016.21	224.40
1016.50	224.43
1016.78	224.44
1017.07	224.49
1017.36	224.47
1017.64	224.49
1017.93	224.52
1018.22	224.52
1018.50	224.50
1018.79	224.49
1019.08	224.44
1019.36	224.45
1019.65	224.49
1019.93	224.53
1020.22	224.52
1020.51	224.54
1020.79	224.49
1021.08	224.08
1021.36	224.28
1021.65	224.17
1021.94	224.43
1022.22	224.19
1022.51	224.81
1022.79	225.26
1023.08	224.88
1023.36	225.03
1023.65	223.97
>>>>>End Processed Spectral Data<<<<<
