SpectraSuite Data File
++++++++++++++++++++++++++++++++++++
Date: Fri Feb 01 17:31:36 EST 2013
User: group
Dark Spectrum Present: No
Reference Spectrum Present: No
Number of Sampled Component Spectra: 1
Spectrometers: USB2E7196
Integration Time (usec): 35000 (USB2E7196)
Spectra Averaged: 100 (USB2E7196)
Boxcar Smoothing: 10 (USB2E7196)
Correct for Electrical Dark: No (USB2E7196)
Strobe/Lamp Enabled: No (USB2E7196)
Correct for Detector Non-linearity: No (USB2E7196)
Correct for Stray Light: No (USB2E7196)
Number of Pixels in Processed Spectrum: 2048
>>>>>Begin Processed Spectral Data<<<<<
339.09	0.00
339.48	212.70
339.86	214.97
340.24	215.93
340.63	217.20
341.01	220.35
341.39	220.21
341.78	221.34
342.16	222.44
342.54	222.77
342.93	211.42
343.31	222.09
343.69	222.65
344.07	223.10
344.46	223.52
344.84	223.89
345.22	224.11
345.60	224.33
345.99	224.51
346.37	224.62
346.75	224.71
347.13	224.78
347.52	224.84
347.90	224.96
348.28	224.97
348.66	225.02
349.05	225.03
349.43	225.02
349.81	225.07
350.19	225.12
350.57	225.20
350.96	225.29
351.34	225.39
351.72	225.49
352.10	225.57
352.48	225.63
352.87	225.70
353.25	225.76
353.63	225.84
354.01	225.90
354.39	226.00
354.77	226.08
355.15	226.16
355.54	226.24
355.92	226.28
356.30	226.36
356.68	226.50
357.06	226.56
357.44	226.59
357.82	226.67
358.20	226.72
358.58	226.80
358.97	226.82
359.35	226.85
359.73	226.90
360.11	226.95
360.49	227.02
360.87	227.05
361.25	227.13
361.63	227.19
362.01	227.24
362.39	227.25
362.77	227.30
363.15	227.34
363.53	227.37
363.91	227.38
364.29	227.38
364.67	227.27
365.05	227.27
365.43	227.30
365.81	227.29
366.19	227.32
366.57	227.32
366.95	227.33
367.33	227.30
367.71	227.29
368.09	227.29
368.47	227.26
368.85	227.26
369.23	227.19
369.61	227.15
369.99	227.13
370.37	227.10
370.75	227.13
371.13	227.04
371.51	226.97
371.89	226.95
372.27	226.88
372.65	226.84
373.03	226.80
373.41	226.73
373.78	226.65
374.16	226.54
374.54	226.46
374.92	226.39
375.30	226.36
375.68	226.27
376.06	226.21
376.44	226.13
376.82	226.08
377.19	226.02
377.57	225.93
377.95	225.86
378.33	225.79
378.71	225.66
379.09	225.59
379.47	225.55
379.84	225.46
380.22	225.40
380.60	225.32
380.98	225.27
381.36	225.21
381.73	225.14
382.11	225.12
382.49	225.07
382.87	225.00
383.25	224.94
383.62	225.02
384.00	224.93
384.38	224.87
384.76	224.80
385.13	224.80
385.51	224.79
385.89	224.67
386.27	224.65
386.64	224.59
387.02	224.58
387.40	224.55
387.78	224.52
388.15	224.50
388.53	224.44
388.91	224.42
389.29	224.42
389.66	224.40
390.04	224.37
390.42	224.36
390.79	224.35
391.17	224.36
391.55	224.24
391.92	224.25
392.30	224.26
392.68	224.26
393.05	224.25
393.43	224.25
393.81	224.34
394.18	224.32
394.56	224.34
394.94	224.38
395.31	224.34
395.69	224.42
396.06	224.48
396.44	224.57
396.82	224.59
397.19	224.69
397.57	224.73
397.95	224.83
398.32	224.87
398.70	224.94
399.07	225.02
399.45	225.11
399.82	225.17
400.20	225.26
400.58	225.33
400.95	225.37
401.33	225.47
401.70	225.62
402.08	225.71
402.45	225.82
402.83	225.94
403.20	226.13
403.58	226.22
403.95	226.30
404.33	226.40
404.71	226.57
405.08	226.70
405.46	226.87
405.83	226.98
406.21	227.15
406.58	227.31
406.96	227.49
407.33	227.63
407.70	227.84
408.08	228.09
408.45	228.33
408.83	228.55
409.20	228.78
409.58	228.94
409.95	229.23
410.33	229.49
410.70	229.77
411.08	230.04
411.45	230.35
411.82	230.68
412.20	231.06
412.57	231.45
412.95	231.78
413.32	232.18
413.69	232.59
414.07	233.00
414.44	233.48
414.82	233.97
415.19	234.52
415.56	235.09
415.94	235.64
416.31	236.30
416.68	236.99
417.06	237.70
417.43	238.38
417.81	239.15
418.18	239.98
418.55	240.83
418.93	241.73
419.30	242.61
419.67	243.63
420.04	244.62
420.42	245.66
420.79	246.85
421.16	248.05
421.54	249.32
421.91	250.60
422.28	251.93
422.66	253.27
423.03	254.65
423.40	256.01
423.77	257.46
424.15	258.94
424.52	260.45
424.89	262.12
425.26	263.75
425.64	265.25
426.01	266.87
426.38	268.56
426.75	270.28
427.13	272.10
427.50	273.95
427.87	275.88
428.24	277.78
428.61	279.58
428.99	281.58
429.36	283.75
429.73	285.85
430.10	287.88
430.47	290.02
430.85	292.22
431.22	294.50
431.59	296.95
431.96	299.27
432.33	301.87
432.70	304.36
433.08	307.27
433.45	310.02
433.82	312.72
434.19	315.74
434.56	318.68
434.93	321.40
435.30	324.14
435.68	327.13
436.05	330.12
436.42	333.06
436.79	335.70
437.16	338.52
437.53	341.51
437.90	344.49
438.27	347.36
438.64	350.28
439.01	353.00
439.38	355.34
439.75	357.66
440.13	360.26
440.50	362.71
440.87	364.71
441.24	366.76
441.61	369.06
441.98	370.62
442.35	372.54
442.72	374.50
443.09	376.39
443.46	377.49
443.83	378.11
444.20	378.72
444.57	379.59
444.94	379.87
445.31	380.22
445.68	380.60
446.05	380.76
446.42	380.41
446.79	380.04
447.16	379.64
447.53	379.31
447.90	378.12
448.27	376.92
448.64	375.25
449.01	374.10
449.37	372.09
449.74	370.12
450.11	367.87
450.48	365.35
450.85	362.73
451.22	360.51
451.59	358.42
451.96	356.35
452.33	353.68
452.70	351.28
453.07	348.41
453.43	345.41
453.80	342.44
454.17	339.67
454.54	337.00
454.91	334.19
455.28	331.40
455.65	328.80
456.02	326.24
456.38	323.99
456.75	321.23
457.12	318.87
457.49	316.56
457.86	314.21
458.23	312.29
458.59	310.15
458.96	307.96
459.33	306.03
459.70	304.13
460.07	302.56
460.43	300.76
460.80	299.03
461.17	297.53
461.54	296.00
461.91	294.52
462.27	293.03
462.64	291.72
463.01	290.29
463.38	288.98
463.74	287.57
464.11	286.33
464.48	285.25
464.85	284.08
465.21	283.18
465.58	282.22
465.95	281.04
466.32	280.09
466.68	279.15
467.05	278.21
467.42	277.23
467.78	276.26
468.15	275.37
468.52	274.69
468.88	273.81
469.25	273.00
469.62	272.31
469.98	271.63
470.35	270.96
470.72	270.33
471.08	269.63
471.45	269.06
471.82	268.49
472.18	267.86
472.55	267.40
472.92	266.86
473.28	266.35
473.65	265.88
474.02	265.42
474.38	265.05
474.75	264.71
475.11	264.36
475.48	264.09
475.85	263.79
476.21	263.50
476.58	263.29
476.94	263.14
477.31	262.95
477.67	262.77
478.04	262.62
478.41	262.57
478.77	262.58
479.14	262.54
479.50	262.54
479.87	262.59
480.23	262.65
480.60	262.69
480.96	262.81
481.33	263.04
481.69	263.25
482.06	263.40
482.42	263.56
482.79	263.81
483.15	264.12
483.52	264.52
483.88	264.91
484.25	265.30
484.61	265.71
484.98	266.21
485.34	266.73
485.71	267.32
486.07	267.91
486.44	268.49
486.80	269.18
487.17	269.90
487.53	270.74
487.90	271.58
488.26	272.53
488.62	273.52
488.99	274.47
489.35	275.51
489.72	276.65
490.08	277.91
490.44	279.11
490.81	280.42
491.17	281.73
491.54	283.18
491.90	284.71
492.26	286.38
492.63	288.11
492.99	289.88
493.36	291.76
493.72	293.80
494.08	295.86
494.45	298.09
494.81	300.46
495.17	302.87
495.54	305.41
495.90	308.07
496.26	310.83
496.63	313.80
496.99	316.92
497.35	320.16
497.72	323.51
498.08	327.01
498.44	330.67
498.80	334.56
499.17	338.58
499.53	342.74
499.89	347.10
500.26	351.59
500.62	356.18
500.98	361.07
501.34	366.10
501.71	371.39
502.07	376.72
502.43	382.25
502.79	387.98
503.16	394.02
503.52	400.19
503.88	406.50
504.24	413.07
504.60	419.78
504.97	426.79
505.33	433.96
505.69	441.60
506.05	449.29
506.41	457.02
506.78	465.06
507.14	473.33
507.50	481.83
507.86	490.68
508.22	499.74
508.59	508.80
508.95	518.12
509.31	527.78
509.67	537.72
510.03	547.84
510.39	558.17
510.75	568.71
511.12	579.45
511.48	590.51
511.84	601.67
512.20	612.93
512.56	624.61
512.92	636.50
513.28	648.54
513.64	660.72
514.00	673.15
514.37	685.76
514.73	698.47
515.09	711.16
515.45	723.99
515.81	737.16
516.17	750.79
516.53	764.66
516.89	778.33
517.25	792.00
517.61	806.00
517.97	820.02
518.33	834.05
518.69	848.40
519.05	862.89
519.41	877.60
519.77	892.65
520.13	907.56
520.49	922.51
520.85	937.33
521.21	952.55
521.57	968.26
521.93	983.50
522.29	999.39
522.65	1015.11
523.01	1030.85
523.37	1046.49
523.73	1062.13
524.09	1077.59
524.45	1093.47
524.81	1109.72
525.17	1126.01
525.53	1142.37
525.89	1158.80
526.25	1175.18
526.61	1191.09
526.97	1207.41
527.33	1223.35
527.68	1239.48
528.04	1255.53
528.40	1271.65
528.76	1288.28
529.12	1304.49
529.48	1320.88
529.84	1336.52
530.20	1352.80
530.56	1369.33
530.91	1386.16
531.27	1402.53
531.63	1418.56
531.99	1434.59
532.35	1450.10
532.71	1465.54
533.07	1481.36
533.42	1496.85
533.78	1512.47
534.14	1528.38
534.50	1543.32
534.86	1558.84
535.21	1573.72
535.57	1589.22
535.93	1604.49
536.29	1618.93
536.65	1633.56
537.00	1648.00
537.36	1663.00
537.72	1677.05
538.08	1691.38
538.44	1705.00
538.79	1718.52
539.15	1731.98
539.51	1745.61
539.87	1759.72
540.22	1773.24
540.58	1786.78
540.94	1799.78
541.29	1812.43
541.65	1824.87
542.01	1837.93
542.37	1850.24
542.72	1862.54
543.08	1874.30
543.44	1886.52
543.79	1897.74
544.15	1908.74
544.51	1920.37
544.87	1931.10
545.22	1942.08
545.58	1952.16
545.94	1961.96
546.29	1972.01
546.65	1982.01
547.01	1991.35
547.36	2000.18
547.72	2008.82
548.07	2016.95
548.43	2025.25
548.79	2033.38
549.14	2041.16
549.50	2048.59
549.86	2056.30
550.21	2063.80
550.57	2071.17
550.92	2077.90
551.28	2085.03
551.64	2092.33
551.99	2099.03
552.35	2105.64
552.70	2112.06
553.06	2118.37
553.41	2124.99
553.77	2131.23
554.13	2137.43
554.48	2143.84
554.84	2149.69
555.19	2155.04
555.55	2160.56
555.90	2165.54
556.26	2170.86
556.61	2175.92
556.97	2180.73
557.32	2185.27
557.68	2189.82
558.03	2194.33
558.39	2198.36
558.74	2203.48
559.10	2207.69
559.45	2211.69
559.81	2216.22
560.16	2220.27
560.52	2223.90
560.87	2227.55
561.23	2230.53
561.58	2233.88
561.94	2236.70
562.29	2239.36
562.64	2242.74
563.00	2245.67
563.35	2249.57
563.71	2252.93
564.06	2256.54
564.42	2259.74
564.77	2262.58
565.12	2265.29
565.48	2267.70
565.83	2270.04
566.19	2271.78
566.54	2273.04
566.89	2274.72
567.25	2275.88
567.60	2277.65
567.96	2279.78
568.31	2281.15
568.66	2282.83
569.02	2283.96
569.37	2284.88
569.72	2286.28
570.08	2286.83
570.43	2287.23
570.78	2286.95
571.14	2286.03
571.49	2284.93
571.84	2284.94
572.20	2284.35
572.55	2283.70
572.90	2282.47
573.26	2281.69
573.61	2280.23
573.96	2278.96
574.31	2276.40
574.67	2273.81
575.02	2270.56
575.37	2267.46
575.72	2264.22
576.08	2261.14
576.43	2258.08
576.78	2254.83
577.13	2251.90
577.49	2249.09
577.84	2246.16
578.19	2242.79
578.54	2239.53
578.90	2235.91
579.25	2230.72
579.60	2226.30
579.95	2221.59
580.30	2216.88
580.66	2211.97
581.01	2207.25
581.36	2202.49
581.71	2198.72
582.06	2194.57
582.42	2190.48
582.77	2185.56
583.12	2181.34
583.47	2177.09
583.82	2172.48
584.17	2167.58
584.53	2162.41
584.88	2157.11
585.23	2151.51
585.58	2146.31
585.93	2140.98
586.28	2136.29
586.63	2131.62
586.98	2126.67
587.34	2122.29
587.69	2117.75
588.04	2112.90
588.39	2107.58
588.74	2101.62
589.09	2095.72
589.44	2089.19
589.79	2083.36
590.14	2078.00
590.49	2071.56
590.84	2065.26
591.19	2059.56
591.54	2053.33
591.89	2046.29
592.25	2039.78
592.60	2032.76
592.95	2025.45
593.30	2018.49
593.65	2011.11
594.00	2004.24
594.35	1997.12
594.70	1989.13
595.05	1982.38
595.40	1975.02
595.75	1967.81
596.10	1961.84
596.45	1955.22
596.80	1949.24
597.15	1942.84
597.50	1936.13
597.85	1929.75
598.19	1923.25
598.54	1916.31
598.89	1909.71
599.24	1903.88
599.59	1897.55
599.94	1891.39
600.29	1885.19
600.64	1878.52
600.99	1871.40
601.34	1864.72
601.69	1857.79
602.04	1851.19
602.39	1843.81
602.74	1837.19
603.08	1830.46
603.43	1823.64
603.78	1816.33
604.13	1809.35
604.48	1802.20
604.83	1795.20
605.18	1788.43
605.53	1780.55
605.87	1772.55
606.22	1765.33
606.57	1757.35
606.92	1749.82
607.27	1742.82
607.62	1736.02
607.96	1728.95
608.31	1722.26
608.66	1714.57
609.01	1707.24
609.36	1699.71
609.70	1691.61
610.05	1683.61
610.40	1675.93
610.75	1667.63
611.10	1660.01
611.44	1651.36
611.79	1643.29
612.14	1634.72
612.49	1625.42
612.83	1617.04
613.18	1608.84
613.53	1600.71
613.88	1592.15
614.22	1583.77
614.57	1574.95
614.92	1566.84
615.27	1559.25
615.61	1550.90
615.96	1542.86
616.31	1535.04
616.65	1527.62
617.00	1519.96
617.35	1512.07
617.70	1503.66
618.04	1495.12
618.39	1486.82
618.74	1479.16
619.08	1470.77
619.43	1462.97
619.78	1455.95
620.12	1448.69
620.47	1441.07
620.82	1432.76
621.16	1425.20
621.51	1417.44
621.85	1409.75
622.20	1401.07
622.55	1392.49
622.89	1384.56
623.24	1376.77
623.59	1369.25
623.93	1361.51
624.28	1354.28
624.62	1346.73
624.97	1339.53
625.32	1332.64
625.66	1325.41
626.01	1318.10
626.35	1310.67
626.70	1302.71
627.04	1295.03
627.39	1287.08
627.73	1279.59
628.08	1272.60
628.43	1265.28
628.77	1257.96
629.12	1250.41
629.46	1243.24
629.81	1235.76
630.15	1228.41
630.50	1220.99
630.84	1212.81
631.19	1204.76
631.53	1197.08
631.88	1189.57
632.22	1181.92
632.57	1174.51
632.91	1166.90
633.26	1159.47
633.60	1151.81
633.95	1144.73
634.29	1137.40
634.64	1130.58
634.98	1123.17
635.32	1115.93
635.67	1109.26
636.01	1102.48
636.36	1095.65
636.70	1088.99
637.05	1082.35
637.39	1075.86
637.73	1069.31
638.08	1063.31
638.42	1057.28
638.77	1050.83
639.11	1044.10
639.45	1037.58
639.80	1030.80
640.14	1024.46
640.49	1017.90
640.83	1011.58
641.17	1005.47
641.52	999.13
641.86	992.69
642.20	986.76
642.55	980.33
642.89	973.77
643.23	967.15
643.58	961.31
643.92	955.05
644.26	949.00
644.61	942.81
644.95	936.77
645.29	930.17
645.64	923.41
645.98	917.04
646.32	911.11
646.66	905.12
647.01	899.37
647.35	893.53
647.69	887.59
648.04	882.12
648.38	876.18
648.72	870.29
649.06	864.19
649.41	858.23
649.75	852.33
650.09	846.50
650.43	840.74
650.78	834.58
651.12	828.60
651.46	822.86
651.80	817.22
652.14	811.77
652.49	806.35
652.83	801.18
653.17	795.53
653.51	789.84
653.85	784.41
654.20	778.78
654.54	772.76
654.88	767.04
655.22	761.07
655.56	755.30
655.90	749.79
656.25	744.52
656.59	739.22
656.93	734.13
657.27	728.95
657.61	723.51
657.95	718.42
658.29	713.37
658.64	708.11
658.98	702.72
659.32	697.26
659.66	692.06
660.00	686.74
660.34	681.59
660.68	676.66
661.02	671.57
661.36	666.76
661.70	662.31
662.05	657.92
662.39	653.61
662.73	649.16
663.07	644.76
663.41	640.32
663.75	635.76
664.09	631.18
664.43	626.67
664.77	622.51
665.11	618.13
665.45	613.94
665.79	609.79
666.13	605.68
666.47	601.53
666.81	597.41
667.15	593.27
667.49	589.41
667.83	585.48
668.17	581.48
668.51	577.43
668.85	573.33
669.19	569.43
669.53	565.59
669.87	561.73
670.21	557.95
670.55	554.29
670.89	550.83
671.23	547.42
671.57	543.91
671.91	540.35
672.25	536.84
672.58	533.29
672.92	529.85
673.26	526.57
673.60	523.38
673.94	520.17
674.28	517.18
674.62	514.18
674.96	511.16
675.30	508.30
675.64	505.33
675.97	502.52
676.31	499.66
676.65	496.65
676.99	493.89
677.33	490.99
677.67	488.13
678.01	485.13
678.34	482.13
678.68	479.22
679.02	476.35
679.36	473.53
679.70	470.79
680.04	468.05
680.37	465.24
680.71	462.43
681.05	459.79
681.39	457.04
681.73	454.38
682.06	451.76
682.40	449.16
682.74	446.57
683.08	443.97
683.42	441.34
683.75	438.82
684.09	436.21
684.43	433.78
684.77	431.33
685.10	428.92
685.44	426.58
685.78	424.29
686.12	422.00
686.45	419.69
686.79	417.38
687.13	415.11
687.46	412.89
687.80	410.70
688.14	408.45
688.48	406.47
688.81	404.20
689.15	402.02
689.49	399.85
689.82	397.77
690.16	395.70
690.50	393.68
690.83	391.74
691.17	389.77
691.51	387.80
691.84	385.93
692.18	384.05
692.52	382.03
692.85	380.06
693.19	378.18
693.52	376.38
693.86	374.55
694.20	372.73
694.53	370.92
694.87	369.01
695.21	367.17
695.54	365.26
695.88	363.54
696.21	361.83
696.55	360.14
696.88	358.44
697.22	356.71
697.56	355.13
697.89	353.50
698.23	351.89
698.56	350.24
698.90	348.59
699.23	346.85
699.57	345.26
699.90	343.67
700.24	342.15
700.58	340.60
700.91	339.09
701.25	337.66
701.58	336.34
701.92	335.01
702.25	333.65
702.59	332.26
702.92	330.89
703.26	329.56
703.59	328.27
703.93	327.07
704.26	325.86
704.60	324.53
704.93	323.20
705.26	321.95
705.60	320.73
705.93	319.54
706.27	318.51
706.60	317.45
706.94	316.39
707.27	315.21
707.61	314.11
707.94	313.07
708.27	311.93
708.61	310.78
708.94	309.74
709.28	308.71
709.61	307.69
709.94	306.75
710.28	305.69
710.61	304.65
710.95	303.58
711.28	302.62
711.61	301.64
711.95	300.70
712.28	299.72
712.61	298.74
712.95	297.81
713.28	296.91
713.61	295.98
713.95	295.04
714.28	294.22
714.61	293.29
714.95	292.39
715.28	291.48
715.61	290.59
715.95	289.65
716.28	288.78
716.61	287.91
716.95	287.06
717.28	286.29
717.61	285.53
717.94	284.71
718.28	283.90
718.61	283.13
718.94	282.41
719.27	281.73
719.61	281.08
719.94	280.39
720.27	279.62
720.60	278.94
720.94	278.30
721.27	277.62
721.60	277.05
721.93	276.45
722.27	275.90
722.60	275.32
722.93	274.77
723.26	274.23
723.59	273.70
723.93	273.14
724.26	272.62
724.59	272.04
724.92	271.51
725.25	270.98
725.59	270.46
725.92	269.96
726.25	269.40
726.58	268.88
726.91	268.35
727.24	267.90
727.57	267.43
727.91	266.93
728.24	266.46
728.57	265.96
728.90	265.51
729.23	265.00
729.56	264.59
729.89	264.15
730.22	263.65
730.55	263.14
730.89	262.69
731.22	262.20
731.55	261.75
731.88	261.31
732.21	260.88
732.54	260.44
732.87	260.05
733.20	259.65
733.53	259.27
733.86	258.94
734.19	258.52
734.52	258.15
734.85	257.82
735.18	257.43
735.51	257.09
735.84	256.71
736.17	256.39
736.50	255.98
736.83	255.78
737.16	255.46
737.49	255.17
737.82	254.85
738.15	254.55
738.48	254.24
738.81	253.92
739.14	253.63
739.47	253.35
739.80	253.01
740.13	252.72
740.46	252.40
740.79	252.07
741.12	251.78
741.45	251.46
741.78	251.14
742.11	250.91
742.44	250.59
742.77	250.31
743.10	250.04
743.43	249.75
743.75	249.30
744.08	249.19
744.41	248.91
744.74	248.63
745.07	248.33
745.40	248.12
745.73	247.91
746.06	247.63
746.39	247.36
746.71	247.08
747.04	246.81
747.37	246.56
747.70	246.32
748.03	246.07
748.36	245.85
748.68	245.58
749.01	245.31
749.34	245.09
749.67	244.86
750.00	244.61
750.33	244.44
750.65	244.23
750.98	243.86
751.31	243.62
751.64	243.39
751.97	243.24
752.29	242.96
752.62	242.70
752.95	242.44
753.28	242.19
753.60	241.97
753.93	241.77
754.26	241.55
754.59	241.30
754.91	241.08
755.24	240.85
755.57	240.62
755.90	240.43
756.22	240.22
756.55	239.97
756.88	239.71
757.20	239.47
757.53	239.28
757.86	239.08
758.19	238.93
758.51	238.75
758.84	238.47
759.17	238.28
759.49	238.08
759.82	237.98
760.15	237.82
760.47	237.65
760.80	237.44
761.13	237.29
761.45	237.14
761.78	236.96
762.11	236.81
762.43	236.63
762.76	236.44
763.08	236.30
763.41	236.17
763.74	236.04
764.06	235.87
764.39	235.70
764.71	235.52
765.04	235.32
765.37	235.16
765.69	235.02
766.02	234.91
766.34	234.78
766.67	234.59
767.00	234.49
767.32	234.41
767.65	234.35
767.97	234.26
768.30	234.09
768.62	233.97
768.95	233.85
769.27	233.77
769.60	233.68
769.92	233.52
770.25	233.38
770.57	233.26
770.90	233.16
771.22	233.07
771.55	232.98
771.87	232.92
772.20	232.82
772.52	232.83
772.85	232.83
773.17	232.76
773.50	232.64
773.82	232.55
774.15	232.39
774.47	232.25
774.80	232.13
775.12	232.10
775.45	232.02
775.77	231.92
776.09	231.86
776.42	231.74
776.74	231.73
777.07	231.66
777.39	231.60
777.72	231.52
778.04	231.43
778.36	231.35
778.69	231.28
779.01	231.23
779.33	231.08
779.66	230.92
779.98	230.84
780.31	230.78
780.63	230.73
780.95	230.72
781.28	230.67
781.60	230.60
781.92	230.52
782.25	230.45
782.57	230.41
782.89	230.34
783.22	230.27
783.54	230.18
783.86	230.15
784.19	230.09
784.51	230.05
784.83	230.00
785.16	229.96
785.48	229.90
785.80	229.85
786.12	229.79
786.45	229.73
786.77	229.72
787.09	229.71
787.42	229.65
787.74	229.64
788.06	229.62
788.38	229.57
788.71	229.56
789.03	229.54
789.35	229.50
789.67	229.47
789.99	229.48
790.32	229.44
790.64	229.41
790.96	229.48
791.28	229.43
791.61	229.42
791.93	229.37
792.25	229.36
792.57	229.37
792.89	229.37
793.21	229.35
793.54	229.32
793.86	229.27
794.18	229.22
794.50	229.14
794.82	229.08
795.14	229.07
795.47	229.01
795.79	228.99
796.11	228.92
796.43	228.86
796.75	228.80
797.07	228.81
797.39	228.76
797.71	228.64
798.04	228.63
798.36	228.59
798.68	228.58
799.00	228.54
799.32	228.49
799.64	228.46
799.96	228.39
800.28	228.35
800.60	228.30
800.92	228.30
801.24	228.28
801.56	228.23
801.89	228.17
802.21	228.14
802.53	228.06
802.85	228.06
803.17	228.07
803.49	228.02
803.81	227.93
804.13	227.88
804.45	227.83
804.77	227.79
805.09	227.77
805.41	227.71
805.73	227.66
806.05	227.60
806.37	227.55
806.69	227.52
807.01	227.49
807.33	227.48
807.65	227.39
807.97	227.38
808.28	227.34
808.60	227.30
808.92	227.25
809.24	227.29
809.56	227.24
809.88	227.14
810.20	227.14
810.52	227.14
810.84	227.10
811.16	227.05
811.48	227.00
811.80	227.00
812.12	226.96
812.43	226.94
812.75	226.91
813.07	226.85
813.39	226.83
813.71	226.78
814.03	226.73
814.35	226.75
814.67	226.69
814.98	226.66
815.30	226.64
815.62	226.61
815.94	226.52
816.26	226.55
816.58	226.56
816.89	226.52
817.21	226.48
817.53	226.47
817.85	226.45
818.17	226.43
818.48	226.38
818.80	226.39
819.12	226.37
819.44	226.33
819.76	226.33
820.07	226.33
820.39	226.32
820.71	226.34
821.03	226.31
821.34	226.31
821.66	226.35
821.98	226.40
822.30	226.40
822.61	226.48
822.93	226.43
823.25	226.44
823.57	226.44
823.88	226.48
824.20	226.50
824.52	226.51
824.83	226.50
825.15	226.48
825.47	226.47
825.79	226.50
826.10	226.50
826.42	226.50
826.74	226.53
827.05	226.53
827.37	226.54
827.69	226.51
828.00	226.50
828.32	226.48
828.64	226.43
828.95	226.47
829.27	226.40
829.58	226.40
829.90	226.40
830.22	226.41
830.53	226.36
830.85	226.34
831.17	226.31
831.48	226.33
831.80	226.34
832.11	226.38
832.43	226.35
832.75	226.36
833.06	226.43
833.38	226.40
833.69	226.39
834.01	226.36
834.32	226.36
834.64	226.36
834.96	226.33
835.27	226.35
835.59	226.30
835.90	226.31
836.22	226.30
836.53	226.27
836.85	226.24
837.16	226.34
837.48	226.33
837.79	226.35
838.11	226.33
838.42	226.28
838.74	226.25
839.05	226.22
839.37	226.18
839.68	226.09
840.00	226.07
840.31	226.06
840.63	226.07
840.94	226.03
841.26	225.99
841.57	225.99
841.88	225.99
842.20	225.99
842.51	225.97
842.83	225.95
843.14	226.04
843.46	226.04
843.77	225.97
844.08	225.96
844.40	225.93
844.71	225.92
845.03	225.91
845.34	225.89
845.65	225.86
845.97	225.85
846.28	225.84
846.60	225.81
846.91	225.76
847.22	225.73
847.54	225.71
847.85	225.70
848.16	225.69
848.48	225.64
848.79	225.66
849.10	225.62
849.42	225.64
849.73	225.51
850.04	225.50
850.36	225.44
850.67	225.46
850.98	225.47
851.30	225.43
851.61	225.43
851.92	225.40
852.23	225.42
852.55	225.42
852.86	225.42
853.17	225.44
853.49	225.44
853.80	225.45
854.11	225.47
854.42	225.49
854.74	225.46
855.05	225.48
855.36	225.43
855.67	225.42
855.99	225.37
856.30	225.48
856.61	225.47
856.92	225.46
857.23	225.42
857.55	225.38
857.86	225.37
858.17	225.38
858.48	225.36
858.79	225.35
859.11	225.35
859.42	225.35
859.73	225.30
860.04	225.31
860.35	225.27
860.66	225.26
860.98	225.23
861.29	225.23
861.60	225.21
861.91	225.23
862.22	225.25
862.53	225.22
862.84	225.13
863.16	225.14
863.47	225.15
863.78	225.19
864.09	225.22
864.40	225.23
864.71	225.24
865.02	225.29
865.33	225.29
865.64	225.26
865.95	225.27
866.27	225.34
866.58	225.34
866.89	225.38
867.20	225.37
867.51	225.38
867.82	225.36
868.13	225.41
868.44	225.39
868.75	225.41
869.06	225.43
869.37	225.45
869.68	225.43
869.99	225.45
870.30	225.41
870.61	225.43
870.92	225.41
871.23	225.38
871.54	225.38
871.85	225.40
872.16	225.42
872.47	225.37
872.78	225.30
873.09	225.30
873.40	225.24
873.71	225.24
874.02	225.22
874.33	225.20
874.64	225.15
874.95	225.16
875.26	225.09
875.56	225.10
875.87	225.06
876.18	225.05
876.49	225.17
876.80	225.16
877.11	225.12
877.42	225.13
877.73	225.16
878.04	225.13
878.35	225.14
878.66	225.12
878.96	225.16
879.27	225.16
879.58	225.19
879.89	225.24
880.20	225.25
880.51	225.24
880.82	225.27
881.12	225.28
881.43	225.25
881.74	225.27
882.05	225.26
882.36	225.28
882.67	225.30
882.97	225.16
883.28	225.17
883.59	225.16
883.90	225.16
884.21	225.14
884.51	225.14
884.82	225.09
885.13	225.13
885.44	225.11
885.74	225.11
886.05	225.06
886.36	225.05
886.67	225.03
886.98	225.06
887.28	225.04
887.59	225.06
887.90	225.05
888.20	225.05
888.51	225.07
888.82	225.03
889.13	225.02
889.43	225.08
889.74	225.08
890.05	225.07
890.35	225.09
890.66	225.10
890.97	225.07
891.28	225.07
891.58	225.03
891.89	225.03
892.20	225.00
892.50	225.04
892.81	225.02
893.12	225.03
893.42	225.02
893.73	225.05
894.04	225.03
894.34	225.03
894.65	224.98
894.95	224.97
895.26	225.01
895.57	225.05
895.87	225.02
896.18	225.04
896.48	225.05
896.79	225.04
897.10	225.06
897.40	225.08
897.71	225.09
898.01	225.06
898.32	225.09
898.63	225.12
898.93	225.10
899.24	225.12
899.54	225.12
899.85	225.09
900.15	225.07
900.46	225.11
900.76	225.11
901.07	225.12
901.38	225.12
901.68	225.13
901.99	225.08
902.29	225.04
902.60	225.02
902.90	225.03
903.21	225.01
903.51	224.98
903.82	224.99
904.12	224.98
904.43	225.02
904.73	225.04
905.03	225.03
905.34	225.11
905.64	225.09
905.95	225.11
906.25	225.15
906.56	225.15
906.86	225.13
907.17	225.12
907.47	225.16
907.77	225.17
908.08	225.11
908.38	225.13
908.69	225.15
908.99	225.17
909.30	225.14
909.60	225.15
909.90	225.15
910.21	225.13
910.51	225.13
910.81	225.12
911.12	225.08
911.42	225.11
911.73	225.00
912.03	225.03
912.33	225.00
912.64	224.95
912.94	224.92
913.24	224.89
913.55	224.88
913.85	224.83
914.15	224.84
914.46	224.87
914.76	224.86
915.06	224.86
915.37	224.84
915.67	224.85
915.97	224.85
916.27	224.84
916.58	224.84
916.88	224.86
917.18	224.85
917.49	224.92
917.79	224.93
918.09	224.94
918.39	224.99
918.70	225.01
919.00	225.04
919.30	225.11
919.60	225.10
919.91	225.10
920.21	225.16
920.51	225.13
920.81	225.11
921.12	225.11
921.42	225.11
921.72	225.12
922.02	225.11
922.32	225.11
922.63	225.12
922.93	225.17
923.23	225.16
923.53	225.14
923.83	225.10
924.13	225.08
924.44	225.07
924.74	225.06
925.04	225.08
925.34	225.08
925.64	225.05
925.94	225.05
926.24	225.13
926.55	225.09
926.85	225.11
927.15	225.14
927.45	225.16
927.75	225.15
928.05	225.15
928.35	225.15
928.65	225.16
928.95	225.19
929.26	225.14
929.56	225.16
929.86	225.18
930.16	225.16
930.46	225.17
930.76	225.20
931.06	225.15
931.36	225.14
931.66	225.18
931.96	225.19
932.26	225.24
932.56	225.19
932.86	225.21
933.16	225.22
933.46	225.22
933.76	225.17
934.06	225.17
934.36	225.20
934.66	225.20
934.96	225.22
935.26	225.20
935.56	225.24
935.86	225.24
936.16	225.24
936.46	225.24
936.76	225.23
937.06	225.22
937.36	225.21
937.66	225.17
937.96	225.16
938.26	225.13
938.56	225.10
938.86	225.11
939.16	225.11
939.46	225.14
939.76	225.15
940.06	225.17
940.35	225.17
940.65	225.12
940.95	225.12
941.25	225.07
941.55	225.07
941.85	225.08
942.15	225.07
942.45	225.09
942.75	225.08
943.04	225.06
943.34	225.09
943.64	225.12
943.94	225.11
944.24	225.08
944.54	225.10
944.84	225.10
945.13	225.07
945.43	225.06
945.73	225.04
946.03	225.00
946.33	224.96
946.62	224.95
946.92	224.96
947.22	224.98
947.52	224.98
947.82	225.00
948.11	224.95
948.41	224.93
948.71	224.89
949.01	224.87
949.31	224.90
949.60	224.87
949.90	224.87
950.20	224.88
950.50	224.87
950.79	224.83
951.09	224.85
951.39	224.85
951.69	224.83
951.98	224.84
952.28	224.85
952.58	224.89
952.87	224.86
953.17	224.89
953.47	224.87
953.76	224.85
954.06	224.84
954.36	224.82
954.66	224.81
954.95	224.86
955.25	224.87
955.55	224.83
955.84	224.85
956.14	224.86
956.44	224.85
956.73	224.88
957.03	224.88
957.32	224.87
957.62	224.85
957.92	224.88
958.21	224.85
958.51	224.98
958.81	224.98
959.10	225.02
959.40	225.02
959.69	225.01
959.99	225.03
960.29	225.01
960.58	225.03
960.88	225.08
961.17	225.05
961.47	225.06
961.76	225.07
962.06	225.05
962.36	225.02
962.65	225.03
962.95	224.98
963.24	224.99
963.54	224.98
963.83	225.00
964.13	224.99
964.42	224.98
964.72	224.87
965.01	224.87
965.31	224.82
965.60	224.80
965.90	224.81
966.19	224.79
966.49	224.83
966.78	224.82
967.08	224.81
967.37	224.81
967.67	224.79
967.96	224.80
968.26	224.81
968.55	224.81
968.85	224.79
969.14	224.80
969.43	224.80
969.73	224.78
970.02	224.77
970.32	224.75
970.61	224.75
970.91	224.70
971.20	224.71
971.49	224.71
971.79	224.72
972.08	224.67
972.38	224.71
972.67	224.65
972.96	224.68
973.26	224.66
973.55	224.72
973.85	224.71
974.14	224.72
974.43	224.71
974.73	224.71
975.02	224.73
975.31	224.74
975.61	224.74
975.90	224.73
976.19	224.75
976.49	224.79
976.78	224.79
977.07	224.79
977.37	224.78
977.66	224.80
977.95	224.77
978.24	224.81
978.54	224.81
978.83	224.82
979.12	224.81
979.42	224.80
979.71	224.74
980.00	224.77
980.29	224.76
980.59	224.78
980.88	224.80
981.17	224.77
981.46	224.76
981.76	224.77
982.05	224.81
982.34	224.84
982.63	224.83
982.93	224.83
983.22	224.89
983.51	224.91
983.80	224.94
984.09	224.98
984.39	224.97
984.68	224.97
984.97	224.97
985.26	225.01
985.55	225.06
985.85	225.07
986.14	225.07
986.43	225.08
986.72	225.01
987.01	224.99
987.30	224.99
987.59	224.99
987.89	225.01
988.18	224.99
988.47	224.94
988.76	224.99
989.05	224.96
989.34	224.91
989.63	224.93
989.92	224.91
990.22	224.91
990.51	224.89
990.80	224.86
991.09	224.88
991.38	224.85
991.67	224.81
991.96	224.78
992.25	224.79
992.54	224.78
992.83	224.82
993.12	224.83
993.41	224.86
993.70	224.88
993.99	224.89
994.28	224.87
994.58	224.88
994.87	224.86
995.16	224.89
995.45	224.90
995.74	224.87
996.03	224.89
996.32	224.87
996.61	224.90
996.90	224.93
997.19	224.92
997.48	224.93
997.77	224.91
998.06	224.94
998.34	224.91
998.63	224.89
998.92	224.85
999.21	224.83
999.50	224.84
999.79	224.81
1000.08	224.77
1000.37	224.76
1000.66	224.73
1000.95	224.71
1001.24	224.71
1001.53	224.71
1001.82	224.71
1002.11	224.69
1002.40	224.68
1002.68	224.70
1002.97	224.75
1003.26	224.74
1003.55	224.72
1003.84	224.71
1004.13	224.72
1004.42	224.73
1004.71	224.75
1004.99	224.75
1005.28	224.77
1005.57	224.76
1005.86	224.75
1006.15	224.78
1006.44	224.78
1006.72	224.82
1007.01	224.77
1007.30	224.78
1007.59	224.76
1007.88	224.76
1008.17	224.76
1008.45	224.78
1008.74	224.70
1009.03	224.66
1009.32	224.66
1009.60	224.69
1009.89	224.66
1010.18	224.66
1010.47	224.65
1010.76	224.62
1011.04	224.64
1011.33	224.64
1011.62	224.64
1011.91	224.65
1012.19	224.65
1012.48	224.68
1012.77	224.68
1013.05	224.74
1013.34	224.75
1013.63	224.75
1013.92	224.73
1014.20	224.72
1014.49	224.73
1014.78	224.79
1015.06	224.76
1015.35	224.77
1015.64	224.78
1015.92	224.83
1016.21	224.81
1016.50	224.82
1016.78	224.84
1017.07	224.87
1017.36	224.85
1017.64	224.85
1017.93	224.87
1018.22	224.86
1018.50	224.88
1018.79	224.87
1019.08	224.85
1019.36	224.84
1019.65	224.84
1019.93	224.89
1020.22	224.92
1020.51	224.94
1020.79	224.94
1021.08	224.82
1021.36	225.14
1021.65	224.69
1021.94	224.94
1022.22	224.73
1022.51	224.57
1022.79	225.60
1023.08	225.20
1023.36	225.97
1023.65	225.09
>>>>>End Processed Spectral Data<<<<<
