SpectraSuite Data File
++++++++++++++++++++++++++++++++++++
Date: Fri Feb 01 16:30:23 EST 2013
User: group
Dark Spectrum Present: No
Reference Spectrum Present: No
Number of Sampled Component Spectra: 1
Spectrometers: USB2E7196
Integration Time (usec): 35000 (USB2E7196)
Spectra Averaged: 100 (USB2E7196)
Boxcar Smoothing: 10 (USB2E7196)
Correct for Electrical Dark: No (USB2E7196)
Strobe/Lamp Enabled: No (USB2E7196)
Correct for Detector Non-linearity: No (USB2E7196)
Correct for Stray Light: No (USB2E7196)
Number of Pixels in Processed Spectrum: 2048
>>>>>Begin Processed Spectral Data<<<<<
339.09	0.00
339.48	213.83
339.86	215.27
340.24	216.75
340.63	219.10
341.01	220.79
341.39	220.95
341.78	222.49
342.16	223.70
342.54	224.51
342.93	212.63
343.31	223.39
343.69	223.97
344.07	224.45
344.46	224.90
344.84	225.24
345.22	225.50
345.60	225.74
345.99	225.92
346.37	226.03
346.75	226.10
347.13	226.20
347.52	226.26
347.90	226.36
348.28	226.37
348.66	226.41
349.05	226.39
349.43	226.40
349.81	226.41
350.19	226.46
350.57	226.54
350.96	226.55
351.34	226.61
351.72	226.69
352.10	226.79
352.48	226.86
352.87	226.90
353.25	226.96
353.63	227.02
354.01	227.09
354.39	227.19
354.77	227.25
355.15	227.31
355.54	227.38
355.92	227.39
356.30	227.45
356.68	227.57
357.06	227.66
357.44	227.70
357.82	227.75
358.20	227.78
358.58	227.83
358.97	227.89
359.35	227.94
359.73	228.02
360.11	228.03
360.49	228.05
360.87	228.07
361.25	228.13
361.63	228.21
362.01	228.24
362.39	228.23
362.77	228.28
363.15	228.30
363.53	228.30
363.91	228.32
364.29	228.34
364.67	228.25
365.05	228.25
365.43	228.30
365.81	228.34
366.19	228.36
366.57	228.39
366.95	228.38
367.33	228.34
367.71	228.31
368.09	228.34
368.47	228.32
368.85	228.35
369.23	228.32
369.61	228.26
369.99	228.28
370.37	228.27
370.75	228.29
371.13	228.24
371.51	228.18
371.89	228.14
372.27	228.11
372.65	228.09
373.03	228.03
373.41	227.96
373.78	227.93
374.16	227.88
374.54	227.81
374.92	227.71
375.30	227.65
375.68	227.56
376.06	227.48
376.44	227.44
376.82	227.37
377.19	227.33
377.57	227.27
377.95	227.18
378.33	227.14
378.71	227.02
379.09	226.99
379.47	226.94
379.84	226.86
380.22	226.77
380.60	226.65
380.98	226.61
381.36	226.52
381.73	226.40
382.11	226.37
382.49	226.30
382.87	226.26
383.25	226.22
383.62	226.28
384.00	226.22
384.38	226.17
384.76	226.16
385.13	226.14
385.51	226.06
385.89	226.00
386.27	225.93
386.64	225.91
387.02	225.86
387.40	225.85
387.78	225.83
388.15	225.83
388.53	225.81
388.91	225.78
389.29	225.77
389.66	225.82
390.04	225.76
390.42	225.76
390.79	225.76
391.17	225.75
391.55	225.62
391.92	225.66
392.30	225.67
392.68	225.62
393.05	225.62
393.43	225.63
393.81	225.65
394.18	225.68
394.56	225.67
394.94	225.67
395.31	225.63
395.69	225.69
396.06	225.70
396.44	225.73
396.82	225.77
397.19	225.84
397.57	225.79
397.95	225.82
398.32	225.85
398.70	225.89
399.07	225.98
399.45	226.04
399.82	226.06
400.20	226.08
400.58	226.15
400.95	226.18
401.33	226.25
401.70	226.39
402.08	226.45
402.45	226.55
402.83	226.67
403.20	226.82
403.58	226.89
403.95	227.03
404.33	227.17
404.71	227.27
405.08	227.46
405.46	227.64
405.83	227.80
406.21	227.92
406.58	228.07
406.96	228.20
407.33	228.39
407.70	228.57
408.08	228.81
408.45	229.03
408.83	229.23
409.20	229.43
409.58	229.60
409.95	229.84
410.33	230.09
410.70	230.34
411.08	230.62
411.45	230.91
411.82	231.20
412.20	231.57
412.57	231.98
412.95	232.27
413.32	232.64
413.69	233.03
414.07	233.49
414.44	234.00
414.82	234.51
415.19	235.05
415.56	235.63
415.94	236.17
416.31	236.81
416.68	237.47
417.06	238.23
417.43	238.92
417.81	239.70
418.18	240.50
418.55	241.36
418.93	242.22
419.30	243.11
419.67	244.03
420.04	244.96
420.42	245.93
420.79	247.11
421.16	248.27
421.54	249.48
421.91	250.66
422.28	251.88
422.66	253.21
423.03	254.53
423.40	255.87
423.77	257.30
424.15	258.72
424.52	260.19
424.89	261.78
425.26	263.30
425.64	264.76
426.01	266.33
426.38	267.94
426.75	269.63
427.13	271.38
427.50	273.20
427.87	275.10
428.24	276.99
428.61	278.72
428.99	280.71
429.36	282.80
429.73	284.89
430.10	286.93
430.47	288.97
430.85	291.09
431.22	293.33
431.59	295.71
431.96	297.92
432.33	300.42
432.70	302.81
433.08	305.68
433.45	308.32
433.82	310.95
434.19	313.84
434.56	316.66
434.93	319.25
435.30	321.82
435.68	324.67
436.05	327.48
436.42	330.25
436.79	332.71
437.16	335.41
437.53	338.21
437.90	341.02
438.27	343.74
438.64	346.49
439.01	349.04
439.38	351.25
439.75	353.41
440.13	355.86
440.50	358.18
440.87	359.96
441.24	361.90
441.61	364.04
441.98	365.53
442.35	367.32
442.72	369.20
443.09	371.00
443.46	372.03
443.83	372.60
444.20	373.11
444.57	373.96
444.94	374.22
445.31	374.54
445.68	374.86
446.05	374.95
446.42	374.57
446.79	374.14
447.16	373.69
447.53	373.36
447.90	372.19
448.27	371.01
448.64	369.43
449.01	368.29
449.37	366.29
449.74	364.40
450.11	362.17
450.48	359.68
450.85	357.15
451.22	354.99
451.59	353.00
451.96	351.05
452.33	348.42
452.70	346.03
453.07	343.23
453.43	340.32
453.80	337.56
454.17	334.93
454.54	332.41
454.91	329.72
455.28	327.08
455.65	324.63
456.02	322.18
456.38	320.08
456.75	317.40
457.12	315.20
457.49	312.95
457.86	310.74
458.23	308.93
458.59	306.94
458.96	304.87
459.33	302.97
459.70	301.11
460.07	299.63
460.43	297.96
460.80	296.35
461.17	294.96
461.54	293.48
461.91	292.05
462.27	290.62
462.64	289.36
463.01	288.04
463.38	286.70
463.74	285.37
464.11	284.16
464.48	283.17
464.85	282.05
465.21	281.22
465.58	280.33
465.95	279.23
466.32	278.30
466.68	277.42
467.05	276.56
467.42	275.71
467.78	274.81
468.15	273.94
468.52	273.33
468.88	272.46
469.25	271.68
469.62	271.08
469.98	270.42
470.35	269.81
470.72	269.22
471.08	268.62
471.45	268.08
471.82	267.58
472.18	266.99
472.55	266.57
472.92	266.04
473.28	265.59
473.65	265.16
474.02	264.76
474.38	264.38
474.75	264.07
475.11	263.74
475.48	263.49
475.85	263.27
476.21	263.02
476.58	262.88
476.94	262.76
477.31	262.59
477.67	262.42
478.04	262.30
478.41	262.25
478.77	262.32
479.14	262.27
479.50	262.27
479.87	262.36
480.23	262.45
480.60	262.56
480.96	262.68
481.33	262.86
481.69	263.06
482.06	263.29
482.42	263.47
482.79	263.72
483.15	264.04
483.52	264.43
483.88	264.80
484.25	265.14
484.61	265.60
484.98	266.06
485.34	266.69
485.71	267.29
486.07	267.90
486.44	268.44
486.80	269.13
487.17	269.87
487.53	270.68
487.90	271.55
488.26	272.46
488.62	273.45
488.99	274.46
489.35	275.51
489.72	276.64
490.08	277.86
490.44	279.12
490.81	280.46
491.17	281.83
491.54	283.30
491.90	284.88
492.26	286.48
492.63	288.21
492.99	289.96
493.36	291.87
493.72	293.94
494.08	296.07
494.45	298.35
494.81	300.74
495.17	303.16
495.54	305.72
495.90	308.44
496.26	311.27
496.63	314.17
496.99	317.27
497.35	320.49
497.72	323.91
498.08	327.37
498.44	331.04
498.80	334.91
499.17	338.95
499.53	343.14
499.89	347.55
500.26	352.04
500.62	356.67
500.98	361.60
501.34	366.66
501.71	372.00
502.07	377.46
502.43	383.02
502.79	388.80
503.16	394.86
503.52	401.08
503.88	407.45
504.24	414.13
504.60	421.03
504.97	428.18
505.33	435.52
505.69	443.30
506.05	451.08
506.41	459.00
506.78	467.15
507.14	475.61
507.50	484.30
507.86	493.36
508.22	502.59
508.59	511.85
508.95	521.41
509.31	531.16
509.67	541.30
510.03	551.61
510.39	562.16
510.75	572.95
511.12	583.94
511.48	595.26
511.84	606.67
512.20	618.19
512.56	630.09
512.92	642.23
513.28	654.45
513.64	666.96
514.00	679.66
514.37	692.54
514.73	705.64
515.09	718.70
515.45	731.91
515.81	745.56
516.17	759.46
516.53	773.56
516.89	787.76
517.25	801.82
517.61	816.24
517.97	830.67
518.33	844.99
518.69	859.64
519.05	874.54
519.41	889.71
519.77	905.21
520.13	920.71
520.49	936.04
520.85	951.44
521.21	967.00
521.57	983.17
521.93	998.89
522.29	1015.15
522.65	1031.30
523.01	1047.51
523.37	1063.36
523.73	1079.42
524.09	1095.51
524.45	1111.67
524.81	1128.27
525.17	1144.93
525.53	1161.86
525.89	1178.83
526.25	1195.63
526.61	1211.92
526.97	1228.53
527.33	1244.88
527.68	1261.34
528.04	1277.75
528.40	1294.18
528.76	1311.21
529.12	1327.69
529.48	1344.43
529.84	1360.36
530.20	1376.96
530.56	1393.94
530.91	1411.29
531.27	1428.01
531.63	1444.28
531.99	1460.89
532.35	1476.78
532.71	1492.65
533.07	1508.70
533.42	1524.43
533.78	1540.33
534.14	1556.57
534.50	1571.77
534.86	1587.62
535.21	1602.67
535.57	1618.56
535.93	1634.20
536.29	1648.92
536.65	1663.95
537.00	1678.77
537.36	1694.01
537.72	1708.27
538.08	1722.55
538.44	1736.24
538.79	1750.03
539.15	1763.42
539.51	1777.00
539.87	1791.18
540.22	1804.82
540.58	1818.52
540.94	1831.72
541.29	1844.48
541.65	1857.00
542.01	1870.16
542.37	1882.40
542.72	1894.77
543.08	1906.33
543.44	1918.45
543.79	1929.51
544.15	1940.31
544.51	1951.69
544.87	1962.52
545.22	1973.39
545.58	1983.33
545.94	1992.89
546.29	2002.81
546.65	2012.84
547.01	2021.99
547.36	2030.74
547.72	2039.11
548.07	2046.83
548.43	2054.93
548.79	2062.96
549.14	2070.45
549.50	2077.75
549.86	2085.30
550.21	2092.60
550.57	2099.70
550.92	2106.27
551.28	2113.16
551.64	2120.28
551.99	2126.82
552.35	2133.00
552.70	2139.11
553.06	2145.32
553.41	2151.73
553.77	2157.55
554.13	2163.54
554.48	2169.84
554.84	2175.31
555.19	2180.53
555.55	2185.73
555.90	2190.17
556.26	2195.15
556.61	2199.91
556.97	2204.13
557.32	2208.26
557.68	2212.34
558.03	2216.81
558.39	2220.63
558.74	2225.37
559.10	2229.20
559.45	2232.91
559.81	2237.22
560.16	2241.06
560.52	2244.17
560.87	2247.54
561.23	2250.16
561.58	2253.16
561.94	2255.51
562.29	2257.80
562.64	2260.58
563.00	2263.14
563.35	2266.62
563.71	2269.69
564.06	2272.96
564.42	2275.97
564.77	2278.55
565.12	2280.80
565.48	2282.54
565.83	2284.29
566.19	2285.66
566.54	2286.57
566.89	2287.75
567.25	2288.35
567.60	2289.57
567.96	2291.30
568.31	2292.28
568.66	2293.44
569.02	2294.12
569.37	2294.49
569.72	2295.44
570.08	2295.58
570.43	2295.76
570.78	2295.39
571.14	2293.85
571.49	2292.54
571.84	2292.27
572.20	2291.22
572.55	2290.38
572.90	2288.98
573.26	2287.73
573.61	2286.17
573.96	2284.63
574.31	2281.62
574.67	2278.57
575.02	2275.21
575.37	2271.88
575.72	2268.21
576.08	2265.14
576.43	2261.76
576.78	2258.23
577.13	2255.18
577.49	2252.25
577.84	2248.89
578.19	2245.22
578.54	2241.71
578.90	2237.48
579.25	2231.91
579.60	2227.11
579.95	2222.22
580.30	2217.34
580.66	2212.27
581.01	2207.34
581.36	2202.42
581.71	2198.45
582.06	2194.01
582.42	2189.46
582.77	2184.41
583.12	2179.97
583.47	2175.16
583.82	2170.36
584.17	2165.16
584.53	2159.58
584.88	2153.95
585.23	2148.14
585.58	2142.63
585.93	2137.34
586.28	2132.76
586.63	2127.85
586.98	2122.78
587.34	2117.97
587.69	2112.98
588.04	2107.73
588.39	2102.03
588.74	2095.58
589.09	2089.45
589.44	2082.91
589.79	2077.03
590.14	2071.46
590.49	2064.85
590.84	2058.58
591.19	2052.60
591.54	2046.28
591.89	2038.97
592.25	2032.22
592.60	2025.18
592.95	2017.69
593.30	2010.28
593.65	2002.67
594.00	1995.62
594.35	1988.32
594.70	1980.46
595.05	1973.35
595.40	1966.08
595.75	1958.66
596.10	1952.58
596.45	1945.86
596.80	1939.68
597.15	1933.05
597.50	1925.94
597.85	1919.53
598.19	1912.77
598.54	1905.50
598.89	1898.72
599.24	1893.03
599.59	1886.31
599.94	1880.08
600.29	1873.74
600.64	1867.32
600.99	1859.91
601.34	1853.22
601.69	1846.35
602.04	1839.44
602.39	1832.15
602.74	1825.46
603.08	1818.71
603.43	1812.02
603.78	1804.68
604.13	1797.50
604.48	1790.24
604.83	1783.31
605.18	1776.32
605.53	1768.49
605.87	1760.70
606.22	1753.59
606.57	1745.58
606.92	1738.45
607.27	1731.32
607.62	1724.49
607.96	1717.12
608.31	1710.57
608.66	1702.95
609.01	1695.38
609.36	1687.77
609.70	1679.70
610.05	1671.64
610.40	1664.04
610.75	1655.62
611.10	1647.97
611.44	1639.57
611.79	1631.70
612.14	1623.17
612.49	1614.04
612.83	1605.72
613.18	1597.43
613.53	1589.33
613.88	1580.86
614.22	1572.51
614.57	1563.89
614.92	1555.84
615.27	1548.20
615.61	1539.79
615.96	1531.76
616.31	1524.19
616.65	1516.79
617.00	1509.31
617.35	1501.63
617.70	1493.31
618.04	1484.92
618.39	1476.72
618.74	1469.16
619.08	1460.73
619.43	1453.09
619.78	1446.22
620.12	1438.98
620.47	1431.43
620.82	1423.29
621.16	1415.78
621.51	1408.16
621.85	1400.55
622.20	1392.06
622.55	1383.75
622.89	1375.99
623.24	1368.31
623.59	1360.90
623.93	1353.46
624.28	1346.24
624.62	1338.67
624.97	1331.49
625.32	1324.71
625.66	1317.62
626.01	1310.43
626.35	1303.01
626.70	1295.30
627.04	1287.48
627.39	1279.68
627.73	1272.41
628.08	1265.50
628.43	1258.18
628.77	1250.79
629.12	1243.17
629.46	1235.95
629.81	1228.53
630.15	1221.21
630.50	1213.89
630.84	1205.70
631.19	1197.75
631.53	1190.27
631.88	1182.80
632.22	1175.16
632.57	1167.79
632.91	1160.27
633.26	1152.87
633.60	1145.50
633.95	1138.39
634.29	1131.47
634.64	1124.89
634.98	1117.53
635.32	1110.28
635.67	1103.67
636.01	1096.91
636.36	1090.12
636.70	1083.63
637.05	1077.09
637.39	1070.63
637.73	1063.99
638.08	1058.01
638.42	1052.00
638.77	1045.48
639.11	1038.80
639.45	1032.42
639.80	1025.79
640.14	1019.42
640.49	1012.83
640.83	1006.44
641.17	1000.17
641.52	993.73
641.86	987.18
642.20	981.29
642.55	975.00
642.89	968.57
643.23	962.11
643.58	956.36
643.92	950.11
644.26	943.98
644.61	937.95
644.95	931.93
645.29	925.34
645.64	918.63
645.98	912.31
646.32	906.45
646.66	900.33
647.01	894.58
647.35	888.82
647.69	882.93
648.04	877.45
648.38	871.65
648.72	865.64
649.06	859.61
649.41	853.79
649.75	847.85
650.09	841.95
650.43	836.15
650.78	829.97
651.12	824.12
651.46	818.46
651.80	812.66
652.14	807.35
652.49	802.07
652.83	796.83
653.17	791.23
653.51	785.50
653.85	780.18
654.20	774.47
654.54	768.48
654.88	762.81
655.22	756.92
655.56	751.27
655.90	745.93
656.25	740.70
656.59	735.30
656.93	730.18
657.27	724.97
657.61	719.51
657.95	714.49
658.29	709.33
658.64	704.06
658.98	698.81
659.32	693.35
659.66	688.14
660.00	682.80
660.34	677.85
660.68	672.97
661.02	667.94
661.36	663.28
661.70	658.79
662.05	654.45
662.39	650.18
662.73	645.70
663.07	641.26
663.41	636.80
663.75	632.31
664.09	627.79
664.43	623.41
664.77	619.28
665.11	614.96
665.45	610.90
665.79	606.86
666.13	602.70
666.47	598.58
666.81	594.40
667.15	590.32
667.49	586.32
667.83	582.52
668.17	578.58
668.51	574.46
668.85	570.43
669.19	566.59
669.53	562.68
669.87	558.84
670.21	555.11
670.55	551.43
670.89	547.98
671.23	544.52
671.57	541.02
671.91	537.44
672.25	533.91
672.58	530.27
672.92	526.82
673.26	523.70
673.60	520.52
673.94	517.34
674.28	514.48
674.62	511.50
674.96	508.34
675.30	505.41
675.64	502.41
675.97	499.63
676.31	496.70
676.65	493.80
676.99	491.04
677.33	488.23
677.67	485.39
678.01	482.38
678.34	479.42
678.68	476.55
679.02	473.81
679.36	471.06
679.70	468.33
680.04	465.60
680.37	462.68
680.71	459.88
681.05	457.34
681.39	454.57
681.73	451.94
682.06	449.47
682.40	446.92
682.74	444.44
683.08	441.89
683.42	439.30
683.75	436.75
684.09	434.20
684.43	431.69
684.77	429.26
685.10	426.88
685.44	424.54
685.78	422.20
686.12	419.93
686.45	417.61
686.79	415.36
687.13	413.15
687.46	411.03
687.80	408.89
688.14	406.62
688.48	404.58
688.81	402.34
689.15	400.15
689.49	397.97
689.82	395.89
690.16	393.81
690.50	391.85
690.83	389.92
691.17	387.91
691.51	386.04
691.84	384.19
692.18	382.31
692.52	380.32
692.85	378.40
693.19	376.52
693.52	374.75
693.86	372.95
694.20	371.19
694.53	369.40
694.87	367.54
695.21	365.78
695.54	363.91
695.88	362.20
696.21	360.49
696.55	358.84
696.88	357.17
697.22	355.50
697.56	353.86
697.89	352.21
698.23	350.61
698.56	349.00
698.90	347.43
699.23	345.76
699.57	344.26
699.90	342.75
700.24	341.23
700.58	339.68
700.91	338.17
701.25	336.67
701.58	335.28
701.92	333.95
702.25	332.58
702.59	331.27
702.92	329.99
703.26	328.68
703.59	327.42
703.93	326.22
704.26	324.99
704.60	323.72
704.93	322.45
705.26	321.20
705.60	320.03
705.93	318.84
706.27	317.80
706.60	316.73
706.94	315.63
707.27	314.49
707.61	313.42
707.94	312.39
708.27	311.33
708.61	310.23
708.94	309.18
709.28	308.22
709.61	307.23
709.94	306.23
710.28	305.25
710.61	304.25
710.95	303.17
711.28	302.25
711.61	301.30
711.95	300.39
712.28	299.40
712.61	298.40
712.95	297.46
713.28	296.58
713.61	295.66
713.95	294.77
714.28	293.91
714.61	293.04
714.95	292.18
715.28	291.31
715.61	290.43
715.95	289.59
716.28	288.70
716.61	287.85
716.95	287.03
717.28	286.22
717.61	285.46
717.94	284.69
718.28	283.88
718.61	283.13
718.94	282.41
719.27	281.79
719.61	281.16
719.94	280.49
720.27	279.71
720.60	279.04
720.94	278.39
721.27	277.79
721.60	277.23
721.93	276.62
722.27	276.06
722.60	275.54
722.93	274.91
723.26	274.38
723.59	273.80
723.93	273.29
724.26	272.73
724.59	272.15
724.92	271.63
725.25	271.12
725.59	270.62
725.92	270.06
726.25	269.53
726.58	269.01
726.91	268.55
727.24	268.12
727.57	267.64
727.91	267.15
728.24	266.66
728.57	266.15
728.90	265.72
729.23	265.21
729.56	264.77
729.89	264.33
730.22	263.84
730.55	263.34
730.89	262.85
731.22	262.44
731.55	262.00
731.88	261.61
732.21	261.18
732.54	260.77
732.87	260.39
733.20	260.00
733.53	259.62
733.86	259.22
734.19	258.79
734.52	258.44
734.85	258.13
735.18	257.74
735.51	257.38
735.84	257.00
736.17	256.64
736.50	256.21
736.83	256.01
737.16	255.66
737.49	255.37
737.82	255.02
738.15	254.71
738.48	254.39
738.81	254.07
739.14	253.74
739.47	253.41
739.80	253.13
740.13	252.82
740.46	252.50
740.79	252.17
741.12	251.88
741.45	251.57
741.78	251.24
742.11	250.98
742.44	250.66
742.77	250.37
743.10	250.09
743.43	249.83
743.75	249.43
744.08	249.31
744.41	249.07
744.74	248.82
745.07	248.48
745.40	248.24
745.73	247.99
746.06	247.69
746.39	247.43
746.71	247.16
747.04	246.89
747.37	246.61
747.70	246.38
748.03	246.14
748.36	245.92
748.68	245.68
749.01	245.40
749.34	245.17
749.67	244.96
750.00	244.73
750.33	244.55
750.65	244.30
750.98	243.96
751.31	243.71
751.64	243.49
751.97	243.35
752.29	243.13
752.62	242.88
752.95	242.67
753.28	242.45
753.60	242.23
753.93	242.05
754.26	241.86
754.59	241.65
754.91	241.45
755.24	241.24
755.57	241.02
755.90	240.84
756.22	240.65
756.55	240.44
756.88	240.27
757.20	240.05
757.53	239.90
757.86	239.71
758.19	239.57
758.51	239.41
758.84	239.21
759.17	239.05
759.49	238.91
759.82	238.82
760.15	238.69
760.47	238.53
760.80	238.34
761.13	238.23
761.45	238.09
761.78	237.95
762.11	237.82
762.43	237.68
762.76	237.53
763.08	237.39
763.41	237.25
763.74	237.11
764.06	236.95
764.39	236.78
764.71	236.64
765.04	236.47
765.37	236.34
765.69	236.20
766.02	236.04
766.34	235.89
766.67	235.72
767.00	235.59
767.32	235.53
767.65	235.49
767.97	235.38
768.30	235.28
768.62	235.15
768.95	235.03
769.27	234.90
769.60	234.83
769.92	234.70
770.25	234.61
770.57	234.46
770.90	234.37
771.22	234.27
771.55	234.21
771.87	234.14
772.20	234.04
772.52	234.03
772.85	234.06
773.17	233.99
773.50	233.90
773.82	233.80
774.15	233.67
774.47	233.54
774.80	233.43
775.12	233.29
775.45	233.18
775.77	233.07
776.09	233.00
776.42	232.90
776.74	232.89
777.07	232.78
777.39	232.74
777.72	232.66
778.04	232.62
778.36	232.54
778.69	232.47
779.01	232.40
779.33	232.28
779.66	232.09
779.98	232.04
780.31	231.97
780.63	231.94
780.95	231.91
781.28	231.87
781.60	231.83
781.92	231.83
782.25	231.78
782.57	231.78
782.89	231.74
783.22	231.67
783.54	231.60
783.86	231.54
784.19	231.49
784.51	231.47
784.83	231.40
785.16	231.32
785.48	231.27
785.80	231.22
786.12	231.17
786.45	231.13
786.77	231.08
787.09	231.01
787.42	230.94
787.74	230.88
788.06	230.82
788.38	230.75
788.71	230.65
789.03	230.66
789.35	230.59
789.67	230.54
789.99	230.53
790.32	230.45
790.64	230.44
790.96	230.44
791.28	230.37
791.61	230.31
791.93	230.31
792.25	230.25
792.57	230.28
792.89	230.21
793.21	230.20
793.54	230.12
793.86	230.11
794.18	230.07
794.50	230.00
794.82	229.98
795.14	229.95
795.47	229.95
795.79	229.88
796.11	229.85
796.43	229.80
796.75	229.74
797.07	229.74
797.39	229.73
797.71	229.62
798.04	229.60
798.36	229.58
798.68	229.52
799.00	229.51
799.32	229.43
799.64	229.42
799.96	229.38
800.28	229.40
800.60	229.35
800.92	229.30
801.24	229.29
801.56	229.23
801.89	229.19
802.21	229.15
802.53	229.11
802.85	229.07
803.17	229.07
803.49	229.03
803.81	228.97
804.13	228.90
804.45	228.90
804.77	228.87
805.09	228.86
805.41	228.79
805.73	228.76
806.05	228.70
806.37	228.65
806.69	228.61
807.01	228.57
807.33	228.54
807.65	228.48
807.97	228.51
808.28	228.51
808.60	228.47
808.92	228.43
809.24	228.47
809.56	228.40
809.88	228.37
810.20	228.38
810.52	228.36
810.84	228.30
811.16	228.26
811.48	228.25
811.80	228.26
812.12	228.28
812.43	228.25
812.75	228.21
813.07	228.20
813.39	228.18
813.71	228.13
814.03	228.12
814.35	228.15
814.67	228.06
814.98	228.00
815.30	227.99
815.62	227.96
815.94	227.86
816.26	227.90
816.58	227.84
816.89	227.84
817.21	227.80
817.53	227.80
817.85	227.78
818.17	227.76
818.48	227.66
818.80	227.62
819.12	227.60
819.44	227.57
819.76	227.51
820.07	227.48
820.39	227.42
820.71	227.39
821.03	227.34
821.34	227.35
821.66	227.35
821.98	227.33
822.30	227.29
822.61	227.35
822.93	227.31
823.25	227.30
823.57	227.28
823.88	227.35
824.20	227.35
824.52	227.37
824.83	227.33
825.15	227.35
825.47	227.36
825.79	227.35
826.10	227.35
826.42	227.37
826.74	227.40
827.05	227.45
827.37	227.49
827.69	227.47
828.00	227.47
828.32	227.47
828.64	227.45
828.95	227.52
829.27	227.48
829.58	227.47
829.90	227.48
830.22	227.46
830.53	227.39
830.85	227.37
831.17	227.32
831.48	227.31
831.80	227.30
832.11	227.30
832.43	227.29
832.75	227.27
833.06	227.36
833.38	227.30
833.69	227.28
834.01	227.27
834.32	227.29
834.64	227.26
834.96	227.22
835.27	227.23
835.59	227.18
835.90	227.16
836.22	227.14
836.53	227.09
836.85	227.03
837.16	227.14
837.48	227.15
837.79	227.15
838.11	227.18
838.42	227.18
838.74	227.16
839.05	227.12
839.37	227.12
839.68	227.03
840.00	227.03
840.31	227.01
840.63	226.97
840.94	226.91
841.26	226.90
841.57	226.90
841.88	226.89
842.20	226.87
842.51	226.84
842.83	226.84
843.14	226.94
843.46	226.96
843.77	226.91
844.08	226.86
844.40	226.86
844.71	226.83
845.03	226.82
845.34	226.78
845.65	226.81
845.97	226.80
846.28	226.81
846.60	226.79
846.91	226.79
847.22	226.79
847.54	226.84
847.85	226.81
848.16	226.78
848.48	226.75
848.79	226.78
849.10	226.78
849.42	226.77
849.73	226.69
850.04	226.70
850.36	226.64
850.67	226.65
850.98	226.64
851.30	226.61
851.61	226.62
851.92	226.62
852.23	226.65
852.55	226.66
852.86	226.63
853.17	226.66
853.49	226.67
853.80	226.66
854.11	226.64
854.42	226.65
854.74	226.65
855.05	226.67
855.36	226.60
855.67	226.59
855.99	226.58
856.30	226.67
856.61	226.65
856.92	226.65
857.23	226.68
857.55	226.65
857.86	226.66
858.17	226.62
858.48	226.63
858.79	226.58
859.11	226.56
859.42	226.55
859.73	226.52
860.04	226.51
860.35	226.49
860.66	226.45
860.98	226.45
861.29	226.47
861.60	226.47
861.91	226.49
862.22	226.48
862.53	226.47
862.84	226.34
863.16	226.36
863.47	226.31
863.78	226.28
864.09	226.31
864.40	226.32
864.71	226.36
865.02	226.32
865.33	226.31
865.64	226.31
865.95	226.31
866.27	226.35
866.58	226.39
866.89	226.38
867.20	226.41
867.51	226.37
867.82	226.35
868.13	226.35
868.44	226.33
868.75	226.36
869.06	226.36
869.37	226.39
869.68	226.34
869.99	226.34
870.30	226.32
870.61	226.32
870.92	226.30
871.23	226.26
871.54	226.33
871.85	226.33
872.16	226.35
872.47	226.34
872.78	226.27
873.09	226.27
873.40	226.28
873.71	226.28
874.02	226.31
874.33	226.35
874.64	226.36
874.95	226.39
875.26	226.36
875.56	226.37
875.87	226.36
876.18	226.36
876.49	226.50
876.80	226.51
877.11	226.49
877.42	226.50
877.73	226.49
878.04	226.44
878.35	226.46
878.66	226.43
878.96	226.42
879.27	226.46
879.58	226.42
879.89	226.40
880.20	226.43
880.51	226.43
880.82	226.41
881.12	226.40
881.43	226.37
881.74	226.37
882.05	226.37
882.36	226.37
882.67	226.41
882.97	226.30
883.28	226.30
883.59	226.33
883.90	226.34
884.21	226.35
884.51	226.38
884.82	226.36
885.13	226.35
885.44	226.38
885.74	226.37
886.05	226.37
886.36	226.37
886.67	226.32
886.98	226.38
887.28	226.40
887.59	226.42
887.90	226.43
888.20	226.42
888.51	226.44
888.82	226.45
889.13	226.45
889.43	226.54
889.74	226.51
890.05	226.51
890.35	226.50
890.66	226.50
890.97	226.45
891.28	226.43
891.58	226.45
891.89	226.39
892.20	226.37
892.50	226.35
892.81	226.35
893.12	226.39
893.42	226.33
893.73	226.30
894.04	226.28
894.34	226.30
894.65	226.30
894.95	226.24
895.26	226.21
895.57	226.25
895.87	226.12
896.18	226.13
896.48	226.09
896.79	226.07
897.10	226.08
897.40	226.10
897.71	226.13
898.01	226.13
898.32	226.18
898.63	226.18
898.93	226.18
899.24	226.20
899.54	226.15
899.85	226.10
900.15	226.08
900.46	226.06
900.76	226.05
901.07	226.05
901.38	226.04
901.68	226.04
901.99	225.95
902.29	225.98
902.60	225.96
902.90	225.97
903.21	225.96
903.51	225.97
903.82	225.97
904.12	225.94
904.43	225.94
904.73	225.94
905.03	225.92
905.34	226.03
905.64	225.98
905.95	225.99
906.25	225.98
906.56	225.99
906.86	225.99
907.17	225.95
907.47	225.97
907.77	226.00
908.08	226.00
908.38	226.01
908.69	226.04
908.99	226.07
909.30	226.05
909.60	226.07
909.90	226.04
910.21	226.00
910.51	226.00
910.81	226.00
911.12	225.99
911.42	226.01
911.73	225.87
912.03	225.87
912.33	225.92
912.64	225.96
912.94	225.96
913.24	225.93
913.55	225.96
913.85	225.95
914.15	225.97
914.46	225.98
914.76	225.96
915.06	225.96
915.37	225.93
915.67	225.93
915.97	225.94
916.27	225.91
916.58	225.96
916.88	225.96
917.18	225.96
917.49	225.99
917.79	225.99
918.09	226.02
918.39	226.08
918.70	226.07
919.00	226.04
919.30	226.09
919.60	226.13
919.91	226.10
920.21	226.09
920.51	226.07
920.81	226.07
921.12	226.09
921.42	226.10
921.72	226.12
922.02	226.14
922.32	226.17
922.63	226.18
922.93	226.21
923.23	226.19
923.53	226.18
923.83	226.16
924.13	226.15
924.44	226.14
924.74	226.16
925.04	226.18
925.34	226.20
925.64	226.19
925.94	226.17
926.24	226.21
926.55	226.22
926.85	226.23
927.15	226.25
927.45	226.25
927.75	226.22
928.05	226.24
928.35	226.24
928.65	226.26
928.95	226.27
929.26	226.24
929.56	226.29
929.86	226.28
930.16	226.26
930.46	226.27
930.76	226.33
931.06	226.27
931.36	226.24
931.66	226.23
931.96	226.22
932.26	226.22
932.56	226.16
932.86	226.13
933.16	226.13
933.46	226.11
933.76	226.09
934.06	226.12
934.36	226.14
934.66	226.10
934.96	226.06
935.26	226.07
935.56	226.07
935.86	226.03
936.16	226.09
936.46	226.09
936.76	226.07
937.06	226.04
937.36	226.06
937.66	226.05
937.96	226.05
938.26	226.01
938.56	226.00
938.86	226.00
939.16	226.04
939.46	226.04
939.76	226.05
940.06	226.05
940.35	226.01
940.65	225.96
940.95	225.95
941.25	225.93
941.55	225.93
941.85	225.90
942.15	225.91
942.45	225.90
942.75	225.89
943.04	225.88
943.34	225.88
943.64	225.85
943.94	225.84
944.24	225.84
944.54	225.86
944.84	225.86
945.13	225.84
945.43	225.80
945.73	225.81
946.03	225.79
946.33	225.77
946.62	225.77
946.92	225.76
947.22	225.78
947.52	225.79
947.82	225.78
948.11	225.77
948.41	225.75
948.71	225.71
949.01	225.72
949.31	225.70
949.60	225.69
949.90	225.68
950.20	225.69
950.50	225.70
950.79	225.70
951.09	225.69
951.39	225.71
951.69	225.72
951.98	225.77
952.28	225.77
952.58	225.77
952.87	225.77
953.17	225.79
953.47	225.80
953.76	225.80
954.06	225.81
954.36	225.78
954.66	225.78
954.95	225.85
955.25	225.84
955.55	225.86
955.84	225.86
956.14	225.91
956.44	225.89
956.73	225.87
957.03	225.91
957.32	225.93
957.62	225.96
957.92	226.00
958.21	225.94
958.51	226.02
958.81	226.06
959.10	226.09
959.40	226.11
959.69	226.09
959.99	226.10
960.29	226.08
960.58	226.13
960.88	226.17
961.17	226.14
961.47	226.20
961.76	226.22
962.06	226.21
962.36	226.18
962.65	226.18
962.95	226.22
963.24	226.17
963.54	226.19
963.83	226.18
964.13	226.16
964.42	226.16
964.72	226.12
965.01	226.11
965.31	226.10
965.60	226.05
965.90	226.12
966.19	226.12
966.49	226.16
966.78	226.14
967.08	226.17
967.37	226.15
967.67	226.11
967.96	226.14
968.26	226.15
968.55	226.18
968.85	226.18
969.14	226.16
969.43	226.18
969.73	226.18
970.02	226.16
970.32	226.15
970.61	226.14
970.91	226.12
971.20	226.12
971.49	226.09
971.79	226.08
972.08	226.00
972.38	226.00
972.67	225.98
972.96	225.97
973.26	225.92
973.55	225.95
973.85	225.92
974.14	225.88
974.43	225.88
974.73	225.83
975.02	225.82
975.31	225.81
975.61	225.80
975.90	225.74
976.19	225.70
976.49	225.71
976.78	225.71
977.07	225.67
977.37	225.66
977.66	225.68
977.95	225.69
978.24	225.69
978.54	225.73
978.83	225.71
979.12	225.72
979.42	225.71
979.71	225.69
980.00	225.69
980.29	225.65
980.59	225.63
980.88	225.68
981.17	225.68
981.46	225.66
981.76	225.69
982.05	225.74
982.34	225.78
982.63	225.75
982.93	225.76
983.22	225.81
983.51	225.82
983.80	225.83
984.09	225.85
984.39	225.84
984.68	225.81
984.97	225.83
985.26	225.83
985.55	225.82
985.85	225.83
986.14	225.84
986.43	225.90
986.72	225.92
987.01	225.86
987.30	225.90
987.59	225.92
987.89	225.92
988.18	225.89
988.47	225.89
988.76	225.90
989.05	225.92
989.34	225.91
989.63	225.95
989.92	225.96
990.22	225.98
990.51	226.01
990.80	226.01
991.09	226.04
991.38	226.07
991.67	226.09
991.96	226.08
992.25	226.10
992.54	226.08
992.83	226.11
993.12	226.13
993.41	226.11
993.70	226.18
993.99	226.18
994.28	226.23
994.58	226.25
994.87	226.26
995.16	226.24
995.45	226.22
995.74	226.21
996.03	226.19
996.32	226.20
996.61	226.22
996.90	226.20
997.19	226.21
997.48	226.22
997.77	226.22
998.06	226.22
998.34	226.21
998.63	226.20
998.92	226.19
999.21	226.21
999.50	226.23
999.79	226.18
1000.08	226.18
1000.37	226.17
1000.66	226.14
1000.95	226.16
1001.24	226.18
1001.53	226.23
1001.82	226.19
1002.11	226.19
1002.40	226.20
1002.68	226.22
1002.97	226.29
1003.26	226.26
1003.55	226.20
1003.84	226.19
1004.13	226.22
1004.42	226.19
1004.71	226.18
1004.99	226.18
1005.28	226.18
1005.57	226.18
1005.86	226.17
1006.15	226.17
1006.44	226.13
1006.72	226.14
1007.01	226.12
1007.30	226.10
1007.59	226.06
1007.88	226.06
1008.17	226.07
1008.45	226.01
1008.74	225.98
1009.03	225.94
1009.32	225.94
1009.60	225.95
1009.89	225.95
1010.18	225.91
1010.47	225.93
1010.76	225.91
1011.04	225.84
1011.33	225.83
1011.62	225.83
1011.91	225.82
1012.19	225.80
1012.48	225.78
1012.77	225.78
1013.05	225.80
1013.34	225.80
1013.63	225.77
1013.92	225.78
1014.20	225.75
1014.49	225.75
1014.78	225.73
1015.06	225.71
1015.35	225.70
1015.64	225.71
1015.92	225.71
1016.21	225.70
1016.50	225.68
1016.78	225.70
1017.07	225.74
1017.36	225.72
1017.64	225.69
1017.93	225.69
1018.22	225.66
1018.50	225.68
1018.79	225.70
1019.08	225.66
1019.36	225.67
1019.65	225.68
1019.93	225.67
1020.22	225.70
1020.51	225.77
1020.79	225.76
1021.08	225.26
1021.36	225.58
1021.65	226.46
1021.94	225.63
1022.22	226.10
1022.51	225.62
1022.79	225.72
1023.08	226.26
1023.36	227.05
1023.65	225.32
>>>>>End Processed Spectral Data<<<<<
