SpectraSuite Data File
++++++++++++++++++++++++++++++++++++
Date: Fri Feb 01 17:01:57 EST 2013
User: group
Dark Spectrum Present: No
Reference Spectrum Present: No
Number of Sampled Component Spectra: 1
Spectrometers: USB2E7196
Integration Time (usec): 35000 (USB2E7196)
Spectra Averaged: 100 (USB2E7196)
Boxcar Smoothing: 10 (USB2E7196)
Correct for Electrical Dark: No (USB2E7196)
Strobe/Lamp Enabled: No (USB2E7196)
Correct for Detector Non-linearity: No (USB2E7196)
Correct for Stray Light: No (USB2E7196)
Number of Pixels in Processed Spectrum: 2048
>>>>>Begin Processed Spectral Data<<<<<
339.09	0.00
339.48	213.39
339.86	214.78
340.24	216.08
340.63	217.04
341.01	220.16
341.39	220.65
341.78	221.32
342.16	222.83
342.54	223.25
342.93	211.73
343.31	222.43
343.69	222.95
344.07	223.43
344.46	223.88
344.84	224.28
345.22	224.51
345.60	224.76
345.99	224.98
346.37	225.14
346.75	225.26
347.13	225.33
347.52	225.36
347.90	225.46
348.28	225.52
348.66	225.54
349.05	225.54
349.43	225.59
349.81	225.62
350.19	225.67
350.57	225.69
350.96	225.76
351.34	225.83
351.72	225.93
352.10	226.00
352.48	226.05
352.87	226.10
353.25	226.20
353.63	226.23
354.01	226.27
354.39	226.33
354.77	226.40
355.15	226.48
355.54	226.53
355.92	226.53
356.30	226.58
356.68	226.77
357.06	226.84
357.44	226.87
357.82	226.94
358.20	227.00
358.58	227.09
358.97	227.15
359.35	227.23
359.73	227.26
360.11	227.34
360.49	227.38
360.87	227.44
361.25	227.51
361.63	227.58
362.01	227.64
362.39	227.65
362.77	227.70
363.15	227.74
363.53	227.78
363.91	227.83
364.29	227.85
364.67	227.76
365.05	227.78
365.43	227.84
365.81	227.86
366.19	227.90
366.57	227.93
366.95	227.96
367.33	227.95
367.71	227.98
368.09	227.94
368.47	227.95
368.85	227.93
369.23	227.89
369.61	227.84
369.99	227.82
370.37	227.80
370.75	227.79
371.13	227.74
371.51	227.69
371.89	227.64
372.27	227.61
372.65	227.55
373.03	227.50
373.41	227.45
373.78	227.37
374.16	227.26
374.54	227.20
374.92	227.11
375.30	227.03
375.68	226.92
376.06	226.90
376.44	226.82
376.82	226.77
377.19	226.69
377.57	226.64
377.95	226.56
378.33	226.50
378.71	226.38
379.09	226.34
379.47	226.31
379.84	226.24
380.22	226.19
380.60	226.11
380.98	226.05
381.36	225.97
381.73	225.90
382.11	225.86
382.49	225.76
382.87	225.70
383.25	225.68
383.62	225.76
384.00	225.65
384.38	225.62
384.76	225.58
385.13	225.57
385.51	225.53
385.89	225.45
386.27	225.41
386.64	225.40
387.02	225.35
387.40	225.28
387.78	225.27
388.15	225.22
388.53	225.20
388.91	225.15
389.29	225.11
389.66	225.11
390.04	225.08
390.42	225.05
390.79	225.03
391.17	225.00
391.55	224.87
391.92	224.90
392.30	224.88
392.68	224.84
393.05	224.82
393.43	224.80
393.81	224.82
394.18	224.80
394.56	224.79
394.94	224.81
395.31	224.80
395.69	224.81
396.06	224.85
396.44	224.88
396.82	224.90
397.19	224.98
397.57	225.02
397.95	225.06
398.32	225.07
398.70	225.14
399.07	225.19
399.45	225.27
399.82	225.30
400.20	225.35
400.58	225.41
400.95	225.45
401.33	225.55
401.70	225.71
402.08	225.78
402.45	225.85
402.83	225.96
403.20	226.05
403.58	226.12
403.95	226.19
404.33	226.30
404.71	226.43
405.08	226.60
405.46	226.70
405.83	226.81
406.21	227.00
406.58	227.12
406.96	227.28
407.33	227.45
407.70	227.62
408.08	227.87
408.45	228.08
408.83	228.28
409.20	228.50
409.58	228.64
409.95	228.95
410.33	229.21
410.70	229.42
411.08	229.72
411.45	230.06
411.82	230.39
412.20	230.74
412.57	231.14
412.95	231.40
413.32	231.82
413.69	232.21
414.07	232.63
414.44	233.09
414.82	233.55
415.19	234.09
415.56	234.67
415.94	235.22
416.31	235.84
416.68	236.49
417.06	237.19
417.43	237.87
417.81	238.61
418.18	239.39
418.55	240.25
418.93	241.15
419.30	242.03
419.67	242.96
420.04	243.94
420.42	244.93
420.79	246.13
421.16	247.28
421.54	248.54
421.91	249.75
422.28	251.03
422.66	252.37
423.03	253.67
423.40	254.99
423.77	256.38
424.15	257.84
424.52	259.32
424.89	260.92
425.26	262.49
425.64	263.91
426.01	265.49
426.38	267.17
426.75	268.86
427.13	270.57
427.50	272.41
427.87	274.27
428.24	276.11
428.61	277.86
428.99	279.79
429.36	281.84
429.73	283.88
430.10	285.88
430.47	287.95
430.85	290.04
431.22	292.26
431.59	294.64
431.96	296.87
432.33	299.35
432.70	301.73
433.08	304.50
433.45	307.15
433.82	309.76
434.19	312.57
434.56	315.31
434.93	317.97
435.30	320.54
435.68	323.41
436.05	326.21
436.42	328.95
436.79	331.45
437.16	334.11
437.53	336.90
437.90	339.69
438.27	342.38
438.64	345.15
439.01	347.72
439.38	349.93
439.75	352.03
440.13	354.48
440.50	356.78
440.87	358.61
441.24	360.55
441.61	362.68
441.98	364.16
442.35	365.97
442.72	367.81
443.09	369.58
443.46	370.58
443.83	371.21
444.20	371.74
444.57	372.54
444.94	372.84
445.31	373.19
445.68	373.56
446.05	373.66
446.42	373.31
446.79	372.91
447.16	372.45
447.53	372.11
447.90	371.00
448.27	369.84
448.64	368.29
449.01	367.14
449.37	365.17
449.74	363.30
450.11	361.08
450.48	358.61
450.85	356.12
451.22	353.97
451.59	351.94
451.96	349.99
452.33	347.45
452.70	345.12
453.07	342.33
453.43	339.42
453.80	336.67
454.17	334.05
454.54	331.49
454.91	328.84
455.28	326.25
455.65	323.73
456.02	321.32
456.38	319.19
456.75	316.56
457.12	314.34
457.49	312.16
457.86	310.00
458.23	308.15
458.59	306.11
458.96	304.08
459.33	302.23
459.70	300.39
460.07	298.85
460.43	297.14
460.80	295.51
461.17	294.10
461.54	292.63
461.91	291.16
462.27	289.78
462.64	288.50
463.01	287.15
463.38	285.89
463.74	284.56
464.11	283.40
464.48	282.43
464.85	281.35
465.21	280.49
465.58	279.59
465.95	278.52
466.32	277.62
466.68	276.73
467.05	275.88
467.42	274.99
467.78	274.10
468.15	273.23
468.52	272.59
468.88	271.75
469.25	270.96
469.62	270.40
469.98	269.73
470.35	269.16
470.72	268.56
471.08	267.93
471.45	267.39
471.82	266.87
472.18	266.28
472.55	265.84
472.92	265.33
473.28	264.86
473.65	264.42
474.02	264.01
474.38	263.65
474.75	263.32
475.11	263.00
475.48	262.78
475.85	262.57
476.21	262.40
476.58	262.20
476.94	262.08
477.31	261.93
477.67	261.78
478.04	261.65
478.41	261.66
478.77	261.69
479.14	261.62
479.50	261.64
479.87	261.71
480.23	261.81
480.60	261.90
480.96	262.02
481.33	262.28
481.69	262.52
482.06	262.70
482.42	262.90
482.79	263.14
483.15	263.48
483.52	263.85
483.88	264.17
484.25	264.61
484.61	265.05
484.98	265.51
485.34	266.13
485.71	266.74
486.07	267.31
486.44	267.84
486.80	268.56
487.17	269.31
487.53	270.08
487.90	270.96
488.26	271.86
488.62	272.89
488.99	273.81
489.35	274.85
489.72	276.01
490.08	277.25
490.44	278.52
490.81	279.83
491.17	281.20
491.54	282.67
491.90	284.17
492.26	285.84
492.63	287.55
492.99	289.25
493.36	291.13
493.72	293.15
494.08	295.26
494.45	297.49
494.81	299.79
495.17	302.20
495.54	304.73
495.90	307.41
496.26	310.15
496.63	313.18
496.99	316.25
497.35	319.45
497.72	322.83
498.08	326.30
498.44	329.94
498.80	333.85
499.17	337.89
499.53	342.05
499.89	346.38
500.26	350.86
500.62	355.52
500.98	360.42
501.34	365.43
501.71	370.79
502.07	376.21
502.43	381.79
502.79	387.52
503.16	393.54
503.52	399.73
503.88	406.06
504.24	412.57
504.60	419.43
504.97	426.53
505.33	433.75
505.69	441.40
506.05	449.15
506.41	456.93
506.78	464.99
507.14	473.33
507.50	482.02
507.86	490.98
508.22	500.08
508.59	509.20
508.95	518.67
509.31	528.33
509.67	538.28
510.03	548.50
510.39	559.02
510.75	569.68
511.12	580.46
511.48	591.64
511.84	602.95
512.20	614.24
512.56	625.99
512.92	637.99
513.28	650.13
513.64	662.46
514.00	675.01
514.37	687.78
514.73	700.65
515.09	713.32
515.45	726.39
515.81	739.80
516.17	753.52
516.53	767.47
516.89	781.51
517.25	795.52
517.61	809.79
517.97	824.09
518.33	838.27
518.69	852.88
519.05	867.64
519.41	882.53
519.77	897.80
520.13	912.95
520.49	928.12
520.85	943.29
521.21	958.64
521.57	974.55
521.93	990.05
522.29	1006.14
522.65	1022.22
523.01	1038.16
523.37	1053.85
523.73	1069.78
524.09	1085.56
524.45	1101.49
524.81	1117.80
525.17	1134.11
525.53	1150.48
525.89	1166.98
526.25	1183.45
526.61	1199.44
526.97	1215.92
527.33	1232.14
527.68	1248.46
528.04	1264.59
528.40	1280.80
528.76	1297.57
529.12	1313.89
529.48	1330.43
529.84	1346.07
530.20	1362.35
530.56	1378.93
530.91	1396.04
531.27	1412.41
531.63	1428.52
531.99	1444.71
532.35	1460.33
532.71	1475.95
533.07	1491.91
533.42	1507.48
533.78	1523.21
534.14	1539.30
534.50	1554.24
534.86	1569.77
535.21	1584.58
535.57	1600.11
535.93	1615.26
536.29	1629.75
536.65	1644.41
537.00	1658.79
537.36	1673.78
537.72	1688.00
538.08	1702.24
538.44	1715.68
538.79	1729.31
539.15	1742.60
539.51	1756.13
539.87	1770.19
540.22	1783.71
540.58	1797.15
540.94	1810.14
541.29	1822.67
541.65	1834.96
542.01	1847.90
542.37	1859.86
542.72	1872.03
543.08	1883.69
543.44	1895.89
543.79	1906.76
544.15	1917.45
544.51	1928.85
544.87	1939.60
545.22	1950.21
545.58	1960.20
545.94	1969.97
546.29	1979.59
546.65	1989.44
547.01	1998.46
547.36	2007.00
547.72	2015.27
548.07	2023.05
548.43	2031.19
548.79	2039.12
549.14	2046.50
549.50	2053.60
549.86	2061.15
550.21	2068.41
550.57	2075.53
550.92	2082.00
551.28	2089.11
551.64	2096.06
551.99	2102.45
552.35	2108.60
552.70	2114.72
553.06	2120.70
553.41	2126.98
553.77	2133.03
554.13	2138.94
554.48	2145.19
554.84	2150.76
555.19	2156.01
555.55	2161.21
555.90	2165.80
556.26	2170.68
556.61	2175.50
556.97	2179.97
557.32	2184.24
557.68	2188.35
558.03	2192.52
558.39	2196.25
558.74	2200.94
559.10	2204.93
559.45	2208.59
559.81	2212.74
560.16	2216.54
560.52	2219.82
560.87	2223.18
561.23	2225.86
561.58	2228.89
561.94	2231.41
562.29	2233.69
562.64	2236.54
563.00	2239.02
563.35	2242.47
563.71	2245.69
564.06	2248.91
564.42	2252.02
564.77	2254.51
565.12	2257.08
565.48	2259.12
565.83	2261.28
566.19	2262.74
566.54	2263.84
566.89	2265.22
567.25	2266.14
567.60	2267.54
567.96	2269.37
568.31	2270.24
568.66	2271.54
569.02	2272.23
569.37	2272.76
569.72	2273.95
570.08	2274.27
570.43	2274.73
570.78	2274.32
571.14	2272.97
571.49	2271.69
571.84	2271.42
572.20	2270.57
572.55	2269.61
572.90	2268.34
573.26	2267.15
573.61	2265.53
573.96	2264.12
574.31	2261.44
574.67	2258.69
575.02	2255.45
575.37	2252.23
575.72	2248.83
576.08	2245.57
576.43	2242.58
576.78	2239.17
577.13	2236.04
577.49	2233.07
577.84	2229.73
578.19	2226.34
578.54	2223.03
578.90	2219.24
579.25	2213.94
579.60	2209.28
579.95	2204.55
580.30	2199.69
580.66	2194.71
581.01	2189.94
581.36	2185.16
581.71	2181.20
582.06	2176.95
582.42	2172.64
582.77	2167.68
583.12	2163.35
583.47	2159.05
583.82	2154.29
584.17	2149.21
584.53	2143.92
584.88	2138.54
585.23	2133.07
585.58	2127.60
585.93	2122.41
586.28	2117.82
586.63	2113.01
586.98	2108.19
587.34	2103.58
587.69	2098.87
588.04	2093.77
588.39	2088.42
588.74	2082.11
589.09	2076.08
589.44	2069.41
589.79	2063.48
590.14	2058.02
590.49	2051.55
590.84	2045.24
591.19	2039.45
591.54	2033.17
591.89	2026.06
592.25	2019.46
592.60	2012.36
592.95	2005.10
593.30	1997.81
593.65	1990.35
594.00	1983.45
594.35	1976.24
594.70	1968.47
595.05	1961.62
595.40	1954.48
595.75	1947.02
596.10	1941.00
596.45	1934.51
596.80	1928.64
597.15	1922.27
597.50	1915.26
597.85	1908.88
598.19	1902.43
598.54	1895.43
598.89	1888.92
599.24	1883.17
599.59	1876.69
599.94	1870.61
600.29	1864.47
600.64	1858.03
600.99	1850.86
601.34	1844.15
601.69	1837.39
602.04	1830.62
602.39	1823.23
602.74	1816.59
603.08	1810.02
603.43	1803.36
603.78	1796.13
604.13	1789.01
604.48	1781.82
604.83	1775.21
605.18	1768.41
605.53	1760.65
605.87	1752.76
606.22	1745.58
606.57	1737.69
606.92	1730.38
607.27	1723.50
607.62	1716.67
607.96	1709.53
608.31	1703.03
608.66	1695.47
609.01	1687.92
609.36	1680.42
609.70	1672.48
610.05	1664.41
610.40	1656.75
610.75	1648.59
611.10	1641.02
611.44	1632.71
611.79	1624.88
612.14	1616.13
612.49	1607.03
612.83	1598.70
613.18	1590.62
613.53	1582.64
613.88	1574.14
614.22	1565.95
614.57	1557.28
614.92	1549.27
615.27	1541.74
615.61	1533.39
615.96	1525.43
616.31	1517.99
616.65	1510.69
617.00	1503.30
617.35	1495.73
617.70	1487.52
618.04	1479.04
618.39	1470.89
618.74	1463.30
619.08	1454.98
619.43	1447.43
619.78	1440.64
620.12	1433.49
620.47	1426.05
620.82	1417.91
621.16	1410.49
621.51	1402.87
621.85	1395.23
622.20	1386.76
622.55	1378.39
622.89	1370.50
623.24	1362.85
623.59	1355.42
623.93	1347.92
624.28	1340.60
624.62	1333.13
624.97	1326.04
625.32	1319.25
625.66	1312.19
626.01	1305.14
626.35	1297.74
626.70	1290.10
627.04	1282.39
627.39	1274.54
627.73	1267.06
628.08	1260.17
628.43	1253.02
628.77	1245.69
629.12	1238.19
629.46	1231.15
629.81	1223.78
630.15	1216.69
630.50	1209.36
630.84	1201.16
631.19	1193.27
631.53	1185.85
631.88	1178.39
632.22	1170.71
632.57	1163.44
632.91	1155.91
633.26	1148.47
633.60	1141.02
633.95	1133.83
634.29	1126.73
634.64	1120.13
634.98	1112.85
635.32	1105.73
635.67	1099.12
636.01	1092.56
636.36	1085.85
636.70	1079.28
637.05	1072.74
637.39	1066.26
637.73	1059.79
638.08	1053.93
638.42	1047.92
638.77	1041.54
639.11	1034.85
639.45	1028.50
639.80	1021.86
640.14	1015.53
640.49	1009.01
640.83	1002.75
641.17	996.55
641.52	990.27
641.86	983.76
642.20	977.93
642.55	971.65
642.89	965.20
643.23	958.66
643.58	952.80
643.92	946.70
644.26	940.72
644.61	934.71
644.95	928.73
645.29	922.28
645.64	915.62
645.98	909.28
646.32	903.53
646.66	897.62
647.01	891.95
647.35	886.23
647.69	880.31
648.04	874.87
648.38	869.25
648.72	863.36
649.06	857.39
649.41	851.50
649.75	845.56
650.09	839.68
650.43	833.93
650.78	827.82
651.12	821.77
651.46	816.05
651.80	810.35
652.14	804.95
652.49	799.57
652.83	794.49
653.17	788.84
653.51	783.15
653.85	777.68
654.20	771.97
654.54	766.04
654.88	760.41
655.22	754.52
655.56	748.82
655.90	743.38
656.25	738.15
656.59	732.84
656.93	727.72
657.27	722.56
657.61	717.07
657.95	712.09
658.29	707.00
658.64	701.75
658.98	696.51
659.32	691.09
659.66	685.86
660.00	680.47
660.34	675.53
660.68	670.58
661.02	665.60
661.36	660.94
661.70	656.49
662.05	652.22
662.39	647.89
662.73	643.42
663.07	639.02
663.41	634.61
663.75	630.12
664.09	625.60
664.43	621.24
664.77	617.23
665.11	612.98
665.45	608.92
665.79	604.90
666.13	600.76
666.47	596.63
666.81	592.44
667.15	588.31
667.49	584.44
667.83	580.71
668.17	576.82
668.51	572.72
668.85	568.62
669.19	564.75
669.53	560.97
669.87	557.12
670.21	553.47
670.55	549.83
670.89	546.37
671.23	542.99
671.57	539.46
671.91	535.98
672.25	532.41
672.58	528.92
672.92	525.46
673.26	522.27
673.60	519.15
673.94	516.07
674.28	513.19
674.62	510.21
674.96	507.13
675.30	504.22
675.64	501.34
675.97	498.60
676.31	495.71
676.65	492.73
676.99	490.07
677.33	487.18
677.67	484.40
678.01	481.45
678.34	478.46
678.68	475.63
679.02	472.78
679.36	470.04
679.70	467.33
680.04	464.61
680.37	461.76
680.71	458.98
681.05	456.48
681.39	453.75
681.73	451.09
682.06	448.53
682.40	446.00
682.74	443.50
683.08	440.96
683.42	438.38
683.75	435.93
684.09	433.28
684.43	430.86
684.77	428.41
685.10	426.02
685.44	423.71
685.78	421.36
686.12	419.10
686.45	416.83
686.79	414.49
687.13	412.30
687.46	410.13
687.80	407.98
688.14	405.70
688.48	403.60
688.81	401.42
689.15	399.30
689.49	397.11
689.82	395.05
690.16	392.92
690.50	390.96
690.83	389.02
691.17	387.10
691.51	385.16
691.84	383.32
692.18	381.42
692.52	379.47
692.85	377.59
693.19	375.71
693.52	373.90
693.86	372.17
694.20	370.37
694.53	368.63
694.87	366.79
695.21	365.01
695.54	363.24
695.88	361.48
696.21	359.76
696.55	358.10
696.88	356.34
697.22	354.71
697.56	353.08
697.89	351.43
698.23	349.86
698.56	348.25
698.90	346.63
699.23	345.01
699.57	343.42
699.90	341.85
700.24	340.30
700.58	338.72
700.91	337.20
701.25	335.77
701.58	334.34
701.92	332.96
702.25	331.56
702.59	330.15
702.92	328.82
703.26	327.49
703.59	326.19
703.93	324.98
704.26	323.75
704.60	322.49
704.93	321.22
705.26	319.94
705.60	318.71
705.93	317.55
706.27	316.48
706.60	315.46
706.94	314.41
707.27	313.31
707.61	312.29
707.94	311.24
708.27	310.13
708.61	309.06
708.94	308.07
709.28	307.11
709.61	306.23
709.94	305.27
710.28	304.27
710.61	303.27
710.95	302.23
711.28	301.30
711.61	300.35
711.95	299.42
712.28	298.47
712.61	297.52
712.95	296.56
713.28	295.69
713.61	294.79
713.95	293.91
714.28	293.06
714.61	292.20
714.95	291.33
715.28	290.50
715.61	289.62
715.95	288.73
716.28	287.86
716.61	286.97
716.95	286.17
717.28	285.42
717.61	284.68
717.94	283.96
718.28	283.15
718.61	282.39
718.94	281.70
719.27	281.06
719.61	280.43
719.94	279.78
720.27	279.09
720.60	278.41
720.94	277.78
721.27	277.19
721.60	276.59
721.93	276.02
722.27	275.46
722.60	274.90
722.93	274.36
723.26	273.86
723.59	273.31
723.93	272.75
724.26	272.20
724.59	271.65
724.92	271.12
725.25	270.65
725.59	270.15
725.92	269.66
726.25	269.13
726.58	268.64
726.91	268.15
727.24	267.66
727.57	267.20
727.91	266.68
728.24	266.20
728.57	265.72
728.90	265.28
729.23	264.82
729.56	264.40
729.89	263.94
730.22	263.46
730.55	262.97
730.89	262.53
731.22	262.10
731.55	261.68
731.88	261.25
732.21	260.81
732.54	260.40
732.87	259.99
733.20	259.56
733.53	259.15
733.86	258.80
734.19	258.41
734.52	258.05
734.85	257.76
735.18	257.32
735.51	256.97
735.84	256.61
736.17	256.26
736.50	255.86
736.83	255.63
737.16	255.30
737.49	255.00
737.82	254.69
738.15	254.34
738.48	254.00
738.81	253.66
739.14	253.34
739.47	253.00
739.80	252.67
740.13	252.38
740.46	252.04
740.79	251.70
741.12	251.42
741.45	251.08
741.78	250.75
742.11	250.52
742.44	250.18
742.77	249.89
743.10	249.57
743.43	249.29
743.75	248.88
744.08	248.69
744.41	248.40
744.74	248.10
745.07	247.81
745.40	247.57
745.73	247.31
746.06	247.01
746.39	246.76
746.71	246.48
747.04	246.19
747.37	245.96
747.70	245.71
748.03	245.42
748.36	245.22
748.68	244.94
749.01	244.65
749.34	244.42
749.67	244.17
750.00	243.94
750.33	243.75
750.65	243.53
750.98	243.18
751.31	242.97
751.64	242.76
751.97	242.59
752.29	242.33
752.62	242.09
752.95	241.89
753.28	241.64
753.60	241.45
753.93	241.27
754.26	241.05
754.59	240.80
754.91	240.59
755.24	240.35
755.57	240.14
755.90	239.98
756.22	239.80
756.55	239.60
756.88	239.42
757.20	239.19
757.53	238.99
757.86	238.85
758.19	238.71
758.51	238.55
758.84	238.34
759.17	238.22
759.49	238.06
759.82	237.92
760.15	237.79
760.47	237.64
760.80	237.52
761.13	237.40
761.45	237.26
761.78	237.12
762.11	237.00
762.43	236.91
762.76	236.74
763.08	236.59
763.41	236.46
763.74	236.32
764.06	236.21
764.39	236.10
764.71	235.93
765.04	235.76
765.37	235.63
765.69	235.51
766.02	235.37
766.34	235.27
766.67	235.14
767.00	235.06
767.32	235.00
767.65	234.91
767.97	234.78
768.30	234.70
768.62	234.61
768.95	234.53
769.27	234.36
769.60	234.31
769.92	234.23
770.25	234.11
770.57	233.99
770.90	233.87
771.22	233.78
771.55	233.72
771.87	233.64
772.20	233.55
772.52	233.55
772.85	233.58
773.17	233.49
773.50	233.38
773.82	233.29
774.15	233.14
774.47	233.01
774.80	232.92
775.12	232.84
775.45	232.72
775.77	232.64
776.09	232.62
776.42	232.51
776.74	232.46
777.07	232.36
777.39	232.31
777.72	232.24
778.04	232.17
778.36	232.11
778.69	232.03
779.01	232.00
779.33	231.85
779.66	231.67
779.98	231.63
780.31	231.58
780.63	231.56
780.95	231.54
781.28	231.47
781.60	231.42
781.92	231.35
782.25	231.35
782.57	231.27
782.89	231.17
783.22	231.12
783.54	231.04
783.86	230.99
784.19	230.96
784.51	230.93
784.83	230.87
785.16	230.80
785.48	230.75
785.80	230.67
786.12	230.64
786.45	230.56
786.77	230.51
787.09	230.46
787.42	230.38
787.74	230.29
788.06	230.25
788.38	230.18
788.71	230.12
789.03	230.00
789.35	229.97
789.67	229.92
789.99	229.88
790.32	229.83
790.64	229.81
790.96	229.80
791.28	229.70
791.61	229.67
791.93	229.62
792.25	229.57
792.57	229.58
792.89	229.46
793.21	229.44
793.54	229.37
793.86	229.31
794.18	229.23
794.50	229.19
794.82	229.12
795.14	229.09
795.47	229.03
795.79	229.01
796.11	228.92
796.43	228.89
796.75	228.83
797.07	228.78
797.39	228.70
797.71	228.61
798.04	228.57
798.36	228.54
798.68	228.47
799.00	228.46
799.32	228.38
799.64	228.38
799.96	228.34
800.28	228.32
800.60	228.28
800.92	228.27
801.24	228.22
801.56	228.24
801.89	228.21
802.21	228.20
802.53	228.16
802.85	228.16
803.17	228.16
803.49	228.12
803.81	228.08
804.13	228.07
804.45	228.02
804.77	228.04
805.09	228.00
805.41	227.97
805.73	227.90
806.05	227.87
806.37	227.85
806.69	227.85
807.01	227.82
807.33	227.81
807.65	227.75
807.97	227.78
808.28	227.74
808.60	227.70
808.92	227.66
809.24	227.72
809.56	227.67
809.88	227.63
810.20	227.63
810.52	227.65
810.84	227.61
811.16	227.60
811.48	227.56
811.80	227.58
812.12	227.57
812.43	227.59
812.75	227.56
813.07	227.53
813.39	227.48
813.71	227.46
814.03	227.44
814.35	227.44
814.67	227.39
814.98	227.37
815.30	227.37
815.62	227.34
815.94	227.27
816.26	227.34
816.58	227.29
816.89	227.27
817.21	227.25
817.53	227.25
817.85	227.27
818.17	227.24
818.48	227.21
818.80	227.25
819.12	227.22
819.44	227.22
819.76	227.20
820.07	227.23
820.39	227.23
820.71	227.20
821.03	227.19
821.34	227.15
821.66	227.13
821.98	227.12
822.30	227.11
822.61	227.12
822.93	227.05
823.25	227.05
823.57	227.03
823.88	227.03
824.20	227.00
824.52	226.96
824.83	226.96
825.15	226.91
825.47	226.86
825.79	226.85
826.10	226.81
826.42	226.80
826.74	226.77
827.05	226.74
827.37	226.74
827.69	226.71
828.00	226.69
828.32	226.71
828.64	226.69
828.95	226.69
829.27	226.65
829.58	226.62
829.90	226.63
830.22	226.61
830.53	226.54
830.85	226.53
831.17	226.48
831.48	226.47
831.80	226.49
832.11	226.45
832.43	226.42
832.75	226.41
833.06	226.44
833.38	226.38
833.69	226.38
834.01	226.34
834.32	226.33
834.64	226.32
834.96	226.28
835.27	226.22
835.59	226.21
835.90	226.20
836.22	226.17
836.53	226.11
836.85	226.07
837.16	226.16
837.48	226.15
837.79	226.18
838.11	226.12
838.42	226.09
838.74	226.11
839.05	226.08
839.37	226.03
839.68	225.95
840.00	225.94
840.31	225.93
840.63	225.91
840.94	225.87
841.26	225.87
841.57	225.85
841.88	225.86
842.20	225.83
842.51	225.80
842.83	225.83
843.14	225.91
843.46	225.91
843.77	225.83
844.08	225.81
844.40	225.74
844.71	225.76
845.03	225.74
845.34	225.72
845.65	225.75
845.97	225.76
846.28	225.80
846.60	225.81
846.91	225.82
847.22	225.84
847.54	225.90
847.85	225.90
848.16	225.92
848.48	225.93
848.79	225.97
849.10	225.98
849.42	226.00
849.73	225.91
850.04	225.92
850.36	225.93
850.67	225.94
850.98	225.99
851.30	225.99
851.61	225.99
851.92	225.99
852.23	226.00
852.55	226.04
852.86	226.03
853.17	226.05
853.49	226.06
853.80	226.07
854.11	226.05
854.42	226.03
854.74	226.01
855.05	226.00
855.36	225.96
855.67	225.95
855.99	225.93
856.30	226.06
856.61	226.08
856.92	226.10
857.23	226.11
857.55	226.06
857.86	226.06
858.17	226.10
858.48	226.11
858.79	226.09
859.11	226.08
859.42	226.08
859.73	226.07
860.04	226.02
860.35	225.98
860.66	225.96
860.98	226.00
861.29	226.00
861.60	226.02
861.91	226.05
862.22	226.05
862.53	226.00
862.84	225.88
863.16	225.89
863.47	225.82
863.78	225.81
864.09	225.85
864.40	225.86
864.71	225.82
865.02	225.81
865.33	225.77
865.64	225.74
865.95	225.72
866.27	225.78
866.58	225.79
866.89	225.81
867.20	225.80
867.51	225.76
867.82	225.73
868.13	225.75
868.44	225.72
868.75	225.73
869.06	225.78
869.37	225.79
869.68	225.74
869.99	225.76
870.30	225.76
870.61	225.74
870.92	225.71
871.23	225.72
871.54	225.72
871.85	225.73
872.16	225.72
872.47	225.71
872.78	225.64
873.09	225.65
873.40	225.65
873.71	225.66
874.02	225.69
874.33	225.70
874.64	225.70
874.95	225.69
875.26	225.66
875.56	225.62
875.87	225.61
876.18	225.63
876.49	225.72
876.80	225.70
877.11	225.67
877.42	225.64
877.73	225.61
878.04	225.61
878.35	225.60
878.66	225.60
878.96	225.56
879.27	225.56
879.58	225.53
879.89	225.51
880.20	225.52
880.51	225.50
880.82	225.48
881.12	225.43
881.43	225.43
881.74	225.42
882.05	225.44
882.36	225.42
882.67	225.41
882.97	225.32
883.28	225.33
883.59	225.33
883.90	225.37
884.21	225.41
884.51	225.38
884.82	225.38
885.13	225.40
885.44	225.45
885.74	225.44
886.05	225.47
886.36	225.46
886.67	225.44
886.98	225.47
887.28	225.51
887.59	225.55
887.90	225.55
888.20	225.59
888.51	225.61
888.82	225.62
889.13	225.63
889.43	225.71
889.74	225.69
890.05	225.73
890.35	225.70
890.66	225.68
890.97	225.68
891.28	225.69
891.58	225.65
891.89	225.63
892.20	225.63
892.50	225.59
892.81	225.61
893.12	225.58
893.42	225.55
893.73	225.55
894.04	225.53
894.34	225.52
894.65	225.50
894.95	225.45
895.26	225.45
895.57	225.46
895.87	225.38
896.18	225.43
896.48	225.41
896.79	225.43
897.10	225.45
897.40	225.46
897.71	225.47
898.01	225.48
898.32	225.50
898.63	225.52
898.93	225.51
899.24	225.55
899.54	225.58
899.85	225.56
900.15	225.57
900.46	225.57
900.76	225.61
901.07	225.60
901.38	225.64
901.68	225.64
901.99	225.62
902.29	225.60
902.60	225.57
902.90	225.57
903.21	225.59
903.51	225.62
903.82	225.62
904.12	225.61
904.43	225.63
904.73	225.65
905.03	225.64
905.34	225.75
905.64	225.71
905.95	225.70
906.25	225.70
906.56	225.67
906.86	225.65
907.17	225.63
907.47	225.65
907.77	225.60
908.08	225.56
908.38	225.55
908.69	225.54
908.99	225.57
909.30	225.58
909.60	225.54
909.90	225.50
910.21	225.49
910.51	225.45
910.81	225.44
911.12	225.40
911.42	225.39
911.73	225.26
912.03	225.24
912.33	225.25
912.64	225.23
912.94	225.21
913.24	225.20
913.55	225.15
913.85	225.15
914.15	225.19
914.46	225.23
914.76	225.21
915.06	225.19
915.37	225.13
915.67	225.09
915.97	225.11
916.27	225.06
916.58	225.06
916.88	225.06
917.18	225.02
917.49	225.09
917.79	225.09
918.09	225.10
918.39	225.15
918.70	225.10
919.00	225.09
919.30	225.14
919.60	225.13
919.91	225.13
920.21	225.12
920.51	225.07
920.81	225.04
921.12	225.04
921.42	225.03
921.72	225.08
922.02	225.07
922.32	225.07
922.63	225.08
922.93	225.11
923.23	225.14
923.53	225.13
923.83	225.07
924.13	225.05
924.44	225.03
924.74	225.03
925.04	225.08
925.34	225.09
925.64	225.04
925.94	225.03
926.24	225.08
926.55	225.07
926.85	225.09
927.15	225.11
927.45	225.12
927.75	225.16
928.05	225.12
928.35	225.13
928.65	225.17
928.95	225.21
929.26	225.15
929.56	225.16
929.86	225.18
930.16	225.14
930.46	225.15
930.76	225.17
931.06	225.14
931.36	225.12
931.66	225.17
931.96	225.20
932.26	225.24
932.56	225.18
932.86	225.16
933.16	225.14
933.46	225.14
933.76	225.11
934.06	225.13
934.36	225.19
934.66	225.19
934.96	225.15
935.26	225.14
935.56	225.18
935.86	225.13
936.16	225.13
936.46	225.13
936.76	225.14
937.06	225.13
937.36	225.13
937.66	225.16
937.96	225.10
938.26	225.06
938.56	225.06
938.86	225.07
939.16	225.10
939.46	225.13
939.76	225.13
940.06	225.12
940.35	225.09
940.65	225.03
940.95	225.02
941.25	225.00
941.55	224.98
941.85	224.99
942.15	225.06
942.45	225.09
942.75	225.10
943.04	225.12
943.34	225.14
943.64	225.12
943.94	225.09
944.24	225.11
944.54	225.13
944.84	225.10
945.13	225.11
945.43	225.12
945.73	225.09
946.03	225.08
946.33	225.10
946.62	225.10
946.92	225.08
947.22	225.12
947.52	225.12
947.82	225.15
948.11	225.13
948.41	225.09
948.71	225.07
949.01	225.11
949.31	225.10
949.60	225.13
949.90	225.12
950.20	225.13
950.50	225.12
950.79	225.14
951.09	225.16
951.39	225.14
951.69	225.11
951.98	225.15
952.28	225.18
952.58	225.17
952.87	225.18
953.17	225.22
953.47	225.20
953.76	225.21
954.06	225.16
954.36	225.15
954.66	225.16
954.95	225.17
955.25	225.17
955.55	225.17
955.84	225.13
956.14	225.15
956.44	225.13
956.73	225.14
957.03	225.12
957.32	225.14
957.62	225.15
957.92	225.18
958.21	225.15
958.51	225.22
958.81	225.24
959.10	225.26
959.40	225.27
959.69	225.29
959.99	225.29
960.29	225.31
960.58	225.32
960.88	225.35
961.17	225.32
961.47	225.31
961.76	225.30
962.06	225.34
962.36	225.35
962.65	225.37
962.95	225.37
963.24	225.36
963.54	225.37
963.83	225.37
964.13	225.34
964.42	225.33
964.72	225.27
965.01	225.26
965.31	225.21
965.60	225.15
965.90	225.21
966.19	225.19
966.49	225.21
966.78	225.19
967.08	225.16
967.37	225.17
967.67	225.17
967.96	225.17
968.26	225.12
968.55	225.14
968.85	225.13
969.14	225.09
969.43	225.09
969.73	225.07
970.02	225.07
970.32	225.07
970.61	225.08
970.91	225.06
971.20	225.06
971.49	225.07
971.79	225.12
972.08	225.03
972.38	225.05
972.67	225.05
972.96	225.04
973.26	225.00
973.55	225.04
973.85	225.05
974.14	225.06
974.43	225.11
974.73	225.09
975.02	225.10
975.31	225.11
975.61	225.09
975.90	225.07
976.19	225.04
976.49	225.06
976.78	225.04
977.07	225.05
977.37	225.04
977.66	225.05
977.95	225.02
978.24	225.05
978.54	225.07
978.83	225.05
979.12	225.07
979.42	225.09
979.71	225.06
980.00	225.05
980.29	225.05
980.59	224.99
980.88	224.99
981.17	224.99
981.46	224.99
981.76	225.01
982.05	225.06
982.34	225.11
982.63	225.11
982.93	225.15
983.22	225.15
983.51	225.17
983.80	225.17
984.09	225.22
984.39	225.24
984.68	225.22
984.97	225.25
985.26	225.27
985.55	225.29
985.85	225.30
986.14	225.32
986.43	225.35
986.72	225.36
987.01	225.33
987.30	225.36
987.59	225.39
987.89	225.40
988.18	225.36
988.47	225.35
988.76	225.34
989.05	225.31
989.34	225.28
989.63	225.32
989.92	225.34
990.22	225.30
990.51	225.28
990.80	225.29
991.09	225.26
991.38	225.27
991.67	225.27
991.96	225.22
992.25	225.21
992.54	225.18
992.83	225.21
993.12	225.22
993.41	225.25
993.70	225.27
993.99	225.30
994.28	225.33
994.58	225.33
994.87	225.32
995.16	225.33
995.45	225.37
995.74	225.31
996.03	225.30
996.32	225.35
996.61	225.39
996.90	225.37
997.19	225.39
997.48	225.39
997.77	225.37
998.06	225.42
998.34	225.42
998.63	225.40
998.92	225.43
999.21	225.43
999.50	225.40
999.79	225.37
1000.08	225.36
1000.37	225.34
1000.66	225.37
1000.95	225.44
1001.24	225.47
1001.53	225.48
1001.82	225.48
1002.11	225.51
1002.40	225.49
1002.68	225.51
1002.97	225.59
1003.26	225.56
1003.55	225.53
1003.84	225.56
1004.13	225.59
1004.42	225.58
1004.71	225.60
1004.99	225.56
1005.28	225.57
1005.57	225.57
1005.86	225.56
1006.15	225.54
1006.44	225.56
1006.72	225.56
1007.01	225.48
1007.30	225.45
1007.59	225.44
1007.88	225.43
1008.17	225.41
1008.45	225.38
1008.74	225.33
1009.03	225.29
1009.32	225.28
1009.60	225.27
1009.89	225.23
1010.18	225.21
1010.47	225.20
1010.76	225.17
1011.04	225.17
1011.33	225.19
1011.62	225.19
1011.91	225.21
1012.19	225.21
1012.48	225.22
1012.77	225.19
1013.05	225.25
1013.34	225.25
1013.63	225.24
1013.92	225.24
1014.20	225.22
1014.49	225.23
1014.78	225.22
1015.06	225.20
1015.35	225.17
1015.64	225.21
1015.92	225.22
1016.21	225.17
1016.50	225.19
1016.78	225.20
1017.07	225.20
1017.36	225.18
1017.64	225.18
1017.93	225.16
1018.22	225.17
1018.50	225.13
1018.79	225.14
1019.08	225.11
1019.36	225.13
1019.65	225.11
1019.93	225.16
1020.22	225.17
1020.51	225.22
1020.79	225.21
1021.08	225.50
1021.36	224.88
1021.65	225.30
1021.94	225.38
1022.22	225.53
1022.51	224.69
1022.79	225.72
1023.08	225.14
1023.36	226.57
1023.65	224.63
>>>>>End Processed Spectral Data<<<<<
