SpectraSuite Data File
++++++++++++++++++++++++++++++++++++
Date: Fri Feb 01 14:54:36 EST 2013
User: group
Dark Spectrum Present: No
Reference Spectrum Present: No
Number of Sampled Component Spectra: 1
Spectrometers: USB2E7196
Integration Time (usec): 35000 (USB2E7196)
Spectra Averaged: 100 (USB2E7196)
Boxcar Smoothing: 10 (USB2E7196)
Correct for Electrical Dark: No (USB2E7196)
Strobe/Lamp Enabled: No (USB2E7196)
Correct for Detector Non-linearity: No (USB2E7196)
Correct for Stray Light: No (USB2E7196)
Number of Pixels in Processed Spectrum: 2048
>>>>>Begin Processed Spectral Data<<<<<
339.09	0.00
339.48	215.97
339.86	217.20
340.24	218.48
340.63	219.15
341.01	222.47
341.39	222.43
341.78	222.95
342.16	224.61
342.54	225.40
342.93	213.77
343.31	224.60
343.69	225.12
344.07	225.57
344.46	225.98
344.84	226.41
345.22	226.64
345.60	226.88
345.99	227.08
346.37	227.21
346.75	227.31
347.13	227.37
347.52	227.42
347.90	227.53
348.28	227.54
348.66	227.57
349.05	227.55
349.43	227.57
349.81	227.63
350.19	227.65
350.57	227.69
350.96	227.75
351.34	227.81
351.72	227.88
352.10	227.97
352.48	228.05
352.87	228.10
353.25	228.16
353.63	228.20
354.01	228.26
354.39	228.34
354.77	228.45
355.15	228.54
355.54	228.62
355.92	228.64
356.30	228.72
356.68	228.85
357.06	228.92
357.44	228.99
357.82	229.04
358.20	229.11
358.58	229.18
358.97	229.23
359.35	229.31
359.73	229.38
360.11	229.44
360.49	229.46
360.87	229.47
361.25	229.54
361.63	229.63
362.01	229.72
362.39	229.74
362.77	229.74
363.15	229.76
363.53	229.79
363.91	229.79
364.29	229.83
364.67	229.75
365.05	229.78
365.43	229.83
365.81	229.86
366.19	229.90
366.57	229.92
366.95	229.90
367.33	229.87
367.71	229.82
368.09	229.81
368.47	229.82
368.85	229.81
369.23	229.78
369.61	229.71
369.99	229.70
370.37	229.67
370.75	229.67
371.13	229.61
371.51	229.53
371.89	229.50
372.27	229.45
372.65	229.39
373.03	229.32
373.41	229.25
373.78	229.15
374.16	229.04
374.54	228.94
374.92	228.90
375.30	228.82
375.68	228.74
376.06	228.68
376.44	228.59
376.82	228.50
377.19	228.43
377.57	228.34
377.95	228.21
378.33	228.11
378.71	228.00
379.09	227.93
379.47	227.88
379.84	227.78
380.22	227.67
380.60	227.59
380.98	227.51
381.36	227.40
381.73	227.33
382.11	227.27
382.49	227.20
382.87	227.12
383.25	227.05
383.62	227.13
384.00	227.05
384.38	226.99
384.76	226.98
385.13	226.95
385.51	226.91
385.89	226.86
386.27	226.86
386.64	226.83
387.02	226.78
387.40	226.73
387.78	226.68
388.15	226.66
388.53	226.64
388.91	226.65
389.29	226.64
389.66	226.62
390.04	226.61
390.42	226.59
390.79	226.57
391.17	226.54
391.55	226.38
391.92	226.38
392.30	226.41
392.68	226.40
393.05	226.39
393.43	226.39
393.81	226.42
394.18	226.40
394.56	226.40
394.94	226.47
395.31	226.47
395.69	226.55
396.06	226.58
396.44	226.62
396.82	226.57
397.19	226.66
397.57	226.68
397.95	226.75
398.32	226.80
398.70	226.86
399.07	226.97
399.45	227.10
399.82	227.18
400.20	227.23
400.58	227.31
400.95	227.38
401.33	227.53
401.70	227.70
402.08	227.82
402.45	227.93
402.83	228.06
403.20	228.20
403.58	228.32
403.95	228.47
404.33	228.64
404.71	228.84
405.08	229.05
405.46	229.24
405.83	229.39
406.21	229.54
406.58	229.70
406.96	229.89
407.33	230.06
407.70	230.28
408.08	230.55
408.45	230.78
408.83	231.04
409.20	231.27
409.58	231.46
409.95	231.71
410.33	232.02
410.70	232.27
411.08	232.57
411.45	232.91
411.82	233.23
412.20	233.59
412.57	234.02
412.95	234.31
413.32	234.71
413.69	235.11
414.07	235.55
414.44	235.98
414.82	236.42
415.19	236.94
415.56	237.47
415.94	238.03
416.31	238.63
416.68	239.26
417.06	239.93
417.43	240.61
417.81	241.33
418.18	242.04
418.55	242.85
418.93	243.73
419.30	244.59
419.67	245.50
420.04	246.40
420.42	247.37
420.79	248.54
421.16	249.67
421.54	250.87
421.91	252.13
422.28	253.42
422.66	254.75
423.03	256.06
423.40	257.40
423.77	258.77
424.15	260.22
424.52	261.66
424.89	263.24
425.26	264.77
425.64	266.30
426.01	267.91
426.38	269.58
426.75	271.21
427.13	272.92
427.50	274.71
427.87	276.63
428.24	278.49
428.61	280.24
428.99	282.19
429.36	284.24
429.73	286.28
430.10	288.30
430.47	290.37
430.85	292.47
431.22	294.70
431.59	297.07
431.96	299.31
432.33	301.82
432.70	304.21
433.08	307.01
433.45	309.61
433.82	312.22
434.19	315.08
434.56	317.90
434.93	320.56
435.30	323.19
435.68	326.06
436.05	328.90
436.42	331.70
436.79	334.20
437.16	336.94
437.53	339.79
437.90	342.59
438.27	345.37
438.64	348.26
439.01	350.89
439.38	353.14
439.75	355.36
440.13	357.86
440.50	360.25
440.87	362.10
441.24	364.06
441.61	366.22
441.98	367.74
442.35	369.55
442.72	371.40
443.09	373.25
443.46	374.27
443.83	374.79
444.20	375.30
444.57	376.14
444.94	376.41
445.31	376.75
445.68	377.15
446.05	377.18
446.42	376.73
446.79	376.32
447.16	375.93
447.53	375.60
447.90	374.42
448.27	373.27
448.64	371.72
449.01	370.62
449.37	368.66
449.74	366.74
450.11	364.55
450.48	362.09
450.85	359.58
451.22	357.40
451.59	355.43
451.96	353.47
452.33	350.86
452.70	348.57
453.07	345.72
453.43	342.82
453.80	340.08
454.17	337.43
454.54	334.89
454.91	332.14
455.28	329.46
455.65	326.97
456.02	324.50
456.38	322.35
456.75	319.68
457.12	317.45
457.49	315.23
457.86	313.05
458.23	311.20
458.59	309.13
458.96	307.05
459.33	305.21
459.70	303.35
460.07	301.85
460.43	300.10
460.80	298.49
461.17	297.05
461.54	295.52
461.91	294.09
462.27	292.61
462.64	291.32
463.01	289.93
463.38	288.62
463.74	287.25
464.11	286.07
464.48	285.00
464.85	283.85
465.21	283.02
465.58	282.05
465.95	280.96
466.32	280.02
466.68	279.10
467.05	278.16
467.42	277.27
467.78	276.29
468.15	275.39
468.52	274.71
468.88	273.82
469.25	273.05
469.62	272.39
469.98	271.71
470.35	271.11
470.72	270.51
471.08	269.84
471.45	269.23
471.82	268.68
472.18	268.05
472.55	267.60
472.92	267.02
473.28	266.53
473.65	266.05
474.02	265.57
474.38	265.21
474.75	264.85
475.11	264.47
475.48	264.21
475.85	263.97
476.21	263.68
476.58	263.42
476.94	263.28
477.31	263.12
477.67	262.95
478.04	262.79
478.41	262.72
478.77	262.75
479.14	262.70
479.50	262.67
479.87	262.74
480.23	262.77
480.60	262.84
480.96	262.95
481.33	263.12
481.69	263.36
482.06	263.52
482.42	263.75
482.79	264.04
483.15	264.38
483.52	264.80
483.88	265.15
484.25	265.56
484.61	265.98
484.98	266.42
485.34	266.95
485.71	267.53
486.07	268.12
486.44	268.68
486.80	269.38
487.17	270.09
487.53	270.89
487.90	271.76
488.26	272.66
488.62	273.64
488.99	274.62
489.35	275.66
489.72	276.83
490.08	277.98
490.44	279.18
490.81	280.47
491.17	281.83
491.54	283.32
491.90	284.87
492.26	286.49
492.63	288.25
492.99	290.03
493.36	291.93
493.72	293.96
494.08	296.04
494.45	298.29
494.81	300.63
495.17	303.06
495.54	305.60
495.90	308.27
496.26	311.05
496.63	313.99
496.99	317.08
497.35	320.28
497.72	323.69
498.08	327.19
498.44	330.81
498.80	334.64
499.17	338.66
499.53	342.76
499.89	347.11
500.26	351.52
500.62	356.19
500.98	361.13
501.34	366.18
501.71	371.52
502.07	376.90
502.43	382.52
502.79	388.34
503.16	394.42
503.52	400.66
503.88	407.05
504.24	413.59
504.60	420.39
504.97	427.46
505.33	434.72
505.69	442.37
506.05	450.11
506.41	457.98
506.78	466.12
507.14	474.55
507.50	483.25
507.86	492.20
508.22	501.38
508.59	510.53
508.95	520.05
509.31	529.73
509.67	539.81
510.03	550.07
510.39	560.62
510.75	571.36
511.12	582.24
511.48	593.52
511.84	605.04
512.20	616.59
512.56	628.50
512.92	640.61
513.28	652.98
513.64	665.43
514.00	678.20
514.37	691.18
514.73	704.18
515.09	717.21
515.45	730.60
515.81	744.12
516.17	758.07
516.53	772.23
516.89	786.45
517.25	800.66
517.61	815.08
517.97	829.51
518.33	844.06
518.69	858.88
519.05	873.82
519.41	888.92
519.77	904.56
520.13	920.05
520.49	935.47
520.85	950.93
521.21	966.75
521.57	982.92
521.93	998.66
522.29	1015.07
522.65	1031.36
523.01	1047.57
523.37	1063.79
523.73	1080.04
524.09	1096.20
524.45	1112.62
524.81	1129.33
525.17	1146.29
525.53	1163.27
525.89	1180.07
526.25	1196.96
526.61	1213.42
526.97	1230.29
527.33	1246.75
527.68	1263.47
528.04	1280.16
528.40	1296.84
528.76	1313.96
529.12	1330.73
529.48	1347.75
529.84	1363.98
530.20	1380.82
530.56	1398.07
530.91	1415.46
531.27	1432.33
531.63	1448.87
531.99	1465.59
532.35	1481.66
532.71	1497.60
533.07	1513.93
533.42	1530.01
533.78	1546.08
534.14	1562.43
534.50	1577.78
534.86	1593.88
535.21	1609.19
535.57	1625.20
535.93	1640.77
536.29	1655.67
536.65	1670.76
537.00	1685.62
537.36	1701.04
537.72	1715.67
538.08	1729.91
538.44	1743.79
538.79	1757.81
539.15	1771.76
539.51	1785.52
539.87	1799.91
540.22	1813.65
540.58	1827.59
540.94	1840.99
541.29	1854.04
541.65	1866.92
542.01	1880.28
542.37	1892.57
542.72	1904.98
543.08	1916.83
543.44	1929.20
543.79	1940.49
544.15	1951.57
544.51	1963.19
544.87	1974.22
545.22	1984.90
545.58	1995.17
545.94	2005.00
546.29	2014.87
546.65	2024.51
547.01	2033.82
547.36	2042.66
547.72	2051.09
548.07	2058.79
548.43	2067.02
548.79	2074.97
549.14	2082.50
549.50	2089.90
549.86	2097.63
550.21	2104.91
550.57	2111.99
550.92	2118.67
551.28	2125.73
551.64	2132.77
551.99	2139.18
552.35	2145.22
552.70	2151.31
553.06	2157.32
553.41	2163.62
553.77	2169.58
554.13	2175.63
554.48	2181.65
554.84	2186.93
555.19	2192.23
555.55	2197.36
555.90	2201.60
556.26	2206.47
556.61	2211.10
556.97	2215.30
557.32	2219.36
557.68	2223.41
558.03	2227.69
558.39	2231.39
558.74	2235.97
559.10	2239.66
559.45	2243.21
559.81	2247.46
560.16	2251.20
560.52	2254.29
560.87	2257.60
561.23	2260.22
561.58	2263.06
561.94	2265.49
562.29	2267.79
562.64	2270.44
563.00	2273.00
563.35	2276.50
563.71	2279.55
564.06	2282.65
564.42	2285.35
564.77	2287.54
565.12	2289.68
565.48	2291.30
565.83	2292.75
566.19	2293.79
566.54	2294.64
566.89	2295.75
567.25	2296.18
567.60	2297.37
567.96	2298.93
568.31	2299.78
568.66	2300.59
569.02	2301.00
569.37	2301.13
569.72	2301.80
570.08	2301.59
570.43	2301.41
570.78	2300.50
571.14	2298.67
571.49	2297.12
571.84	2296.59
572.20	2295.41
572.55	2294.10
572.90	2292.41
573.26	2290.91
573.61	2288.91
573.96	2286.90
574.31	2283.57
574.67	2280.30
575.02	2276.49
575.37	2272.86
575.72	2268.69
576.08	2265.22
576.43	2261.96
576.78	2258.03
577.13	2254.66
577.49	2251.50
577.84	2247.79
578.19	2243.92
578.54	2240.14
578.90	2235.76
579.25	2230.00
579.60	2224.85
579.95	2219.77
580.30	2214.61
580.66	2209.26
581.01	2204.33
581.36	2199.19
581.71	2194.93
582.06	2190.30
582.42	2185.68
582.77	2180.30
583.12	2175.52
583.47	2170.60
583.82	2165.21
584.17	2159.91
584.53	2154.29
584.88	2148.51
585.23	2142.45
585.58	2136.88
585.93	2131.27
586.28	2126.34
586.63	2121.20
586.98	2116.05
587.34	2111.35
587.69	2106.30
588.04	2100.90
588.39	2095.04
588.74	2088.69
589.09	2082.46
589.44	2075.59
589.79	2069.48
590.14	2063.77
590.49	2056.99
590.84	2050.33
591.19	2044.29
591.54	2037.70
591.89	2030.05
592.25	2023.13
592.60	2015.96
592.95	2008.28
593.30	2000.86
593.65	1993.15
594.00	1986.08
594.35	1978.63
594.70	1970.40
595.05	1963.17
595.40	1955.87
595.75	1948.34
596.10	1941.72
596.45	1934.69
596.80	1928.44
597.15	1921.64
597.50	1914.47
597.85	1908.13
598.19	1901.64
598.54	1894.32
598.89	1887.73
599.24	1881.89
599.59	1875.00
599.94	1868.74
600.29	1862.21
600.64	1855.65
600.99	1848.15
601.34	1841.04
601.69	1833.94
602.04	1826.99
602.39	1819.49
602.74	1812.57
603.08	1805.74
603.43	1799.14
603.78	1791.91
604.13	1784.74
604.48	1777.36
604.83	1770.58
605.18	1763.45
605.53	1755.35
605.87	1747.30
606.22	1740.10
606.57	1732.16
606.92	1724.96
607.27	1717.80
607.62	1711.01
607.96	1703.64
608.31	1697.11
608.66	1689.63
609.01	1682.20
609.36	1674.63
609.70	1666.64
610.05	1658.59
610.40	1650.95
610.75	1642.68
611.10	1635.12
611.44	1626.75
611.79	1618.96
612.14	1610.26
612.49	1601.40
612.83	1593.12
613.18	1585.23
613.53	1577.02
613.88	1568.55
614.22	1560.47
614.57	1551.93
614.92	1543.90
615.27	1536.42
615.61	1528.13
615.96	1520.27
616.31	1512.72
616.65	1505.49
617.00	1498.10
617.35	1490.56
617.70	1482.26
618.04	1473.84
618.39	1465.67
618.74	1458.15
619.08	1449.89
619.43	1442.39
619.78	1435.51
620.12	1428.32
620.47	1420.74
620.82	1412.69
621.16	1405.36
621.51	1397.72
621.85	1390.19
622.20	1381.80
622.55	1373.60
622.89	1365.81
623.24	1358.21
623.59	1350.90
623.93	1343.33
624.28	1336.19
624.62	1328.76
624.97	1321.73
625.32	1315.05
625.66	1308.07
626.01	1300.93
626.35	1293.45
626.70	1285.81
627.04	1278.04
627.39	1270.47
627.73	1263.23
628.08	1256.41
628.43	1249.08
628.77	1241.80
629.12	1234.28
629.46	1227.21
629.81	1219.84
630.15	1212.71
630.50	1205.43
630.84	1197.26
631.19	1189.49
631.53	1182.02
631.88	1174.60
632.22	1167.02
632.57	1159.77
632.91	1152.26
633.26	1144.88
633.60	1137.66
633.95	1130.60
634.29	1123.56
634.64	1116.87
634.98	1109.51
635.32	1102.41
635.67	1095.93
636.01	1089.34
636.36	1082.63
636.70	1076.15
637.05	1069.57
637.39	1063.13
637.73	1056.61
638.08	1050.91
638.42	1045.00
638.77	1038.62
639.11	1031.98
639.45	1025.65
639.80	1019.06
640.14	1012.64
640.49	1006.18
640.83	999.95
641.17	993.78
641.52	987.61
641.86	981.32
642.20	975.57
642.55	969.35
642.89	962.98
643.23	956.45
643.58	950.77
643.92	944.61
644.26	938.65
644.61	932.68
644.95	926.66
645.29	920.03
645.64	913.30
645.98	906.98
646.32	901.27
646.66	895.26
647.01	889.46
647.35	883.91
647.69	878.10
648.04	872.63
648.38	866.87
648.72	860.92
649.06	854.82
649.41	848.89
649.75	842.91
650.09	837.00
650.43	831.29
650.78	825.07
651.12	819.18
651.46	813.43
651.80	807.71
652.14	802.37
652.49	797.08
652.83	792.05
653.17	786.35
653.51	780.61
653.85	775.34
654.20	769.82
654.54	763.88
654.88	758.25
655.22	752.41
655.56	746.77
655.90	741.33
656.25	736.15
656.59	730.95
656.93	725.91
657.27	720.75
657.61	715.37
657.95	710.40
658.29	705.42
658.64	700.31
658.98	695.11
659.32	689.67
659.66	684.50
660.00	679.17
660.34	674.35
660.68	669.48
661.02	664.38
661.36	659.65
661.70	655.22
662.05	650.81
662.39	646.55
662.73	642.07
663.07	637.81
663.41	633.43
663.75	628.91
664.09	624.37
664.43	620.06
664.77	616.00
665.11	611.78
665.45	607.59
665.79	603.51
666.13	599.42
666.47	595.36
666.81	591.19
667.15	587.12
667.49	583.25
667.83	579.49
668.17	575.63
668.51	571.54
668.85	567.53
669.19	563.75
669.53	559.91
669.87	556.09
670.21	552.34
670.55	548.74
670.89	545.34
671.23	541.94
671.57	538.44
671.91	534.88
672.25	531.39
672.58	527.89
672.92	524.50
673.26	521.34
673.60	518.26
673.94	515.11
674.28	512.22
674.62	509.33
674.96	506.29
675.30	503.43
675.64	500.55
675.97	497.81
676.31	494.98
676.65	492.03
676.99	489.40
677.33	486.57
677.67	483.72
678.01	480.72
678.34	477.81
678.68	475.00
679.02	472.19
679.36	469.45
679.70	466.79
680.04	464.10
680.37	461.23
680.71	458.49
681.05	456.01
681.39	453.35
681.73	450.73
682.06	448.19
682.40	445.61
682.74	443.13
683.08	440.59
683.42	438.02
683.75	435.58
684.09	433.09
684.43	430.64
684.77	428.22
685.10	425.94
685.44	423.62
685.78	421.33
686.12	419.17
686.45	416.93
686.79	414.69
687.13	412.53
687.46	410.37
687.80	408.19
688.14	405.99
688.48	403.93
688.81	401.67
689.15	399.54
689.49	397.51
689.82	395.47
690.16	393.45
690.50	391.53
690.83	389.61
691.17	387.62
691.51	385.80
691.84	383.97
692.18	382.05
692.52	380.12
692.85	378.29
693.19	376.45
693.52	374.63
693.86	372.85
694.20	371.11
694.53	369.33
694.87	367.56
695.21	365.82
695.54	364.08
695.88	362.38
696.21	360.70
696.55	359.01
696.88	357.33
697.22	355.66
697.56	354.08
697.89	352.44
698.23	350.87
698.56	349.23
698.90	347.65
699.23	346.00
699.57	344.48
699.90	342.92
700.24	341.36
700.58	339.84
700.91	338.35
701.25	336.88
701.58	335.56
701.92	334.21
702.25	332.84
702.59	331.48
702.92	330.18
703.26	328.88
703.59	327.64
703.93	326.46
704.26	325.27
704.60	323.98
704.93	322.73
705.26	321.51
705.60	320.42
705.93	319.29
706.27	318.29
706.60	317.22
706.94	316.16
707.27	315.03
707.61	313.99
707.94	312.98
708.27	311.87
708.61	310.84
708.94	309.83
709.28	308.87
709.61	307.89
709.94	306.96
710.28	305.94
710.61	304.93
710.95	303.87
711.28	302.94
711.61	301.98
711.95	301.08
712.28	300.13
712.61	299.08
712.95	298.15
713.28	297.29
713.61	296.38
713.95	295.47
714.28	294.68
714.61	293.87
714.95	293.01
715.28	292.18
715.61	291.26
715.95	290.38
716.28	289.52
716.61	288.69
716.95	287.84
717.28	287.11
717.61	286.36
717.94	285.61
718.28	284.78
718.61	284.06
718.94	283.37
719.27	282.69
719.61	282.07
719.94	281.37
720.27	280.60
720.60	279.96
720.94	279.34
721.27	278.71
721.60	278.10
721.93	277.48
722.27	276.93
722.60	276.41
722.93	275.84
723.26	275.28
723.59	274.74
723.93	274.23
724.26	273.70
724.59	273.14
724.92	272.62
725.25	272.16
725.59	271.64
725.92	271.12
726.25	270.65
726.58	270.15
726.91	269.67
727.24	269.25
727.57	268.79
727.91	268.28
728.24	267.81
728.57	267.31
728.90	266.89
729.23	266.38
729.56	265.97
729.89	265.53
730.22	265.03
730.55	264.54
730.89	264.08
731.22	263.61
731.55	263.22
731.88	262.79
732.21	262.35
732.54	261.94
732.87	261.54
733.20	261.10
733.53	260.78
733.86	260.44
734.19	260.01
734.52	259.61
734.85	259.32
735.18	258.93
735.51	258.58
735.84	258.19
736.17	257.88
736.50	257.45
736.83	257.23
737.16	256.91
737.49	256.63
737.82	256.30
738.15	256.01
738.48	255.67
738.81	255.37
739.14	255.04
739.47	254.73
739.80	254.40
740.13	254.11
740.46	253.76
740.79	253.43
741.12	253.18
741.45	252.88
741.78	252.55
742.11	252.26
742.44	251.96
742.77	251.69
743.10	251.38
743.43	251.10
743.75	250.72
744.08	250.59
744.41	250.32
744.74	250.03
745.07	249.71
745.40	249.48
745.73	249.25
746.06	249.02
746.39	248.73
746.71	248.50
747.04	248.23
747.37	247.97
747.70	247.75
748.03	247.49
748.36	247.29
748.68	247.02
749.01	246.80
749.34	246.60
749.67	246.37
750.00	246.14
750.33	246.02
750.65	245.81
750.98	245.46
751.31	245.22
751.64	245.04
751.97	244.88
752.29	244.63
752.62	244.37
752.95	244.16
753.28	243.97
753.60	243.76
753.93	243.61
754.26	243.41
754.59	243.13
754.91	242.90
755.24	242.67
755.57	242.49
755.90	242.34
756.22	242.12
756.55	241.93
756.88	241.73
757.20	241.49
757.53	241.27
757.86	241.11
758.19	240.97
758.51	240.78
758.84	240.57
759.17	240.39
759.49	240.22
759.82	240.09
760.15	239.95
760.47	239.75
760.80	239.52
761.13	239.38
761.45	239.24
761.78	239.11
762.11	238.99
762.43	238.84
762.76	238.67
763.08	238.53
763.41	238.39
763.74	238.24
764.06	238.08
764.39	237.93
764.71	237.76
765.04	237.61
765.37	237.46
765.69	237.29
766.02	237.17
766.34	237.04
766.67	236.84
767.00	236.73
767.32	236.68
767.65	236.67
767.97	236.53
768.30	236.43
768.62	236.30
768.95	236.19
769.27	236.09
769.60	236.00
769.92	235.86
770.25	235.73
770.57	235.60
770.90	235.54
771.22	235.43
771.55	235.35
771.87	235.27
772.20	235.19
772.52	235.21
772.85	235.23
773.17	235.18
773.50	235.10
773.82	235.00
774.15	234.88
774.47	234.72
774.80	234.63
775.12	234.55
775.45	234.47
775.77	234.38
776.09	234.29
776.42	234.20
776.74	234.18
777.07	234.15
777.39	234.10
777.72	234.01
778.04	233.97
778.36	233.90
778.69	233.85
779.01	233.79
779.33	233.66
779.66	233.50
779.98	233.42
780.31	233.39
780.63	233.37
780.95	233.32
781.28	233.23
781.60	233.19
781.92	233.14
782.25	233.10
782.57	233.03
782.89	232.96
783.22	232.90
783.54	232.82
783.86	232.78
784.19	232.73
784.51	232.73
784.83	232.65
785.16	232.61
785.48	232.54
785.80	232.51
786.12	232.46
786.45	232.42
786.77	232.38
787.09	232.32
787.42	232.21
787.74	232.17
788.06	232.17
788.38	232.13
788.71	232.09
789.03	232.05
789.35	232.01
789.67	232.00
789.99	231.96
790.32	231.90
790.64	231.82
790.96	231.87
791.28	231.76
791.61	231.71
791.93	231.68
792.25	231.61
792.57	231.63
792.89	231.53
793.21	231.47
793.54	231.42
793.86	231.34
794.18	231.32
794.50	231.29
794.82	231.22
795.14	231.22
795.47	231.16
795.79	231.10
796.11	231.04
796.43	230.97
796.75	230.92
797.07	230.88
797.39	230.86
797.71	230.75
798.04	230.72
798.36	230.71
798.68	230.66
799.00	230.64
799.32	230.55
799.64	230.56
799.96	230.52
800.28	230.48
800.60	230.47
800.92	230.46
801.24	230.40
801.56	230.38
801.89	230.33
802.21	230.30
802.53	230.27
802.85	230.27
803.17	230.29
803.49	230.26
803.81	230.21
804.13	230.19
804.45	230.15
804.77	230.12
805.09	230.08
805.41	230.03
805.73	230.00
806.05	229.97
806.37	229.94
806.69	229.92
807.01	229.91
807.33	229.89
807.65	229.81
807.97	229.83
808.28	229.78
808.60	229.77
808.92	229.72
809.24	229.76
809.56	229.73
809.88	229.67
810.20	229.64
810.52	229.64
810.84	229.59
811.16	229.57
811.48	229.55
811.80	229.52
812.12	229.52
812.43	229.53
812.75	229.51
813.07	229.46
813.39	229.44
813.71	229.43
814.03	229.39
814.35	229.41
814.67	229.38
814.98	229.34
815.30	229.28
815.62	229.28
815.94	229.18
816.26	229.21
816.58	229.18
816.89	229.18
817.21	229.14
817.53	229.11
817.85	229.09
818.17	229.07
818.48	229.05
818.80	229.05
819.12	229.01
819.44	229.00
819.76	229.00
820.07	229.00
820.39	228.96
820.71	228.96
821.03	228.91
821.34	228.88
821.66	228.85
821.98	228.87
822.30	228.87
822.61	228.93
822.93	228.85
823.25	228.81
823.57	228.80
823.88	228.83
824.20	228.84
824.52	228.84
824.83	228.84
825.15	228.83
825.47	228.82
825.79	228.81
826.10	228.80
826.42	228.78
826.74	228.77
827.05	228.77
827.37	228.77
827.69	228.77
828.00	228.75
828.32	228.78
828.64	228.77
828.95	228.80
829.27	228.78
829.58	228.80
829.90	228.85
830.22	228.85
830.53	228.84
830.85	228.81
831.17	228.80
831.48	228.77
831.80	228.74
832.11	228.71
832.43	228.67
832.75	228.66
833.06	228.70
833.38	228.68
833.69	228.64
834.01	228.61
834.32	228.59
834.64	228.60
834.96	228.56
835.27	228.52
835.59	228.51
835.90	228.49
836.22	228.46
836.53	228.45
836.85	228.41
837.16	228.49
837.48	228.47
837.79	228.46
838.11	228.46
838.42	228.48
838.74	228.48
839.05	228.47
839.37	228.45
839.68	228.41
840.00	228.37
840.31	228.39
840.63	228.38
840.94	228.39
841.26	228.37
841.57	228.38
841.88	228.38
842.20	228.34
842.51	228.28
842.83	228.26
843.14	228.29
843.46	228.31
843.77	228.26
844.08	228.25
844.40	228.22
844.71	228.20
845.03	228.17
845.34	228.14
845.65	228.13
845.97	228.09
846.28	228.07
846.60	228.06
846.91	228.04
847.22	228.02
847.54	228.02
847.85	228.01
848.16	228.00
848.48	227.97
848.79	228.01
849.10	228.05
849.42	228.05
849.73	227.96
850.04	227.89
850.36	227.78
850.67	227.80
850.98	227.78
851.30	227.80
851.61	227.82
851.92	227.82
852.23	227.84
852.55	227.87
852.86	227.84
853.17	227.84
853.49	227.86
853.80	227.87
854.11	227.86
854.42	227.87
854.74	227.82
855.05	227.81
855.36	227.72
855.67	227.71
855.99	227.70
856.30	227.83
856.61	227.85
856.92	227.89
857.23	227.90
857.55	227.90
857.86	227.87
858.17	227.90
858.48	227.89
858.79	227.87
859.11	227.88
859.42	227.88
859.73	227.88
860.04	227.91
860.35	227.92
860.66	227.88
860.98	227.90
861.29	227.96
861.60	228.01
861.91	228.06
862.22	228.05
862.53	228.05
862.84	227.92
863.16	227.94
863.47	227.94
863.78	227.94
864.09	227.95
864.40	227.99
864.71	227.96
865.02	228.00
865.33	228.01
865.64	228.00
865.95	228.03
866.27	228.10
866.58	228.07
866.89	228.10
867.20	228.10
867.51	228.10
867.82	228.08
868.13	228.08
868.44	228.07
868.75	228.09
869.06	228.10
869.37	228.13
869.68	228.11
869.99	228.13
870.30	228.13
870.61	228.16
870.92	228.15
871.23	228.14
871.54	228.13
871.85	228.12
872.16	228.13
872.47	228.10
872.78	228.04
873.09	228.07
873.40	228.07
873.71	228.10
874.02	228.10
874.33	228.06
874.64	228.02
874.95	227.98
875.26	227.93
875.56	227.93
875.87	227.92
876.18	227.87
876.49	227.95
876.80	227.92
877.11	227.89
877.42	227.88
877.73	227.86
878.04	227.85
878.35	227.86
878.66	227.83
878.96	227.84
879.27	227.85
879.58	227.81
879.89	227.75
880.20	227.72
880.51	227.68
880.82	227.69
881.12	227.70
881.43	227.69
881.74	227.68
882.05	227.64
882.36	227.64
882.67	227.68
882.97	227.58
883.28	227.55
883.59	227.51
883.90	227.48
884.21	227.49
884.51	227.47
884.82	227.42
885.13	227.44
885.44	227.39
885.74	227.36
886.05	227.34
886.36	227.33
886.67	227.30
886.98	227.33
887.28	227.29
887.59	227.28
887.90	227.28
888.20	227.26
888.51	227.29
888.82	227.25
889.13	227.21
889.43	227.29
889.74	227.28
890.05	227.28
890.35	227.25
890.66	227.24
890.97	227.20
891.28	227.20
891.58	227.17
891.89	227.20
892.20	227.20
892.50	227.21
892.81	227.24
893.12	227.27
893.42	227.23
893.73	227.25
894.04	227.25
894.34	227.28
894.65	227.32
894.95	227.29
895.26	227.32
895.57	227.35
895.87	227.25
896.18	227.29
896.48	227.29
896.79	227.32
897.10	227.32
897.40	227.35
897.71	227.38
898.01	227.38
898.32	227.39
898.63	227.39
898.93	227.38
899.24	227.38
899.54	227.35
899.85	227.34
900.15	227.37
900.46	227.38
900.76	227.38
901.07	227.39
901.38	227.41
901.68	227.42
901.99	227.39
902.29	227.43
902.60	227.41
902.90	227.41
903.21	227.44
903.51	227.43
903.82	227.47
904.12	227.49
904.43	227.50
904.73	227.51
905.03	227.54
905.34	227.62
905.64	227.62
905.95	227.63
906.25	227.66
906.56	227.64
906.86	227.61
907.17	227.60
907.47	227.57
907.77	227.57
908.08	227.54
908.38	227.55
908.69	227.56
908.99	227.57
909.30	227.60
909.60	227.58
909.90	227.61
910.21	227.58
910.51	227.53
910.81	227.55
911.12	227.54
911.42	227.51
911.73	227.42
912.03	227.42
912.33	227.44
912.64	227.45
912.94	227.44
913.24	227.47
913.55	227.47
913.85	227.46
914.15	227.50
914.46	227.50
914.76	227.52
915.06	227.51
915.37	227.49
915.67	227.45
915.97	227.45
916.27	227.42
916.58	227.41
916.88	227.42
917.18	227.39
917.49	227.47
917.79	227.45
918.09	227.47
918.39	227.48
918.70	227.47
919.00	227.45
919.30	227.49
919.60	227.44
919.91	227.43
920.21	227.44
920.51	227.40
920.81	227.39
921.12	227.36
921.42	227.34
921.72	227.34
922.02	227.35
922.32	227.36
922.63	227.36
922.93	227.38
923.23	227.38
923.53	227.37
923.83	227.29
924.13	227.29
924.44	227.26
924.74	227.28
925.04	227.28
925.34	227.25
925.64	227.20
925.94	227.22
926.24	227.24
926.55	227.26
926.85	227.25
927.15	227.23
927.45	227.22
927.75	227.25
928.05	227.25
928.35	227.24
928.65	227.24
928.95	227.27
929.26	227.26
929.56	227.28
929.86	227.28
930.16	227.27
930.46	227.28
930.76	227.30
931.06	227.24
931.36	227.24
931.66	227.25
931.96	227.27
932.26	227.28
932.56	227.29
932.86	227.28
933.16	227.28
933.46	227.27
933.76	227.28
934.06	227.29
934.36	227.36
934.66	227.36
934.96	227.35
935.26	227.34
935.56	227.35
935.86	227.35
936.16	227.36
936.46	227.32
936.76	227.35
937.06	227.36
937.36	227.40
937.66	227.38
937.96	227.40
938.26	227.35
938.56	227.36
938.86	227.33
939.16	227.39
939.46	227.43
939.76	227.43
940.06	227.46
940.35	227.44
940.65	227.40
940.95	227.43
941.25	227.45
941.55	227.46
941.85	227.45
942.15	227.45
942.45	227.48
942.75	227.50
943.04	227.48
943.34	227.48
943.64	227.47
943.94	227.47
944.24	227.48
944.54	227.55
944.84	227.54
945.13	227.53
945.43	227.49
945.73	227.49
946.03	227.50
946.33	227.48
946.62	227.48
946.92	227.47
947.22	227.45
947.52	227.46
947.82	227.46
948.11	227.45
948.41	227.45
948.71	227.41
949.01	227.43
949.31	227.45
949.60	227.47
949.90	227.49
950.20	227.51
950.50	227.53
950.79	227.51
951.09	227.49
951.39	227.47
951.69	227.47
951.98	227.50
952.28	227.51
952.58	227.53
952.87	227.51
953.17	227.53
953.47	227.55
953.76	227.52
954.06	227.50
954.36	227.50
954.66	227.47
954.95	227.52
955.25	227.50
955.55	227.49
955.84	227.45
956.14	227.46
956.44	227.45
956.73	227.41
957.03	227.41
957.32	227.43
957.62	227.43
957.92	227.47
958.21	227.45
958.51	227.54
958.81	227.52
959.10	227.53
959.40	227.51
959.69	227.48
959.99	227.49
960.29	227.48
960.58	227.44
960.88	227.47
961.17	227.44
961.47	227.42
961.76	227.42
962.06	227.40
962.36	227.34
962.65	227.34
962.95	227.33
963.24	227.32
963.54	227.31
963.83	227.30
964.13	227.22
964.42	227.17
964.72	227.06
965.01	227.07
965.31	227.08
965.60	227.04
965.90	227.11
966.19	227.07
966.49	227.05
966.78	227.04
967.08	227.03
967.37	227.02
967.67	227.03
967.96	227.03
968.26	227.06
968.55	227.07
968.85	227.04
969.14	227.05
969.43	227.06
969.73	227.04
970.02	227.05
970.32	227.06
970.61	227.07
970.91	227.05
971.20	227.03
971.49	227.01
971.79	227.05
972.08	226.93
972.38	226.98
972.67	227.01
972.96	227.06
973.26	227.05
973.55	227.10
973.85	227.10
974.14	227.07
974.43	227.05
974.73	227.02
975.02	227.07
975.31	227.06
975.61	227.10
975.90	227.11
976.19	227.13
976.49	227.15
976.78	227.15
977.07	227.18
977.37	227.21
977.66	227.26
977.95	227.26
978.24	227.29
978.54	227.32
978.83	227.31
979.12	227.33
979.42	227.32
979.71	227.30
980.00	227.36
980.29	227.41
980.59	227.45
980.88	227.53
981.17	227.53
981.46	227.55
981.76	227.51
982.05	227.56
982.34	227.56
982.63	227.55
982.93	227.60
983.22	227.63
983.51	227.63
983.80	227.60
984.09	227.63
984.39	227.66
984.68	227.62
984.97	227.65
985.26	227.67
985.55	227.71
985.85	227.69
986.14	227.69
986.43	227.66
986.72	227.68
987.01	227.64
987.30	227.62
987.59	227.61
987.89	227.62
988.18	227.61
988.47	227.60
988.76	227.60
989.05	227.56
989.34	227.55
989.63	227.57
989.92	227.56
990.22	227.52
990.51	227.50
990.80	227.50
991.09	227.54
991.38	227.52
991.67	227.46
991.96	227.42
992.25	227.42
992.54	227.42
992.83	227.39
993.12	227.40
993.41	227.39
993.70	227.41
993.99	227.43
994.28	227.41
994.58	227.42
994.87	227.42
995.16	227.40
995.45	227.38
995.74	227.33
996.03	227.31
996.32	227.30
996.61	227.32
996.90	227.28
997.19	227.22
997.48	227.20
997.77	227.20
998.06	227.22
998.34	227.17
998.63	227.14
998.92	227.13
999.21	227.11
999.50	227.10
999.79	227.06
1000.08	227.02
1000.37	226.98
1000.66	226.93
1000.95	226.93
1001.24	226.92
1001.53	226.88
1001.82	226.88
1002.11	226.88
1002.40	226.89
1002.68	226.89
1002.97	226.96
1003.26	226.93
1003.55	226.89
1003.84	226.89
1004.13	226.91
1004.42	226.90
1004.71	226.92
1004.99	226.91
1005.28	226.90
1005.57	226.91
1005.86	226.90
1006.15	226.87
1006.44	226.88
1006.72	226.90
1007.01	226.90
1007.30	226.93
1007.59	226.92
1007.88	226.91
1008.17	226.93
1008.45	226.93
1008.74	226.90
1009.03	226.87
1009.32	226.87
1009.60	226.88
1009.89	226.91
1010.18	226.87
1010.47	226.86
1010.76	226.87
1011.04	226.87
1011.33	226.91
1011.62	226.93
1011.91	226.98
1012.19	227.04
1012.48	227.06
1012.77	227.07
1013.05	227.13
1013.34	227.12
1013.63	227.17
1013.92	227.21
1014.20	227.22
1014.49	227.23
1014.78	227.24
1015.06	227.21
1015.35	227.24
1015.64	227.25
1015.92	227.24
1016.21	227.23
1016.50	227.27
1016.78	227.26
1017.07	227.28
1017.36	227.27
1017.64	227.27
1017.93	227.28
1018.22	227.24
1018.50	227.23
1018.79	227.26
1019.08	227.19
1019.36	227.22
1019.65	227.22
1019.93	227.25
1020.22	227.26
1020.51	227.32
1020.79	227.34
1021.08	226.64
1021.36	227.05
1021.65	227.62
1021.94	227.00
1022.22	227.48
1022.51	227.46
1022.79	228.01
1023.08	227.56
1023.36	228.88
1023.65	227.43
>>>>>End Processed Spectral Data<<<<<
