SpectraSuite Data File
++++++++++++++++++++++++++++++++++++
Date: Fri Feb 01 15:27:00 EST 2013
User: group
Dark Spectrum Present: No
Reference Spectrum Present: No
Number of Sampled Component Spectra: 1
Spectrometers: USB2E7196
Integration Time (usec): 35000 (USB2E7196)
Spectra Averaged: 100 (USB2E7196)
Boxcar Smoothing: 10 (USB2E7196)
Correct for Electrical Dark: No (USB2E7196)
Strobe/Lamp Enabled: No (USB2E7196)
Correct for Detector Non-linearity: No (USB2E7196)
Correct for Stray Light: No (USB2E7196)
Number of Pixels in Processed Spectrum: 2048
>>>>>Begin Processed Spectral Data<<<<<
339.09	0.00
339.48	214.86
339.86	216.23
340.24	217.91
340.63	219.15
341.01	221.85
341.39	221.62
341.78	222.88
342.16	224.33
342.54	225.07
342.93	213.28
343.31	224.08
343.69	224.61
344.07	225.09
344.46	225.53
344.84	225.88
345.22	226.10
345.60	226.35
345.99	226.57
346.37	226.73
346.75	226.82
347.13	226.87
347.52	226.94
347.90	227.00
348.28	226.99
348.66	227.04
349.05	227.00
349.43	227.02
349.81	227.03
350.19	227.06
350.57	227.11
350.96	227.16
351.34	227.23
351.72	227.30
352.10	227.37
352.48	227.42
352.87	227.53
353.25	227.64
353.63	227.69
354.01	227.73
354.39	227.79
354.77	227.87
355.15	228.02
355.54	228.07
355.92	228.11
356.30	228.17
356.68	228.31
357.06	228.38
357.44	228.44
357.82	228.52
358.20	228.63
358.58	228.69
358.97	228.76
359.35	228.85
359.73	228.95
360.11	229.01
360.49	229.05
360.87	229.07
361.25	229.09
361.63	229.17
362.01	229.24
362.39	229.26
362.77	229.29
363.15	229.31
363.53	229.34
363.91	229.36
364.29	229.37
364.67	229.28
365.05	229.29
365.43	229.31
365.81	229.35
366.19	229.35
366.57	229.42
366.95	229.43
367.33	229.39
367.71	229.39
368.09	229.41
368.47	229.40
368.85	229.40
369.23	229.40
369.61	229.35
369.99	229.34
370.37	229.35
370.75	229.37
371.13	229.27
371.51	229.21
371.89	229.20
372.27	229.16
372.65	229.15
373.03	229.15
373.41	229.11
373.78	229.04
374.16	228.95
374.54	228.83
374.92	228.78
375.30	228.72
375.68	228.62
376.06	228.52
376.44	228.47
376.82	228.37
377.19	228.31
377.57	228.24
377.95	228.14
378.33	228.04
378.71	227.93
379.09	227.87
379.47	227.82
379.84	227.71
380.22	227.64
380.60	227.55
380.98	227.46
381.36	227.37
381.73	227.30
382.11	227.26
382.49	227.24
382.87	227.13
383.25	227.09
383.62	227.16
384.00	227.13
384.38	227.10
384.76	227.09
385.13	227.09
385.51	227.06
385.89	226.96
386.27	226.92
386.64	226.90
387.02	226.89
387.40	226.86
387.78	226.84
388.15	226.81
388.53	226.76
388.91	226.71
389.29	226.66
389.66	226.66
390.04	226.64
390.42	226.63
390.79	226.64
391.17	226.63
391.55	226.52
391.92	226.48
392.30	226.49
392.68	226.43
393.05	226.40
393.43	226.40
393.81	226.47
394.18	226.45
394.56	226.43
394.94	226.47
395.31	226.48
395.69	226.53
396.06	226.60
396.44	226.67
396.82	226.71
397.19	226.82
397.57	226.83
397.95	226.90
398.32	226.89
398.70	226.96
399.07	227.05
399.45	227.08
399.82	227.13
400.20	227.20
400.58	227.30
400.95	227.34
401.33	227.43
401.70	227.60
402.08	227.74
402.45	227.89
402.83	228.01
403.20	228.15
403.58	228.24
403.95	228.36
404.33	228.48
404.71	228.62
405.08	228.80
405.46	228.95
405.83	229.07
406.21	229.26
406.58	229.42
406.96	229.55
407.33	229.74
407.70	229.99
408.08	230.24
408.45	230.47
408.83	230.70
409.20	230.90
409.58	231.04
409.95	231.29
410.33	231.54
410.70	231.78
411.08	232.02
411.45	232.33
411.82	232.64
412.20	232.98
412.57	233.40
412.95	233.69
413.32	234.08
413.69	234.50
414.07	234.92
414.44	235.36
414.82	235.83
415.19	236.37
415.56	236.89
415.94	237.42
416.31	238.06
416.68	238.68
417.06	239.42
417.43	240.14
417.81	240.85
418.18	241.60
418.55	242.40
418.93	243.32
419.30	244.20
419.67	245.12
420.04	246.11
420.42	247.11
420.79	248.29
421.16	249.45
421.54	250.65
421.91	251.88
422.28	253.17
422.66	254.54
423.03	255.86
423.40	257.20
423.77	258.63
424.15	260.07
424.52	261.57
424.89	263.18
425.26	264.68
425.64	266.16
426.01	267.74
426.38	269.44
426.75	271.08
427.13	272.81
427.50	274.65
427.87	276.54
428.24	278.39
428.61	280.15
428.99	282.11
429.36	284.22
429.73	286.27
430.10	288.28
430.47	290.32
430.85	292.43
431.22	294.70
431.59	297.08
431.96	299.31
432.33	301.88
432.70	304.24
433.08	307.07
433.45	309.73
433.82	312.38
434.19	315.33
434.56	318.20
434.93	320.87
435.30	323.47
435.68	326.39
436.05	329.24
436.42	332.05
436.79	334.58
437.16	337.32
437.53	340.18
437.90	343.00
438.27	345.77
438.64	348.64
439.01	351.25
439.38	353.48
439.75	355.65
440.13	358.08
440.50	360.44
440.87	362.32
441.24	364.29
441.61	366.46
441.98	367.93
442.35	369.68
442.72	371.56
443.09	373.42
443.46	374.42
443.83	374.98
444.20	375.51
444.57	376.32
444.94	376.58
445.31	376.94
445.68	377.31
446.05	377.38
446.42	376.96
446.79	376.48
447.16	376.03
447.53	375.71
447.90	374.52
448.27	373.34
448.64	371.71
449.01	370.55
449.37	368.56
449.74	366.60
450.11	364.37
450.48	361.87
450.85	359.26
451.22	357.06
451.59	355.04
451.96	353.05
452.33	350.40
452.70	348.03
453.07	345.13
453.43	342.22
453.80	339.45
454.17	336.77
454.54	334.26
454.91	331.49
455.28	328.81
455.65	326.34
456.02	323.88
456.38	321.75
456.75	319.04
457.12	316.77
457.49	314.56
457.86	312.40
458.23	310.55
458.59	308.51
458.96	306.39
459.33	304.51
459.70	302.66
460.07	301.19
460.43	299.46
460.80	297.85
461.17	296.40
461.54	294.86
461.91	293.41
462.27	291.92
462.64	290.70
463.01	289.36
463.38	288.07
463.74	286.71
464.11	285.57
464.48	284.56
464.85	283.46
465.21	282.60
465.58	281.66
465.95	280.58
466.32	279.68
466.68	278.81
467.05	277.93
467.42	277.02
467.78	276.10
468.15	275.23
468.52	274.59
468.88	273.72
469.25	272.95
469.62	272.35
469.98	271.70
470.35	271.07
470.72	270.42
471.08	269.74
471.45	269.18
471.82	268.61
472.18	268.03
472.55	267.59
472.92	267.04
473.28	266.57
473.65	266.09
474.02	265.62
474.38	265.25
474.75	264.92
475.11	264.60
475.48	264.35
475.85	264.11
476.21	263.86
476.58	263.69
476.94	263.54
477.31	263.37
477.67	263.21
478.04	263.09
478.41	263.05
478.77	263.08
479.14	262.99
479.50	262.99
479.87	263.03
480.23	263.11
480.60	263.21
480.96	263.32
481.33	263.56
481.69	263.76
482.06	263.95
482.42	264.14
482.79	264.37
483.15	264.67
483.52	265.07
483.88	265.41
484.25	265.81
484.61	266.24
484.98	266.67
485.34	267.22
485.71	267.78
486.07	268.41
486.44	268.99
486.80	269.74
487.17	270.49
487.53	271.30
487.90	272.16
488.26	273.07
488.62	274.05
488.99	275.00
489.35	276.04
489.72	277.19
490.08	278.37
490.44	279.60
490.81	280.92
491.17	282.24
491.54	283.70
491.90	285.22
492.26	286.90
492.63	288.63
492.99	290.41
493.36	292.33
493.72	294.38
494.08	296.48
494.45	298.69
494.81	301.05
495.17	303.48
495.54	306.04
495.90	308.70
496.26	311.51
496.63	314.42
496.99	317.55
497.35	320.79
497.72	324.21
498.08	327.73
498.44	331.38
498.80	335.29
499.17	339.30
499.53	343.47
499.89	347.86
500.26	352.33
500.62	357.01
500.98	361.96
501.34	367.01
501.71	372.31
502.07	377.75
502.43	383.36
502.79	389.18
503.16	395.22
503.52	401.52
503.88	407.92
504.24	414.62
504.60	421.46
504.97	428.59
505.33	435.95
505.69	443.64
506.05	451.46
506.41	459.37
506.78	467.57
507.14	476.01
507.50	484.71
507.86	493.84
508.22	503.00
508.59	512.20
508.95	521.76
509.31	531.59
509.67	541.76
510.03	552.05
510.39	562.64
510.75	573.44
511.12	584.35
511.48	595.64
511.84	607.10
512.20	618.70
512.56	630.74
512.92	642.95
513.28	655.34
513.64	667.82
514.00	680.57
514.37	693.51
514.73	706.59
515.09	719.67
515.45	732.88
515.81	746.59
516.17	760.61
516.53	774.79
516.89	789.03
517.25	803.26
517.61	817.73
517.97	832.23
518.33	846.72
518.69	861.54
519.05	876.59
519.41	891.84
519.77	907.43
520.13	922.87
520.49	938.28
520.85	953.78
521.21	969.65
521.57	985.94
521.93	1001.82
522.29	1018.28
522.65	1034.51
523.01	1050.87
523.37	1066.92
523.73	1083.19
524.09	1099.35
524.45	1115.76
524.81	1132.36
525.17	1149.27
525.53	1166.27
525.89	1183.24
526.25	1200.16
526.61	1216.58
526.97	1233.27
527.33	1249.75
527.68	1266.34
528.04	1282.82
528.40	1299.49
528.76	1316.51
529.12	1333.03
529.48	1349.94
529.84	1366.04
530.20	1382.77
530.56	1399.88
530.91	1417.42
531.27	1434.15
531.63	1450.74
531.99	1467.29
532.35	1483.44
532.71	1499.24
533.07	1515.52
533.42	1531.45
533.78	1547.46
534.14	1563.84
534.50	1579.29
534.86	1595.25
535.21	1610.56
535.57	1626.58
535.93	1641.97
536.29	1656.93
536.65	1672.12
537.00	1686.89
537.36	1702.31
537.72	1716.87
538.08	1731.19
538.44	1744.97
538.79	1759.05
539.15	1772.81
539.51	1786.64
539.87	1800.93
540.22	1814.72
540.58	1828.56
540.94	1841.97
541.29	1855.01
541.65	1867.74
542.01	1881.08
542.37	1893.45
542.72	1905.87
543.08	1917.58
543.44	1930.13
543.79	1941.31
544.15	1952.36
544.51	1964.12
544.87	1975.03
545.22	1985.91
545.58	1996.25
545.94	2006.07
546.29	2015.88
546.65	2025.64
547.01	2034.93
547.36	2043.80
547.72	2052.39
548.07	2060.37
548.43	2068.59
548.79	2076.66
549.14	2084.16
549.50	2091.63
549.86	2099.34
550.21	2106.71
550.57	2114.05
550.92	2120.63
551.28	2127.75
551.64	2134.93
551.99	2141.48
552.35	2147.64
552.70	2153.73
553.06	2159.65
553.41	2165.97
553.77	2172.00
554.13	2178.20
554.48	2184.37
554.84	2189.64
555.19	2195.03
555.55	2200.00
555.90	2204.41
556.26	2209.23
556.61	2214.05
556.97	2218.15
557.32	2222.41
557.68	2226.60
558.03	2230.87
558.39	2234.77
558.74	2239.46
559.10	2243.23
559.45	2246.79
559.81	2251.29
560.16	2255.20
560.52	2258.57
560.87	2262.03
561.23	2264.61
561.58	2267.61
561.94	2270.10
562.29	2272.62
562.64	2275.26
563.00	2277.96
563.35	2281.53
563.71	2284.75
564.06	2287.94
564.42	2290.74
564.77	2293.14
565.12	2295.32
565.48	2297.10
565.83	2298.82
566.19	2300.02
566.54	2300.97
566.89	2301.99
567.25	2302.46
567.60	2303.71
567.96	2305.28
568.31	2305.97
568.66	2307.03
569.02	2307.38
569.37	2307.57
569.72	2308.28
570.08	2308.45
570.43	2308.39
570.78	2307.68
571.14	2306.03
571.49	2304.70
571.84	2304.33
572.20	2303.02
572.55	2301.89
572.90	2300.41
573.26	2298.97
573.61	2297.07
573.96	2295.19
574.31	2292.17
574.67	2288.93
575.02	2285.28
575.37	2281.84
575.72	2278.09
576.08	2274.87
576.43	2271.55
576.78	2267.77
577.13	2264.53
577.49	2261.27
577.84	2257.61
578.19	2253.74
578.54	2249.85
578.90	2245.57
579.25	2240.09
579.60	2235.07
579.95	2230.02
580.30	2224.90
580.66	2219.62
581.01	2214.75
581.36	2209.82
581.71	2205.69
582.06	2201.24
582.42	2196.77
582.77	2191.43
583.12	2186.72
583.47	2181.80
583.82	2176.60
584.17	2171.31
584.53	2165.78
584.88	2160.14
585.23	2154.15
585.58	2148.83
585.93	2143.43
586.28	2138.62
586.63	2133.37
586.98	2128.24
587.34	2123.47
587.69	2118.53
588.04	2113.15
588.39	2107.37
588.74	2100.78
589.09	2094.43
589.44	2087.56
589.79	2081.46
590.14	2075.73
590.49	2069.04
590.84	2062.53
591.19	2056.48
591.54	2050.05
591.89	2042.50
592.25	2035.58
592.60	2028.53
592.95	2020.69
593.30	2013.27
593.65	2005.44
594.00	1998.40
594.35	1991.01
594.70	1983.01
595.05	1975.63
595.40	1968.44
595.75	1960.82
596.10	1954.45
596.45	1947.67
596.80	1941.43
597.15	1934.58
597.50	1927.41
597.85	1921.05
598.19	1914.47
598.54	1907.33
598.89	1900.71
599.24	1894.82
599.59	1887.98
599.94	1881.65
600.29	1875.35
600.64	1868.80
600.99	1861.44
601.34	1854.60
601.69	1847.79
602.04	1840.68
602.39	1833.39
602.74	1826.42
603.08	1819.78
603.43	1813.11
603.78	1805.82
604.13	1798.59
604.48	1791.27
604.83	1784.40
605.18	1777.29
605.53	1769.14
605.87	1761.08
606.22	1753.79
606.57	1745.91
606.92	1738.55
607.27	1731.37
607.62	1724.37
607.96	1716.90
608.31	1710.13
608.66	1702.29
609.01	1694.57
609.36	1686.96
609.70	1678.89
610.05	1670.68
610.40	1662.90
610.75	1654.50
611.10	1646.80
611.44	1638.35
611.79	1630.41
612.14	1621.74
612.49	1612.66
612.83	1604.33
613.18	1596.27
613.53	1588.03
613.88	1579.41
614.22	1571.14
614.57	1562.61
614.92	1554.47
615.27	1546.98
615.61	1538.65
615.96	1530.75
616.31	1523.12
616.65	1515.91
617.00	1508.33
617.35	1500.70
617.70	1492.21
618.04	1483.69
618.39	1475.40
618.74	1467.88
619.08	1459.66
619.43	1452.00
619.78	1444.97
620.12	1437.73
620.47	1430.21
620.82	1422.08
621.16	1414.75
621.51	1407.18
621.85	1399.45
622.20	1391.01
622.55	1382.70
622.89	1374.88
623.24	1367.28
623.59	1359.89
623.93	1352.24
624.28	1345.02
624.62	1337.58
624.97	1330.52
625.32	1323.80
625.66	1316.78
626.01	1309.47
626.35	1301.84
626.70	1294.14
627.04	1286.37
627.39	1278.61
627.73	1271.08
628.08	1264.20
628.43	1256.86
628.77	1249.49
629.12	1241.96
629.46	1234.64
629.81	1227.17
630.15	1219.96
630.50	1212.50
630.84	1204.36
631.19	1196.50
631.53	1188.88
631.88	1181.28
632.22	1173.62
632.57	1166.28
632.91	1158.76
633.26	1151.39
633.60	1144.07
633.95	1137.04
634.29	1130.12
634.64	1123.53
634.98	1116.22
635.32	1108.98
635.67	1102.37
636.01	1095.69
636.36	1088.91
636.70	1082.59
637.05	1076.10
637.39	1069.59
637.73	1063.12
638.08	1057.29
638.42	1051.30
638.77	1044.98
639.11	1038.41
639.45	1032.06
639.80	1025.39
640.14	1018.95
640.49	1012.38
640.83	1006.09
641.17	999.77
641.52	993.46
641.86	987.04
642.20	981.29
642.55	975.06
642.89	968.49
643.23	962.01
643.58	956.21
643.92	949.92
644.26	943.73
644.61	937.73
644.95	931.66
645.29	925.01
645.64	918.17
645.98	911.86
646.32	906.06
646.66	900.01
647.01	894.10
647.35	888.49
647.69	882.80
648.04	877.26
648.38	871.44
648.72	865.36
649.06	859.35
649.41	853.40
649.75	847.35
650.09	841.50
650.43	835.73
650.78	829.48
651.12	823.50
651.46	817.81
651.80	812.04
652.14	806.58
652.49	801.24
652.83	796.18
653.17	790.45
653.51	784.61
653.85	779.29
654.20	773.75
654.54	767.68
654.88	761.89
655.22	756.04
655.56	750.41
655.90	744.95
656.25	739.60
656.59	734.19
656.93	729.18
657.27	723.95
657.61	718.47
657.95	713.42
658.29	708.38
658.64	703.25
658.98	697.99
659.32	692.59
659.66	687.33
660.00	681.94
660.34	677.02
660.68	672.13
661.02	667.08
661.36	662.36
661.70	657.94
662.05	653.53
662.39	649.16
662.73	644.71
663.07	640.37
663.41	635.95
663.75	631.54
664.09	627.03
664.43	622.71
664.77	618.59
665.11	614.37
665.45	610.27
665.79	606.10
666.13	601.90
666.47	597.78
666.81	593.62
667.15	589.48
667.49	585.60
667.83	581.81
668.17	577.91
668.51	573.90
668.85	569.82
669.19	565.97
669.53	562.13
669.87	558.28
670.21	554.63
670.55	551.07
670.89	547.59
671.23	544.13
671.57	540.66
671.91	537.16
672.25	533.70
672.58	530.20
672.92	526.80
673.26	523.76
673.60	520.66
673.94	517.60
674.28	514.78
674.62	511.81
674.96	508.68
675.30	505.77
675.64	502.81
675.97	500.06
676.31	497.25
676.65	494.32
676.99	491.61
677.33	488.68
677.67	485.78
678.01	482.77
678.34	479.78
678.68	476.87
679.02	474.09
679.36	471.37
679.70	468.63
680.04	465.93
680.37	463.02
680.71	460.26
681.05	457.64
681.39	454.92
681.73	452.31
682.06	449.89
682.40	447.28
682.74	444.79
683.08	442.25
683.42	439.70
683.75	437.28
684.09	434.74
684.43	432.34
684.77	429.87
685.10	427.59
685.44	425.32
685.78	423.08
686.12	420.81
686.45	418.53
686.79	416.24
687.13	414.02
687.46	411.87
687.80	409.69
688.14	407.50
688.48	405.41
688.81	403.13
689.15	400.96
689.49	398.84
689.82	396.75
690.16	394.67
690.50	392.69
690.83	390.72
691.17	388.77
691.51	386.82
691.84	385.02
692.18	383.01
692.52	380.98
692.85	379.02
693.19	377.14
693.52	375.30
693.86	373.51
694.20	371.72
694.53	369.92
694.87	368.14
695.21	366.35
695.54	364.58
695.88	362.89
696.21	361.16
696.55	359.51
696.88	357.82
697.22	356.19
697.56	354.55
697.89	352.87
698.23	351.22
698.56	349.62
698.90	348.01
699.23	346.36
699.57	344.82
699.90	343.30
700.24	341.75
700.58	340.21
700.91	338.74
701.25	337.32
701.58	335.95
701.92	334.55
702.25	333.18
702.59	331.79
702.92	330.45
703.26	329.13
703.59	327.85
703.93	326.67
704.26	325.42
704.60	324.11
704.93	322.88
705.26	321.63
705.60	320.46
705.93	319.30
706.27	318.32
706.60	317.29
706.94	316.21
707.27	315.10
707.61	314.05
707.94	312.99
708.27	311.93
708.61	310.84
708.94	309.83
709.28	308.82
709.61	307.86
709.94	306.88
710.28	305.90
710.61	304.92
710.95	303.88
711.28	302.96
711.61	302.06
711.95	301.12
712.28	300.19
712.61	299.23
712.95	298.33
713.28	297.42
713.61	296.53
713.95	295.64
714.28	294.80
714.61	293.93
714.95	293.08
715.28	292.20
715.61	291.32
715.95	290.46
716.28	289.60
716.61	288.76
716.95	287.97
717.28	287.22
717.61	286.46
717.94	285.69
718.28	284.86
718.61	284.15
718.94	283.48
719.27	282.81
719.61	282.21
719.94	281.54
720.27	280.84
720.60	280.15
720.94	279.49
721.27	278.90
721.60	278.37
721.93	277.77
722.27	277.25
722.60	276.69
722.93	276.14
723.26	275.62
723.59	275.09
723.93	274.56
724.26	273.98
724.59	273.42
724.92	272.87
725.25	272.42
725.59	271.87
725.92	271.33
726.25	270.84
726.58	270.29
726.91	269.77
727.24	269.32
727.57	268.85
727.91	268.38
728.24	267.93
728.57	267.41
728.90	266.97
729.23	266.48
729.56	266.06
729.89	265.60
730.22	265.12
730.55	264.61
730.89	264.11
731.22	263.66
731.55	263.20
731.88	262.78
732.21	262.34
732.54	261.90
732.87	261.50
733.20	261.10
733.53	260.72
733.86	260.33
734.19	259.94
734.52	259.55
734.85	259.24
735.18	258.79
735.51	258.41
735.84	258.01
736.17	257.66
736.50	257.25
736.83	257.02
737.16	256.71
737.49	256.37
737.82	256.06
738.15	255.73
738.48	255.40
738.81	255.08
739.14	254.74
739.47	254.46
739.80	254.15
740.13	253.84
740.46	253.49
740.79	253.18
741.12	252.87
741.45	252.53
741.78	252.17
742.11	251.89
742.44	251.61
742.77	251.32
743.10	251.03
743.43	250.74
743.75	250.34
744.08	250.12
744.41	249.89
744.74	249.61
745.07	249.32
745.40	249.08
745.73	248.82
746.06	248.50
746.39	248.20
746.71	247.90
747.04	247.61
747.37	247.38
747.70	247.07
748.03	246.82
748.36	246.60
748.68	246.36
749.01	246.11
749.34	245.84
749.67	245.61
750.00	245.35
750.33	245.19
750.65	245.00
750.98	244.70
751.31	244.49
751.64	244.29
751.97	244.15
752.29	243.92
752.62	243.69
752.95	243.51
753.28	243.29
753.60	243.10
753.93	242.90
754.26	242.74
754.59	242.56
754.91	242.37
755.24	242.19
755.57	241.98
755.90	241.80
756.22	241.65
756.55	241.44
756.88	241.27
757.20	241.04
757.53	240.79
757.86	240.62
758.19	240.43
758.51	240.27
758.84	240.07
759.17	239.90
759.49	239.80
759.82	239.72
760.15	239.60
760.47	239.45
760.80	239.33
761.13	239.18
761.45	239.05
761.78	238.91
762.11	238.79
762.43	238.69
762.76	238.55
763.08	238.41
763.41	238.30
763.74	238.17
764.06	238.04
764.39	237.95
764.71	237.83
765.04	237.71
765.37	237.57
765.69	237.44
766.02	237.31
766.34	237.16
766.67	236.96
767.00	236.85
767.32	236.81
767.65	236.73
767.97	236.61
768.30	236.49
768.62	236.38
768.95	236.22
769.27	236.08
769.60	236.00
769.92	235.88
770.25	235.76
770.57	235.63
770.90	235.54
771.22	235.42
771.55	235.30
771.87	235.19
772.20	235.12
772.52	235.09
772.85	235.14
773.17	235.04
773.50	234.94
773.82	234.87
774.15	234.72
774.47	234.58
774.80	234.50
775.12	234.40
775.45	234.33
775.77	234.26
776.09	234.18
776.42	234.07
776.74	234.04
777.07	233.95
777.39	233.90
777.72	233.80
778.04	233.74
778.36	233.68
778.69	233.61
779.01	233.52
779.33	233.40
779.66	233.20
779.98	233.13
780.31	233.07
780.63	233.00
780.95	232.93
781.28	232.86
781.60	232.73
781.92	232.66
782.25	232.57
782.57	232.50
782.89	232.43
783.22	232.37
783.54	232.29
783.86	232.22
784.19	232.12
784.51	232.10
784.83	232.01
785.16	231.91
785.48	231.85
785.80	231.79
786.12	231.73
786.45	231.65
786.77	231.61
787.09	231.57
787.42	231.52
787.74	231.46
788.06	231.41
788.38	231.39
788.71	231.34
789.03	231.29
789.35	231.26
789.67	231.19
789.99	231.18
790.32	231.11
790.64	231.10
790.96	231.15
791.28	231.10
791.61	231.11
791.93	231.13
792.25	231.10
792.57	231.13
792.89	231.06
793.21	231.08
793.54	231.01
793.86	230.98
794.18	230.92
794.50	230.90
794.82	230.87
795.14	230.86
795.47	230.85
795.79	230.86
796.11	230.82
796.43	230.84
796.75	230.77
797.07	230.75
797.39	230.71
797.71	230.61
798.04	230.58
798.36	230.52
798.68	230.51
799.00	230.48
799.32	230.45
799.64	230.46
799.96	230.42
800.28	230.43
800.60	230.43
800.92	230.42
801.24	230.39
801.56	230.37
801.89	230.37
802.21	230.34
802.53	230.28
802.85	230.26
803.17	230.27
803.49	230.23
803.81	230.21
804.13	230.21
804.45	230.20
804.77	230.20
805.09	230.21
805.41	230.16
805.73	230.15
806.05	230.07
806.37	230.05
806.69	230.03
807.01	230.02
807.33	230.00
807.65	229.93
807.97	229.96
808.28	229.94
808.60	229.88
808.92	229.85
809.24	229.92
809.56	229.90
809.88	229.84
810.20	229.84
810.52	229.82
810.84	229.75
811.16	229.74
811.48	229.64
811.80	229.65
812.12	229.61
812.43	229.58
812.75	229.56
813.07	229.52
813.39	229.47
813.71	229.42
814.03	229.37
814.35	229.35
814.67	229.28
814.98	229.25
815.30	229.23
815.62	229.21
815.94	229.09
816.26	229.08
816.58	229.02
816.89	228.96
817.21	228.93
817.53	228.90
817.85	228.86
818.17	228.88
818.48	228.79
818.80	228.81
819.12	228.78
819.44	228.73
819.76	228.71
820.07	228.70
820.39	228.70
820.71	228.69
821.03	228.63
821.34	228.59
821.66	228.55
821.98	228.54
822.30	228.49
822.61	228.53
822.93	228.49
823.25	228.49
823.57	228.50
823.88	228.53
824.20	228.52
824.52	228.52
824.83	228.49
825.15	228.48
825.47	228.41
825.79	228.38
826.10	228.36
826.42	228.33
826.74	228.29
827.05	228.24
827.37	228.22
827.69	228.26
828.00	228.24
828.32	228.23
828.64	228.18
828.95	228.26
829.27	228.23
829.58	228.23
829.90	228.23
830.22	228.24
830.53	228.17
830.85	228.13
831.17	228.08
831.48	228.08
831.80	228.07
832.11	228.10
832.43	228.12
832.75	228.11
833.06	228.17
833.38	228.17
833.69	228.18
834.01	228.17
834.32	228.13
834.64	228.14
834.96	228.17
835.27	228.20
835.59	228.18
835.90	228.15
836.22	228.15
836.53	228.11
836.85	228.06
837.16	228.19
837.48	228.23
837.79	228.29
838.11	228.29
838.42	228.29
838.74	228.30
839.05	228.28
839.37	228.26
839.68	228.20
840.00	228.20
840.31	228.21
840.63	228.20
840.94	228.22
841.26	228.20
841.57	228.19
841.88	228.16
842.20	228.13
842.51	228.10
842.83	228.08
843.14	228.20
843.46	228.21
843.77	228.11
844.08	228.11
844.40	228.10
844.71	228.08
845.03	228.07
845.34	228.06
845.65	228.02
845.97	228.06
846.28	228.06
846.60	228.08
846.91	228.05
847.22	228.04
847.54	228.05
847.85	228.06
848.16	228.03
848.48	228.02
848.79	228.04
849.10	228.05
849.42	228.06
849.73	227.94
850.04	227.92
850.36	227.92
850.67	227.89
850.98	227.85
851.30	227.85
851.61	227.82
851.92	227.79
852.23	227.83
852.55	227.83
852.86	227.83
853.17	227.81
853.49	227.81
853.80	227.82
854.11	227.81
854.42	227.80
854.74	227.79
855.05	227.79
855.36	227.74
855.67	227.76
855.99	227.71
856.30	227.82
856.61	227.82
856.92	227.76
857.23	227.75
857.55	227.71
857.86	227.65
858.17	227.69
858.48	227.66
858.79	227.63
859.11	227.56
859.42	227.55
859.73	227.50
860.04	227.46
860.35	227.43
860.66	227.41
860.98	227.39
861.29	227.36
861.60	227.35
861.91	227.36
862.22	227.30
862.53	227.29
862.84	227.17
863.16	227.19
863.47	227.22
863.78	227.23
864.09	227.24
864.40	227.26
864.71	227.22
865.02	227.24
865.33	227.21
865.64	227.24
865.95	227.19
866.27	227.26
866.58	227.29
866.89	227.29
867.20	227.29
867.51	227.29
867.82	227.29
868.13	227.30
868.44	227.29
868.75	227.30
869.06	227.31
869.37	227.30
869.68	227.27
869.99	227.26
870.30	227.25
870.61	227.28
870.92	227.28
871.23	227.28
871.54	227.28
871.85	227.30
872.16	227.28
872.47	227.30
872.78	227.26
873.09	227.23
873.40	227.21
873.71	227.20
874.02	227.21
874.33	227.22
874.64	227.22
874.95	227.26
875.26	227.23
875.56	227.22
875.87	227.23
876.18	227.24
876.49	227.34
876.80	227.38
877.11	227.36
877.42	227.35
877.73	227.39
878.04	227.37
878.35	227.39
878.66	227.40
878.96	227.42
879.27	227.44
879.58	227.45
879.89	227.46
880.20	227.49
880.51	227.48
880.82	227.50
881.12	227.51
881.43	227.44
881.74	227.44
882.05	227.46
882.36	227.48
882.67	227.50
882.97	227.37
883.28	227.35
883.59	227.35
883.90	227.36
884.21	227.36
884.51	227.42
884.82	227.40
885.13	227.43
885.44	227.41
885.74	227.41
886.05	227.43
886.36	227.45
886.67	227.41
886.98	227.44
887.28	227.41
887.59	227.44
887.90	227.46
888.20	227.51
888.51	227.51
888.82	227.50
889.13	227.46
889.43	227.59
889.74	227.57
890.05	227.58
890.35	227.61
890.66	227.57
890.97	227.50
891.28	227.50
891.58	227.49
891.89	227.52
892.20	227.50
892.50	227.46
892.81	227.47
893.12	227.47
893.42	227.42
893.73	227.46
894.04	227.42
894.34	227.42
894.65	227.39
894.95	227.38
895.26	227.38
895.57	227.47
895.87	227.36
896.18	227.38
896.48	227.33
896.79	227.31
897.10	227.32
897.40	227.37
897.71	227.35
898.01	227.30
898.32	227.27
898.63	227.26
898.93	227.26
899.24	227.23
899.54	227.24
899.85	227.23
900.15	227.18
900.46	227.17
900.76	227.16
901.07	227.17
901.38	227.17
901.68	227.18
901.99	227.11
902.29	227.07
902.60	227.08
902.90	227.09
903.21	227.10
903.51	227.09
903.82	227.11
904.12	227.10
904.43	227.13
904.73	227.15
905.03	227.11
905.34	227.21
905.64	227.20
905.95	227.17
906.25	227.18
906.56	227.18
906.86	227.19
907.17	227.19
907.47	227.17
907.77	227.15
908.08	227.13
908.38	227.10
908.69	227.11
908.99	227.09
909.30	227.11
909.60	227.11
909.90	227.10
910.21	227.04
910.51	227.05
910.81	227.05
911.12	227.03
911.42	227.07
911.73	226.96
912.03	226.99
912.33	227.03
912.64	227.00
912.94	227.00
913.24	227.00
913.55	227.00
913.85	226.99
914.15	227.04
914.46	227.04
914.76	227.03
915.06	227.05
915.37	227.04
915.67	227.05
915.97	227.04
916.27	227.03
916.58	227.04
916.88	227.01
917.18	227.01
917.49	227.09
917.79	227.08
918.09	227.11
918.39	227.11
918.70	227.14
919.00	227.19
919.30	227.25
919.60	227.24
919.91	227.25
920.21	227.27
920.51	227.25
920.81	227.25
921.12	227.29
921.42	227.30
921.72	227.35
922.02	227.35
922.32	227.38
922.63	227.39
922.93	227.46
923.23	227.49
923.53	227.48
923.83	227.44
924.13	227.43
924.44	227.42
924.74	227.45
925.04	227.46
925.34	227.45
925.64	227.42
925.94	227.42
926.24	227.48
926.55	227.47
926.85	227.50
927.15	227.50
927.45	227.47
927.75	227.46
928.05	227.43
928.35	227.42
928.65	227.43
928.95	227.44
929.26	227.39
929.56	227.42
929.86	227.42
930.16	227.39
930.46	227.42
930.76	227.41
931.06	227.38
931.36	227.34
931.66	227.34
931.96	227.32
932.26	227.30
932.56	227.24
932.86	227.23
933.16	227.19
933.46	227.15
933.76	227.14
934.06	227.16
934.36	227.18
934.66	227.12
934.96	227.09
935.26	227.07
935.56	227.08
935.86	227.03
936.16	227.00
936.46	226.98
936.76	226.96
937.06	226.97
937.36	226.97
937.66	226.99
937.96	226.97
938.26	226.94
938.56	226.95
938.86	226.95
939.16	226.96
939.46	226.96
939.76	227.01
940.06	227.00
940.35	226.99
940.65	226.91
940.95	226.93
941.25	226.95
941.55	226.96
941.85	226.93
942.15	226.94
942.45	227.00
942.75	226.98
943.04	226.96
943.34	226.92
943.64	226.90
943.94	226.86
944.24	226.84
944.54	226.88
944.84	226.87
945.13	226.85
945.43	226.84
945.73	226.83
946.03	226.80
946.33	226.82
946.62	226.82
946.92	226.84
947.22	226.86
947.52	226.82
947.82	226.81
948.11	226.81
948.41	226.77
948.71	226.74
949.01	226.74
949.31	226.75
949.60	226.74
949.90	226.79
950.20	226.77
950.50	226.78
950.79	226.77
951.09	226.81
951.39	226.77
951.69	226.78
951.98	226.82
952.28	226.83
952.58	226.80
952.87	226.77
953.17	226.78
953.47	226.76
953.76	226.74
954.06	226.74
954.36	226.73
954.66	226.76
954.95	226.76
955.25	226.76
955.55	226.79
955.84	226.79
956.14	226.78
956.44	226.81
956.73	226.81
957.03	226.82
957.32	226.78
957.62	226.80
957.92	226.81
958.21	226.80
958.51	226.90
958.81	226.94
959.10	227.00
959.40	227.00
959.69	227.02
959.99	227.07
960.29	227.07
960.58	227.08
960.88	227.12
961.17	227.13
961.47	227.20
961.76	227.22
962.06	227.26
962.36	227.26
962.65	227.27
962.95	227.30
963.24	227.30
963.54	227.34
963.83	227.38
964.13	227.37
964.42	227.33
964.72	227.28
965.01	227.29
965.31	227.26
965.60	227.23
965.90	227.32
966.19	227.30
966.49	227.31
966.78	227.30
967.08	227.30
967.37	227.29
967.67	227.27
967.96	227.26
968.26	227.27
968.55	227.31
968.85	227.31
969.14	227.29
969.43	227.29
969.73	227.25
970.02	227.23
970.32	227.22
970.61	227.23
970.91	227.17
971.20	227.13
971.49	227.12
971.79	227.14
972.08	227.04
972.38	227.06
972.67	227.07
972.96	227.06
973.26	227.07
973.55	227.11
973.85	227.09
974.14	227.08
974.43	227.05
974.73	227.00
975.02	226.99
975.31	226.97
975.61	226.97
975.90	227.02
976.19	227.03
976.49	227.05
976.78	227.06
977.07	227.08
977.37	227.11
977.66	227.12
977.95	227.12
978.24	227.15
978.54	227.18
978.83	227.16
979.12	227.17
979.42	227.15
979.71	227.12
980.00	227.11
980.29	227.12
980.59	227.08
980.88	227.10
981.17	227.10
981.46	227.11
981.76	227.10
982.05	227.08
982.34	227.10
982.63	227.08
982.93	227.04
983.22	227.05
983.51	227.05
983.80	227.04
984.09	227.03
984.39	226.99
984.68	226.94
984.97	226.95
985.26	226.91
985.55	226.92
985.85	226.93
986.14	226.92
986.43	226.93
986.72	226.94
987.01	226.91
987.30	226.91
987.59	226.87
987.89	226.90
988.18	226.85
988.47	226.82
988.76	226.83
989.05	226.85
989.34	226.82
989.63	226.83
989.92	226.83
990.22	226.85
990.51	226.86
990.80	226.88
991.09	226.88
991.38	226.89
991.67	226.91
991.96	226.87
992.25	226.89
992.54	226.88
992.83	226.89
993.12	226.90
993.41	226.92
993.70	226.99
993.99	227.02
994.28	227.05
994.58	227.06
994.87	227.07
995.16	227.10
995.45	227.11
995.74	227.10
996.03	227.12
996.32	227.13
996.61	227.17
996.90	227.16
997.19	227.16
997.48	227.17
997.77	227.15
998.06	227.19
998.34	227.15
998.63	227.15
998.92	227.16
999.21	227.17
999.50	227.18
999.79	227.14
1000.08	227.13
1000.37	227.12
1000.66	227.11
1000.95	227.11
1001.24	227.10
1001.53	227.10
1001.82	227.09
1002.11	227.05
1002.40	227.05
1002.68	227.07
1002.97	227.12
1003.26	227.11
1003.55	227.09
1003.84	227.10
1004.13	227.15
1004.42	227.13
1004.71	227.11
1004.99	227.11
1005.28	227.14
1005.57	227.13
1005.86	227.14
1006.15	227.10
1006.44	227.10
1006.72	227.12
1007.01	227.09
1007.30	227.08
1007.59	227.08
1007.88	227.05
1008.17	227.09
1008.45	227.04
1008.74	226.99
1009.03	226.92
1009.32	226.91
1009.60	226.90
1009.89	226.89
1010.18	226.83
1010.47	226.85
1010.76	226.84
1011.04	226.85
1011.33	226.85
1011.62	226.82
1011.91	226.82
1012.19	226.85
1012.48	226.85
1012.77	226.83
1013.05	226.91
1013.34	226.92
1013.63	226.90
1013.92	226.89
1014.20	226.85
1014.49	226.87
1014.78	226.87
1015.06	226.89
1015.35	226.89
1015.64	226.91
1015.92	226.90
1016.21	226.88
1016.50	226.87
1016.78	226.88
1017.07	226.83
1017.36	226.81
1017.64	226.80
1017.93	226.80
1018.22	226.76
1018.50	226.74
1018.79	226.74
1019.08	226.65
1019.36	226.64
1019.65	226.64
1019.93	226.68
1020.22	226.68
1020.51	226.75
1020.79	226.72
1021.08	226.45
1021.36	226.48
1021.65	226.72
1021.94	226.19
1022.22	226.83
1022.51	226.40
1022.79	226.89
1023.08	226.79
1023.36	228.34
1023.65	226.34
>>>>>End Processed Spectral Data<<<<<
