SpectraSuite Data File
++++++++++++++++++++++++++++++++++++
Date: Fri Feb 01 16:13:04 EST 2013
User: group
Dark Spectrum Present: No
Reference Spectrum Present: No
Number of Sampled Component Spectra: 1
Spectrometers: USB2E7196
Integration Time (usec): 35000 (USB2E7196)
Spectra Averaged: 100 (USB2E7196)
Boxcar Smoothing: 10 (USB2E7196)
Correct for Electrical Dark: No (USB2E7196)
Strobe/Lamp Enabled: No (USB2E7196)
Correct for Detector Non-linearity: No (USB2E7196)
Correct for Stray Light: No (USB2E7196)
Number of Pixels in Processed Spectrum: 2048
>>>>>Begin Processed Spectral Data<<<<<
339.09	0.00
339.48	214.67
339.86	215.72
340.24	217.16
340.63	218.78
341.01	221.17
341.39	221.17
341.78	222.45
342.16	223.98
342.54	224.38
342.93	212.79
343.31	223.53
343.69	224.06
344.07	224.53
344.46	224.97
344.84	225.35
345.22	225.60
345.60	225.84
345.99	226.07
346.37	226.18
346.75	226.29
347.13	226.33
347.52	226.37
347.90	226.46
348.28	226.48
348.66	226.53
349.05	226.50
349.43	226.55
349.81	226.60
350.19	226.64
350.57	226.69
350.96	226.75
351.34	226.86
351.72	226.92
352.10	227.02
352.48	227.05
352.87	227.08
353.25	227.11
353.63	227.16
354.01	227.20
354.39	227.28
354.77	227.34
355.15	227.47
355.54	227.50
355.92	227.55
356.30	227.62
356.68	227.72
357.06	227.79
357.44	227.85
357.82	227.89
358.20	227.95
358.58	228.00
358.97	228.06
359.35	228.12
359.73	228.18
360.11	228.26
360.49	228.32
360.87	228.38
361.25	228.49
361.63	228.55
362.01	228.56
362.39	228.56
362.77	228.61
363.15	228.61
363.53	228.69
363.91	228.70
364.29	228.70
364.67	228.62
365.05	228.64
365.43	228.63
365.81	228.65
366.19	228.70
366.57	228.75
366.95	228.77
367.33	228.76
367.71	228.75
368.09	228.76
368.47	228.77
368.85	228.73
369.23	228.71
369.61	228.68
369.99	228.70
370.37	228.72
370.75	228.72
371.13	228.66
371.51	228.57
371.89	228.56
372.27	228.53
372.65	228.49
373.03	228.41
373.41	228.38
373.78	228.32
374.16	228.21
374.54	228.14
374.92	228.05
375.30	228.00
375.68	227.92
376.06	227.82
376.44	227.77
376.82	227.70
377.19	227.62
377.57	227.53
377.95	227.45
378.33	227.36
378.71	227.24
379.09	227.23
379.47	227.20
379.84	227.12
380.22	227.07
380.60	227.00
380.98	226.99
381.36	226.93
381.73	226.88
382.11	226.84
382.49	226.77
382.87	226.72
383.25	226.63
383.62	226.69
384.00	226.63
384.38	226.58
384.76	226.57
385.13	226.58
385.51	226.54
385.89	226.49
386.27	226.45
386.64	226.43
387.02	226.33
387.40	226.30
387.78	226.26
388.15	226.22
388.53	226.18
388.91	226.11
389.29	226.04
389.66	226.00
390.04	225.95
390.42	225.96
390.79	225.95
391.17	225.95
391.55	225.84
391.92	225.83
392.30	225.82
392.68	225.77
393.05	225.75
393.43	225.77
393.81	225.75
394.18	225.74
394.56	225.74
394.94	225.82
395.31	225.80
395.69	225.85
396.06	225.89
396.44	225.91
396.82	225.93
397.19	226.04
397.57	226.10
397.95	226.18
398.32	226.15
398.70	226.18
399.07	226.23
399.45	226.23
399.82	226.31
400.20	226.36
400.58	226.44
400.95	226.44
401.33	226.53
401.70	226.71
402.08	226.79
402.45	226.89
402.83	226.96
403.20	227.09
403.58	227.15
403.95	227.29
404.33	227.42
404.71	227.54
405.08	227.71
405.46	227.80
405.83	227.95
406.21	228.10
406.58	228.28
406.96	228.47
407.33	228.70
407.70	228.84
408.08	229.07
408.45	229.29
408.83	229.54
409.20	229.73
409.58	229.90
409.95	230.14
410.33	230.39
410.70	230.63
411.08	230.90
411.45	231.20
411.82	231.46
412.20	231.78
412.57	232.21
412.95	232.50
413.32	232.92
413.69	233.33
414.07	233.76
414.44	234.22
414.82	234.69
415.19	235.21
415.56	235.76
415.94	236.33
416.31	236.95
416.68	237.59
417.06	238.31
417.43	239.00
417.81	239.79
418.18	240.58
418.55	241.38
418.93	242.26
419.30	243.18
419.67	244.14
420.04	245.11
420.42	246.09
420.79	247.28
421.16	248.44
421.54	249.62
421.91	250.82
422.28	252.08
422.66	253.38
423.03	254.73
423.40	256.06
423.77	257.47
424.15	258.90
424.52	260.36
424.89	261.99
425.26	263.54
425.64	264.96
426.01	266.54
426.38	268.24
426.75	269.90
427.13	271.65
427.50	273.45
427.87	275.34
428.24	277.22
428.61	278.99
428.99	280.91
429.36	283.00
429.73	285.10
430.10	287.13
430.47	289.21
430.85	291.31
431.22	293.57
431.59	295.95
431.96	298.19
432.33	300.69
432.70	303.08
433.08	305.89
433.45	308.52
433.82	311.15
434.19	314.05
434.56	316.87
434.93	319.48
435.30	322.11
435.68	325.02
436.05	327.87
436.42	330.58
436.79	333.15
437.16	335.85
437.53	338.66
437.90	341.51
438.27	344.21
438.64	347.00
439.01	349.59
439.38	351.83
439.75	354.01
440.13	356.47
440.50	358.76
440.87	360.57
441.24	362.52
441.61	364.66
441.98	366.15
442.35	367.98
442.72	369.88
443.09	371.66
443.46	372.60
443.83	373.08
444.20	373.60
444.57	374.37
444.94	374.65
445.31	375.00
445.68	375.30
446.05	375.40
446.42	375.03
446.79	374.56
447.16	374.06
447.53	373.70
447.90	372.52
448.27	371.37
448.64	369.81
449.01	368.67
449.37	366.71
449.74	364.82
450.11	362.51
450.48	360.00
450.85	357.48
451.22	355.30
451.59	353.31
451.96	351.36
452.33	348.77
452.70	346.42
453.07	343.60
453.43	340.70
453.80	337.94
454.17	335.27
454.54	332.78
454.91	330.09
455.28	327.41
455.65	324.94
456.02	322.50
456.38	320.35
456.75	317.72
457.12	315.48
457.49	313.25
457.86	311.11
458.23	309.25
458.59	307.19
458.96	305.15
459.33	303.37
459.70	301.57
460.07	300.07
460.43	298.35
460.80	296.74
461.17	295.34
461.54	293.85
461.91	292.45
462.27	291.03
462.64	289.83
463.01	288.50
463.38	287.24
463.74	285.91
464.11	284.77
464.48	283.73
464.85	282.62
465.21	281.75
465.58	280.85
465.95	279.73
466.32	278.86
466.68	277.98
467.05	277.08
467.42	276.20
467.78	275.30
468.15	274.44
468.52	273.81
468.88	272.95
469.25	272.19
469.62	271.58
469.98	270.94
470.35	270.30
470.72	269.70
471.08	269.07
471.45	268.53
471.82	268.00
472.18	267.45
472.55	267.03
472.92	266.53
473.28	266.09
473.65	265.71
474.02	265.30
474.38	264.94
474.75	264.64
475.11	264.30
475.48	264.05
475.85	263.81
476.21	263.58
476.58	263.45
476.94	263.34
477.31	263.19
477.67	263.00
478.04	262.92
478.41	262.93
478.77	262.95
479.14	262.88
479.50	262.91
479.87	263.00
480.23	263.10
480.60	263.21
480.96	263.32
481.33	263.53
481.69	263.70
482.06	263.95
482.42	264.10
482.79	264.36
483.15	264.66
483.52	265.08
483.88	265.39
484.25	265.76
484.61	266.21
484.98	266.63
485.34	267.24
485.71	267.79
486.07	268.34
486.44	268.94
486.80	269.64
487.17	270.31
487.53	271.10
487.90	271.95
488.26	272.86
488.62	273.84
488.99	274.80
489.35	275.83
489.72	276.92
490.08	278.18
490.44	279.43
490.81	280.76
491.17	282.11
491.54	283.60
491.90	285.11
492.26	286.67
492.63	288.41
492.99	290.15
493.36	292.03
493.72	294.11
494.08	296.18
494.45	298.45
494.81	300.86
495.17	303.28
495.54	305.87
495.90	308.51
496.26	311.33
496.63	314.27
496.99	317.40
497.35	320.64
497.72	323.99
498.08	327.49
498.44	331.16
498.80	335.07
499.17	339.11
499.53	343.29
499.89	347.70
500.26	352.21
500.62	356.88
500.98	361.85
501.34	366.90
501.71	372.25
502.07	377.66
502.43	383.27
502.79	389.08
503.16	395.15
503.52	401.44
503.88	407.81
504.24	414.44
504.60	421.38
504.97	428.57
505.33	435.88
505.69	443.56
506.05	451.34
506.41	459.23
506.78	467.35
507.14	475.76
507.50	484.51
507.86	493.49
508.22	502.70
508.59	511.93
508.95	521.55
509.31	531.37
509.67	541.52
510.03	551.77
510.39	562.32
510.75	573.02
511.12	583.95
511.48	595.25
511.84	606.73
512.20	618.15
512.56	630.09
512.92	642.28
513.28	654.68
513.64	667.16
514.00	679.87
514.37	692.82
514.73	705.88
515.09	718.88
515.45	732.10
515.81	745.63
516.17	759.55
516.53	773.70
516.89	787.89
517.25	801.99
517.61	816.43
517.97	830.90
518.33	845.38
518.69	860.24
519.05	875.24
519.41	890.42
519.77	905.98
520.13	921.46
520.49	936.85
520.85	952.25
521.21	967.96
521.57	984.20
521.93	999.94
522.29	1016.37
522.65	1032.67
523.01	1048.90
523.37	1064.98
523.73	1081.16
524.09	1097.11
524.45	1113.34
524.81	1129.98
525.17	1146.77
525.53	1163.53
525.89	1180.39
526.25	1197.07
526.61	1213.32
526.97	1229.95
527.33	1246.41
527.68	1262.91
528.04	1279.36
528.40	1295.87
528.76	1312.80
529.12	1329.39
529.48	1346.32
529.84	1362.22
530.20	1378.71
530.56	1395.60
530.91	1412.91
531.27	1429.61
531.63	1446.07
531.99	1462.55
532.35	1478.57
532.71	1494.46
533.07	1510.65
533.42	1526.39
533.78	1542.48
534.14	1558.69
534.50	1573.96
534.86	1589.78
535.21	1604.80
535.57	1620.73
535.93	1636.08
536.29	1650.79
536.65	1665.68
537.00	1680.24
537.36	1695.55
537.72	1710.03
538.08	1724.53
538.44	1738.30
538.79	1752.15
539.15	1765.52
539.51	1779.20
539.87	1793.36
540.22	1806.81
540.58	1820.45
540.94	1833.70
541.29	1846.26
541.65	1858.90
542.01	1872.00
542.37	1884.24
542.72	1896.69
543.08	1908.22
543.44	1920.54
543.79	1931.82
544.15	1942.71
544.51	1954.31
544.87	1965.08
545.22	1975.86
545.58	1985.98
545.94	1995.56
546.29	2005.27
546.65	2015.35
547.01	2024.58
547.36	2033.26
547.72	2041.73
548.07	2049.82
548.43	2057.97
548.79	2066.00
549.14	2073.61
549.50	2080.83
549.86	2088.42
550.21	2095.60
550.57	2102.92
550.92	2109.53
551.28	2116.54
551.64	2123.61
551.99	2130.09
552.35	2136.27
552.70	2142.37
553.06	2148.39
553.41	2154.76
553.77	2160.59
554.13	2166.59
554.48	2172.68
554.84	2178.26
555.19	2183.47
555.55	2188.58
555.90	2193.11
556.26	2198.22
556.61	2202.70
556.97	2207.24
557.32	2211.38
557.68	2215.62
558.03	2219.84
558.39	2223.64
558.74	2228.22
559.10	2232.19
559.45	2235.74
559.81	2239.88
560.16	2243.72
560.52	2246.86
560.87	2250.27
561.23	2253.27
561.58	2256.16
561.94	2258.56
562.29	2260.76
562.64	2263.74
563.00	2266.14
563.35	2269.66
563.71	2272.66
564.06	2275.90
564.42	2278.84
564.77	2281.57
565.12	2283.92
565.48	2285.95
565.83	2287.72
566.19	2289.12
566.54	2289.76
566.89	2291.08
567.25	2291.78
567.60	2293.01
567.96	2294.79
568.31	2295.51
568.66	2296.55
569.02	2297.19
569.37	2297.67
569.72	2298.68
570.08	2298.73
570.43	2298.92
570.78	2298.41
571.14	2296.97
571.49	2295.70
571.84	2295.21
572.20	2294.00
572.55	2292.91
572.90	2291.21
573.26	2289.99
573.61	2288.25
573.96	2286.76
574.31	2283.81
574.67	2280.96
575.02	2277.44
575.37	2273.91
575.72	2270.43
576.08	2267.03
576.43	2263.64
576.78	2260.11
577.13	2256.87
577.49	2253.73
577.84	2250.19
578.19	2246.33
578.54	2242.76
578.90	2238.73
579.25	2233.20
579.60	2228.40
579.95	2223.42
580.30	2218.40
580.66	2213.12
581.01	2208.10
581.36	2203.03
581.71	2198.95
582.06	2194.66
582.42	2190.39
582.77	2185.44
583.12	2180.75
583.47	2176.19
583.82	2171.44
584.17	2166.31
584.53	2160.85
584.88	2155.21
585.23	2149.58
585.58	2144.18
585.93	2138.61
586.28	2133.76
586.63	2128.80
586.98	2123.53
587.34	2118.92
587.69	2114.06
588.04	2108.96
588.39	2103.43
588.74	2097.02
589.09	2090.83
589.44	2083.91
589.79	2077.63
590.14	2071.86
590.49	2065.38
590.84	2058.89
591.19	2052.79
591.54	2046.33
591.89	2039.06
592.25	2032.40
592.60	2025.23
592.95	2017.84
593.30	2010.64
593.65	2003.05
594.00	1995.98
594.35	1988.84
594.70	1980.69
595.05	1973.79
595.40	1966.54
595.75	1959.04
596.10	1952.97
596.45	1946.30
596.80	1940.20
597.15	1933.80
597.50	1926.94
597.85	1920.53
598.19	1914.04
598.54	1907.00
598.89	1900.23
599.24	1894.37
599.59	1887.87
599.94	1881.71
600.29	1875.36
600.64	1868.60
600.99	1861.36
601.34	1854.64
601.69	1847.57
602.04	1840.81
602.39	1833.35
602.74	1826.53
603.08	1819.90
603.43	1813.18
603.78	1805.93
604.13	1798.68
604.48	1791.35
604.83	1784.33
605.18	1777.42
605.53	1769.48
605.87	1761.47
606.22	1754.18
606.57	1746.15
606.92	1738.62
607.27	1731.59
607.62	1724.63
607.96	1717.55
608.31	1711.03
608.66	1703.51
609.01	1696.00
609.36	1688.54
609.70	1680.48
610.05	1672.43
610.40	1664.71
610.75	1656.52
611.10	1648.88
611.44	1640.42
611.79	1632.41
612.14	1623.90
612.49	1614.59
612.83	1606.03
613.18	1597.99
613.53	1589.94
613.88	1581.39
614.22	1573.17
614.57	1564.37
614.92	1556.34
615.27	1548.90
615.61	1540.44
615.96	1532.21
616.31	1524.58
616.65	1517.12
617.00	1509.50
617.35	1501.64
617.70	1493.38
618.04	1484.81
618.39	1476.48
618.74	1468.97
619.08	1460.59
619.43	1452.91
619.78	1446.14
620.12	1439.07
620.47	1431.55
620.82	1423.46
621.16	1416.07
621.51	1408.47
621.85	1400.75
622.20	1392.31
622.55	1383.82
622.89	1375.89
623.24	1368.25
623.59	1360.77
623.93	1353.22
624.28	1346.07
624.62	1338.71
624.97	1331.42
625.32	1324.60
625.66	1317.58
626.01	1310.43
626.35	1303.13
626.70	1295.36
627.04	1287.75
627.39	1279.93
627.73	1272.43
628.08	1265.51
628.43	1258.31
628.77	1251.00
629.12	1243.55
629.46	1236.32
629.81	1228.82
630.15	1221.61
630.50	1214.15
630.84	1206.06
631.19	1198.09
631.53	1190.50
631.88	1182.90
632.22	1175.37
632.57	1168.04
632.91	1160.51
633.26	1153.12
633.60	1145.63
633.95	1138.48
634.29	1131.20
634.64	1124.54
634.98	1117.25
635.32	1110.08
635.67	1103.27
636.01	1096.46
636.36	1089.67
636.70	1083.07
637.05	1076.44
637.39	1070.10
637.73	1063.75
638.08	1057.89
638.42	1051.86
638.77	1045.44
639.11	1038.92
639.45	1032.47
639.80	1025.77
640.14	1019.31
640.49	1012.73
640.83	1006.35
641.17	1000.17
641.52	993.94
641.86	987.43
642.20	981.52
642.55	975.15
642.89	968.70
643.23	962.17
643.58	956.45
643.92	950.34
644.26	944.51
644.61	938.33
644.95	932.24
645.29	925.65
645.64	918.96
645.98	912.67
646.32	906.75
646.66	900.70
647.01	894.96
647.35	889.35
647.69	883.48
648.04	877.99
648.38	872.20
648.72	866.33
649.06	860.31
649.41	854.38
649.75	848.41
650.09	842.55
650.43	836.84
650.78	830.55
651.12	824.55
651.46	818.75
651.80	813.09
652.14	807.72
652.49	802.44
652.83	797.29
653.17	791.63
653.51	785.97
653.85	780.54
654.20	774.95
654.54	768.89
654.88	763.18
655.22	757.24
655.56	751.51
655.90	745.99
656.25	740.78
656.59	735.45
656.93	730.43
657.27	725.31
657.61	719.85
657.95	714.76
658.29	709.74
658.64	704.38
658.98	698.97
659.32	693.41
659.66	688.17
660.00	682.83
660.34	677.80
660.68	672.86
661.02	667.89
661.36	663.15
661.70	658.70
662.05	654.32
662.39	650.09
662.73	645.64
663.07	641.24
663.41	636.79
663.75	632.29
664.09	627.71
664.43	623.29
664.77	619.16
665.11	614.92
665.45	610.68
665.79	606.63
666.13	602.62
666.47	598.56
666.81	594.36
667.15	590.26
667.49	586.37
667.83	582.47
668.17	578.53
668.51	574.40
668.85	570.31
669.19	566.41
669.53	562.56
669.87	558.67
670.21	554.92
670.55	551.20
670.89	547.75
671.23	544.26
671.57	540.78
671.91	537.27
672.25	533.77
672.58	530.32
672.92	526.91
673.26	523.67
673.60	520.57
673.94	517.43
674.28	514.46
674.62	511.51
674.96	508.51
675.30	505.58
675.64	502.66
675.97	499.92
676.31	497.17
676.65	494.21
676.99	491.56
677.33	488.66
677.67	485.91
678.01	482.88
678.34	479.93
678.68	476.99
679.02	474.11
679.36	471.35
679.70	468.56
680.04	465.78
680.37	462.94
680.71	460.11
681.05	457.48
681.39	454.81
681.73	452.14
682.06	449.58
682.40	447.06
682.74	444.53
683.08	441.94
683.42	439.29
683.75	436.81
684.09	434.21
684.43	431.73
684.77	429.25
685.10	426.92
685.44	424.61
685.78	422.35
686.12	420.16
686.45	417.88
686.79	415.63
687.13	413.45
687.46	411.28
687.80	409.09
688.14	406.90
688.48	404.87
688.81	402.68
689.15	400.51
689.49	398.33
689.82	396.20
690.16	394.11
690.50	392.16
690.83	390.22
691.17	388.26
691.51	386.37
691.84	384.58
692.18	382.67
692.52	380.72
692.85	378.77
693.19	376.89
693.52	375.04
693.86	373.25
694.20	371.46
694.53	369.71
694.87	367.92
695.21	366.12
695.54	364.23
695.88	362.47
696.21	360.74
696.55	359.04
696.88	357.40
697.22	355.75
697.56	354.09
697.89	352.49
698.23	350.89
698.56	349.32
698.90	347.71
699.23	346.08
699.57	344.54
699.90	343.00
700.24	341.46
700.58	339.96
700.91	338.48
701.25	337.02
701.58	335.60
701.92	334.16
702.25	332.81
702.59	331.47
702.92	330.19
703.26	328.89
703.59	327.64
703.93	326.43
704.26	325.15
704.60	323.84
704.93	322.57
705.26	321.31
705.60	320.11
705.93	318.92
706.27	317.84
706.60	316.73
706.94	315.68
707.27	314.53
707.61	313.44
707.94	312.39
708.27	311.32
708.61	310.22
708.94	309.26
709.28	308.29
709.61	307.34
709.94	306.37
710.28	305.33
710.61	304.31
710.95	303.27
711.28	302.37
711.61	301.44
711.95	300.51
712.28	299.60
712.61	298.58
712.95	297.64
713.28	296.80
713.61	295.91
713.95	295.02
714.28	294.11
714.61	293.25
714.95	292.37
715.28	291.52
715.61	290.61
715.95	289.76
716.28	288.88
716.61	288.03
716.95	287.20
717.28	286.42
717.61	285.67
717.94	284.89
718.28	284.08
718.61	283.37
718.94	282.63
719.27	281.95
719.61	281.31
719.94	280.64
720.27	279.89
720.60	279.22
720.94	278.55
721.27	278.02
721.60	277.47
721.93	276.87
722.27	276.33
722.60	275.84
722.93	275.22
723.26	274.71
723.59	274.19
723.93	273.63
724.26	273.11
724.59	272.54
724.92	272.01
725.25	271.54
725.59	270.99
725.92	270.50
726.25	269.99
726.58	269.49
726.91	269.02
727.24	268.56
727.57	268.13
727.91	267.65
728.24	267.18
728.57	266.71
728.90	266.24
729.23	265.72
729.56	265.31
729.89	264.87
730.22	264.39
730.55	263.91
730.89	263.47
731.22	263.03
731.55	262.62
731.88	262.20
732.21	261.78
732.54	261.37
732.87	260.96
733.20	260.56
733.53	260.19
733.86	259.82
734.19	259.40
734.52	259.01
734.85	258.69
735.18	258.27
735.51	257.91
735.84	257.56
736.17	257.26
736.50	256.85
736.83	256.62
737.16	256.28
737.49	255.95
737.82	255.58
738.15	255.24
738.48	254.95
738.81	254.62
739.14	254.27
739.47	253.95
739.80	253.64
740.13	253.35
740.46	253.00
740.79	252.66
741.12	252.38
741.45	252.07
741.78	251.77
742.11	251.49
742.44	251.16
742.77	250.89
743.10	250.56
743.43	250.25
743.75	249.84
744.08	249.68
744.41	249.39
744.74	249.14
745.07	248.86
745.40	248.62
745.73	248.42
746.06	248.16
746.39	247.90
746.71	247.64
747.04	247.38
747.37	247.13
747.70	246.90
748.03	246.66
748.36	246.41
748.68	246.16
749.01	245.92
749.34	245.69
749.67	245.45
750.00	245.20
750.33	245.06
750.65	244.85
750.98	244.49
751.31	244.26
751.64	244.04
751.97	243.85
752.29	243.59
752.62	243.31
752.95	243.10
753.28	242.89
753.60	242.66
753.93	242.47
754.26	242.29
754.59	242.08
754.91	241.84
755.24	241.64
755.57	241.43
755.90	241.23
756.22	241.03
756.55	240.84
756.88	240.66
757.20	240.43
757.53	240.24
757.86	240.09
758.19	239.96
758.51	239.79
758.84	239.59
759.17	239.41
759.49	239.25
759.82	239.09
760.15	238.95
760.47	238.78
760.80	238.59
761.13	238.44
761.45	238.26
761.78	238.13
762.11	237.98
762.43	237.82
762.76	237.64
763.08	237.52
763.41	237.37
763.74	237.21
764.06	237.07
764.39	236.91
764.71	236.75
765.04	236.59
765.37	236.46
765.69	236.34
766.02	236.18
766.34	236.03
766.67	235.88
767.00	235.74
767.32	235.71
767.65	235.62
767.97	235.49
768.30	235.40
768.62	235.24
768.95	235.10
769.27	235.02
769.60	234.95
769.92	234.81
770.25	234.69
770.57	234.59
770.90	234.49
771.22	234.38
771.55	234.31
771.87	234.20
772.20	234.12
772.52	234.08
772.85	234.15
773.17	234.08
773.50	234.00
773.82	233.91
774.15	233.74
774.47	233.64
774.80	233.53
775.12	233.44
775.45	233.38
775.77	233.34
776.09	233.24
776.42	233.16
776.74	233.14
777.07	233.09
777.39	233.02
777.72	232.95
778.04	232.90
778.36	232.82
778.69	232.79
779.01	232.70
779.33	232.60
779.66	232.43
779.98	232.33
780.31	232.32
780.63	232.27
780.95	232.25
781.28	232.20
781.60	232.15
781.92	232.05
782.25	232.01
782.57	231.92
782.89	231.85
783.22	231.77
783.54	231.71
783.86	231.63
784.19	231.56
784.51	231.52
784.83	231.45
785.16	231.39
785.48	231.31
785.80	231.26
786.12	231.22
786.45	231.18
786.77	231.17
787.09	231.07
787.42	231.03
787.74	230.97
788.06	230.91
788.38	230.86
788.71	230.85
789.03	230.82
789.35	230.81
789.67	230.78
789.99	230.78
790.32	230.71
790.64	230.68
790.96	230.76
791.28	230.67
791.61	230.61
791.93	230.59
792.25	230.55
792.57	230.59
792.89	230.51
793.21	230.43
793.54	230.37
793.86	230.31
794.18	230.25
794.50	230.17
794.82	230.14
795.14	230.14
795.47	230.10
795.79	230.05
796.11	229.99
796.43	229.91
796.75	229.86
797.07	229.81
797.39	229.76
797.71	229.62
798.04	229.59
798.36	229.56
798.68	229.51
799.00	229.49
799.32	229.39
799.64	229.37
799.96	229.34
800.28	229.30
800.60	229.27
800.92	229.26
801.24	229.25
801.56	229.20
801.89	229.12
802.21	229.09
802.53	229.05
802.85	229.03
803.17	229.04
803.49	228.99
803.81	228.96
804.13	228.93
804.45	228.88
804.77	228.89
805.09	228.88
805.41	228.83
805.73	228.77
806.05	228.74
806.37	228.70
806.69	228.69
807.01	228.67
807.33	228.66
807.65	228.62
807.97	228.66
808.28	228.61
808.60	228.61
808.92	228.58
809.24	228.64
809.56	228.60
809.88	228.59
810.20	228.58
810.52	228.57
810.84	228.53
811.16	228.52
811.48	228.50
811.80	228.49
812.12	228.50
812.43	228.53
812.75	228.51
813.07	228.51
813.39	228.52
813.71	228.49
814.03	228.47
814.35	228.43
814.67	228.38
814.98	228.37
815.30	228.33
815.62	228.31
815.94	228.21
816.26	228.23
816.58	228.21
816.89	228.22
817.21	228.21
817.53	228.21
817.85	228.24
818.17	228.22
818.48	228.18
818.80	228.17
819.12	228.13
819.44	228.12
819.76	228.10
820.07	228.07
820.39	228.07
820.71	228.04
821.03	228.06
821.34	228.02
821.66	228.05
821.98	228.11
822.30	228.10
822.61	228.18
822.93	228.14
823.25	228.12
823.57	228.09
823.88	228.09
824.20	228.08
824.52	228.05
824.83	228.07
825.15	228.06
825.47	228.06
825.79	228.06
826.10	228.06
826.42	228.03
826.74	228.04
827.05	228.04
827.37	228.08
827.69	228.07
828.00	228.07
828.32	228.03
828.64	227.99
828.95	228.03
829.27	227.97
829.58	227.97
829.90	227.97
830.22	227.97
830.53	227.93
830.85	227.91
831.17	227.88
831.48	227.84
831.80	227.85
832.11	227.82
832.43	227.80
832.75	227.79
833.06	227.81
833.38	227.77
833.69	227.72
834.01	227.70
834.32	227.65
834.64	227.63
834.96	227.62
835.27	227.60
835.59	227.54
835.90	227.49
836.22	227.46
836.53	227.42
836.85	227.39
837.16	227.47
837.48	227.46
837.79	227.44
838.11	227.44
838.42	227.40
838.74	227.39
839.05	227.38
839.37	227.34
839.68	227.29
840.00	227.28
840.31	227.29
840.63	227.28
840.94	227.27
841.26	227.24
841.57	227.22
841.88	227.20
842.20	227.19
842.51	227.18
842.83	227.17
843.14	227.27
843.46	227.24
843.77	227.17
844.08	227.17
844.40	227.19
844.71	227.15
845.03	227.12
845.34	227.09
845.65	227.05
845.97	227.06
846.28	227.07
846.60	227.02
846.91	226.98
847.22	226.96
847.54	226.94
847.85	226.93
848.16	226.93
848.48	226.90
848.79	226.92
849.10	226.89
849.42	226.86
849.73	226.79
850.04	226.80
850.36	226.76
850.67	226.77
850.98	226.74
851.30	226.76
851.61	226.76
851.92	226.75
852.23	226.80
852.55	226.79
852.86	226.75
853.17	226.76
853.49	226.80
853.80	226.79
854.11	226.82
854.42	226.84
854.74	226.82
855.05	226.82
855.36	226.77
855.67	226.82
855.99	226.83
856.30	226.91
856.61	226.91
856.92	226.94
857.23	226.94
857.55	226.92
857.86	226.93
858.17	226.93
858.48	226.94
858.79	226.88
859.11	226.88
859.42	226.90
859.73	226.94
860.04	226.94
860.35	226.92
860.66	226.87
860.98	226.84
861.29	226.88
861.60	226.89
861.91	226.93
862.22	226.91
862.53	226.92
862.84	226.83
863.16	226.85
863.47	226.82
863.78	226.82
864.09	226.85
864.40	226.86
864.71	226.89
865.02	226.89
865.33	226.93
865.64	226.96
865.95	227.00
866.27	227.05
866.58	227.02
866.89	227.05
867.20	227.05
867.51	227.10
867.82	227.06
868.13	227.09
868.44	227.05
868.75	227.07
869.06	227.09
869.37	227.09
869.68	227.08
869.99	227.09
870.30	227.06
870.61	227.04
870.92	227.00
871.23	226.95
871.54	226.97
871.85	226.95
872.16	226.95
872.47	226.89
872.78	226.82
873.09	226.83
873.40	226.81
873.71	226.84
874.02	226.84
874.33	226.86
874.64	226.82
874.95	226.86
875.26	226.82
875.56	226.79
875.87	226.76
876.18	226.71
876.49	226.80
876.80	226.81
877.11	226.76
877.42	226.77
877.73	226.79
878.04	226.79
878.35	226.78
878.66	226.77
878.96	226.77
879.27	226.75
879.58	226.75
879.89	226.73
880.20	226.73
880.51	226.69
880.82	226.64
881.12	226.62
881.43	226.57
881.74	226.53
882.05	226.54
882.36	226.57
882.67	226.55
882.97	226.43
883.28	226.40
883.59	226.41
883.90	226.39
884.21	226.36
884.51	226.33
884.82	226.30
885.13	226.33
885.44	226.33
885.74	226.33
886.05	226.31
886.36	226.31
886.67	226.27
886.98	226.31
887.28	226.33
887.59	226.35
887.90	226.37
888.20	226.40
888.51	226.41
888.82	226.40
889.13	226.43
889.43	226.50
889.74	226.50
890.05	226.47
890.35	226.48
890.66	226.46
890.97	226.44
891.28	226.47
891.58	226.42
891.89	226.37
892.20	226.39
892.50	226.37
892.81	226.37
893.12	226.37
893.42	226.29
893.73	226.30
894.04	226.30
894.34	226.31
894.65	226.28
894.95	226.25
895.26	226.25
895.57	226.26
895.87	226.18
896.18	226.22
896.48	226.26
896.79	226.27
897.10	226.31
897.40	226.33
897.71	226.34
898.01	226.35
898.32	226.39
898.63	226.34
898.93	226.36
899.24	226.39
899.54	226.40
899.85	226.44
900.15	226.44
900.46	226.43
900.76	226.40
901.07	226.45
901.38	226.45
901.68	226.45
901.99	226.43
902.29	226.43
902.60	226.41
902.90	226.38
903.21	226.38
903.51	226.40
903.82	226.44
904.12	226.45
904.43	226.43
904.73	226.44
905.03	226.47
905.34	226.55
905.64	226.54
905.95	226.56
906.25	226.55
906.56	226.53
906.86	226.51
907.17	226.51
907.47	226.46
907.77	226.47
908.08	226.44
908.38	226.42
908.69	226.44
908.99	226.48
909.30	226.48
909.60	226.49
909.90	226.45
910.21	226.44
910.51	226.40
910.81	226.44
911.12	226.47
911.42	226.49
911.73	226.40
912.03	226.42
912.33	226.40
912.64	226.41
912.94	226.46
913.24	226.45
913.55	226.45
913.85	226.48
914.15	226.51
914.46	226.52
914.76	226.52
915.06	226.50
915.37	226.47
915.67	226.49
915.97	226.50
916.27	226.55
916.58	226.52
916.88	226.55
917.18	226.51
917.49	226.55
917.79	226.54
918.09	226.56
918.39	226.56
918.70	226.57
919.00	226.53
919.30	226.57
919.60	226.57
919.91	226.58
920.21	226.58
920.51	226.54
920.81	226.56
921.12	226.57
921.42	226.57
921.72	226.58
922.02	226.55
922.32	226.56
922.63	226.54
922.93	226.59
923.23	226.60
923.53	226.61
923.83	226.51
924.13	226.52
924.44	226.47
924.74	226.49
925.04	226.54
925.34	226.56
925.64	226.47
925.94	226.49
926.24	226.52
926.55	226.49
926.85	226.51
927.15	226.48
927.45	226.49
927.75	226.46
928.05	226.45
928.35	226.48
928.65	226.49
928.95	226.45
929.26	226.39
929.56	226.40
929.86	226.38
930.16	226.39
930.46	226.36
930.76	226.40
931.06	226.37
931.36	226.29
931.66	226.31
931.96	226.33
932.26	226.30
932.56	226.25
932.86	226.26
933.16	226.24
933.46	226.23
933.76	226.21
934.06	226.24
934.36	226.26
934.66	226.22
934.96	226.18
935.26	226.20
935.56	226.21
935.86	226.13
936.16	226.11
936.46	226.10
936.76	226.09
937.06	226.05
937.36	226.04
937.66	226.04
937.96	225.98
938.26	225.96
938.56	225.93
938.86	225.95
939.16	225.98
939.46	225.99
939.76	226.00
940.06	225.97
940.35	225.97
940.65	225.94
940.95	225.96
941.25	225.96
941.55	225.97
941.85	225.98
942.15	226.04
942.45	226.09
942.75	226.06
943.04	226.04
943.34	226.06
943.64	226.03
943.94	226.06
944.24	226.06
944.54	226.08
944.84	226.11
945.13	226.09
945.43	226.08
945.73	226.10
946.03	226.09
946.33	226.08
946.62	226.08
946.92	226.08
947.22	226.10
947.52	226.10
947.82	226.10
948.11	226.08
948.41	226.06
948.71	226.06
949.01	226.12
949.31	226.13
949.60	226.10
949.90	226.14
950.20	226.13
950.50	226.18
950.79	226.15
951.09	226.16
951.39	226.16
951.69	226.12
951.98	226.13
952.28	226.12
952.58	226.14
952.87	226.12
953.17	226.14
953.47	226.12
953.76	226.11
954.06	226.07
954.36	226.06
954.66	226.07
954.95	226.08
955.25	226.06
955.55	226.08
955.84	226.10
956.14	226.09
956.44	226.11
956.73	226.07
957.03	226.10
957.32	226.12
957.62	226.14
957.92	226.21
958.21	226.19
958.51	226.30
958.81	226.31
959.10	226.32
959.40	226.33
959.69	226.33
959.99	226.35
960.29	226.34
960.58	226.34
960.88	226.37
961.17	226.34
961.47	226.38
961.76	226.36
962.06	226.38
962.36	226.37
962.65	226.37
962.95	226.42
963.24	226.41
963.54	226.41
963.83	226.41
964.13	226.39
964.42	226.39
964.72	226.29
965.01	226.31
965.31	226.31
965.60	226.29
965.90	226.34
966.19	226.34
966.49	226.36
966.78	226.34
967.08	226.32
967.37	226.30
967.67	226.25
967.96	226.27
968.26	226.23
968.55	226.24
968.85	226.25
969.14	226.24
969.43	226.22
969.73	226.20
970.02	226.17
970.32	226.15
970.61	226.13
970.91	226.15
971.20	226.12
971.49	226.11
971.79	226.12
972.08	226.05
972.38	226.04
972.67	226.05
972.96	226.09
973.26	226.09
973.55	226.11
973.85	226.10
974.14	226.10
974.43	226.12
974.73	226.08
975.02	226.06
975.31	226.06
975.61	226.10
975.90	226.12
976.19	226.13
976.49	226.14
976.78	226.13
977.07	226.14
977.37	226.14
977.66	226.18
977.95	226.18
978.24	226.23
978.54	226.22
978.83	226.18
979.12	226.16
979.42	226.15
979.71	226.17
980.00	226.19
980.29	226.18
980.59	226.20
980.88	226.24
981.17	226.26
981.46	226.26
981.76	226.23
982.05	226.25
982.34	226.25
982.63	226.23
982.93	226.24
983.22	226.26
983.51	226.27
983.80	226.30
984.09	226.30
984.39	226.29
984.68	226.31
984.97	226.35
985.26	226.38
985.55	226.42
985.85	226.40
986.14	226.43
986.43	226.46
986.72	226.46
987.01	226.41
987.30	226.40
987.59	226.38
987.89	226.43
988.18	226.38
988.47	226.36
988.76	226.35
989.05	226.34
989.34	226.31
989.63	226.33
989.92	226.27
990.22	226.26
990.51	226.25
990.80	226.24
991.09	226.26
991.38	226.26
991.67	226.20
991.96	226.17
992.25	226.16
992.54	226.16
992.83	226.10
993.12	226.11
993.41	226.15
993.70	226.18
993.99	226.15
994.28	226.16
994.58	226.19
994.87	226.17
995.16	226.20
995.45	226.19
995.74	226.14
996.03	226.12
996.32	226.14
996.61	226.18
996.90	226.17
997.19	226.13
997.48	226.09
997.77	226.13
998.06	226.13
998.34	226.08
998.63	226.07
998.92	226.12
999.21	226.13
999.50	226.13
999.79	226.11
1000.08	226.15
1000.37	226.15
1000.66	226.14
1000.95	226.20
1001.24	226.17
1001.53	226.18
1001.82	226.21
1002.11	226.23
1002.40	226.23
1002.68	226.20
1002.97	226.25
1003.26	226.22
1003.55	226.22
1003.84	226.22
1004.13	226.26
1004.42	226.27
1004.71	226.27
1004.99	226.24
1005.28	226.28
1005.57	226.26
1005.86	226.24
1006.15	226.19
1006.44	226.19
1006.72	226.18
1007.01	226.15
1007.30	226.16
1007.59	226.16
1007.88	226.15
1008.17	226.18
1008.45	226.15
1008.74	226.14
1009.03	226.12
1009.32	226.13
1009.60	226.17
1009.89	226.17
1010.18	226.15
1010.47	226.17
1010.76	226.13
1011.04	226.14
1011.33	226.14
1011.62	226.17
1011.91	226.18
1012.19	226.19
1012.48	226.17
1012.77	226.17
1013.05	226.20
1013.34	226.22
1013.63	226.23
1013.92	226.25
1014.20	226.23
1014.49	226.25
1014.78	226.25
1015.06	226.24
1015.35	226.25
1015.64	226.25
1015.92	226.27
1016.21	226.28
1016.50	226.28
1016.78	226.31
1017.07	226.33
1017.36	226.30
1017.64	226.29
1017.93	226.31
1018.22	226.31
1018.50	226.33
1018.79	226.35
1019.08	226.30
1019.36	226.33
1019.65	226.31
1019.93	226.35
1020.22	226.36
1020.51	226.40
1020.79	226.42
1021.08	226.14
1021.36	226.13
1021.65	226.61
1021.94	225.96
1022.22	226.71
1022.51	225.98
1022.79	227.00
1023.08	226.60
1023.36	227.39
1023.65	226.44
>>>>>End Processed Spectral Data<<<<<
