SpectraSuite Data File
++++++++++++++++++++++++++++++++++++
Date: Fri Feb 01 16:12:28 EST 2013
User: group
Dark Spectrum Present: No
Reference Spectrum Present: No
Number of Sampled Component Spectra: 1
Spectrometers: USB2E7196
Integration Time (usec): 35000 (USB2E7196)
Spectra Averaged: 100 (USB2E7196)
Boxcar Smoothing: 10 (USB2E7196)
Correct for Electrical Dark: No (USB2E7196)
Strobe/Lamp Enabled: No (USB2E7196)
Correct for Detector Non-linearity: No (USB2E7196)
Correct for Stray Light: No (USB2E7196)
Number of Pixels in Processed Spectrum: 2048
>>>>>Begin Processed Spectral Data<<<<<
339.09	0.00
339.48	214.39
339.86	215.97
340.24	217.36
340.63	218.74
341.01	221.79
341.39	221.06
341.78	222.40
342.16	223.70
342.54	224.48
342.93	212.82
343.31	223.57
343.69	224.12
344.07	224.57
344.46	225.02
344.84	225.39
345.22	225.60
345.60	225.88
345.99	226.06
346.37	226.23
346.75	226.33
347.13	226.40
347.52	226.47
347.90	226.54
348.28	226.57
348.66	226.64
349.05	226.67
349.43	226.68
349.81	226.70
350.19	226.74
350.57	226.80
350.96	226.86
351.34	226.97
351.72	227.03
352.10	227.12
352.48	227.17
352.87	227.23
353.25	227.30
353.63	227.35
354.01	227.44
354.39	227.46
354.77	227.52
355.15	227.61
355.54	227.66
355.92	227.71
356.30	227.77
356.68	227.90
357.06	227.95
357.44	228.00
357.82	228.05
358.20	228.13
358.58	228.17
358.97	228.23
359.35	228.29
359.73	228.37
360.11	228.44
360.49	228.48
360.87	228.51
361.25	228.60
361.63	228.65
362.01	228.67
362.39	228.74
362.77	228.77
363.15	228.78
363.53	228.81
363.91	228.83
364.29	228.84
364.67	228.76
365.05	228.77
365.43	228.81
365.81	228.81
366.19	228.81
366.57	228.87
366.95	228.87
367.33	228.81
367.71	228.81
368.09	228.78
368.47	228.75
368.85	228.72
369.23	228.70
369.61	228.64
369.99	228.66
370.37	228.62
370.75	228.66
371.13	228.60
371.51	228.53
371.89	228.47
372.27	228.45
372.65	228.41
373.03	228.36
373.41	228.29
373.78	228.25
374.16	228.19
374.54	228.11
374.92	228.01
375.30	227.99
375.68	227.88
376.06	227.85
376.44	227.76
376.82	227.71
377.19	227.64
377.57	227.58
377.95	227.47
378.33	227.39
378.71	227.23
379.09	227.21
379.47	227.17
379.84	227.10
380.22	226.98
380.60	226.90
380.98	226.85
381.36	226.77
381.73	226.69
382.11	226.62
382.49	226.54
382.87	226.48
383.25	226.38
383.62	226.42
384.00	226.33
384.38	226.31
384.76	226.27
385.13	226.23
385.51	226.17
385.89	226.09
386.27	226.04
386.64	225.99
387.02	225.93
387.40	225.88
387.78	225.81
388.15	225.76
388.53	225.70
388.91	225.63
389.29	225.60
389.66	225.59
390.04	225.59
390.42	225.59
390.79	225.59
391.17	225.59
391.55	225.47
391.92	225.48
392.30	225.48
392.68	225.45
393.05	225.45
393.43	225.45
393.81	225.48
394.18	225.49
394.56	225.53
394.94	225.55
395.31	225.56
395.69	225.63
396.06	225.69
396.44	225.74
396.82	225.81
397.19	225.88
397.57	225.95
397.95	225.99
398.32	226.00
398.70	226.06
399.07	226.15
399.45	226.22
399.82	226.30
400.20	226.37
400.58	226.44
400.95	226.50
401.33	226.60
401.70	226.76
402.08	226.85
402.45	226.92
402.83	227.07
403.20	227.19
403.58	227.30
403.95	227.42
404.33	227.59
404.71	227.71
405.08	227.95
405.46	228.05
405.83	228.19
406.21	228.38
406.58	228.57
406.96	228.73
407.33	228.92
407.70	229.12
408.08	229.40
408.45	229.63
408.83	229.87
409.20	230.08
409.58	230.28
409.95	230.54
410.33	230.82
410.70	231.04
411.08	231.33
411.45	231.63
411.82	231.96
412.20	232.28
412.57	232.72
412.95	232.95
413.32	233.38
413.69	233.82
414.07	234.24
414.44	234.67
414.82	235.16
415.19	235.67
415.56	236.22
415.94	236.75
416.31	237.40
416.68	238.01
417.06	238.75
417.43	239.43
417.81	240.19
418.18	240.98
418.55	241.82
418.93	242.68
419.30	243.55
419.67	244.47
420.04	245.40
420.42	246.41
420.79	247.59
421.16	248.70
421.54	249.86
421.91	251.06
422.28	252.30
422.66	253.59
423.03	254.93
423.40	256.21
423.77	257.61
424.15	259.01
424.52	260.47
424.89	262.05
425.26	263.61
425.64	265.06
426.01	266.62
426.38	268.27
426.75	269.99
427.13	271.71
427.50	273.53
427.87	275.38
428.24	277.19
428.61	278.92
428.99	280.88
429.36	282.98
429.73	285.01
430.10	287.04
430.47	289.07
430.85	291.18
431.22	293.42
431.59	295.75
431.96	297.98
432.33	300.45
432.70	302.85
433.08	305.63
433.45	308.24
433.82	310.89
434.19	313.79
434.56	316.55
434.93	319.17
435.30	321.77
435.68	324.67
436.05	327.47
436.42	330.28
436.79	332.77
437.16	335.50
437.53	338.33
437.90	341.16
438.27	343.95
438.64	346.78
439.01	349.39
439.38	351.65
439.75	353.80
440.13	356.24
440.50	358.54
440.87	360.40
441.24	362.37
441.61	364.48
441.98	365.95
442.35	367.75
442.72	369.57
443.09	371.40
443.46	372.39
443.83	373.02
444.20	373.54
444.57	374.39
444.94	374.64
445.31	374.97
445.68	375.30
446.05	375.38
446.42	374.97
446.79	374.50
447.16	374.08
447.53	373.79
447.90	372.73
448.27	371.57
448.64	369.97
449.01	368.82
449.37	366.88
449.74	365.00
450.11	362.73
450.48	360.34
450.85	357.80
451.22	355.66
451.59	353.64
451.96	351.69
452.33	349.11
452.70	346.78
453.07	344.01
453.43	341.11
453.80	338.35
454.17	335.70
454.54	333.21
454.91	330.52
455.28	327.85
455.65	325.34
456.02	322.90
456.38	320.78
456.75	318.14
457.12	315.91
457.49	313.73
457.86	311.56
458.23	309.70
458.59	307.69
458.96	305.61
459.33	303.74
459.70	301.91
460.07	300.41
460.43	298.69
460.80	297.07
461.17	295.65
461.54	294.15
461.91	292.75
462.27	291.31
462.64	290.05
463.01	288.70
463.38	287.38
463.74	286.05
464.11	284.86
464.48	283.83
464.85	282.71
465.21	281.78
465.58	280.89
465.95	279.83
466.32	278.94
466.68	278.03
467.05	277.13
467.42	276.21
467.78	275.27
468.15	274.41
468.52	273.74
468.88	272.91
469.25	272.17
469.62	271.53
469.98	270.85
470.35	270.24
470.72	269.65
471.08	269.01
471.45	268.47
471.82	267.93
472.18	267.31
472.55	266.85
472.92	266.37
473.28	265.91
473.65	265.47
474.02	264.97
474.38	264.61
474.75	264.30
475.11	263.95
475.48	263.70
475.85	263.46
476.21	263.25
476.58	263.03
476.94	262.82
477.31	262.65
477.67	262.48
478.04	262.38
478.41	262.30
478.77	262.32
479.14	262.27
479.50	262.27
479.87	262.37
480.23	262.46
480.60	262.51
480.96	262.57
481.33	262.75
481.69	262.97
482.06	263.20
482.42	263.39
482.79	263.65
483.15	263.96
483.52	264.31
483.88	264.64
484.25	265.03
484.61	265.50
484.98	265.96
485.34	266.54
485.71	267.10
486.07	267.71
486.44	268.33
486.80	269.01
487.17	269.77
487.53	270.57
487.90	271.42
488.26	272.36
488.62	273.41
488.99	274.40
489.35	275.46
489.72	276.59
490.08	277.84
490.44	279.09
490.81	280.44
491.17	281.83
491.54	283.31
491.90	284.89
492.26	286.53
492.63	288.28
492.99	290.07
493.36	292.00
493.72	294.06
494.08	296.13
494.45	298.43
494.81	300.81
495.17	303.27
495.54	305.85
495.90	308.55
496.26	311.36
496.63	314.34
496.99	317.49
497.35	320.76
497.72	324.16
498.08	327.71
498.44	331.42
498.80	335.39
499.17	339.42
499.53	343.60
499.89	348.00
500.26	352.52
500.62	357.19
500.98	362.18
501.34	367.31
501.71	372.72
502.07	378.18
502.43	383.77
502.79	389.55
503.16	395.65
503.52	401.91
503.88	408.32
504.24	414.95
504.60	421.83
504.97	428.97
505.33	436.30
505.69	443.99
506.05	451.78
506.41	459.65
506.78	467.90
507.14	476.34
507.50	485.08
507.86	494.08
508.22	503.33
508.59	512.53
508.95	522.06
509.31	531.85
509.67	541.90
510.03	552.22
510.39	562.82
510.75	573.68
511.12	584.63
511.48	595.94
511.84	607.44
512.20	618.97
512.56	630.89
512.92	643.05
513.28	655.45
513.64	667.90
514.00	680.56
514.37	693.40
514.73	706.49
515.09	719.53
515.45	732.79
515.81	746.37
516.17	760.33
516.53	774.43
516.89	788.57
517.25	802.73
517.61	817.13
517.97	831.60
518.33	845.90
518.69	860.69
519.05	875.49
519.41	890.64
519.77	906.11
520.13	921.55
520.49	937.01
520.85	952.30
521.21	968.01
521.57	984.25
521.93	1000.01
522.29	1016.36
522.65	1032.55
523.01	1048.75
523.37	1064.73
523.73	1080.80
524.09	1096.94
524.45	1113.26
524.81	1129.97
525.17	1146.70
525.53	1163.51
525.89	1180.43
526.25	1197.23
526.61	1213.68
526.97	1230.28
527.33	1246.68
527.68	1263.23
528.04	1279.50
528.40	1296.07
528.76	1313.04
529.12	1329.56
529.48	1346.40
529.84	1362.28
530.20	1378.87
530.56	1395.71
530.91	1412.98
531.27	1429.69
531.63	1446.01
531.99	1462.46
532.35	1478.36
532.71	1494.21
533.07	1510.48
533.42	1526.34
533.78	1542.31
534.14	1558.60
534.50	1573.88
534.86	1589.75
535.21	1604.77
535.57	1620.62
535.93	1636.05
536.29	1650.65
536.65	1665.52
537.00	1680.17
537.36	1695.45
537.72	1709.73
538.08	1724.21
538.44	1738.04
538.79	1752.03
539.15	1765.57
539.51	1779.30
539.87	1793.51
540.22	1807.13
540.58	1820.74
540.94	1833.79
541.29	1846.44
541.65	1858.97
542.01	1872.10
542.37	1884.25
542.72	1896.72
543.08	1908.67
543.44	1920.93
543.79	1932.12
544.15	1943.10
544.51	1954.65
544.87	1965.54
545.22	1976.44
545.58	1986.74
545.94	1996.42
546.29	2006.12
546.65	2016.04
547.01	2025.21
547.36	2034.03
547.72	2042.68
548.07	2050.55
548.43	2058.74
548.79	2066.72
549.14	2074.25
549.50	2081.65
549.86	2089.35
550.21	2096.53
550.57	2103.58
550.92	2110.23
551.28	2117.41
551.64	2124.52
551.99	2131.03
552.35	2137.17
552.70	2143.33
553.06	2149.23
553.41	2155.62
553.77	2161.48
554.13	2167.56
554.48	2173.56
554.84	2179.12
555.19	2184.20
555.55	2189.28
555.90	2193.87
556.26	2198.96
556.61	2203.56
556.97	2208.01
557.32	2212.07
557.68	2216.32
558.03	2220.59
558.39	2224.12
558.74	2228.53
559.10	2232.42
559.45	2236.05
559.81	2240.33
560.16	2244.05
560.52	2247.18
560.87	2250.59
561.23	2253.44
561.58	2256.36
561.94	2258.88
562.29	2260.97
562.64	2263.68
563.00	2266.35
563.35	2269.89
563.71	2272.89
564.06	2276.16
564.42	2278.87
564.77	2281.54
565.12	2283.81
565.48	2285.73
565.83	2287.78
566.19	2289.41
566.54	2290.13
566.89	2291.37
567.25	2291.95
567.60	2293.30
567.96	2295.15
568.31	2295.83
568.66	2296.97
569.02	2297.69
569.37	2298.19
569.72	2299.08
570.08	2299.25
570.43	2299.24
570.78	2298.65
571.14	2297.04
571.49	2295.73
571.84	2295.37
572.20	2294.18
572.55	2293.11
572.90	2291.53
573.26	2290.21
573.61	2288.31
573.96	2286.87
574.31	2283.84
574.67	2280.88
575.02	2277.32
575.37	2273.74
575.72	2270.24
576.08	2266.76
576.43	2263.26
576.78	2259.66
577.13	2256.43
577.49	2253.26
577.84	2249.92
578.19	2246.21
578.54	2242.92
578.90	2238.91
579.25	2233.49
579.60	2228.71
579.95	2223.76
580.30	2218.75
580.66	2213.53
581.01	2208.58
581.36	2203.69
581.71	2199.57
582.06	2195.32
582.42	2190.93
582.77	2185.91
583.12	2181.30
583.47	2176.78
583.82	2172.05
584.17	2166.90
584.53	2161.66
584.88	2156.20
585.23	2150.48
585.58	2144.99
585.93	2139.35
586.28	2134.45
586.63	2129.34
586.98	2124.31
587.34	2119.64
587.69	2114.72
588.04	2109.68
588.39	2104.20
588.74	2097.69
589.09	2091.64
589.44	2084.86
589.79	2078.82
590.14	2073.11
590.49	2066.51
590.84	2060.01
591.19	2053.83
591.54	2047.16
591.89	2039.85
592.25	2033.18
592.60	2026.01
592.95	2018.48
593.30	2011.27
593.65	2003.62
594.00	1996.61
594.35	1989.21
594.70	1981.11
595.05	1974.03
595.40	1966.64
595.75	1959.14
596.10	1953.01
596.45	1946.32
596.80	1940.24
597.15	1933.66
597.50	1926.81
597.85	1920.30
598.19	1913.69
598.54	1906.80
598.89	1900.31
599.24	1894.25
599.59	1887.59
599.94	1881.36
600.29	1874.98
600.64	1868.41
600.99	1861.18
601.34	1854.47
601.69	1847.50
602.04	1840.72
602.39	1833.42
602.74	1826.75
603.08	1820.04
603.43	1813.20
603.78	1805.80
604.13	1798.60
604.48	1791.31
604.83	1784.39
605.18	1777.69
605.53	1769.83
605.87	1761.70
606.22	1754.32
606.57	1746.41
606.92	1739.00
607.27	1731.94
607.62	1725.10
607.96	1717.92
608.31	1711.43
608.66	1703.79
609.01	1696.44
609.36	1688.94
609.70	1681.00
610.05	1672.81
610.40	1665.10
610.75	1656.79
611.10	1649.18
611.44	1640.67
611.79	1632.61
612.14	1623.85
612.49	1614.61
612.83	1606.10
613.18	1597.88
613.53	1589.94
613.88	1581.51
614.22	1573.18
614.57	1564.45
614.92	1556.42
615.27	1548.87
615.61	1540.36
615.96	1532.18
616.31	1524.39
616.65	1517.09
617.00	1509.62
617.35	1501.90
617.70	1493.61
618.04	1485.22
618.39	1477.00
618.74	1469.34
619.08	1461.19
619.43	1453.66
619.78	1446.71
620.12	1439.57
620.47	1432.14
620.82	1423.99
621.16	1416.53
621.51	1409.01
621.85	1401.36
622.20	1392.89
622.55	1384.44
622.89	1376.77
623.24	1369.25
623.59	1361.84
623.93	1354.18
624.28	1346.81
624.62	1339.43
624.97	1332.19
625.32	1325.38
625.66	1318.25
626.01	1311.19
626.35	1303.70
626.70	1295.92
627.04	1288.21
627.39	1280.39
627.73	1273.02
628.08	1266.04
628.43	1258.79
628.77	1251.38
629.12	1243.87
629.46	1236.71
629.81	1229.17
630.15	1221.81
630.50	1214.42
630.84	1206.36
631.19	1198.36
631.53	1190.80
631.88	1183.11
632.22	1175.62
632.57	1168.23
632.91	1160.72
633.26	1153.19
633.60	1145.77
633.95	1138.57
634.29	1131.45
634.64	1124.81
634.98	1117.42
635.32	1110.28
635.67	1103.59
636.01	1096.87
636.36	1090.08
636.70	1083.42
637.05	1077.08
637.39	1070.61
637.73	1064.13
638.08	1058.17
638.42	1052.30
638.77	1045.92
639.11	1039.41
639.45	1032.90
639.80	1026.27
640.14	1020.00
640.49	1013.52
640.83	1007.23
641.17	1001.13
641.52	994.80
641.86	988.31
642.20	982.47
642.55	976.03
642.89	969.61
643.23	963.05
643.58	957.31
643.92	951.20
644.26	945.08
644.61	938.98
644.95	932.92
645.29	926.39
645.64	919.74
645.98	913.43
646.32	907.44
646.66	901.42
647.01	895.66
647.35	889.85
647.69	883.97
648.04	878.44
648.38	872.60
648.72	866.68
649.06	860.70
649.41	854.77
649.75	848.90
650.09	842.95
650.43	837.21
650.78	831.05
651.12	825.10
651.46	819.32
651.80	813.65
652.14	808.24
652.49	802.85
652.83	797.59
653.17	791.89
653.51	786.32
653.85	780.89
654.20	775.24
654.54	769.23
654.88	763.55
655.22	757.57
655.56	751.84
655.90	746.34
656.25	741.09
656.59	735.76
656.93	730.65
657.27	725.43
657.61	719.98
657.95	714.83
658.29	709.68
658.64	704.40
658.98	699.01
659.32	693.61
659.66	688.36
660.00	683.02
660.34	677.99
660.68	673.02
661.02	667.98
661.36	663.31
661.70	658.79
662.05	654.37
662.39	650.09
662.73	645.68
663.07	641.34
663.41	636.86
663.75	632.36
664.09	627.86
664.43	623.48
664.77	619.36
665.11	615.07
665.45	610.93
665.79	606.89
666.13	602.80
666.47	598.59
666.81	594.50
667.15	590.44
667.49	586.53
667.83	582.72
668.17	578.87
668.51	574.79
668.85	570.77
669.19	566.90
669.53	563.04
669.87	559.14
670.21	555.36
670.55	551.69
670.89	548.25
671.23	544.81
671.57	541.28
671.91	537.76
672.25	534.28
672.58	530.79
672.92	527.34
673.26	524.11
673.60	521.03
673.94	517.85
674.28	514.87
674.62	511.93
674.96	508.87
675.30	505.95
675.64	503.04
675.97	500.25
676.31	497.41
676.65	494.52
676.99	491.79
677.33	488.95
677.67	486.11
678.01	483.07
678.34	480.11
678.68	477.28
679.02	474.47
679.36	471.72
679.70	469.00
680.04	466.22
680.37	463.41
680.71	460.57
681.05	457.98
681.39	455.24
681.73	452.54
682.06	449.97
682.40	447.44
682.74	444.90
683.08	442.37
683.42	439.77
683.75	437.30
684.09	434.77
684.43	432.35
684.77	429.91
685.10	427.56
685.44	425.20
685.78	422.86
686.12	420.60
686.45	418.28
686.79	415.94
687.13	413.81
687.46	411.62
687.80	409.47
688.14	407.27
688.48	405.21
688.81	403.05
689.15	400.89
689.49	398.70
689.82	396.62
690.16	394.48
690.50	392.53
690.83	390.53
691.17	388.49
691.51	386.52
691.84	384.69
692.18	382.80
692.52	380.89
692.85	378.97
693.19	377.11
693.52	375.25
693.86	373.49
694.20	371.64
694.53	369.88
694.87	368.03
695.21	366.16
695.54	364.33
695.88	362.54
696.21	360.82
696.55	359.11
696.88	357.39
697.22	355.75
697.56	354.05
697.89	352.42
698.23	350.86
698.56	349.28
698.90	347.71
699.23	346.07
699.57	344.47
699.90	342.94
700.24	341.38
700.58	339.84
700.91	338.32
701.25	336.89
701.58	335.49
701.92	334.14
702.25	332.81
702.59	331.46
702.92	330.15
703.26	328.81
703.59	327.52
703.93	326.31
704.26	325.08
704.60	323.82
704.93	322.56
705.26	321.30
705.60	320.11
705.93	318.89
706.27	317.83
706.60	316.78
706.94	315.65
707.27	314.51
707.61	313.45
707.94	312.39
708.27	311.29
708.61	310.19
708.94	309.15
709.28	308.13
709.61	307.21
709.94	306.24
710.28	305.27
710.61	304.29
710.95	303.22
711.28	302.29
711.61	301.34
711.95	300.41
712.28	299.45
712.61	298.47
712.95	297.53
713.28	296.65
713.61	295.71
713.95	294.82
714.28	293.97
714.61	293.15
714.95	292.32
715.28	291.47
715.61	290.63
715.95	289.75
716.28	288.93
716.61	288.04
716.95	287.23
717.28	286.51
717.61	285.74
717.94	285.01
718.28	284.19
718.61	283.46
718.94	282.74
719.27	282.08
719.61	281.42
719.94	280.78
720.27	280.11
720.60	279.46
720.94	278.84
721.27	278.26
721.60	277.66
721.93	277.08
722.27	276.56
722.60	276.02
722.93	275.51
723.26	274.95
723.59	274.40
723.93	273.85
724.26	273.23
724.59	272.72
724.92	272.20
725.25	271.71
725.59	271.18
725.92	270.69
726.25	270.18
726.58	269.68
726.91	269.19
727.24	268.66
727.57	268.19
727.91	267.69
728.24	267.20
728.57	266.72
728.90	266.27
729.23	265.73
729.56	265.29
729.89	264.77
730.22	264.32
730.55	263.87
730.89	263.40
731.22	262.98
731.55	262.54
731.88	262.10
732.21	261.65
732.54	261.21
732.87	260.80
733.20	260.40
733.53	259.99
733.86	259.64
734.19	259.25
734.52	258.88
734.85	258.54
735.18	258.14
735.51	257.80
735.84	257.40
736.17	257.09
736.50	256.68
736.83	256.49
737.16	256.16
737.49	255.83
737.82	255.49
738.15	255.14
738.48	254.78
738.81	254.45
739.14	254.12
739.47	253.83
739.80	253.53
740.13	253.21
740.46	252.93
740.79	252.56
741.12	252.24
741.45	251.92
741.78	251.59
742.11	251.31
742.44	250.94
742.77	250.67
743.10	250.37
743.43	250.11
743.75	249.72
744.08	249.58
744.41	249.31
744.74	249.04
745.07	248.77
745.40	248.53
745.73	248.28
746.06	248.05
746.39	247.79
746.71	247.55
747.04	247.32
747.37	247.08
747.70	246.86
748.03	246.64
748.36	246.42
748.68	246.18
749.01	245.94
749.34	245.74
749.67	245.52
750.00	245.30
750.33	245.14
750.65	244.93
750.98	244.55
751.31	244.33
751.64	244.15
751.97	244.00
752.29	243.78
752.62	243.53
752.95	243.35
753.28	243.15
753.60	242.89
753.93	242.70
754.26	242.44
754.59	242.21
754.91	242.00
755.24	241.83
755.57	241.67
755.90	241.49
756.22	241.27
756.55	241.08
756.88	240.88
757.20	240.61
757.53	240.39
757.86	240.22
758.19	240.07
758.51	239.91
758.84	239.66
759.17	239.51
759.49	239.37
759.82	239.26
760.15	239.13
760.47	238.98
760.80	238.81
761.13	238.70
761.45	238.54
761.78	238.39
762.11	238.24
762.43	238.07
762.76	237.91
763.08	237.80
763.41	237.68
763.74	237.55
764.06	237.42
764.39	237.30
764.71	237.18
765.04	237.03
765.37	236.90
765.69	236.78
766.02	236.66
766.34	236.52
766.67	236.36
767.00	236.23
767.32	236.20
767.65	236.15
767.97	236.04
768.30	235.93
768.62	235.84
768.95	235.68
769.27	235.55
769.60	235.44
769.92	235.36
770.25	235.20
770.57	235.09
770.90	234.99
771.22	234.85
771.55	234.75
771.87	234.68
772.20	234.56
772.52	234.58
772.85	234.60
773.17	234.51
773.50	234.41
773.82	234.29
774.15	234.11
774.47	233.98
774.80	233.88
775.12	233.80
775.45	233.74
775.77	233.70
776.09	233.64
776.42	233.57
776.74	233.46
777.07	233.37
777.39	233.25
777.72	233.17
778.04	233.11
778.36	233.00
778.69	232.91
779.01	232.86
779.33	232.67
779.66	232.46
779.98	232.38
780.31	232.30
780.63	232.29
780.95	232.24
781.28	232.14
781.60	232.09
781.92	232.02
782.25	231.93
782.57	231.86
782.89	231.79
783.22	231.72
783.54	231.67
783.86	231.63
784.19	231.58
784.51	231.56
784.83	231.50
785.16	231.45
785.48	231.39
785.80	231.30
786.12	231.23
786.45	231.18
786.77	231.12
787.09	231.06
787.42	230.95
787.74	230.91
788.06	230.88
788.38	230.81
788.71	230.76
789.03	230.70
789.35	230.65
789.67	230.61
789.99	230.57
790.32	230.53
790.64	230.54
790.96	230.57
791.28	230.49
791.61	230.46
791.93	230.45
792.25	230.40
792.57	230.44
792.89	230.41
793.21	230.40
793.54	230.37
793.86	230.34
794.18	230.28
794.50	230.21
794.82	230.14
795.14	230.11
795.47	230.08
795.79	230.03
796.11	229.94
796.43	229.92
796.75	229.87
797.07	229.83
797.39	229.76
797.71	229.68
798.04	229.62
798.36	229.57
798.68	229.56
799.00	229.53
799.32	229.45
799.64	229.44
799.96	229.41
800.28	229.39
800.60	229.33
800.92	229.33
801.24	229.31
801.56	229.33
801.89	229.27
802.21	229.25
802.53	229.20
802.85	229.19
803.17	229.20
803.49	229.17
803.81	229.13
804.13	229.08
804.45	229.01
804.77	229.01
805.09	229.01
805.41	228.94
805.73	228.91
806.05	228.86
806.37	228.84
806.69	228.82
807.01	228.77
807.33	228.76
807.65	228.72
807.97	228.76
808.28	228.70
808.60	228.71
808.92	228.68
809.24	228.72
809.56	228.69
809.88	228.64
810.20	228.62
810.52	228.63
810.84	228.63
811.16	228.59
811.48	228.59
811.80	228.55
812.12	228.50
812.43	228.48
812.75	228.45
813.07	228.41
813.39	228.38
813.71	228.39
814.03	228.36
814.35	228.37
814.67	228.28
814.98	228.25
815.30	228.22
815.62	228.18
815.94	228.09
816.26	228.13
816.58	228.07
816.89	228.07
817.21	228.02
817.53	227.97
817.85	228.00
818.17	228.01
818.48	227.98
818.80	228.02
819.12	228.01
819.44	227.99
819.76	227.98
820.07	227.97
820.39	227.94
820.71	227.98
821.03	227.93
821.34	227.93
821.66	227.96
821.98	227.98
822.30	227.99
822.61	228.04
822.93	228.00
823.25	228.02
823.57	227.96
823.88	227.99
824.20	228.00
824.52	228.03
824.83	227.97
825.15	227.97
825.47	227.95
825.79	227.95
826.10	227.95
826.42	227.93
826.74	227.94
827.05	227.91
827.37	227.87
827.69	227.88
828.00	227.85
828.32	227.83
828.64	227.75
828.95	227.79
829.27	227.74
829.58	227.72
829.90	227.70
830.22	227.72
830.53	227.69
830.85	227.67
831.17	227.61
831.48	227.61
831.80	227.58
832.11	227.57
832.43	227.54
832.75	227.50
833.06	227.56
833.38	227.50
833.69	227.49
834.01	227.49
834.32	227.47
834.64	227.47
834.96	227.44
835.27	227.44
835.59	227.38
835.90	227.36
836.22	227.37
836.53	227.34
836.85	227.32
837.16	227.38
837.48	227.39
837.79	227.42
838.11	227.41
838.42	227.41
838.74	227.39
839.05	227.36
839.37	227.36
839.68	227.25
840.00	227.23
840.31	227.24
840.63	227.22
840.94	227.20
841.26	227.19
841.57	227.16
841.88	227.18
842.20	227.19
842.51	227.17
842.83	227.13
843.14	227.18
843.46	227.19
843.77	227.14
844.08	227.09
844.40	227.03
844.71	227.02
845.03	227.01
845.34	227.00
845.65	227.00
845.97	227.00
846.28	227.03
846.60	227.06
846.91	227.04
847.22	227.00
847.54	227.02
847.85	227.00
848.16	227.00
848.48	226.95
848.79	226.95
849.10	226.97
849.42	226.96
849.73	226.90
850.04	226.87
850.36	226.81
850.67	226.83
850.98	226.84
851.30	226.83
851.61	226.84
851.92	226.83
852.23	226.90
852.55	226.89
852.86	226.89
853.17	226.89
853.49	226.90
853.80	226.90
854.11	226.91
854.42	226.91
854.74	226.91
855.05	226.94
855.36	226.90
855.67	226.89
855.99	226.90
856.30	226.98
856.61	226.95
856.92	226.96
857.23	226.96
857.55	226.96
857.86	226.98
858.17	226.97
858.48	226.94
858.79	226.88
859.11	226.91
859.42	226.90
859.73	226.86
860.04	226.86
860.35	226.87
860.66	226.84
860.98	226.82
861.29	226.84
861.60	226.81
861.91	226.82
862.22	226.82
862.53	226.80
862.84	226.73
863.16	226.75
863.47	226.73
863.78	226.71
864.09	226.68
864.40	226.68
864.71	226.71
865.02	226.72
865.33	226.71
865.64	226.67
865.95	226.67
866.27	226.73
866.58	226.72
866.89	226.76
867.20	226.79
867.51	226.82
867.82	226.82
868.13	226.88
868.44	226.87
868.75	226.86
869.06	226.87
869.37	226.86
869.68	226.84
869.99	226.85
870.30	226.86
870.61	226.92
870.92	226.91
871.23	226.90
871.54	226.92
871.85	226.95
872.16	226.96
872.47	226.96
872.78	226.90
873.09	226.90
873.40	226.84
873.71	226.82
874.02	226.81
874.33	226.80
874.64	226.75
874.95	226.78
875.26	226.78
875.56	226.79
875.87	226.82
876.18	226.85
876.49	226.97
876.80	226.93
877.11	226.90
877.42	226.93
877.73	226.95
878.04	226.97
878.35	226.97
878.66	226.97
878.96	226.95
879.27	226.96
879.58	226.97
879.89	226.96
880.20	226.97
880.51	226.98
880.82	226.98
881.12	226.98
881.43	226.93
881.74	226.89
882.05	226.89
882.36	226.87
882.67	226.86
882.97	226.77
883.28	226.77
883.59	226.79
883.90	226.77
884.21	226.75
884.51	226.74
884.82	226.70
885.13	226.71
885.44	226.75
885.74	226.74
886.05	226.72
886.36	226.74
886.67	226.73
886.98	226.75
887.28	226.72
887.59	226.73
887.90	226.75
888.20	226.75
888.51	226.78
888.82	226.76
889.13	226.74
889.43	226.80
889.74	226.85
890.05	226.82
890.35	226.81
890.66	226.78
890.97	226.74
891.28	226.76
891.58	226.77
891.89	226.76
892.20	226.73
892.50	226.74
892.81	226.73
893.12	226.69
893.42	226.67
893.73	226.68
894.04	226.68
894.34	226.67
894.65	226.70
894.95	226.67
895.26	226.69
895.57	226.72
895.87	226.62
896.18	226.59
896.48	226.62
896.79	226.60
897.10	226.59
897.40	226.62
897.71	226.61
898.01	226.60
898.32	226.58
898.63	226.59
898.93	226.59
899.24	226.59
899.54	226.61
899.85	226.61
900.15	226.60
900.46	226.59
900.76	226.62
901.07	226.59
901.38	226.58
901.68	226.55
901.99	226.52
902.29	226.55
902.60	226.53
902.90	226.52
903.21	226.51
903.51	226.51
903.82	226.52
904.12	226.53
904.43	226.49
904.73	226.49
905.03	226.51
905.34	226.60
905.64	226.59
905.95	226.61
906.25	226.58
906.56	226.59
906.86	226.56
907.17	226.53
907.47	226.54
907.77	226.54
908.08	226.54
908.38	226.54
908.69	226.52
908.99	226.55
909.30	226.53
909.60	226.52
909.90	226.54
910.21	226.49
910.51	226.46
910.81	226.46
911.12	226.49
911.42	226.51
911.73	226.40
912.03	226.41
912.33	226.41
912.64	226.42
912.94	226.38
913.24	226.37
913.55	226.37
913.85	226.36
914.15	226.38
914.46	226.40
914.76	226.38
915.06	226.40
915.37	226.35
915.67	226.34
915.97	226.36
916.27	226.32
916.58	226.32
916.88	226.34
917.18	226.34
917.49	226.36
917.79	226.33
918.09	226.33
918.39	226.34
918.70	226.34
919.00	226.36
919.30	226.46
919.60	226.46
919.91	226.48
920.21	226.53
920.51	226.50
920.81	226.49
921.12	226.50
921.42	226.47
921.72	226.51
922.02	226.54
922.32	226.55
922.63	226.55
922.93	226.59
923.23	226.60
923.53	226.60
923.83	226.51
924.13	226.52
924.44	226.53
924.74	226.51
925.04	226.52
925.34	226.49
925.64	226.39
925.94	226.41
926.24	226.46
926.55	226.40
926.85	226.41
927.15	226.39
927.45	226.44
927.75	226.43
928.05	226.44
928.35	226.43
928.65	226.47
928.95	226.51
929.26	226.50
929.56	226.50
929.86	226.50
930.16	226.54
930.46	226.52
930.76	226.53
931.06	226.51
931.36	226.49
931.66	226.49
931.96	226.55
932.26	226.55
932.56	226.50
932.86	226.49
933.16	226.49
933.46	226.45
933.76	226.40
934.06	226.45
934.36	226.44
934.66	226.41
934.96	226.40
935.26	226.36
935.56	226.35
935.86	226.34
936.16	226.30
936.46	226.31
936.76	226.29
937.06	226.28
937.36	226.31
937.66	226.28
937.96	226.30
938.26	226.25
938.56	226.22
938.86	226.23
939.16	226.25
939.46	226.28
939.76	226.28
940.06	226.28
940.35	226.24
940.65	226.23
940.95	226.27
941.25	226.21
941.55	226.20
941.85	226.18
942.15	226.19
942.45	226.27
942.75	226.23
943.04	226.29
943.34	226.31
943.64	226.32
943.94	226.29
944.24	226.29
944.54	226.30
944.84	226.28
945.13	226.27
945.43	226.26
945.73	226.25
946.03	226.25
946.33	226.22
946.62	226.22
946.92	226.19
947.22	226.15
947.52	226.16
947.82	226.17
948.11	226.15
948.41	226.13
948.71	226.06
949.01	226.06
949.31	226.02
949.60	226.01
949.90	225.96
950.20	226.00
950.50	226.01
950.79	226.02
951.09	226.06
951.39	226.07
951.69	226.06
951.98	226.05
952.28	226.09
952.58	226.10
952.87	226.10
953.17	226.11
953.47	226.13
953.76	226.15
954.06	226.16
954.36	226.18
954.66	226.18
954.95	226.25
955.25	226.27
955.55	226.30
955.84	226.30
956.14	226.32
956.44	226.32
956.73	226.33
957.03	226.32
957.32	226.33
957.62	226.29
957.92	226.29
958.21	226.31
958.51	226.41
958.81	226.43
959.10	226.43
959.40	226.46
959.69	226.45
959.99	226.47
960.29	226.44
960.58	226.44
960.88	226.47
961.17	226.43
961.47	226.43
961.76	226.38
962.06	226.37
962.36	226.38
962.65	226.38
962.95	226.40
963.24	226.38
963.54	226.38
963.83	226.43
964.13	226.42
964.42	226.40
964.72	226.31
965.01	226.36
965.31	226.36
965.60	226.34
965.90	226.42
966.19	226.39
966.49	226.44
966.78	226.44
967.08	226.44
967.37	226.47
967.67	226.44
967.96	226.48
968.26	226.45
968.55	226.47
968.85	226.47
969.14	226.42
969.43	226.43
969.73	226.40
970.02	226.36
970.32	226.39
970.61	226.42
970.91	226.40
971.20	226.37
971.49	226.36
971.79	226.39
972.08	226.31
972.38	226.32
972.67	226.29
972.96	226.31
973.26	226.30
973.55	226.28
973.85	226.33
974.14	226.33
974.43	226.36
974.73	226.31
975.02	226.30
975.31	226.34
975.61	226.32
975.90	226.31
976.19	226.33
976.49	226.32
976.78	226.26
977.07	226.26
977.37	226.25
977.66	226.27
977.95	226.27
978.24	226.26
978.54	226.28
978.83	226.29
979.12	226.28
979.42	226.27
979.71	226.26
980.00	226.22
980.29	226.22
980.59	226.21
980.88	226.25
981.17	226.23
981.46	226.25
981.76	226.25
982.05	226.27
982.34	226.28
982.63	226.29
982.93	226.32
983.22	226.34
983.51	226.32
983.80	226.34
984.09	226.35
984.39	226.35
984.68	226.32
984.97	226.31
985.26	226.28
985.55	226.25
985.85	226.26
986.14	226.28
986.43	226.30
986.72	226.30
987.01	226.28
987.30	226.29
987.59	226.24
987.89	226.22
988.18	226.23
988.47	226.22
988.76	226.17
989.05	226.17
989.34	226.15
989.63	226.20
989.92	226.18
990.22	226.15
990.51	226.13
990.80	226.12
991.09	226.14
991.38	226.16
991.67	226.18
991.96	226.15
992.25	226.17
992.54	226.13
992.83	226.12
993.12	226.13
993.41	226.17
993.70	226.22
993.99	226.26
994.28	226.27
994.58	226.28
994.87	226.31
995.16	226.28
995.45	226.27
995.74	226.23
996.03	226.24
996.32	226.24
996.61	226.30
996.90	226.31
997.19	226.30
997.48	226.28
997.77	226.28
998.06	226.30
998.34	226.24
998.63	226.25
998.92	226.25
999.21	226.26
999.50	226.24
999.79	226.20
1000.08	226.20
1000.37	226.19
1000.66	226.16
1000.95	226.20
1001.24	226.25
1001.53	226.27
1001.82	226.28
1002.11	226.25
1002.40	226.26
1002.68	226.25
1002.97	226.31
1003.26	226.29
1003.55	226.30
1003.84	226.31
1004.13	226.33
1004.42	226.34
1004.71	226.35
1004.99	226.33
1005.28	226.37
1005.57	226.39
1005.86	226.42
1006.15	226.44
1006.44	226.42
1006.72	226.44
1007.01	226.43
1007.30	226.40
1007.59	226.39
1007.88	226.38
1008.17	226.38
1008.45	226.36
1008.74	226.34
1009.03	226.29
1009.32	226.29
1009.60	226.28
1009.89	226.26
1010.18	226.21
1010.47	226.21
1010.76	226.22
1011.04	226.24
1011.33	226.21
1011.62	226.18
1011.91	226.17
1012.19	226.16
1012.48	226.17
1012.77	226.16
1013.05	226.21
1013.34	226.20
1013.63	226.19
1013.92	226.21
1014.20	226.22
1014.49	226.25
1014.78	226.26
1015.06	226.23
1015.35	226.26
1015.64	226.26
1015.92	226.24
1016.21	226.23
1016.50	226.24
1016.78	226.23
1017.07	226.23
1017.36	226.22
1017.64	226.22
1017.93	226.22
1018.22	226.17
1018.50	226.14
1018.79	226.15
1019.08	226.06
1019.36	226.08
1019.65	226.09
1019.93	226.10
1020.22	226.11
1020.51	226.16
1020.79	226.14
1021.08	225.41
1021.36	225.54
1021.65	226.16
1021.94	226.03
1022.22	226.25
1022.51	226.31
1022.79	226.52
1023.08	226.43
1023.36	227.84
1023.65	225.67
>>>>>End Processed Spectral Data<<<<<
