SpectraSuite Data File
++++++++++++++++++++++++++++++++++++
Date: Fri Feb 01 16:33:37 EST 2013
User: group
Dark Spectrum Present: No
Reference Spectrum Present: No
Number of Sampled Component Spectra: 1
Spectrometers: USB2E7196
Integration Time (usec): 35000 (USB2E7196)
Spectra Averaged: 100 (USB2E7196)
Boxcar Smoothing: 10 (USB2E7196)
Correct for Electrical Dark: No (USB2E7196)
Strobe/Lamp Enabled: No (USB2E7196)
Correct for Detector Non-linearity: No (USB2E7196)
Correct for Stray Light: No (USB2E7196)
Number of Pixels in Processed Spectrum: 2048
>>>>>Begin Processed Spectral Data<<<<<
339.09	0.00
339.48	213.96
339.86	214.70
340.24	216.94
340.63	218.49
341.01	221.46
341.39	221.03
341.78	222.30
342.16	223.45
342.54	224.61
342.93	212.45
343.31	223.14
343.69	223.68
344.07	224.16
344.46	224.60
344.84	224.95
345.22	225.18
345.60	225.43
345.99	225.62
346.37	225.74
346.75	225.82
347.13	225.87
347.52	225.92
347.90	226.00
348.28	225.99
348.66	226.02
349.05	226.00
349.43	226.06
349.81	226.08
350.19	226.11
350.57	226.18
350.96	226.29
351.34	226.41
351.72	226.49
352.10	226.61
352.48	226.69
352.87	226.74
353.25	226.76
353.63	226.84
354.01	226.93
354.39	227.00
354.77	227.07
355.15	227.17
355.54	227.24
355.92	227.31
356.30	227.37
356.68	227.50
357.06	227.61
357.44	227.65
357.82	227.73
358.20	227.80
358.58	227.84
358.97	227.86
359.35	227.94
359.73	228.02
360.11	228.09
360.49	228.13
360.87	228.20
361.25	228.31
361.63	228.37
362.01	228.40
362.39	228.45
362.77	228.50
363.15	228.55
363.53	228.58
363.91	228.58
364.29	228.60
364.67	228.53
365.05	228.53
365.43	228.56
365.81	228.59
366.19	228.68
366.57	228.73
366.95	228.75
367.33	228.72
367.71	228.72
368.09	228.69
368.47	228.68
368.85	228.68
369.23	228.65
369.61	228.59
369.99	228.61
370.37	228.59
370.75	228.58
371.13	228.51
371.51	228.44
371.89	228.42
372.27	228.42
372.65	228.37
373.03	228.32
373.41	228.24
373.78	228.15
374.16	228.01
374.54	227.90
374.92	227.86
375.30	227.82
375.68	227.76
376.06	227.69
376.44	227.66
376.82	227.55
377.19	227.47
377.57	227.40
377.95	227.28
378.33	227.19
378.71	227.07
379.09	227.03
379.47	227.01
379.84	226.93
380.22	226.83
380.60	226.77
380.98	226.69
381.36	226.66
381.73	226.60
382.11	226.55
382.49	226.51
382.87	226.41
383.25	226.34
383.62	226.38
384.00	226.32
384.38	226.23
384.76	226.22
385.13	226.20
385.51	226.19
385.89	226.12
386.27	226.08
386.64	226.06
387.02	225.99
387.40	225.93
387.78	225.92
388.15	225.89
388.53	225.84
388.91	225.80
389.29	225.73
389.66	225.75
390.04	225.74
390.42	225.71
390.79	225.71
391.17	225.67
391.55	225.54
391.92	225.52
392.30	225.52
392.68	225.50
393.05	225.48
393.43	225.48
393.81	225.51
394.18	225.52
394.56	225.53
394.94	225.58
395.31	225.56
395.69	225.58
396.06	225.62
396.44	225.67
396.82	225.73
397.19	225.83
397.57	225.81
397.95	225.85
398.32	225.86
398.70	225.92
399.07	226.03
399.45	226.07
399.82	226.12
400.20	226.17
400.58	226.21
400.95	226.27
401.33	226.35
401.70	226.47
402.08	226.58
402.45	226.65
402.83	226.76
403.20	226.89
403.58	226.99
403.95	227.12
404.33	227.24
404.71	227.36
405.08	227.54
405.46	227.69
405.83	227.82
406.21	227.97
406.58	228.14
406.96	228.28
407.33	228.49
407.70	228.72
408.08	229.02
408.45	229.26
408.83	229.49
409.20	229.74
409.58	229.90
409.95	230.14
410.33	230.39
410.70	230.66
411.08	230.97
411.45	231.30
411.82	231.60
412.20	231.96
412.57	232.34
412.95	232.62
413.32	233.07
413.69	233.50
414.07	233.94
414.44	234.39
414.82	234.92
415.19	235.46
415.56	235.97
415.94	236.51
416.31	237.16
416.68	237.77
417.06	238.43
417.43	239.14
417.81	239.87
418.18	240.71
418.55	241.50
418.93	242.36
419.30	243.21
419.67	244.14
420.04	245.09
420.42	246.11
420.79	247.29
421.16	248.41
421.54	249.60
421.91	250.82
422.28	252.07
422.66	253.35
423.03	254.62
423.40	255.98
423.77	257.33
424.15	258.73
424.52	260.24
424.89	261.86
425.26	263.38
425.64	264.86
426.01	266.40
426.38	268.04
426.75	269.71
427.13	271.42
427.50	273.24
427.87	275.06
428.24	276.91
428.61	278.64
428.99	280.62
429.36	282.69
429.73	284.71
430.10	286.73
430.47	288.76
430.85	290.86
431.22	293.08
431.59	295.47
431.96	297.68
432.33	300.13
432.70	302.50
433.08	305.30
433.45	307.88
433.82	310.46
434.19	313.32
434.56	316.11
434.93	318.77
435.30	321.38
435.68	324.31
436.05	327.11
436.42	329.83
436.79	332.27
437.16	334.94
437.53	337.76
437.90	340.50
438.27	343.25
438.64	346.08
439.01	348.60
439.38	350.80
439.75	352.97
440.13	355.42
440.50	357.71
440.87	359.57
441.24	361.53
441.61	363.71
441.98	365.15
442.35	366.92
442.72	368.75
443.09	370.53
443.46	371.47
443.83	372.04
444.20	372.60
444.57	373.45
444.94	373.76
445.31	374.10
445.68	374.48
446.05	374.55
446.42	374.17
446.79	373.79
447.16	373.37
447.53	373.09
447.90	371.96
448.27	370.77
448.64	369.21
449.01	368.06
449.37	366.11
449.74	364.27
450.11	362.07
450.48	359.64
450.85	357.11
451.22	355.02
451.59	353.05
451.96	351.13
452.33	348.50
452.70	346.14
453.07	343.33
453.43	340.44
453.80	337.70
454.17	334.99
454.54	332.49
454.91	329.76
455.28	327.09
455.65	324.63
456.02	322.25
456.38	320.06
456.75	317.42
457.12	315.16
457.49	312.98
457.86	310.83
458.23	308.99
458.59	307.02
458.96	304.94
459.33	303.05
459.70	301.20
460.07	299.73
460.43	298.03
460.80	296.42
461.17	295.03
461.54	293.53
461.91	292.16
462.27	290.71
462.64	289.47
463.01	288.13
463.38	286.83
463.74	285.45
464.11	284.35
464.48	283.35
464.85	282.27
465.21	281.41
465.58	280.49
465.95	279.38
466.32	278.45
466.68	277.54
467.05	276.66
467.42	275.77
467.78	274.84
468.15	273.98
468.52	273.33
468.88	272.43
469.25	271.68
469.62	271.07
469.98	270.42
470.35	269.80
470.72	269.16
471.08	268.49
471.45	267.97
471.82	267.41
472.18	266.78
472.55	266.35
472.92	265.80
473.28	265.32
473.65	264.89
474.02	264.44
474.38	264.09
474.75	263.75
475.11	263.40
475.48	263.18
475.85	262.95
476.21	262.73
476.58	262.57
476.94	262.42
477.31	262.28
477.67	262.12
478.04	262.04
478.41	262.01
478.77	262.07
479.14	262.02
479.50	262.03
479.87	262.09
480.23	262.17
480.60	262.25
480.96	262.36
481.33	262.55
481.69	262.74
482.06	262.90
482.42	263.11
482.79	263.37
483.15	263.69
483.52	264.03
483.88	264.36
484.25	264.77
484.61	265.14
484.98	265.58
485.34	266.12
485.71	266.68
486.07	267.30
486.44	267.87
486.80	268.54
487.17	269.24
487.53	270.05
487.90	270.89
488.26	271.83
488.62	272.80
488.99	273.78
489.35	274.80
489.72	275.96
490.08	277.20
490.44	278.46
490.81	279.79
491.17	281.17
491.54	282.66
491.90	284.20
492.26	285.91
492.63	287.66
492.99	289.45
493.36	291.38
493.72	293.42
494.08	295.55
494.45	297.82
494.81	300.26
495.17	302.71
495.54	305.30
495.90	307.96
496.26	310.80
496.63	313.75
496.99	316.95
497.35	320.20
497.72	323.62
498.08	327.16
498.44	330.81
498.80	334.76
499.17	338.80
499.53	342.96
499.89	347.36
500.26	351.85
500.62	356.56
500.98	361.56
501.34	366.67
501.71	372.05
502.07	377.56
502.43	383.16
502.79	388.99
503.16	395.14
503.52	401.46
503.88	407.87
504.24	414.57
504.60	421.51
504.97	428.66
505.33	435.96
505.69	443.71
506.05	451.58
506.41	459.52
506.78	467.73
507.14	476.21
507.50	484.90
507.86	493.93
508.22	503.16
508.59	512.40
508.95	522.04
509.31	531.82
509.67	541.91
510.03	552.24
510.39	562.80
510.75	573.58
511.12	584.51
511.48	595.79
511.84	607.23
512.20	618.63
512.56	630.55
512.92	642.70
513.28	654.99
513.64	667.36
514.00	680.08
514.37	693.04
514.73	706.07
515.09	719.14
515.45	732.37
515.81	745.91
516.17	759.83
516.53	773.86
516.89	788.04
517.25	802.17
517.61	816.54
517.97	831.02
518.33	845.33
518.69	860.00
519.05	874.90
519.41	889.99
519.77	905.50
520.13	920.85
520.49	936.25
520.85	951.53
521.21	967.27
521.57	983.40
521.93	998.98
522.29	1015.20
522.65	1031.37
523.01	1047.47
523.37	1063.45
523.73	1079.56
524.09	1095.61
524.45	1111.81
524.81	1128.44
525.17	1145.17
525.53	1161.93
525.89	1178.76
526.25	1195.51
526.61	1211.87
526.97	1228.57
527.33	1244.93
527.68	1261.52
528.04	1277.90
528.40	1294.49
528.76	1311.37
529.12	1327.89
529.48	1344.74
529.84	1360.70
530.20	1377.25
530.56	1394.25
530.91	1411.50
531.27	1428.22
531.63	1444.57
531.99	1461.07
532.35	1476.93
532.71	1492.60
533.07	1508.71
533.42	1524.49
533.78	1540.51
534.14	1556.69
534.50	1571.85
534.86	1587.60
535.21	1602.81
535.57	1618.47
535.93	1633.80
536.29	1648.49
536.65	1663.32
537.00	1677.85
537.36	1693.14
537.72	1707.43
538.08	1721.71
538.44	1735.31
538.79	1748.86
539.15	1762.18
539.51	1775.60
539.87	1789.71
540.22	1803.32
540.58	1816.80
540.94	1829.84
541.29	1842.32
541.65	1854.79
542.01	1867.85
542.37	1880.01
542.72	1892.16
543.08	1903.91
543.44	1916.17
543.79	1927.36
544.15	1938.25
544.51	1949.71
544.87	1960.61
545.22	1971.46
545.58	1981.54
545.94	1991.33
546.29	2001.15
546.65	2011.16
547.01	2020.49
547.36	2029.22
547.72	2037.67
548.07	2045.70
548.43	2053.93
548.79	2062.01
549.14	2069.74
549.50	2076.87
549.86	2084.58
550.21	2091.87
550.57	2099.10
550.92	2105.67
551.28	2112.67
551.64	2119.99
551.99	2126.54
552.35	2132.53
552.70	2138.61
553.06	2144.76
553.41	2151.07
553.77	2157.16
554.13	2163.13
554.48	2169.25
554.84	2174.75
555.19	2180.10
555.55	2185.33
555.90	2189.94
556.26	2195.05
556.61	2199.57
556.97	2204.19
557.32	2208.33
557.68	2212.43
558.03	2216.63
558.39	2220.43
558.74	2224.99
559.10	2228.68
559.45	2232.37
559.81	2236.65
560.16	2240.56
560.52	2243.73
560.87	2247.15
561.23	2249.69
561.58	2252.58
561.94	2255.19
562.29	2257.41
562.64	2260.18
563.00	2262.70
563.35	2266.17
563.71	2269.25
564.06	2272.45
564.42	2275.22
564.77	2277.69
565.12	2279.98
565.48	2282.09
565.83	2283.86
566.19	2285.35
566.54	2286.19
566.89	2287.39
567.25	2288.14
567.60	2289.38
567.96	2291.11
568.31	2291.88
568.66	2293.13
569.02	2293.91
569.37	2294.26
569.72	2295.25
570.08	2295.49
570.43	2295.60
570.78	2294.92
571.14	2293.37
571.49	2292.16
571.84	2291.99
572.20	2291.12
572.55	2290.06
572.90	2288.16
573.26	2286.99
573.61	2285.17
573.96	2283.56
574.31	2280.66
574.67	2277.62
575.02	2274.11
575.37	2270.64
575.72	2267.10
576.08	2263.69
576.43	2260.32
576.78	2256.80
577.13	2253.62
577.49	2250.47
577.84	2246.99
578.19	2243.39
578.54	2239.89
578.90	2235.72
579.25	2230.10
579.60	2225.21
579.95	2220.39
580.30	2215.52
580.66	2210.39
581.01	2205.58
581.36	2200.76
581.71	2196.65
582.06	2192.37
582.42	2188.04
582.77	2182.89
583.12	2178.25
583.47	2173.78
583.82	2169.05
584.17	2163.80
584.53	2158.42
584.88	2152.82
585.23	2147.19
585.58	2141.77
585.93	2136.32
586.28	2131.59
586.63	2126.53
586.98	2121.37
587.34	2116.68
587.69	2111.95
588.04	2106.70
588.39	2101.07
588.74	2094.49
589.09	2088.51
589.44	2081.84
589.79	2075.78
590.14	2070.27
590.49	2063.81
590.84	2057.44
591.19	2051.34
591.54	2044.99
591.89	2037.82
592.25	2031.14
592.60	2023.96
592.95	2016.57
593.30	2009.39
593.65	2001.75
594.00	1994.96
594.35	1987.77
594.70	1979.77
595.05	1972.75
595.40	1965.63
595.75	1958.31
596.10	1952.30
596.45	1945.59
596.80	1939.51
597.15	1932.96
597.50	1926.06
597.85	1919.68
598.19	1913.12
598.54	1906.15
598.89	1899.56
599.24	1893.57
599.59	1887.02
599.94	1880.79
600.29	1874.37
600.64	1867.65
600.99	1860.47
601.34	1853.71
601.69	1846.85
602.04	1840.14
602.39	1832.75
602.74	1825.95
603.08	1819.19
603.43	1812.41
603.78	1805.03
604.13	1797.86
604.48	1790.63
604.83	1783.73
605.18	1776.84
605.53	1768.78
605.87	1760.79
606.22	1753.41
606.57	1745.45
606.92	1737.92
607.27	1730.88
607.62	1724.07
607.96	1717.01
608.31	1710.37
608.66	1702.65
609.01	1695.08
609.36	1687.42
609.70	1679.34
610.05	1671.19
610.40	1663.55
610.75	1655.29
611.10	1647.70
611.44	1639.10
611.79	1631.11
612.14	1622.47
612.49	1613.24
612.83	1604.97
613.18	1596.66
613.53	1588.55
613.88	1580.06
614.22	1571.91
614.57	1563.17
614.92	1555.14
615.27	1547.63
615.61	1539.31
615.96	1531.35
616.31	1523.74
616.65	1516.42
617.00	1508.95
617.35	1501.36
617.70	1493.05
618.04	1484.61
618.39	1476.26
618.74	1468.81
619.08	1460.40
619.43	1452.79
619.78	1445.90
620.12	1438.66
620.47	1431.22
620.82	1423.06
621.16	1415.61
621.51	1407.95
621.85	1400.40
622.20	1391.95
622.55	1383.53
622.89	1375.67
623.24	1367.90
623.59	1360.44
623.93	1352.87
624.28	1345.66
624.62	1338.15
624.97	1330.81
625.32	1323.91
625.66	1316.97
626.01	1309.76
626.35	1302.40
626.70	1294.68
627.04	1287.02
627.39	1279.21
627.73	1271.92
628.08	1265.06
628.43	1257.89
628.77	1250.59
629.12	1243.02
629.46	1235.87
629.81	1228.34
630.15	1221.15
630.50	1213.83
630.84	1205.75
631.19	1197.79
631.53	1190.30
631.88	1182.65
632.22	1175.21
632.57	1168.00
632.91	1160.45
633.26	1153.04
633.60	1145.64
633.95	1138.42
634.29	1131.32
634.64	1124.67
634.98	1117.23
635.32	1110.07
635.67	1103.31
636.01	1096.66
636.36	1089.91
636.70	1083.20
637.05	1076.73
637.39	1070.18
637.73	1063.70
638.08	1057.74
638.42	1051.77
638.77	1045.33
639.11	1038.81
639.45	1032.36
639.80	1025.63
640.14	1019.37
640.49	1012.89
640.83	1006.67
641.17	1000.55
641.52	994.17
641.86	987.70
642.20	981.80
642.55	975.49
642.89	969.15
643.23	962.56
643.58	956.84
643.92	950.75
644.26	944.73
644.61	938.69
644.95	932.79
645.29	926.27
645.64	919.56
645.98	913.16
646.32	907.32
646.66	901.29
647.01	895.51
647.35	889.66
647.69	883.75
648.04	878.16
648.38	872.36
648.72	866.42
649.06	860.44
649.41	854.64
649.75	848.71
650.09	842.76
650.43	836.95
650.78	830.72
651.12	824.79
651.46	819.03
651.80	813.44
652.14	807.92
652.49	802.56
652.83	797.39
653.17	791.77
653.51	786.12
653.85	780.75
654.20	775.17
654.54	769.18
654.88	763.40
655.22	757.43
655.56	751.67
655.90	746.22
656.25	740.95
656.59	735.58
656.93	730.55
657.27	725.30
657.61	719.86
657.95	714.75
658.29	709.63
658.64	704.29
658.98	698.87
659.32	693.43
659.66	688.20
660.00	682.91
660.34	677.88
660.68	672.88
661.02	667.80
661.36	663.03
661.70	658.55
662.05	654.20
662.39	649.96
662.73	645.46
663.07	641.08
663.41	636.65
663.75	632.14
664.09	627.47
664.43	623.13
664.77	619.04
665.11	614.79
665.45	610.60
665.79	606.54
666.13	602.44
666.47	598.30
666.81	594.13
667.15	589.97
667.49	586.09
667.83	582.20
668.17	578.27
668.51	574.22
668.85	570.18
669.19	566.30
669.53	562.45
669.87	558.68
670.21	554.97
670.55	551.31
670.89	547.91
671.23	544.52
671.57	540.98
671.91	537.50
672.25	533.94
672.58	530.43
672.92	527.03
673.26	523.82
673.60	520.67
673.94	517.58
674.28	514.69
674.62	511.79
674.96	508.74
675.30	505.80
675.64	502.92
675.97	500.10
676.31	497.25
676.65	494.33
676.99	491.62
677.33	488.76
677.67	485.96
678.01	482.90
678.34	479.92
678.68	477.02
679.02	474.18
679.36	471.46
679.70	468.74
680.04	466.00
680.37	463.13
680.71	460.31
681.05	457.65
681.39	454.90
681.73	452.18
682.06	449.71
682.40	447.16
682.74	444.57
683.08	442.07
683.42	439.50
683.75	437.00
684.09	434.39
684.43	431.91
684.77	429.33
685.10	426.97
685.44	424.67
685.78	422.43
686.12	420.12
686.45	417.84
686.79	415.57
687.13	413.33
687.46	411.19
687.80	409.02
688.14	406.79
688.48	404.75
688.81	402.50
689.15	400.25
689.49	398.11
689.82	396.06
690.16	393.95
690.50	391.93
690.83	389.94
691.17	387.97
691.51	386.04
691.84	384.28
692.18	382.35
692.52	380.34
692.85	378.40
693.19	376.52
693.52	374.64
693.86	372.83
694.20	371.07
694.53	369.26
694.87	367.42
695.21	365.65
695.54	363.79
695.88	362.07
696.21	360.36
696.55	358.66
696.88	356.96
697.22	355.25
697.56	353.63
697.89	352.07
698.23	350.49
698.56	348.88
698.90	347.25
699.23	345.60
699.57	344.04
699.90	342.48
700.24	340.94
700.58	339.46
700.91	337.94
701.25	336.45
701.58	335.09
701.92	333.75
702.25	332.37
702.59	331.04
702.92	329.73
703.26	328.45
703.59	327.20
703.93	326.03
704.26	324.82
704.60	323.53
704.93	322.22
705.26	320.96
705.60	319.77
705.93	318.64
706.27	317.59
706.60	316.54
706.94	315.46
707.27	314.31
707.61	313.23
707.94	312.19
708.27	311.14
708.61	310.06
708.94	309.00
709.28	308.02
709.61	307.03
709.94	306.09
710.28	305.04
710.61	304.00
710.95	302.89
711.28	301.98
711.61	301.03
711.95	300.10
712.28	299.16
712.61	298.16
712.95	297.22
713.28	296.37
713.61	295.45
713.95	294.59
714.28	293.80
714.61	292.89
714.95	292.06
715.28	291.19
715.61	290.33
715.95	289.48
716.28	288.63
716.61	287.81
716.95	286.99
717.28	286.28
717.61	285.54
717.94	284.85
718.28	284.03
718.61	283.28
718.94	282.58
719.27	281.87
719.61	281.27
719.94	280.61
720.27	279.86
720.60	279.21
720.94	278.60
721.27	278.00
721.60	277.48
721.93	276.87
722.27	276.30
722.60	275.75
722.93	275.20
723.26	274.68
723.59	274.12
723.93	273.55
724.26	272.97
724.59	272.44
724.92	271.92
725.25	271.43
725.59	270.94
725.92	270.43
726.25	269.93
726.58	269.43
726.91	268.91
727.24	268.45
727.57	267.98
727.91	267.41
728.24	266.90
728.57	266.34
728.90	265.85
729.23	265.37
729.56	264.97
729.89	264.48
730.22	263.99
730.55	263.53
730.89	263.11
731.22	262.64
731.55	262.18
731.88	261.71
732.21	261.27
732.54	260.79
732.87	260.36
733.20	259.95
733.53	259.55
733.86	259.18
734.19	258.80
734.52	258.45
734.85	258.16
735.18	257.76
735.51	257.45
735.84	257.07
736.17	256.71
736.50	256.25
736.83	256.04
737.16	255.69
737.49	255.37
737.82	254.98
738.15	254.66
738.48	254.33
738.81	254.03
739.14	253.70
739.47	253.40
739.80	253.08
740.13	252.80
740.46	252.44
740.79	252.10
741.12	251.80
741.45	251.44
741.78	251.12
742.11	250.87
742.44	250.54
742.77	250.26
743.10	249.99
743.43	249.71
743.75	249.32
744.08	249.18
744.41	248.90
744.74	248.68
745.07	248.43
745.40	248.18
745.73	247.93
746.06	247.63
746.39	247.39
746.71	247.13
747.04	246.86
747.37	246.61
747.70	246.39
748.03	246.12
748.36	245.94
748.68	245.69
749.01	245.42
749.34	245.22
749.67	245.01
750.00	244.80
750.33	244.67
750.65	244.46
750.98	244.12
751.31	243.91
751.64	243.68
751.97	243.49
752.29	243.28
752.62	243.01
752.95	242.81
753.28	242.60
753.60	242.40
753.93	242.21
754.26	242.03
754.59	241.79
754.91	241.61
755.24	241.39
755.57	241.18
755.90	240.98
756.22	240.75
756.55	240.55
756.88	240.33
757.20	240.06
757.53	239.88
757.86	239.70
758.19	239.52
758.51	239.36
758.84	239.14
759.17	238.99
759.49	238.86
759.82	238.76
760.15	238.62
760.47	238.46
760.80	238.30
761.13	238.16
761.45	237.99
761.78	237.81
762.11	237.66
762.43	237.51
762.76	237.41
763.08	237.32
763.41	237.16
763.74	237.04
764.06	236.90
764.39	236.78
764.71	236.62
765.04	236.52
765.37	236.37
765.69	236.25
766.02	236.09
766.34	235.98
766.67	235.83
767.00	235.72
767.32	235.64
767.65	235.61
767.97	235.51
768.30	235.44
768.62	235.37
768.95	235.25
769.27	235.16
769.60	235.02
769.92	234.88
770.25	234.79
770.57	234.67
770.90	234.56
771.22	234.44
771.55	234.36
771.87	234.27
772.20	234.19
772.52	234.19
772.85	234.26
773.17	234.18
773.50	234.07
773.82	234.00
774.15	233.88
774.47	233.72
774.80	233.62
775.12	233.53
775.45	233.45
775.77	233.38
776.09	233.30
776.42	233.28
776.74	233.23
777.07	233.11
777.39	233.04
777.72	232.95
778.04	232.88
778.36	232.84
778.69	232.76
779.01	232.68
779.33	232.51
779.66	232.32
779.98	232.24
780.31	232.17
780.63	232.13
780.95	232.08
781.28	232.01
781.60	231.91
781.92	231.83
782.25	231.73
782.57	231.68
782.89	231.63
783.22	231.48
783.54	231.40
783.86	231.37
784.19	231.30
784.51	231.29
784.83	231.23
785.16	231.14
785.48	231.08
785.80	231.01
786.12	230.97
786.45	230.91
786.77	230.86
787.09	230.80
787.42	230.72
787.74	230.66
788.06	230.63
788.38	230.59
788.71	230.57
789.03	230.51
789.35	230.47
789.67	230.42
789.99	230.41
790.32	230.35
790.64	230.35
790.96	230.43
791.28	230.35
791.61	230.29
791.93	230.25
792.25	230.19
792.57	230.21
792.89	230.17
793.21	230.13
793.54	230.08
793.86	230.04
794.18	230.00
794.50	229.93
794.82	229.83
795.14	229.82
795.47	229.80
795.79	229.79
796.11	229.71
796.43	229.68
796.75	229.62
797.07	229.61
797.39	229.54
797.71	229.44
798.04	229.42
798.36	229.36
798.68	229.34
799.00	229.35
799.32	229.25
799.64	229.23
799.96	229.21
800.28	229.18
800.60	229.15
800.92	229.13
801.24	229.08
801.56	229.11
801.89	229.07
802.21	229.03
802.53	228.99
802.85	228.99
803.17	228.99
803.49	228.95
803.81	228.91
804.13	228.88
804.45	228.81
804.77	228.80
805.09	228.80
805.41	228.75
805.73	228.69
806.05	228.67
806.37	228.65
806.69	228.61
807.01	228.59
807.33	228.53
807.65	228.46
807.97	228.49
808.28	228.47
808.60	228.45
808.92	228.40
809.24	228.41
809.56	228.38
809.88	228.32
810.20	228.32
810.52	228.34
810.84	228.31
811.16	228.26
811.48	228.21
811.80	228.23
812.12	228.18
812.43	228.20
812.75	228.16
813.07	228.09
813.39	228.08
813.71	228.06
814.03	228.06
814.35	228.06
814.67	228.03
814.98	227.97
815.30	227.93
815.62	227.87
815.94	227.82
816.26	227.84
816.58	227.80
816.89	227.78
817.21	227.73
817.53	227.71
817.85	227.71
818.17	227.70
818.48	227.62
818.80	227.65
819.12	227.59
819.44	227.57
819.76	227.55
820.07	227.51
820.39	227.47
820.71	227.48
821.03	227.48
821.34	227.44
821.66	227.45
821.98	227.46
822.30	227.51
822.61	227.56
822.93	227.47
823.25	227.42
823.57	227.40
823.88	227.40
824.20	227.38
824.52	227.37
824.83	227.37
825.15	227.36
825.47	227.33
825.79	227.32
826.10	227.30
826.42	227.27
826.74	227.28
827.05	227.25
827.37	227.22
827.69	227.17
828.00	227.18
828.32	227.17
828.64	227.11
828.95	227.14
829.27	227.06
829.58	227.05
829.90	227.08
830.22	227.08
830.53	227.02
830.85	227.01
831.17	227.00
831.48	226.94
831.80	226.94
832.11	226.97
832.43	226.92
832.75	226.93
833.06	227.00
833.38	226.96
833.69	226.96
834.01	226.98
834.32	226.99
834.64	226.94
834.96	226.90
835.27	226.91
835.59	226.86
835.90	226.86
836.22	226.87
836.53	226.88
836.85	226.86
837.16	226.98
837.48	226.99
837.79	227.01
838.11	227.03
838.42	227.00
838.74	227.00
839.05	226.98
839.37	226.96
839.68	226.89
840.00	226.87
840.31	226.87
840.63	226.85
840.94	226.82
841.26	226.83
841.57	226.86
841.88	226.88
842.20	226.85
842.51	226.79
842.83	226.77
843.14	226.83
843.46	226.84
843.77	226.76
844.08	226.71
844.40	226.64
844.71	226.65
845.03	226.67
845.34	226.61
845.65	226.61
845.97	226.59
846.28	226.62
846.60	226.66
846.91	226.64
847.22	226.62
847.54	226.64
847.85	226.63
848.16	226.60
848.48	226.59
848.79	226.65
849.10	226.69
849.42	226.71
849.73	226.61
850.04	226.59
850.36	226.58
850.67	226.63
850.98	226.67
851.30	226.67
851.61	226.63
851.92	226.64
852.23	226.71
852.55	226.73
852.86	226.72
853.17	226.71
853.49	226.73
853.80	226.74
854.11	226.78
854.42	226.79
854.74	226.79
855.05	226.76
855.36	226.69
855.67	226.67
855.99	226.68
856.30	226.80
856.61	226.83
856.92	226.81
857.23	226.78
857.55	226.76
857.86	226.74
858.17	226.77
858.48	226.75
858.79	226.68
859.11	226.70
859.42	226.68
859.73	226.66
860.04	226.68
860.35	226.65
860.66	226.60
860.98	226.61
861.29	226.65
861.60	226.67
861.91	226.69
862.22	226.67
862.53	226.63
862.84	226.52
863.16	226.51
863.47	226.49
863.78	226.50
864.09	226.48
864.40	226.51
864.71	226.53
865.02	226.55
865.33	226.55
865.64	226.52
865.95	226.48
866.27	226.53
866.58	226.50
866.89	226.52
867.20	226.49
867.51	226.45
867.82	226.42
868.13	226.45
868.44	226.43
868.75	226.47
869.06	226.47
869.37	226.46
869.68	226.46
869.99	226.47
870.30	226.48
870.61	226.49
870.92	226.45
871.23	226.43
871.54	226.45
871.85	226.45
872.16	226.46
872.47	226.47
872.78	226.44
873.09	226.45
873.40	226.42
873.71	226.45
874.02	226.44
874.33	226.40
874.64	226.37
874.95	226.40
875.26	226.38
875.56	226.36
875.87	226.36
876.18	226.35
876.49	226.45
876.80	226.42
877.11	226.44
877.42	226.48
877.73	226.45
878.04	226.42
878.35	226.41
878.66	226.45
878.96	226.47
879.27	226.45
879.58	226.42
879.89	226.43
880.20	226.44
880.51	226.45
880.82	226.49
881.12	226.46
881.43	226.42
881.74	226.38
882.05	226.38
882.36	226.34
882.67	226.34
882.97	226.20
883.28	226.21
883.59	226.17
883.90	226.16
884.21	226.18
884.51	226.20
884.82	226.19
885.13	226.15
885.44	226.14
885.74	226.15
886.05	226.13
886.36	226.10
886.67	226.06
886.98	226.13
887.28	226.10
887.59	226.12
887.90	226.13
888.20	226.12
888.51	226.11
888.82	226.11
889.13	226.10
889.43	226.18
889.74	226.19
890.05	226.19
890.35	226.15
890.66	226.14
890.97	226.12
891.28	226.12
891.58	226.11
891.89	226.09
892.20	226.03
892.50	226.05
892.81	226.05
893.12	226.05
893.42	225.95
893.73	225.98
894.04	225.97
894.34	225.97
894.65	225.99
894.95	225.99
895.26	226.03
895.57	226.08
895.87	226.01
896.18	226.01
896.48	226.03
896.79	226.03
897.10	226.05
897.40	226.05
897.71	226.07
898.01	226.02
898.32	226.02
898.63	226.03
898.93	226.03
899.24	226.04
899.54	226.06
899.85	226.08
900.15	226.09
900.46	226.09
900.76	226.10
901.07	226.12
901.38	226.13
901.68	226.13
901.99	226.06
902.29	226.08
902.60	226.06
902.90	226.03
903.21	226.03
903.51	226.03
903.82	226.05
904.12	226.05
904.43	226.10
904.73	226.11
905.03	226.13
905.34	226.21
905.64	226.21
905.95	226.22
906.25	226.23
906.56	226.20
906.86	226.22
907.17	226.21
907.47	226.19
907.77	226.24
908.08	226.21
908.38	226.21
908.69	226.18
908.99	226.20
909.30	226.21
909.60	226.25
909.90	226.28
910.21	226.25
910.51	226.25
910.81	226.25
911.12	226.28
911.42	226.29
911.73	226.18
912.03	226.20
912.33	226.23
912.64	226.20
912.94	226.19
913.24	226.20
913.55	226.20
913.85	226.19
914.15	226.15
914.46	226.17
914.76	226.19
915.06	226.20
915.37	226.19
915.67	226.19
915.97	226.16
916.27	226.10
916.58	226.08
916.88	226.08
917.18	226.07
917.49	226.12
917.79	226.14
918.09	226.18
918.39	226.18
918.70	226.14
919.00	226.15
919.30	226.25
919.60	226.21
919.91	226.20
920.21	226.22
920.51	226.23
920.81	226.19
921.12	226.19
921.42	226.19
921.72	226.19
922.02	226.18
922.32	226.20
922.63	226.23
922.93	226.29
923.23	226.26
923.53	226.26
923.83	226.19
924.13	226.18
924.44	226.15
924.74	226.15
925.04	226.17
925.34	226.15
925.64	226.05
925.94	226.06
926.24	226.11
926.55	226.07
926.85	226.08
927.15	226.10
927.45	226.11
927.75	226.11
928.05	226.12
928.35	226.12
928.65	226.10
928.95	226.12
929.26	226.09
929.56	226.12
929.86	226.10
930.16	226.06
930.46	226.06
930.76	226.09
931.06	226.06
931.36	226.02
931.66	226.06
931.96	226.08
932.26	226.08
932.56	226.05
932.86	226.07
933.16	226.04
933.46	226.05
933.76	226.02
934.06	226.01
934.36	226.04
934.66	226.00
934.96	226.01
935.26	225.99
935.56	226.00
935.86	225.94
936.16	225.95
936.46	225.98
936.76	225.96
937.06	225.94
937.36	225.95
937.66	225.94
937.96	225.95
938.26	225.92
938.56	225.90
938.86	225.88
939.16	225.90
939.46	225.95
939.76	225.97
940.06	225.96
940.35	225.92
940.65	225.88
940.95	225.92
941.25	225.90
941.55	225.88
941.85	225.86
942.15	225.91
942.45	225.95
942.75	225.93
943.04	225.96
943.34	225.98
943.64	225.95
943.94	225.97
944.24	225.96
944.54	225.96
944.84	225.96
945.13	226.00
945.43	225.99
945.73	225.93
946.03	225.93
946.33	225.89
946.62	225.93
946.92	225.94
947.22	225.89
947.52	225.90
947.82	225.90
948.11	225.88
948.41	225.89
948.71	225.85
949.01	225.84
949.31	225.83
949.60	225.82
949.90	225.86
950.20	225.89
950.50	225.87
950.79	225.89
951.09	225.92
951.39	225.91
951.69	225.87
951.98	225.93
952.28	225.90
952.58	225.91
952.87	225.90
953.17	225.92
953.47	225.94
953.76	225.93
954.06	225.94
954.36	225.95
954.66	225.91
954.95	225.95
955.25	225.98
955.55	225.99
955.84	225.95
956.14	225.97
956.44	225.92
956.73	225.91
957.03	225.92
957.32	225.88
957.62	225.85
957.92	225.91
958.21	225.85
958.51	225.97
958.81	226.00
959.10	226.03
959.40	226.06
959.69	226.09
959.99	226.09
960.29	226.10
960.58	226.05
960.88	226.11
961.17	226.11
961.47	226.11
961.76	226.09
962.06	226.15
962.36	226.11
962.65	226.14
962.95	226.16
963.24	226.16
963.54	226.19
963.83	226.21
964.13	226.17
964.42	226.17
964.72	226.12
965.01	226.12
965.31	226.10
965.60	226.04
965.90	226.08
966.19	226.09
966.49	226.10
966.78	226.13
967.08	226.12
967.37	226.09
967.67	226.05
967.96	226.08
968.26	226.05
968.55	226.06
968.85	226.08
969.14	226.06
969.43	226.08
969.73	226.07
970.02	226.07
970.32	226.08
970.61	226.13
970.91	226.07
971.20	226.06
971.49	226.06
971.79	226.11
972.08	226.03
972.38	226.04
972.67	226.01
972.96	226.04
973.26	226.02
973.55	226.08
973.85	226.12
974.14	226.08
974.43	226.10
974.73	226.09
975.02	226.08
975.31	226.09
975.61	226.05
975.90	226.04
976.19	226.04
976.49	226.06
976.78	226.03
977.07	226.06
977.37	226.07
977.66	226.11
977.95	226.09
978.24	226.14
978.54	226.16
978.83	226.15
979.12	226.13
979.42	226.15
979.71	226.11
980.00	226.07
980.29	226.08
980.59	226.07
980.88	226.09
981.17	226.10
981.46	226.08
981.76	226.11
982.05	226.14
982.34	226.15
982.63	226.12
982.93	226.13
983.22	226.13
983.51	226.12
983.80	226.12
984.09	226.12
984.39	226.09
984.68	226.05
984.97	226.09
985.26	226.08
985.55	226.04
985.85	226.01
986.14	226.01
986.43	226.02
986.72	226.01
987.01	225.98
987.30	225.96
987.59	225.96
987.89	225.98
988.18	225.93
988.47	225.90
988.76	225.91
989.05	225.85
989.34	225.83
989.63	225.86
989.92	225.80
990.22	225.76
990.51	225.74
990.80	225.73
991.09	225.73
991.38	225.72
991.67	225.72
991.96	225.69
992.25	225.68
992.54	225.66
992.83	225.62
993.12	225.61
993.41	225.61
993.70	225.64
993.99	225.60
994.28	225.63
994.58	225.65
994.87	225.62
995.16	225.68
995.45	225.66
995.74	225.63
996.03	225.67
996.32	225.72
996.61	225.73
996.90	225.74
997.19	225.71
997.48	225.73
997.77	225.74
998.06	225.77
998.34	225.80
998.63	225.76
998.92	225.78
999.21	225.80
999.50	225.82
999.79	225.81
1000.08	225.83
1000.37	225.82
1000.66	225.78
1000.95	225.85
1001.24	225.85
1001.53	225.90
1001.82	225.88
1002.11	225.86
1002.40	225.87
1002.68	225.91
1002.97	226.00
1003.26	226.00
1003.55	225.99
1003.84	226.03
1004.13	226.11
1004.42	226.11
1004.71	226.14
1004.99	226.15
1005.28	226.16
1005.57	226.15
1005.86	226.12
1006.15	226.13
1006.44	226.11
1006.72	226.16
1007.01	226.11
1007.30	226.11
1007.59	226.10
1007.88	226.09
1008.17	226.10
1008.45	226.08
1008.74	226.01
1009.03	225.97
1009.32	225.99
1009.60	226.01
1009.89	225.99
1010.18	225.94
1010.47	225.92
1010.76	225.95
1011.04	225.95
1011.33	225.97
1011.62	225.98
1011.91	225.96
1012.19	225.94
1012.48	225.96
1012.77	225.94
1013.05	226.01
1013.34	226.02
1013.63	226.00
1013.92	226.00
1014.20	225.99
1014.49	225.98
1014.78	226.03
1015.06	225.98
1015.35	226.01
1015.64	225.95
1015.92	225.96
1016.21	225.94
1016.50	225.97
1016.78	225.96
1017.07	225.99
1017.36	225.93
1017.64	225.92
1017.93	225.96
1018.22	225.95
1018.50	225.94
1018.79	225.94
1019.08	225.87
1019.36	225.86
1019.65	225.85
1019.93	225.89
1020.22	225.89
1020.51	225.91
1020.79	225.86
1021.08	225.78
1021.36	225.66
1021.65	226.01
1021.94	225.72
1022.22	225.90
1022.51	225.51
1022.79	226.30
1023.08	225.53
1023.36	226.65
1023.65	225.28
>>>>>End Processed Spectral Data<<<<<
