SpectraSuite Data File
++++++++++++++++++++++++++++++++++++
Date: Fri Feb 01 15:06:47 EST 2013
User: group
Dark Spectrum Present: No
Reference Spectrum Present: No
Number of Sampled Component Spectra: 1
Spectrometers: USB2E7196
Integration Time (usec): 35000 (USB2E7196)
Spectra Averaged: 100 (USB2E7196)
Boxcar Smoothing: 10 (USB2E7196)
Correct for Electrical Dark: No (USB2E7196)
Strobe/Lamp Enabled: No (USB2E7196)
Correct for Detector Non-linearity: No (USB2E7196)
Correct for Stray Light: No (USB2E7196)
Number of Pixels in Processed Spectrum: 2048
>>>>>Begin Processed Spectral Data<<<<<
339.09	0.00
339.48	215.06
339.86	216.58
340.24	218.02
340.63	219.07
341.01	222.75
341.39	222.18
341.78	222.92
342.16	224.72
342.54	225.40
342.93	213.50
343.31	224.28
343.69	224.82
344.07	225.28
344.46	225.71
344.84	226.11
345.22	226.33
345.60	226.57
345.99	226.78
346.37	226.93
346.75	227.03
347.13	227.07
347.52	227.14
347.90	227.17
348.28	227.18
348.66	227.25
349.05	227.21
349.43	227.24
349.81	227.30
350.19	227.34
350.57	227.38
350.96	227.43
351.34	227.53
351.72	227.62
352.10	227.71
352.48	227.79
352.87	227.82
353.25	227.82
353.63	227.88
354.01	227.94
354.39	227.98
354.77	228.04
355.15	228.15
355.54	228.22
355.92	228.27
356.30	228.36
356.68	228.44
357.06	228.54
357.44	228.62
357.82	228.65
358.20	228.71
358.58	228.75
358.97	228.82
359.35	228.88
359.73	228.96
360.11	229.02
360.49	229.06
360.87	229.10
361.25	229.20
361.63	229.27
362.01	229.36
362.39	229.38
362.77	229.42
363.15	229.45
363.53	229.44
363.91	229.48
364.29	229.48
364.67	229.43
365.05	229.44
365.43	229.46
365.81	229.51
366.19	229.59
366.57	229.60
366.95	229.60
367.33	229.56
367.71	229.49
368.09	229.46
368.47	229.44
368.85	229.42
369.23	229.40
369.61	229.37
369.99	229.34
370.37	229.31
370.75	229.32
371.13	229.24
371.51	229.19
371.89	229.14
372.27	229.11
372.65	229.03
373.03	228.97
373.41	228.89
373.78	228.83
374.16	228.71
374.54	228.65
374.92	228.55
375.30	228.47
375.68	228.41
376.06	228.39
376.44	228.30
376.82	228.25
377.19	228.17
377.57	228.04
377.95	227.91
378.33	227.85
378.71	227.70
379.09	227.67
379.47	227.61
379.84	227.53
380.22	227.44
380.60	227.38
380.98	227.29
381.36	227.24
381.73	227.14
382.11	227.09
382.49	227.04
382.87	226.99
383.25	226.95
383.62	227.00
384.00	226.89
384.38	226.80
384.76	226.77
385.13	226.77
385.51	226.74
385.89	226.71
386.27	226.64
386.64	226.63
387.02	226.56
387.40	226.49
387.78	226.48
388.15	226.44
388.53	226.41
388.91	226.40
389.29	226.37
389.66	226.36
390.04	226.29
390.42	226.29
390.79	226.28
391.17	226.29
391.55	226.18
391.92	226.17
392.30	226.22
392.68	226.15
393.05	226.16
393.43	226.19
393.81	226.20
394.18	226.19
394.56	226.22
394.94	226.29
395.31	226.33
395.69	226.38
396.06	226.44
396.44	226.47
396.82	226.51
397.19	226.61
397.57	226.66
397.95	226.72
398.32	226.74
398.70	226.82
399.07	226.88
399.45	226.95
399.82	227.04
400.20	227.14
400.58	227.25
400.95	227.33
401.33	227.44
401.70	227.61
402.08	227.76
402.45	227.87
402.83	228.00
403.20	228.12
403.58	228.21
403.95	228.38
404.33	228.54
404.71	228.69
405.08	228.85
405.46	228.99
405.83	229.19
406.21	229.35
406.58	229.53
406.96	229.73
407.33	229.93
407.70	230.15
408.08	230.41
408.45	230.64
408.83	230.87
409.20	231.07
409.58	231.29
409.95	231.55
410.33	231.83
410.70	232.05
411.08	232.38
411.45	232.70
411.82	232.97
412.20	233.32
412.57	233.72
412.95	234.04
413.32	234.45
413.69	234.88
414.07	235.35
414.44	235.81
414.82	236.24
415.19	236.80
415.56	237.35
415.94	237.90
416.31	238.56
416.68	239.20
417.06	239.93
417.43	240.56
417.81	241.34
418.18	242.14
418.55	243.00
418.93	243.86
419.30	244.76
419.67	245.69
420.04	246.64
420.42	247.63
420.79	248.79
421.16	249.94
421.54	251.10
421.91	252.32
422.28	253.56
422.66	254.92
423.03	256.22
423.40	257.54
423.77	258.93
424.15	260.36
424.52	261.81
424.89	263.43
425.26	264.97
425.64	266.38
426.01	267.94
426.38	269.60
426.75	271.26
427.13	272.98
427.50	274.80
427.87	276.67
428.24	278.57
428.61	280.33
428.99	282.22
429.36	284.30
429.73	286.36
430.10	288.36
430.47	290.40
430.85	292.50
431.22	294.73
431.59	297.08
431.96	299.36
432.33	301.82
432.70	304.16
433.08	306.99
433.45	309.63
433.82	312.23
434.19	315.10
434.56	317.93
434.93	320.61
435.30	323.22
435.68	326.10
436.05	328.93
436.42	331.74
436.79	334.30
437.16	336.99
437.53	339.83
437.90	342.61
438.27	345.40
438.64	348.26
439.01	350.85
439.38	353.14
439.75	355.26
440.13	357.77
440.50	360.11
440.87	361.96
441.24	363.93
441.61	366.05
441.98	367.56
442.35	369.35
442.72	371.19
443.09	372.99
443.46	374.00
443.83	374.56
444.20	375.08
444.57	375.95
444.94	376.26
445.31	376.60
445.68	377.02
446.05	377.07
446.42	376.68
446.79	376.26
447.16	375.77
447.53	375.45
447.90	374.32
448.27	373.18
448.64	371.60
449.01	370.45
449.37	368.53
449.74	366.67
450.11	364.43
450.48	361.93
450.85	359.39
451.22	357.24
451.59	355.25
451.96	353.28
452.33	350.67
452.70	348.28
453.07	345.43
453.43	342.50
453.80	339.78
454.17	337.06
454.54	334.52
454.91	331.80
455.28	329.13
455.65	326.64
456.02	324.15
456.38	322.02
456.75	319.34
457.12	317.10
457.49	314.82
457.86	312.63
458.23	310.77
458.59	308.75
458.96	306.67
459.33	304.78
459.70	302.90
460.07	301.38
460.43	299.68
460.80	298.08
461.17	296.64
461.54	295.10
461.91	293.70
462.27	292.26
462.64	291.01
463.01	289.66
463.38	288.37
463.74	287.00
464.11	285.80
464.48	284.77
464.85	283.64
465.21	282.79
465.58	281.88
465.95	280.79
466.32	279.87
466.68	278.94
467.05	278.06
467.42	277.16
467.78	276.20
468.15	275.29
468.52	274.62
468.88	273.75
469.25	272.98
469.62	272.34
469.98	271.66
470.35	271.00
470.72	270.39
471.08	269.68
471.45	269.17
471.82	268.63
472.18	268.04
472.55	267.61
472.92	267.06
473.28	266.58
473.65	266.10
474.02	265.68
474.38	265.28
474.75	264.92
475.11	264.57
475.48	264.32
475.85	264.09
476.21	263.86
476.58	263.67
476.94	263.52
477.31	263.31
477.67	263.14
478.04	263.03
478.41	262.95
478.77	262.98
479.14	262.90
479.50	262.88
479.87	262.92
480.23	262.98
480.60	263.04
480.96	263.10
481.33	263.34
481.69	263.48
482.06	263.72
482.42	263.90
482.79	264.17
483.15	264.50
483.52	264.88
483.88	265.21
484.25	265.62
484.61	266.04
484.98	266.52
485.34	267.10
485.71	267.64
486.07	268.28
486.44	268.86
486.80	269.55
487.17	270.25
487.53	271.07
487.90	271.95
488.26	272.88
488.62	273.85
488.99	274.81
489.35	275.88
489.72	277.00
490.08	278.20
490.44	279.45
490.81	280.76
491.17	282.07
491.54	283.54
491.90	285.06
492.26	286.68
492.63	288.41
492.99	290.17
493.36	292.12
493.72	294.12
494.08	296.25
494.45	298.48
494.81	300.84
495.17	303.28
495.54	305.82
495.90	308.53
496.26	311.38
496.63	314.34
496.99	317.44
497.35	320.69
497.72	324.12
498.08	327.62
498.44	331.26
498.80	335.19
499.17	339.21
499.53	343.38
499.89	347.77
500.26	352.24
500.62	356.91
500.98	361.84
501.34	366.89
501.71	372.19
502.07	377.64
502.43	383.24
502.79	389.05
503.16	395.09
503.52	401.30
503.88	407.71
504.24	414.29
504.60	421.14
504.97	428.23
505.33	435.49
505.69	443.18
506.05	450.93
506.41	458.83
506.78	466.98
507.14	475.35
507.50	483.98
507.86	493.02
508.22	502.20
508.59	511.38
508.95	520.95
509.31	530.68
509.67	540.73
510.03	551.03
510.39	561.56
510.75	572.39
511.12	583.29
511.48	594.53
511.84	605.97
512.20	617.47
512.56	629.38
512.92	641.61
513.28	653.94
513.64	666.47
514.00	679.18
514.37	692.09
514.73	705.29
515.09	718.47
515.45	731.80
515.81	745.40
516.17	759.50
516.53	773.64
516.89	787.84
517.25	802.08
517.61	816.53
517.97	831.07
518.33	845.59
518.69	860.47
519.05	875.51
519.41	890.74
519.77	906.34
520.13	921.86
520.49	937.21
520.85	952.63
521.21	968.35
521.57	984.60
521.93	1000.52
522.29	1016.89
522.65	1033.17
523.01	1049.42
523.37	1065.46
523.73	1081.60
524.09	1097.79
524.45	1114.25
524.81	1131.03
525.17	1148.03
525.53	1164.95
525.89	1181.71
526.25	1198.55
526.61	1214.95
526.97	1231.64
527.33	1248.23
527.68	1264.91
528.04	1281.44
528.40	1298.26
528.76	1315.34
529.12	1332.11
529.48	1349.02
529.84	1365.15
530.20	1381.81
530.56	1398.91
530.91	1416.40
531.27	1433.26
531.63	1449.71
531.99	1466.35
532.35	1482.25
532.71	1498.20
533.07	1514.59
533.42	1530.65
533.78	1546.66
534.14	1563.08
534.50	1578.59
534.86	1594.53
535.21	1609.72
535.57	1625.74
535.93	1641.36
536.29	1656.27
536.65	1671.36
537.00	1686.19
537.36	1701.54
537.72	1716.03
538.08	1730.50
538.44	1744.39
538.79	1758.47
539.15	1772.41
539.51	1786.21
539.87	1800.73
540.22	1814.42
540.58	1828.21
540.94	1841.70
541.29	1854.80
541.65	1867.64
542.01	1881.01
542.37	1893.31
542.72	1905.94
543.08	1917.94
543.44	1930.32
543.79	1941.67
544.15	1952.75
544.51	1964.38
544.87	1975.52
545.22	1986.26
545.58	1996.53
545.94	2006.34
546.29	2016.23
546.65	2025.93
547.01	2035.26
547.36	2044.06
547.72	2052.59
548.07	2060.54
548.43	2068.83
548.79	2077.01
549.14	2084.43
549.50	2091.92
549.86	2099.77
550.21	2107.15
550.57	2114.25
550.92	2120.71
551.28	2127.67
551.64	2134.66
551.99	2141.07
552.35	2147.15
552.70	2153.47
553.06	2159.32
553.41	2165.69
553.77	2171.53
554.13	2177.83
554.48	2183.84
554.84	2189.17
555.19	2194.49
555.55	2199.55
555.90	2203.81
556.26	2208.57
556.61	2213.37
556.97	2217.34
557.32	2221.51
557.68	2225.60
558.03	2229.91
558.39	2233.75
558.74	2238.42
559.10	2242.20
559.45	2245.89
559.81	2250.26
560.16	2254.07
560.52	2257.34
560.87	2260.71
561.23	2263.33
561.58	2266.21
561.94	2268.68
562.29	2270.96
562.64	2273.62
563.00	2276.16
563.35	2279.77
563.71	2282.87
564.06	2285.95
564.42	2288.83
564.77	2291.01
565.12	2293.00
565.48	2294.80
565.83	2296.57
566.19	2297.73
566.54	2298.63
566.89	2299.69
567.25	2300.05
567.60	2301.41
567.96	2302.99
568.31	2303.73
568.66	2304.90
569.02	2305.22
569.37	2305.42
569.72	2306.14
570.08	2306.07
570.43	2305.90
570.78	2305.01
571.14	2303.29
571.49	2301.97
571.84	2301.54
572.20	2300.17
572.55	2299.13
572.90	2297.44
573.26	2295.83
573.61	2294.05
573.96	2292.10
574.31	2288.96
574.67	2285.86
575.02	2282.02
575.37	2278.53
575.72	2274.59
576.08	2271.07
576.43	2267.69
576.78	2263.89
577.13	2260.80
577.49	2257.61
577.84	2253.91
578.19	2250.12
578.54	2246.27
578.90	2241.88
579.25	2236.30
579.60	2231.38
579.95	2226.23
580.30	2221.09
580.66	2215.93
581.01	2210.94
581.36	2206.04
581.71	2201.69
582.06	2197.04
582.42	2192.44
582.77	2187.11
583.12	2182.39
583.47	2177.48
583.82	2172.34
584.17	2167.08
584.53	2161.44
584.88	2155.69
585.23	2149.92
585.58	2144.35
585.93	2138.96
586.28	2134.04
586.63	2128.75
586.98	2123.62
587.34	2118.84
587.69	2113.87
588.04	2108.47
588.39	2102.52
588.74	2095.92
589.09	2089.82
589.44	2082.98
589.79	2076.95
590.14	2071.16
590.49	2064.55
590.84	2058.12
591.19	2052.00
591.54	2045.38
591.89	2037.79
592.25	2030.80
592.60	2023.63
592.95	2015.89
593.30	2008.37
593.65	2000.63
594.00	1993.50
594.35	1986.16
594.70	1977.98
595.05	1970.49
595.40	1963.05
595.75	1955.69
596.10	1949.30
596.45	1942.37
596.80	1936.06
597.15	1929.25
597.50	1922.18
597.85	1915.61
598.19	1908.87
598.54	1901.75
598.89	1895.08
599.24	1889.11
599.59	1882.38
599.94	1876.06
600.29	1869.75
600.64	1863.27
600.99	1855.79
601.34	1848.79
601.69	1841.83
602.04	1834.83
602.39	1827.58
602.74	1820.69
603.08	1813.89
603.43	1807.22
603.78	1800.06
604.13	1792.80
604.48	1785.47
604.83	1778.67
605.18	1771.72
605.53	1763.57
605.87	1755.51
606.22	1748.35
606.57	1740.45
606.92	1733.10
607.27	1725.89
607.62	1718.98
607.96	1711.49
608.31	1704.85
608.66	1697.25
609.01	1689.63
609.36	1682.22
609.70	1674.18
610.05	1666.10
610.40	1658.33
610.75	1649.97
611.10	1642.12
611.44	1633.90
611.79	1625.98
612.14	1617.12
612.49	1608.08
612.83	1599.84
613.18	1591.76
613.53	1583.58
613.88	1575.07
614.22	1566.92
614.57	1558.37
614.92	1550.31
615.27	1542.75
615.61	1534.48
615.96	1526.59
616.31	1519.03
616.65	1511.71
617.00	1504.12
617.35	1496.55
617.70	1488.08
618.04	1479.57
618.39	1471.28
618.74	1463.61
619.08	1455.25
619.43	1447.80
619.78	1440.77
620.12	1433.57
620.47	1425.98
620.82	1417.87
621.16	1410.58
621.51	1402.95
621.85	1395.35
622.20	1386.84
622.55	1378.63
622.89	1370.79
623.24	1363.18
623.59	1355.96
623.93	1348.37
624.28	1341.27
624.62	1333.70
624.97	1326.66
625.32	1319.90
625.66	1313.06
626.01	1305.81
626.35	1298.39
626.70	1290.64
627.04	1282.95
627.39	1275.30
627.73	1267.97
628.08	1261.06
628.43	1253.62
628.77	1246.23
629.12	1238.58
629.46	1231.34
629.81	1224.01
630.15	1216.81
630.50	1209.40
630.84	1201.04
631.19	1193.14
631.53	1185.71
631.88	1178.21
632.22	1170.62
632.57	1163.42
632.91	1155.91
633.26	1148.59
633.60	1141.28
633.95	1134.26
634.29	1127.29
634.64	1120.59
634.98	1113.28
635.32	1106.22
635.67	1099.75
636.01	1093.14
636.36	1086.42
636.70	1080.04
637.05	1073.45
637.39	1066.97
637.73	1060.53
638.08	1054.78
638.42	1048.90
638.77	1042.39
639.11	1035.81
639.45	1029.52
639.80	1022.82
640.14	1016.39
640.49	1009.89
640.83	1003.57
641.17	997.27
641.52	991.00
641.86	984.61
642.20	978.76
642.55	972.53
642.89	966.05
643.23	959.66
643.58	953.99
643.92	947.77
644.26	941.67
644.61	935.77
644.95	929.68
645.29	923.01
645.64	916.22
645.98	909.97
646.32	904.21
646.66	898.19
647.01	892.44
647.35	886.75
647.69	880.99
648.04	875.52
648.38	869.76
648.72	863.67
649.06	857.69
649.41	851.86
649.75	845.83
650.09	839.84
650.43	834.01
650.78	827.74
651.12	821.86
651.46	816.18
651.80	810.33
652.14	805.04
652.49	799.67
652.83	794.54
653.17	788.79
653.51	783.04
653.85	777.66
654.20	772.05
654.54	766.02
654.88	760.26
655.22	754.42
655.56	748.75
655.90	743.36
656.25	737.99
656.59	732.61
656.93	727.51
657.27	722.36
657.61	716.93
657.95	711.92
658.29	706.78
658.64	701.57
658.98	696.39
659.32	690.87
659.66	685.74
660.00	680.44
660.34	675.54
660.68	670.66
661.02	665.63
661.36	660.86
661.70	656.45
662.05	652.14
662.39	647.83
662.73	643.43
663.07	639.08
663.41	634.70
663.75	630.16
664.09	625.62
664.43	621.26
664.77	617.16
665.11	612.94
665.45	608.87
665.79	604.79
666.13	600.62
666.47	596.59
666.81	592.40
667.15	588.27
667.49	584.41
667.83	580.62
668.17	576.70
668.51	572.71
668.85	568.72
669.19	564.88
669.53	561.01
669.87	557.14
670.21	553.48
670.55	549.86
670.89	546.51
671.23	543.11
671.57	539.66
671.91	536.16
672.25	532.64
672.58	529.11
672.92	525.77
673.26	522.65
673.60	519.56
673.94	516.50
674.28	513.69
674.62	510.76
674.96	507.68
675.30	504.82
675.64	501.97
675.97	499.24
676.31	496.45
676.65	493.56
676.99	490.87
677.33	487.98
677.67	485.16
678.01	482.11
678.34	479.14
678.68	476.27
679.02	473.50
679.36	470.81
679.70	468.18
680.04	465.42
680.37	462.50
680.71	459.72
681.05	457.11
681.39	454.32
681.73	451.68
682.06	449.17
682.40	446.59
682.74	444.05
683.08	441.47
683.42	438.86
683.75	436.36
684.09	433.92
684.43	431.50
684.77	429.08
685.10	426.80
685.44	424.52
685.78	422.29
686.12	420.05
686.45	417.78
686.79	415.44
687.13	413.22
687.46	411.14
687.80	408.98
688.14	406.83
688.48	404.80
688.81	402.58
689.15	400.44
689.49	398.31
689.82	396.26
690.16	394.22
690.50	392.28
690.83	390.37
691.17	388.37
691.51	386.45
691.84	384.61
692.18	382.64
692.52	380.69
692.85	378.80
693.19	376.88
693.52	375.07
693.86	373.30
694.20	371.58
694.53	369.76
694.87	367.92
695.21	366.12
695.54	364.31
695.88	362.59
696.21	360.85
696.55	359.21
696.88	357.52
697.22	355.88
697.56	354.24
697.89	352.57
698.23	350.93
698.56	349.35
698.90	347.75
699.23	346.11
699.57	344.54
699.90	342.97
700.24	341.43
700.58	339.86
700.91	338.34
701.25	336.88
701.58	335.54
701.92	334.19
702.25	332.83
702.59	331.46
702.92	330.11
703.26	328.81
703.59	327.51
703.93	326.29
704.26	325.05
704.60	323.74
704.93	322.51
705.26	321.26
705.60	320.09
705.93	318.92
706.27	317.91
706.60	316.84
706.94	315.77
707.27	314.68
707.61	313.67
707.94	312.64
708.27	311.53
708.61	310.47
708.94	309.46
709.28	308.48
709.61	307.51
709.94	306.57
710.28	305.57
710.61	304.62
710.95	303.56
711.28	302.65
711.61	301.74
711.95	300.83
712.28	299.92
712.61	298.90
712.95	298.01
713.28	297.14
713.61	296.23
713.95	295.36
714.28	294.54
714.61	293.65
714.95	292.86
715.28	291.99
715.61	291.12
715.95	290.29
716.28	289.42
716.61	288.63
716.95	287.85
717.28	287.12
717.61	286.34
717.94	285.63
718.28	284.83
718.61	284.12
718.94	283.44
719.27	282.78
719.61	282.15
719.94	281.52
720.27	280.80
720.60	280.19
720.94	279.56
721.27	278.95
721.60	278.36
721.93	277.75
722.27	277.23
722.60	276.67
722.93	276.14
723.26	275.61
723.59	275.09
723.93	274.55
724.26	274.00
724.59	273.44
724.92	272.93
725.25	272.44
725.59	271.90
725.92	271.40
726.25	270.89
726.58	270.39
726.91	269.85
727.24	269.41
727.57	268.89
727.91	268.38
728.24	267.91
728.57	267.42
728.90	266.96
729.23	266.46
729.56	266.01
729.89	265.50
730.22	265.03
730.55	264.51
730.89	264.05
731.22	263.58
731.55	263.18
731.88	262.75
732.21	262.33
732.54	261.92
732.87	261.48
733.20	261.09
733.53	260.70
733.86	260.37
734.19	259.97
734.52	259.62
734.85	259.29
735.18	258.87
735.51	258.53
735.84	258.13
736.17	257.80
736.50	257.38
736.83	257.16
737.16	256.79
737.49	256.49
737.82	256.13
738.15	255.83
738.48	255.46
738.81	255.11
739.14	254.76
739.47	254.42
739.80	254.09
740.13	253.75
740.46	253.42
740.79	253.05
741.12	252.72
741.45	252.43
741.78	252.10
742.11	251.82
742.44	251.52
742.77	251.29
743.10	251.00
743.43	250.75
743.75	250.37
744.08	250.23
744.41	249.94
744.74	249.68
745.07	249.40
745.40	249.16
745.73	248.94
746.06	248.63
746.39	248.38
746.71	248.11
747.04	247.83
747.37	247.58
747.70	247.37
748.03	247.10
748.36	246.89
748.68	246.63
749.01	246.38
749.34	246.13
749.67	245.86
750.00	245.62
750.33	245.46
750.65	245.24
750.98	244.88
751.31	244.69
751.64	244.46
751.97	244.29
752.29	244.08
752.62	243.85
752.95	243.67
753.28	243.46
753.60	243.29
753.93	243.16
754.26	242.97
754.59	242.72
754.91	242.53
755.24	242.31
755.57	242.13
755.90	241.96
756.22	241.76
756.55	241.59
756.88	241.42
757.20	241.20
757.53	241.02
757.86	240.88
758.19	240.73
758.51	240.58
758.84	240.36
759.17	240.22
759.49	240.06
759.82	239.94
760.15	239.80
760.47	239.65
760.80	239.44
761.13	239.34
761.45	239.20
761.78	239.06
762.11	238.91
762.43	238.79
762.76	238.66
763.08	238.56
763.41	238.42
763.74	238.24
764.06	238.11
764.39	237.95
764.71	237.81
765.04	237.67
765.37	237.55
765.69	237.45
766.02	237.30
766.34	237.15
766.67	237.03
767.00	236.94
767.32	236.86
767.65	236.80
767.97	236.68
768.30	236.57
768.62	236.45
768.95	236.32
769.27	236.19
769.60	236.05
769.92	235.91
770.25	235.78
770.57	235.70
770.90	235.58
771.22	235.49
771.55	235.38
771.87	235.29
772.20	235.19
772.52	235.15
772.85	235.18
773.17	235.10
773.50	234.99
773.82	234.91
774.15	234.76
774.47	234.65
774.80	234.52
775.12	234.45
775.45	234.36
775.77	234.29
776.09	234.21
776.42	234.14
776.74	234.08
777.07	234.00
777.39	233.93
777.72	233.82
778.04	233.76
778.36	233.70
778.69	233.62
779.01	233.52
779.33	233.35
779.66	233.17
779.98	233.12
780.31	233.05
780.63	232.97
780.95	232.94
781.28	232.84
781.60	232.77
781.92	232.69
782.25	232.62
782.57	232.56
782.89	232.47
783.22	232.42
783.54	232.35
783.86	232.32
784.19	232.27
784.51	232.28
784.83	232.20
785.16	232.14
785.48	232.06
785.80	232.01
786.12	232.01
786.45	231.95
786.77	231.87
787.09	231.80
787.42	231.75
787.74	231.69
788.06	231.69
788.38	231.64
788.71	231.60
789.03	231.58
789.35	231.56
789.67	231.56
789.99	231.51
790.32	231.45
790.64	231.41
790.96	231.46
791.28	231.34
791.61	231.32
791.93	231.29
792.25	231.27
792.57	231.31
792.89	231.25
793.21	231.21
793.54	231.17
793.86	231.14
794.18	231.08
794.50	231.02
794.82	230.98
795.14	231.00
795.47	230.97
795.79	230.95
796.11	230.92
796.43	230.86
796.75	230.82
797.07	230.82
797.39	230.79
797.71	230.70
798.04	230.71
798.36	230.67
798.68	230.65
799.00	230.64
799.32	230.57
799.64	230.56
799.96	230.57
800.28	230.57
800.60	230.55
800.92	230.52
801.24	230.50
801.56	230.47
801.89	230.40
802.21	230.41
802.53	230.35
802.85	230.30
803.17	230.32
803.49	230.31
803.81	230.26
804.13	230.22
804.45	230.17
804.77	230.18
805.09	230.18
805.41	230.11
805.73	230.06
806.05	230.00
806.37	229.98
806.69	229.91
807.01	229.88
807.33	229.84
807.65	229.79
807.97	229.83
808.28	229.78
808.60	229.75
808.92	229.70
809.24	229.75
809.56	229.73
809.88	229.68
810.20	229.65
810.52	229.65
810.84	229.60
811.16	229.56
811.48	229.48
811.80	229.47
812.12	229.49
812.43	229.47
812.75	229.46
813.07	229.41
813.39	229.36
813.71	229.32
814.03	229.27
814.35	229.25
814.67	229.18
814.98	229.15
815.30	229.11
815.62	229.07
815.94	228.95
816.26	228.96
816.58	228.90
816.89	228.91
817.21	228.85
817.53	228.83
817.85	228.81
818.17	228.78
818.48	228.72
818.80	228.68
819.12	228.65
819.44	228.59
819.76	228.56
820.07	228.56
820.39	228.53
820.71	228.51
821.03	228.48
821.34	228.47
821.66	228.48
821.98	228.47
822.30	228.41
822.61	228.44
822.93	228.40
823.25	228.37
823.57	228.32
823.88	228.32
824.20	228.29
824.52	228.28
824.83	228.29
825.15	228.24
825.47	228.22
825.79	228.23
826.10	228.22
826.42	228.21
826.74	228.17
827.05	228.18
827.37	228.22
827.69	228.17
828.00	228.16
828.32	228.13
828.64	228.14
828.95	228.22
829.27	228.21
829.58	228.20
829.90	228.21
830.22	228.20
830.53	228.17
830.85	228.18
831.17	228.13
831.48	228.14
831.80	228.16
832.11	228.16
832.43	228.14
832.75	228.15
833.06	228.24
833.38	228.26
833.69	228.25
834.01	228.25
834.32	228.30
834.64	228.28
834.96	228.28
835.27	228.28
835.59	228.24
835.90	228.20
836.22	228.21
836.53	228.21
836.85	228.26
837.16	228.38
837.48	228.39
837.79	228.45
838.11	228.47
838.42	228.48
838.74	228.49
839.05	228.46
839.37	228.46
839.68	228.38
840.00	228.38
840.31	228.40
840.63	228.41
840.94	228.42
841.26	228.40
841.57	228.41
841.88	228.41
842.20	228.38
842.51	228.35
842.83	228.36
843.14	228.47
843.46	228.45
843.77	228.37
844.08	228.35
844.40	228.33
844.71	228.29
845.03	228.28
845.34	228.27
845.65	228.25
845.97	228.26
846.28	228.26
846.60	228.28
846.91	228.25
847.22	228.22
847.54	228.19
847.85	228.19
848.16	228.16
848.48	228.13
848.79	228.16
849.10	228.20
849.42	228.16
849.73	228.03
850.04	228.02
850.36	227.97
850.67	227.96
850.98	227.93
851.30	227.91
851.61	227.87
851.92	227.88
852.23	227.90
852.55	227.87
852.86	227.87
853.17	227.83
853.49	227.83
853.80	227.82
854.11	227.82
854.42	227.84
854.74	227.82
855.05	227.81
855.36	227.75
855.67	227.71
855.99	227.71
856.30	227.80
856.61	227.76
856.92	227.73
857.23	227.68
857.55	227.69
857.86	227.71
858.17	227.70
858.48	227.64
858.79	227.61
859.11	227.60
859.42	227.55
859.73	227.54
860.04	227.49
860.35	227.43
860.66	227.38
860.98	227.38
861.29	227.38
861.60	227.38
861.91	227.39
862.22	227.40
862.53	227.36
862.84	227.25
863.16	227.26
863.47	227.27
863.78	227.28
864.09	227.25
864.40	227.22
864.71	227.24
865.02	227.29
865.33	227.28
865.64	227.27
865.95	227.29
866.27	227.35
866.58	227.37
866.89	227.40
867.20	227.40
867.51	227.39
867.82	227.38
868.13	227.39
868.44	227.39
868.75	227.40
869.06	227.42
869.37	227.46
869.68	227.45
869.99	227.46
870.30	227.48
870.61	227.54
870.92	227.55
871.23	227.56
871.54	227.57
871.85	227.63
872.16	227.69
872.47	227.69
872.78	227.65
873.09	227.66
873.40	227.67
873.71	227.72
874.02	227.73
874.33	227.73
874.64	227.69
874.95	227.71
875.26	227.70
875.56	227.71
875.87	227.70
876.18	227.70
876.49	227.79
876.80	227.77
877.11	227.75
877.42	227.77
877.73	227.75
878.04	227.73
878.35	227.71
878.66	227.69
878.96	227.70
879.27	227.72
879.58	227.76
879.89	227.74
880.20	227.74
880.51	227.75
880.82	227.76
881.12	227.80
881.43	227.78
881.74	227.77
882.05	227.78
882.36	227.77
882.67	227.81
882.97	227.72
883.28	227.73
883.59	227.73
883.90	227.72
884.21	227.73
884.51	227.71
884.82	227.69
885.13	227.68
885.44	227.66
885.74	227.64
886.05	227.60
886.36	227.60
886.67	227.57
886.98	227.60
887.28	227.60
887.59	227.55
887.90	227.55
888.20	227.56
888.51	227.56
888.82	227.53
889.13	227.49
889.43	227.57
889.74	227.57
890.05	227.54
890.35	227.52
890.66	227.48
890.97	227.48
891.28	227.45
891.58	227.44
891.89	227.43
892.20	227.40
892.50	227.39
892.81	227.39
893.12	227.37
893.42	227.29
893.73	227.29
894.04	227.30
894.34	227.31
894.65	227.28
894.95	227.29
895.26	227.28
895.57	227.34
895.87	227.18
896.18	227.19
896.48	227.21
896.79	227.20
897.10	227.22
897.40	227.20
897.71	227.19
898.01	227.16
898.32	227.18
898.63	227.16
898.93	227.18
899.24	227.16
899.54	227.13
899.85	227.13
900.15	227.15
900.46	227.18
900.76	227.15
901.07	227.14
901.38	227.11
901.68	227.09
901.99	227.02
902.29	227.11
902.60	227.09
902.90	227.06
903.21	227.07
903.51	227.08
903.82	227.12
904.12	227.14
904.43	227.16
904.73	227.13
905.03	227.13
905.34	227.21
905.64	227.18
905.95	227.19
906.25	227.19
906.56	227.20
906.86	227.18
907.17	227.19
907.47	227.21
907.77	227.20
908.08	227.20
908.38	227.21
908.69	227.19
908.99	227.20
909.30	227.24
909.60	227.24
909.90	227.24
910.21	227.19
910.51	227.19
910.81	227.19
911.12	227.20
911.42	227.19
911.73	227.13
912.03	227.16
912.33	227.21
912.64	227.25
912.94	227.20
913.24	227.15
913.55	227.17
913.85	227.13
914.15	227.14
914.46	227.16
914.76	227.19
915.06	227.19
915.37	227.17
915.67	227.15
915.97	227.17
916.27	227.14
916.58	227.15
916.88	227.19
917.18	227.19
917.49	227.26
917.79	227.26
918.09	227.24
918.39	227.29
918.70	227.29
919.00	227.27
919.30	227.33
919.60	227.36
919.91	227.33
920.21	227.40
920.51	227.38
920.81	227.37
921.12	227.32
921.42	227.32
921.72	227.32
922.02	227.32
922.32	227.32
922.63	227.33
922.93	227.37
923.23	227.32
923.53	227.31
923.83	227.28
924.13	227.31
924.44	227.30
924.74	227.28
925.04	227.29
925.34	227.29
925.64	227.24
925.94	227.26
926.24	227.36
926.55	227.33
926.85	227.33
927.15	227.33
927.45	227.37
927.75	227.40
928.05	227.43
928.35	227.44
928.65	227.47
928.95	227.48
929.26	227.43
929.56	227.45
929.86	227.46
930.16	227.43
930.46	227.40
930.76	227.42
931.06	227.37
931.36	227.33
931.66	227.35
931.96	227.36
932.26	227.36
932.56	227.27
932.86	227.27
933.16	227.30
933.46	227.32
933.76	227.30
934.06	227.28
934.36	227.29
934.66	227.25
934.96	227.26
935.26	227.23
935.56	227.26
935.86	227.26
936.16	227.23
936.46	227.20
936.76	227.22
937.06	227.19
937.36	227.22
937.66	227.23
937.96	227.20
938.26	227.21
938.56	227.20
938.86	227.22
939.16	227.23
939.46	227.29
939.76	227.28
940.06	227.32
940.35	227.33
940.65	227.27
940.95	227.29
941.25	227.25
941.55	227.27
941.85	227.28
942.15	227.31
942.45	227.36
942.75	227.39
943.04	227.40
943.34	227.45
943.64	227.41
943.94	227.42
944.24	227.41
944.54	227.38
944.84	227.38
945.13	227.37
945.43	227.34
945.73	227.31
946.03	227.30
946.33	227.25
946.62	227.24
946.92	227.25
947.22	227.27
947.52	227.29
947.82	227.31
948.11	227.27
948.41	227.26
948.71	227.23
949.01	227.25
949.31	227.24
949.60	227.18
949.90	227.22
950.20	227.18
950.50	227.19
950.79	227.20
951.09	227.21
951.39	227.21
951.69	227.23
951.98	227.23
952.28	227.23
952.58	227.24
952.87	227.22
953.17	227.27
953.47	227.27
953.76	227.25
954.06	227.21
954.36	227.21
954.66	227.18
954.95	227.20
955.25	227.22
955.55	227.21
955.84	227.23
956.14	227.22
956.44	227.27
956.73	227.27
957.03	227.30
957.32	227.30
957.62	227.32
957.92	227.29
958.21	227.28
958.51	227.37
958.81	227.34
959.10	227.37
959.40	227.37
959.69	227.35
959.99	227.36
960.29	227.36
960.58	227.38
960.88	227.41
961.17	227.40
961.47	227.36
961.76	227.37
962.06	227.36
962.36	227.35
962.65	227.33
962.95	227.35
963.24	227.33
963.54	227.31
963.83	227.28
964.13	227.27
964.42	227.21
964.72	227.15
965.01	227.20
965.31	227.19
965.60	227.12
965.90	227.17
966.19	227.17
966.49	227.16
966.78	227.15
967.08	227.16
967.37	227.16
967.67	227.14
967.96	227.16
968.26	227.19
968.55	227.20
968.85	227.20
969.14	227.18
969.43	227.19
969.73	227.17
970.02	227.15
970.32	227.14
970.61	227.18
970.91	227.15
971.20	227.11
971.49	227.08
971.79	227.10
972.08	227.04
972.38	227.02
972.67	226.99
972.96	226.99
973.26	226.92
973.55	226.94
973.85	226.94
974.14	226.89
974.43	226.87
974.73	226.86
975.02	226.85
975.31	226.85
975.61	226.79
975.90	226.79
976.19	226.79
976.49	226.85
976.78	226.83
977.07	226.82
977.37	226.84
977.66	226.86
977.95	226.84
978.24	226.83
978.54	226.83
978.83	226.83
979.12	226.83
979.42	226.87
979.71	226.86
980.00	226.85
980.29	226.86
980.59	226.83
980.88	226.86
981.17	226.84
981.46	226.84
981.76	226.87
982.05	226.93
982.34	226.93
982.63	226.88
982.93	226.90
983.22	226.93
983.51	226.93
983.80	226.96
984.09	226.99
984.39	227.02
984.68	227.06
984.97	227.11
985.26	227.11
985.55	227.10
985.85	227.09
986.14	227.09
986.43	227.12
986.72	227.11
987.01	227.06
987.30	227.08
987.59	227.08
987.89	227.11
988.18	227.04
988.47	227.07
988.76	227.08
989.05	227.08
989.34	227.09
989.63	227.10
989.92	227.07
990.22	227.06
990.51	227.07
990.80	227.06
991.09	227.05
991.38	227.07
991.67	227.08
991.96	227.06
992.25	227.10
992.54	227.08
992.83	227.09
993.12	227.10
993.41	227.13
993.70	227.16
993.99	227.20
994.28	227.24
994.58	227.28
994.87	227.28
995.16	227.28
995.45	227.25
995.74	227.23
996.03	227.24
996.32	227.27
996.61	227.25
996.90	227.26
997.19	227.26
997.48	227.26
997.77	227.26
998.06	227.26
998.34	227.26
998.63	227.26
998.92	227.28
999.21	227.31
999.50	227.29
999.79	227.23
1000.08	227.17
1000.37	227.16
1000.66	227.08
1000.95	227.08
1001.24	227.09
1001.53	227.11
1001.82	227.12
1002.11	227.12
1002.40	227.09
1002.68	227.12
1002.97	227.15
1003.26	227.14
1003.55	227.12
1003.84	227.11
1004.13	227.12
1004.42	227.11
1004.71	227.10
1004.99	227.11
1005.28	227.12
1005.57	227.11
1005.86	227.09
1006.15	227.12
1006.44	227.12
1006.72	227.18
1007.01	227.16
1007.30	227.15
1007.59	227.13
1007.88	227.10
1008.17	227.10
1008.45	227.11
1008.74	227.06
1009.03	227.02
1009.32	227.03
1009.60	227.01
1009.89	227.00
1010.18	226.98
1010.47	226.96
1010.76	226.97
1011.04	226.96
1011.33	226.97
1011.62	227.00
1011.91	227.03
1012.19	226.99
1012.48	226.98
1012.77	226.98
1013.05	227.03
1013.34	227.03
1013.63	227.02
1013.92	227.04
1014.20	227.01
1014.49	226.99
1014.78	226.99
1015.06	226.92
1015.35	226.95
1015.64	226.97
1015.92	227.00
1016.21	227.01
1016.50	227.03
1016.78	227.05
1017.07	227.05
1017.36	227.00
1017.64	226.95
1017.93	226.96
1018.22	226.95
1018.50	226.94
1018.79	226.94
1019.08	226.88
1019.36	226.89
1019.65	226.90
1019.93	226.93
1020.22	226.95
1020.51	227.03
1020.79	227.02
1021.08	226.63
1021.36	226.67
1021.65	227.25
1021.94	226.65
1022.22	227.15
1022.51	227.03
1022.79	227.49
1023.08	226.93
1023.36	228.65
1023.65	226.55
>>>>>End Processed Spectral Data<<<<<
