SpectraSuite Data File
++++++++++++++++++++++++++++++++++++
Date: Fri Feb 01 16:59:55 EST 2013
User: group
Dark Spectrum Present: No
Reference Spectrum Present: No
Number of Sampled Component Spectra: 1
Spectrometers: USB2E7196
Integration Time (usec): 35000 (USB2E7196)
Spectra Averaged: 100 (USB2E7196)
Boxcar Smoothing: 10 (USB2E7196)
Correct for Electrical Dark: No (USB2E7196)
Strobe/Lamp Enabled: No (USB2E7196)
Correct for Detector Non-linearity: No (USB2E7196)
Correct for Stray Light: No (USB2E7196)
Number of Pixels in Processed Spectrum: 2048
>>>>>Begin Processed Spectral Data<<<<<
339.09	0.00
339.48	213.19
339.86	214.18
340.24	215.92
340.63	217.23
341.01	219.80
341.39	219.96
341.78	221.74
342.16	223.11
342.54	223.55
342.93	211.58
343.31	222.26
343.69	222.82
344.07	223.29
344.46	223.73
344.84	224.12
345.22	224.37
345.60	224.62
345.99	224.77
346.37	224.87
346.75	224.95
347.13	225.00
347.52	225.09
347.90	225.15
348.28	225.21
348.66	225.24
349.05	225.27
349.43	225.33
349.81	225.42
350.19	225.48
350.57	225.54
350.96	225.63
351.34	225.73
351.72	225.81
352.10	225.93
352.48	225.97
352.87	226.04
353.25	226.13
353.63	226.20
354.01	226.32
354.39	226.38
354.77	226.49
355.15	226.61
355.54	226.69
355.92	226.75
356.30	226.85
356.68	226.98
357.06	227.02
357.44	227.06
357.82	227.12
358.20	227.19
358.58	227.26
358.97	227.31
359.35	227.38
359.73	227.49
360.11	227.55
360.49	227.63
360.87	227.64
361.25	227.69
361.63	227.76
362.01	227.77
362.39	227.78
362.77	227.80
363.15	227.79
363.53	227.79
363.91	227.80
364.29	227.80
364.67	227.74
365.05	227.78
365.43	227.82
365.81	227.82
366.19	227.85
366.57	227.86
366.95	227.89
367.33	227.87
367.71	227.83
368.09	227.80
368.47	227.83
368.85	227.81
369.23	227.81
369.61	227.76
369.99	227.77
370.37	227.77
370.75	227.77
371.13	227.76
371.51	227.72
371.89	227.71
372.27	227.65
372.65	227.59
373.03	227.53
373.41	227.47
373.78	227.42
374.16	227.30
374.54	227.20
374.92	227.11
375.30	227.04
375.68	226.99
376.06	226.92
376.44	226.83
376.82	226.79
377.19	226.69
377.57	226.64
377.95	226.53
378.33	226.46
378.71	226.35
379.09	226.28
379.47	226.20
379.84	226.09
380.22	226.02
380.60	225.94
380.98	225.85
381.36	225.81
381.73	225.72
382.11	225.70
382.49	225.64
382.87	225.55
383.25	225.48
383.62	225.52
384.00	225.47
384.38	225.40
384.76	225.36
385.13	225.36
385.51	225.31
385.89	225.26
386.27	225.22
386.64	225.17
387.02	225.13
387.40	225.06
387.78	225.02
388.15	224.99
388.53	224.97
388.91	224.97
389.29	224.92
389.66	224.96
390.04	224.91
390.42	224.90
390.79	224.93
391.17	224.91
391.55	224.80
391.92	224.82
392.30	224.82
392.68	224.82
393.05	224.83
393.43	224.85
393.81	224.88
394.18	224.87
394.56	224.90
394.94	224.95
395.31	225.00
395.69	225.06
396.06	225.11
396.44	225.15
396.82	225.18
397.19	225.24
397.57	225.23
397.95	225.32
398.32	225.36
398.70	225.41
399.07	225.50
399.45	225.52
399.82	225.58
400.20	225.62
400.58	225.67
400.95	225.68
401.33	225.73
401.70	225.87
402.08	225.98
402.45	226.05
402.83	226.14
403.20	226.22
403.58	226.31
403.95	226.42
404.33	226.57
404.71	226.67
405.08	226.82
405.46	226.96
405.83	227.09
406.21	227.22
406.58	227.41
406.96	227.56
407.33	227.75
407.70	227.88
408.08	228.16
408.45	228.39
408.83	228.61
409.20	228.82
409.58	228.97
409.95	229.25
410.33	229.54
410.70	229.83
411.08	230.11
411.45	230.38
411.82	230.67
412.20	231.01
412.57	231.41
412.95	231.70
413.32	232.09
413.69	232.48
414.07	232.91
414.44	233.33
414.82	233.80
415.19	234.34
415.56	234.90
415.94	235.41
416.31	236.01
416.68	236.64
417.06	237.37
417.43	238.07
417.81	238.79
418.18	239.49
418.55	240.27
418.93	241.16
419.30	242.09
419.67	243.02
420.04	243.94
420.42	244.94
420.79	246.14
421.16	247.27
421.54	248.49
421.91	249.70
422.28	250.95
422.66	252.28
423.03	253.54
423.40	254.88
423.77	256.29
424.15	257.72
424.52	259.17
424.89	260.78
425.26	262.31
425.64	263.74
426.01	265.37
426.38	267.01
426.75	268.67
427.13	270.37
427.50	272.15
427.87	274.01
428.24	275.81
428.61	277.51
428.99	279.46
429.36	281.54
429.73	283.61
430.10	285.61
430.47	287.65
430.85	289.79
431.22	292.03
431.59	294.39
431.96	296.64
432.33	299.14
432.70	301.49
433.08	304.28
433.45	306.92
433.82	309.55
434.19	312.40
434.56	315.20
434.93	317.78
435.30	320.41
435.68	323.30
436.05	326.12
436.42	328.89
436.79	331.33
437.16	334.00
437.53	336.78
437.90	339.58
438.27	342.33
438.64	345.16
439.01	347.73
439.38	349.97
439.75	352.12
440.13	354.60
440.50	356.93
440.87	358.76
441.24	360.75
441.61	362.90
441.98	364.44
442.35	366.25
442.72	368.16
443.09	369.93
443.46	370.90
443.83	371.55
444.20	372.06
444.57	372.96
444.94	373.25
445.31	373.59
445.68	373.93
446.05	373.99
446.42	373.62
446.79	373.22
447.16	372.78
447.53	372.50
447.90	371.31
448.27	370.19
448.64	368.63
449.01	367.51
449.37	365.54
449.74	363.65
450.11	361.42
450.48	358.99
450.85	356.48
451.22	354.37
451.59	352.34
451.96	350.45
452.33	347.83
452.70	345.52
453.07	342.73
453.43	339.89
453.80	337.14
454.17	334.48
454.54	331.91
454.91	329.20
455.28	326.52
455.65	324.08
456.02	321.63
456.38	319.50
456.75	316.81
457.12	314.52
457.49	312.30
457.86	310.14
458.23	308.29
458.59	306.28
458.96	304.17
459.33	302.32
459.70	300.51
460.07	299.04
460.43	297.30
460.80	295.69
461.17	294.25
461.54	292.75
461.91	291.31
462.27	289.91
462.64	288.69
463.01	287.32
463.38	286.06
463.74	284.69
464.11	283.54
464.48	282.52
464.85	281.47
465.21	280.65
465.58	279.73
465.95	278.64
466.32	277.77
466.68	276.92
467.05	276.06
467.42	275.16
467.78	274.24
468.15	273.37
468.52	272.73
468.88	271.88
469.25	271.13
469.62	270.54
469.98	269.85
470.35	269.19
470.72	268.60
471.08	267.94
471.45	267.40
471.82	266.86
472.18	266.29
472.55	265.83
472.92	265.30
473.28	264.87
473.65	264.41
474.02	263.95
474.38	263.59
474.75	263.26
475.11	262.90
475.48	262.64
475.85	262.44
476.21	262.22
476.58	262.05
476.94	261.96
477.31	261.81
477.67	261.70
478.04	261.63
478.41	261.63
478.77	261.71
479.14	261.69
479.50	261.71
479.87	261.78
480.23	261.90
480.60	262.01
480.96	262.09
481.33	262.33
481.69	262.54
482.06	262.77
482.42	263.01
482.79	263.29
483.15	263.61
483.52	264.01
483.88	264.36
484.25	264.75
484.61	265.14
484.98	265.58
485.34	266.14
485.71	266.74
486.07	267.30
486.44	267.85
486.80	268.53
487.17	269.28
487.53	270.09
487.90	270.88
488.26	271.81
488.62	272.81
488.99	273.78
489.35	274.79
489.72	275.89
490.08	277.09
490.44	278.29
490.81	279.62
491.17	280.95
491.54	282.43
491.90	283.96
492.26	285.58
492.63	287.33
492.99	289.06
493.36	290.94
493.72	292.99
494.08	295.08
494.45	297.35
494.81	299.66
495.17	302.09
495.54	304.69
495.90	307.33
496.26	310.08
496.63	313.03
496.99	316.13
497.35	319.39
497.72	322.76
498.08	326.29
498.44	329.94
498.80	333.82
499.17	337.83
499.53	342.00
499.89	346.38
500.26	350.82
500.62	355.49
500.98	360.42
501.34	365.46
501.71	370.75
502.07	376.12
502.43	381.76
502.79	387.51
503.16	393.48
503.52	399.72
503.88	406.16
504.24	412.70
504.60	419.55
504.97	426.60
505.33	433.82
505.69	441.51
506.05	449.21
506.41	457.04
506.78	465.10
507.14	473.42
507.50	481.99
507.86	490.92
508.22	499.99
508.59	509.10
508.95	518.60
509.31	528.32
509.67	538.40
510.03	548.45
510.39	558.90
510.75	569.66
511.12	580.43
511.48	591.53
511.84	602.84
512.20	614.25
512.56	626.00
512.92	638.07
513.28	650.25
513.64	662.54
514.00	675.05
514.37	687.82
514.73	700.77
515.09	713.62
515.45	726.77
515.81	740.21
516.17	753.96
516.53	767.90
516.89	781.93
517.25	795.81
517.61	810.17
517.97	824.44
518.33	838.56
518.69	853.09
519.05	867.81
519.41	882.73
519.77	897.97
520.13	913.26
520.49	928.35
520.85	943.45
521.21	958.83
521.57	974.86
521.93	990.36
522.29	1006.39
522.65	1022.40
523.01	1038.26
523.37	1053.97
523.73	1069.86
524.09	1085.55
524.45	1101.42
524.81	1117.78
525.17	1134.14
525.53	1150.72
525.89	1167.37
526.25	1183.89
526.61	1199.93
526.97	1216.38
527.33	1232.49
527.68	1248.73
528.04	1264.93
528.40	1281.10
528.76	1297.86
529.12	1314.10
529.48	1330.63
529.84	1346.30
530.20	1362.47
530.56	1379.23
530.91	1396.28
531.27	1412.74
531.63	1428.84
531.99	1445.11
532.35	1460.67
532.71	1476.24
533.07	1492.19
533.42	1507.78
533.78	1523.49
534.14	1539.45
534.50	1554.45
534.86	1569.98
535.21	1584.91
535.57	1600.42
535.93	1615.69
536.29	1630.29
536.65	1644.96
537.00	1659.40
537.36	1674.54
537.72	1688.95
538.08	1702.98
538.44	1716.58
538.79	1730.14
539.15	1743.54
539.51	1757.09
539.87	1771.17
540.22	1784.57
540.58	1797.88
540.94	1810.83
541.29	1823.44
541.65	1835.93
542.01	1849.01
542.37	1861.10
542.72	1873.13
543.08	1884.70
543.44	1896.90
543.79	1907.91
544.15	1918.84
544.51	1930.27
544.87	1940.82
545.22	1951.53
545.58	1961.56
545.94	1971.07
546.29	1980.77
546.65	1990.55
547.01	1999.59
547.36	2008.18
547.72	2016.63
548.07	2024.51
548.43	2032.54
548.79	2040.40
549.14	2047.73
549.50	2054.74
549.86	2062.23
550.21	2069.49
550.57	2076.64
550.92	2083.07
551.28	2089.97
551.64	2096.84
551.99	2103.24
552.35	2109.32
552.70	2115.31
553.06	2121.22
553.41	2127.49
553.77	2133.51
554.13	2139.41
554.48	2145.49
554.84	2150.97
555.19	2156.07
555.55	2161.31
555.90	2165.74
556.26	2170.69
556.61	2175.44
556.97	2180.11
557.32	2184.34
557.68	2188.55
558.03	2192.85
558.39	2196.60
558.74	2201.32
559.10	2205.19
559.45	2209.03
559.81	2213.48
560.16	2217.37
560.52	2220.77
560.87	2224.16
561.23	2226.87
561.58	2229.90
561.94	2232.53
562.29	2234.96
562.64	2237.92
563.00	2240.43
563.35	2244.17
563.71	2247.37
564.06	2250.61
564.42	2253.32
564.77	2256.03
565.12	2258.48
565.48	2260.47
565.83	2262.65
566.19	2264.13
566.54	2265.20
566.89	2266.42
567.25	2267.09
567.60	2268.32
567.96	2270.21
568.31	2271.28
568.66	2272.58
569.02	2273.37
569.37	2273.74
569.72	2274.75
570.08	2275.11
570.43	2275.31
570.78	2274.90
571.14	2273.58
571.49	2272.43
571.84	2272.30
572.20	2271.44
572.55	2270.46
572.90	2269.07
573.26	2267.70
573.61	2266.05
573.96	2264.59
574.31	2261.84
574.67	2259.19
575.02	2255.94
575.37	2252.64
575.72	2249.12
576.08	2245.91
576.43	2242.80
576.78	2239.57
577.13	2236.50
577.49	2233.41
577.84	2230.28
578.19	2226.69
578.54	2223.37
578.90	2219.57
579.25	2214.22
579.60	2209.41
579.95	2204.88
580.30	2200.05
580.66	2195.16
581.01	2190.38
581.36	2185.75
581.71	2181.75
582.06	2177.51
582.42	2173.27
582.77	2168.26
583.12	2164.00
583.47	2159.56
583.82	2154.85
584.17	2149.81
584.53	2144.55
584.88	2139.24
585.23	2133.80
585.58	2128.59
585.93	2123.20
586.28	2118.42
586.63	2113.61
586.98	2108.67
587.34	2103.91
587.69	2099.32
588.04	2094.24
588.39	2088.88
588.74	2082.50
589.09	2076.45
589.44	2069.93
589.79	2063.98
590.14	2058.58
590.49	2052.10
590.84	2045.82
591.19	2039.90
591.54	2033.55
591.89	2026.52
592.25	2019.91
592.60	2012.68
592.95	2005.21
593.30	1998.10
593.65	1990.60
594.00	1983.83
594.35	1976.78
594.70	1968.88
595.05	1961.84
595.40	1954.64
595.75	1947.25
596.10	1941.25
596.45	1934.74
596.80	1928.61
597.15	1922.26
597.50	1915.41
597.85	1909.09
598.19	1902.64
598.54	1895.69
598.89	1889.26
599.24	1883.32
599.59	1876.83
599.94	1870.67
600.29	1864.54
600.64	1857.96
600.99	1850.87
601.34	1843.98
601.69	1837.07
602.04	1830.42
602.39	1823.16
602.74	1816.41
603.08	1809.85
603.43	1803.16
603.78	1795.82
604.13	1788.80
604.48	1781.65
604.83	1774.83
605.18	1768.03
605.53	1760.16
605.87	1752.24
606.22	1744.97
606.57	1737.20
606.92	1729.91
607.27	1723.02
607.62	1716.17
607.96	1709.21
608.31	1702.72
608.66	1695.32
609.01	1687.87
609.36	1680.39
609.70	1672.39
610.05	1664.53
610.40	1656.85
610.75	1648.60
611.10	1641.21
611.44	1632.73
611.79	1624.74
612.14	1616.18
612.49	1607.04
612.83	1598.77
613.18	1590.69
613.53	1582.71
613.88	1574.24
614.22	1566.03
614.57	1557.33
614.92	1549.31
615.27	1541.68
615.61	1533.38
615.96	1525.43
616.31	1517.85
616.65	1510.51
617.00	1503.12
617.35	1495.44
617.70	1487.14
618.04	1478.65
618.39	1470.33
618.74	1462.88
619.08	1454.53
619.43	1446.93
619.78	1440.09
620.12	1432.99
620.47	1425.57
620.82	1417.37
621.16	1409.94
621.51	1402.41
621.85	1394.87
622.20	1386.37
622.55	1378.16
622.89	1370.43
623.24	1362.67
623.59	1355.24
623.93	1347.78
624.28	1340.62
624.62	1333.32
624.97	1326.16
625.32	1319.54
625.66	1312.69
626.01	1305.53
626.35	1298.26
626.70	1290.49
627.04	1282.90
627.39	1275.03
627.73	1267.74
628.08	1260.93
628.43	1253.78
628.77	1246.38
629.12	1238.83
629.46	1231.78
629.81	1224.27
630.15	1216.93
630.50	1209.68
630.84	1201.68
631.19	1193.77
631.53	1186.21
631.88	1178.54
632.22	1171.00
632.57	1163.61
632.91	1156.05
633.26	1148.67
633.60	1141.24
633.95	1134.12
634.29	1126.99
634.64	1120.34
634.98	1112.89
635.32	1105.75
635.67	1099.09
636.01	1092.60
636.36	1085.91
636.70	1079.42
637.05	1072.89
637.39	1066.48
637.73	1059.90
638.08	1053.96
638.42	1047.95
638.77	1041.51
639.11	1035.01
639.45	1028.69
639.80	1022.05
640.14	1015.63
640.49	1009.14
640.83	1002.91
641.17	996.81
641.52	990.51
641.86	984.05
642.20	978.37
642.55	971.99
642.89	965.59
643.23	958.97
643.58	953.20
643.92	946.98
644.26	941.01
644.61	934.99
644.95	929.09
645.29	922.60
645.64	915.93
645.98	909.67
646.32	903.81
646.66	897.71
647.01	892.01
647.35	886.36
647.69	880.49
648.04	874.96
648.38	869.12
648.72	863.14
649.06	857.08
649.41	851.09
649.75	845.28
650.09	839.34
650.43	833.59
650.78	827.49
651.12	821.58
651.46	815.76
651.80	810.11
652.14	804.70
652.49	799.37
652.83	794.22
653.17	788.51
653.51	782.81
653.85	777.49
654.20	771.93
654.54	765.98
654.88	760.26
655.22	754.37
655.56	748.75
655.90	743.38
656.25	738.23
656.59	732.84
656.93	727.77
657.27	722.65
657.61	717.19
657.95	712.09
658.29	707.03
658.64	701.84
658.98	696.53
659.32	691.10
659.66	685.96
660.00	680.67
660.34	675.82
660.68	670.92
661.02	665.89
661.36	661.19
661.70	656.69
662.05	652.40
662.39	648.14
662.73	643.68
663.07	639.24
663.41	634.87
663.75	630.48
664.09	625.89
664.43	621.50
664.77	617.47
665.11	613.23
665.45	609.15
665.79	605.18
666.13	601.08
666.47	597.03
666.81	592.85
667.15	588.72
667.49	584.75
667.83	580.96
668.17	577.07
668.51	573.00
668.85	569.01
669.19	565.15
669.53	561.33
669.87	557.42
670.21	553.80
670.55	550.11
670.89	546.71
671.23	543.33
671.57	539.85
671.91	536.34
672.25	532.85
672.58	529.30
672.92	525.79
673.26	522.58
673.60	519.39
673.94	516.31
674.28	513.43
674.62	510.53
674.96	507.46
675.30	504.55
675.64	501.62
675.97	498.80
676.31	495.95
676.65	493.00
676.99	490.33
677.33	487.43
677.67	484.60
678.01	481.56
678.34	478.58
678.68	475.66
679.02	472.81
679.36	470.03
679.70	467.34
680.04	464.64
680.37	461.80
680.71	459.04
681.05	456.33
681.39	453.64
681.73	450.94
682.06	448.38
682.40	445.85
682.74	443.32
683.08	440.77
683.42	438.18
683.75	435.70
684.09	433.20
684.43	430.71
684.77	428.29
685.10	425.95
685.44	423.56
685.78	421.31
686.12	419.03
686.45	416.74
686.79	414.45
687.13	412.20
687.46	410.00
687.80	407.83
688.14	405.61
688.48	403.55
688.81	401.35
689.15	399.21
689.49	397.05
689.82	394.93
690.16	392.84
690.50	390.94
690.83	388.97
691.17	386.97
691.51	385.15
691.84	383.28
692.18	381.34
692.52	379.45
692.85	377.48
693.19	375.67
693.52	373.82
693.86	371.96
694.20	370.16
694.53	368.39
694.87	366.52
695.21	364.79
695.54	362.93
695.88	361.19
696.21	359.51
696.55	357.82
696.88	356.16
697.22	354.50
697.56	352.83
697.89	351.18
698.23	349.60
698.56	347.95
698.90	346.38
699.23	344.74
699.57	343.22
699.90	341.71
700.24	340.18
700.58	338.67
700.91	337.23
701.25	335.87
701.58	334.52
701.92	333.20
702.25	331.83
702.59	330.49
702.92	329.17
703.26	327.87
703.59	326.60
703.93	325.44
704.26	324.24
704.60	322.90
704.93	321.64
705.26	320.35
705.60	319.15
705.93	317.95
706.27	316.92
706.60	315.83
706.94	314.76
707.27	313.61
707.61	312.54
707.94	311.53
708.27	310.41
708.61	309.31
708.94	308.27
709.28	307.30
709.61	306.33
709.94	305.41
710.28	304.37
710.61	303.41
710.95	302.28
711.28	301.36
711.61	300.44
711.95	299.55
712.28	298.63
712.61	297.70
712.95	296.76
713.28	295.87
713.61	294.98
713.95	294.10
714.28	293.22
714.61	292.35
714.95	291.44
715.28	290.58
715.61	289.73
715.95	288.94
716.28	288.05
716.61	287.21
716.95	286.38
717.28	285.61
717.61	284.86
717.94	284.15
718.28	283.31
718.61	282.55
718.94	281.84
719.27	281.16
719.61	280.47
719.94	279.85
720.27	279.09
720.60	278.37
720.94	277.75
721.27	277.18
721.60	276.62
721.93	276.03
722.27	275.45
722.60	274.91
722.93	274.33
723.26	273.79
723.59	273.24
723.93	272.66
724.26	272.12
724.59	271.50
724.92	270.94
725.25	270.44
725.59	269.96
725.92	269.43
726.25	268.95
726.58	268.44
726.91	267.91
727.24	267.51
727.57	267.06
727.91	266.59
728.24	266.12
728.57	265.62
728.90	265.16
729.23	264.68
729.56	264.22
729.89	263.71
730.22	263.22
730.55	262.76
730.89	262.34
731.22	261.85
731.55	261.43
731.88	261.02
732.21	260.59
732.54	260.12
732.87	259.76
733.20	259.31
733.53	258.90
733.86	258.55
734.19	258.11
734.52	257.74
734.85	257.40
735.18	256.97
735.51	256.64
735.84	256.31
736.17	256.00
736.50	255.59
736.83	255.42
737.16	255.10
737.49	254.80
737.82	254.44
738.15	254.14
738.48	253.82
738.81	253.50
739.14	253.21
739.47	252.93
739.80	252.60
740.13	252.32
740.46	252.02
740.79	251.63
741.12	251.38
741.45	251.08
741.78	250.72
742.11	250.45
742.44	250.14
742.77	249.81
743.10	249.48
743.43	249.18
743.75	248.74
744.08	248.64
744.41	248.34
744.74	248.05
745.07	247.78
745.40	247.53
745.73	247.30
746.06	247.00
746.39	246.73
746.71	246.47
747.04	246.21
747.37	245.94
747.70	245.75
748.03	245.48
748.36	245.24
748.68	245.01
749.01	244.74
749.34	244.49
749.67	244.29
750.00	244.08
750.33	243.96
750.65	243.77
750.98	243.38
751.31	243.17
751.64	242.95
751.97	242.78
752.29	242.57
752.62	242.31
752.95	242.11
753.28	241.88
753.60	241.67
753.93	241.48
754.26	241.30
754.59	241.10
754.91	240.87
755.24	240.67
755.57	240.46
755.90	240.28
756.22	240.10
756.55	239.89
756.88	239.69
757.20	239.44
757.53	239.23
757.86	239.09
758.19	238.93
758.51	238.80
758.84	238.59
759.17	238.44
759.49	238.31
759.82	238.18
760.15	238.05
760.47	237.93
760.80	237.77
761.13	237.64
761.45	237.47
761.78	237.32
762.11	237.18
762.43	237.05
762.76	236.92
763.08	236.79
763.41	236.66
763.74	236.54
764.06	236.38
764.39	236.27
764.71	236.09
765.04	235.94
765.37	235.82
765.69	235.68
766.02	235.54
766.34	235.42
766.67	235.30
767.00	235.20
767.32	235.09
767.65	234.99
767.97	234.85
768.30	234.74
768.62	234.66
768.95	234.54
769.27	234.44
769.60	234.34
769.92	234.24
770.25	234.11
770.57	233.97
770.90	233.87
771.22	233.78
771.55	233.69
771.87	233.58
772.20	233.46
772.52	233.46
772.85	233.49
773.17	233.38
773.50	233.25
773.82	233.14
774.15	233.02
774.47	232.92
774.80	232.83
775.12	232.74
775.45	232.65
775.77	232.54
776.09	232.44
776.42	232.40
776.74	232.33
777.07	232.24
777.39	232.18
777.72	232.08
778.04	232.00
778.36	231.94
778.69	231.90
779.01	231.85
779.33	231.71
779.66	231.53
779.98	231.47
780.31	231.42
780.63	231.38
780.95	231.32
781.28	231.22
781.60	231.15
781.92	231.08
782.25	231.04
782.57	231.00
782.89	230.94
783.22	230.83
783.54	230.73
783.86	230.69
784.19	230.61
784.51	230.62
784.83	230.55
785.16	230.46
785.48	230.41
785.80	230.35
786.12	230.30
786.45	230.25
786.77	230.18
787.09	230.17
787.42	230.09
787.74	230.06
788.06	230.04
788.38	229.99
788.71	229.97
789.03	229.90
789.35	229.91
789.67	229.83
789.99	229.82
790.32	229.79
790.64	229.78
790.96	229.84
791.28	229.75
791.61	229.71
791.93	229.67
792.25	229.61
792.57	229.62
792.89	229.56
793.21	229.52
793.54	229.49
793.86	229.41
794.18	229.37
794.50	229.32
794.82	229.24
795.14	229.22
795.47	229.16
795.79	229.12
796.11	229.04
796.43	229.04
796.75	228.95
797.07	228.94
797.39	228.89
797.71	228.76
798.04	228.75
798.36	228.72
798.68	228.73
799.00	228.69
799.32	228.60
799.64	228.58
799.96	228.55
800.28	228.54
800.60	228.51
800.92	228.45
801.24	228.41
801.56	228.41
801.89	228.40
802.21	228.39
802.53	228.37
802.85	228.35
803.17	228.37
803.49	228.38
803.81	228.35
804.13	228.29
804.45	228.26
804.77	228.21
805.09	228.16
805.41	228.13
805.73	228.09
806.05	228.06
806.37	228.02
806.69	228.01
807.01	227.96
807.33	227.96
807.65	227.93
807.97	227.97
808.28	227.93
808.60	227.88
808.92	227.86
809.24	227.88
809.56	227.85
809.88	227.79
810.20	227.78
810.52	227.77
810.84	227.79
811.16	227.77
811.48	227.76
811.80	227.78
812.12	227.73
812.43	227.75
812.75	227.75
813.07	227.72
813.39	227.70
813.71	227.67
814.03	227.61
814.35	227.56
814.67	227.49
814.98	227.48
815.30	227.46
815.62	227.41
815.94	227.33
816.26	227.36
816.58	227.35
816.89	227.34
817.21	227.26
817.53	227.21
817.85	227.20
818.17	227.19
818.48	227.14
818.80	227.14
819.12	227.07
819.44	227.04
819.76	227.01
820.07	226.99
820.39	226.98
820.71	227.01
821.03	227.04
821.34	227.00
821.66	227.01
821.98	227.02
822.30	227.00
822.61	227.05
822.93	226.99
823.25	226.94
823.57	226.91
823.88	226.93
824.20	226.94
824.52	226.94
824.83	226.92
825.15	226.87
825.47	226.83
825.79	226.84
826.10	226.78
826.42	226.74
826.74	226.75
827.05	226.73
827.37	226.70
827.69	226.64
828.00	226.62
828.32	226.59
828.64	226.53
828.95	226.54
829.27	226.48
829.58	226.44
829.90	226.43
830.22	226.43
830.53	226.40
830.85	226.37
831.17	226.30
831.48	226.29
831.80	226.28
832.11	226.28
832.43	226.24
832.75	226.24
833.06	226.33
833.38	226.26
833.69	226.25
834.01	226.22
834.32	226.23
834.64	226.22
834.96	226.21
835.27	226.25
835.59	226.21
835.90	226.21
836.22	226.22
836.53	226.21
836.85	226.18
837.16	226.27
837.48	226.27
837.79	226.32
838.11	226.31
838.42	226.29
838.74	226.31
839.05	226.31
839.37	226.32
839.68	226.21
840.00	226.21
840.31	226.21
840.63	226.20
840.94	226.18
841.26	226.16
841.57	226.15
841.88	226.11
842.20	226.10
842.51	226.05
842.83	226.03
843.14	226.12
843.46	226.11
843.77	226.01
844.08	225.98
844.40	225.93
844.71	225.95
845.03	225.92
845.34	225.92
845.65	225.92
845.97	225.91
846.28	225.93
846.60	225.94
846.91	225.92
847.22	225.91
847.54	225.90
847.85	225.93
848.16	225.89
848.48	225.87
848.79	225.93
849.10	225.95
849.42	225.94
849.73	225.86
850.04	225.85
850.36	225.85
850.67	225.84
850.98	225.85
851.30	225.81
851.61	225.80
851.92	225.80
852.23	225.83
852.55	225.80
852.86	225.81
853.17	225.80
853.49	225.82
853.80	225.86
854.11	225.88
854.42	225.88
854.74	225.87
855.05	225.88
855.36	225.81
855.67	225.80
855.99	225.80
856.30	225.89
856.61	225.89
856.92	225.87
857.23	225.91
857.55	225.87
857.86	225.86
858.17	225.91
858.48	225.86
858.79	225.86
859.11	225.88
859.42	225.87
859.73	225.88
860.04	225.88
860.35	225.83
860.66	225.83
860.98	225.83
861.29	225.84
861.60	225.82
861.91	225.84
862.22	225.77
862.53	225.78
862.84	225.65
863.16	225.66
863.47	225.65
863.78	225.63
864.09	225.64
864.40	225.64
864.71	225.64
865.02	225.64
865.33	225.62
865.64	225.61
865.95	225.58
866.27	225.64
866.58	225.61
866.89	225.65
867.20	225.62
867.51	225.61
867.82	225.61
868.13	225.67
868.44	225.65
868.75	225.69
869.06	225.70
869.37	225.71
869.68	225.68
869.99	225.69
870.30	225.69
870.61	225.69
870.92	225.66
871.23	225.64
871.54	225.67
871.85	225.67
872.16	225.65
872.47	225.66
872.78	225.62
873.09	225.63
873.40	225.59
873.71	225.57
874.02	225.57
874.33	225.57
874.64	225.51
874.95	225.52
875.26	225.53
875.56	225.54
875.87	225.56
876.18	225.55
876.49	225.66
876.80	225.68
877.11	225.69
877.42	225.72
877.73	225.71
878.04	225.68
878.35	225.69
878.66	225.72
878.96	225.74
879.27	225.73
879.58	225.71
879.89	225.73
880.20	225.78
880.51	225.78
880.82	225.80
881.12	225.80
881.43	225.80
881.74	225.76
882.05	225.71
882.36	225.71
882.67	225.74
882.97	225.61
883.28	225.57
883.59	225.54
883.90	225.56
884.21	225.54
884.51	225.53
884.82	225.49
885.13	225.49
885.44	225.46
885.74	225.43
886.05	225.44
886.36	225.41
886.67	225.39
886.98	225.46
887.28	225.42
887.59	225.44
887.90	225.42
888.20	225.44
888.51	225.51
888.82	225.48
889.13	225.50
889.43	225.59
889.74	225.58
890.05	225.60
890.35	225.56
890.66	225.59
890.97	225.58
891.28	225.59
891.58	225.58
891.89	225.58
892.20	225.56
892.50	225.53
892.81	225.53
893.12	225.51
893.42	225.45
893.73	225.47
894.04	225.46
894.34	225.46
894.65	225.43
894.95	225.35
895.26	225.34
895.57	225.36
895.87	225.24
896.18	225.28
896.48	225.27
896.79	225.28
897.10	225.27
897.40	225.26
897.71	225.26
898.01	225.27
898.32	225.29
898.63	225.29
898.93	225.31
899.24	225.31
899.54	225.29
899.85	225.27
900.15	225.26
900.46	225.27
900.76	225.29
901.07	225.32
901.38	225.33
901.68	225.33
901.99	225.27
902.29	225.30
902.60	225.28
902.90	225.29
903.21	225.27
903.51	225.26
903.82	225.29
904.12	225.29
904.43	225.29
904.73	225.28
905.03	225.29
905.34	225.38
905.64	225.39
905.95	225.40
906.25	225.39
906.56	225.42
906.86	225.39
907.17	225.37
907.47	225.38
907.77	225.38
908.08	225.39
908.38	225.41
908.69	225.41
908.99	225.43
909.30	225.43
909.60	225.43
909.90	225.45
910.21	225.43
910.51	225.44
910.81	225.41
911.12	225.43
911.42	225.43
911.73	225.35
912.03	225.34
912.33	225.39
912.64	225.35
912.94	225.32
913.24	225.32
913.55	225.32
913.85	225.30
914.15	225.30
914.46	225.32
914.76	225.32
915.06	225.30
915.37	225.28
915.67	225.26
915.97	225.28
916.27	225.24
916.58	225.22
916.88	225.18
917.18	225.20
917.49	225.23
917.79	225.25
918.09	225.24
918.39	225.28
918.70	225.22
919.00	225.25
919.30	225.28
919.60	225.28
919.91	225.27
920.21	225.28
920.51	225.29
920.81	225.27
921.12	225.28
921.42	225.29
921.72	225.30
922.02	225.31
922.32	225.32
922.63	225.31
922.93	225.36
923.23	225.39
923.53	225.37
923.83	225.31
924.13	225.28
924.44	225.26
924.74	225.25
925.04	225.27
925.34	225.27
925.64	225.23
925.94	225.20
926.24	225.26
926.55	225.24
926.85	225.21
927.15	225.19
927.45	225.20
927.75	225.22
928.05	225.21
928.35	225.22
928.65	225.24
928.95	225.26
929.26	225.24
929.56	225.23
929.86	225.25
930.16	225.23
930.46	225.26
930.76	225.29
931.06	225.27
931.36	225.25
931.66	225.25
931.96	225.25
932.26	225.27
932.56	225.21
932.86	225.23
933.16	225.24
933.46	225.25
933.76	225.21
934.06	225.21
934.36	225.24
934.66	225.20
934.96	225.17
935.26	225.15
935.56	225.13
935.86	225.10
936.16	225.08
936.46	225.08
936.76	225.05
937.06	225.03
937.36	225.02
937.66	225.04
937.96	225.02
938.26	225.02
938.56	225.02
938.86	225.04
939.16	225.04
939.46	225.07
939.76	225.07
940.06	225.06
940.35	225.04
940.65	224.98
940.95	225.02
941.25	224.97
941.55	224.97
941.85	224.97
942.15	224.98
942.45	225.01
942.75	225.02
943.04	225.04
943.34	225.05
943.64	225.03
943.94	225.04
944.24	225.04
944.54	225.05
944.84	225.05
945.13	225.00
945.43	225.00
945.73	224.98
946.03	224.97
946.33	224.99
946.62	224.98
946.92	225.00
947.22	224.99
947.52	225.02
947.82	225.04
948.11	225.03
948.41	225.04
948.71	225.02
949.01	225.02
949.31	224.99
949.60	224.97
949.90	225.00
950.20	224.97
950.50	225.00
950.79	224.99
951.09	225.03
951.39	225.09
951.69	225.06
951.98	225.07
952.28	225.09
952.58	225.09
952.87	225.09
953.17	225.07
953.47	225.06
953.76	225.07
954.06	225.03
954.36	225.02
954.66	225.02
954.95	225.04
955.25	225.06
955.55	225.06
955.84	225.07
956.14	225.09
956.44	225.13
956.73	225.09
957.03	225.06
957.32	225.03
957.62	225.00
957.92	225.05
958.21	225.04
958.51	225.15
958.81	225.17
959.10	225.21
959.40	225.24
959.69	225.26
959.99	225.27
960.29	225.32
960.58	225.34
960.88	225.36
961.17	225.39
961.47	225.39
961.76	225.40
962.06	225.43
962.36	225.39
962.65	225.37
962.95	225.40
963.24	225.40
963.54	225.40
963.83	225.44
964.13	225.45
964.42	225.43
964.72	225.36
965.01	225.36
965.31	225.35
965.60	225.37
965.90	225.42
966.19	225.38
966.49	225.38
966.78	225.39
967.08	225.41
967.37	225.37
967.67	225.34
967.96	225.35
968.26	225.35
968.55	225.39
968.85	225.41
969.14	225.39
969.43	225.42
969.73	225.44
970.02	225.45
970.32	225.43
970.61	225.43
970.91	225.40
971.20	225.38
971.49	225.37
971.79	225.36
972.08	225.32
972.38	225.36
972.67	225.35
972.96	225.33
973.26	225.31
973.55	225.37
973.85	225.40
974.14	225.38
974.43	225.38
974.73	225.35
975.02	225.31
975.31	225.30
975.61	225.31
975.90	225.28
976.19	225.24
976.49	225.25
976.78	225.28
977.07	225.26
977.37	225.31
977.66	225.33
977.95	225.30
978.24	225.30
978.54	225.31
978.83	225.31
979.12	225.31
979.42	225.31
979.71	225.28
980.00	225.23
980.29	225.26
980.59	225.26
980.88	225.28
981.17	225.32
981.46	225.33
981.76	225.36
982.05	225.41
982.34	225.45
982.63	225.41
982.93	225.40
983.22	225.41
983.51	225.39
983.80	225.39
984.09	225.42
984.39	225.39
984.68	225.39
984.97	225.36
985.26	225.37
985.55	225.35
985.85	225.34
986.14	225.38
986.43	225.34
986.72	225.30
987.01	225.28
987.30	225.24
987.59	225.26
987.89	225.18
988.18	225.10
988.47	225.07
988.76	225.08
989.05	225.06
989.34	225.06
989.63	225.05
989.92	225.04
990.22	225.01
990.51	225.02
990.80	224.97
991.09	225.03
991.38	225.03
991.67	225.05
991.96	225.04
992.25	225.05
992.54	225.07
992.83	225.06
993.12	225.07
993.41	225.08
993.70	225.08
993.99	225.15
994.28	225.16
994.58	225.16
994.87	225.13
995.16	225.15
995.45	225.15
995.74	225.10
996.03	225.11
996.32	225.15
996.61	225.15
996.90	225.18
997.19	225.14
997.48	225.11
997.77	225.10
998.06	225.06
998.34	225.05
998.63	225.05
998.92	225.08
999.21	225.08
999.50	225.12
999.79	225.08
1000.08	225.10
1000.37	225.17
1000.66	225.16
1000.95	225.19
1001.24	225.20
1001.53	225.22
1001.82	225.27
1002.11	225.26
1002.40	225.27
1002.68	225.27
1002.97	225.35
1003.26	225.35
1003.55	225.38
1003.84	225.38
1004.13	225.45
1004.42	225.46
1004.71	225.47
1004.99	225.48
1005.28	225.50
1005.57	225.45
1005.86	225.46
1006.15	225.42
1006.44	225.38
1006.72	225.42
1007.01	225.40
1007.30	225.41
1007.59	225.42
1007.88	225.38
1008.17	225.38
1008.45	225.35
1008.74	225.36
1009.03	225.30
1009.32	225.29
1009.60	225.28
1009.89	225.31
1010.18	225.25
1010.47	225.26
1010.76	225.24
1011.04	225.23
1011.33	225.25
1011.62	225.28
1011.91	225.30
1012.19	225.30
1012.48	225.29
1012.77	225.27
1013.05	225.32
1013.34	225.31
1013.63	225.28
1013.92	225.32
1014.20	225.28
1014.49	225.30
1014.78	225.25
1015.06	225.24
1015.35	225.24
1015.64	225.28
1015.92	225.27
1016.21	225.30
1016.50	225.28
1016.78	225.33
1017.07	225.32
1017.36	225.30
1017.64	225.29
1017.93	225.29
1018.22	225.29
1018.50	225.27
1018.79	225.29
1019.08	225.25
1019.36	225.25
1019.65	225.23
1019.93	225.23
1020.22	225.30
1020.51	225.34
1020.79	225.34
1021.08	225.11
1021.36	224.68
1021.65	225.48
1021.94	225.16
1022.22	225.30
1022.51	224.77
1022.79	225.67
1023.08	226.02
1023.36	226.40
1023.65	224.36
>>>>>End Processed Spectral Data<<<<<
