SpectraSuite Data File
++++++++++++++++++++++++++++++++++++
Date: Fri Feb 01 15:32:25 EST 2013
User: group
Dark Spectrum Present: No
Reference Spectrum Present: No
Number of Sampled Component Spectra: 1
Spectrometers: USB2E7196
Integration Time (usec): 35000 (USB2E7196)
Spectra Averaged: 100 (USB2E7196)
Boxcar Smoothing: 10 (USB2E7196)
Correct for Electrical Dark: No (USB2E7196)
Strobe/Lamp Enabled: No (USB2E7196)
Correct for Detector Non-linearity: No (USB2E7196)
Correct for Stray Light: No (USB2E7196)
Number of Pixels in Processed Spectrum: 2048
>>>>>Begin Processed Spectral Data<<<<<
339.09	0.00
339.48	214.66
339.86	217.11
340.24	217.47
340.63	219.21
341.01	221.66
341.39	221.62
341.78	223.25
342.16	224.16
342.54	224.65
342.93	213.06
343.31	223.82
343.69	224.36
344.07	224.78
344.46	225.21
344.84	225.59
345.22	225.83
345.60	226.08
345.99	226.25
346.37	226.40
346.75	226.51
347.13	226.60
347.52	226.65
347.90	226.72
348.28	226.79
348.66	226.85
349.05	226.89
349.43	226.98
349.81	227.05
350.19	227.07
350.57	227.14
350.96	227.23
351.34	227.33
351.72	227.45
352.10	227.53
352.48	227.63
352.87	227.67
353.25	227.74
353.63	227.82
354.01	227.92
354.39	227.96
354.77	228.04
355.15	228.15
355.54	228.23
355.92	228.27
356.30	228.33
356.68	228.45
357.06	228.53
357.44	228.54
357.82	228.63
358.20	228.73
358.58	228.81
358.97	228.87
359.35	228.96
359.73	229.01
360.11	229.09
360.49	229.14
360.87	229.20
361.25	229.26
361.63	229.32
362.01	229.37
362.39	229.43
362.77	229.45
363.15	229.45
363.53	229.48
363.91	229.47
364.29	229.49
364.67	229.41
365.05	229.42
365.43	229.45
365.81	229.47
366.19	229.48
366.57	229.51
366.95	229.48
367.33	229.44
367.71	229.41
368.09	229.37
368.47	229.36
368.85	229.33
369.23	229.32
369.61	229.25
369.99	229.22
370.37	229.19
370.75	229.19
371.13	229.14
371.51	229.06
371.89	229.06
372.27	229.00
372.65	228.98
373.03	228.90
373.41	228.84
373.78	228.74
374.16	228.63
374.54	228.52
374.92	228.44
375.30	228.37
375.68	228.28
376.06	228.25
376.44	228.15
376.82	228.07
377.19	227.99
377.57	227.93
377.95	227.81
378.33	227.76
378.71	227.64
379.09	227.56
379.47	227.52
379.84	227.40
380.22	227.33
380.60	227.22
380.98	227.18
381.36	227.10
381.73	227.04
382.11	227.00
382.49	226.92
382.87	226.86
383.25	226.81
383.62	226.85
384.00	226.78
384.38	226.74
384.76	226.71
385.13	226.74
385.51	226.70
385.89	226.65
386.27	226.58
386.64	226.57
387.02	226.53
387.40	226.51
387.78	226.52
388.15	226.53
388.53	226.51
388.91	226.43
389.29	226.42
389.66	226.38
390.04	226.35
390.42	226.38
390.79	226.36
391.17	226.36
391.55	226.26
391.92	226.26
392.30	226.26
392.68	226.25
393.05	226.22
393.43	226.23
393.81	226.22
394.18	226.22
394.56	226.23
394.94	226.29
395.31	226.29
395.69	226.32
396.06	226.34
396.44	226.39
396.82	226.45
397.19	226.56
397.57	226.64
397.95	226.75
398.32	226.78
398.70	226.85
399.07	226.92
399.45	227.00
399.82	227.06
400.20	227.12
400.58	227.22
400.95	227.25
401.33	227.34
401.70	227.55
402.08	227.67
402.45	227.78
402.83	227.88
403.20	228.00
403.58	228.11
403.95	228.25
404.33	228.39
404.71	228.55
405.08	228.73
405.46	228.84
405.83	228.96
406.21	229.12
406.58	229.30
406.96	229.49
407.33	229.66
407.70	229.84
408.08	230.13
408.45	230.33
408.83	230.57
409.20	230.78
409.58	230.94
409.95	231.18
410.33	231.45
410.70	231.69
411.08	231.98
411.45	232.32
411.82	232.61
412.20	232.95
412.57	233.33
412.95	233.63
413.32	234.03
413.69	234.46
414.07	234.89
414.44	235.32
414.82	235.79
415.19	236.35
415.56	236.90
415.94	237.44
416.31	238.10
416.68	238.72
417.06	239.44
417.43	240.12
417.81	240.89
418.18	241.66
418.55	242.49
418.93	243.36
419.30	244.26
419.67	245.20
420.04	246.17
420.42	247.16
420.79	248.37
421.16	249.53
421.54	250.68
421.91	251.90
422.28	253.20
422.66	254.52
423.03	255.81
423.40	257.15
423.77	258.55
424.15	259.94
424.52	261.46
424.89	263.10
425.26	264.68
425.64	266.14
426.01	267.74
426.38	269.42
426.75	271.11
427.13	272.79
427.50	274.58
427.87	276.44
428.24	278.27
428.61	279.97
428.99	281.90
429.36	284.01
429.73	286.06
430.10	288.10
430.47	290.15
430.85	292.26
431.22	294.54
431.59	296.92
431.96	299.17
432.33	301.63
432.70	303.98
433.08	306.76
433.45	309.36
433.82	311.93
434.19	314.82
434.56	317.66
434.93	320.34
435.30	322.97
435.68	325.87
436.05	328.74
436.42	331.54
436.79	334.06
437.16	336.79
437.53	339.67
437.90	342.46
438.27	345.21
438.64	348.07
439.01	350.67
439.38	352.91
439.75	355.08
440.13	357.58
440.50	359.92
440.87	361.80
441.24	363.76
441.61	365.98
441.98	367.47
442.35	369.27
442.72	371.10
443.09	372.91
443.46	373.90
443.83	374.51
444.20	375.01
444.57	375.88
444.94	376.11
445.31	376.43
445.68	376.79
446.05	376.87
446.42	376.49
446.79	376.05
447.16	375.59
447.53	375.24
447.90	374.07
448.27	372.86
448.64	371.27
449.01	370.14
449.37	368.15
449.74	366.26
450.11	363.99
450.48	361.52
450.85	358.98
451.22	356.87
451.59	354.82
451.96	352.87
452.33	350.27
452.70	347.99
453.07	345.09
453.43	342.18
453.80	339.42
454.17	336.74
454.54	334.19
454.91	331.49
455.28	328.78
455.65	326.30
456.02	323.89
456.38	321.73
456.75	319.05
457.12	316.82
457.49	314.62
457.86	312.47
458.23	310.65
458.59	308.62
458.96	306.53
459.33	304.68
459.70	302.84
460.07	301.29
460.43	299.56
460.80	298.00
461.17	296.57
461.54	295.04
461.91	293.59
462.27	292.15
462.64	290.90
463.01	289.64
463.38	288.35
463.74	286.99
464.11	285.85
464.48	284.81
464.85	283.64
465.21	282.75
465.58	281.81
465.95	280.68
466.32	279.77
466.68	278.84
467.05	277.93
467.42	277.04
467.78	276.10
468.15	275.17
468.52	274.50
468.88	273.58
469.25	272.81
469.62	272.17
469.98	271.45
470.35	270.80
470.72	270.17
471.08	269.46
471.45	268.90
471.82	268.33
472.18	267.73
472.55	267.31
472.92	266.73
473.28	266.24
473.65	265.79
474.02	265.31
474.38	264.91
474.75	264.57
475.11	264.21
475.48	263.94
475.85	263.74
476.21	263.50
476.58	263.36
476.94	263.25
477.31	263.08
477.67	262.94
478.04	262.85
478.41	262.79
478.77	262.83
479.14	262.75
479.50	262.76
479.87	262.84
480.23	262.89
480.60	262.93
480.96	263.05
481.33	263.27
481.69	263.48
482.06	263.71
482.42	263.93
482.79	264.20
483.15	264.55
483.52	264.91
483.88	265.28
484.25	265.64
484.61	266.04
484.98	266.50
485.34	267.07
485.71	267.64
486.07	268.24
486.44	268.85
486.80	269.57
487.17	270.30
487.53	271.11
487.90	271.98
488.26	272.95
488.62	273.95
488.99	274.91
489.35	275.94
489.72	277.08
490.08	278.26
490.44	279.49
490.81	280.77
491.17	282.11
491.54	283.57
491.90	285.12
492.26	286.79
492.63	288.52
492.99	290.28
493.36	292.21
493.72	294.24
494.08	296.35
494.45	298.61
494.81	300.99
495.17	303.48
495.54	306.09
495.90	308.79
496.26	311.59
496.63	314.54
496.99	317.67
497.35	320.93
497.72	324.34
498.08	327.88
498.44	331.58
498.80	335.53
499.17	339.57
499.53	343.72
499.89	348.09
500.26	352.61
500.62	357.29
500.98	362.22
501.34	367.24
501.71	372.60
502.07	378.06
502.43	383.65
502.79	389.45
503.16	395.51
503.52	401.78
503.88	408.12
504.24	414.76
504.60	421.62
504.97	428.76
505.33	436.04
505.69	443.75
506.05	451.53
506.41	459.39
506.78	467.59
507.14	476.09
507.50	484.83
507.86	493.86
508.22	503.11
508.59	512.36
508.95	522.05
509.31	531.83
509.67	541.91
510.03	552.23
510.39	562.78
510.75	573.60
511.12	584.57
511.48	595.97
511.84	607.43
512.20	618.97
512.56	630.90
512.92	643.08
513.28	655.48
513.64	667.93
514.00	680.70
514.37	693.66
514.73	706.71
515.09	719.73
515.45	733.07
515.81	746.61
516.17	760.56
516.53	774.59
516.89	788.81
517.25	803.04
517.61	817.54
517.97	832.03
518.33	846.45
518.69	861.21
519.05	876.15
519.41	891.33
519.77	906.94
520.13	922.42
520.49	937.82
520.85	953.23
521.21	969.08
521.57	985.29
521.93	1001.10
522.29	1017.55
522.65	1033.87
523.01	1050.11
523.37	1066.17
523.73	1082.36
524.09	1098.49
524.45	1114.78
524.81	1131.34
525.17	1148.14
525.53	1165.18
525.89	1182.10
526.25	1199.06
526.61	1215.56
526.97	1232.48
527.33	1248.99
527.68	1265.66
528.04	1282.21
528.40	1298.85
528.76	1315.91
529.12	1332.56
529.48	1349.39
529.84	1365.42
530.20	1382.11
530.56	1399.21
530.91	1416.65
531.27	1433.45
531.63	1450.14
531.99	1466.85
532.35	1482.89
532.71	1498.75
533.07	1514.85
533.42	1530.74
533.78	1546.77
534.14	1562.99
534.50	1578.24
534.86	1594.12
535.21	1609.35
535.57	1625.36
535.93	1640.93
536.29	1655.71
536.65	1670.80
537.00	1685.72
537.36	1701.03
537.72	1715.55
538.08	1729.92
538.44	1743.73
538.79	1757.78
539.15	1771.24
539.51	1784.94
539.87	1799.37
540.22	1813.19
540.58	1827.11
540.94	1840.47
541.29	1853.45
541.65	1866.20
542.01	1879.46
542.37	1891.89
542.72	1904.39
543.08	1916.19
543.44	1928.63
543.79	1939.99
544.15	1951.08
544.51	1962.69
544.87	1973.75
545.22	1984.60
545.58	1994.99
545.94	2004.68
546.29	2014.40
546.65	2024.38
547.01	2033.65
547.36	2042.43
547.72	2050.84
548.07	2058.63
548.43	2066.93
548.79	2074.93
549.14	2082.55
549.50	2090.06
549.86	2097.81
550.21	2105.05
550.57	2112.19
550.92	2118.80
551.28	2125.88
551.64	2132.94
551.99	2139.37
552.35	2145.54
552.70	2151.66
553.06	2157.57
553.41	2164.13
553.77	2170.29
554.13	2176.50
554.48	2182.77
554.84	2188.19
555.19	2193.68
555.55	2198.88
555.90	2203.38
556.26	2208.24
556.61	2212.83
556.97	2216.97
557.32	2220.96
557.68	2225.20
558.03	2229.48
558.39	2233.13
558.74	2237.66
559.10	2241.38
559.45	2245.09
559.81	2249.41
560.16	2253.23
560.52	2256.53
560.87	2260.00
561.23	2262.58
561.58	2265.51
561.94	2267.94
562.29	2270.35
562.64	2272.94
563.00	2275.64
563.35	2279.15
563.71	2282.21
564.06	2285.44
564.42	2288.24
564.77	2290.78
565.12	2293.01
565.48	2294.78
565.83	2296.48
566.19	2297.83
566.54	2298.89
566.89	2299.98
567.25	2300.52
567.60	2301.91
567.96	2303.53
568.31	2304.30
568.66	2305.41
569.02	2305.91
569.37	2306.27
569.72	2307.04
570.08	2307.15
570.43	2307.15
570.78	2306.49
571.14	2305.04
571.49	2303.79
571.84	2303.52
572.20	2302.21
572.55	2301.06
572.90	2299.73
573.26	2298.37
573.61	2296.55
573.96	2294.69
574.31	2291.67
574.67	2288.52
575.02	2284.76
575.37	2281.26
575.72	2277.40
576.08	2274.09
576.43	2270.71
576.78	2266.87
577.13	2263.76
577.49	2260.60
577.84	2256.94
578.19	2253.03
578.54	2249.22
578.90	2244.84
579.25	2239.17
579.60	2234.20
579.95	2229.23
580.30	2224.14
580.66	2219.00
581.01	2214.09
581.36	2208.90
581.71	2204.69
582.06	2200.19
582.42	2195.72
582.77	2190.50
583.12	2185.77
583.47	2180.93
583.82	2175.75
584.17	2170.37
584.53	2164.80
584.88	2159.04
585.23	2153.28
585.58	2147.79
585.93	2142.32
586.28	2137.52
586.63	2132.33
586.98	2127.37
587.34	2122.49
587.69	2117.49
588.04	2112.17
588.39	2106.45
588.74	2100.14
589.09	2093.95
589.44	2087.17
589.79	2081.11
590.14	2075.36
590.49	2068.88
590.84	2062.47
591.19	2056.45
591.54	2049.98
591.89	2042.37
592.25	2035.55
592.60	2028.20
592.95	2020.57
593.30	2013.14
593.65	2005.46
594.00	1998.49
594.35	1991.12
594.70	1983.04
595.05	1975.64
595.40	1968.30
595.75	1960.69
596.10	1954.37
596.45	1947.51
596.80	1941.24
597.15	1934.58
597.50	1927.38
597.85	1920.79
598.19	1914.08
598.54	1906.88
598.89	1900.31
599.24	1894.57
599.59	1887.89
599.94	1881.62
600.29	1875.27
600.64	1868.81
600.99	1861.35
601.34	1854.46
601.69	1847.45
602.04	1840.51
602.39	1833.10
602.74	1826.15
603.08	1819.47
603.43	1812.74
603.78	1805.44
604.13	1798.15
604.48	1790.71
604.83	1783.88
605.18	1776.89
605.53	1768.86
605.87	1760.88
606.22	1753.58
606.57	1745.58
606.92	1738.15
607.27	1731.01
607.62	1724.05
607.96	1716.57
608.31	1709.92
608.66	1702.26
609.01	1694.58
609.36	1687.03
609.70	1679.00
610.05	1670.90
610.40	1663.04
610.75	1654.69
611.10	1647.01
611.44	1638.80
611.79	1630.94
612.14	1622.22
612.49	1613.09
612.83	1604.64
613.18	1596.64
613.53	1588.57
613.88	1580.00
614.22	1571.81
614.57	1563.22
614.92	1555.24
615.27	1547.66
615.61	1539.39
615.96	1531.39
616.31	1523.94
616.65	1516.49
617.00	1508.99
617.35	1501.40
617.70	1492.97
618.04	1484.42
618.39	1476.21
618.74	1468.47
619.08	1460.08
619.43	1452.46
619.78	1445.53
620.12	1438.40
620.47	1430.70
620.82	1422.57
621.16	1415.20
621.51	1407.53
621.85	1399.83
622.20	1391.23
622.55	1382.82
622.89	1374.85
623.24	1367.23
623.59	1359.88
623.93	1352.42
624.28	1345.31
624.62	1337.82
624.97	1330.87
625.32	1324.09
625.66	1317.02
626.01	1309.80
626.35	1302.27
626.70	1294.51
627.04	1286.73
627.39	1278.92
627.73	1271.53
628.08	1264.49
628.43	1257.01
628.77	1249.56
629.12	1242.03
629.46	1234.85
629.81	1227.55
630.15	1220.36
630.50	1212.92
630.84	1204.62
631.19	1196.72
631.53	1189.18
631.88	1181.47
632.22	1173.78
632.57	1166.52
632.91	1158.98
633.26	1151.54
633.60	1144.27
633.95	1137.22
634.29	1130.28
634.64	1123.67
634.98	1116.36
635.32	1109.28
635.67	1102.76
636.01	1096.16
636.36	1089.41
636.70	1082.93
637.05	1076.35
637.39	1069.96
637.73	1063.45
638.08	1057.51
638.42	1051.49
638.77	1044.92
639.11	1038.46
639.45	1032.08
639.80	1025.49
640.14	1019.13
640.49	1012.70
640.83	1006.34
641.17	1000.00
641.52	993.64
641.86	987.22
642.20	981.35
642.55	975.11
642.89	968.52
643.23	961.98
643.58	956.17
643.92	949.89
644.26	943.86
644.61	937.73
644.95	931.73
645.29	925.12
645.64	918.42
645.98	912.13
646.32	906.28
646.66	900.26
647.01	894.41
647.35	888.69
647.69	882.87
648.04	877.38
648.38	871.70
648.72	865.62
649.06	859.47
649.41	853.63
649.75	847.55
650.09	841.77
650.43	836.02
650.78	829.81
651.12	823.94
651.46	818.25
651.80	812.53
652.14	807.10
652.49	801.75
652.83	796.58
653.17	790.86
653.51	785.15
653.85	779.73
654.20	774.08
654.54	767.99
654.88	762.23
655.22	756.37
655.56	750.63
655.90	745.20
656.25	739.95
656.59	734.49
656.93	729.43
657.27	724.24
657.61	718.82
657.95	713.74
658.29	708.62
658.64	703.31
658.98	698.02
659.32	692.56
659.66	687.36
660.00	681.97
660.34	677.03
660.68	672.17
661.02	667.14
661.36	662.41
661.70	657.91
662.05	653.57
662.39	649.24
662.73	644.81
663.07	640.49
663.41	636.08
663.75	631.61
664.09	627.01
664.43	622.67
664.77	618.56
665.11	614.37
665.45	610.30
665.79	606.25
666.13	602.13
666.47	598.05
666.81	593.93
667.15	589.84
667.49	586.03
667.83	582.25
668.17	578.33
668.51	574.27
668.85	570.34
669.19	566.45
669.53	562.54
669.87	558.67
670.21	554.92
670.55	551.27
670.89	547.88
671.23	544.49
671.57	540.95
671.91	537.39
672.25	533.94
672.58	530.40
672.92	527.01
673.26	523.89
673.60	520.76
673.94	517.61
674.28	514.74
674.62	511.78
674.96	508.64
675.30	505.73
675.64	502.81
675.97	500.04
676.31	497.20
676.65	494.34
676.99	491.60
677.33	488.77
677.67	485.98
678.01	482.94
678.34	479.94
678.68	477.09
679.02	474.26
679.36	471.45
679.70	468.75
680.04	465.98
680.37	463.11
680.71	460.27
681.05	457.70
681.39	454.95
681.73	452.30
682.06	449.73
682.40	447.17
682.74	444.65
683.08	442.08
683.42	439.47
683.75	436.94
684.09	434.44
684.43	431.93
684.77	429.42
685.10	427.07
685.44	424.83
685.78	422.55
686.12	420.30
686.45	418.05
686.79	415.77
687.13	413.53
687.46	411.34
687.80	409.25
688.14	407.00
688.48	404.98
688.81	402.67
689.15	400.50
689.49	398.40
689.82	396.34
690.16	394.26
690.50	392.29
690.83	390.37
691.17	388.39
691.51	386.52
691.84	384.71
692.18	382.79
692.52	380.71
692.85	378.78
693.19	376.91
693.52	375.07
693.86	373.24
694.20	371.51
694.53	369.73
694.87	367.88
695.21	366.15
695.54	364.32
695.88	362.63
696.21	360.89
696.55	359.20
696.88	357.52
697.22	355.86
697.56	354.24
697.89	352.56
698.23	350.92
698.56	349.30
698.90	347.70
699.23	346.04
699.57	344.54
699.90	343.02
700.24	341.49
700.58	339.95
700.91	338.45
701.25	337.02
701.58	335.64
701.92	334.25
702.25	332.89
702.59	331.50
702.92	330.20
703.26	328.95
703.59	327.66
703.93	326.49
704.26	325.22
704.60	323.94
704.93	322.71
705.26	321.52
705.60	320.38
705.93	319.24
706.27	318.23
706.60	317.18
706.94	316.06
707.27	314.95
707.61	313.88
707.94	312.86
708.27	311.74
708.61	310.66
708.94	309.65
709.28	308.63
709.61	307.70
709.94	306.71
710.28	305.65
710.61	304.69
710.95	303.60
711.28	302.68
711.61	301.74
711.95	300.80
712.28	299.82
712.61	298.80
712.95	297.86
713.28	296.97
713.61	296.04
713.95	295.18
714.28	294.32
714.61	293.48
714.95	292.62
715.28	291.79
715.61	290.93
715.95	290.09
716.28	289.22
716.61	288.40
716.95	287.63
717.28	286.91
717.61	286.15
717.94	285.43
718.28	284.66
718.61	283.93
718.94	283.29
719.27	282.63
719.61	282.01
719.94	281.37
720.27	280.62
720.60	280.00
720.94	279.39
721.27	278.84
721.60	278.27
721.93	277.70
722.27	277.15
722.60	276.60
722.93	276.04
723.26	275.53
723.59	274.94
723.93	274.37
724.26	273.83
724.59	273.27
724.92	272.72
725.25	272.20
725.59	271.67
725.92	271.12
726.25	270.59
726.58	270.10
726.91	269.59
727.24	269.15
727.57	268.66
727.91	268.13
728.24	267.63
728.57	267.11
728.90	266.66
729.23	266.15
729.56	265.75
729.89	265.30
730.22	264.84
730.55	264.37
730.89	263.92
731.22	263.49
731.55	263.06
731.88	262.60
732.21	262.18
732.54	261.76
732.87	261.35
733.20	261.00
733.53	260.59
733.86	260.21
734.19	259.80
734.52	259.43
734.85	259.15
735.18	258.75
735.51	258.40
735.84	258.01
736.17	257.67
736.50	257.22
736.83	256.97
737.16	256.61
737.49	256.30
737.82	255.96
738.15	255.61
738.48	255.27
738.81	254.96
739.14	254.63
739.47	254.31
739.80	253.96
740.13	253.65
740.46	253.34
740.79	253.00
741.12	252.71
741.45	252.40
741.78	252.03
742.11	251.72
742.44	251.38
742.77	251.08
743.10	250.78
743.43	250.47
743.75	250.04
744.08	249.88
744.41	249.59
744.74	249.32
745.07	249.06
745.40	248.80
745.73	248.59
746.06	248.31
746.39	248.07
746.71	247.85
747.04	247.56
747.37	247.31
747.70	247.07
748.03	246.80
748.36	246.55
748.68	246.32
749.01	246.08
749.34	245.88
749.67	245.64
750.00	245.42
750.33	245.29
750.65	245.12
750.98	244.78
751.31	244.57
751.64	244.36
751.97	244.17
752.29	243.97
752.62	243.70
752.95	243.49
753.28	243.30
753.60	243.11
753.93	242.93
754.26	242.73
754.59	242.50
754.91	242.31
755.24	242.11
755.57	241.92
755.90	241.73
756.22	241.50
756.55	241.33
756.88	241.12
757.20	240.91
757.53	240.73
757.86	240.54
758.19	240.39
758.51	240.23
758.84	240.00
759.17	239.85
759.49	239.70
759.82	239.61
760.15	239.45
760.47	239.29
760.80	239.13
761.13	238.99
761.45	238.86
761.78	238.72
762.11	238.57
762.43	238.42
762.76	238.27
763.08	238.18
763.41	238.07
763.74	237.93
764.06	237.77
764.39	237.59
764.71	237.45
765.04	237.31
765.37	237.18
765.69	237.07
766.02	236.93
766.34	236.78
766.67	236.59
767.00	236.48
767.32	236.39
767.65	236.37
767.97	236.27
768.30	236.14
768.62	236.03
768.95	235.90
769.27	235.82
769.60	235.73
769.92	235.59
770.25	235.45
770.57	235.37
770.90	235.27
771.22	235.17
771.55	235.09
771.87	235.05
772.20	234.95
772.52	234.97
772.85	235.01
773.17	234.95
773.50	234.87
773.82	234.77
774.15	234.63
774.47	234.43
774.80	234.33
775.12	234.26
775.45	234.22
775.77	234.16
776.09	234.04
776.42	233.94
776.74	233.91
777.07	233.86
777.39	233.75
777.72	233.68
778.04	233.63
778.36	233.55
778.69	233.44
779.01	233.41
779.33	233.24
779.66	233.01
779.98	232.93
780.31	232.87
780.63	232.79
780.95	232.76
781.28	232.71
781.60	232.62
781.92	232.55
782.25	232.46
782.57	232.40
782.89	232.34
783.22	232.31
783.54	232.20
783.86	232.13
784.19	232.08
784.51	232.05
784.83	231.99
785.16	231.91
785.48	231.87
785.80	231.76
786.12	231.73
786.45	231.71
786.77	231.67
787.09	231.62
787.42	231.56
787.74	231.51
788.06	231.45
788.38	231.45
788.71	231.39
789.03	231.33
789.35	231.30
789.67	231.28
789.99	231.21
790.32	231.16
790.64	231.12
790.96	231.17
791.28	231.09
791.61	231.06
791.93	231.06
792.25	231.01
792.57	231.07
792.89	230.98
793.21	230.93
793.54	230.87
793.86	230.82
794.18	230.79
794.50	230.76
794.82	230.71
795.14	230.67
795.47	230.62
795.79	230.59
796.11	230.50
796.43	230.46
796.75	230.44
797.07	230.41
797.39	230.38
797.71	230.26
798.04	230.26
798.36	230.22
798.68	230.18
799.00	230.16
799.32	230.10
799.64	230.13
799.96	230.11
800.28	230.10
800.60	230.06
800.92	230.08
801.24	230.01
801.56	230.00
801.89	229.95
802.21	229.96
802.53	229.93
802.85	229.97
803.17	229.98
803.49	229.91
803.81	229.86
804.13	229.83
804.45	229.77
804.77	229.72
805.09	229.66
805.41	229.61
805.73	229.58
806.05	229.52
806.37	229.47
806.69	229.45
807.01	229.41
807.33	229.40
807.65	229.27
807.97	229.29
808.28	229.23
808.60	229.21
808.92	229.20
809.24	229.25
809.56	229.20
809.88	229.15
810.20	229.19
810.52	229.22
810.84	229.19
811.16	229.19
811.48	229.16
811.80	229.18
812.12	229.17
812.43	229.17
812.75	229.12
813.07	229.09
813.39	229.06
813.71	229.06
814.03	229.04
814.35	229.07
814.67	229.02
814.98	229.02
815.30	229.02
815.62	228.98
815.94	228.86
816.26	228.89
816.58	228.88
816.89	228.85
817.21	228.81
817.53	228.81
817.85	228.81
818.17	228.81
818.48	228.78
818.80	228.80
819.12	228.74
819.44	228.72
819.76	228.70
820.07	228.66
820.39	228.63
820.71	228.62
821.03	228.61
821.34	228.58
821.66	228.59
821.98	228.59
822.30	228.56
822.61	228.64
822.93	228.57
823.25	228.52
823.57	228.48
823.88	228.51
824.20	228.47
824.52	228.47
824.83	228.48
825.15	228.47
825.47	228.47
825.79	228.49
826.10	228.49
826.42	228.45
826.74	228.47
827.05	228.47
827.37	228.46
827.69	228.41
828.00	228.45
828.32	228.43
828.64	228.36
828.95	228.40
829.27	228.34
829.58	228.35
829.90	228.38
830.22	228.38
830.53	228.33
830.85	228.33
831.17	228.25
831.48	228.20
831.80	228.21
832.11	228.20
832.43	228.15
832.75	228.14
833.06	228.20
833.38	228.19
833.69	228.18
834.01	228.16
834.32	228.16
834.64	228.09
834.96	228.09
835.27	228.10
835.59	228.04
835.90	228.01
836.22	228.00
836.53	227.96
836.85	227.93
837.16	228.06
837.48	228.04
837.79	228.08
838.11	228.08
838.42	228.06
838.74	228.06
839.05	228.06
839.37	228.04
839.68	227.97
840.00	227.95
840.31	227.93
840.63	227.94
840.94	227.92
841.26	227.91
841.57	227.88
841.88	227.89
842.20	227.89
842.51	227.88
842.83	227.84
843.14	227.90
843.46	227.85
843.77	227.71
844.08	227.71
844.40	227.69
844.71	227.65
845.03	227.62
845.34	227.57
845.65	227.55
845.97	227.54
846.28	227.57
846.60	227.58
846.91	227.56
847.22	227.49
847.54	227.50
847.85	227.50
848.16	227.51
848.48	227.46
848.79	227.48
849.10	227.49
849.42	227.50
849.73	227.42
850.04	227.43
850.36	227.41
850.67	227.40
850.98	227.40
851.30	227.40
851.61	227.36
851.92	227.35
852.23	227.39
852.55	227.37
852.86	227.36
853.17	227.35
853.49	227.38
853.80	227.45
854.11	227.48
854.42	227.50
854.74	227.48
855.05	227.52
855.36	227.49
855.67	227.48
855.99	227.49
856.30	227.62
856.61	227.66
856.92	227.68
857.23	227.67
857.55	227.66
857.86	227.66
858.17	227.70
858.48	227.71
858.79	227.68
859.11	227.69
859.42	227.69
859.73	227.66
860.04	227.63
860.35	227.58
860.66	227.55
860.98	227.52
861.29	227.55
861.60	227.51
861.91	227.52
862.22	227.50
862.53	227.48
862.84	227.32
863.16	227.29
863.47	227.25
863.78	227.25
864.09	227.23
864.40	227.22
864.71	227.24
865.02	227.22
865.33	227.17
865.64	227.16
865.95	227.11
866.27	227.17
866.58	227.16
866.89	227.18
867.20	227.17
867.51	227.17
867.82	227.13
868.13	227.18
868.44	227.14
868.75	227.17
869.06	227.16
869.37	227.19
869.68	227.18
869.99	227.20
870.30	227.20
870.61	227.22
870.92	227.23
871.23	227.19
871.54	227.20
871.85	227.25
872.16	227.26
872.47	227.28
872.78	227.22
873.09	227.20
873.40	227.21
873.71	227.23
874.02	227.22
874.33	227.22
874.64	227.17
874.95	227.18
875.26	227.14
875.56	227.13
875.87	227.14
876.18	227.12
876.49	227.22
876.80	227.21
877.11	227.20
877.42	227.18
877.73	227.18
878.04	227.15
878.35	227.18
878.66	227.21
878.96	227.22
879.27	227.23
879.58	227.23
879.89	227.21
880.20	227.22
880.51	227.20
880.82	227.21
881.12	227.23
881.43	227.25
881.74	227.28
882.05	227.28
882.36	227.27
882.67	227.26
882.97	227.19
883.28	227.16
883.59	227.15
883.90	227.13
884.21	227.14
884.51	227.15
884.82	227.10
885.13	227.06
885.44	227.03
885.74	227.02
886.05	227.03
886.36	227.00
886.67	226.97
886.98	227.07
887.28	227.05
887.59	227.03
887.90	226.99
888.20	226.96
888.51	226.96
888.82	226.94
889.13	226.98
889.43	227.03
889.74	227.08
890.05	227.08
890.35	227.09
890.66	227.09
890.97	227.08
891.28	227.07
891.58	227.10
891.89	227.11
892.20	227.11
892.50	227.08
892.81	227.11
893.12	227.09
893.42	226.99
893.73	227.03
894.04	227.04
894.34	227.08
894.65	227.10
894.95	227.08
895.26	227.11
895.57	227.15
895.87	227.07
896.18	227.07
896.48	227.09
896.79	227.10
897.10	227.12
897.40	227.12
897.71	227.12
898.01	227.09
898.32	227.10
898.63	227.07
898.93	227.08
899.24	227.09
899.54	227.09
899.85	227.13
900.15	227.09
900.46	227.09
900.76	227.08
901.07	227.04
901.38	227.07
901.68	227.05
901.99	226.99
902.29	227.00
902.60	226.98
902.90	226.97
903.21	226.96
903.51	226.97
903.82	226.99
904.12	227.02
904.43	227.01
904.73	227.03
905.03	227.04
905.34	227.14
905.64	227.14
905.95	227.15
906.25	227.15
906.56	227.14
906.86	227.13
907.17	227.15
907.47	227.14
907.77	227.12
908.08	227.13
908.38	227.14
908.69	227.13
908.99	227.14
909.30	227.15
909.60	227.12
909.90	227.07
910.21	227.08
910.51	227.07
910.81	227.07
911.12	227.07
911.42	227.10
911.73	226.97
912.03	226.96
912.33	226.97
912.64	226.96
912.94	226.96
913.24	226.93
913.55	226.90
913.85	226.90
914.15	226.94
914.46	226.94
914.76	226.93
915.06	226.94
915.37	226.91
915.67	226.89
915.97	226.92
916.27	226.94
916.58	226.92
916.88	226.88
917.18	226.91
917.49	226.95
917.79	226.92
918.09	226.95
918.39	226.97
918.70	226.99
919.00	227.01
919.30	227.06
919.60	227.08
919.91	227.08
920.21	227.09
920.51	227.05
920.81	227.06
921.12	227.05
921.42	227.07
921.72	227.10
922.02	227.14
922.32	227.14
922.63	227.15
922.93	227.19
923.23	227.24
923.53	227.19
923.83	227.13
924.13	227.16
924.44	227.18
924.74	227.20
925.04	227.22
925.34	227.19
925.64	227.16
925.94	227.15
926.24	227.18
926.55	227.19
926.85	227.21
927.15	227.22
927.45	227.22
927.75	227.20
928.05	227.19
928.35	227.16
928.65	227.19
928.95	227.20
929.26	227.16
929.56	227.19
929.86	227.22
930.16	227.22
930.46	227.20
930.76	227.21
931.06	227.17
931.36	227.11
931.66	227.14
931.96	227.17
932.26	227.18
932.56	227.17
932.86	227.17
933.16	227.16
933.46	227.10
933.76	227.09
934.06	227.10
934.36	227.14
934.66	227.13
934.96	227.12
935.26	227.15
935.56	227.17
935.86	227.11
936.16	227.10
936.46	227.12
936.76	227.11
937.06	227.11
937.36	227.12
937.66	227.16
937.96	227.13
938.26	227.08
938.56	227.08
938.86	227.06
939.16	227.04
939.46	227.06
939.76	227.11
940.06	227.16
940.35	227.13
940.65	227.07
940.95	227.08
941.25	227.04
941.55	226.97
941.85	226.98
942.15	227.00
942.45	227.03
942.75	226.99
943.04	227.00
943.34	227.00
943.64	226.99
943.94	226.98
944.24	226.99
944.54	227.01
944.84	227.01
945.13	227.02
945.43	227.02
945.73	226.99
946.03	227.01
946.33	226.95
946.62	226.95
946.92	226.95
947.22	226.96
947.52	226.98
947.82	227.00
948.11	226.97
948.41	226.93
948.71	226.92
949.01	226.93
949.31	226.89
949.60	226.88
949.90	226.89
950.20	226.88
950.50	226.87
950.79	226.86
951.09	226.85
951.39	226.86
951.69	226.88
951.98	226.90
952.28	226.86
952.58	226.89
952.87	226.89
953.17	226.92
953.47	226.89
953.76	226.86
954.06	226.86
954.36	226.86
954.66	226.86
954.95	226.88
955.25	226.90
955.55	226.94
955.84	226.90
956.14	226.88
956.44	226.85
956.73	226.84
957.03	226.82
957.32	226.83
957.62	226.82
957.92	226.81
958.21	226.77
958.51	226.89
958.81	226.87
959.10	226.87
959.40	226.87
959.69	226.89
959.99	226.92
960.29	226.91
960.58	226.88
960.88	226.89
961.17	226.87
961.47	226.86
961.76	226.85
962.06	226.90
962.36	226.88
962.65	226.89
962.95	226.91
963.24	226.91
963.54	226.90
963.83	226.89
964.13	226.87
964.42	226.86
964.72	226.79
965.01	226.82
965.31	226.82
965.60	226.80
965.90	226.84
966.19	226.80
966.49	226.84
966.78	226.86
967.08	226.87
967.37	226.88
967.67	226.87
967.96	226.88
968.26	226.83
968.55	226.85
968.85	226.87
969.14	226.86
969.43	226.88
969.73	226.84
970.02	226.84
970.32	226.86
970.61	226.87
970.91	226.82
971.20	226.78
971.49	226.78
971.79	226.79
972.08	226.76
972.38	226.75
972.67	226.72
972.96	226.71
973.26	226.69
973.55	226.69
973.85	226.68
974.14	226.68
974.43	226.73
974.73	226.72
975.02	226.71
975.31	226.71
975.61	226.70
975.90	226.70
976.19	226.71
976.49	226.72
976.78	226.72
977.07	226.73
977.37	226.75
977.66	226.73
977.95	226.75
978.24	226.73
978.54	226.80
978.83	226.79
979.12	226.76
979.42	226.74
979.71	226.73
980.00	226.73
980.29	226.73
980.59	226.68
980.88	226.69
981.17	226.67
981.46	226.68
981.76	226.68
982.05	226.72
982.34	226.72
982.63	226.75
982.93	226.75
983.22	226.78
983.51	226.78
983.80	226.77
984.09	226.75
984.39	226.74
984.68	226.72
984.97	226.71
985.26	226.71
985.55	226.73
985.85	226.73
986.14	226.72
986.43	226.71
986.72	226.69
987.01	226.66
987.30	226.65
987.59	226.63
987.89	226.61
988.18	226.58
988.47	226.58
988.76	226.56
989.05	226.55
989.34	226.52
989.63	226.54
989.92	226.53
990.22	226.54
990.51	226.52
990.80	226.51
991.09	226.52
991.38	226.56
991.67	226.55
991.96	226.54
992.25	226.61
992.54	226.63
992.83	226.63
993.12	226.64
993.41	226.68
993.70	226.70
993.99	226.74
994.28	226.75
994.58	226.76
994.87	226.74
995.16	226.74
995.45	226.75
995.74	226.72
996.03	226.73
996.32	226.75
996.61	226.78
996.90	226.79
997.19	226.81
997.48	226.81
997.77	226.78
998.06	226.79
998.34	226.77
998.63	226.75
998.92	226.76
999.21	226.81
999.50	226.80
999.79	226.79
1000.08	226.80
1000.37	226.83
1000.66	226.83
1000.95	226.85
1001.24	226.87
1001.53	226.88
1001.82	226.88
1002.11	226.89
1002.40	226.87
1002.68	226.90
1002.97	226.93
1003.26	226.89
1003.55	226.88
1003.84	226.92
1004.13	226.97
1004.42	226.95
1004.71	226.96
1004.99	226.94
1005.28	226.94
1005.57	226.91
1005.86	226.90
1006.15	226.89
1006.44	226.83
1006.72	226.84
1007.01	226.84
1007.30	226.86
1007.59	226.84
1007.88	226.84
1008.17	226.83
1008.45	226.84
1008.74	226.80
1009.03	226.81
1009.32	226.83
1009.60	226.84
1009.89	226.82
1010.18	226.76
1010.47	226.74
1010.76	226.71
1011.04	226.71
1011.33	226.69
1011.62	226.74
1011.91	226.75
1012.19	226.73
1012.48	226.77
1012.77	226.77
1013.05	226.77
1013.34	226.75
1013.63	226.77
1013.92	226.77
1014.20	226.75
1014.49	226.75
1014.78	226.75
1015.06	226.70
1015.35	226.67
1015.64	226.68
1015.92	226.69
1016.21	226.70
1016.50	226.69
1016.78	226.71
1017.07	226.73
1017.36	226.72
1017.64	226.71
1017.93	226.72
1018.22	226.72
1018.50	226.71
1018.79	226.67
1019.08	226.62
1019.36	226.63
1019.65	226.58
1019.93	226.58
1020.22	226.60
1020.51	226.61
1020.79	226.62
1021.08	226.75
1021.36	226.63
1021.65	226.09
1021.94	226.48
1022.22	226.83
1022.51	225.99
1022.79	226.66
1023.08	226.50
1023.36	227.43
1023.65	226.63
>>>>>End Processed Spectral Data<<<<<
