SpectraSuite Data File
++++++++++++++++++++++++++++++++++++
Date: Fri Feb 01 15:03:45 EST 2013
User: group
Dark Spectrum Present: No
Reference Spectrum Present: No
Number of Sampled Component Spectra: 1
Spectrometers: USB2E7196
Integration Time (usec): 35000 (USB2E7196)
Spectra Averaged: 100 (USB2E7196)
Boxcar Smoothing: 10 (USB2E7196)
Correct for Electrical Dark: No (USB2E7196)
Strobe/Lamp Enabled: No (USB2E7196)
Correct for Detector Non-linearity: No (USB2E7196)
Correct for Stray Light: No (USB2E7196)
Number of Pixels in Processed Spectrum: 2048
>>>>>Begin Processed Spectral Data<<<<<
339.09	0.00
339.48	215.13
339.86	216.61
340.24	217.88
340.63	219.25
341.01	222.23
341.39	222.48
341.78	223.39
342.16	225.34
342.54	225.46
342.93	213.71
343.31	224.53
343.69	225.09
344.07	225.55
344.46	226.00
344.84	226.42
345.22	226.65
345.60	226.88
345.99	227.08
346.37	227.17
346.75	227.29
347.13	227.35
347.52	227.38
347.90	227.44
348.28	227.43
348.66	227.47
349.05	227.44
349.43	227.43
349.81	227.51
350.19	227.54
350.57	227.57
350.96	227.61
351.34	227.66
351.72	227.74
352.10	227.84
352.48	227.86
352.87	227.88
353.25	227.95
353.63	228.01
354.01	228.08
354.39	228.17
354.77	228.23
355.15	228.30
355.54	228.39
355.92	228.41
356.30	228.49
356.68	228.62
357.06	228.71
357.44	228.76
357.82	228.81
358.20	228.91
358.58	228.98
358.97	229.05
359.35	229.13
359.73	229.20
360.11	229.25
360.49	229.31
360.87	229.35
361.25	229.38
361.63	229.47
362.01	229.48
362.39	229.47
362.77	229.49
363.15	229.51
363.53	229.53
363.91	229.58
364.29	229.59
364.67	229.49
365.05	229.50
365.43	229.50
365.81	229.52
366.19	229.50
366.57	229.54
366.95	229.53
367.33	229.49
367.71	229.44
368.09	229.43
368.47	229.42
368.85	229.42
369.23	229.42
369.61	229.34
369.99	229.35
370.37	229.35
370.75	229.33
371.13	229.27
371.51	229.21
371.89	229.17
372.27	229.13
372.65	229.12
373.03	229.04
373.41	229.02
373.78	228.95
374.16	228.86
374.54	228.76
374.92	228.70
375.30	228.65
375.68	228.57
376.06	228.49
376.44	228.45
376.82	228.36
377.19	228.28
377.57	228.21
377.95	228.10
378.33	228.01
378.71	227.87
379.09	227.82
379.47	227.74
379.84	227.66
380.22	227.60
380.60	227.47
380.98	227.39
381.36	227.33
381.73	227.25
382.11	227.22
382.49	227.14
382.87	227.04
383.25	226.98
383.62	227.04
384.00	226.97
384.38	226.90
384.76	226.86
385.13	226.82
385.51	226.76
385.89	226.70
386.27	226.68
386.64	226.68
387.02	226.65
387.40	226.59
387.78	226.56
388.15	226.51
388.53	226.47
388.91	226.46
389.29	226.41
389.66	226.40
390.04	226.34
390.42	226.36
390.79	226.38
391.17	226.34
391.55	226.19
391.92	226.17
392.30	226.16
392.68	226.14
393.05	226.13
393.43	226.14
393.81	226.18
394.18	226.15
394.56	226.16
394.94	226.16
395.31	226.17
395.69	226.20
396.06	226.25
396.44	226.31
396.82	226.32
397.19	226.40
397.57	226.41
397.95	226.49
398.32	226.48
398.70	226.54
399.07	226.63
399.45	226.72
399.82	226.83
400.20	226.88
400.58	226.96
400.95	227.03
401.33	227.14
401.70	227.27
402.08	227.41
402.45	227.51
402.83	227.63
403.20	227.75
403.58	227.87
403.95	227.99
404.33	228.13
404.71	228.28
405.08	228.48
405.46	228.65
405.83	228.80
406.21	228.98
406.58	229.13
406.96	229.32
407.33	229.52
407.70	229.72
408.08	230.03
408.45	230.22
408.83	230.45
409.20	230.69
409.58	230.87
409.95	231.12
410.33	231.39
410.70	231.65
411.08	231.97
411.45	232.27
411.82	232.58
412.20	232.96
412.57	233.41
412.95	233.72
413.32	234.13
413.69	234.53
414.07	234.94
414.44	235.40
414.82	235.85
415.19	236.40
415.56	236.94
415.94	237.46
416.31	238.13
416.68	238.74
417.06	239.44
417.43	240.19
417.81	240.98
418.18	241.77
418.55	242.64
418.93	243.49
419.30	244.39
419.67	245.33
420.04	246.26
420.42	247.25
420.79	248.45
421.16	249.61
421.54	250.83
421.91	252.08
422.28	253.38
422.66	254.75
423.03	256.04
423.40	257.37
423.77	258.77
424.15	260.19
424.52	261.71
424.89	263.32
425.26	264.80
425.64	266.22
426.01	267.81
426.38	269.46
426.75	271.18
427.13	272.94
427.50	274.75
427.87	276.62
428.24	278.47
428.61	280.19
428.99	282.10
429.36	284.24
429.73	286.32
430.10	288.35
430.47	290.43
430.85	292.55
431.22	294.79
431.59	297.17
431.96	299.48
432.33	301.97
432.70	304.34
433.08	307.21
433.45	309.90
433.82	312.54
434.19	315.45
434.56	318.22
434.93	320.88
435.30	323.54
435.68	326.47
436.05	329.33
436.42	332.14
436.79	334.71
437.16	337.36
437.53	340.20
437.90	343.04
438.27	345.74
438.64	348.61
439.01	351.22
439.38	353.51
439.75	355.66
440.13	358.20
440.50	360.56
440.87	362.41
441.24	364.36
441.61	366.54
441.98	368.01
442.35	369.84
442.72	371.71
443.09	373.48
443.46	374.44
443.83	375.03
444.20	375.53
444.57	376.37
444.94	376.68
445.31	377.01
445.68	377.33
446.05	377.45
446.42	377.06
446.79	376.67
447.16	376.21
447.53	375.85
447.90	374.66
448.27	373.50
448.64	371.90
449.01	370.73
449.37	368.74
449.74	366.83
450.11	364.56
450.48	362.06
450.85	359.53
451.22	357.43
451.59	355.38
451.96	353.45
452.33	350.83
452.70	348.48
453.07	345.62
453.43	342.71
453.80	339.91
454.17	337.21
454.54	334.63
454.91	331.89
455.28	329.21
455.65	326.71
456.02	324.23
456.38	322.08
456.75	319.41
457.12	317.13
457.49	314.89
457.86	312.71
458.23	310.84
458.59	308.77
458.96	306.64
459.33	304.77
459.70	302.87
460.07	301.33
460.43	299.56
460.80	297.95
461.17	296.46
461.54	294.95
461.91	293.49
462.27	292.01
462.64	290.75
463.01	289.39
463.38	288.09
463.74	286.71
464.11	285.55
464.48	284.51
464.85	283.38
465.21	282.47
465.58	281.57
465.95	280.46
466.32	279.53
466.68	278.60
467.05	277.69
467.42	276.78
467.78	275.83
468.15	274.96
468.52	274.29
468.88	273.44
469.25	272.64
469.62	272.00
469.98	271.30
470.35	270.64
470.72	270.07
471.08	269.39
471.45	268.84
471.82	268.25
472.18	267.66
472.55	267.22
472.92	266.71
473.28	266.21
473.65	265.77
474.02	265.36
474.38	264.99
474.75	264.66
475.11	264.32
475.48	264.05
475.85	263.81
476.21	263.54
476.58	263.39
476.94	263.26
477.31	263.08
477.67	262.94
478.04	262.83
478.41	262.72
478.77	262.76
479.14	262.68
479.50	262.69
479.87	262.74
480.23	262.81
480.60	262.86
480.96	262.93
481.33	263.10
481.69	263.25
482.06	263.44
482.42	263.68
482.79	263.93
483.15	264.25
483.52	264.66
483.88	265.04
484.25	265.40
484.61	265.83
484.98	266.34
485.34	266.94
485.71	267.51
486.07	268.13
486.44	268.71
486.80	269.44
487.17	270.19
487.53	271.00
487.90	271.84
488.26	272.82
488.62	273.83
488.99	274.84
489.35	275.93
489.72	277.06
490.08	278.22
490.44	279.46
490.81	280.84
491.17	282.18
491.54	283.64
491.90	285.17
492.26	286.81
492.63	288.53
492.99	290.28
493.36	292.18
493.72	294.20
494.08	296.30
494.45	298.54
494.81	300.92
495.17	303.36
495.54	305.94
495.90	308.58
496.26	311.41
496.63	314.35
496.99	317.41
497.35	320.65
497.72	324.09
498.08	327.59
498.44	331.20
498.80	335.09
499.17	339.09
499.53	343.22
499.89	347.59
500.26	352.07
500.62	356.77
500.98	361.74
501.34	366.75
501.71	372.05
502.07	377.47
502.43	382.98
502.79	388.78
503.16	394.78
503.52	401.06
503.88	407.38
504.24	413.99
504.60	420.86
504.97	427.96
505.33	435.26
505.69	442.91
506.05	450.70
506.41	458.54
506.78	466.71
507.14	475.17
507.50	483.84
507.86	492.80
508.22	501.98
508.59	511.10
508.95	520.76
509.31	530.51
509.67	540.58
510.03	550.80
510.39	561.40
510.75	572.20
511.12	583.08
511.48	594.38
511.84	605.85
512.20	617.39
512.56	629.33
512.92	641.46
513.28	653.78
513.64	666.30
514.00	679.00
514.37	691.89
514.73	704.91
515.09	717.98
515.45	731.22
515.81	744.77
516.17	758.77
516.53	772.79
516.89	786.95
517.25	801.14
517.61	815.64
517.97	830.07
518.33	844.56
518.69	859.42
519.05	874.46
519.41	889.73
519.77	905.33
520.13	920.83
520.49	936.39
520.85	951.84
521.21	967.55
521.57	983.93
521.93	999.80
522.29	1016.26
522.65	1032.49
523.01	1048.78
523.37	1064.97
523.73	1081.22
524.09	1097.39
524.45	1113.91
524.81	1130.59
525.17	1147.50
525.53	1164.44
525.89	1181.31
526.25	1198.27
526.61	1214.69
526.97	1231.42
527.33	1247.86
527.68	1264.53
528.04	1280.98
528.40	1297.86
528.76	1315.01
529.12	1331.64
529.48	1348.57
529.84	1364.73
530.20	1381.60
530.56	1398.73
530.91	1416.13
531.27	1433.01
531.63	1449.58
531.99	1466.03
532.35	1482.13
532.71	1498.06
533.07	1514.48
533.42	1530.42
533.78	1546.44
534.14	1562.86
534.50	1578.29
534.86	1594.24
535.21	1609.45
535.57	1625.54
535.93	1640.96
536.29	1655.79
536.65	1670.97
537.00	1685.89
537.36	1701.36
537.72	1715.92
538.08	1730.36
538.44	1744.26
538.79	1758.18
539.15	1772.07
539.51	1786.06
539.87	1800.54
540.22	1814.42
540.58	1828.22
540.94	1841.75
541.29	1854.73
541.65	1867.56
542.01	1880.87
542.37	1893.32
542.72	1905.97
543.08	1917.79
543.44	1930.28
543.79	1941.62
544.15	1952.66
544.51	1964.20
544.87	1975.11
545.22	1985.89
545.58	1996.15
545.94	2005.93
546.29	2015.91
546.65	2025.65
547.01	2034.81
547.36	2043.58
547.72	2052.08
548.07	2059.85
548.43	2068.04
548.79	2076.18
549.14	2083.67
549.50	2090.96
549.86	2098.71
550.21	2105.82
550.57	2112.91
550.92	2119.45
551.28	2126.57
551.64	2133.54
551.99	2140.06
552.35	2146.17
552.70	2152.28
553.06	2158.32
553.41	2164.60
553.77	2170.66
554.13	2176.84
554.48	2182.93
554.84	2188.30
555.19	2193.57
555.55	2198.74
555.90	2203.12
556.26	2207.94
556.61	2212.60
556.97	2216.76
557.32	2220.79
557.68	2224.95
558.03	2229.24
558.39	2233.02
558.74	2237.43
559.10	2241.30
559.45	2244.92
559.81	2249.18
560.16	2252.95
560.52	2256.12
560.87	2259.67
561.23	2262.09
561.58	2264.98
561.94	2267.60
562.29	2269.98
562.64	2272.54
563.00	2275.23
563.35	2278.77
563.71	2281.66
564.06	2284.78
564.42	2287.71
564.77	2290.16
565.12	2292.38
565.48	2294.15
565.83	2295.81
566.19	2296.99
566.54	2297.86
566.89	2298.86
567.25	2299.45
567.60	2300.73
567.96	2302.22
568.31	2302.95
568.66	2303.94
569.02	2304.40
569.37	2304.58
569.72	2305.24
570.08	2305.24
570.43	2305.07
570.78	2304.18
571.14	2302.60
571.49	2301.12
571.84	2300.63
572.20	2299.15
572.55	2298.02
572.90	2296.53
573.26	2295.03
573.61	2293.27
573.96	2291.19
574.31	2288.22
574.67	2285.08
575.02	2281.37
575.37	2277.85
575.72	2273.77
576.08	2270.43
576.43	2266.95
576.78	2263.10
577.13	2259.77
577.49	2256.66
577.84	2253.01
578.19	2249.29
578.54	2245.39
578.90	2241.12
579.25	2235.58
579.60	2230.62
579.95	2225.47
580.30	2220.17
580.66	2214.83
581.01	2209.83
581.36	2205.01
581.71	2200.66
582.06	2195.97
582.42	2191.32
582.77	2186.17
583.12	2181.50
583.47	2176.58
583.82	2171.39
584.17	2166.08
584.53	2160.56
584.88	2154.62
585.23	2148.75
585.58	2143.26
585.93	2137.94
586.28	2133.01
586.63	2127.67
586.98	2122.50
587.34	2117.77
587.69	2112.85
588.04	2107.45
588.39	2101.69
588.74	2095.13
589.09	2088.84
589.44	2081.95
589.79	2075.88
590.14	2070.04
590.49	2063.36
590.84	2056.91
591.19	2050.70
591.54	2044.05
591.89	2036.44
592.25	2029.64
592.60	2022.32
592.95	2014.45
593.30	2006.87
593.65	1999.20
594.00	1992.11
594.35	1984.88
594.70	1976.74
595.05	1969.29
595.40	1961.94
595.75	1954.27
596.10	1947.80
596.45	1940.88
596.80	1934.67
597.15	1927.96
597.50	1920.78
597.85	1914.31
598.19	1907.55
598.54	1900.50
598.89	1893.81
599.24	1887.93
599.59	1881.12
599.94	1874.87
600.29	1868.46
600.64	1861.89
600.99	1854.25
601.34	1847.31
601.69	1840.26
602.04	1833.16
602.39	1825.81
602.74	1818.90
603.08	1812.07
603.43	1805.44
603.78	1798.30
604.13	1791.02
604.48	1783.60
604.83	1776.73
605.18	1769.72
605.53	1761.71
605.87	1753.67
606.22	1746.49
606.57	1738.49
606.92	1731.26
607.27	1724.04
607.62	1717.26
607.96	1709.92
608.31	1703.31
608.66	1695.73
609.01	1688.21
609.36	1680.75
609.70	1672.76
610.05	1664.73
610.40	1657.14
610.75	1648.71
611.10	1641.01
611.44	1632.68
611.79	1624.78
612.14	1616.02
612.49	1606.91
612.83	1598.60
613.18	1590.48
613.53	1582.37
613.88	1573.85
614.22	1565.61
614.57	1557.13
614.92	1549.04
615.27	1541.41
615.61	1533.11
615.96	1525.11
616.31	1517.45
616.65	1510.14
617.00	1502.56
617.35	1495.02
617.70	1486.58
618.04	1478.11
618.39	1469.86
618.74	1462.31
619.08	1453.98
619.43	1446.52
619.78	1439.57
620.12	1432.33
620.47	1424.83
620.82	1416.78
621.16	1409.38
621.51	1401.76
621.85	1394.11
622.20	1385.66
622.55	1377.45
622.89	1369.77
623.24	1362.17
623.59	1354.78
623.93	1347.20
624.28	1340.04
624.62	1332.46
624.97	1325.51
625.32	1318.89
625.66	1311.99
626.01	1304.83
626.35	1297.44
626.70	1289.64
627.04	1281.89
627.39	1274.18
627.73	1266.78
628.08	1259.72
628.43	1252.31
628.77	1244.96
629.12	1237.41
629.46	1230.21
629.81	1222.86
630.15	1215.64
630.50	1208.30
630.84	1200.14
631.19	1192.28
631.53	1184.79
631.88	1177.33
632.22	1169.69
632.57	1162.37
632.91	1154.82
633.26	1147.35
633.60	1140.07
633.95	1133.08
634.29	1126.14
634.64	1119.58
634.98	1112.30
635.32	1105.36
635.67	1098.99
636.01	1092.42
636.36	1085.74
636.70	1079.33
637.05	1072.75
637.39	1066.31
637.73	1059.85
638.08	1054.17
638.42	1048.27
638.77	1041.81
639.11	1035.24
639.45	1028.92
639.80	1022.25
640.14	1015.80
640.49	1009.33
640.83	1003.09
641.17	996.88
641.52	990.62
641.86	984.23
642.20	978.49
642.55	972.26
642.89	965.79
643.23	959.31
643.58	953.51
643.92	947.35
644.26	941.29
644.61	935.29
644.95	929.21
645.29	922.58
645.64	915.84
645.98	909.66
646.32	903.91
646.66	897.86
647.01	892.12
647.35	886.47
647.69	880.74
648.04	875.25
648.38	869.50
648.72	863.47
649.06	857.32
649.41	851.40
649.75	845.27
650.09	839.40
650.43	833.52
650.78	827.37
651.12	821.41
651.46	815.73
651.80	809.99
652.14	804.70
652.49	799.32
652.83	794.15
653.17	788.37
653.51	782.57
653.85	777.22
654.20	771.58
654.54	765.61
654.88	759.87
655.22	753.89
655.56	748.21
655.90	742.83
656.25	737.63
656.59	732.35
656.93	727.27
657.27	722.14
657.61	716.72
657.95	711.72
658.29	706.69
658.64	701.51
658.98	696.16
659.32	690.69
659.66	685.52
660.00	680.22
660.34	675.42
660.68	670.54
661.02	665.52
661.36	660.82
661.70	656.33
662.05	651.96
662.39	647.68
662.73	643.27
663.07	638.88
663.41	634.41
663.75	629.88
664.09	625.43
664.43	620.96
664.77	617.00
665.11	612.69
665.45	608.60
665.79	604.54
666.13	600.48
666.47	596.40
666.81	592.20
667.15	588.15
667.49	584.26
667.83	580.49
668.17	576.57
668.51	572.52
668.85	568.50
669.19	564.69
669.53	560.86
669.87	557.00
670.21	553.34
670.55	549.81
670.89	546.32
671.23	542.97
671.57	539.52
671.91	536.01
672.25	532.48
672.58	528.98
672.92	525.58
673.26	522.48
673.60	519.39
673.94	516.35
674.28	513.46
674.62	510.50
674.96	507.45
675.30	504.57
675.64	501.67
675.97	498.99
676.31	496.14
676.65	493.19
676.99	490.52
677.33	487.67
677.67	484.84
678.01	481.90
678.34	478.87
678.68	476.03
679.02	473.17
679.36	470.48
679.70	467.81
680.04	465.11
680.37	462.27
680.71	459.47
681.05	456.90
681.39	454.14
681.73	451.47
682.06	448.95
682.40	446.37
682.74	443.91
683.08	441.34
683.42	438.76
683.75	436.35
684.09	433.82
684.43	431.40
684.77	428.93
685.10	426.63
685.44	424.37
685.78	422.11
686.12	419.88
686.45	417.66
686.79	415.38
687.13	413.18
687.46	410.99
687.80	408.90
688.14	406.71
688.48	404.66
688.81	402.39
689.15	400.30
689.49	398.22
689.82	396.15
690.16	394.11
690.50	392.20
690.83	390.24
691.17	388.26
691.51	386.38
691.84	384.57
692.18	382.62
692.52	380.63
692.85	378.71
693.19	376.87
693.52	375.04
693.86	373.21
694.20	371.42
694.53	369.69
694.87	367.81
695.21	366.00
695.54	364.21
695.88	362.54
696.21	360.74
696.55	359.10
696.88	357.40
697.22	355.69
697.56	354.08
697.89	352.45
698.23	350.88
698.56	349.25
698.90	347.59
699.23	345.91
699.57	344.35
699.90	342.80
700.24	341.25
700.58	339.71
700.91	338.19
701.25	336.75
701.58	335.34
701.92	334.00
702.25	332.62
702.59	331.31
702.92	329.97
703.26	328.67
703.59	327.36
703.93	326.17
704.26	324.98
704.60	323.71
704.93	322.44
705.26	321.13
705.60	320.00
705.93	318.90
706.27	317.89
706.60	316.83
706.94	315.76
707.27	314.62
707.61	313.57
707.94	312.56
708.27	311.49
708.61	310.44
708.94	309.44
709.28	308.48
709.61	307.49
709.94	306.59
710.28	305.64
710.61	304.67
710.95	303.63
711.28	302.68
711.61	301.68
711.95	300.80
712.28	299.92
712.61	298.94
712.95	297.99
713.28	297.16
713.61	296.28
713.95	295.40
714.28	294.57
714.61	293.71
714.95	292.86
715.28	292.01
715.61	291.13
715.95	290.31
716.28	289.46
716.61	288.67
716.95	287.84
717.28	287.07
717.61	286.32
717.94	285.55
718.28	284.78
718.61	284.05
718.94	283.31
719.27	282.66
719.61	282.00
719.94	281.33
720.27	280.60
720.60	279.97
720.94	279.35
721.27	278.78
721.60	278.23
721.93	277.64
722.27	277.09
722.60	276.57
722.93	275.95
723.26	275.42
723.59	274.85
723.93	274.32
724.26	273.78
724.59	273.25
724.92	272.72
725.25	272.21
725.59	271.73
725.92	271.27
726.25	270.75
726.58	270.26
726.91	269.81
727.24	269.36
727.57	268.89
727.91	268.39
728.24	267.92
728.57	267.42
728.90	266.97
729.23	266.55
729.56	266.11
729.89	265.68
730.22	265.17
730.55	264.68
730.89	264.24
731.22	263.78
731.55	263.30
731.88	262.88
732.21	262.47
732.54	262.02
732.87	261.56
733.20	261.15
733.53	260.75
733.86	260.35
734.19	259.94
734.52	259.57
734.85	259.26
735.18	258.82
735.51	258.47
735.84	258.10
736.17	257.70
736.50	257.29
736.83	257.07
737.16	256.75
737.49	256.40
737.82	256.02
738.15	255.68
738.48	255.35
738.81	255.02
739.14	254.72
739.47	254.40
739.80	254.13
740.13	253.85
740.46	253.54
740.79	253.19
741.12	252.86
741.45	252.51
741.78	252.15
742.11	251.88
742.44	251.54
742.77	251.25
743.10	250.96
743.43	250.60
743.75	250.16
744.08	250.04
744.41	249.77
744.74	249.53
745.07	249.26
745.40	249.04
745.73	248.82
746.06	248.52
746.39	248.29
746.71	248.01
747.04	247.70
747.37	247.43
747.70	247.20
748.03	246.98
748.36	246.75
748.68	246.53
749.01	246.28
749.34	246.03
749.67	245.82
750.00	245.61
750.33	245.51
750.65	245.32
750.98	244.98
751.31	244.78
751.64	244.56
751.97	244.40
752.29	244.19
752.62	243.93
752.95	243.72
753.28	243.51
753.60	243.32
753.93	243.16
754.26	243.00
754.59	242.77
754.91	242.55
755.24	242.39
755.57	242.19
755.90	241.99
756.22	241.79
756.55	241.58
756.88	241.38
757.20	241.15
757.53	240.94
757.86	240.76
758.19	240.62
758.51	240.47
758.84	240.29
759.17	240.11
759.49	239.96
759.82	239.84
760.15	239.68
760.47	239.49
760.80	239.34
761.13	239.19
761.45	239.06
761.78	238.90
762.11	238.74
762.43	238.61
762.76	238.48
763.08	238.38
763.41	238.25
763.74	238.10
764.06	237.96
764.39	237.85
764.71	237.68
765.04	237.51
765.37	237.38
765.69	237.24
766.02	237.12
766.34	237.02
766.67	236.86
767.00	236.74
767.32	236.70
767.65	236.61
767.97	236.46
768.30	236.35
768.62	236.27
768.95	236.14
769.27	236.02
769.60	235.92
769.92	235.79
770.25	235.65
770.57	235.55
770.90	235.46
771.22	235.32
771.55	235.26
771.87	235.21
772.20	235.09
772.52	235.05
772.85	235.08
773.17	234.96
773.50	234.86
773.82	234.74
774.15	234.61
774.47	234.49
774.80	234.44
775.12	234.35
775.45	234.23
775.77	234.13
776.09	234.06
776.42	234.01
776.74	233.95
777.07	233.88
777.39	233.80
777.72	233.69
778.04	233.62
778.36	233.53
778.69	233.45
779.01	233.39
779.33	233.25
779.66	233.03
779.98	232.97
780.31	232.93
780.63	232.91
780.95	232.85
781.28	232.77
781.60	232.68
781.92	232.62
782.25	232.61
782.57	232.59
782.89	232.52
783.22	232.42
783.54	232.36
783.86	232.30
784.19	232.23
784.51	232.22
784.83	232.15
785.16	232.09
785.48	232.03
785.80	231.95
786.12	231.92
786.45	231.87
786.77	231.82
787.09	231.77
787.42	231.70
787.74	231.65
788.06	231.60
788.38	231.55
788.71	231.51
789.03	231.43
789.35	231.41
789.67	231.37
789.99	231.37
790.32	231.30
790.64	231.27
790.96	231.31
791.28	231.26
791.61	231.22
791.93	231.22
792.25	231.14
792.57	231.20
792.89	231.11
793.21	231.14
793.54	231.11
793.86	231.05
794.18	231.00
794.50	230.96
794.82	230.91
795.14	230.91
795.47	230.89
795.79	230.89
796.11	230.82
796.43	230.80
796.75	230.74
797.07	230.70
797.39	230.66
797.71	230.57
798.04	230.53
798.36	230.54
798.68	230.51
799.00	230.55
799.32	230.48
799.64	230.48
799.96	230.41
800.28	230.38
800.60	230.36
800.92	230.37
801.24	230.31
801.56	230.32
801.89	230.29
802.21	230.23
802.53	230.20
802.85	230.20
803.17	230.20
803.49	230.17
803.81	230.18
804.13	230.14
804.45	230.11
804.77	230.11
805.09	230.09
805.41	230.03
805.73	229.97
806.05	229.92
806.37	229.89
806.69	229.88
807.01	229.87
807.33	229.90
807.65	229.82
807.97	229.86
808.28	229.83
808.60	229.80
808.92	229.78
809.24	229.76
809.56	229.71
809.88	229.68
810.20	229.67
810.52	229.64
810.84	229.61
811.16	229.56
811.48	229.53
811.80	229.53
812.12	229.53
812.43	229.53
812.75	229.52
813.07	229.52
813.39	229.48
813.71	229.41
814.03	229.37
814.35	229.38
814.67	229.31
814.98	229.29
815.30	229.21
815.62	229.21
815.94	229.16
816.26	229.17
816.58	229.12
816.89	229.10
817.21	229.08
817.53	229.09
817.85	229.08
818.17	229.03
818.48	228.94
818.80	228.94
819.12	228.89
819.44	228.83
819.76	228.78
820.07	228.76
820.39	228.75
820.71	228.75
821.03	228.72
821.34	228.69
821.66	228.67
821.98	228.71
822.30	228.67
822.61	228.73
822.93	228.67
823.25	228.65
823.57	228.63
823.88	228.62
824.20	228.59
824.52	228.58
824.83	228.57
825.15	228.55
825.47	228.51
825.79	228.51
826.10	228.51
826.42	228.50
826.74	228.49
827.05	228.46
827.37	228.44
827.69	228.42
828.00	228.41
828.32	228.41
828.64	228.36
828.95	228.41
829.27	228.36
829.58	228.35
829.90	228.38
830.22	228.33
830.53	228.26
830.85	228.25
831.17	228.21
831.48	228.21
831.80	228.21
832.11	228.24
832.43	228.23
832.75	228.21
833.06	228.24
833.38	228.21
833.69	228.20
834.01	228.18
834.32	228.19
834.64	228.18
834.96	228.15
835.27	228.15
835.59	228.10
835.90	228.10
836.22	228.11
836.53	228.05
836.85	228.07
837.16	228.17
837.48	228.18
837.79	228.22
838.11	228.23
838.42	228.23
838.74	228.23
839.05	228.23
839.37	228.25
839.68	228.18
840.00	228.17
840.31	228.19
840.63	228.17
840.94	228.16
841.26	228.15
841.57	228.17
841.88	228.21
842.20	228.19
842.51	228.14
842.83	228.12
843.14	228.22
843.46	228.24
843.77	228.21
844.08	228.18
844.40	228.15
844.71	228.15
845.03	228.14
845.34	228.11
845.65	228.07
845.97	228.06
846.28	228.08
846.60	228.09
846.91	228.09
847.22	228.06
847.54	228.08
847.85	228.09
848.16	228.08
848.48	228.06
848.79	228.11
849.10	228.12
849.42	228.14
849.73	228.05
850.04	228.03
850.36	227.99
850.67	228.01
850.98	227.99
851.30	227.96
851.61	227.96
851.92	227.96
852.23	228.03
852.55	228.02
852.86	228.04
853.17	228.05
853.49	228.04
853.80	228.08
854.11	228.05
854.42	228.04
854.74	228.02
855.05	227.98
855.36	227.90
855.67	227.91
855.99	227.90
856.30	228.01
856.61	227.98
856.92	227.99
857.23	227.99
857.55	227.97
857.86	227.95
858.17	227.96
858.48	227.92
858.79	227.86
859.11	227.85
859.42	227.82
859.73	227.81
860.04	227.78
860.35	227.73
860.66	227.70
860.98	227.68
861.29	227.70
861.60	227.68
861.91	227.71
862.22	227.68
862.53	227.65
862.84	227.47
863.16	227.50
863.47	227.47
863.78	227.45
864.09	227.44
864.40	227.44
864.71	227.45
865.02	227.41
865.33	227.40
865.64	227.36
865.95	227.33
866.27	227.38
866.58	227.38
866.89	227.38
867.20	227.41
867.51	227.42
867.82	227.40
868.13	227.43
868.44	227.39
868.75	227.40
869.06	227.39
869.37	227.44
869.68	227.42
869.99	227.42
870.30	227.41
870.61	227.42
870.92	227.40
871.23	227.39
871.54	227.43
871.85	227.48
872.16	227.50
872.47	227.51
872.78	227.42
873.09	227.45
873.40	227.46
873.71	227.44
874.02	227.47
874.33	227.48
874.64	227.48
874.95	227.54
875.26	227.53
875.56	227.56
875.87	227.55
876.18	227.52
876.49	227.62
876.80	227.61
877.11	227.60
877.42	227.64
877.73	227.65
878.04	227.62
878.35	227.63
878.66	227.62
878.96	227.61
879.27	227.60
879.58	227.58
879.89	227.58
880.20	227.62
880.51	227.60
880.82	227.59
881.12	227.57
881.43	227.53
881.74	227.51
882.05	227.52
882.36	227.55
882.67	227.58
882.97	227.50
883.28	227.51
883.59	227.50
883.90	227.51
884.21	227.51
884.51	227.50
884.82	227.50
885.13	227.51
885.44	227.55
885.74	227.59
886.05	227.59
886.36	227.56
886.67	227.49
886.98	227.55
887.28	227.57
887.59	227.59
887.90	227.61
888.20	227.62
888.51	227.60
888.82	227.59
889.13	227.61
889.43	227.67
889.74	227.67
890.05	227.68
890.35	227.67
890.66	227.63
890.97	227.64
891.28	227.60
891.58	227.62
891.89	227.59
892.20	227.55
892.50	227.57
892.81	227.59
893.12	227.61
893.42	227.52
893.73	227.51
894.04	227.48
894.34	227.46
894.65	227.45
894.95	227.42
895.26	227.38
895.57	227.39
895.87	227.28
896.18	227.29
896.48	227.30
896.79	227.27
897.10	227.31
897.40	227.28
897.71	227.32
898.01	227.29
898.32	227.30
898.63	227.29
898.93	227.28
899.24	227.29
899.54	227.27
899.85	227.27
900.15	227.25
900.46	227.24
900.76	227.25
901.07	227.20
901.38	227.23
901.68	227.22
901.99	227.16
902.29	227.15
902.60	227.12
902.90	227.09
903.21	227.06
903.51	227.05
903.82	227.07
904.12	227.04
904.43	227.06
904.73	227.06
905.03	227.07
905.34	227.13
905.64	227.09
905.95	227.08
906.25	227.10
906.56	227.09
906.86	227.11
907.17	227.10
907.47	227.17
907.77	227.16
908.08	227.17
908.38	227.17
908.69	227.17
908.99	227.20
909.30	227.22
909.60	227.23
909.90	227.21
910.21	227.21
910.51	227.20
910.81	227.20
911.12	227.22
911.42	227.21
911.73	227.11
912.03	227.16
912.33	227.17
912.64	227.19
912.94	227.18
913.24	227.15
913.55	227.15
913.85	227.07
914.15	227.10
914.46	227.11
914.76	227.10
915.06	227.07
915.37	227.06
915.67	227.06
915.97	227.11
916.27	227.09
916.58	227.09
916.88	227.09
917.18	227.12
917.49	227.15
917.79	227.18
918.09	227.20
918.39	227.22
918.70	227.22
919.00	227.21
919.30	227.29
919.60	227.30
919.91	227.30
920.21	227.38
920.51	227.36
920.81	227.37
921.12	227.43
921.42	227.47
921.72	227.48
922.02	227.47
922.32	227.47
922.63	227.49
922.93	227.55
923.23	227.57
923.53	227.54
923.83	227.50
924.13	227.51
924.44	227.53
924.74	227.52
925.04	227.54
925.34	227.55
925.64	227.50
925.94	227.49
926.24	227.54
926.55	227.51
926.85	227.52
927.15	227.52
927.45	227.49
927.75	227.47
928.05	227.49
928.35	227.50
928.65	227.51
928.95	227.52
929.26	227.47
929.56	227.46
929.86	227.47
930.16	227.44
930.46	227.39
930.76	227.39
931.06	227.36
931.36	227.31
931.66	227.30
931.96	227.33
932.26	227.33
932.56	227.29
932.86	227.26
933.16	227.27
933.46	227.24
933.76	227.25
934.06	227.28
934.36	227.29
934.66	227.26
934.96	227.24
935.26	227.21
935.56	227.22
935.86	227.19
936.16	227.15
936.46	227.16
936.76	227.15
937.06	227.12
937.36	227.10
937.66	227.10
937.96	227.07
938.26	226.99
938.56	226.96
938.86	226.94
939.16	226.95
939.46	226.93
939.76	226.95
940.06	226.92
940.35	226.87
940.65	226.80
940.95	226.81
941.25	226.73
941.55	226.73
941.85	226.73
942.15	226.76
942.45	226.78
942.75	226.75
943.04	226.77
943.34	226.78
943.64	226.77
943.94	226.78
944.24	226.78
944.54	226.79
944.84	226.84
945.13	226.83
945.43	226.85
945.73	226.85
946.03	226.82
946.33	226.83
946.62	226.84
946.92	226.89
947.22	226.93
947.52	226.95
947.82	226.98
948.11	226.96
948.41	226.94
948.71	226.95
949.01	226.99
949.31	227.00
949.60	227.03
949.90	227.07
950.20	227.08
950.50	227.07
950.79	227.09
951.09	227.08
951.39	227.09
951.69	227.08
951.98	227.08
952.28	227.11
952.58	227.13
952.87	227.12
953.17	227.12
953.47	227.07
953.76	227.10
954.06	227.08
954.36	227.10
954.66	227.08
954.95	227.10
955.25	227.09
955.55	227.09
955.84	227.05
956.14	227.08
956.44	227.09
956.73	227.09
957.03	227.11
957.32	227.12
957.62	227.13
957.92	227.17
958.21	227.17
958.51	227.28
958.81	227.31
959.10	227.33
959.40	227.36
959.69	227.39
959.99	227.42
960.29	227.40
960.58	227.39
960.88	227.45
961.17	227.44
961.47	227.48
961.76	227.48
962.06	227.51
962.36	227.47
962.65	227.48
962.95	227.48
963.24	227.47
963.54	227.44
963.83	227.44
964.13	227.40
964.42	227.37
964.72	227.28
965.01	227.26
965.31	227.26
965.60	227.20
965.90	227.24
966.19	227.22
966.49	227.22
966.78	227.22
967.08	227.20
967.37	227.19
967.67	227.17
967.96	227.19
968.26	227.16
968.55	227.15
968.85	227.11
969.14	227.11
969.43	227.08
969.73	227.03
970.02	227.04
970.32	227.06
970.61	227.07
970.91	227.02
971.20	226.98
971.49	226.98
971.79	227.00
972.08	226.95
972.38	226.93
972.67	226.94
972.96	226.89
973.26	226.84
973.55	226.83
973.85	226.79
974.14	226.73
974.43	226.72
974.73	226.71
975.02	226.71
975.31	226.71
975.61	226.70
975.90	226.72
976.19	226.71
976.49	226.69
976.78	226.68
977.07	226.71
977.37	226.73
977.66	226.71
977.95	226.68
978.24	226.66
978.54	226.67
978.83	226.66
979.12	226.70
979.42	226.68
979.71	226.68
980.00	226.70
980.29	226.71
980.59	226.69
980.88	226.75
981.17	226.71
981.46	226.72
981.76	226.77
982.05	226.79
982.34	226.79
982.63	226.79
982.93	226.81
983.22	226.83
983.51	226.83
983.80	226.84
984.09	226.87
984.39	226.89
984.68	226.92
984.97	226.94
985.26	226.94
985.55	227.03
985.85	227.00
986.14	227.02
986.43	227.02
986.72	227.03
987.01	226.97
987.30	226.99
987.59	226.95
987.89	226.95
988.18	226.92
988.47	226.91
988.76	226.92
989.05	226.90
989.34	226.90
989.63	226.92
989.92	226.91
990.22	226.92
990.51	226.91
990.80	226.89
991.09	226.91
991.38	226.95
991.67	226.93
991.96	226.92
992.25	226.93
992.54	226.97
992.83	226.98
993.12	226.99
993.41	227.05
993.70	227.16
993.99	227.16
994.28	227.16
994.58	227.19
994.87	227.20
995.16	227.22
995.45	227.21
995.74	227.17
996.03	227.23
996.32	227.24
996.61	227.28
996.90	227.31
997.19	227.28
997.48	227.26
997.77	227.24
998.06	227.28
998.34	227.26
998.63	227.26
998.92	227.28
999.21	227.31
999.50	227.28
999.79	227.21
1000.08	227.20
1000.37	227.24
1000.66	227.21
1000.95	227.24
1001.24	227.22
1001.53	227.24
1001.82	227.22
1002.11	227.16
1002.40	227.14
1002.68	227.13
1002.97	227.17
1003.26	227.18
1003.55	227.14
1003.84	227.15
1004.13	227.17
1004.42	227.15
1004.71	227.12
1004.99	227.09
1005.28	227.14
1005.57	227.12
1005.86	227.10
1006.15	227.09
1006.44	227.04
1006.72	227.06
1007.01	226.99
1007.30	226.98
1007.59	226.94
1007.88	226.95
1008.17	226.93
1008.45	226.92
1008.74	226.87
1009.03	226.83
1009.32	226.80
1009.60	226.82
1009.89	226.78
1010.18	226.71
1010.47	226.71
1010.76	226.71
1011.04	226.70
1011.33	226.67
1011.62	226.66
1011.91	226.66
1012.19	226.68
1012.48	226.68
1012.77	226.67
1013.05	226.75
1013.34	226.73
1013.63	226.74
1013.92	226.77
1014.20	226.77
1014.49	226.77
1014.78	226.78
1015.06	226.71
1015.35	226.70
1015.64	226.67
1015.92	226.69
1016.21	226.70
1016.50	226.70
1016.78	226.71
1017.07	226.68
1017.36	226.67
1017.64	226.71
1017.93	226.71
1018.22	226.69
1018.50	226.71
1018.79	226.71
1019.08	226.67
1019.36	226.70
1019.65	226.68
1019.93	226.71
1020.22	226.73
1020.51	226.78
1020.79	226.77
1021.08	226.54
1021.36	226.77
1021.65	226.96
1021.94	226.92
1022.22	227.15
1022.51	226.32
1022.79	227.40
1023.08	226.84
1023.36	228.00
1023.65	226.41
>>>>>End Processed Spectral Data<<<<<
