SpectraSuite Data File
++++++++++++++++++++++++++++++++++++
Date: Fri Feb 01 17:19:55 EST 2013
User: group
Dark Spectrum Present: No
Reference Spectrum Present: No
Number of Sampled Component Spectra: 1
Spectrometers: USB2E7196
Integration Time (usec): 35000 (USB2E7196)
Spectra Averaged: 100 (USB2E7196)
Boxcar Smoothing: 10 (USB2E7196)
Correct for Electrical Dark: No (USB2E7196)
Strobe/Lamp Enabled: No (USB2E7196)
Correct for Detector Non-linearity: No (USB2E7196)
Correct for Stray Light: No (USB2E7196)
Number of Pixels in Processed Spectrum: 2048
>>>>>Begin Processed Spectral Data<<<<<
339.09	0.00
339.48	212.97
339.86	214.22
340.24	215.23
340.63	216.96
341.01	220.54
341.39	219.55
341.78	221.27
342.16	222.52
342.54	223.56
342.93	211.49
343.31	222.18
343.69	222.72
344.07	223.16
344.46	223.62
344.84	224.00
345.22	224.22
345.60	224.47
345.99	224.65
346.37	224.79
346.75	224.84
347.13	224.89
347.52	224.93
347.90	224.98
348.28	224.99
348.66	225.04
349.05	225.03
349.43	225.10
349.81	225.16
350.19	225.23
350.57	225.27
350.96	225.31
351.34	225.38
351.72	225.50
352.10	225.62
352.48	225.70
352.87	225.77
353.25	225.82
353.63	225.89
354.01	225.95
354.39	226.01
354.77	226.10
355.15	226.21
355.54	226.31
355.92	226.33
356.30	226.39
356.68	226.54
357.06	226.62
357.44	226.64
357.82	226.69
358.20	226.75
358.58	226.79
358.97	226.89
359.35	226.98
359.73	227.06
360.11	227.13
360.49	227.18
360.87	227.23
361.25	227.32
361.63	227.40
362.01	227.46
362.39	227.51
362.77	227.57
363.15	227.59
363.53	227.62
363.91	227.63
364.29	227.68
364.67	227.60
365.05	227.64
365.43	227.64
365.81	227.64
366.19	227.71
366.57	227.77
366.95	227.73
367.33	227.69
367.71	227.65
368.09	227.65
368.47	227.61
368.85	227.59
369.23	227.57
369.61	227.52
369.99	227.53
370.37	227.51
370.75	227.52
371.13	227.48
371.51	227.40
371.89	227.38
372.27	227.34
372.65	227.27
373.03	227.20
373.41	227.19
373.78	227.14
374.16	227.01
374.54	226.91
374.92	226.85
375.30	226.79
375.68	226.73
376.06	226.67
376.44	226.65
376.82	226.58
377.19	226.51
377.57	226.42
377.95	226.33
378.33	226.27
378.71	226.16
379.09	226.08
379.47	226.05
379.84	225.98
380.22	225.91
380.60	225.83
380.98	225.78
381.36	225.69
381.73	225.60
382.11	225.58
382.49	225.53
382.87	225.47
383.25	225.42
383.62	225.44
384.00	225.37
384.38	225.31
384.76	225.28
385.13	225.27
385.51	225.23
385.89	225.16
386.27	225.12
386.64	225.08
387.02	225.06
387.40	225.00
387.78	224.97
388.15	224.94
388.53	224.92
388.91	224.88
389.29	224.82
389.66	224.84
390.04	224.80
390.42	224.76
390.79	224.72
391.17	224.68
391.55	224.57
391.92	224.55
392.30	224.54
392.68	224.48
393.05	224.48
393.43	224.49
393.81	224.46
394.18	224.42
394.56	224.44
394.94	224.45
395.31	224.45
395.69	224.48
396.06	224.51
396.44	224.53
396.82	224.55
397.19	224.68
397.57	224.68
397.95	224.74
398.32	224.77
398.70	224.83
399.07	224.92
399.45	224.97
399.82	225.01
400.20	225.07
400.58	225.16
400.95	225.15
401.33	225.24
401.70	225.41
402.08	225.50
402.45	225.56
402.83	225.67
403.20	225.78
403.58	225.87
403.95	225.99
404.33	226.14
404.71	226.26
405.08	226.41
405.46	226.55
405.83	226.72
406.21	226.91
406.58	227.07
406.96	227.27
407.33	227.45
407.70	227.67
408.08	227.97
408.45	228.22
408.83	228.47
409.20	228.66
409.58	228.85
409.95	229.12
410.33	229.39
410.70	229.65
411.08	229.96
411.45	230.29
411.82	230.61
412.20	230.98
412.57	231.44
412.95	231.74
413.32	232.17
413.69	232.55
414.07	233.01
414.44	233.51
414.82	233.97
415.19	234.56
415.56	235.14
415.94	235.71
416.31	236.35
416.68	237.01
417.06	237.79
417.43	238.48
417.81	239.33
418.18	240.16
418.55	241.04
418.93	241.91
419.30	242.84
419.67	243.83
420.04	244.81
420.42	245.78
420.79	247.01
421.16	248.21
421.54	249.47
421.91	250.71
422.28	251.98
422.66	253.37
423.03	254.71
423.40	256.08
423.77	257.52
424.15	258.97
424.52	260.52
424.89	262.19
425.26	263.80
425.64	265.27
426.01	266.90
426.38	268.58
426.75	270.34
427.13	272.11
427.50	273.95
427.87	275.91
428.24	277.87
428.61	279.68
428.99	281.66
429.36	283.81
429.73	285.91
430.10	287.98
430.47	290.12
430.85	292.33
431.22	294.62
431.59	297.11
431.96	299.43
432.33	301.98
432.70	304.40
433.08	307.29
433.45	309.99
433.82	312.66
434.19	315.64
434.56	318.53
434.93	321.24
435.30	323.92
435.68	326.86
436.05	329.74
436.42	332.59
436.79	335.17
437.16	337.95
437.53	340.87
437.90	343.79
438.27	346.60
438.64	349.46
439.01	352.10
439.38	354.36
439.75	356.56
440.13	359.13
440.50	361.55
440.87	363.44
441.24	365.45
441.61	367.72
441.98	369.22
442.35	371.10
442.72	373.02
443.09	374.91
443.46	375.96
443.83	376.58
444.20	377.14
444.57	378.01
444.94	378.30
445.31	378.65
445.68	379.02
446.05	379.06
446.42	378.74
446.79	378.37
447.16	377.87
447.53	377.62
447.90	376.42
448.27	375.23
448.64	373.61
449.01	372.46
449.37	370.42
449.74	368.51
450.11	366.17
450.48	363.63
450.85	361.06
451.22	358.83
451.59	356.77
451.96	354.83
452.33	352.20
452.70	349.81
453.07	346.90
453.43	343.96
453.80	341.10
454.17	338.30
454.54	335.67
454.91	332.93
455.28	330.16
455.65	327.62
456.02	325.11
456.38	322.92
456.75	320.19
457.12	317.90
457.49	315.63
457.86	313.41
458.23	311.53
458.59	309.43
458.96	307.30
459.33	305.37
459.70	303.38
460.07	301.80
460.43	300.03
460.80	298.35
461.17	296.84
461.54	295.32
461.91	293.82
462.27	292.29
462.64	291.05
463.01	289.67
463.38	288.32
463.74	286.89
464.11	285.69
464.48	284.62
464.85	283.46
465.21	282.58
465.58	281.62
465.95	280.43
466.32	279.49
466.68	278.53
467.05	277.60
467.42	276.71
467.78	275.74
468.15	274.84
468.52	274.20
468.88	273.31
469.25	272.52
469.62	271.90
469.98	271.21
470.35	270.53
470.72	269.91
471.08	269.25
471.45	268.71
471.82	268.13
472.18	267.49
472.55	267.04
472.92	266.47
473.28	266.02
473.65	265.61
474.02	265.16
474.38	264.83
474.75	264.51
475.11	264.15
475.48	263.91
475.85	263.64
476.21	263.40
476.58	263.26
476.94	263.12
477.31	262.92
477.67	262.84
478.04	262.76
478.41	262.74
478.77	262.75
479.14	262.69
479.50	262.73
479.87	262.82
480.23	262.89
480.60	262.99
480.96	263.08
481.33	263.28
481.69	263.44
482.06	263.62
482.42	263.82
482.79	264.09
483.15	264.40
483.52	264.79
483.88	265.13
484.25	265.49
484.61	265.92
484.98	266.40
485.34	266.95
485.71	267.49
486.07	268.07
486.44	268.65
486.80	269.33
487.17	270.07
487.53	270.89
487.90	271.75
488.26	272.68
488.62	273.65
488.99	274.60
489.35	275.67
489.72	276.81
490.08	277.99
490.44	279.25
490.81	280.58
491.17	281.92
491.54	283.41
491.90	284.93
492.26	286.57
492.63	288.28
492.99	290.02
493.36	291.93
493.72	293.94
494.08	296.05
494.45	298.29
494.81	300.62
495.17	303.04
495.54	305.56
495.90	308.24
496.26	311.03
496.63	313.98
496.99	317.09
497.35	320.31
497.72	323.76
498.08	327.23
498.44	330.90
498.80	334.83
499.17	338.81
499.53	342.99
499.89	347.32
500.26	351.78
500.62	356.42
500.98	361.35
501.34	366.34
501.71	371.56
502.07	376.95
502.43	382.54
502.79	388.28
503.16	394.34
503.52	400.55
503.88	406.89
504.24	413.46
504.60	420.24
504.97	427.22
505.33	434.44
505.69	442.08
506.05	449.76
506.41	457.55
506.78	465.62
507.14	473.97
507.50	482.54
507.86	491.46
508.22	500.59
508.59	509.65
508.95	519.13
509.31	528.91
509.67	538.84
510.03	548.94
510.39	559.33
510.75	569.93
511.12	580.72
511.48	591.78
511.84	603.10
512.20	614.46
512.56	626.22
512.92	638.17
513.28	650.25
513.64	662.42
514.00	674.82
514.37	687.57
514.73	700.32
515.09	713.18
515.45	726.15
515.81	739.41
516.17	753.13
516.53	766.99
516.89	780.83
517.25	794.69
517.61	808.88
517.97	823.08
518.33	837.22
518.69	851.58
519.05	866.27
519.41	881.05
519.77	896.18
520.13	911.30
520.49	926.31
520.85	941.34
521.21	956.75
521.57	972.69
521.93	987.94
522.29	1003.88
522.65	1019.76
523.01	1035.60
523.37	1051.32
523.73	1067.16
524.09	1082.92
524.45	1098.76
524.81	1115.11
525.17	1131.40
525.53	1147.80
525.89	1164.29
526.25	1180.80
526.61	1196.85
526.97	1213.30
527.33	1229.50
527.68	1245.80
528.04	1261.91
528.40	1278.13
528.76	1294.90
529.12	1311.12
529.48	1327.81
529.84	1343.54
530.20	1359.71
530.56	1376.40
530.91	1393.44
531.27	1409.79
531.63	1425.87
531.99	1442.21
532.35	1457.83
532.71	1473.52
533.07	1489.50
533.42	1505.04
533.78	1520.87
534.14	1536.86
534.50	1551.84
534.86	1567.45
535.21	1582.36
535.57	1598.04
535.93	1613.38
536.29	1627.95
536.65	1642.64
537.00	1657.12
537.36	1672.25
537.72	1686.45
538.08	1700.74
538.44	1714.30
538.79	1728.12
539.15	1741.50
539.51	1755.03
539.87	1769.22
540.22	1782.78
540.58	1796.43
540.94	1809.59
541.29	1822.20
541.65	1834.71
542.01	1847.83
542.37	1860.11
542.72	1872.39
543.08	1884.14
543.44	1896.35
543.79	1907.55
544.15	1918.71
544.51	1930.21
544.87	1941.17
545.22	1952.17
545.58	1962.42
545.94	1972.26
546.29	1982.08
546.65	1992.12
547.01	2001.53
547.36	2010.26
547.72	2018.92
548.07	2026.91
548.43	2035.24
548.79	2043.31
549.14	2051.09
549.50	2058.43
549.86	2066.01
550.21	2073.55
550.57	2080.93
550.92	2087.72
551.28	2094.75
551.64	2101.99
551.99	2108.70
552.35	2115.09
552.70	2121.46
553.06	2127.56
553.41	2134.14
553.77	2140.38
554.13	2146.61
554.48	2153.10
554.84	2159.03
555.19	2164.25
555.55	2169.70
555.90	2174.54
556.26	2180.01
556.61	2184.90
556.97	2189.74
557.32	2194.38
557.68	2198.79
558.03	2203.32
558.39	2207.21
558.74	2212.33
559.10	2216.46
559.45	2220.37
559.81	2224.82
560.16	2228.89
560.52	2232.62
560.87	2236.23
561.23	2239.20
561.58	2242.38
561.94	2244.99
562.29	2247.47
562.64	2250.74
563.00	2253.59
563.35	2257.31
563.71	2260.54
564.06	2264.14
564.42	2267.23
564.77	2270.11
565.12	2272.81
565.48	2275.06
565.83	2277.41
566.19	2279.06
566.54	2280.23
566.89	2281.88
567.25	2282.90
567.60	2284.46
567.96	2286.53
568.31	2287.81
568.66	2289.38
569.02	2290.34
569.37	2290.99
569.72	2292.26
570.08	2292.74
570.43	2293.16
570.78	2292.99
571.14	2291.84
571.49	2290.58
571.84	2290.46
572.20	2289.65
572.55	2288.90
572.90	2287.57
573.26	2286.58
573.61	2285.00
573.96	2283.71
574.31	2281.08
574.67	2278.40
575.02	2275.35
575.37	2272.09
575.72	2268.65
576.08	2265.44
576.43	2262.41
576.78	2259.30
577.13	2256.21
577.49	2253.19
577.84	2250.15
578.19	2246.71
578.54	2243.58
578.90	2239.84
579.25	2234.72
579.60	2230.10
579.95	2225.30
580.30	2220.71
580.66	2215.80
581.01	2211.25
581.36	2206.58
581.71	2202.78
582.06	2198.79
582.42	2194.53
582.77	2189.60
583.12	2185.31
583.47	2181.01
583.82	2176.43
584.17	2171.36
584.53	2166.34
584.88	2161.19
585.23	2155.62
585.58	2150.30
585.93	2144.91
586.28	2140.36
586.63	2135.69
586.98	2130.81
587.34	2126.33
587.69	2121.62
588.04	2116.76
588.39	2111.22
588.74	2104.90
589.09	2098.81
589.44	2092.22
589.79	2086.22
590.14	2080.82
590.49	2074.29
590.84	2067.92
591.19	2062.05
591.54	2055.80
591.89	2048.83
592.25	2042.19
592.60	2035.17
592.95	2027.97
593.30	2020.78
593.65	2013.34
594.00	2006.25
594.35	1999.17
594.70	1991.29
595.05	1984.42
595.40	1977.18
595.75	1969.96
596.10	1963.92
596.45	1957.42
596.80	1951.35
597.15	1944.91
597.50	1938.03
597.85	1931.74
598.19	1925.19
598.54	1918.24
598.89	1911.70
599.24	1905.68
599.59	1899.29
599.94	1893.11
600.29	1886.72
600.64	1880.13
600.99	1872.80
601.34	1866.00
601.69	1859.04
602.04	1852.33
602.39	1844.94
602.74	1838.09
603.08	1831.28
603.43	1824.59
603.78	1817.41
604.13	1810.23
604.48	1803.10
604.83	1796.16
605.18	1789.48
605.53	1781.64
605.87	1773.64
606.22	1766.40
606.57	1758.45
606.92	1750.84
607.27	1743.81
607.62	1737.07
607.96	1729.96
608.31	1723.47
608.66	1715.99
609.01	1708.51
609.36	1700.88
609.70	1692.81
610.05	1684.73
610.40	1677.02
610.75	1668.78
611.10	1660.95
611.44	1652.35
611.79	1644.19
612.14	1635.56
612.49	1626.15
612.83	1617.67
613.18	1609.45
613.53	1601.16
613.88	1592.66
614.22	1584.54
614.57	1575.62
614.92	1567.41
615.27	1559.85
615.61	1551.44
615.96	1543.27
616.31	1535.44
616.65	1528.02
617.00	1520.36
617.35	1512.65
617.70	1504.47
618.04	1495.85
618.39	1487.53
618.74	1479.95
619.08	1471.56
619.43	1463.81
619.78	1456.88
620.12	1449.68
620.47	1442.16
620.82	1434.01
621.16	1426.39
621.51	1418.54
621.85	1410.89
622.20	1402.26
622.55	1393.66
622.89	1385.73
623.24	1377.93
623.59	1370.40
623.93	1362.80
624.28	1355.53
624.62	1347.88
624.97	1340.44
625.32	1333.49
625.66	1326.31
626.01	1319.09
626.35	1311.73
626.70	1303.93
627.04	1296.09
627.39	1288.18
627.73	1280.61
628.08	1273.52
628.43	1266.26
628.77	1258.87
629.12	1251.32
629.46	1244.19
629.81	1236.55
630.15	1229.26
630.50	1221.80
630.84	1213.59
631.19	1205.56
631.53	1197.90
631.88	1190.27
632.22	1182.67
632.57	1175.28
632.91	1167.63
633.26	1160.14
633.60	1152.62
633.95	1145.37
634.29	1138.20
634.64	1131.41
634.98	1123.92
635.32	1116.85
635.67	1110.10
636.01	1103.34
636.36	1096.54
636.70	1089.78
637.05	1083.28
637.39	1076.68
637.73	1070.29
638.08	1064.34
638.42	1058.27
638.77	1051.79
639.11	1045.25
639.45	1038.80
639.80	1032.18
640.14	1025.79
640.49	1019.20
640.83	1012.83
641.17	1006.64
641.52	1000.33
641.86	993.81
642.20	987.96
642.55	981.34
642.89	974.80
643.23	968.17
643.58	962.20
643.92	956.06
644.26	949.98
644.61	943.87
644.95	937.75
645.29	931.10
645.64	924.27
645.98	917.84
646.32	911.74
646.66	905.65
647.01	899.73
647.35	893.99
647.69	888.09
648.04	882.43
648.38	876.48
648.72	870.50
649.06	864.51
649.41	858.55
649.75	852.70
650.09	846.79
650.43	840.99
650.78	834.88
651.12	828.82
651.46	822.98
651.80	817.25
652.14	811.75
652.49	806.38
652.83	801.14
653.17	795.52
653.51	789.97
653.85	784.47
654.20	778.87
654.54	772.84
654.88	767.00
655.22	761.09
655.56	755.43
655.90	749.89
656.25	744.63
656.59	739.25
656.93	734.12
657.27	728.90
657.61	723.43
657.95	718.27
658.29	713.23
658.64	707.94
658.98	702.55
659.32	697.06
659.66	691.81
660.00	686.58
660.34	681.51
660.68	676.48
661.02	671.46
661.36	666.68
661.70	662.15
662.05	657.78
662.39	653.45
662.73	648.95
663.07	644.52
663.41	639.98
663.75	635.44
664.09	630.82
664.43	626.43
664.77	622.32
665.11	618.03
665.45	613.81
665.79	609.76
666.13	605.60
666.47	601.49
666.81	597.27
667.15	593.04
667.49	589.11
667.83	585.21
668.17	581.23
668.51	577.11
668.85	573.00
669.19	569.12
669.53	565.30
669.87	561.42
670.21	557.65
670.55	553.96
670.89	550.52
671.23	547.11
671.57	543.54
671.91	539.93
672.25	536.32
672.58	532.78
672.92	529.29
673.26	526.09
673.60	522.88
673.94	519.85
674.28	516.86
674.62	513.89
674.96	510.78
675.30	507.90
675.64	504.98
675.97	502.19
676.31	499.32
676.65	496.35
676.99	493.60
677.33	490.69
677.67	487.83
678.01	484.86
678.34	481.91
678.68	479.00
679.02	476.24
679.36	473.47
679.70	470.73
680.04	467.98
680.37	465.11
680.71	462.32
681.05	459.65
681.39	456.99
681.73	454.32
682.06	451.81
682.40	449.21
682.74	446.68
683.08	444.11
683.42	441.50
683.75	439.00
684.09	436.43
684.43	433.99
684.77	431.56
685.10	429.12
685.44	426.69
685.78	424.36
686.12	422.02
686.45	419.72
686.79	417.39
687.13	415.15
687.46	412.95
687.80	410.76
688.14	408.44
688.48	406.30
688.81	404.09
689.15	401.90
689.49	399.70
689.82	397.61
690.16	395.51
690.50	393.48
690.83	391.51
691.17	389.48
691.51	387.53
691.84	385.61
692.18	383.68
692.52	381.75
692.85	379.78
693.19	377.91
693.52	376.08
693.86	374.27
694.20	372.51
694.53	370.69
694.87	368.83
695.21	367.05
695.54	365.24
695.88	363.43
696.21	361.68
696.55	359.97
696.88	358.22
697.22	356.53
697.56	354.87
697.89	353.22
698.23	351.56
698.56	349.95
698.90	348.37
699.23	346.72
699.57	345.14
699.90	343.57
700.24	341.98
700.58	340.44
700.91	338.93
701.25	337.43
701.58	336.08
701.92	334.64
702.25	333.27
702.59	331.88
702.92	330.55
703.26	329.22
703.59	327.96
703.93	326.72
704.26	325.45
704.60	324.18
704.93	322.86
705.26	321.59
705.60	320.35
705.93	319.12
706.27	318.06
706.60	317.00
706.94	315.88
707.27	314.71
707.61	313.60
707.94	312.51
708.27	311.38
708.61	310.25
708.94	309.25
709.28	308.28
709.61	307.32
709.94	306.32
710.28	305.28
710.61	304.26
710.95	303.21
711.28	302.26
711.61	301.28
711.95	300.33
712.28	299.43
712.61	298.43
712.95	297.49
713.28	296.59
713.61	295.62
713.95	294.74
714.28	293.92
714.61	293.06
714.95	292.20
715.28	291.32
715.61	290.46
715.95	289.62
716.28	288.75
716.61	287.90
716.95	287.07
717.28	286.29
717.61	285.49
717.94	284.75
718.28	283.93
718.61	283.21
718.94	282.57
719.27	281.87
719.61	281.26
719.94	280.60
720.27	279.87
720.60	279.23
720.94	278.66
721.27	278.05
721.60	277.49
721.93	276.91
722.27	276.40
722.60	275.82
722.93	275.21
723.26	274.64
723.59	274.09
723.93	273.53
724.26	272.96
724.59	272.35
724.92	271.80
725.25	271.32
725.59	270.82
725.92	270.26
726.25	269.76
726.58	269.25
726.91	268.75
727.24	268.27
727.57	267.78
727.91	267.21
728.24	266.72
728.57	266.20
728.90	265.73
729.23	265.22
729.56	264.80
729.89	264.34
730.22	263.85
730.55	263.40
730.89	262.96
731.22	262.53
731.55	262.14
731.88	261.71
732.21	261.27
732.54	260.82
732.87	260.37
733.20	259.94
733.53	259.56
733.86	259.18
734.19	258.78
734.52	258.41
734.85	258.08
735.18	257.67
735.51	257.31
735.84	256.94
736.17	256.57
736.50	256.15
736.83	255.93
737.16	255.60
737.49	255.23
737.82	254.89
738.15	254.56
738.48	254.15
738.81	253.81
739.14	253.44
739.47	253.11
739.80	252.78
740.13	252.47
740.46	252.12
740.79	251.79
741.12	251.47
741.45	251.15
741.78	250.80
742.11	250.50
742.44	250.12
742.77	249.80
743.10	249.48
743.43	249.19
743.75	248.76
744.08	248.59
744.41	248.26
744.74	248.00
745.07	247.71
745.40	247.53
745.73	247.29
746.06	247.01
746.39	246.76
746.71	246.51
747.04	246.20
747.37	245.93
747.70	245.67
748.03	245.42
748.36	245.15
748.68	244.91
749.01	244.65
749.34	244.50
749.67	244.29
750.00	244.09
750.33	243.93
750.65	243.71
750.98	243.35
751.31	243.17
751.64	242.96
751.97	242.79
752.29	242.54
752.62	242.29
752.95	242.11
753.28	241.87
753.60	241.64
753.93	241.48
754.26	241.31
754.59	241.11
754.91	240.84
755.24	240.65
755.57	240.44
755.90	240.25
756.22	240.02
756.55	239.79
756.88	239.58
757.20	239.35
757.53	239.14
757.86	238.98
758.19	238.79
758.51	238.59
758.84	238.35
759.17	238.19
759.49	238.04
759.82	237.91
760.15	237.75
760.47	237.62
760.80	237.45
761.13	237.33
761.45	237.17
761.78	237.05
762.11	236.93
762.43	236.79
762.76	236.65
763.08	236.51
763.41	236.36
763.74	236.21
764.06	236.04
764.39	235.90
764.71	235.79
765.04	235.65
765.37	235.52
765.69	235.41
766.02	235.26
766.34	235.11
766.67	234.95
767.00	234.85
767.32	234.77
767.65	234.72
767.97	234.58
768.30	234.49
768.62	234.41
768.95	234.26
769.27	234.15
769.60	234.04
769.92	233.93
770.25	233.86
770.57	233.75
770.90	233.66
771.22	233.54
771.55	233.42
771.87	233.34
772.20	233.22
772.52	233.21
772.85	233.26
773.17	233.20
773.50	233.11
773.82	233.02
774.15	232.91
774.47	232.78
774.80	232.70
775.12	232.60
775.45	232.52
775.77	232.46
776.09	232.42
776.42	232.37
776.74	232.31
777.07	232.23
777.39	232.17
777.72	232.12
778.04	232.09
778.36	231.99
778.69	231.93
779.01	231.92
779.33	231.77
779.66	231.56
779.98	231.48
780.31	231.40
780.63	231.38
780.95	231.33
781.28	231.24
781.60	231.17
781.92	231.12
782.25	231.05
782.57	230.95
782.89	230.83
783.22	230.74
783.54	230.65
783.86	230.61
784.19	230.54
784.51	230.50
784.83	230.43
785.16	230.42
785.48	230.34
785.80	230.29
786.12	230.23
786.45	230.15
786.77	230.10
787.09	230.02
787.42	229.94
787.74	229.88
788.06	229.83
788.38	229.79
788.71	229.71
789.03	229.67
789.35	229.66
789.67	229.62
789.99	229.56
790.32	229.54
790.64	229.48
790.96	229.51
791.28	229.44
791.61	229.37
791.93	229.33
792.25	229.28
792.57	229.31
792.89	229.22
793.21	229.23
793.54	229.20
793.86	229.17
794.18	229.11
794.50	229.04
794.82	228.97
795.14	228.92
795.47	228.87
795.79	228.80
796.11	228.73
796.43	228.69
796.75	228.64
797.07	228.57
797.39	228.51
797.71	228.40
798.04	228.33
798.36	228.29
798.68	228.25
799.00	228.22
799.32	228.14
799.64	228.15
799.96	228.09
800.28	228.06
800.60	228.01
800.92	227.97
801.24	227.95
801.56	227.95
801.89	227.88
802.21	227.85
802.53	227.82
802.85	227.82
803.17	227.87
803.49	227.84
803.81	227.82
804.13	227.79
804.45	227.75
804.77	227.76
805.09	227.73
805.41	227.69
805.73	227.68
806.05	227.61
806.37	227.58
806.69	227.57
807.01	227.50
807.33	227.49
807.65	227.46
807.97	227.50
808.28	227.46
808.60	227.47
808.92	227.44
809.24	227.48
809.56	227.41
809.88	227.30
810.20	227.29
810.52	227.31
810.84	227.31
811.16	227.25
811.48	227.23
811.80	227.23
812.12	227.20
812.43	227.17
812.75	227.15
813.07	227.08
813.39	227.06
813.71	227.08
814.03	227.08
814.35	227.05
814.67	226.99
814.98	226.95
815.30	226.91
815.62	226.92
815.94	226.84
816.26	226.90
816.58	226.90
816.89	226.93
817.21	226.88
817.53	226.82
817.85	226.86
818.17	226.83
818.48	226.79
818.80	226.81
819.12	226.79
819.44	226.75
819.76	226.73
820.07	226.69
820.39	226.68
820.71	226.64
821.03	226.65
821.34	226.61
821.66	226.58
821.98	226.58
822.30	226.54
822.61	226.59
822.93	226.55
823.25	226.56
823.57	226.49
823.88	226.46
824.20	226.47
824.52	226.46
824.83	226.44
825.15	226.41
825.47	226.39
825.79	226.39
826.10	226.39
826.42	226.41
826.74	226.40
827.05	226.38
827.37	226.39
827.69	226.37
828.00	226.38
828.32	226.41
828.64	226.39
828.95	226.45
829.27	226.42
829.58	226.39
829.90	226.38
830.22	226.38
830.53	226.36
830.85	226.35
831.17	226.32
831.48	226.33
831.80	226.33
832.11	226.31
832.43	226.29
832.75	226.25
833.06	226.30
833.38	226.29
833.69	226.25
834.01	226.23
834.32	226.19
834.64	226.16
834.96	226.12
835.27	226.13
835.59	226.07
835.90	226.04
836.22	226.03
836.53	225.97
836.85	225.98
837.16	226.03
837.48	226.02
837.79	226.01
838.11	225.99
838.42	226.00
838.74	226.03
839.05	226.02
839.37	226.03
839.68	225.97
840.00	225.94
840.31	225.97
840.63	225.96
840.94	225.95
841.26	225.94
841.57	225.92
841.88	225.91
842.20	225.90
842.51	225.88
842.83	225.89
843.14	226.00
843.46	225.97
843.77	225.95
844.08	225.92
844.40	225.90
844.71	225.87
845.03	225.84
845.34	225.79
845.65	225.79
845.97	225.79
846.28	225.77
846.60	225.78
846.91	225.75
847.22	225.77
847.54	225.82
847.85	225.85
848.16	225.88
848.48	225.85
848.79	225.89
849.10	225.88
849.42	225.85
849.73	225.76
850.04	225.75
850.36	225.70
850.67	225.70
850.98	225.72
851.30	225.73
851.61	225.72
851.92	225.74
852.23	225.77
852.55	225.76
852.86	225.76
853.17	225.76
853.49	225.78
853.80	225.80
854.11	225.76
854.42	225.76
854.74	225.74
855.05	225.74
855.36	225.69
855.67	225.70
855.99	225.68
856.30	225.78
856.61	225.80
856.92	225.79
857.23	225.79
857.55	225.75
857.86	225.75
858.17	225.79
858.48	225.71
858.79	225.68
859.11	225.69
859.42	225.67
859.73	225.67
860.04	225.68
860.35	225.63
860.66	225.61
860.98	225.61
861.29	225.62
861.60	225.64
861.91	225.64
862.22	225.64
862.53	225.67
862.84	225.56
863.16	225.59
863.47	225.59
863.78	225.60
864.09	225.60
864.40	225.62
864.71	225.58
865.02	225.62
865.33	225.60
865.64	225.60
865.95	225.60
866.27	225.64
866.58	225.59
866.89	225.59
867.20	225.57
867.51	225.54
867.82	225.53
868.13	225.53
868.44	225.51
868.75	225.54
869.06	225.50
869.37	225.51
869.68	225.43
869.99	225.40
870.30	225.44
870.61	225.43
870.92	225.43
871.23	225.45
871.54	225.47
871.85	225.47
872.16	225.46
872.47	225.43
872.78	225.38
873.09	225.43
873.40	225.39
873.71	225.40
874.02	225.38
874.33	225.36
874.64	225.33
874.95	225.34
875.26	225.27
875.56	225.29
875.87	225.27
876.18	225.29
876.49	225.42
876.80	225.38
877.11	225.39
877.42	225.36
877.73	225.34
878.04	225.32
878.35	225.33
878.66	225.34
878.96	225.36
879.27	225.34
879.58	225.30
879.89	225.32
880.20	225.34
880.51	225.34
880.82	225.31
881.12	225.30
881.43	225.28
881.74	225.27
882.05	225.28
882.36	225.29
882.67	225.27
882.97	225.15
883.28	225.13
883.59	225.10
883.90	225.13
884.21	225.16
884.51	225.14
884.82	225.14
885.13	225.14
885.44	225.12
885.74	225.14
886.05	225.14
886.36	225.16
886.67	225.13
886.98	225.18
887.28	225.21
887.59	225.22
887.90	225.23
888.20	225.20
888.51	225.20
888.82	225.19
889.13	225.21
889.43	225.29
889.74	225.27
890.05	225.25
890.35	225.21
890.66	225.19
890.97	225.16
891.28	225.15
891.58	225.14
891.89	225.12
892.20	225.09
892.50	225.09
892.81	225.04
893.12	225.01
893.42	224.98
893.73	224.97
894.04	224.99
894.34	225.00
894.65	225.01
894.95	225.00
895.26	224.98
895.57	225.02
895.87	224.93
896.18	224.95
896.48	224.98
896.79	224.99
897.10	225.00
897.40	225.02
897.71	225.00
898.01	224.99
898.32	225.05
898.63	225.04
898.93	225.05
899.24	225.06
899.54	225.06
899.85	225.03
900.15	225.02
900.46	224.99
900.76	224.98
901.07	224.98
901.38	224.96
901.68	224.95
901.99	224.88
902.29	224.90
902.60	224.90
902.90	224.89
903.21	224.88
903.51	224.86
903.82	224.86
904.12	224.87
904.43	224.84
904.73	224.80
905.03	224.79
905.34	224.89
905.64	224.89
905.95	224.89
906.25	224.90
906.56	224.92
906.86	224.93
907.17	224.93
907.47	224.94
907.77	224.96
908.08	224.97
908.38	224.98
908.69	224.98
908.99	224.99
909.30	224.99
909.60	224.99
909.90	225.01
910.21	224.99
910.51	224.98
910.81	225.01
911.12	224.99
911.42	225.01
911.73	224.88
912.03	224.93
912.33	224.97
912.64	224.99
912.94	224.99
913.24	224.97
913.55	224.97
913.85	224.96
914.15	224.97
914.46	224.96
914.76	224.97
915.06	224.98
915.37	224.96
915.67	224.95
915.97	224.98
916.27	224.96
916.58	224.98
916.88	225.02
917.18	225.00
917.49	225.11
917.79	225.11
918.09	225.16
918.39	225.18
918.70	225.20
919.00	225.18
919.30	225.19
919.60	225.20
919.91	225.17
920.21	225.17
920.51	225.14
920.81	225.11
921.12	225.13
921.42	225.12
921.72	225.12
922.02	225.13
922.32	225.15
922.63	225.19
922.93	225.24
923.23	225.22
923.53	225.26
923.83	225.19
924.13	225.22
924.44	225.21
924.74	225.19
925.04	225.19
925.34	225.21
925.64	225.19
925.94	225.19
926.24	225.26
926.55	225.25
926.85	225.26
927.15	225.29
927.45	225.29
927.75	225.30
928.05	225.31
928.35	225.32
928.65	225.32
928.95	225.30
929.26	225.27
929.56	225.28
929.86	225.26
930.16	225.26
930.46	225.21
930.76	225.20
931.06	225.14
931.36	225.10
931.66	225.10
931.96	225.12
932.26	225.10
932.56	225.07
932.86	225.10
933.16	225.11
933.46	225.12
933.76	225.08
934.06	225.09
934.36	225.09
934.66	225.11
934.96	225.08
935.26	225.06
935.56	225.07
935.86	225.06
936.16	225.04
936.46	225.03
936.76	225.04
937.06	225.04
937.36	225.08
937.66	225.10
937.96	225.06
938.26	225.03
938.56	225.03
938.86	225.01
939.16	225.05
939.46	225.07
939.76	225.03
940.06	225.06
940.35	225.04
940.65	225.02
940.95	224.99
941.25	225.00
941.55	225.01
941.85	225.00
942.15	224.99
942.45	225.02
942.75	225.01
943.04	225.02
943.34	225.03
943.64	225.01
943.94	224.99
944.24	225.02
944.54	224.98
944.84	225.00
945.13	225.00
945.43	224.99
945.73	224.96
946.03	224.99
946.33	224.96
946.62	224.95
946.92	224.92
947.22	224.93
947.52	224.90
947.82	224.91
948.11	224.90
948.41	224.89
948.71	224.85
949.01	224.87
949.31	224.88
949.60	224.87
949.90	224.88
950.20	224.85
950.50	224.83
950.79	224.86
951.09	224.87
951.39	224.87
951.69	224.81
951.98	224.85
952.28	224.85
952.58	224.82
952.87	224.83
953.17	224.85
953.47	224.87
953.76	224.86
954.06	224.85
954.36	224.84
954.66	224.86
954.95	224.88
955.25	224.88
955.55	224.86
955.84	224.85
956.14	224.88
956.44	224.92
956.73	224.90
957.03	224.94
957.32	224.91
957.62	224.93
957.92	224.94
958.21	224.91
958.51	225.03
958.81	225.10
959.10	225.13
959.40	225.17
959.69	225.18
959.99	225.21
960.29	225.20
960.58	225.19
960.88	225.22
961.17	225.22
961.47	225.23
961.76	225.22
962.06	225.23
962.36	225.21
962.65	225.22
962.95	225.23
963.24	225.23
963.54	225.24
963.83	225.25
964.13	225.28
964.42	225.27
964.72	225.18
965.01	225.18
965.31	225.19
965.60	225.15
965.90	225.20
966.19	225.18
966.49	225.20
966.78	225.18
967.08	225.18
967.37	225.20
967.67	225.20
967.96	225.21
968.26	225.22
968.55	225.20
968.85	225.19
969.14	225.19
969.43	225.17
969.73	225.17
970.02	225.15
970.32	225.14
970.61	225.13
970.91	225.11
971.20	225.07
971.49	225.02
971.79	225.04
972.08	224.96
972.38	224.96
972.67	224.91
972.96	224.97
973.26	224.95
973.55	224.95
973.85	224.90
974.14	224.91
974.43	224.92
974.73	224.92
975.02	224.93
975.31	224.94
975.61	224.95
975.90	224.93
976.19	224.92
976.49	224.92
976.78	224.93
977.07	224.91
977.37	224.94
977.66	224.96
977.95	224.91
978.24	224.95
978.54	224.97
978.83	224.98
979.12	224.93
979.42	224.93
979.71	224.92
980.00	224.95
980.29	224.94
980.59	224.91
980.88	224.94
981.17	224.90
981.46	224.87
981.76	224.84
982.05	224.90
982.34	224.92
982.63	224.90
982.93	224.90
983.22	224.93
983.51	224.90
983.80	224.95
984.09	224.98
984.39	224.96
984.68	224.95
984.97	224.95
985.26	224.96
985.55	224.96
985.85	224.95
986.14	224.97
986.43	225.02
986.72	225.00
987.01	224.98
987.30	225.00
987.59	225.05
987.89	225.06
988.18	225.03
988.47	225.00
988.76	225.04
989.05	225.02
989.34	225.02
989.63	225.08
989.92	225.03
990.22	225.03
990.51	225.02
990.80	225.04
991.09	225.06
991.38	225.10
991.67	225.12
991.96	225.12
992.25	225.11
992.54	225.07
992.83	225.08
993.12	225.07
993.41	225.09
993.70	225.08
993.99	225.11
994.28	225.10
994.58	225.10
994.87	225.06
995.16	225.10
995.45	225.12
995.74	225.07
996.03	225.07
996.32	225.09
996.61	225.12
996.90	225.07
997.19	225.09
997.48	225.08
997.77	225.03
998.06	225.01
998.34	224.98
998.63	224.99
998.92	225.01
999.21	225.04
999.50	225.05
999.79	225.05
1000.08	225.02
1000.37	225.05
1000.66	225.02
1000.95	225.06
1001.24	225.03
1001.53	225.02
1001.82	225.03
1002.11	225.00
1002.40	224.99
1002.68	224.98
1002.97	225.05
1003.26	225.01
1003.55	224.98
1003.84	225.00
1004.13	225.01
1004.42	225.05
1004.71	225.02
1004.99	225.01
1005.28	225.00
1005.57	225.00
1005.86	225.01
1006.15	224.99
1006.44	224.98
1006.72	225.03
1007.01	224.99
1007.30	224.97
1007.59	224.93
1007.88	224.92
1008.17	224.93
1008.45	224.90
1008.74	224.88
1009.03	224.85
1009.32	224.84
1009.60	224.84
1009.89	224.82
1010.18	224.81
1010.47	224.77
1010.76	224.75
1011.04	224.77
1011.33	224.79
1011.62	224.76
1011.91	224.75
1012.19	224.76
1012.48	224.75
1012.77	224.72
1013.05	224.78
1013.34	224.79
1013.63	224.79
1013.92	224.80
1014.20	224.80
1014.49	224.79
1014.78	224.78
1015.06	224.75
1015.35	224.74
1015.64	224.76
1015.92	224.75
1016.21	224.74
1016.50	224.73
1016.78	224.78
1017.07	224.75
1017.36	224.72
1017.64	224.69
1017.93	224.68
1018.22	224.65
1018.50	224.62
1018.79	224.61
1019.08	224.55
1019.36	224.56
1019.65	224.53
1019.93	224.53
1020.22	224.54
1020.51	224.60
1020.79	224.58
1021.08	224.30
1021.36	223.91
1021.65	224.60
1021.94	224.51
1022.22	224.70
1022.51	223.85
1022.79	224.88
1023.08	224.58
1023.36	225.69
1023.65	224.32
>>>>>End Processed Spectral Data<<<<<
