SpectraSuite Data File
++++++++++++++++++++++++++++++++++++
Date: Fri Feb 01 15:06:03 EST 2013
User: group
Dark Spectrum Present: No
Reference Spectrum Present: No
Number of Sampled Component Spectra: 1
Spectrometers: USB2E7196
Integration Time (usec): 35000 (USB2E7196)
Spectra Averaged: 100 (USB2E7196)
Boxcar Smoothing: 10 (USB2E7196)
Correct for Electrical Dark: No (USB2E7196)
Strobe/Lamp Enabled: No (USB2E7196)
Correct for Detector Non-linearity: No (USB2E7196)
Correct for Stray Light: No (USB2E7196)
Number of Pixels in Processed Spectrum: 2048
>>>>>Begin Processed Spectral Data<<<<<
339.09	0.00
339.48	215.06
339.86	216.26
340.24	217.60
340.63	219.21
341.01	221.87
341.39	221.55
341.78	223.05
342.16	224.94
342.54	224.54
342.93	213.26
343.31	224.01
343.69	224.56
344.07	225.03
344.46	225.46
344.84	225.85
345.22	226.08
345.60	226.34
345.99	226.54
346.37	226.65
346.75	226.74
347.13	226.83
347.52	226.89
347.90	226.98
348.28	227.04
348.66	227.07
349.05	227.10
349.43	227.15
349.81	227.22
350.19	227.24
350.57	227.32
350.96	227.41
351.34	227.55
351.72	227.65
352.10	227.75
352.48	227.84
352.87	227.90
353.25	227.99
353.63	228.08
354.01	228.13
354.39	228.22
354.77	228.30
355.15	228.42
355.54	228.47
355.92	228.54
356.30	228.61
356.68	228.73
357.06	228.77
357.44	228.84
357.82	228.92
358.20	229.01
358.58	229.06
358.97	229.12
359.35	229.18
359.73	229.22
360.11	229.27
360.49	229.31
360.87	229.35
361.25	229.39
361.63	229.46
362.01	229.53
362.39	229.53
362.77	229.61
363.15	229.59
363.53	229.60
363.91	229.60
364.29	229.62
364.67	229.55
365.05	229.58
365.43	229.60
365.81	229.59
366.19	229.63
366.57	229.61
366.95	229.57
367.33	229.51
367.71	229.53
368.09	229.52
368.47	229.48
368.85	229.48
369.23	229.44
369.61	229.35
369.99	229.30
370.37	229.29
370.75	229.29
371.13	229.24
371.51	229.22
371.89	229.15
372.27	229.09
372.65	229.05
373.03	228.99
373.41	228.91
373.78	228.82
374.16	228.72
374.54	228.64
374.92	228.57
375.30	228.49
375.68	228.38
376.06	228.31
376.44	228.24
376.82	228.12
377.19	228.06
377.57	228.01
377.95	227.92
378.33	227.84
378.71	227.71
379.09	227.63
379.47	227.55
379.84	227.49
380.22	227.38
380.60	227.27
380.98	227.14
381.36	227.04
381.73	226.97
382.11	226.89
382.49	226.82
382.87	226.74
383.25	226.67
383.62	226.70
384.00	226.60
384.38	226.56
384.76	226.52
385.13	226.49
385.51	226.40
385.89	226.38
386.27	226.33
386.64	226.28
387.02	226.28
387.40	226.21
387.78	226.16
388.15	226.16
388.53	226.12
388.91	226.12
389.29	226.14
389.66	226.14
390.04	226.14
390.42	226.14
390.79	226.15
391.17	226.15
391.55	226.06
391.92	226.08
392.30	226.11
392.68	226.11
393.05	226.14
393.43	226.18
393.81	226.19
394.18	226.19
394.56	226.23
394.94	226.25
395.31	226.29
395.69	226.37
396.06	226.40
396.44	226.48
396.82	226.55
397.19	226.62
397.57	226.65
397.95	226.70
398.32	226.76
398.70	226.86
399.07	226.96
399.45	227.06
399.82	227.17
400.20	227.21
400.58	227.32
400.95	227.33
401.33	227.47
401.70	227.62
402.08	227.72
402.45	227.81
402.83	227.94
403.20	228.08
403.58	228.17
403.95	228.36
404.33	228.50
404.71	228.64
405.08	228.83
405.46	228.97
405.83	229.15
406.21	229.31
406.58	229.48
406.96	229.62
407.33	229.82
407.70	229.98
408.08	230.26
408.45	230.48
408.83	230.76
409.20	230.94
409.58	231.12
409.95	231.39
410.33	231.68
410.70	231.92
411.08	232.22
411.45	232.53
411.82	232.78
412.20	233.13
412.57	233.54
412.95	233.84
413.32	234.22
413.69	234.63
414.07	235.04
414.44	235.48
414.82	235.98
415.19	236.50
415.56	237.10
415.94	237.67
416.31	238.31
416.68	238.91
417.06	239.60
417.43	240.30
417.81	241.05
418.18	241.79
418.55	242.62
418.93	243.48
419.30	244.35
419.67	245.32
420.04	246.27
420.42	247.25
420.79	248.44
421.16	249.65
421.54	250.83
421.91	252.03
422.28	253.33
422.66	254.63
423.03	255.94
423.40	257.20
423.77	258.59
424.15	259.99
424.52	261.49
424.89	263.12
425.26	264.67
425.64	266.10
426.01	267.72
426.38	269.40
426.75	271.06
427.13	272.81
427.50	274.62
427.87	276.49
428.24	278.36
428.61	280.07
428.99	281.97
429.36	284.07
429.73	286.14
430.10	288.11
430.47	290.20
430.85	292.30
431.22	294.58
431.59	296.96
431.96	299.19
432.33	301.67
432.70	304.07
433.08	306.87
433.45	309.55
433.82	312.17
434.19	315.06
434.56	317.90
434.93	320.58
435.30	323.20
435.68	326.11
436.05	328.94
436.42	331.76
436.79	334.30
437.16	336.99
437.53	339.86
437.90	342.69
438.27	345.44
438.64	348.28
439.01	350.91
439.38	353.14
439.75	355.39
440.13	357.89
440.50	360.20
440.87	362.10
441.24	364.06
441.61	366.21
441.98	367.71
442.35	369.55
442.72	371.41
443.09	373.18
443.46	374.20
443.83	374.77
444.20	375.27
444.57	376.14
444.94	376.48
445.31	376.79
445.68	377.21
446.05	377.28
446.42	376.91
446.79	376.47
447.16	376.10
447.53	375.77
447.90	374.68
448.27	373.58
448.64	372.00
449.01	370.86
449.37	368.91
449.74	366.98
450.11	364.70
450.48	362.24
450.85	359.74
451.22	357.60
451.59	355.66
451.96	353.74
452.33	351.12
452.70	348.77
453.07	345.98
453.43	343.03
453.80	340.29
454.17	337.63
454.54	335.09
454.91	332.31
455.28	329.62
455.65	327.05
456.02	324.55
456.38	322.41
456.75	319.73
457.12	317.48
457.49	315.28
457.86	313.13
458.23	311.24
458.59	309.21
458.96	307.11
459.33	305.21
459.70	303.32
460.07	301.79
460.43	300.00
460.80	298.40
461.17	296.95
461.54	295.42
461.91	293.93
462.27	292.43
462.64	291.18
463.01	289.77
463.38	288.49
463.74	287.08
464.11	285.86
464.48	284.83
464.85	283.70
465.21	282.82
465.58	281.87
465.95	280.75
466.32	279.81
466.68	278.89
467.05	277.99
467.42	277.06
467.78	276.09
468.15	275.22
468.52	274.48
468.88	273.60
469.25	272.78
469.62	272.15
469.98	271.46
470.35	270.80
470.72	270.21
471.08	269.53
471.45	268.99
471.82	268.43
472.18	267.81
472.55	267.33
472.92	266.77
473.28	266.30
473.65	265.83
474.02	265.37
474.38	264.98
474.75	264.60
475.11	264.26
475.48	263.99
475.85	263.71
476.21	263.45
476.58	263.28
476.94	263.17
477.31	262.98
477.67	262.84
478.04	262.70
478.41	262.63
478.77	262.65
479.14	262.55
479.50	262.53
479.87	262.59
480.23	262.66
480.60	262.72
480.96	262.81
481.33	263.03
481.69	263.21
482.06	263.42
482.42	263.63
482.79	263.87
483.15	264.24
483.52	264.65
483.88	265.00
484.25	265.37
484.61	265.77
484.98	266.23
485.34	266.81
485.71	267.42
486.07	268.02
486.44	268.56
486.80	269.29
487.17	270.02
487.53	270.83
487.90	271.65
488.26	272.57
488.62	273.54
488.99	274.51
489.35	275.54
489.72	276.63
490.08	277.83
490.44	279.09
490.81	280.35
491.17	281.67
491.54	283.13
491.90	284.68
492.26	286.30
492.63	288.03
492.99	289.79
493.36	291.69
493.72	293.72
494.08	295.85
494.45	298.12
494.81	300.48
495.17	302.93
495.54	305.51
495.90	308.16
496.26	310.94
496.63	313.93
496.99	317.02
497.35	320.22
497.72	323.63
498.08	327.10
498.44	330.77
498.80	334.68
499.17	338.70
499.53	342.84
499.89	347.24
500.26	351.77
500.62	356.44
500.98	361.41
501.34	366.47
501.71	371.81
502.07	377.16
502.43	382.77
502.79	388.58
503.16	394.63
503.52	400.91
503.88	407.31
504.24	413.85
504.60	420.72
504.97	427.86
505.33	435.11
505.69	442.79
506.05	450.61
506.41	458.51
506.78	466.74
507.14	475.19
507.50	483.87
507.86	492.84
508.22	502.00
508.59	511.17
508.95	520.80
509.31	530.55
509.67	540.65
510.03	550.85
510.39	561.41
510.75	572.22
511.12	583.19
511.48	594.34
511.84	605.75
512.20	617.32
512.56	629.25
512.92	641.53
513.28	653.89
513.64	666.35
514.00	679.06
514.37	691.98
514.73	705.09
515.09	718.09
515.45	731.40
515.81	745.05
516.17	758.99
516.53	773.03
516.89	787.22
517.25	801.47
517.61	815.98
517.97	830.36
518.33	844.77
518.69	859.63
519.05	874.83
519.41	890.07
519.77	905.59
520.13	921.08
520.49	936.36
520.85	951.84
521.21	967.55
521.57	983.74
521.93	999.46
522.29	1015.84
522.65	1032.20
523.01	1048.45
523.37	1064.52
523.73	1080.70
524.09	1096.90
524.45	1113.28
524.81	1129.92
525.17	1146.84
525.53	1163.78
525.89	1180.75
526.25	1197.50
526.61	1213.91
526.97	1230.79
527.33	1247.36
527.68	1264.04
528.04	1280.64
528.40	1297.35
528.76	1314.45
529.12	1331.17
529.48	1348.19
529.84	1364.26
530.20	1380.82
530.56	1397.88
530.91	1415.28
531.27	1432.25
531.63	1448.80
531.99	1465.34
532.35	1481.43
532.71	1497.30
533.07	1513.72
533.42	1529.63
533.78	1545.88
534.14	1562.18
534.50	1577.53
534.86	1593.51
535.21	1608.70
535.57	1624.80
535.93	1640.34
536.29	1655.22
536.65	1670.41
537.00	1685.27
537.36	1700.70
537.72	1715.34
538.08	1729.79
538.44	1743.63
538.79	1757.65
539.15	1771.41
539.51	1785.27
539.87	1799.69
540.22	1813.67
540.58	1827.60
540.94	1841.06
541.29	1854.02
541.65	1866.88
542.01	1880.27
542.37	1892.58
542.72	1905.19
543.08	1917.00
543.44	1929.45
543.79	1940.86
544.15	1951.91
544.51	1963.58
544.87	1974.57
545.22	1985.52
545.58	1995.84
545.94	2005.72
546.29	2015.54
546.65	2025.42
547.01	2034.84
547.36	2043.59
547.72	2051.92
548.07	2059.70
548.43	2068.05
548.79	2076.11
549.14	2083.72
549.50	2091.13
549.86	2099.14
550.21	2106.44
550.57	2113.60
550.92	2120.19
551.28	2127.29
551.64	2134.30
551.99	2140.84
552.35	2147.04
552.70	2153.21
553.06	2159.12
553.41	2165.66
553.77	2171.74
554.13	2177.91
554.48	2183.99
554.84	2189.32
555.19	2194.79
555.55	2199.82
555.90	2204.22
556.26	2209.03
556.61	2213.69
556.97	2217.68
557.32	2221.46
557.68	2225.60
558.03	2229.79
558.39	2233.57
558.74	2238.03
559.10	2241.89
559.45	2245.47
559.81	2249.82
560.16	2253.51
560.52	2256.75
560.87	2259.97
561.23	2262.37
561.58	2265.19
561.94	2267.56
562.29	2270.08
562.64	2272.58
563.00	2275.23
563.35	2278.68
563.71	2281.59
564.06	2284.65
564.42	2287.52
564.77	2290.07
565.12	2292.14
565.48	2294.09
565.83	2295.68
566.19	2296.86
566.54	2297.67
566.89	2298.70
567.25	2299.01
567.60	2300.24
567.96	2301.79
568.31	2302.50
568.66	2303.52
569.02	2303.90
569.37	2304.06
569.72	2304.61
570.08	2304.63
570.43	2304.53
570.78	2303.64
571.14	2302.15
571.49	2300.76
571.84	2300.41
572.20	2298.97
572.55	2297.79
572.90	2296.13
573.26	2294.66
573.61	2292.92
573.96	2291.07
574.31	2287.95
574.67	2284.77
575.02	2281.02
575.37	2277.52
575.72	2273.55
576.08	2270.16
576.43	2266.76
576.78	2263.04
577.13	2259.90
577.49	2256.68
577.84	2253.07
578.19	2249.29
578.54	2245.54
578.90	2241.05
579.25	2235.29
579.60	2230.36
579.95	2225.26
580.30	2220.09
580.66	2214.83
581.01	2209.73
581.36	2204.59
581.71	2200.15
582.06	2195.68
582.42	2191.14
582.77	2185.77
583.12	2181.09
583.47	2176.12
583.82	2170.98
584.17	2165.67
584.53	2160.01
584.88	2154.28
585.23	2148.38
585.58	2142.84
585.93	2137.21
586.28	2132.45
586.63	2127.31
586.98	2122.15
587.34	2117.41
587.69	2112.39
588.04	2107.06
588.39	2101.38
588.74	2094.98
589.09	2088.95
589.44	2082.13
589.79	2076.02
590.14	2070.26
590.49	2063.67
590.84	2057.32
591.19	2051.18
591.54	2044.67
591.89	2037.19
592.25	2030.30
592.60	2023.02
592.95	2015.32
593.30	2007.95
593.65	2000.30
594.00	1993.11
594.35	1985.72
594.70	1977.68
595.05	1970.38
595.40	1963.03
595.75	1955.32
596.10	1948.90
596.45	1941.85
596.80	1935.50
597.15	1928.74
597.50	1921.69
597.85	1915.15
598.19	1908.41
598.54	1901.35
598.89	1894.68
599.24	1888.77
599.59	1881.88
599.94	1875.62
600.29	1869.14
600.64	1862.47
600.99	1854.81
601.34	1847.97
601.69	1841.02
602.04	1833.97
602.39	1826.53
602.74	1819.62
603.08	1812.95
603.43	1806.22
603.78	1799.01
604.13	1791.78
604.48	1784.48
604.83	1777.60
605.18	1770.49
605.53	1762.51
605.87	1754.37
606.22	1747.07
606.57	1739.13
606.92	1731.97
607.27	1724.75
607.62	1717.83
607.96	1710.56
608.31	1704.04
608.66	1696.32
609.01	1688.68
609.36	1681.10
609.70	1673.01
610.05	1664.90
610.40	1657.05
610.75	1648.73
611.10	1640.99
611.44	1632.69
611.79	1624.82
612.14	1616.08
612.49	1607.13
612.83	1598.77
613.18	1590.66
613.53	1582.59
613.88	1573.99
614.22	1565.72
614.57	1557.12
614.92	1549.19
615.27	1541.64
615.61	1533.32
615.96	1525.41
616.31	1517.90
616.65	1510.46
617.00	1503.00
617.35	1495.37
617.70	1487.02
618.04	1478.52
618.39	1470.41
618.74	1462.75
619.08	1454.46
619.43	1446.94
619.78	1439.99
620.12	1432.88
620.47	1425.37
620.82	1417.22
621.16	1409.93
621.51	1402.33
621.85	1394.73
622.20	1386.23
622.55	1377.93
622.89	1370.14
623.24	1362.60
623.59	1355.26
623.93	1347.83
624.28	1340.57
624.62	1333.06
624.97	1326.00
625.32	1319.39
625.66	1312.42
626.01	1305.25
626.35	1297.78
626.70	1290.10
627.04	1282.41
627.39	1274.63
627.73	1267.25
628.08	1260.36
628.43	1252.99
628.77	1245.69
629.12	1238.16
629.46	1231.00
629.81	1223.54
630.15	1216.34
630.50	1208.87
630.84	1200.65
631.19	1192.80
631.53	1185.38
631.88	1177.96
632.22	1170.42
632.57	1163.09
632.91	1155.60
633.26	1148.22
633.60	1140.91
633.95	1133.83
634.29	1126.87
634.64	1120.19
634.98	1112.88
635.32	1105.75
635.67	1099.29
636.01	1092.69
636.36	1086.03
636.70	1079.53
637.05	1073.11
637.39	1066.67
637.73	1060.26
638.08	1054.47
638.42	1048.55
638.77	1042.13
639.11	1035.42
639.45	1029.07
639.80	1022.43
640.14	1015.96
640.49	1009.51
640.83	1003.28
641.17	997.11
641.52	990.74
641.86	984.49
642.20	978.79
642.55	972.55
642.89	965.98
643.23	959.44
643.58	953.60
643.92	947.47
644.26	941.34
644.61	935.42
644.95	929.40
645.29	922.76
645.64	916.01
645.98	909.68
646.32	904.07
646.66	898.12
647.01	892.35
647.35	886.74
647.69	880.89
648.04	875.27
648.38	869.42
648.72	863.41
649.06	857.33
649.41	851.38
649.75	845.36
650.09	839.41
650.43	833.66
650.78	827.56
651.12	821.65
651.46	815.98
651.80	810.17
652.14	804.79
652.49	799.50
652.83	794.34
653.17	788.68
653.51	782.86
653.85	777.48
654.20	771.81
654.54	765.87
654.88	760.14
655.22	754.30
655.56	748.65
655.90	743.23
656.25	737.93
656.59	732.59
656.93	727.52
657.27	722.38
657.61	716.93
657.95	711.81
658.29	706.72
658.64	701.45
658.98	696.18
659.32	690.70
659.66	685.47
660.00	680.10
660.34	675.23
660.68	670.31
661.02	665.21
661.36	660.49
661.70	655.96
662.05	651.63
662.39	647.38
662.73	642.93
663.07	638.58
663.41	634.13
663.75	629.65
664.09	625.18
664.43	620.84
664.77	616.71
665.11	612.52
665.45	608.37
665.79	604.31
666.13	600.20
666.47	596.20
666.81	592.09
667.15	587.98
667.49	584.09
667.83	580.31
668.17	576.40
668.51	572.39
668.85	568.41
669.19	564.58
669.53	560.68
669.87	556.77
670.21	553.07
670.55	549.51
670.89	546.13
671.23	542.67
671.57	539.21
671.91	535.77
672.25	532.35
672.58	528.89
672.92	525.53
673.26	522.45
673.60	519.28
673.94	516.20
674.28	513.39
674.62	510.47
674.96	507.37
675.30	504.54
675.64	501.63
675.97	498.86
676.31	496.07
676.65	493.17
676.99	490.55
677.33	487.74
677.67	484.91
678.01	481.89
678.34	478.92
678.68	476.08
679.02	473.25
679.36	470.49
679.70	467.81
680.04	465.03
680.37	462.14
680.71	459.36
681.05	456.75
681.39	454.06
681.73	451.45
682.06	449.01
682.40	446.46
682.74	443.91
683.08	441.42
683.42	438.84
683.75	436.39
684.09	433.87
684.43	431.41
684.77	428.97
685.10	426.64
685.44	424.40
685.78	422.13
686.12	419.88
686.45	417.60
686.79	415.30
687.13	413.11
687.46	410.94
687.80	408.85
688.14	406.70
688.48	404.61
688.81	402.36
689.15	400.18
689.49	398.03
689.82	395.98
690.16	393.84
690.50	391.90
690.83	389.90
691.17	388.00
691.51	386.11
691.84	384.23
692.18	382.29
692.52	380.30
692.85	378.39
693.19	376.53
693.52	374.71
693.86	372.95
694.20	371.20
694.53	369.44
694.87	367.57
695.21	365.81
695.54	364.05
695.88	362.32
696.21	360.58
696.55	358.93
696.88	357.28
697.22	355.67
697.56	354.03
697.89	352.43
698.23	350.81
698.56	349.21
698.90	347.67
699.23	346.03
699.57	344.47
699.90	342.96
700.24	341.44
700.58	339.93
700.91	338.41
701.25	337.00
701.58	335.59
701.92	334.23
702.25	332.80
702.59	331.45
702.92	330.19
703.26	328.91
703.59	327.58
703.93	326.40
704.26	325.16
704.60	323.89
704.93	322.62
705.26	321.35
705.60	320.20
705.93	319.07
706.27	318.07
706.60	317.04
706.94	315.94
707.27	314.82
707.61	313.75
707.94	312.73
708.27	311.62
708.61	310.57
708.94	309.58
709.28	308.61
709.61	307.60
709.94	306.63
710.28	305.63
710.61	304.72
710.95	303.67
711.28	302.75
711.61	301.78
711.95	300.88
712.28	299.91
712.61	298.90
712.95	297.93
713.28	297.05
713.61	296.16
713.95	295.24
714.28	294.40
714.61	293.55
714.95	292.71
715.28	291.90
715.61	291.02
715.95	290.13
716.28	289.32
716.61	288.53
716.95	287.73
717.28	287.01
717.61	286.21
717.94	285.49
718.28	284.75
718.61	284.06
718.94	283.40
719.27	282.80
719.61	282.17
719.94	281.53
720.27	280.78
720.60	280.13
720.94	279.54
721.27	278.95
721.60	278.39
721.93	277.80
722.27	277.27
722.60	276.72
722.93	276.20
723.26	275.65
723.59	275.07
723.93	274.54
724.26	274.02
724.59	273.48
724.92	272.92
725.25	272.43
725.59	271.89
725.92	271.36
726.25	270.87
726.58	270.38
726.91	269.90
727.24	269.48
727.57	269.01
727.91	268.48
728.24	268.04
728.57	267.49
728.90	267.02
729.23	266.46
729.56	266.07
729.89	265.61
730.22	265.11
730.55	264.71
730.89	264.21
731.22	263.73
731.55	263.33
731.88	262.95
732.21	262.51
732.54	262.10
732.87	261.68
733.20	261.25
733.53	260.82
733.86	260.45
734.19	260.03
734.52	259.66
734.85	259.35
735.18	258.91
735.51	258.57
735.84	258.19
736.17	257.88
736.50	257.47
736.83	257.22
737.16	256.93
737.49	256.53
737.82	256.23
738.15	255.88
738.48	255.56
738.81	255.20
739.14	254.85
739.47	254.54
739.80	254.21
740.13	253.88
740.46	253.57
740.79	253.19
741.12	252.86
741.45	252.56
741.78	252.20
742.11	251.93
742.44	251.59
742.77	251.31
743.10	251.00
743.43	250.68
743.75	250.28
744.08	250.08
744.41	249.84
744.74	249.56
745.07	249.29
745.40	249.01
745.73	248.79
746.06	248.51
746.39	248.22
746.71	247.98
747.04	247.70
747.37	247.46
747.70	247.23
748.03	246.97
748.36	246.73
748.68	246.52
749.01	246.27
749.34	246.08
749.67	245.86
750.00	245.60
750.33	245.45
750.65	245.27
750.98	244.98
751.31	244.77
751.64	244.57
751.97	244.43
752.29	244.21
752.62	243.94
752.95	243.74
753.28	243.53
753.60	243.31
753.93	243.14
754.26	242.95
754.59	242.76
754.91	242.60
755.24	242.39
755.57	242.22
755.90	242.02
756.22	241.83
756.55	241.63
756.88	241.46
757.20	241.21
757.53	240.98
757.86	240.78
758.19	240.59
758.51	240.40
758.84	240.17
759.17	240.02
759.49	239.88
759.82	239.75
760.15	239.64
760.47	239.51
760.80	239.35
761.13	239.23
761.45	239.06
761.78	238.92
762.11	238.78
762.43	238.64
762.76	238.51
763.08	238.41
763.41	238.27
763.74	238.17
764.06	238.08
764.39	237.97
764.71	237.85
765.04	237.77
765.37	237.63
765.69	237.52
766.02	237.37
766.34	237.24
766.67	237.12
767.00	237.01
767.32	236.95
767.65	236.89
767.97	236.76
768.30	236.67
768.62	236.53
768.95	236.42
769.27	236.27
769.60	236.19
769.92	236.09
770.25	235.99
770.57	235.84
770.90	235.71
771.22	235.59
771.55	235.47
771.87	235.35
772.20	235.24
772.52	235.23
772.85	235.25
773.17	235.17
773.50	235.05
773.82	234.91
774.15	234.79
774.47	234.64
774.80	234.53
775.12	234.42
775.45	234.37
775.77	234.26
776.09	234.20
776.42	234.09
776.74	234.00
777.07	233.90
777.39	233.86
777.72	233.75
778.04	233.71
778.36	233.63
778.69	233.56
779.01	233.49
779.33	233.35
779.66	233.19
779.98	233.09
780.31	233.03
780.63	233.01
780.95	232.92
781.28	232.88
781.60	232.79
781.92	232.73
782.25	232.66
782.57	232.62
782.89	232.58
783.22	232.51
783.54	232.43
783.86	232.37
784.19	232.28
784.51	232.32
784.83	232.25
785.16	232.17
785.48	232.11
785.80	232.11
786.12	232.06
786.45	231.99
786.77	232.00
787.09	231.95
787.42	231.84
787.74	231.78
788.06	231.75
788.38	231.73
788.71	231.69
789.03	231.63
789.35	231.59
789.67	231.56
789.99	231.52
790.32	231.46
790.64	231.44
790.96	231.50
791.28	231.42
791.61	231.38
791.93	231.38
792.25	231.37
792.57	231.34
792.89	231.29
793.21	231.26
793.54	231.20
793.86	231.14
794.18	231.12
794.50	231.09
794.82	231.04
795.14	231.03
795.47	231.02
795.79	230.99
796.11	230.95
796.43	230.90
796.75	230.86
797.07	230.86
797.39	230.81
797.71	230.72
798.04	230.67
798.36	230.65
798.68	230.61
799.00	230.55
799.32	230.49
799.64	230.49
799.96	230.46
800.28	230.42
800.60	230.39
800.92	230.38
801.24	230.38
801.56	230.37
801.89	230.30
802.21	230.27
802.53	230.23
802.85	230.19
803.17	230.23
803.49	230.16
803.81	230.09
804.13	230.07
804.45	229.99
804.77	230.00
805.09	229.94
805.41	229.91
805.73	229.89
806.05	229.85
806.37	229.78
806.69	229.71
807.01	229.69
807.33	229.70
807.65	229.64
807.97	229.61
808.28	229.56
808.60	229.55
808.92	229.51
809.24	229.49
809.56	229.48
809.88	229.40
810.20	229.39
810.52	229.41
810.84	229.38
811.16	229.35
811.48	229.29
811.80	229.29
812.12	229.23
812.43	229.22
812.75	229.16
813.07	229.13
813.39	229.17
813.71	229.13
814.03	229.07
814.35	229.03
814.67	228.96
814.98	228.91
815.30	228.86
815.62	228.82
815.94	228.76
816.26	228.77
816.58	228.73
816.89	228.71
817.21	228.66
817.53	228.64
817.85	228.62
818.17	228.61
818.48	228.57
818.80	228.58
819.12	228.54
819.44	228.56
819.76	228.51
820.07	228.45
820.39	228.44
820.71	228.47
821.03	228.47
821.34	228.45
821.66	228.46
821.98	228.47
822.30	228.45
822.61	228.51
822.93	228.46
823.25	228.45
823.57	228.44
823.88	228.42
824.20	228.43
824.52	228.45
824.83	228.46
825.15	228.46
825.47	228.49
825.79	228.48
826.10	228.43
826.42	228.44
826.74	228.43
827.05	228.42
827.37	228.36
827.69	228.35
828.00	228.38
828.32	228.37
828.64	228.35
828.95	228.40
829.27	228.35
829.58	228.29
829.90	228.31
830.22	228.36
830.53	228.36
830.85	228.30
831.17	228.28
831.48	228.22
831.80	228.20
832.11	228.18
832.43	228.18
832.75	228.19
833.06	228.25
833.38	228.24
833.69	228.24
834.01	228.27
834.32	228.26
834.64	228.26
834.96	228.25
835.27	228.25
835.59	228.19
835.90	228.18
836.22	228.22
836.53	228.15
836.85	228.08
837.16	228.16
837.48	228.18
837.79	228.20
838.11	228.21
838.42	228.22
838.74	228.20
839.05	228.18
839.37	228.18
839.68	228.11
840.00	228.11
840.31	228.11
840.63	228.08
840.94	228.08
841.26	228.02
841.57	228.04
841.88	228.05
842.20	228.07
842.51	228.03
842.83	228.01
843.14	228.12
843.46	228.13
843.77	228.04
844.08	228.04
844.40	227.99
844.71	227.99
845.03	227.98
845.34	227.98
845.65	227.99
845.97	227.98
846.28	227.96
846.60	227.97
846.91	227.94
847.22	227.93
847.54	227.95
847.85	227.99
848.16	227.93
848.48	227.88
848.79	227.91
849.10	227.94
849.42	227.95
849.73	227.85
850.04	227.85
850.36	227.82
850.67	227.83
850.98	227.85
851.30	227.87
851.61	227.83
851.92	227.82
852.23	227.83
852.55	227.82
852.86	227.80
853.17	227.79
853.49	227.83
853.80	227.83
854.11	227.80
854.42	227.78
854.74	227.78
855.05	227.81
855.36	227.76
855.67	227.74
855.99	227.73
856.30	227.83
856.61	227.81
856.92	227.83
857.23	227.80
857.55	227.81
857.86	227.78
858.17	227.80
858.48	227.79
858.79	227.76
859.11	227.78
859.42	227.79
859.73	227.77
860.04	227.75
860.35	227.74
860.66	227.72
860.98	227.71
861.29	227.73
861.60	227.73
861.91	227.74
862.22	227.72
862.53	227.72
862.84	227.61
863.16	227.63
863.47	227.61
863.78	227.62
864.09	227.59
864.40	227.59
864.71	227.56
865.02	227.54
865.33	227.53
865.64	227.50
865.95	227.48
866.27	227.56
866.58	227.50
866.89	227.52
867.20	227.53
867.51	227.50
867.82	227.46
868.13	227.44
868.44	227.39
868.75	227.40
869.06	227.39
869.37	227.41
869.68	227.37
869.99	227.38
870.30	227.37
870.61	227.40
870.92	227.38
871.23	227.41
871.54	227.44
871.85	227.44
872.16	227.47
872.47	227.45
872.78	227.40
873.09	227.46
873.40	227.43
873.71	227.42
874.02	227.47
874.33	227.49
874.64	227.46
874.95	227.50
875.26	227.51
875.56	227.52
875.87	227.49
876.18	227.50
876.49	227.57
876.80	227.56
877.11	227.52
877.42	227.55
877.73	227.53
878.04	227.49
878.35	227.48
878.66	227.45
878.96	227.45
879.27	227.41
879.58	227.38
879.89	227.38
880.20	227.42
880.51	227.36
880.82	227.32
881.12	227.36
881.43	227.34
881.74	227.30
882.05	227.30
882.36	227.33
882.67	227.32
882.97	227.23
883.28	227.26
883.59	227.28
883.90	227.29
884.21	227.29
884.51	227.32
884.82	227.33
885.13	227.37
885.44	227.37
885.74	227.42
886.05	227.43
886.36	227.43
886.67	227.40
886.98	227.48
887.28	227.53
887.59	227.52
887.90	227.52
888.20	227.53
888.51	227.54
888.82	227.48
889.13	227.49
889.43	227.58
889.74	227.54
890.05	227.53
890.35	227.52
890.66	227.53
890.97	227.52
891.28	227.48
891.58	227.47
891.89	227.49
892.20	227.44
892.50	227.43
892.81	227.45
893.12	227.44
893.42	227.41
893.73	227.39
894.04	227.40
894.34	227.41
894.65	227.39
894.95	227.36
895.26	227.40
895.57	227.42
895.87	227.31
896.18	227.32
896.48	227.33
896.79	227.31
897.10	227.32
897.40	227.30
897.71	227.33
898.01	227.29
898.32	227.28
898.63	227.27
898.93	227.27
899.24	227.27
899.54	227.25
899.85	227.23
900.15	227.21
900.46	227.20
900.76	227.19
901.07	227.18
901.38	227.23
901.68	227.25
901.99	227.23
902.29	227.25
902.60	227.26
902.90	227.23
903.21	227.21
903.51	227.20
903.82	227.24
904.12	227.21
904.43	227.23
904.73	227.23
905.03	227.22
905.34	227.30
905.64	227.25
905.95	227.24
906.25	227.22
906.56	227.22
906.86	227.23
907.17	227.24
907.47	227.26
907.77	227.26
908.08	227.21
908.38	227.21
908.69	227.20
908.99	227.22
909.30	227.24
909.60	227.27
909.90	227.25
910.21	227.20
910.51	227.20
910.81	227.21
911.12	227.22
911.42	227.25
911.73	227.15
912.03	227.20
912.33	227.23
912.64	227.23
912.94	227.25
913.24	227.21
913.55	227.20
913.85	227.17
914.15	227.15
914.46	227.18
914.76	227.15
915.06	227.17
915.37	227.16
915.67	227.13
915.97	227.14
916.27	227.13
916.58	227.17
916.88	227.18
917.18	227.19
917.49	227.24
917.79	227.23
918.09	227.25
918.39	227.26
918.70	227.26
919.00	227.28
919.30	227.32
919.60	227.33
919.91	227.34
920.21	227.37
920.51	227.32
920.81	227.30
921.12	227.32
921.42	227.31
921.72	227.33
922.02	227.36
922.32	227.36
922.63	227.35
922.93	227.41
923.23	227.41
923.53	227.38
923.83	227.30
924.13	227.33
924.44	227.35
924.74	227.33
925.04	227.34
925.34	227.35
925.64	227.31
925.94	227.27
926.24	227.32
926.55	227.31
926.85	227.34
927.15	227.37
927.45	227.39
927.75	227.37
928.05	227.33
928.35	227.30
928.65	227.29
928.95	227.30
929.26	227.27
929.56	227.28
929.86	227.32
930.16	227.31
930.46	227.30
930.76	227.32
931.06	227.29
931.36	227.27
931.66	227.26
931.96	227.26
932.26	227.32
932.56	227.26
932.86	227.26
933.16	227.24
933.46	227.20
933.76	227.21
934.06	227.23
934.36	227.27
934.66	227.24
934.96	227.23
935.26	227.22
935.56	227.22
935.86	227.22
936.16	227.17
936.46	227.19
936.76	227.18
937.06	227.17
937.36	227.16
937.66	227.16
937.96	227.18
938.26	227.17
938.56	227.14
938.86	227.14
939.16	227.18
939.46	227.18
939.76	227.17
940.06	227.15
940.35	227.17
940.65	227.11
940.95	227.11
941.25	227.08
941.55	227.10
941.85	227.08
942.15	227.12
942.45	227.15
942.75	227.16
943.04	227.18
943.34	227.15
943.64	227.13
943.94	227.14
944.24	227.13
944.54	227.14
944.84	227.16
945.13	227.17
945.43	227.14
945.73	227.15
946.03	227.16
946.33	227.14
946.62	227.09
946.92	227.10
947.22	227.12
947.52	227.11
947.82	227.13
948.11	227.12
948.41	227.07
948.71	227.02
949.01	227.01
949.31	227.01
949.60	227.02
949.90	227.05
950.20	227.03
950.50	227.01
950.79	227.00
951.09	226.98
951.39	226.96
951.69	226.97
951.98	227.00
952.28	227.01
952.58	227.01
952.87	227.02
953.17	227.04
953.47	227.03
953.76	227.02
954.06	226.98
954.36	226.96
954.66	226.96
954.95	226.99
955.25	226.98
955.55	226.95
955.84	226.94
956.14	226.94
956.44	226.95
956.73	226.94
957.03	226.95
957.32	226.95
957.62	226.95
957.92	226.94
958.21	226.91
958.51	226.99
958.81	227.01
959.10	227.01
959.40	227.01
959.69	227.04
959.99	227.09
960.29	227.09
960.58	227.08
960.88	227.12
961.17	227.13
961.47	227.13
961.76	227.12
962.06	227.12
962.36	227.11
962.65	227.12
962.95	227.13
963.24	227.10
963.54	227.10
963.83	227.11
964.13	227.10
964.42	227.11
964.72	227.05
965.01	227.06
965.31	227.07
965.60	227.04
965.90	227.10
966.19	227.06
966.49	227.08
966.78	227.08
967.08	227.07
967.37	227.05
967.67	227.04
967.96	227.04
968.26	227.07
968.55	227.08
968.85	227.07
969.14	227.07
969.43	227.06
969.73	227.07
970.02	227.07
970.32	227.06
970.61	227.03
970.91	226.99
971.20	226.96
971.49	226.95
971.79	226.99
972.08	226.94
972.38	226.93
972.67	226.91
972.96	226.95
973.26	226.93
973.55	226.97
973.85	226.98
974.14	226.98
974.43	226.97
974.73	226.95
975.02	226.95
975.31	226.98
975.61	227.00
975.90	226.98
976.19	226.95
976.49	226.98
976.78	227.01
977.07	227.01
977.37	227.03
977.66	227.03
977.95	226.97
978.24	226.99
978.54	227.03
978.83	227.04
979.12	227.04
979.42	227.03
979.71	227.02
980.00	227.01
980.29	227.03
980.59	227.01
980.88	227.02
981.17	227.02
981.46	227.04
981.76	227.02
982.05	227.06
982.34	227.10
982.63	227.07
982.93	227.06
983.22	227.10
983.51	227.10
983.80	227.14
984.09	227.16
984.39	227.15
984.68	227.13
984.97	227.15
985.26	227.14
985.55	227.15
985.85	227.11
986.14	227.16
986.43	227.17
986.72	227.15
987.01	227.16
987.30	227.15
987.59	227.11
987.89	227.14
988.18	227.10
988.47	227.07
988.76	227.05
989.05	227.05
989.34	227.03
989.63	227.07
989.92	227.03
990.22	227.04
990.51	227.00
990.80	226.96
991.09	226.94
991.38	226.92
991.67	226.92
991.96	226.90
992.25	226.88
992.54	226.83
992.83	226.85
993.12	226.80
993.41	226.80
993.70	226.84
993.99	226.82
994.28	226.84
994.58	226.88
994.87	226.92
995.16	226.92
995.45	226.91
995.74	226.87
996.03	226.86
996.32	226.89
996.61	226.91
996.90	226.93
997.19	226.92
997.48	226.93
997.77	226.90
998.06	226.92
998.34	226.89
998.63	226.88
998.92	226.85
999.21	226.87
999.50	226.88
999.79	226.81
1000.08	226.80
1000.37	226.79
1000.66	226.76
1000.95	226.74
1001.24	226.73
1001.53	226.74
1001.82	226.68
1002.11	226.67
1002.40	226.67
1002.68	226.67
1002.97	226.72
1003.26	226.71
1003.55	226.71
1003.84	226.72
1004.13	226.75
1004.42	226.77
1004.71	226.76
1004.99	226.75
1005.28	226.79
1005.57	226.78
1005.86	226.80
1006.15	226.79
1006.44	226.77
1006.72	226.80
1007.01	226.80
1007.30	226.80
1007.59	226.79
1007.88	226.82
1008.17	226.82
1008.45	226.78
1008.74	226.77
1009.03	226.73
1009.32	226.75
1009.60	226.74
1009.89	226.73
1010.18	226.70
1010.47	226.69
1010.76	226.71
1011.04	226.71
1011.33	226.72
1011.62	226.72
1011.91	226.71
1012.19	226.75
1012.48	226.73
1012.77	226.73
1013.05	226.78
1013.34	226.75
1013.63	226.75
1013.92	226.78
1014.20	226.80
1014.49	226.86
1014.78	226.85
1015.06	226.84
1015.35	226.82
1015.64	226.84
1015.92	226.86
1016.21	226.87
1016.50	226.89
1016.78	226.90
1017.07	226.93
1017.36	226.88
1017.64	226.88
1017.93	226.91
1018.22	226.86
1018.50	226.91
1018.79	226.88
1019.08	226.85
1019.36	226.87
1019.65	226.86
1019.93	226.88
1020.22	226.90
1020.51	226.92
1020.79	226.93
1021.08	226.32
1021.36	227.02
1021.65	226.77
1021.94	227.26
1022.22	226.42
1022.51	226.81
1022.79	227.46
1023.08	227.20
1023.36	228.16
1023.65	226.98
>>>>>End Processed Spectral Data<<<<<
