SpectraSuite Data File
++++++++++++++++++++++++++++++++++++
Date: Fri Feb 01 15:17:47 EST 2013
User: group
Dark Spectrum Present: No
Reference Spectrum Present: No
Number of Sampled Component Spectra: 1
Spectrometers: USB2E7196
Integration Time (usec): 35000 (USB2E7196)
Spectra Averaged: 100 (USB2E7196)
Boxcar Smoothing: 10 (USB2E7196)
Correct for Electrical Dark: No (USB2E7196)
Strobe/Lamp Enabled: No (USB2E7196)
Correct for Detector Non-linearity: No (USB2E7196)
Correct for Stray Light: No (USB2E7196)
Number of Pixels in Processed Spectrum: 2048
>>>>>Begin Processed Spectral Data<<<<<
339.09	0.00
339.48	214.79
339.86	215.87
340.24	217.80
340.63	219.46
341.01	221.87
341.39	221.22
341.78	222.96
342.16	224.35
342.54	225.36
342.93	213.19
343.31	223.97
343.69	224.51
344.07	225.00
344.46	225.43
344.84	225.79
345.22	226.03
345.60	226.32
345.99	226.50
346.37	226.62
346.75	226.69
347.13	226.76
347.52	226.83
347.90	226.87
348.28	226.86
348.66	226.90
349.05	226.90
349.43	226.96
349.81	227.01
350.19	227.02
350.57	227.06
350.96	227.17
351.34	227.24
351.72	227.33
352.10	227.42
352.48	227.47
352.87	227.54
353.25	227.61
353.63	227.66
354.01	227.77
354.39	227.84
354.77	227.92
355.15	228.01
355.54	228.08
355.92	228.12
356.30	228.23
356.68	228.38
357.06	228.49
357.44	228.53
357.82	228.61
358.20	228.70
358.58	228.78
358.97	228.82
359.35	228.93
359.73	228.98
360.11	229.04
360.49	229.13
360.87	229.18
361.25	229.25
361.63	229.31
362.01	229.36
362.39	229.41
362.77	229.43
363.15	229.47
363.53	229.50
363.91	229.54
364.29	229.57
364.67	229.50
365.05	229.51
365.43	229.55
365.81	229.55
366.19	229.62
366.57	229.66
366.95	229.66
367.33	229.64
367.71	229.66
368.09	229.68
368.47	229.63
368.85	229.62
369.23	229.60
369.61	229.55
369.99	229.51
370.37	229.50
370.75	229.54
371.13	229.50
371.51	229.45
371.89	229.40
372.27	229.35
372.65	229.30
373.03	229.26
373.41	229.18
373.78	229.11
374.16	228.96
374.54	228.87
374.92	228.76
375.30	228.68
375.68	228.60
376.06	228.51
376.44	228.43
376.82	228.34
377.19	228.24
377.57	228.18
377.95	228.07
378.33	227.97
378.71	227.84
379.09	227.75
379.47	227.70
379.84	227.63
380.22	227.53
380.60	227.42
380.98	227.35
381.36	227.28
381.73	227.21
382.11	227.17
382.49	227.11
382.87	227.09
383.25	227.01
383.62	227.02
384.00	226.95
384.38	226.92
384.76	226.91
385.13	226.89
385.51	226.85
385.89	226.82
386.27	226.77
386.64	226.72
387.02	226.69
387.40	226.62
387.78	226.57
388.15	226.55
388.53	226.52
388.91	226.51
389.29	226.46
389.66	226.46
390.04	226.47
390.42	226.45
390.79	226.44
391.17	226.43
391.55	226.33
391.92	226.32
392.30	226.32
392.68	226.29
393.05	226.30
393.43	226.32
393.81	226.32
394.18	226.33
394.56	226.37
394.94	226.41
395.31	226.45
395.69	226.53
396.06	226.59
396.44	226.63
396.82	226.66
397.19	226.76
397.57	226.81
397.95	226.85
398.32	226.90
398.70	226.96
399.07	227.04
399.45	227.10
399.82	227.16
400.20	227.25
400.58	227.34
400.95	227.37
401.33	227.50
401.70	227.65
402.08	227.79
402.45	227.89
402.83	227.99
403.20	228.10
403.58	228.19
403.95	228.33
404.33	228.48
404.71	228.57
405.08	228.76
405.46	228.89
405.83	229.01
406.21	229.17
406.58	229.32
406.96	229.52
407.33	229.72
407.70	229.91
408.08	230.16
408.45	230.36
408.83	230.63
409.20	230.80
409.58	230.96
409.95	231.21
410.33	231.49
410.70	231.70
411.08	231.99
411.45	232.30
411.82	232.60
412.20	232.94
412.57	233.35
412.95	233.62
413.32	234.02
413.69	234.42
414.07	234.87
414.44	235.35
414.82	235.81
415.19	236.38
415.56	236.96
415.94	237.49
416.31	238.15
416.68	238.78
417.06	239.51
417.43	240.18
417.81	240.92
418.18	241.70
418.55	242.56
418.93	243.45
419.30	244.36
419.67	245.30
420.04	246.26
420.42	247.26
420.79	248.44
421.16	249.60
421.54	250.79
421.91	251.98
422.28	253.25
422.66	254.61
423.03	255.91
423.40	257.24
423.77	258.65
424.15	260.07
424.52	261.53
424.89	263.15
425.26	264.75
425.64	266.20
426.01	267.80
426.38	269.45
426.75	271.13
427.13	272.81
427.50	274.63
427.87	276.50
428.24	278.39
428.61	280.12
428.99	282.04
429.36	284.16
429.73	286.25
430.10	288.24
430.47	290.29
430.85	292.41
431.22	294.65
431.59	297.05
431.96	299.27
432.33	301.81
432.70	304.18
433.08	306.99
433.45	309.62
433.82	312.26
434.19	315.16
434.56	317.95
434.93	320.62
435.30	323.27
435.68	326.16
436.05	329.01
436.42	331.83
436.79	334.35
437.16	337.06
437.53	339.88
437.90	342.75
438.27	345.49
438.64	348.31
439.01	350.91
439.38	353.16
439.75	355.34
440.13	357.83
440.50	360.17
440.87	362.04
441.24	364.00
441.61	366.13
441.98	367.64
442.35	369.46
442.72	371.36
443.09	373.15
443.46	374.15
443.83	374.71
444.20	375.24
444.57	376.12
444.94	376.38
445.31	376.71
445.68	377.06
446.05	377.11
446.42	376.70
446.79	376.33
447.16	375.83
447.53	375.50
447.90	374.30
448.27	373.12
448.64	371.50
449.01	370.32
449.37	368.34
449.74	366.42
450.11	364.17
450.48	361.65
450.85	359.11
451.22	356.95
451.59	354.92
451.96	352.92
452.33	350.30
452.70	347.94
453.07	345.13
453.43	342.22
453.80	339.43
454.17	336.79
454.54	334.22
454.91	331.50
455.28	328.84
455.65	326.34
456.02	323.87
456.38	321.75
456.75	319.11
457.12	316.83
457.49	314.63
457.86	312.46
458.23	310.65
458.59	308.59
458.96	306.51
459.33	304.63
459.70	302.82
460.07	301.29
460.43	299.58
460.80	297.91
461.17	296.44
461.54	294.98
461.91	293.54
462.27	292.04
462.64	290.78
463.01	289.43
463.38	288.13
463.74	286.78
464.11	285.61
464.48	284.58
464.85	283.53
465.21	282.62
465.58	281.66
465.95	280.50
466.32	279.59
466.68	278.67
467.05	277.78
467.42	276.85
467.78	275.96
468.15	275.08
468.52	274.42
468.88	273.55
469.25	272.75
469.62	272.10
469.98	271.45
470.35	270.87
470.72	270.25
471.08	269.58
471.45	269.04
471.82	268.44
472.18	267.88
472.55	267.41
472.92	266.89
473.28	266.43
473.65	266.00
474.02	265.58
474.38	265.23
474.75	264.90
475.11	264.58
475.48	264.28
475.85	264.02
476.21	263.78
476.58	263.59
476.94	263.42
477.31	263.22
477.67	263.09
478.04	262.96
478.41	262.89
478.77	262.94
479.14	262.87
479.50	262.90
479.87	262.95
480.23	263.03
480.60	263.08
480.96	263.17
481.33	263.36
481.69	263.54
482.06	263.73
482.42	263.92
482.79	264.14
483.15	264.48
483.52	264.89
483.88	265.26
484.25	265.60
484.61	266.02
484.98	266.50
485.34	267.03
485.71	267.58
486.07	268.18
486.44	268.74
486.80	269.44
487.17	270.17
487.53	270.96
487.90	271.85
488.26	272.78
488.62	273.76
488.99	274.72
489.35	275.75
489.72	276.91
490.08	278.10
490.44	279.33
490.81	280.63
491.17	281.92
491.54	283.37
491.90	284.95
492.26	286.60
492.63	288.32
492.99	290.06
493.36	292.01
493.72	294.05
494.08	296.17
494.45	298.42
494.81	300.76
495.17	303.15
495.54	305.68
495.90	308.36
496.26	311.18
496.63	314.14
496.99	317.29
497.35	320.48
497.72	323.86
498.08	327.38
498.44	331.04
498.80	335.00
499.17	339.08
499.53	343.23
499.89	347.61
500.26	352.12
500.62	356.80
500.98	361.71
501.34	366.76
501.71	372.05
502.07	377.45
502.43	383.08
502.79	388.95
503.16	395.04
503.52	401.32
503.88	407.71
504.24	414.34
504.60	421.21
504.97	428.40
505.33	435.70
505.69	443.45
506.05	451.22
506.41	459.10
506.78	467.23
507.14	475.76
507.50	484.45
507.86	493.47
508.22	502.66
508.59	511.86
508.95	521.44
509.31	531.23
509.67	541.34
510.03	551.63
510.39	562.15
510.75	572.99
511.12	583.93
511.48	595.21
511.84	606.63
512.20	618.20
512.56	630.12
512.92	642.38
513.28	654.67
513.64	667.25
514.00	679.97
514.37	692.94
514.73	705.93
515.09	719.02
515.45	732.33
515.81	745.95
516.17	760.00
516.53	774.16
516.89	788.42
517.25	802.64
517.61	817.07
517.97	831.56
518.33	845.95
518.69	860.73
519.05	875.81
519.41	891.11
519.77	906.71
520.13	922.23
520.49	937.66
520.85	953.25
521.21	968.97
521.57	985.29
521.93	1001.18
522.29	1017.59
522.65	1033.88
523.01	1050.20
523.37	1066.32
523.73	1082.52
524.09	1098.72
524.45	1115.00
524.81	1131.72
525.17	1148.59
525.53	1165.54
525.89	1182.57
526.25	1199.36
526.61	1215.73
526.97	1232.38
527.33	1248.90
527.68	1265.51
528.04	1282.05
528.40	1298.66
528.76	1315.84
529.12	1332.45
529.48	1349.18
529.84	1365.41
530.20	1382.19
530.56	1399.16
530.91	1416.60
531.27	1433.46
531.63	1450.03
531.99	1466.66
532.35	1482.69
532.71	1498.73
533.07	1515.07
533.42	1531.00
533.78	1547.21
534.14	1563.61
534.50	1579.18
534.86	1595.05
535.21	1610.27
535.57	1626.24
535.93	1641.78
536.29	1656.55
536.65	1671.76
537.00	1686.70
537.36	1701.94
537.72	1716.47
538.08	1730.96
538.44	1744.92
538.79	1758.84
539.15	1772.47
539.51	1786.37
539.87	1800.76
540.22	1814.49
540.58	1828.34
540.94	1841.77
541.29	1854.92
541.65	1867.62
542.01	1880.84
542.37	1893.27
542.72	1905.79
543.08	1917.61
543.44	1930.19
543.79	1941.58
544.15	1952.40
544.51	1964.08
544.87	1975.16
545.22	1985.92
545.58	1996.29
545.94	2006.16
546.29	2015.97
546.65	2025.92
547.01	2035.22
547.36	2044.03
547.72	2052.58
548.07	2060.48
548.43	2068.60
548.79	2076.51
549.14	2084.14
549.50	2091.69
549.86	2099.43
550.21	2106.71
550.57	2114.00
550.92	2120.50
551.28	2127.53
551.64	2134.73
551.99	2141.33
552.35	2147.48
552.70	2153.75
553.06	2159.67
553.41	2165.85
553.77	2172.05
554.13	2178.18
554.48	2184.32
554.84	2189.67
555.19	2194.95
555.55	2200.01
555.90	2204.49
556.26	2209.33
556.61	2214.13
556.97	2218.24
557.32	2222.22
557.68	2226.47
558.03	2230.69
558.39	2234.35
558.74	2238.91
559.10	2242.69
559.45	2246.19
559.81	2250.63
560.16	2254.41
560.52	2257.63
560.87	2261.10
561.23	2263.60
561.58	2266.56
561.94	2268.96
562.29	2271.48
562.64	2273.99
563.00	2276.65
563.35	2280.24
563.71	2283.36
564.06	2286.45
564.42	2289.24
564.77	2291.75
565.12	2293.85
565.48	2295.73
565.83	2297.54
566.19	2298.77
566.54	2299.80
566.89	2300.85
567.25	2301.17
567.60	2302.51
567.96	2304.09
568.31	2304.89
568.66	2306.05
569.02	2306.61
569.37	2306.96
569.72	2307.66
570.08	2307.77
570.43	2307.70
570.78	2306.90
571.14	2305.33
571.49	2303.91
571.84	2303.54
572.20	2302.30
572.55	2301.25
572.90	2299.49
573.26	2298.10
573.61	2296.40
573.96	2294.42
574.31	2291.47
574.67	2288.39
575.02	2284.60
575.37	2281.06
575.72	2277.26
576.08	2273.73
576.43	2270.20
576.78	2266.47
577.13	2263.17
577.49	2260.01
577.84	2256.43
578.19	2252.78
578.54	2248.86
578.90	2244.49
579.25	2238.90
579.60	2233.82
579.95	2228.71
580.30	2223.68
580.66	2218.29
581.01	2213.34
581.36	2208.40
581.71	2204.17
582.06	2199.60
582.42	2195.05
582.77	2189.89
583.12	2185.08
583.47	2180.14
583.82	2175.02
584.17	2169.58
584.53	2164.08
584.88	2158.37
585.23	2152.43
585.58	2146.75
585.93	2141.29
586.28	2136.56
586.63	2131.32
586.98	2126.20
587.34	2121.50
587.69	2116.55
588.04	2111.33
588.39	2105.38
588.74	2098.86
589.09	2092.52
589.44	2085.68
589.79	2079.59
590.14	2073.84
590.49	2067.26
590.84	2060.95
591.19	2054.77
591.54	2048.34
591.89	2040.78
592.25	2034.02
592.60	2026.79
592.95	2019.14
593.30	2011.81
593.65	2004.11
594.00	1997.00
594.35	1989.74
594.70	1981.53
595.05	1974.18
595.40	1966.69
595.75	1959.21
596.10	1952.85
596.45	1946.05
596.80	1939.81
597.15	1933.15
597.50	1925.88
597.85	1919.27
598.19	1912.51
598.54	1905.51
598.89	1898.86
599.24	1893.00
599.59	1886.18
599.94	1879.92
600.29	1873.50
600.64	1866.84
600.99	1859.21
601.34	1852.28
601.69	1845.32
602.04	1838.28
602.39	1830.97
602.74	1824.17
603.08	1817.46
603.43	1810.68
603.78	1803.45
604.13	1796.20
604.48	1788.71
604.83	1781.97
605.18	1774.93
605.53	1766.92
605.87	1758.75
606.22	1751.47
606.57	1743.40
606.92	1736.07
607.27	1728.87
607.62	1721.92
607.96	1714.61
608.31	1708.00
608.66	1700.32
609.01	1692.74
609.36	1685.31
609.70	1677.26
610.05	1669.13
610.40	1661.37
610.75	1653.14
611.10	1645.39
611.44	1637.05
611.79	1629.10
612.14	1620.28
612.49	1611.33
612.83	1602.94
613.18	1594.89
613.53	1586.71
613.88	1578.20
614.22	1569.96
614.57	1561.39
614.92	1553.35
615.27	1545.81
615.61	1537.49
615.96	1529.48
616.31	1521.79
616.65	1514.40
617.00	1506.74
617.35	1499.18
617.70	1490.86
618.04	1482.19
618.39	1474.00
618.74	1466.36
619.08	1458.14
619.43	1450.60
619.78	1443.65
620.12	1436.52
620.47	1429.04
620.82	1420.91
621.16	1413.48
621.51	1405.89
621.85	1398.26
622.20	1389.86
622.55	1381.47
622.89	1373.72
623.24	1366.32
623.59	1358.92
623.93	1351.39
624.28	1344.21
624.62	1336.61
624.97	1329.40
625.32	1322.72
625.66	1315.65
626.01	1308.45
626.35	1300.99
626.70	1293.28
627.04	1285.51
627.39	1277.77
627.73	1270.36
628.08	1263.48
628.43	1256.17
628.77	1248.70
629.12	1241.21
629.46	1233.95
629.81	1226.46
630.15	1219.11
630.50	1211.56
630.84	1203.40
631.19	1195.49
631.53	1187.96
631.88	1180.48
632.22	1172.91
632.57	1165.62
632.91	1158.11
633.26	1150.71
633.60	1143.40
633.95	1136.40
634.29	1129.29
634.64	1122.60
634.98	1115.17
635.32	1108.01
635.67	1101.50
636.01	1094.92
636.36	1088.10
636.70	1081.62
637.05	1075.14
637.39	1068.84
637.73	1062.36
638.08	1056.59
638.42	1050.63
638.77	1044.27
639.11	1037.58
639.45	1031.19
639.80	1024.55
640.14	1018.17
640.49	1011.63
640.83	1005.26
641.17	998.90
641.52	992.61
641.86	986.23
642.20	980.39
642.55	974.10
642.89	967.61
643.23	961.03
643.58	955.21
643.92	948.93
644.26	942.83
644.61	936.75
644.95	930.72
645.29	923.95
645.64	917.15
645.98	910.79
646.32	904.98
646.66	898.97
647.01	893.16
647.35	887.48
647.69	881.69
648.04	876.17
648.38	870.38
648.72	864.42
649.06	858.25
649.41	852.33
649.75	846.24
650.09	840.32
650.43	834.58
650.78	828.44
651.12	822.53
651.46	816.79
651.80	811.07
652.14	805.67
652.49	800.44
652.83	795.28
653.17	789.59
653.51	783.96
653.85	778.49
654.20	772.87
654.54	766.86
654.88	761.15
655.22	755.31
655.56	749.69
655.90	744.25
656.25	739.09
656.59	733.89
656.93	728.88
657.27	723.71
657.61	718.33
657.95	713.30
658.29	708.28
658.64	703.13
658.98	697.85
659.32	692.35
659.66	687.10
660.00	681.85
660.34	676.93
660.68	671.98
661.02	667.02
661.36	662.35
661.70	657.85
662.05	653.48
662.39	649.16
662.73	644.76
663.07	640.36
663.41	635.86
663.75	631.28
664.09	626.73
664.43	622.36
664.77	618.19
665.11	613.88
665.45	609.72
665.79	605.61
666.13	601.56
666.47	597.58
666.81	593.47
667.15	589.34
667.49	585.54
667.83	581.82
668.17	577.93
668.51	573.86
668.85	569.84
669.19	566.03
669.53	562.12
669.87	558.21
670.21	554.53
670.55	550.96
670.89	547.55
671.23	544.11
671.57	540.60
671.91	537.12
672.25	533.68
672.58	530.21
672.92	526.87
673.26	523.65
673.60	520.49
673.94	517.37
674.28	514.52
674.62	511.56
674.96	508.37
675.30	505.44
675.64	502.50
675.97	499.79
676.31	496.92
676.65	494.09
676.99	491.43
677.33	488.60
677.67	485.78
678.01	482.77
678.34	479.86
678.68	477.00
679.02	474.18
679.36	471.47
679.70	468.74
680.04	465.94
680.37	463.08
680.71	460.29
681.05	457.68
681.39	454.90
681.73	452.24
682.06	449.72
682.40	447.19
682.74	444.67
683.08	442.08
683.42	439.48
683.75	436.93
684.09	434.36
684.43	431.94
684.77	429.50
685.10	427.14
685.44	424.77
685.78	422.48
686.12	420.22
686.45	417.85
686.79	415.50
687.13	413.33
687.46	411.15
687.80	408.93
688.14	406.73
688.48	404.72
688.81	402.42
689.15	400.29
689.49	398.16
689.82	396.02
690.16	393.91
690.50	391.98
690.83	390.04
691.17	388.05
691.51	386.12
691.84	384.30
692.18	382.38
692.52	380.41
692.85	378.51
693.19	376.63
693.52	374.89
693.86	373.12
694.20	371.33
694.53	369.56
694.87	367.78
695.21	365.95
695.54	364.15
695.88	362.43
696.21	360.70
696.55	358.97
696.88	357.37
697.22	355.79
697.56	354.13
697.89	352.51
698.23	350.93
698.56	349.31
698.90	347.71
699.23	346.08
699.57	344.53
699.90	342.99
700.24	341.49
700.58	339.90
700.91	338.43
701.25	336.96
701.58	335.60
701.92	334.23
702.25	332.94
702.59	331.56
702.92	330.30
703.26	329.03
703.59	327.81
703.93	326.61
704.26	325.35
704.60	324.08
704.93	322.85
705.26	321.60
705.60	320.47
705.93	319.28
706.27	318.24
706.60	317.24
706.94	316.19
707.27	315.04
707.61	314.01
707.94	312.96
708.27	311.90
708.61	310.82
708.94	309.84
709.28	308.85
709.61	307.92
709.94	307.00
710.28	306.00
710.61	305.03
710.95	303.98
711.28	303.10
711.61	302.20
711.95	301.25
712.28	300.32
712.61	299.28
712.95	298.39
713.28	297.52
713.61	296.63
713.95	295.73
714.28	294.90
714.61	294.04
714.95	293.20
715.28	292.35
715.61	291.46
715.95	290.62
716.28	289.78
716.61	288.93
716.95	288.06
717.28	287.28
717.61	286.49
717.94	285.77
718.28	284.95
718.61	284.20
718.94	283.51
719.27	282.88
719.61	282.28
719.94	281.59
720.27	280.86
720.60	280.18
720.94	279.53
721.27	278.94
721.60	278.38
721.93	277.81
722.27	277.25
722.60	276.74
722.93	276.17
723.26	275.62
723.59	275.03
723.93	274.50
724.26	273.97
724.59	273.43
724.92	272.86
725.25	272.39
725.59	271.87
725.92	271.37
726.25	270.82
726.58	270.32
726.91	269.81
727.24	269.32
727.57	268.86
727.91	268.34
728.24	267.86
728.57	267.36
728.90	266.90
729.23	266.41
729.56	265.94
729.89	265.44
730.22	264.94
730.55	264.50
730.89	264.05
731.22	263.56
731.55	263.06
731.88	262.67
732.21	262.18
732.54	261.71
732.87	261.25
733.20	260.87
733.53	260.47
733.86	260.09
734.19	259.67
734.52	259.25
734.85	258.96
735.18	258.53
735.51	258.17
735.84	257.78
736.17	257.41
736.50	257.01
736.83	256.77
737.16	256.46
737.49	256.12
737.82	255.77
738.15	255.48
738.48	255.20
738.81	254.88
739.14	254.58
739.47	254.31
739.80	254.05
740.13	253.71
740.46	253.38
740.79	253.07
741.12	252.79
741.45	252.50
741.78	252.14
742.11	251.87
742.44	251.54
742.77	251.27
743.10	250.98
743.43	250.70
743.75	250.36
744.08	250.21
744.41	249.94
744.74	249.67
745.07	249.35
745.40	249.06
745.73	248.81
746.06	248.53
746.39	248.28
746.71	247.98
747.04	247.72
747.37	247.45
747.70	247.19
748.03	246.94
748.36	246.70
748.68	246.49
749.01	246.22
749.34	246.00
749.67	245.73
750.00	245.52
750.33	245.38
750.65	245.17
750.98	244.84
751.31	244.63
751.64	244.45
751.97	244.29
752.29	244.10
752.62	243.87
752.95	243.67
753.28	243.46
753.60	243.27
753.93	243.13
754.26	243.00
754.59	242.81
754.91	242.63
755.24	242.46
755.57	242.29
755.90	242.13
756.22	241.93
756.55	241.77
756.88	241.59
757.20	241.37
757.53	241.16
757.86	241.00
758.19	240.81
758.51	240.62
758.84	240.43
759.17	240.29
759.49	240.12
759.82	240.01
760.15	239.86
760.47	239.70
760.80	239.51
761.13	239.35
761.45	239.18
761.78	239.02
762.11	238.87
762.43	238.69
762.76	238.55
763.08	238.46
763.41	238.31
763.74	238.18
764.06	238.03
764.39	237.91
764.71	237.75
765.04	237.64
765.37	237.49
765.69	237.38
766.02	237.22
766.34	237.09
766.67	236.95
767.00	236.84
767.32	236.79
767.65	236.68
767.97	236.55
768.30	236.44
768.62	236.32
768.95	236.20
769.27	236.10
769.60	235.98
769.92	235.84
770.25	235.76
770.57	235.61
770.90	235.46
771.22	235.34
771.55	235.23
771.87	235.09
772.20	235.01
772.52	235.00
772.85	234.98
773.17	234.91
773.50	234.82
773.82	234.72
774.15	234.56
774.47	234.45
774.80	234.36
775.12	234.24
775.45	234.15
775.77	234.10
776.09	234.01
776.42	233.93
776.74	233.86
777.07	233.74
777.39	233.71
777.72	233.63
778.04	233.56
778.36	233.51
778.69	233.49
779.01	233.40
779.33	233.22
779.66	233.03
779.98	232.93
780.31	232.84
780.63	232.78
780.95	232.71
781.28	232.67
781.60	232.57
781.92	232.53
782.25	232.45
782.57	232.38
782.89	232.31
783.22	232.25
783.54	232.17
783.86	232.14
784.19	232.05
784.51	232.06
784.83	232.01
785.16	231.92
785.48	231.84
785.80	231.82
786.12	231.76
786.45	231.74
786.77	231.72
787.09	231.66
787.42	231.59
787.74	231.57
788.06	231.52
788.38	231.51
788.71	231.46
789.03	231.44
789.35	231.41
789.67	231.35
789.99	231.31
790.32	231.26
790.64	231.21
790.96	231.28
791.28	231.17
791.61	231.15
791.93	231.15
792.25	231.12
792.57	231.14
792.89	231.11
793.21	231.12
793.54	231.05
793.86	231.03
794.18	230.97
794.50	230.92
794.82	230.87
795.14	230.86
795.47	230.84
795.79	230.84
796.11	230.79
796.43	230.78
796.75	230.74
797.07	230.70
797.39	230.70
797.71	230.61
798.04	230.61
798.36	230.55
798.68	230.51
799.00	230.50
799.32	230.44
799.64	230.44
799.96	230.41
800.28	230.40
800.60	230.38
800.92	230.37
801.24	230.35
801.56	230.33
801.89	230.27
802.21	230.26
802.53	230.19
802.85	230.18
803.17	230.16
803.49	230.12
803.81	230.11
804.13	230.06
804.45	230.01
804.77	229.99
805.09	229.99
805.41	229.96
805.73	229.89
806.05	229.83
806.37	229.78
806.69	229.75
807.01	229.71
807.33	229.70
807.65	229.64
807.97	229.62
808.28	229.60
808.60	229.59
808.92	229.52
809.24	229.55
809.56	229.53
809.88	229.52
810.20	229.53
810.52	229.51
810.84	229.48
811.16	229.46
811.48	229.39
811.80	229.38
812.12	229.36
812.43	229.39
812.75	229.38
813.07	229.33
813.39	229.31
813.71	229.26
814.03	229.22
814.35	229.20
814.67	229.18
814.98	229.12
815.30	229.09
815.62	229.10
815.94	229.00
816.26	229.01
816.58	228.94
816.89	228.90
817.21	228.86
817.53	228.83
817.85	228.80
818.17	228.83
818.48	228.77
818.80	228.78
819.12	228.74
819.44	228.71
819.76	228.69
820.07	228.66
820.39	228.63
820.71	228.64
821.03	228.63
821.34	228.60
821.66	228.61
821.98	228.61
822.30	228.58
822.61	228.69
822.93	228.59
823.25	228.57
823.57	228.56
823.88	228.58
824.20	228.56
824.52	228.55
824.83	228.49
825.15	228.50
825.47	228.46
825.79	228.46
826.10	228.42
826.42	228.43
826.74	228.44
827.05	228.47
827.37	228.45
827.69	228.41
828.00	228.41
828.32	228.42
828.64	228.41
828.95	228.44
829.27	228.40
829.58	228.43
829.90	228.46
830.22	228.48
830.53	228.45
830.85	228.48
831.17	228.44
831.48	228.45
831.80	228.44
832.11	228.45
832.43	228.39
832.75	228.40
833.06	228.45
833.38	228.41
833.69	228.37
834.01	228.34
834.32	228.38
834.64	228.36
834.96	228.33
835.27	228.28
835.59	228.25
835.90	228.21
836.22	228.17
836.53	228.15
836.85	228.14
837.16	228.22
837.48	228.19
837.79	228.23
838.11	228.25
838.42	228.25
838.74	228.24
839.05	228.25
839.37	228.24
839.68	228.16
840.00	228.15
840.31	228.16
840.63	228.17
840.94	228.15
841.26	228.15
841.57	228.16
841.88	228.17
842.20	228.17
842.51	228.13
842.83	228.11
843.14	228.20
843.46	228.16
843.77	228.09
844.08	228.08
844.40	228.05
844.71	228.01
845.03	227.99
845.34	227.97
845.65	227.94
845.97	227.95
846.28	227.96
846.60	227.97
846.91	227.96
847.22	227.94
847.54	227.93
847.85	227.90
848.16	227.90
848.48	227.87
848.79	227.91
849.10	227.90
849.42	227.94
849.73	227.81
850.04	227.80
850.36	227.75
850.67	227.77
850.98	227.74
851.30	227.76
851.61	227.74
851.92	227.73
852.23	227.77
852.55	227.75
852.86	227.73
853.17	227.73
853.49	227.75
853.80	227.75
854.11	227.72
854.42	227.76
854.74	227.74
855.05	227.74
855.36	227.66
855.67	227.69
855.99	227.68
856.30	227.80
856.61	227.79
856.92	227.82
857.23	227.78
857.55	227.75
857.86	227.74
858.17	227.73
858.48	227.69
858.79	227.62
859.11	227.64
859.42	227.62
859.73	227.61
860.04	227.56
860.35	227.51
860.66	227.50
860.98	227.48
861.29	227.45
861.60	227.43
861.91	227.47
862.22	227.43
862.53	227.41
862.84	227.29
863.16	227.32
863.47	227.25
863.78	227.25
864.09	227.26
864.40	227.25
864.71	227.26
865.02	227.31
865.33	227.33
865.64	227.31
865.95	227.30
866.27	227.38
866.58	227.36
866.89	227.40
867.20	227.40
867.51	227.41
867.82	227.43
868.13	227.48
868.44	227.46
868.75	227.49
869.06	227.51
869.37	227.54
869.68	227.52
869.99	227.55
870.30	227.58
870.61	227.62
870.92	227.64
871.23	227.63
871.54	227.64
871.85	227.67
872.16	227.69
872.47	227.72
872.78	227.64
873.09	227.69
873.40	227.70
873.71	227.70
874.02	227.67
874.33	227.66
874.64	227.62
874.95	227.65
875.26	227.62
875.56	227.58
875.87	227.57
876.18	227.58
876.49	227.70
876.80	227.65
877.11	227.64
877.42	227.59
877.73	227.58
878.04	227.58
878.35	227.56
878.66	227.56
878.96	227.58
879.27	227.56
879.58	227.54
879.89	227.52
880.20	227.56
880.51	227.58
880.82	227.58
881.12	227.63
881.43	227.58
881.74	227.55
882.05	227.58
882.36	227.59
882.67	227.57
882.97	227.48
883.28	227.47
883.59	227.48
883.90	227.55
884.21	227.60
884.51	227.57
884.82	227.52
885.13	227.53
885.44	227.51
885.74	227.49
886.05	227.50
886.36	227.50
886.67	227.49
886.98	227.53
887.28	227.53
887.59	227.49
887.90	227.49
888.20	227.53
888.51	227.52
888.82	227.50
889.13	227.52
889.43	227.60
889.74	227.62
890.05	227.59
890.35	227.52
890.66	227.45
890.97	227.44
891.28	227.49
891.58	227.49
891.89	227.50
892.20	227.52
892.50	227.49
892.81	227.47
893.12	227.45
893.42	227.36
893.73	227.34
894.04	227.37
894.34	227.42
894.65	227.40
894.95	227.38
895.26	227.34
895.57	227.39
895.87	227.29
896.18	227.29
896.48	227.27
896.79	227.30
897.10	227.32
897.40	227.34
897.71	227.31
898.01	227.30
898.32	227.28
898.63	227.28
898.93	227.29
899.24	227.28
899.54	227.24
899.85	227.24
900.15	227.24
900.46	227.22
900.76	227.17
901.07	227.16
901.38	227.18
901.68	227.23
901.99	227.17
902.29	227.15
902.60	227.14
902.90	227.15
903.21	227.14
903.51	227.14
903.82	227.12
904.12	227.10
904.43	227.07
904.73	227.07
905.03	227.08
905.34	227.18
905.64	227.19
905.95	227.25
906.25	227.27
906.56	227.26
906.86	227.26
907.17	227.26
907.47	227.27
907.77	227.26
908.08	227.25
908.38	227.23
908.69	227.22
908.99	227.24
909.30	227.27
909.60	227.28
909.90	227.27
910.21	227.27
910.51	227.25
910.81	227.20
911.12	227.19
911.42	227.14
911.73	227.03
912.03	227.02
912.33	227.00
912.64	226.96
912.94	226.94
913.24	226.90
913.55	226.89
913.85	226.87
914.15	226.86
914.46	226.85
914.76	226.82
915.06	226.82
915.37	226.80
915.67	226.74
915.97	226.73
916.27	226.72
916.58	226.75
916.88	226.76
917.18	226.79
917.49	226.87
917.79	226.86
918.09	226.85
918.39	226.90
918.70	226.89
919.00	226.92
919.30	226.98
919.60	227.03
919.91	227.02
920.21	227.03
920.51	227.02
920.81	227.02
921.12	227.02
921.42	227.04
921.72	227.04
922.02	227.07
922.32	227.07
922.63	227.04
922.93	227.07
923.23	227.02
923.53	227.04
923.83	227.00
924.13	227.01
924.44	227.04
924.74	227.03
925.04	227.05
925.34	227.05
925.64	226.99
925.94	226.96
926.24	227.00
926.55	226.98
926.85	227.02
927.15	227.01
927.45	227.02
927.75	227.01
928.05	227.03
928.35	227.05
928.65	227.10
928.95	227.14
929.26	227.08
929.56	227.11
929.86	227.10
930.16	227.09
930.46	227.06
930.76	227.08
931.06	227.06
931.36	227.03
931.66	227.03
931.96	227.08
932.26	227.09
932.56	227.05
932.86	227.04
933.16	227.01
933.46	227.01
933.76	227.01
934.06	227.00
934.36	227.00
934.66	226.98
934.96	226.94
935.26	226.94
935.56	226.97
935.86	226.98
936.16	226.99
936.46	226.97
936.76	226.98
937.06	226.95
937.36	226.96
937.66	226.98
937.96	226.97
938.26	226.94
938.56	226.95
938.86	226.96
939.16	226.98
939.46	226.96
939.76	226.95
940.06	226.98
940.35	226.98
940.65	226.96
940.95	226.98
941.25	226.94
941.55	226.89
941.85	226.88
942.15	226.91
942.45	226.93
942.75	226.93
943.04	226.93
943.34	226.96
943.64	226.93
943.94	226.94
944.24	226.92
944.54	226.90
944.84	226.87
945.13	226.87
945.43	226.87
945.73	226.83
946.03	226.83
946.33	226.80
946.62	226.80
946.92	226.77
947.22	226.74
947.52	226.75
947.82	226.80
948.11	226.78
948.41	226.74
948.71	226.69
949.01	226.71
949.31	226.70
949.60	226.66
949.90	226.64
950.20	226.60
950.50	226.60
950.79	226.62
951.09	226.63
951.39	226.63
951.69	226.62
951.98	226.70
952.28	226.71
952.58	226.67
952.87	226.65
953.17	226.71
953.47	226.69
953.76	226.72
954.06	226.71
954.36	226.73
954.66	226.74
954.95	226.79
955.25	226.78
955.55	226.79
955.84	226.78
956.14	226.83
956.44	226.85
956.73	226.86
957.03	226.86
957.32	226.87
957.62	226.88
957.92	226.91
958.21	226.90
958.51	227.02
958.81	227.07
959.10	227.11
959.40	227.10
959.69	227.12
959.99	227.14
960.29	227.14
960.58	227.13
960.88	227.18
961.17	227.16
961.47	227.19
961.76	227.22
962.06	227.26
962.36	227.25
962.65	227.26
962.95	227.21
963.24	227.21
963.54	227.22
963.83	227.24
964.13	227.25
964.42	227.24
964.72	227.17
965.01	227.17
965.31	227.16
965.60	227.13
965.90	227.19
966.19	227.15
966.49	227.15
966.78	227.15
967.08	227.12
967.37	227.14
967.67	227.10
967.96	227.09
968.26	227.07
968.55	227.09
968.85	227.10
969.14	227.10
969.43	227.10
969.73	227.09
970.02	227.08
970.32	227.05
970.61	227.01
970.91	226.97
971.20	226.96
971.49	226.92
971.79	226.95
972.08	226.90
972.38	226.94
972.67	226.98
972.96	227.02
973.26	227.01
973.55	227.01
973.85	227.03
974.14	227.02
974.43	227.03
974.73	227.01
975.02	227.00
975.31	227.01
975.61	227.01
975.90	227.01
976.19	226.99
976.49	227.01
976.78	227.00
977.07	226.99
977.37	226.99
977.66	227.01
977.95	226.99
978.24	226.98
978.54	226.97
978.83	226.94
979.12	226.91
979.42	226.88
979.71	226.88
980.00	226.87
980.29	226.90
980.59	226.89
980.88	226.92
981.17	226.92
981.46	226.92
981.76	226.91
982.05	226.91
982.34	226.93
982.63	226.91
982.93	226.92
983.22	226.98
983.51	226.98
983.80	227.00
984.09	227.03
984.39	227.03
984.68	227.00
984.97	226.98
985.26	226.97
985.55	227.02
985.85	227.00
986.14	226.99
986.43	226.99
986.72	226.98
987.01	226.93
987.30	226.96
987.59	226.98
987.89	226.97
988.18	226.96
988.47	226.96
988.76	226.99
989.05	226.96
989.34	226.93
989.63	226.94
989.92	226.98
990.22	226.97
990.51	226.96
990.80	226.97
991.09	226.99
991.38	226.98
991.67	226.98
991.96	226.98
992.25	227.01
992.54	226.97
992.83	226.98
993.12	227.00
993.41	227.03
993.70	227.06
993.99	227.10
994.28	227.13
994.58	227.13
994.87	227.11
995.16	227.14
995.45	227.17
995.74	227.16
996.03	227.12
996.32	227.13
996.61	227.15
996.90	227.17
997.19	227.16
997.48	227.18
997.77	227.17
998.06	227.15
998.34	227.13
998.63	227.17
998.92	227.16
999.21	227.17
999.50	227.13
999.79	227.09
1000.08	227.11
1000.37	227.12
1000.66	227.11
1000.95	227.12
1001.24	227.13
1001.53	227.12
1001.82	227.13
1002.11	227.13
1002.40	227.12
1002.68	227.15
1002.97	227.23
1003.26	227.22
1003.55	227.17
1003.84	227.17
1004.13	227.23
1004.42	227.25
1004.71	227.19
1004.99	227.17
1005.28	227.19
1005.57	227.18
1005.86	227.16
1006.15	227.12
1006.44	227.11
1006.72	227.15
1007.01	227.15
1007.30	227.15
1007.59	227.13
1007.88	227.09
1008.17	227.12
1008.45	227.10
1008.74	227.07
1009.03	227.00
1009.32	227.00
1009.60	227.02
1009.89	226.99
1010.18	226.94
1010.47	226.93
1010.76	226.93
1011.04	226.94
1011.33	226.92
1011.62	226.92
1011.91	226.95
1012.19	226.98
1012.48	226.94
1012.77	226.92
1013.05	226.94
1013.34	226.94
1013.63	226.93
1013.92	226.96
1014.20	226.91
1014.49	226.90
1014.78	226.90
1015.06	226.88
1015.35	226.88
1015.64	226.90
1015.92	226.93
1016.21	226.95
1016.50	226.96
1016.78	226.98
1017.07	226.99
1017.36	226.97
1017.64	226.96
1017.93	226.93
1018.22	226.93
1018.50	226.95
1018.79	226.91
1019.08	226.86
1019.36	226.84
1019.65	226.83
1019.93	226.87
1020.22	226.91
1020.51	226.97
1020.79	226.96
1021.08	227.15
1021.36	226.97
1021.65	226.17
1021.94	226.82
1022.22	226.59
1022.51	226.55
1022.79	227.89
1023.08	227.16
1023.36	228.01
1023.65	226.82
>>>>>End Processed Spectral Data<<<<<
