SpectraSuite Data File
++++++++++++++++++++++++++++++++++++
Date: Fri Feb 01 17:19:47 EST 2013
User: group
Dark Spectrum Present: No
Reference Spectrum Present: No
Number of Sampled Component Spectra: 1
Spectrometers: USB2E7196
Integration Time (usec): 35000 (USB2E7196)
Spectra Averaged: 100 (USB2E7196)
Boxcar Smoothing: 10 (USB2E7196)
Correct for Electrical Dark: No (USB2E7196)
Strobe/Lamp Enabled: No (USB2E7196)
Correct for Detector Non-linearity: No (USB2E7196)
Correct for Stray Light: No (USB2E7196)
Number of Pixels in Processed Spectrum: 2048
>>>>>Begin Processed Spectral Data<<<<<
339.09	0.00
339.48	213.61
339.86	214.50
340.24	215.76
340.63	217.49
341.01	220.47
341.39	220.52
341.78	221.23
342.16	222.76
342.54	223.13
342.93	211.72
343.31	222.41
343.69	222.92
344.07	223.40
344.46	223.85
344.84	224.26
345.22	224.51
345.60	224.77
345.99	224.96
346.37	225.10
346.75	225.20
347.13	225.26
347.52	225.30
347.90	225.40
348.28	225.40
348.66	225.44
349.05	225.45
349.43	225.49
349.81	225.50
350.19	225.52
350.57	225.55
350.96	225.62
351.34	225.69
351.72	225.76
352.10	225.83
352.48	225.83
352.87	225.83
353.25	225.84
353.63	225.88
354.01	225.92
354.39	225.97
354.77	226.05
355.15	226.15
355.54	226.23
355.92	226.24
356.30	226.28
356.68	226.39
357.06	226.45
357.44	226.47
357.82	226.52
358.20	226.62
358.58	226.66
358.97	226.72
359.35	226.80
359.73	226.87
360.11	226.90
360.49	226.98
360.87	227.03
361.25	227.09
361.63	227.16
362.01	227.21
362.39	227.22
362.77	227.24
363.15	227.24
363.53	227.24
363.91	227.29
364.29	227.31
364.67	227.23
365.05	227.25
365.43	227.28
365.81	227.30
366.19	227.33
366.57	227.38
366.95	227.36
367.33	227.31
367.71	227.31
368.09	227.35
368.47	227.33
368.85	227.32
369.23	227.33
369.61	227.27
369.99	227.28
370.37	227.29
370.75	227.31
371.13	227.23
371.51	227.19
371.89	227.15
372.27	227.13
372.65	227.10
373.03	227.04
373.41	226.99
373.78	226.94
374.16	226.87
374.54	226.78
374.92	226.77
375.30	226.72
375.68	226.66
376.06	226.58
376.44	226.55
376.82	226.51
377.19	226.48
377.57	226.40
377.95	226.31
378.33	226.25
378.71	226.13
379.09	226.11
379.47	226.05
379.84	225.98
380.22	225.91
380.60	225.83
380.98	225.76
381.36	225.74
381.73	225.68
382.11	225.62
382.49	225.56
382.87	225.46
383.25	225.42
383.62	225.49
384.00	225.44
384.38	225.35
384.76	225.32
385.13	225.27
385.51	225.26
385.89	225.18
386.27	225.15
386.64	225.12
387.02	225.07
387.40	225.00
387.78	224.96
388.15	224.90
388.53	224.86
388.91	224.83
389.29	224.75
389.66	224.71
390.04	224.67
390.42	224.68
390.79	224.67
391.17	224.65
391.55	224.51
391.92	224.49
392.30	224.48
392.68	224.41
393.05	224.41
393.43	224.40
393.81	224.42
394.18	224.37
394.56	224.39
394.94	224.42
395.31	224.44
395.69	224.48
396.06	224.54
396.44	224.54
396.82	224.55
397.19	224.64
397.57	224.68
397.95	224.75
398.32	224.76
398.70	224.79
399.07	224.83
399.45	224.87
399.82	224.92
400.20	225.01
400.58	225.12
400.95	225.14
401.33	225.20
401.70	225.36
402.08	225.45
402.45	225.52
402.83	225.61
403.20	225.74
403.58	225.84
403.95	225.94
404.33	226.11
404.71	226.27
405.08	226.41
405.46	226.50
405.83	226.63
406.21	226.77
406.58	226.91
406.96	227.10
407.33	227.26
407.70	227.48
408.08	227.74
408.45	227.97
408.83	228.22
409.20	228.46
409.58	228.61
409.95	228.89
410.33	229.18
410.70	229.43
411.08	229.69
411.45	230.00
411.82	230.33
412.20	230.71
412.57	231.10
412.95	231.41
413.32	231.88
413.69	232.31
414.07	232.76
414.44	233.26
414.82	233.76
415.19	234.34
415.56	234.89
415.94	235.38
416.31	236.04
416.68	236.72
417.06	237.45
417.43	238.18
417.81	238.96
418.18	239.78
418.55	240.73
418.93	241.67
419.30	242.61
419.67	243.58
420.04	244.56
420.42	245.61
420.79	246.82
421.16	247.99
421.54	249.24
421.91	250.48
422.28	251.74
422.66	253.13
423.03	254.50
423.40	255.91
423.77	257.40
424.15	258.84
424.52	260.33
424.89	262.02
425.26	263.63
425.64	265.13
426.01	266.76
426.38	268.42
426.75	270.17
427.13	271.91
427.50	273.78
427.87	275.70
428.24	277.60
428.61	279.44
428.99	281.47
429.36	283.64
429.73	285.77
430.10	287.93
430.47	290.05
430.85	292.23
431.22	294.53
431.59	296.99
431.96	299.33
432.33	301.87
432.70	304.31
433.08	307.20
433.45	309.89
433.82	312.55
434.19	315.53
434.56	318.36
434.93	321.13
435.30	323.83
435.68	326.82
436.05	329.78
436.42	332.68
436.79	335.27
437.16	338.04
437.53	340.97
437.90	343.86
438.27	346.67
438.64	349.57
439.01	352.23
439.38	354.54
439.75	356.76
440.13	359.38
440.50	361.80
440.87	363.72
441.24	365.76
441.61	368.01
441.98	369.54
442.35	371.47
442.72	373.38
443.09	375.29
443.46	376.33
443.83	376.91
444.20	377.43
444.57	378.29
444.94	378.65
445.31	379.00
445.68	379.36
446.05	379.50
446.42	379.14
446.79	378.73
447.16	378.31
447.53	378.01
447.90	376.84
448.27	375.63
448.64	373.99
449.01	372.87
449.37	370.91
449.74	369.01
450.11	366.70
450.48	364.17
450.85	361.52
451.22	359.30
451.59	357.22
451.96	355.22
452.33	352.55
452.70	350.10
453.07	347.24
453.43	344.23
453.80	341.36
454.17	338.62
454.54	336.02
454.91	333.22
455.28	330.48
455.65	327.91
456.02	325.41
456.38	323.20
456.75	320.42
457.12	318.08
457.49	315.75
457.86	313.48
458.23	311.53
458.59	309.45
458.96	307.31
459.33	305.42
459.70	303.50
460.07	301.93
460.43	300.16
460.80	298.44
461.17	296.97
461.54	295.37
461.91	293.89
462.27	292.35
462.64	291.08
463.01	289.63
463.38	288.27
463.74	286.85
464.11	285.68
464.48	284.62
464.85	283.47
465.21	282.59
465.58	281.66
465.95	280.54
466.32	279.60
466.68	278.65
467.05	277.71
467.42	276.76
467.78	275.80
468.15	274.86
468.52	274.20
468.88	273.31
469.25	272.54
469.62	271.90
469.98	271.22
470.35	270.52
470.72	269.93
471.08	269.26
471.45	268.69
471.82	268.14
472.18	267.52
472.55	267.02
472.92	266.47
473.28	266.02
473.65	265.58
474.02	265.11
474.38	264.74
474.75	264.41
475.11	264.05
475.48	263.79
475.85	263.53
476.21	263.25
476.58	263.09
476.94	262.95
477.31	262.77
477.67	262.62
478.04	262.50
478.41	262.45
478.77	262.50
479.14	262.45
479.50	262.45
479.87	262.50
480.23	262.61
480.60	262.67
480.96	262.73
481.33	262.96
481.69	263.14
482.06	263.34
482.42	263.57
482.79	263.84
483.15	264.16
483.52	264.58
483.88	264.97
484.25	265.34
484.61	265.77
484.98	266.19
485.34	266.78
485.71	267.36
486.07	267.96
486.44	268.49
486.80	269.20
487.17	269.92
487.53	270.76
487.90	271.59
488.26	272.53
488.62	273.51
488.99	274.45
489.35	275.50
489.72	276.61
490.08	277.79
490.44	279.05
490.81	280.37
491.17	281.73
491.54	283.19
491.90	284.71
492.26	286.38
492.63	288.16
492.99	289.93
493.36	291.86
493.72	293.89
494.08	295.97
494.45	298.21
494.81	300.57
495.17	303.01
495.54	305.61
495.90	308.25
496.26	311.00
496.63	313.96
496.99	317.08
497.35	320.30
497.72	323.67
498.08	327.14
498.44	330.79
498.80	334.65
499.17	338.69
499.53	342.85
499.89	347.20
500.26	351.66
500.62	356.23
500.98	361.12
501.34	366.13
501.71	371.46
502.07	376.85
502.43	382.37
502.79	388.13
503.16	394.08
503.52	400.31
503.88	406.68
504.24	413.23
504.60	420.05
504.97	427.15
505.33	434.41
505.69	442.06
506.05	449.75
506.41	457.57
506.78	465.62
507.14	473.95
507.50	482.57
507.86	491.47
508.22	500.58
508.59	509.66
508.95	519.13
509.31	528.79
509.67	538.64
510.03	548.81
510.39	559.17
510.75	569.82
511.12	580.55
511.48	591.67
511.84	602.90
512.20	614.18
512.56	625.84
512.92	637.79
513.28	649.96
513.64	662.21
514.00	674.68
514.37	687.39
514.73	700.22
515.09	712.92
515.45	725.93
515.81	739.23
516.17	752.95
516.53	766.83
516.89	780.74
517.25	794.71
517.61	808.86
517.97	822.96
518.33	837.04
518.69	851.47
519.05	866.11
519.41	880.98
519.77	896.19
520.13	911.33
520.49	926.34
520.85	941.32
521.21	956.73
521.57	972.61
521.93	987.95
522.29	1003.91
522.65	1019.82
523.01	1035.60
523.37	1051.29
523.73	1067.03
524.09	1082.68
524.45	1098.60
524.81	1114.83
525.17	1131.10
525.53	1147.59
525.89	1164.18
526.25	1180.73
526.61	1196.79
526.97	1213.14
527.33	1229.26
527.68	1245.54
528.04	1261.69
528.40	1277.85
528.76	1294.53
529.12	1310.81
529.48	1327.38
529.84	1343.04
530.20	1359.27
530.56	1375.92
530.91	1393.01
531.27	1409.50
531.63	1425.72
531.99	1441.91
532.35	1457.57
532.71	1473.33
533.07	1489.36
533.42	1504.97
533.78	1520.87
534.14	1536.88
534.50	1552.03
534.86	1567.58
535.21	1582.49
535.57	1598.15
535.93	1613.38
536.29	1627.82
536.65	1642.53
537.00	1656.99
537.36	1672.21
537.72	1686.53
538.08	1700.92
538.44	1714.45
538.79	1728.12
539.15	1741.55
539.51	1755.12
539.87	1769.24
540.22	1782.65
540.58	1796.16
540.94	1809.25
541.29	1821.71
541.65	1834.21
542.01	1847.26
542.37	1859.45
542.72	1871.67
543.08	1883.51
543.44	1895.94
543.79	1907.37
544.15	1918.24
544.51	1929.83
544.87	1940.65
545.22	1951.61
545.58	1961.76
545.94	1971.50
546.29	1981.38
546.65	1991.33
547.01	2000.65
547.36	2009.48
547.72	2018.06
548.07	2026.18
548.43	2034.46
548.79	2042.67
549.14	2050.39
549.50	2057.79
549.86	2065.61
550.21	2073.19
550.57	2080.44
550.92	2087.10
551.28	2094.13
551.64	2101.50
551.99	2108.22
552.35	2114.55
552.70	2120.79
553.06	2126.87
553.41	2133.46
553.77	2139.64
554.13	2145.89
554.48	2152.37
554.84	2158.41
555.19	2163.93
555.55	2169.28
555.90	2174.14
556.26	2179.22
556.61	2184.17
556.97	2188.76
557.32	2193.29
557.68	2197.59
558.03	2202.10
558.39	2205.98
558.74	2210.98
559.10	2215.09
559.45	2219.00
559.81	2223.60
560.16	2227.69
560.52	2231.33
560.87	2235.01
561.23	2237.93
561.58	2241.03
561.94	2243.83
562.29	2246.19
562.64	2249.47
563.00	2252.40
563.35	2256.12
563.71	2259.55
564.06	2263.01
564.42	2266.27
564.77	2269.13
565.12	2271.94
565.48	2274.29
565.83	2276.84
566.19	2278.51
566.54	2279.59
566.89	2281.22
567.25	2282.28
567.60	2283.85
567.96	2285.92
568.31	2287.22
568.66	2288.94
569.02	2289.90
569.37	2290.41
569.72	2291.75
570.08	2292.23
570.43	2292.54
570.78	2292.36
571.14	2291.38
571.49	2290.33
571.84	2290.19
572.20	2289.45
572.55	2288.72
572.90	2287.37
573.26	2286.24
573.61	2284.71
573.96	2283.74
574.31	2281.06
574.67	2278.40
575.02	2275.24
575.37	2272.11
575.72	2268.77
576.08	2265.54
576.43	2262.57
576.78	2259.50
577.13	2256.37
577.49	2253.31
577.84	2250.20
578.19	2246.87
578.54	2243.57
578.90	2239.86
579.25	2234.81
579.60	2230.20
579.95	2225.64
580.30	2220.95
580.66	2215.98
581.01	2211.34
581.36	2206.55
581.71	2202.64
582.06	2198.44
582.42	2194.28
582.77	2189.48
583.12	2185.24
583.47	2180.88
583.82	2176.20
584.17	2171.17
584.53	2166.07
584.88	2160.75
585.23	2155.34
585.58	2149.91
585.93	2144.63
586.28	2139.91
586.63	2135.05
586.98	2130.15
587.34	2125.41
587.69	2120.67
588.04	2115.78
588.39	2110.38
588.74	2103.90
589.09	2097.96
589.44	2091.41
589.79	2085.38
590.14	2079.87
590.49	2073.24
590.84	2066.90
591.19	2061.14
591.54	2054.76
591.89	2047.73
592.25	2041.38
592.60	2034.24
592.95	2026.98
593.30	2019.81
593.65	2012.48
594.00	2005.69
594.35	1998.53
594.70	1990.66
595.05	1983.69
595.40	1976.43
595.75	1969.00
596.10	1963.29
596.45	1956.77
596.80	1950.75
597.15	1944.52
597.50	1937.62
597.85	1931.33
598.19	1924.92
598.54	1918.03
598.89	1911.67
599.24	1905.76
599.59	1899.16
599.94	1893.00
600.29	1886.65
600.64	1880.04
600.99	1872.78
601.34	1866.02
601.69	1859.03
602.04	1852.26
602.39	1844.87
602.74	1838.11
603.08	1831.53
603.43	1824.62
603.78	1817.25
604.13	1810.02
604.48	1802.82
604.83	1796.00
605.18	1789.22
605.53	1781.28
605.87	1773.24
606.22	1765.90
606.57	1757.94
606.92	1750.36
607.27	1743.35
607.62	1736.60
607.96	1729.51
608.31	1722.99
608.66	1715.45
609.01	1708.08
609.36	1700.53
609.70	1692.64
610.05	1684.69
610.40	1677.00
610.75	1668.75
611.10	1661.16
611.44	1652.71
611.79	1644.52
612.14	1635.89
612.49	1626.53
612.83	1618.07
613.18	1609.78
613.53	1601.61
613.88	1592.98
614.22	1584.74
614.57	1575.84
614.92	1567.68
615.27	1560.06
615.61	1551.54
615.96	1543.24
616.31	1535.33
616.65	1527.85
617.00	1520.24
617.35	1512.45
617.70	1504.15
618.04	1495.50
618.39	1487.15
618.74	1479.60
619.08	1471.17
619.43	1463.39
619.78	1456.37
620.12	1449.15
620.47	1441.55
620.82	1433.29
621.16	1425.84
621.51	1418.04
621.85	1410.45
622.20	1401.81
622.55	1393.22
622.89	1385.33
623.24	1377.59
623.59	1370.19
623.93	1362.54
624.28	1355.23
624.62	1347.60
624.97	1340.32
625.32	1333.41
625.66	1326.35
626.01	1318.99
626.35	1311.65
626.70	1303.83
627.04	1296.20
627.39	1288.25
627.73	1280.74
628.08	1273.78
628.43	1266.55
628.77	1259.28
629.12	1251.58
629.46	1244.31
629.81	1236.76
630.15	1229.39
630.50	1222.01
630.84	1213.72
631.19	1205.70
631.53	1198.00
631.88	1190.26
632.22	1182.55
632.57	1175.16
632.91	1167.42
633.26	1159.90
633.60	1152.23
633.95	1144.82
634.29	1137.53
634.64	1130.84
634.98	1123.48
635.32	1116.15
635.67	1109.31
636.01	1102.50
636.36	1095.72
636.70	1089.11
637.05	1082.53
637.39	1076.05
637.73	1069.56
638.08	1063.61
638.42	1057.59
638.77	1051.10
639.11	1044.55
639.45	1038.01
639.80	1031.41
640.14	1025.06
640.49	1018.56
640.83	1012.26
641.17	1006.12
641.52	999.78
641.86	993.18
642.20	987.28
642.55	980.86
642.89	974.34
643.23	967.63
643.58	961.84
643.92	955.65
644.26	949.57
644.61	943.38
644.95	937.25
645.29	930.67
645.64	923.94
645.98	917.61
646.32	911.58
646.66	905.54
647.01	899.69
647.35	893.89
647.69	887.94
648.04	882.33
648.38	876.57
648.72	870.64
649.06	864.61
649.41	858.56
649.75	852.70
650.09	846.79
650.43	841.08
650.78	834.90
651.12	828.87
651.46	823.10
651.80	817.38
652.14	811.88
652.49	806.53
652.83	801.31
653.17	795.65
653.51	790.07
653.85	784.55
654.20	778.87
654.54	772.82
654.88	766.93
655.22	761.04
655.56	755.22
655.90	749.69
656.25	744.49
656.59	739.20
656.93	734.05
657.27	728.81
657.61	723.32
657.95	718.22
658.29	713.11
658.64	707.80
658.98	702.40
659.32	696.91
659.66	691.62
660.00	686.37
660.34	681.39
660.68	676.32
661.02	671.29
661.36	666.54
661.70	662.04
662.05	657.70
662.39	653.40
662.73	648.96
663.07	644.54
663.41	640.03
663.75	635.50
664.09	630.91
664.43	626.55
664.77	622.46
665.11	618.12
665.45	613.96
665.79	609.88
666.13	605.82
666.47	601.70
666.81	597.56
667.15	593.29
667.49	589.35
667.83	585.49
668.17	581.59
668.51	577.50
668.85	573.40
669.19	569.55
669.53	565.72
669.87	561.88
670.21	558.15
670.55	554.44
670.89	550.98
671.23	547.48
671.57	543.94
671.91	540.43
672.25	536.91
672.58	533.34
672.92	529.86
673.26	526.59
673.60	523.39
673.94	520.30
674.28	517.36
674.62	514.33
674.96	511.27
675.30	508.35
675.64	505.38
675.97	502.59
676.31	499.71
676.65	496.78
676.99	493.96
677.33	491.01
677.67	488.21
678.01	485.21
678.34	482.25
678.68	479.28
679.02	476.34
679.36	473.53
679.70	470.78
680.04	468.04
680.37	465.18
680.71	462.36
681.05	459.64
681.39	456.91
681.73	454.21
682.06	451.67
682.40	449.08
682.74	446.52
683.08	443.93
683.42	441.33
683.75	438.75
684.09	436.17
684.43	433.70
684.77	431.20
685.10	428.78
685.44	426.43
685.78	424.15
686.12	421.88
686.45	419.58
686.79	417.34
687.13	415.11
687.46	412.91
687.80	410.72
688.14	408.43
688.48	406.35
688.81	404.13
689.15	401.95
689.49	399.75
689.82	397.62
690.16	395.51
690.50	393.49
690.83	391.55
691.17	389.58
691.51	387.72
691.84	385.87
692.18	383.97
692.52	382.01
692.85	380.01
693.19	378.15
693.52	376.25
693.86	374.35
694.20	372.48
694.53	370.69
694.87	368.81
695.21	367.08
695.54	365.24
695.88	363.52
696.21	361.76
696.55	360.04
696.88	358.36
697.22	356.68
697.56	354.99
697.89	353.31
698.23	351.67
698.56	349.97
698.90	348.38
699.23	346.68
699.57	345.11
699.90	343.56
700.24	342.00
700.58	340.51
700.91	339.03
701.25	337.63
701.58	336.24
701.92	334.87
702.25	333.43
702.59	332.07
702.92	330.71
703.26	329.41
703.59	328.17
703.93	326.99
704.26	325.77
704.60	324.52
704.93	323.24
705.26	321.97
705.60	320.80
705.93	319.58
706.27	318.56
706.60	317.46
706.94	316.35
707.27	315.17
707.61	314.05
707.94	312.98
708.27	311.87
708.61	310.75
708.94	309.76
709.28	308.78
709.61	307.77
709.94	306.74
710.28	305.68
710.61	304.62
710.95	303.47
711.28	302.52
711.61	301.54
711.95	300.60
712.28	299.70
712.61	298.66
712.95	297.73
713.28	296.79
713.61	295.89
713.95	295.01
714.28	294.15
714.61	293.28
714.95	292.44
715.28	291.56
715.61	290.71
715.95	289.82
716.28	288.92
716.61	288.05
716.95	287.23
717.28	286.45
717.61	285.68
717.94	284.93
718.28	284.11
718.61	283.35
718.94	282.64
719.27	281.92
719.61	281.29
719.94	280.59
720.27	279.85
720.60	279.20
720.94	278.54
721.27	277.96
721.60	277.40
721.93	276.77
722.27	276.21
722.60	275.61
722.93	275.01
723.26	274.51
723.59	273.97
723.93	273.38
724.26	272.83
724.59	272.25
724.92	271.74
725.25	271.19
725.59	270.66
725.92	270.18
726.25	269.66
726.58	269.14
726.91	268.65
727.24	268.15
727.57	267.64
727.91	267.10
728.24	266.59
728.57	266.05
728.90	265.58
729.23	265.07
729.56	264.64
729.89	264.14
730.22	263.60
730.55	263.14
730.89	262.72
731.22	262.30
731.55	261.83
731.88	261.36
732.21	260.95
732.54	260.50
732.87	260.02
733.20	259.64
733.53	259.23
733.86	258.83
734.19	258.46
734.52	258.07
734.85	257.80
735.18	257.38
735.51	257.00
735.84	256.66
736.17	256.31
736.50	255.89
736.83	255.69
737.16	255.35
737.49	254.99
737.82	254.64
738.15	254.29
738.48	253.97
738.81	253.66
739.14	253.31
739.47	253.01
739.80	252.75
740.13	252.41
740.46	252.09
740.79	251.75
741.12	251.43
741.45	251.13
741.78	250.78
742.11	250.55
742.44	250.23
742.77	249.92
743.10	249.61
743.43	249.30
743.75	248.91
744.08	248.76
744.41	248.46
744.74	248.17
745.07	247.87
745.40	247.64
745.73	247.38
746.06	247.11
746.39	246.84
746.71	246.52
747.04	246.23
747.37	245.99
747.70	245.80
748.03	245.54
748.36	245.30
748.68	245.03
749.01	244.72
749.34	244.50
749.67	244.25
750.00	244.07
750.33	243.93
750.65	243.70
750.98	243.36
751.31	243.13
751.64	242.91
751.97	242.74
752.29	242.52
752.62	242.30
752.95	242.06
753.28	241.84
753.60	241.62
753.93	241.44
754.26	241.20
754.59	240.95
754.91	240.72
755.24	240.52
755.57	240.33
755.90	240.17
756.22	239.98
756.55	239.77
756.88	239.55
757.20	239.31
757.53	239.12
757.86	238.95
758.19	238.82
758.51	238.68
758.84	238.47
759.17	238.29
759.49	238.12
759.82	238.03
760.15	237.87
760.47	237.73
760.80	237.55
761.13	237.42
761.45	237.25
761.78	237.13
762.11	236.98
762.43	236.84
762.76	236.67
763.08	236.49
763.41	236.34
763.74	236.19
764.06	236.04
764.39	235.87
764.71	235.74
765.04	235.56
765.37	235.40
765.69	235.22
766.02	235.08
766.34	234.94
766.67	234.76
767.00	234.66
767.32	234.59
767.65	234.54
767.97	234.42
768.30	234.31
768.62	234.20
768.95	234.06
769.27	233.92
769.60	233.79
769.92	233.67
770.25	233.59
770.57	233.48
770.90	233.37
771.22	233.29
771.55	233.18
771.87	233.12
772.20	233.03
772.52	233.04
772.85	233.05
773.17	232.96
773.50	232.84
773.82	232.70
774.15	232.55
774.47	232.40
774.80	232.32
775.12	232.23
775.45	232.13
775.77	232.07
776.09	231.97
776.42	231.89
776.74	231.90
777.07	231.80
777.39	231.70
777.72	231.61
778.04	231.55
778.36	231.48
778.69	231.38
779.01	231.30
779.33	231.17
779.66	230.99
779.98	230.92
780.31	230.92
780.63	230.93
780.95	230.92
781.28	230.86
781.60	230.76
781.92	230.71
782.25	230.66
782.57	230.62
782.89	230.58
783.22	230.52
783.54	230.40
783.86	230.34
784.19	230.27
784.51	230.26
784.83	230.21
785.16	230.15
785.48	230.14
785.80	230.06
786.12	230.03
786.45	229.99
786.77	229.96
787.09	229.89
787.42	229.83
787.74	229.74
788.06	229.71
788.38	229.71
788.71	229.67
789.03	229.65
789.35	229.60
789.67	229.55
789.99	229.54
790.32	229.51
790.64	229.52
790.96	229.59
791.28	229.52
791.61	229.48
791.93	229.45
792.25	229.41
792.57	229.48
792.89	229.40
793.21	229.35
793.54	229.31
793.86	229.28
794.18	229.22
794.50	229.19
794.82	229.17
795.14	229.12
795.47	229.06
795.79	229.01
796.11	228.97
796.43	228.96
796.75	228.91
797.07	228.90
797.39	228.81
797.71	228.73
798.04	228.69
798.36	228.66
798.68	228.61
799.00	228.57
799.32	228.44
799.64	228.47
799.96	228.43
800.28	228.40
800.60	228.34
800.92	228.35
801.24	228.27
801.56	228.19
801.89	228.14
802.21	228.14
802.53	228.05
802.85	228.02
803.17	227.99
803.49	227.96
803.81	227.91
804.13	227.91
804.45	227.84
804.77	227.79
805.09	227.73
805.41	227.70
805.73	227.65
806.05	227.60
806.37	227.53
806.69	227.47
807.01	227.38
807.33	227.33
807.65	227.23
807.97	227.26
808.28	227.26
808.60	227.25
808.92	227.20
809.24	227.25
809.56	227.22
809.88	227.16
810.20	227.14
810.52	227.11
810.84	227.03
811.16	227.00
811.48	227.00
811.80	227.03
812.12	226.99
812.43	226.97
812.75	226.95
813.07	226.93
813.39	226.93
813.71	226.92
814.03	226.92
814.35	226.90
814.67	226.84
814.98	226.78
815.30	226.74
815.62	226.71
815.94	226.64
816.26	226.67
816.58	226.62
816.89	226.61
817.21	226.56
817.53	226.55
817.85	226.53
818.17	226.47
818.48	226.41
818.80	226.39
819.12	226.38
819.44	226.33
819.76	226.29
820.07	226.31
820.39	226.30
820.71	226.30
821.03	226.28
821.34	226.28
821.66	226.27
821.98	226.28
822.30	226.27
822.61	226.32
822.93	226.26
823.25	226.27
823.57	226.25
823.88	226.28
824.20	226.29
824.52	226.27
824.83	226.28
825.15	226.27
825.47	226.26
825.79	226.28
826.10	226.26
826.42	226.26
826.74	226.24
827.05	226.27
827.37	226.27
827.69	226.28
828.00	226.26
828.32	226.25
828.64	226.25
828.95	226.29
829.27	226.25
829.58	226.23
829.90	226.25
830.22	226.28
830.53	226.23
830.85	226.21
831.17	226.21
831.48	226.22
831.80	226.23
832.11	226.25
832.43	226.25
832.75	226.28
833.06	226.36
833.38	226.32
833.69	226.32
834.01	226.31
834.32	226.27
834.64	226.24
834.96	226.24
835.27	226.23
835.59	226.21
835.90	226.20
836.22	226.19
836.53	226.15
836.85	226.13
837.16	226.22
837.48	226.18
837.79	226.20
838.11	226.19
838.42	226.17
838.74	226.19
839.05	226.14
839.37	226.11
839.68	226.02
840.00	226.02
840.31	225.97
840.63	225.95
840.94	225.99
841.26	226.01
841.57	226.00
841.88	226.00
842.20	225.94
842.51	225.93
842.83	225.90
843.14	225.99
843.46	225.94
843.77	225.90
844.08	225.91
844.40	225.86
844.71	225.81
845.03	225.79
845.34	225.74
845.65	225.76
845.97	225.73
846.28	225.75
846.60	225.74
846.91	225.72
847.22	225.70
847.54	225.69
847.85	225.67
848.16	225.68
848.48	225.65
848.79	225.67
849.10	225.67
849.42	225.66
849.73	225.57
850.04	225.55
850.36	225.48
850.67	225.46
850.98	225.47
851.30	225.46
851.61	225.43
851.92	225.41
852.23	225.42
852.55	225.43
852.86	225.44
853.17	225.45
853.49	225.47
853.80	225.50
854.11	225.48
854.42	225.50
854.74	225.46
855.05	225.43
855.36	225.40
855.67	225.41
855.99	225.42
856.30	225.53
856.61	225.54
856.92	225.59
857.23	225.59
857.55	225.57
857.86	225.57
858.17	225.62
858.48	225.61
858.79	225.54
859.11	225.55
859.42	225.55
859.73	225.51
860.04	225.52
860.35	225.48
860.66	225.43
860.98	225.41
861.29	225.44
861.60	225.44
861.91	225.49
862.22	225.44
862.53	225.43
862.84	225.29
863.16	225.31
863.47	225.28
863.78	225.29
864.09	225.30
864.40	225.31
864.71	225.34
865.02	225.33
865.33	225.37
865.64	225.34
865.95	225.34
866.27	225.41
866.58	225.41
866.89	225.42
867.20	225.44
867.51	225.42
867.82	225.40
868.13	225.43
868.44	225.39
868.75	225.41
869.06	225.44
869.37	225.46
869.68	225.45
869.99	225.46
870.30	225.48
870.61	225.51
870.92	225.51
871.23	225.48
871.54	225.51
871.85	225.50
872.16	225.50
872.47	225.47
872.78	225.44
873.09	225.46
873.40	225.45
873.71	225.47
874.02	225.48
874.33	225.50
874.64	225.49
874.95	225.52
875.26	225.49
875.56	225.47
875.87	225.48
876.18	225.46
876.49	225.54
876.80	225.50
877.11	225.50
877.42	225.50
877.73	225.49
878.04	225.46
878.35	225.47
878.66	225.49
878.96	225.50
879.27	225.47
879.58	225.45
879.89	225.47
880.20	225.50
880.51	225.49
880.82	225.48
881.12	225.47
881.43	225.40
881.74	225.40
882.05	225.38
882.36	225.37
882.67	225.38
882.97	225.29
883.28	225.30
883.59	225.23
883.90	225.27
884.21	225.24
884.51	225.25
884.82	225.21
885.13	225.21
885.44	225.18
885.74	225.18
886.05	225.15
886.36	225.10
886.67	225.03
886.98	225.08
887.28	225.09
887.59	225.06
887.90	225.06
888.20	225.05
888.51	225.05
888.82	225.03
889.13	225.02
889.43	225.07
889.74	225.02
890.05	225.04
890.35	224.98
890.66	224.99
890.97	224.96
891.28	224.94
891.58	224.90
891.89	224.91
892.20	224.91
892.50	224.88
892.81	224.89
893.12	224.90
893.42	224.83
893.73	224.80
894.04	224.79
894.34	224.79
894.65	224.78
894.95	224.78
895.26	224.78
895.57	224.83
895.87	224.74
896.18	224.80
896.48	224.81
896.79	224.81
897.10	224.78
897.40	224.80
897.71	224.83
898.01	224.83
898.32	224.84
898.63	224.85
898.93	224.87
899.24	224.87
899.54	224.88
899.85	224.86
900.15	224.88
900.46	224.90
900.76	224.95
901.07	224.94
901.38	224.95
901.68	224.97
901.99	224.94
902.29	224.98
902.60	224.94
902.90	224.93
903.21	224.98
903.51	224.99
903.82	225.02
904.12	225.07
904.43	225.11
904.73	225.10
905.03	225.11
905.34	225.22
905.64	225.23
905.95	225.24
906.25	225.28
906.56	225.29
906.86	225.31
907.17	225.30
907.47	225.33
907.77	225.32
908.08	225.30
908.38	225.31
908.69	225.30
908.99	225.33
909.30	225.37
909.60	225.34
909.90	225.40
910.21	225.40
910.51	225.36
910.81	225.38
911.12	225.39
911.42	225.38
911.73	225.28
912.03	225.28
912.33	225.28
912.64	225.28
912.94	225.26
913.24	225.25
913.55	225.24
913.85	225.24
914.15	225.27
914.46	225.28
914.76	225.28
915.06	225.28
915.37	225.25
915.67	225.22
915.97	225.25
916.27	225.19
916.58	225.17
916.88	225.16
917.18	225.16
917.49	225.23
917.79	225.25
918.09	225.26
918.39	225.27
918.70	225.27
919.00	225.25
919.30	225.30
919.60	225.26
919.91	225.25
920.21	225.26
920.51	225.22
920.81	225.20
921.12	225.17
921.42	225.16
921.72	225.18
922.02	225.18
922.32	225.15
922.63	225.15
922.93	225.17
923.23	225.14
923.53	225.08
923.83	225.01
924.13	225.01
924.44	224.99
924.74	224.98
925.04	225.01
925.34	225.00
925.64	224.96
925.94	224.98
926.24	225.01
926.55	224.96
926.85	224.97
927.15	224.97
927.45	224.98
927.75	224.98
928.05	224.98
928.35	224.97
928.65	224.97
928.95	224.94
929.26	224.90
929.56	224.92
929.86	224.95
930.16	224.93
930.46	224.91
930.76	224.93
931.06	224.89
931.36	224.84
931.66	224.85
931.96	224.85
932.26	224.85
932.56	224.83
932.86	224.86
933.16	224.87
933.46	224.87
933.76	224.86
934.06	224.88
934.36	224.90
934.66	224.91
934.96	224.91
935.26	224.93
935.56	224.94
935.86	224.94
936.16	224.94
936.46	224.95
936.76	224.93
937.06	224.94
937.36	224.97
937.66	224.98
937.96	225.00
938.26	224.99
938.56	224.98
938.86	225.00
939.16	225.03
939.46	225.04
939.76	225.06
940.06	225.08
940.35	225.09
940.65	225.06
940.95	225.07
941.25	225.07
941.55	225.08
941.85	225.10
942.15	225.14
942.45	225.17
942.75	225.17
943.04	225.22
943.34	225.24
943.64	225.24
943.94	225.22
944.24	225.22
944.54	225.21
944.84	225.26
945.13	225.26
945.43	225.26
945.73	225.26
946.03	225.24
946.33	225.25
946.62	225.23
946.92	225.21
947.22	225.23
947.52	225.25
947.82	225.28
948.11	225.25
948.41	225.25
948.71	225.22
949.01	225.23
949.31	225.19
949.60	225.19
949.90	225.20
950.20	225.22
950.50	225.21
950.79	225.24
951.09	225.25
951.39	225.22
951.69	225.21
951.98	225.22
952.28	225.26
952.58	225.24
952.87	225.26
953.17	225.27
953.47	225.24
953.76	225.21
954.06	225.21
954.36	225.20
954.66	225.19
954.95	225.21
955.25	225.22
955.55	225.26
955.84	225.23
956.14	225.22
956.44	225.23
956.73	225.22
957.03	225.21
957.32	225.20
957.62	225.19
957.92	225.18
958.21	225.17
958.51	225.26
958.81	225.26
959.10	225.20
959.40	225.22
959.69	225.24
959.99	225.24
960.29	225.21
960.58	225.22
960.88	225.23
961.17	225.20
961.47	225.19
961.76	225.16
962.06	225.16
962.36	225.16
962.65	225.15
962.95	225.15
963.24	225.12
963.54	225.14
963.83	225.13
964.13	225.13
964.42	225.08
964.72	224.98
965.01	224.97
965.31	224.98
965.60	224.93
965.90	224.98
966.19	224.95
966.49	224.94
966.78	224.94
967.08	224.92
967.37	224.92
967.67	224.92
967.96	224.91
968.26	224.92
968.55	224.91
968.85	224.86
969.14	224.84
969.43	224.86
969.73	224.80
970.02	224.79
970.32	224.78
970.61	224.79
970.91	224.77
971.20	224.75
971.49	224.72
971.79	224.76
972.08	224.68
972.38	224.69
972.67	224.68
972.96	224.66
973.26	224.67
973.55	224.68
973.85	224.65
974.14	224.62
974.43	224.62
974.73	224.65
975.02	224.67
975.31	224.67
975.61	224.67
975.90	224.67
976.19	224.66
976.49	224.66
976.78	224.65
977.07	224.68
977.37	224.70
977.66	224.76
977.95	224.73
978.24	224.75
978.54	224.76
978.83	224.78
979.12	224.81
979.42	224.78
979.71	224.78
980.00	224.79
980.29	224.79
980.59	224.78
980.88	224.76
981.17	224.75
981.46	224.77
981.76	224.76
982.05	224.78
982.34	224.79
982.63	224.81
982.93	224.82
983.22	224.83
983.51	224.82
983.80	224.81
984.09	224.84
984.39	224.85
984.68	224.87
984.97	224.83
985.26	224.80
985.55	224.83
985.85	224.82
986.14	224.85
986.43	224.90
986.72	224.89
987.01	224.91
987.30	224.92
987.59	224.91
987.89	224.95
988.18	224.95
988.47	224.97
988.76	224.97
989.05	224.96
989.34	224.96
989.63	224.96
989.92	224.97
990.22	224.96
990.51	224.96
990.80	224.97
991.09	225.00
991.38	225.02
991.67	225.01
991.96	225.00
992.25	225.00
992.54	224.96
992.83	224.96
993.12	224.95
993.41	224.95
993.70	224.99
993.99	224.96
994.28	224.97
994.58	224.98
994.87	224.95
995.16	224.96
995.45	224.93
995.74	224.92
996.03	224.90
996.32	224.91
996.61	224.93
996.90	224.89
997.19	224.90
997.48	224.91
997.77	224.90
998.06	224.93
998.34	224.92
998.63	224.95
998.92	224.92
999.21	224.92
999.50	224.93
999.79	224.88
1000.08	224.89
1000.37	224.88
1000.66	224.84
1000.95	224.87
1001.24	224.85
1001.53	224.87
1001.82	224.85
1002.11	224.85
1002.40	224.84
1002.68	224.85
1002.97	224.92
1003.26	224.90
1003.55	224.89
1003.84	224.90
1004.13	224.92
1004.42	224.87
1004.71	224.87
1004.99	224.86
1005.28	224.89
1005.57	224.87
1005.86	224.87
1006.15	224.86
1006.44	224.85
1006.72	224.89
1007.01	224.87
1007.30	224.86
1007.59	224.85
1007.88	224.85
1008.17	224.86
1008.45	224.86
1008.74	224.79
1009.03	224.74
1009.32	224.76
1009.60	224.75
1009.89	224.71
1010.18	224.66
1010.47	224.68
1010.76	224.63
1011.04	224.64
1011.33	224.65
1011.62	224.67
1011.91	224.70
1012.19	224.71
1012.48	224.71
1012.77	224.68
1013.05	224.74
1013.34	224.74
1013.63	224.76
1013.92	224.76
1014.20	224.76
1014.49	224.76
1014.78	224.78
1015.06	224.73
1015.35	224.73
1015.64	224.75
1015.92	224.76
1016.21	224.76
1016.50	224.77
1016.78	224.80
1017.07	224.79
1017.36	224.76
1017.64	224.72
1017.93	224.71
1018.22	224.69
1018.50	224.69
1018.79	224.68
1019.08	224.65
1019.36	224.65
1019.65	224.64
1019.93	224.66
1020.22	224.64
1020.51	224.68
1020.79	224.70
1021.08	224.73
1021.36	224.64
1021.65	224.59
1021.94	225.10
1022.22	224.54
1022.51	224.72
1022.79	224.80
1023.08	224.48
1023.36	225.63
1023.65	224.93
>>>>>End Processed Spectral Data<<<<<
