SpectraSuite Data File
++++++++++++++++++++++++++++++++++++
Date: Fri Feb 01 15:31:42 EST 2013
User: group
Dark Spectrum Present: No
Reference Spectrum Present: No
Number of Sampled Component Spectra: 1
Spectrometers: USB2E7196
Integration Time (usec): 35000 (USB2E7196)
Spectra Averaged: 100 (USB2E7196)
Boxcar Smoothing: 10 (USB2E7196)
Correct for Electrical Dark: No (USB2E7196)
Strobe/Lamp Enabled: No (USB2E7196)
Correct for Detector Non-linearity: No (USB2E7196)
Correct for Stray Light: No (USB2E7196)
Number of Pixels in Processed Spectrum: 2048
>>>>>Begin Processed Spectral Data<<<<<
339.09	0.00
339.48	215.15
339.86	216.48
340.24	217.62
340.63	218.95
341.01	222.05
341.39	221.16
341.78	223.80
342.16	224.62
342.54	224.90
342.93	213.23
343.31	224.03
343.69	224.53
344.07	224.99
344.46	225.43
344.84	225.80
345.22	226.04
345.60	226.32
345.99	226.47
346.37	226.60
346.75	226.68
347.13	226.70
347.52	226.78
347.90	226.83
348.28	226.85
348.66	226.92
349.05	226.93
349.43	227.00
349.81	227.05
350.19	227.13
350.57	227.22
350.96	227.31
351.34	227.38
351.72	227.50
352.10	227.59
352.48	227.66
352.87	227.72
353.25	227.77
353.63	227.84
354.01	227.90
354.39	227.95
354.77	228.06
355.15	228.16
355.54	228.23
355.92	228.31
356.30	228.38
356.68	228.51
357.06	228.61
357.44	228.65
357.82	228.70
358.20	228.76
358.58	228.81
358.97	228.85
359.35	228.92
359.73	228.98
360.11	229.05
360.49	229.10
360.87	229.18
361.25	229.26
361.63	229.31
362.01	229.36
362.39	229.37
362.77	229.42
363.15	229.46
363.53	229.48
363.91	229.47
364.29	229.50
364.67	229.43
365.05	229.43
365.43	229.45
365.81	229.48
366.19	229.52
366.57	229.52
366.95	229.52
367.33	229.47
367.71	229.46
368.09	229.47
368.47	229.41
368.85	229.39
369.23	229.34
369.61	229.32
369.99	229.32
370.37	229.34
370.75	229.33
371.13	229.26
371.51	229.19
371.89	229.14
372.27	229.08
372.65	229.02
373.03	228.97
373.41	228.92
373.78	228.83
374.16	228.75
374.54	228.71
374.92	228.63
375.30	228.60
375.68	228.51
376.06	228.42
376.44	228.36
376.82	228.29
377.19	228.26
377.57	228.16
377.95	228.09
378.33	228.00
378.71	227.86
379.09	227.78
379.47	227.76
379.84	227.65
380.22	227.54
380.60	227.46
380.98	227.36
381.36	227.28
381.73	227.21
382.11	227.14
382.49	227.04
382.87	226.95
383.25	226.88
383.62	226.95
384.00	226.86
384.38	226.83
384.76	226.79
385.13	226.75
385.51	226.67
385.89	226.60
386.27	226.51
386.64	226.50
387.02	226.45
387.40	226.40
387.78	226.40
388.15	226.38
388.53	226.36
388.91	226.31
389.29	226.28
389.66	226.26
390.04	226.23
390.42	226.23
390.79	226.22
391.17	226.21
391.55	226.07
391.92	226.07
392.30	226.08
392.68	226.07
393.05	226.06
393.43	226.12
393.81	226.13
394.18	226.18
394.56	226.20
394.94	226.26
395.31	226.25
395.69	226.30
396.06	226.35
396.44	226.37
396.82	226.43
397.19	226.53
397.57	226.57
397.95	226.66
398.32	226.70
398.70	226.80
399.07	226.84
399.45	226.92
399.82	227.00
400.20	227.03
400.58	227.12
400.95	227.14
401.33	227.25
401.70	227.39
402.08	227.48
402.45	227.56
402.83	227.68
403.20	227.81
403.58	227.91
403.95	228.08
404.33	228.21
404.71	228.37
405.08	228.54
405.46	228.67
405.83	228.81
406.21	228.98
406.58	229.15
406.96	229.34
407.33	229.51
407.70	229.72
408.08	230.02
408.45	230.23
408.83	230.52
409.20	230.73
409.58	230.90
409.95	231.18
410.33	231.49
410.70	231.74
411.08	232.05
411.45	232.38
411.82	232.67
412.20	233.04
412.57	233.45
412.95	233.76
413.32	234.18
413.69	234.61
414.07	235.02
414.44	235.48
414.82	235.98
415.19	236.54
415.56	237.08
415.94	237.59
416.31	238.23
416.68	238.82
417.06	239.53
417.43	240.26
417.81	241.03
418.18	241.79
418.55	242.62
418.93	243.48
419.30	244.36
419.67	245.29
420.04	246.24
420.42	247.22
420.79	248.39
421.16	249.55
421.54	250.72
421.91	251.97
422.28	253.18
422.66	254.53
423.03	255.83
423.40	257.18
423.77	258.62
424.15	260.05
424.52	261.55
424.89	263.15
425.26	264.68
425.64	266.07
426.01	267.66
426.38	269.29
426.75	270.96
427.13	272.67
427.50	274.49
427.87	276.39
428.24	278.28
428.61	280.00
428.99	281.96
429.36	284.08
429.73	286.10
430.10	288.18
430.47	290.20
430.85	292.28
431.22	294.49
431.59	296.81
431.96	299.01
432.33	301.49
432.70	303.92
433.08	306.73
433.45	309.41
433.82	312.01
434.19	314.95
434.56	317.80
434.93	320.53
435.30	323.17
435.68	326.10
436.05	328.84
436.42	331.70
436.79	334.20
437.16	336.90
437.53	339.75
437.90	342.58
438.27	345.35
438.64	348.25
439.01	350.90
439.38	353.15
439.75	355.35
440.13	357.88
440.50	360.16
440.87	362.04
441.24	364.01
441.61	366.20
441.98	367.67
442.35	369.43
442.72	371.23
443.09	372.99
443.46	373.93
443.83	374.60
444.20	375.07
444.57	375.87
444.94	376.16
445.31	376.50
445.68	376.85
446.05	376.85
446.42	376.45
446.79	375.98
447.16	375.57
447.53	375.26
447.90	374.13
448.27	372.98
448.64	371.34
449.01	370.19
449.37	368.23
449.74	366.32
450.11	364.09
450.48	361.63
450.85	359.12
451.22	356.97
451.59	354.94
451.96	353.02
452.33	350.45
452.70	348.07
453.07	345.21
453.43	342.29
453.80	339.58
454.17	336.89
454.54	334.40
454.91	331.65
455.28	328.97
455.65	326.47
456.02	324.02
456.38	321.89
456.75	319.24
457.12	316.98
457.49	314.74
457.86	312.58
458.23	310.71
458.59	308.66
458.96	306.57
459.33	304.70
459.70	302.82
460.07	301.29
460.43	299.58
460.80	297.98
461.17	296.53
461.54	295.05
461.91	293.64
462.27	292.17
462.64	290.93
463.01	289.62
463.38	288.28
463.74	286.92
464.11	285.76
464.48	284.71
464.85	283.58
465.21	282.71
465.58	281.76
465.95	280.65
466.32	279.75
466.68	278.86
467.05	277.94
467.42	277.05
467.78	276.11
468.15	275.22
468.52	274.55
468.88	273.69
469.25	272.89
469.62	272.22
469.98	271.49
470.35	270.86
470.72	270.18
471.08	269.52
471.45	268.97
471.82	268.40
472.18	267.77
472.55	267.32
472.92	266.82
473.28	266.35
473.65	265.88
474.02	265.43
474.38	265.04
474.75	264.72
475.11	264.34
475.48	264.10
475.85	263.89
476.21	263.65
476.58	263.44
476.94	263.29
477.31	263.13
477.67	262.99
478.04	262.86
478.41	262.81
478.77	262.88
479.14	262.80
479.50	262.82
479.87	262.92
480.23	263.02
480.60	263.07
480.96	263.18
481.33	263.40
481.69	263.63
482.06	263.86
482.42	264.08
482.79	264.36
483.15	264.68
483.52	265.03
483.88	265.39
484.25	265.77
484.61	266.18
484.98	266.65
485.34	267.22
485.71	267.83
486.07	268.44
486.44	269.01
486.80	269.75
487.17	270.48
487.53	271.28
487.90	272.14
488.26	273.09
488.62	274.08
488.99	275.06
489.35	276.04
489.72	277.18
490.08	278.38
490.44	279.63
490.81	280.94
491.17	282.27
491.54	283.79
491.90	285.34
492.26	287.01
492.63	288.73
492.99	290.52
493.36	292.40
493.72	294.44
494.08	296.54
494.45	298.77
494.81	301.16
495.17	303.60
495.54	306.17
495.90	308.84
496.26	311.66
496.63	314.62
496.99	317.75
497.35	320.98
497.72	324.36
498.08	327.84
498.44	331.49
498.80	335.43
499.17	339.44
499.53	343.61
499.89	347.96
500.26	352.47
500.62	357.11
500.98	362.10
501.34	367.18
501.71	372.51
502.07	377.93
502.43	383.57
502.79	389.42
503.16	395.52
503.52	401.79
503.88	408.16
504.24	414.84
504.60	421.73
504.97	428.87
505.33	436.21
505.69	443.95
506.05	451.73
506.41	459.64
506.78	467.79
507.14	476.27
507.50	485.00
507.86	494.02
508.22	503.26
508.59	512.45
508.95	522.09
509.31	531.89
509.67	542.02
510.03	552.29
510.39	562.80
510.75	573.59
511.12	584.51
511.48	595.91
511.84	607.31
512.20	618.79
512.56	630.74
512.92	643.03
513.28	655.35
513.64	667.93
514.00	680.65
514.37	693.65
514.73	706.80
515.09	719.82
515.45	733.12
515.81	746.76
516.17	760.81
516.53	774.90
516.89	789.08
517.25	803.29
517.61	817.68
517.97	832.08
518.33	846.52
518.69	861.34
519.05	876.30
519.41	891.56
519.77	907.24
520.13	922.73
520.49	938.12
520.85	953.66
521.21	969.35
521.57	985.61
521.93	1001.38
522.29	1017.80
522.65	1034.16
523.01	1050.44
523.37	1066.52
523.73	1082.75
524.09	1098.87
524.45	1115.27
524.81	1131.91
525.17	1148.80
525.53	1165.90
525.89	1182.77
526.25	1199.67
526.61	1216.11
526.97	1232.86
527.33	1249.30
527.68	1265.99
528.04	1282.43
528.40	1299.09
528.76	1316.24
529.12	1332.93
529.48	1349.88
529.84	1365.97
530.20	1382.58
530.56	1399.58
530.91	1416.98
531.27	1433.72
531.63	1450.20
531.99	1466.88
532.35	1482.99
532.71	1498.87
533.07	1515.20
533.42	1531.21
533.78	1547.30
534.14	1563.61
534.50	1578.98
534.86	1594.96
535.21	1610.06
535.57	1626.12
535.93	1641.56
536.29	1656.29
536.65	1671.38
537.00	1686.27
537.36	1701.49
537.72	1716.12
538.08	1730.73
538.44	1744.65
538.79	1758.61
539.15	1772.40
539.51	1786.12
539.87	1800.40
540.22	1814.30
540.58	1828.14
540.94	1841.47
541.29	1854.60
541.65	1867.41
542.01	1880.76
542.37	1893.12
542.72	1905.73
543.08	1917.39
543.44	1929.83
543.79	1941.16
544.15	1952.10
544.51	1963.80
544.87	1974.91
545.22	1985.74
545.58	1995.93
545.94	2005.69
546.29	2015.53
546.65	2025.41
547.01	2034.60
547.36	2043.39
547.72	2051.83
548.07	2059.65
548.43	2067.91
548.79	2075.73
549.14	2083.18
549.50	2090.46
549.86	2098.20
550.21	2105.41
550.57	2112.70
550.92	2119.31
551.28	2126.40
551.64	2133.58
551.99	2140.00
552.35	2146.06
552.70	2152.20
553.06	2158.23
553.41	2164.63
553.77	2170.78
554.13	2176.90
554.48	2183.14
554.84	2188.54
555.19	2193.87
555.55	2199.01
555.90	2203.58
556.26	2208.40
556.61	2213.19
556.97	2217.37
557.32	2221.48
557.68	2225.72
558.03	2230.04
558.39	2233.79
558.74	2238.44
559.10	2242.33
559.45	2245.94
559.81	2250.26
560.16	2254.17
560.52	2257.39
560.87	2260.81
561.23	2263.49
561.58	2266.47
561.94	2269.07
562.29	2271.63
562.64	2274.31
563.00	2276.80
563.35	2280.17
563.71	2283.35
564.06	2286.58
564.42	2289.44
564.77	2291.76
565.12	2294.02
565.48	2295.86
565.83	2297.52
566.19	2298.69
566.54	2299.60
566.89	2300.61
567.25	2301.04
567.60	2302.37
567.96	2303.95
568.31	2304.61
568.66	2305.60
569.02	2306.07
569.37	2306.23
569.72	2306.90
570.08	2306.97
570.43	2307.08
570.78	2306.48
571.14	2304.92
571.49	2303.63
571.84	2303.30
572.20	2302.21
572.55	2301.12
572.90	2299.53
573.26	2298.25
573.61	2296.47
573.96	2294.58
574.31	2291.69
574.67	2288.74
575.02	2284.89
575.37	2281.50
575.72	2277.74
576.08	2274.37
576.43	2271.02
576.78	2267.22
577.13	2264.06
577.49	2261.13
577.84	2257.49
578.19	2253.63
578.54	2249.87
578.90	2245.46
579.25	2239.88
579.60	2234.80
579.95	2229.73
580.30	2224.73
580.66	2219.49
581.01	2214.56
581.36	2209.51
581.71	2205.24
582.06	2200.65
582.42	2196.17
582.77	2190.88
583.12	2186.21
583.47	2181.32
583.82	2176.31
584.17	2171.06
584.53	2165.46
584.88	2159.53
585.23	2153.73
585.58	2148.35
585.93	2142.95
586.28	2138.16
586.63	2133.01
586.98	2127.95
587.34	2123.17
587.69	2118.09
588.04	2112.82
588.39	2107.13
588.74	2100.64
589.09	2094.45
589.44	2087.66
589.79	2081.61
590.14	2075.89
590.49	2069.27
590.84	2062.92
591.19	2056.72
591.54	2050.24
591.89	2042.77
592.25	2035.88
592.60	2028.56
592.95	2020.82
593.30	2013.32
593.65	2005.66
594.00	1998.57
594.35	1991.39
594.70	1983.26
595.05	1975.89
595.40	1968.43
595.75	1960.94
596.10	1954.74
596.45	1947.90
596.80	1941.80
597.15	1935.04
597.50	1927.80
597.85	1921.33
598.19	1914.52
598.54	1907.45
598.89	1900.85
599.24	1894.87
599.59	1888.08
599.94	1882.02
600.29	1875.68
600.64	1869.08
600.99	1861.61
601.34	1854.74
601.69	1847.57
602.04	1840.67
602.39	1833.36
602.74	1826.57
603.08	1819.84
603.43	1813.05
603.78	1805.68
604.13	1798.25
604.48	1790.95
604.83	1784.26
605.18	1777.23
605.53	1769.09
605.87	1761.04
606.22	1753.74
606.57	1745.87
606.92	1738.77
607.27	1731.48
607.62	1724.58
607.96	1717.26
608.31	1710.60
608.66	1702.97
609.01	1695.47
609.36	1687.94
609.70	1679.80
610.05	1671.63
610.40	1663.77
610.75	1655.34
611.10	1647.72
611.44	1639.38
611.79	1631.44
612.14	1622.60
612.49	1613.50
612.83	1605.33
613.18	1597.15
613.53	1589.03
613.88	1580.39
614.22	1571.98
614.57	1563.40
614.92	1555.28
615.27	1547.73
615.61	1539.31
615.96	1531.31
616.31	1523.66
616.65	1516.30
617.00	1508.84
617.35	1501.20
617.70	1492.83
618.04	1484.35
618.39	1476.09
618.74	1468.44
619.08	1460.04
619.43	1452.43
619.78	1445.46
620.12	1438.27
620.47	1430.70
620.82	1422.58
621.16	1415.23
621.51	1407.53
621.85	1399.83
622.20	1391.20
622.55	1382.88
622.89	1375.04
623.24	1367.39
623.59	1360.10
623.93	1352.45
624.28	1345.34
624.62	1337.80
624.97	1330.74
625.32	1324.15
625.66	1317.09
626.01	1309.92
626.35	1302.55
626.70	1294.83
627.04	1287.05
627.39	1279.23
627.73	1271.87
628.08	1264.85
628.43	1257.45
628.77	1250.09
629.12	1242.52
629.46	1235.47
629.81	1227.98
630.15	1220.79
630.50	1213.45
630.84	1205.24
631.19	1197.41
631.53	1189.89
631.88	1182.42
632.22	1174.81
632.57	1167.38
632.91	1159.86
633.26	1152.51
633.60	1145.20
633.95	1138.27
634.29	1131.36
634.64	1124.75
634.98	1117.35
635.32	1110.22
635.67	1103.72
636.01	1097.07
636.36	1090.26
636.70	1083.75
637.05	1077.23
637.39	1070.76
637.73	1064.06
638.08	1058.13
638.42	1052.08
638.77	1045.60
639.11	1038.95
639.45	1032.63
639.80	1025.98
640.14	1019.53
640.49	1012.94
640.83	1006.65
641.17	1000.33
641.52	993.91
641.86	987.42
642.20	981.60
642.55	975.38
642.89	968.85
643.23	962.34
643.58	956.53
643.92	950.34
644.26	944.22
644.61	938.20
644.95	932.27
645.29	925.61
645.64	918.88
645.98	912.53
646.32	906.71
646.66	900.56
647.01	894.83
647.35	889.13
647.69	883.35
648.04	877.77
648.38	871.98
648.72	865.96
649.06	859.98
649.41	853.99
649.75	847.84
650.09	841.92
650.43	836.15
650.78	830.01
651.12	823.95
651.46	818.24
651.80	812.46
652.14	807.11
652.49	801.75
652.83	796.56
653.17	790.82
653.51	785.09
653.85	779.73
654.20	774.01
654.54	768.01
654.88	762.34
655.22	756.44
655.56	750.75
655.90	745.28
656.25	739.97
656.59	734.72
656.93	729.69
657.27	724.49
657.61	719.06
657.95	714.01
658.29	708.99
658.64	703.78
658.98	698.51
659.32	693.00
659.66	687.81
660.00	682.46
660.34	677.55
660.68	672.69
661.02	667.69
661.36	662.93
661.70	658.46
662.05	653.95
662.39	649.70
662.73	645.19
663.07	640.83
663.41	636.32
663.75	631.76
664.09	627.21
664.43	622.92
664.77	618.78
665.11	614.51
665.45	610.37
665.79	606.26
666.13	602.09
666.47	597.99
666.81	593.85
667.15	589.76
667.49	585.92
667.83	582.09
668.17	578.06
668.51	574.02
668.85	569.97
669.19	566.18
669.53	562.26
669.87	558.34
670.21	554.63
670.55	551.06
670.89	547.63
671.23	544.22
671.57	540.70
671.91	537.18
672.25	533.70
672.58	530.24
672.92	526.85
673.26	523.70
673.60	520.57
673.94	517.40
674.28	514.53
674.62	511.52
674.96	508.42
675.30	505.56
675.64	502.63
675.97	499.87
676.31	496.99
676.65	494.06
676.99	491.38
677.33	488.57
677.67	485.72
678.01	482.77
678.34	479.78
678.68	476.87
679.02	474.09
679.36	471.35
679.70	468.63
680.04	465.88
680.37	463.02
680.71	460.26
681.05	457.69
681.39	454.94
681.73	452.33
682.06	449.71
682.40	447.18
682.74	444.68
683.08	442.17
683.42	439.62
683.75	437.15
684.09	434.62
684.43	432.12
684.77	429.65
685.10	427.26
685.44	424.97
685.78	422.70
686.12	420.42
686.45	418.16
686.79	415.82
687.13	413.62
687.46	411.46
687.80	409.30
688.14	407.11
688.48	405.06
688.81	402.78
689.15	400.70
689.49	398.56
689.82	396.49
690.16	394.42
690.50	392.49
690.83	390.53
691.17	388.58
691.51	386.69
691.84	384.89
692.18	382.98
692.52	381.01
692.85	379.07
693.19	377.24
693.52	375.36
693.86	373.57
694.20	371.84
694.53	370.06
694.87	368.24
695.21	366.47
695.54	364.67
695.88	362.98
696.21	361.27
696.55	359.60
696.88	357.86
697.22	356.21
697.56	354.57
697.89	352.95
698.23	351.31
698.56	349.75
698.90	348.13
699.23	346.46
699.57	344.92
699.90	343.41
700.24	341.82
700.58	340.29
700.91	338.79
701.25	337.35
701.58	335.97
701.92	334.59
702.25	333.19
702.59	331.80
702.92	330.46
703.26	329.17
703.59	327.87
703.93	326.72
704.26	325.44
704.60	324.15
704.93	322.87
705.26	321.62
705.60	320.45
705.93	319.29
706.27	318.33
706.60	317.25
706.94	316.15
707.27	315.03
707.61	314.02
707.94	312.99
708.27	311.85
708.61	310.78
708.94	309.75
709.28	308.77
709.61	307.80
709.94	306.83
710.28	305.79
710.61	304.78
710.95	303.70
711.28	302.81
711.61	301.84
711.95	300.91
712.28	299.96
712.61	298.93
712.95	298.01
713.28	297.06
713.61	296.16
713.95	295.23
714.28	294.37
714.61	293.47
714.95	292.59
715.28	291.77
715.61	290.88
715.95	290.01
716.28	289.14
716.61	288.32
716.95	287.54
717.28	286.80
717.61	286.05
717.94	285.34
718.28	284.51
718.61	283.81
718.94	283.11
719.27	282.43
719.61	281.80
719.94	281.13
720.27	280.43
720.60	279.78
720.94	279.18
721.27	278.57
721.60	278.01
721.93	277.45
722.27	276.88
722.60	276.34
722.93	275.81
723.26	275.33
723.59	274.80
723.93	274.22
724.26	273.67
724.59	273.14
724.92	272.61
725.25	272.12
725.59	271.63
725.92	271.16
726.25	270.68
726.58	270.18
726.91	269.71
727.24	269.23
727.57	268.82
727.91	268.35
728.24	267.92
728.57	267.46
728.90	267.02
729.23	266.56
729.56	266.15
729.89	265.70
730.22	265.20
730.55	264.72
730.89	264.32
731.22	263.86
731.55	263.45
731.88	263.02
732.21	262.62
732.54	262.14
732.87	261.69
733.20	261.28
733.53	260.90
733.86	260.52
734.19	260.14
734.52	259.74
734.85	259.46
735.18	259.07
735.51	258.74
735.84	258.35
736.17	258.02
736.50	257.58
736.83	257.34
737.16	257.01
737.49	256.74
737.82	256.37
738.15	256.10
738.48	255.71
738.81	255.39
739.14	255.05
739.47	254.75
739.80	254.45
740.13	254.17
740.46	253.83
740.79	253.47
741.12	253.13
741.45	252.78
741.78	252.41
742.11	252.09
742.44	251.73
742.77	251.46
743.10	251.11
743.43	250.85
743.75	250.46
744.08	250.33
744.41	249.99
744.74	249.72
745.07	249.42
745.40	249.19
745.73	248.93
746.06	248.65
746.39	248.41
746.71	248.15
747.04	247.88
747.37	247.64
747.70	247.41
748.03	247.15
748.36	246.96
748.68	246.69
749.01	246.44
749.34	246.24
749.67	245.98
750.00	245.74
750.33	245.56
750.65	245.30
750.98	244.93
751.31	244.71
751.64	244.51
751.97	244.35
752.29	244.11
752.62	243.87
752.95	243.66
753.28	243.43
753.60	243.19
753.93	243.00
754.26	242.79
754.59	242.56
754.91	242.35
755.24	242.14
755.57	241.93
755.90	241.75
756.22	241.50
756.55	241.31
756.88	241.12
757.20	240.85
757.53	240.69
757.86	240.51
758.19	240.35
758.51	240.17
758.84	239.96
759.17	239.75
759.49	239.57
759.82	239.45
760.15	239.30
760.47	239.16
760.80	238.97
761.13	238.85
761.45	238.73
761.78	238.61
762.11	238.47
762.43	238.34
762.76	238.19
763.08	238.13
763.41	237.99
763.74	237.89
764.06	237.79
764.39	237.65
764.71	237.50
765.04	237.39
765.37	237.28
765.69	237.16
766.02	237.05
766.34	236.97
766.67	236.82
767.00	236.71
767.32	236.64
767.65	236.60
767.97	236.47
768.30	236.36
768.62	236.24
768.95	236.12
769.27	236.03
769.60	235.93
769.92	235.79
770.25	235.68
770.57	235.51
770.90	235.42
771.22	235.31
771.55	235.26
771.87	235.13
772.20	235.02
772.52	235.00
772.85	235.02
773.17	234.92
773.50	234.83
773.82	234.75
774.15	234.62
774.47	234.49
774.80	234.41
775.12	234.32
775.45	234.26
775.77	234.19
776.09	234.07
776.42	234.02
776.74	233.97
777.07	233.89
777.39	233.85
777.72	233.78
778.04	233.71
778.36	233.64
778.69	233.60
779.01	233.57
779.33	233.42
779.66	233.26
779.98	233.17
780.31	233.11
780.63	233.10
780.95	233.02
781.28	232.94
781.60	232.86
781.92	232.79
782.25	232.73
782.57	232.68
782.89	232.66
783.22	232.58
783.54	232.48
783.86	232.43
784.19	232.39
784.51	232.34
784.83	232.31
785.16	232.23
785.48	232.16
785.80	232.07
786.12	232.03
786.45	232.00
786.77	231.99
787.09	231.92
787.42	231.81
787.74	231.78
788.06	231.76
788.38	231.70
788.71	231.66
789.03	231.63
789.35	231.59
789.67	231.52
789.99	231.47
790.32	231.40
790.64	231.39
790.96	231.38
791.28	231.29
791.61	231.24
791.93	231.21
792.25	231.18
792.57	231.18
792.89	231.10
793.21	231.03
793.54	230.92
793.86	230.90
794.18	230.88
794.50	230.83
794.82	230.77
795.14	230.74
795.47	230.71
795.79	230.65
796.11	230.57
796.43	230.53
796.75	230.47
797.07	230.47
797.39	230.40
797.71	230.28
798.04	230.25
798.36	230.19
798.68	230.16
799.00	230.12
799.32	230.06
799.64	230.05
799.96	230.00
800.28	230.03
800.60	229.97
800.92	229.91
801.24	229.90
801.56	229.87
801.89	229.84
802.21	229.82
802.53	229.78
802.85	229.78
803.17	229.81
803.49	229.78
803.81	229.74
804.13	229.74
804.45	229.71
804.77	229.70
805.09	229.69
805.41	229.62
805.73	229.61
806.05	229.55
806.37	229.54
806.69	229.55
807.01	229.47
807.33	229.48
807.65	229.43
807.97	229.40
808.28	229.39
808.60	229.40
808.92	229.36
809.24	229.41
809.56	229.36
809.88	229.31
810.20	229.31
810.52	229.33
810.84	229.28
811.16	229.27
811.48	229.26
811.80	229.27
812.12	229.29
812.43	229.28
812.75	229.27
813.07	229.25
813.39	229.23
813.71	229.23
814.03	229.18
814.35	229.19
814.67	229.14
814.98	229.09
815.30	229.06
815.62	229.05
815.94	228.94
816.26	228.99
816.58	228.95
816.89	228.90
817.21	228.88
817.53	228.89
817.85	228.90
818.17	228.93
818.48	228.92
818.80	228.91
819.12	228.85
819.44	228.82
819.76	228.76
820.07	228.77
820.39	228.73
820.71	228.76
821.03	228.76
821.34	228.73
821.66	228.74
821.98	228.75
822.30	228.68
822.61	228.71
822.93	228.65
823.25	228.61
823.57	228.61
823.88	228.60
824.20	228.58
824.52	228.58
824.83	228.54
825.15	228.50
825.47	228.48
825.79	228.47
826.10	228.45
826.42	228.45
826.74	228.46
827.05	228.45
827.37	228.41
827.69	228.42
828.00	228.46
828.32	228.42
828.64	228.37
828.95	228.46
829.27	228.43
829.58	228.40
829.90	228.41
830.22	228.38
830.53	228.33
830.85	228.29
831.17	228.22
831.48	228.22
831.80	228.19
832.11	228.17
832.43	228.16
832.75	228.16
833.06	228.20
833.38	228.14
833.69	228.12
834.01	228.09
834.32	228.04
834.64	227.98
834.96	227.97
835.27	227.95
835.59	227.87
835.90	227.85
836.22	227.86
836.53	227.85
836.85	227.83
837.16	227.92
837.48	227.96
837.79	227.96
838.11	227.92
838.42	227.92
838.74	227.92
839.05	227.88
839.37	227.86
839.68	227.81
840.00	227.79
840.31	227.79
840.63	227.77
840.94	227.77
841.26	227.77
841.57	227.77
841.88	227.79
842.20	227.80
842.51	227.78
842.83	227.76
843.14	227.84
843.46	227.85
843.77	227.79
844.08	227.75
844.40	227.78
844.71	227.75
845.03	227.71
845.34	227.74
845.65	227.75
845.97	227.77
846.28	227.78
846.60	227.81
846.91	227.81
847.22	227.83
847.54	227.82
847.85	227.81
848.16	227.81
848.48	227.77
848.79	227.81
849.10	227.82
849.42	227.81
849.73	227.72
850.04	227.72
850.36	227.69
850.67	227.68
850.98	227.66
851.30	227.68
851.61	227.72
851.92	227.67
852.23	227.71
852.55	227.69
852.86	227.68
853.17	227.67
853.49	227.69
853.80	227.70
854.11	227.73
854.42	227.75
854.74	227.76
855.05	227.81
855.36	227.74
855.67	227.74
855.99	227.76
856.30	227.86
856.61	227.85
856.92	227.86
857.23	227.89
857.55	227.87
857.86	227.86
858.17	227.86
858.48	227.87
858.79	227.82
859.11	227.86
859.42	227.83
859.73	227.81
860.04	227.80
860.35	227.74
860.66	227.72
860.98	227.72
861.29	227.72
861.60	227.67
861.91	227.67
862.22	227.68
862.53	227.64
862.84	227.50
863.16	227.55
863.47	227.52
863.78	227.49
864.09	227.48
864.40	227.48
864.71	227.44
865.02	227.42
865.33	227.42
865.64	227.34
865.95	227.34
866.27	227.40
866.58	227.37
866.89	227.37
867.20	227.32
867.51	227.28
867.82	227.25
868.13	227.27
868.44	227.26
868.75	227.22
869.06	227.21
869.37	227.24
869.68	227.18
869.99	227.17
870.30	227.16
870.61	227.17
870.92	227.14
871.23	227.14
871.54	227.18
871.85	227.17
872.16	227.20
872.47	227.18
872.78	227.13
873.09	227.16
873.40	227.19
873.71	227.23
874.02	227.23
874.33	227.20
874.64	227.18
874.95	227.19
875.26	227.20
875.56	227.21
875.87	227.21
876.18	227.23
876.49	227.35
876.80	227.37
877.11	227.37
877.42	227.40
877.73	227.42
878.04	227.37
878.35	227.38
878.66	227.39
878.96	227.44
879.27	227.43
879.58	227.41
879.89	227.40
880.20	227.42
880.51	227.43
880.82	227.47
881.12	227.45
881.43	227.45
881.74	227.43
882.05	227.44
882.36	227.42
882.67	227.41
882.97	227.30
883.28	227.30
883.59	227.28
883.90	227.29
884.21	227.33
884.51	227.37
884.82	227.37
885.13	227.38
885.44	227.34
885.74	227.34
886.05	227.30
886.36	227.34
886.67	227.33
886.98	227.38
887.28	227.39
887.59	227.41
887.90	227.43
888.20	227.43
888.51	227.49
888.82	227.50
889.13	227.48
889.43	227.55
889.74	227.52
890.05	227.52
890.35	227.53
890.66	227.50
890.97	227.48
891.28	227.47
891.58	227.47
891.89	227.48
892.20	227.47
892.50	227.46
892.81	227.43
893.12	227.40
893.42	227.36
893.73	227.34
894.04	227.32
894.34	227.32
894.65	227.32
894.95	227.26
895.26	227.26
895.57	227.33
895.87	227.26
896.18	227.27
896.48	227.30
896.79	227.29
897.10	227.27
897.40	227.27
897.71	227.26
898.01	227.21
898.32	227.20
898.63	227.17
898.93	227.21
899.24	227.21
899.54	227.17
899.85	227.18
900.15	227.15
900.46	227.13
900.76	227.13
901.07	227.12
901.38	227.14
901.68	227.13
901.99	227.06
902.29	227.05
902.60	227.05
902.90	227.05
903.21	227.03
903.51	226.98
903.82	227.00
904.12	226.99
904.43	227.03
904.73	227.02
905.03	227.00
905.34	227.07
905.64	227.03
905.95	227.04
906.25	227.00
906.56	227.03
906.86	227.05
907.17	227.04
907.47	227.05
907.77	227.02
908.08	227.00
908.38	227.00
908.69	227.01
908.99	227.01
909.30	226.99
909.60	226.96
909.90	227.00
910.21	226.95
910.51	226.95
910.81	226.96
911.12	226.99
911.42	227.02
911.73	226.92
912.03	226.96
912.33	226.97
912.64	226.96
912.94	226.95
913.24	226.93
913.55	226.93
913.85	226.91
914.15	226.93
914.46	226.95
914.76	226.96
915.06	226.95
915.37	226.96
915.67	226.97
915.97	226.98
916.27	226.95
916.58	226.99
916.88	226.95
917.18	226.96
917.49	227.03
917.79	227.07
918.09	227.07
918.39	227.09
918.70	227.11
919.00	227.14
919.30	227.17
919.60	227.18
919.91	227.17
920.21	227.20
920.51	227.21
920.81	227.20
921.12	227.26
921.42	227.28
921.72	227.31
922.02	227.31
922.32	227.31
922.63	227.32
922.93	227.37
923.23	227.41
923.53	227.40
923.83	227.29
924.13	227.27
924.44	227.29
924.74	227.32
925.04	227.32
925.34	227.31
925.64	227.28
925.94	227.26
926.24	227.31
926.55	227.29
926.85	227.27
927.15	227.27
927.45	227.21
927.75	227.18
928.05	227.15
928.35	227.12
928.65	227.14
928.95	227.15
929.26	227.09
929.56	227.10
929.86	227.10
930.16	227.11
930.46	227.09
930.76	227.06
931.06	226.97
931.36	226.94
931.66	226.91
931.96	226.91
932.26	226.95
932.56	226.92
932.86	226.92
933.16	226.91
933.46	226.90
933.76	226.92
934.06	226.90
934.36	226.93
934.66	226.92
934.96	226.88
935.26	226.87
935.56	226.89
935.86	226.84
936.16	226.82
936.46	226.81
936.76	226.81
937.06	226.79
937.36	226.81
937.66	226.80
937.96	226.86
938.26	226.83
938.56	226.80
938.86	226.79
939.16	226.78
939.46	226.79
939.76	226.80
940.06	226.76
940.35	226.76
940.65	226.68
940.95	226.69
941.25	226.66
941.55	226.62
941.85	226.60
942.15	226.62
942.45	226.62
942.75	226.63
943.04	226.61
943.34	226.66
943.64	226.63
943.94	226.62
944.24	226.59
944.54	226.62
944.84	226.61
945.13	226.58
945.43	226.61
945.73	226.59
946.03	226.60
946.33	226.57
946.62	226.55
946.92	226.59
947.22	226.59
947.52	226.62
947.82	226.66
948.11	226.67
948.41	226.66
948.71	226.64
949.01	226.62
949.31	226.61
949.60	226.58
949.90	226.61
950.20	226.58
950.50	226.59
950.79	226.56
951.09	226.59
951.39	226.60
951.69	226.59
951.98	226.61
952.28	226.61
952.58	226.65
952.87	226.65
953.17	226.66
953.47	226.67
953.76	226.70
954.06	226.69
954.36	226.66
954.66	226.69
954.95	226.78
955.25	226.80
955.55	226.83
955.84	226.85
956.14	226.86
956.44	226.92
956.73	226.91
957.03	226.92
957.32	226.91
957.62	226.89
957.92	226.92
958.21	226.91
958.51	227.05
958.81	227.06
959.10	227.08
959.40	227.08
959.69	227.09
959.99	227.08
960.29	227.09
960.58	227.08
960.88	227.09
961.17	227.05
961.47	227.07
961.76	227.04
962.06	227.07
962.36	227.06
962.65	227.04
962.95	227.06
963.24	227.06
963.54	227.05
963.83	227.06
964.13	227.01
964.42	227.00
964.72	226.87
965.01	226.86
965.31	226.88
965.60	226.85
965.90	226.92
966.19	226.90
966.49	226.90
966.78	226.93
967.08	226.92
967.37	226.90
967.67	226.88
967.96	226.92
968.26	226.88
968.55	226.90
968.85	226.96
969.14	226.93
969.43	226.91
969.73	226.91
970.02	226.90
970.32	226.94
970.61	226.95
970.91	226.94
971.20	226.96
971.49	226.94
971.79	226.95
972.08	226.86
972.38	226.89
972.67	226.88
972.96	226.86
973.26	226.87
973.55	226.91
973.85	226.91
974.14	226.91
974.43	226.93
974.73	226.94
975.02	226.90
975.31	226.93
975.61	226.92
975.90	226.95
976.19	226.93
976.49	226.92
976.78	226.89
977.07	226.89
977.37	226.89
977.66	226.91
977.95	226.90
978.24	226.92
978.54	226.93
978.83	226.94
979.12	226.93
979.42	226.93
979.71	226.92
980.00	226.92
980.29	226.91
980.59	226.91
980.88	226.91
981.17	226.88
981.46	226.86
981.76	226.90
982.05	226.93
982.34	226.97
982.63	226.98
982.93	227.02
983.22	227.04
983.51	227.04
983.80	227.04
984.09	227.03
984.39	227.03
984.68	227.02
984.97	227.01
985.26	227.04
985.55	227.03
985.85	227.01
986.14	227.02
986.43	227.03
986.72	227.01
987.01	226.97
987.30	226.99
987.59	226.97
987.89	226.98
988.18	226.92
988.47	226.91
988.76	226.93
989.05	226.95
989.34	226.95
989.63	226.94
989.92	226.93
990.22	226.95
990.51	226.96
990.80	226.94
991.09	226.96
991.38	226.98
991.67	226.95
991.96	226.97
992.25	226.92
992.54	226.93
992.83	226.92
993.12	226.92
993.41	226.93
993.70	226.99
993.99	226.97
994.28	226.97
994.58	226.98
994.87	226.92
995.16	226.88
995.45	226.82
995.74	226.81
996.03	226.81
996.32	226.82
996.61	226.82
996.90	226.81
997.19	226.77
997.48	226.77
997.77	226.79
998.06	226.80
998.34	226.81
998.63	226.77
998.92	226.79
999.21	226.80
999.50	226.80
999.79	226.77
1000.08	226.76
1000.37	226.77
1000.66	226.77
1000.95	226.81
1001.24	226.83
1001.53	226.89
1001.82	226.89
1002.11	226.87
1002.40	226.87
1002.68	226.88
1002.97	226.98
1003.26	226.97
1003.55	226.93
1003.84	226.94
1004.13	226.93
1004.42	226.97
1004.71	226.98
1004.99	226.94
1005.28	226.98
1005.57	227.00
1005.86	226.98
1006.15	226.99
1006.44	226.98
1006.72	226.95
1007.01	226.93
1007.30	226.93
1007.59	226.90
1007.88	226.88
1008.17	226.87
1008.45	226.86
1008.74	226.84
1009.03	226.77
1009.32	226.79
1009.60	226.78
1009.89	226.76
1010.18	226.74
1010.47	226.69
1010.76	226.68
1011.04	226.72
1011.33	226.74
1011.62	226.72
1011.91	226.73
1012.19	226.72
1012.48	226.76
1012.77	226.78
1013.05	226.80
1013.34	226.82
1013.63	226.82
1013.92	226.86
1014.20	226.88
1014.49	226.93
1014.78	226.92
1015.06	226.91
1015.35	226.89
1015.64	226.94
1015.92	226.95
1016.21	226.97
1016.50	226.99
1016.78	227.01
1017.07	227.01
1017.36	226.96
1017.64	226.98
1017.93	226.99
1018.22	226.97
1018.50	226.98
1018.79	226.98
1019.08	226.99
1019.36	226.95
1019.65	226.93
1019.93	226.95
1020.22	226.98
1020.51	227.00
1020.79	226.99
1021.08	226.29
1021.36	227.34
1021.65	227.01
1021.94	227.38
1022.22	226.58
1022.51	226.44
1022.79	227.60
1023.08	227.38
1023.36	228.38
1023.65	226.39
>>>>>End Processed Spectral Data<<<<<
