SpectraSuite Data File
++++++++++++++++++++++++++++++++++++
Date: Fri Feb 01 16:12:06 EST 2013
User: group
Dark Spectrum Present: No
Reference Spectrum Present: No
Number of Sampled Component Spectra: 1
Spectrometers: USB2E7196
Integration Time (usec): 35000 (USB2E7196)
Spectra Averaged: 100 (USB2E7196)
Boxcar Smoothing: 10 (USB2E7196)
Correct for Electrical Dark: No (USB2E7196)
Strobe/Lamp Enabled: No (USB2E7196)
Correct for Detector Non-linearity: No (USB2E7196)
Correct for Stray Light: No (USB2E7196)
Number of Pixels in Processed Spectrum: 2048
>>>>>Begin Processed Spectral Data<<<<<
339.09	0.00
339.48	214.03
339.86	215.65
340.24	217.11
340.63	218.40
341.01	221.38
341.39	221.40
341.78	222.26
342.16	223.60
342.54	223.93
342.93	212.68
343.31	223.40
343.69	223.94
344.07	224.41
344.46	224.82
344.84	225.20
345.22	225.44
345.60	225.68
345.99	225.88
346.37	226.01
346.75	226.16
347.13	226.21
347.52	226.24
347.90	226.27
348.28	226.25
348.66	226.31
349.05	226.28
349.43	226.30
349.81	226.36
350.19	226.37
350.57	226.43
350.96	226.50
351.34	226.61
351.72	226.67
352.10	226.74
352.48	226.83
352.87	226.91
353.25	226.96
353.63	226.99
354.01	227.07
354.39	227.14
354.77	227.19
355.15	227.31
355.54	227.37
355.92	227.42
356.30	227.51
356.68	227.62
357.06	227.70
357.44	227.77
357.82	227.81
358.20	227.92
358.58	227.98
358.97	228.06
359.35	228.16
359.73	228.26
360.11	228.35
360.49	228.39
360.87	228.38
361.25	228.45
361.63	228.54
362.01	228.58
362.39	228.60
362.77	228.64
363.15	228.67
363.53	228.71
363.91	228.75
364.29	228.78
364.67	228.73
365.05	228.75
365.43	228.78
365.81	228.80
366.19	228.82
366.57	228.87
366.95	228.86
367.33	228.81
367.71	228.80
368.09	228.81
368.47	228.81
368.85	228.86
369.23	228.85
369.61	228.78
369.99	228.80
370.37	228.80
370.75	228.82
371.13	228.73
371.51	228.67
371.89	228.65
372.27	228.64
372.65	228.59
373.03	228.55
373.41	228.48
373.78	228.44
374.16	228.36
374.54	228.28
374.92	228.21
375.30	228.18
375.68	228.10
376.06	228.04
376.44	227.95
376.82	227.89
377.19	227.85
377.57	227.81
377.95	227.69
378.33	227.60
378.71	227.48
379.09	227.45
379.47	227.42
379.84	227.32
380.22	227.21
380.60	227.13
380.98	227.09
381.36	227.00
381.73	226.94
382.11	226.88
382.49	226.82
382.87	226.75
383.25	226.67
383.62	226.72
384.00	226.63
384.38	226.60
384.76	226.56
385.13	226.47
385.51	226.43
385.89	226.39
386.27	226.37
386.64	226.33
387.02	226.26
387.40	226.23
387.78	226.22
388.15	226.22
388.53	226.16
388.91	226.12
389.29	226.09
389.66	226.05
390.04	226.05
390.42	226.05
390.79	226.04
391.17	226.01
391.55	225.88
391.92	225.89
392.30	225.91
392.68	225.90
393.05	225.94
393.43	225.94
393.81	225.94
394.18	225.92
394.56	225.93
394.94	225.99
395.31	225.97
395.69	226.02
396.06	226.03
396.44	226.08
396.82	226.09
397.19	226.16
397.57	226.22
397.95	226.25
398.32	226.27
398.70	226.33
399.07	226.41
399.45	226.47
399.82	226.51
400.20	226.53
400.58	226.56
400.95	226.58
401.33	226.66
401.70	226.82
402.08	226.88
402.45	226.98
402.83	227.08
403.20	227.17
403.58	227.26
403.95	227.40
404.33	227.50
404.71	227.62
405.08	227.78
405.46	227.89
405.83	228.02
406.21	228.16
406.58	228.31
406.96	228.46
407.33	228.65
407.70	228.85
408.08	229.12
408.45	229.33
408.83	229.59
409.20	229.82
409.58	230.00
409.95	230.30
410.33	230.60
410.70	230.82
411.08	231.13
411.45	231.42
411.82	231.71
412.20	232.13
412.57	232.55
412.95	232.85
413.32	233.26
413.69	233.69
414.07	234.13
414.44	234.57
414.82	235.01
415.19	235.55
415.56	236.10
415.94	236.62
416.31	237.28
416.68	237.90
417.06	238.60
417.43	239.28
417.81	240.03
418.18	240.80
418.55	241.67
418.93	242.57
419.30	243.47
419.67	244.41
420.04	245.32
420.42	246.29
420.79	247.44
421.16	248.60
421.54	249.77
421.91	250.97
422.28	252.26
422.66	253.63
423.03	254.93
423.40	256.27
423.77	257.69
424.15	259.10
424.52	260.55
424.89	262.16
425.26	263.69
425.64	265.15
426.01	266.75
426.38	268.40
426.75	270.03
427.13	271.74
427.50	273.53
427.87	275.42
428.24	277.28
428.61	279.05
428.99	280.98
429.36	283.11
429.73	285.15
430.10	287.19
430.47	289.21
430.85	291.32
431.22	293.52
431.59	295.91
431.96	298.12
432.33	300.61
432.70	302.95
433.08	305.74
433.45	308.33
433.82	310.91
434.19	313.77
434.56	316.57
434.93	319.23
435.30	321.86
435.68	324.76
436.05	327.61
436.42	330.38
436.79	332.89
437.16	335.55
437.53	338.40
437.90	341.16
438.27	343.88
438.64	346.70
439.01	349.29
439.38	351.49
439.75	353.68
440.13	356.17
440.50	358.52
440.87	360.37
441.24	362.35
441.61	364.52
441.98	365.98
442.35	367.77
442.72	369.60
443.09	371.37
443.46	372.33
443.83	372.88
444.20	373.41
444.57	374.26
444.94	374.56
445.31	374.85
445.68	375.21
446.05	375.33
446.42	374.96
446.79	374.52
447.16	374.12
447.53	373.81
447.90	372.68
448.27	371.52
448.64	369.95
449.01	368.78
449.37	366.81
449.74	364.93
450.11	362.73
450.48	360.27
450.85	357.76
451.22	355.62
451.59	353.61
451.96	351.69
452.33	349.07
452.70	346.70
453.07	343.93
453.43	341.04
453.80	338.28
454.17	335.63
454.54	333.11
454.91	330.34
455.28	327.64
455.65	325.16
456.02	322.70
456.38	320.54
456.75	317.87
457.12	315.59
457.49	313.41
457.86	311.20
458.23	309.36
458.59	307.32
458.96	305.26
459.33	303.44
459.70	301.57
460.07	300.07
460.43	298.35
460.80	296.70
461.17	295.26
461.54	293.75
461.91	292.33
462.27	290.91
462.64	289.71
463.01	288.39
463.38	287.11
463.74	285.82
464.11	284.67
464.48	283.68
464.85	282.63
465.21	281.77
465.58	280.90
465.95	279.80
466.32	278.91
466.68	278.00
467.05	277.11
467.42	276.21
467.78	275.28
468.15	274.44
468.52	273.82
468.88	272.98
469.25	272.21
469.62	271.60
469.98	270.89
470.35	270.24
470.72	269.60
471.08	268.94
471.45	268.40
471.82	267.87
472.18	267.28
472.55	266.85
472.92	266.33
473.28	265.87
473.65	265.48
474.02	265.06
474.38	264.70
474.75	264.36
475.11	264.04
475.48	263.81
475.85	263.56
476.21	263.33
476.58	263.18
476.94	263.10
477.31	262.93
477.67	262.82
478.04	262.72
478.41	262.74
478.77	262.80
479.14	262.67
479.50	262.66
479.87	262.72
480.23	262.78
480.60	262.83
480.96	262.87
481.33	263.04
481.69	263.22
482.06	263.39
482.42	263.60
482.79	263.84
483.15	264.13
483.52	264.50
483.88	264.80
484.25	265.14
484.61	265.50
484.98	265.91
485.34	266.47
485.71	267.03
486.07	267.55
486.44	268.08
486.80	268.81
487.17	269.54
487.53	270.34
487.90	271.18
488.26	272.11
488.62	273.15
488.99	274.10
489.35	275.12
489.72	276.27
490.08	277.43
490.44	278.68
490.81	280.01
491.17	281.37
491.54	282.86
491.90	284.39
492.26	286.05
492.63	287.80
492.99	289.58
493.36	291.53
493.72	293.65
494.08	295.78
494.45	298.01
494.81	300.42
495.17	302.88
495.54	305.44
495.90	308.15
496.26	310.91
496.63	313.91
496.99	317.05
497.35	320.29
497.72	323.77
498.08	327.31
498.44	331.01
498.80	334.95
499.17	339.04
499.53	343.27
499.89	347.66
500.26	352.18
500.62	356.87
500.98	361.82
501.34	366.90
501.71	372.23
502.07	377.72
502.43	383.35
502.79	389.14
503.16	395.27
503.52	401.58
503.88	408.01
504.24	414.70
504.60	421.56
504.97	428.70
505.33	435.99
505.69	443.76
506.05	451.60
506.41	459.49
506.78	467.69
507.14	476.12
507.50	484.83
507.86	493.89
508.22	503.05
508.59	512.29
508.95	521.82
509.31	531.62
509.67	541.72
510.03	551.95
510.39	562.52
510.75	573.28
511.12	584.19
511.48	595.48
511.84	606.94
512.20	618.45
512.56	630.41
512.92	642.61
513.28	654.94
513.64	667.35
514.00	680.02
514.37	692.92
514.73	706.04
515.09	719.06
515.45	732.31
515.81	745.95
516.17	759.90
516.53	774.01
516.89	788.25
517.25	802.43
517.61	816.85
517.97	831.36
518.33	845.80
518.69	860.59
519.05	875.51
519.41	890.68
519.77	906.27
520.13	921.69
520.49	937.05
520.85	952.45
521.21	968.14
521.57	984.29
521.93	1000.02
522.29	1016.34
522.65	1032.57
523.01	1048.73
523.37	1064.81
523.73	1081.00
524.09	1096.98
524.45	1113.24
524.81	1129.84
525.17	1146.56
525.53	1163.38
525.89	1180.26
526.25	1197.07
526.61	1213.48
526.97	1230.16
527.33	1246.48
527.68	1263.06
528.04	1279.45
528.40	1295.86
528.76	1312.93
529.12	1329.50
529.48	1346.42
529.84	1362.37
530.20	1378.98
530.56	1395.84
530.91	1413.08
531.27	1429.77
531.63	1446.31
531.99	1462.76
532.35	1478.74
532.71	1494.61
533.07	1510.77
533.42	1526.56
533.78	1542.48
534.14	1558.70
534.50	1574.00
534.86	1589.87
535.21	1605.02
535.57	1620.88
535.93	1636.19
536.29	1650.81
536.65	1665.71
537.00	1680.27
537.36	1695.50
537.72	1709.85
538.08	1724.29
538.44	1737.88
538.79	1751.55
539.15	1764.95
539.51	1778.48
539.87	1792.53
540.22	1806.13
540.58	1819.59
540.94	1832.66
541.29	1845.24
541.65	1857.54
542.01	1870.45
542.37	1882.69
542.72	1894.85
543.08	1906.54
543.44	1918.82
543.79	1929.84
544.15	1940.77
544.51	1952.30
544.87	1963.10
545.22	1973.92
545.58	1984.11
545.94	1994.00
546.29	2003.80
546.65	2013.86
547.01	2023.23
547.36	2032.01
547.72	2040.43
548.07	2048.53
548.43	2056.81
548.79	2064.88
549.14	2072.71
549.50	2080.06
549.86	2087.59
550.21	2095.04
550.57	2102.27
550.92	2109.12
551.28	2116.29
551.64	2123.48
551.99	2129.93
552.35	2136.12
552.70	2142.23
553.06	2148.14
553.41	2154.45
553.77	2160.40
554.13	2166.23
554.48	2172.30
554.84	2177.86
555.19	2183.08
555.55	2188.23
555.90	2192.75
556.26	2197.78
556.61	2202.39
556.97	2206.85
557.32	2211.13
557.68	2215.23
558.03	2219.52
558.39	2223.07
558.74	2227.72
559.10	2231.62
559.45	2235.37
559.81	2239.57
560.16	2243.47
560.52	2246.73
560.87	2250.08
561.23	2252.92
561.58	2255.98
561.94	2258.42
562.29	2260.74
562.64	2263.58
563.00	2266.11
563.35	2269.51
563.71	2272.62
564.06	2275.86
564.42	2278.70
564.77	2281.15
565.12	2283.50
565.48	2285.41
565.83	2287.45
566.19	2288.81
566.54	2289.67
566.89	2290.88
567.25	2291.67
567.60	2292.81
567.96	2294.48
568.31	2295.30
568.66	2296.43
569.02	2297.02
569.37	2297.61
569.72	2298.52
570.08	2298.88
570.43	2298.98
570.78	2298.58
571.14	2297.09
571.49	2295.77
571.84	2295.42
572.20	2294.41
572.55	2293.48
572.90	2291.69
573.26	2290.24
573.61	2288.52
573.96	2286.87
574.31	2283.90
574.67	2280.93
575.02	2277.46
575.37	2274.15
575.72	2270.60
576.08	2267.11
576.43	2263.81
576.78	2260.10
577.13	2256.77
577.49	2253.44
577.84	2250.03
578.19	2246.13
578.54	2242.59
578.90	2238.54
579.25	2232.96
579.60	2228.07
579.95	2222.99
580.30	2218.19
580.66	2213.13
581.01	2208.16
581.36	2203.15
581.71	2198.96
582.06	2194.62
582.42	2190.25
582.77	2185.01
583.12	2180.45
583.47	2175.94
583.82	2171.05
584.17	2165.81
584.53	2160.37
584.88	2154.84
585.23	2149.07
585.58	2143.72
585.93	2138.18
586.28	2133.31
586.63	2128.25
586.98	2123.21
587.34	2118.45
587.69	2113.51
588.04	2108.23
588.39	2102.74
588.74	2096.38
589.09	2090.25
589.44	2083.46
589.79	2077.42
590.14	2071.85
590.49	2065.22
590.84	2058.79
591.19	2052.68
591.54	2046.27
591.89	2039.07
592.25	2032.26
592.60	2025.14
592.95	2017.64
593.30	2010.33
593.65	2002.74
594.00	1995.78
594.35	1988.50
594.70	1980.49
595.05	1973.45
595.40	1966.21
595.75	1958.72
596.10	1952.60
596.45	1945.97
596.80	1939.83
597.15	1933.30
597.50	1926.39
597.85	1919.86
598.19	1913.34
598.54	1906.29
598.89	1899.66
599.24	1893.68
599.59	1887.19
599.94	1880.92
600.29	1874.66
600.64	1868.08
600.99	1860.76
601.34	1854.01
601.69	1847.01
602.04	1840.27
602.39	1832.87
602.74	1826.19
603.08	1819.27
603.43	1812.49
603.78	1805.12
604.13	1797.73
604.48	1790.38
604.83	1783.33
605.18	1776.50
605.53	1768.43
605.87	1760.37
606.22	1753.08
606.57	1745.04
606.92	1737.46
607.27	1730.22
607.62	1723.21
607.96	1715.88
608.31	1709.46
608.66	1701.64
609.01	1694.09
609.36	1686.42
609.70	1678.40
610.05	1670.33
610.40	1662.66
610.75	1654.28
611.10	1646.52
611.44	1638.19
611.79	1630.17
612.14	1621.58
612.49	1612.40
612.83	1604.08
613.18	1595.98
613.53	1587.87
613.88	1579.45
614.22	1571.24
614.57	1562.71
614.92	1554.64
615.27	1547.26
615.61	1538.73
615.96	1530.84
616.31	1523.20
616.65	1515.91
617.00	1508.45
617.35	1500.57
617.70	1492.39
618.04	1483.96
618.39	1475.85
618.74	1468.41
619.08	1460.08
619.43	1452.54
619.78	1445.64
620.12	1438.58
620.47	1431.22
620.82	1422.98
621.16	1415.48
621.51	1407.82
621.85	1400.18
622.20	1391.82
622.55	1383.37
622.89	1375.53
623.24	1367.95
623.59	1360.47
623.93	1352.90
624.28	1345.65
624.62	1338.28
624.97	1331.18
625.32	1324.33
625.66	1317.17
626.01	1309.96
626.35	1302.67
626.70	1294.89
627.04	1287.12
627.39	1279.19
627.73	1271.69
628.08	1264.92
628.43	1257.81
628.77	1250.59
629.12	1243.04
629.46	1235.81
629.81	1228.37
630.15	1221.11
630.50	1213.72
630.84	1205.56
631.19	1197.51
631.53	1189.90
631.88	1182.29
632.22	1174.63
632.57	1167.32
632.91	1159.85
633.26	1152.38
633.60	1144.96
633.95	1137.85
634.29	1130.86
634.64	1124.15
634.98	1116.84
635.32	1109.71
635.67	1103.03
636.01	1096.43
636.36	1089.75
636.70	1083.17
637.05	1076.62
637.39	1070.20
637.73	1063.79
638.08	1057.91
638.42	1052.05
638.77	1045.73
639.11	1039.19
639.45	1032.77
639.80	1026.12
640.14	1019.83
640.49	1013.32
640.83	1006.99
641.17	1000.68
641.52	994.34
641.86	987.88
642.20	982.04
642.55	975.60
642.89	969.19
643.23	962.48
643.58	956.65
643.92	950.45
644.26	944.45
644.61	938.44
644.95	932.33
645.29	925.83
645.64	919.15
645.98	912.75
646.32	906.79
646.66	900.68
647.01	894.93
647.35	889.20
647.69	883.30
648.04	877.67
648.38	871.91
648.72	865.97
649.06	859.98
649.41	854.05
649.75	848.19
650.09	842.19
650.43	836.46
650.78	830.29
651.12	824.37
651.46	818.57
651.80	812.88
652.14	807.48
652.49	802.08
652.83	796.87
653.17	791.23
653.51	785.58
653.85	780.24
654.20	774.59
654.54	768.55
654.88	762.78
655.22	756.93
655.56	751.22
655.90	745.72
656.25	740.47
656.59	735.09
656.93	729.96
657.27	724.81
657.61	719.36
657.95	714.21
658.29	709.09
658.64	703.78
658.98	698.36
659.32	692.87
659.66	687.72
660.00	682.38
660.34	677.45
660.68	672.53
661.02	667.46
661.36	662.74
661.70	658.26
662.05	653.91
662.39	649.61
662.73	645.18
663.07	640.77
663.41	636.26
663.75	631.79
664.09	627.20
664.43	622.79
664.77	618.76
665.11	614.53
665.45	610.36
665.79	606.36
666.13	602.24
666.47	598.17
666.81	593.99
667.15	589.85
667.49	585.88
667.83	582.01
668.17	578.11
668.51	574.03
668.85	569.96
669.19	566.13
669.53	562.28
669.87	558.40
670.21	554.70
670.55	551.07
670.89	547.64
671.23	544.27
671.57	540.75
671.91	537.17
672.25	533.63
672.58	530.14
672.92	526.72
673.26	523.55
673.60	520.36
673.94	517.29
674.28	514.43
674.62	511.52
674.96	508.46
675.30	505.57
675.64	502.69
675.97	499.89
676.31	497.05
676.65	494.16
676.99	491.51
677.33	488.65
677.67	485.86
678.01	482.87
678.34	479.89
678.68	477.05
679.02	474.27
679.36	471.57
679.70	468.91
680.04	466.16
680.37	463.32
680.71	460.57
681.05	457.94
681.39	455.25
681.73	452.57
682.06	450.10
682.40	447.58
682.74	445.02
683.08	442.48
683.42	439.90
683.75	437.42
684.09	434.80
684.43	432.38
684.77	429.98
685.10	427.58
685.44	425.27
685.78	423.01
686.12	420.73
686.45	418.42
686.79	416.11
687.13	413.91
687.46	411.73
687.80	409.56
688.14	407.29
688.48	405.24
688.81	403.03
689.15	400.82
689.49	398.63
689.82	396.53
690.16	394.47
690.50	392.50
690.83	390.54
691.17	388.55
691.51	386.63
691.84	384.74
692.18	382.83
692.52	380.86
692.85	378.92
693.19	377.05
693.52	375.20
693.86	373.37
694.20	371.56
694.53	369.76
694.87	367.90
695.21	366.11
695.54	364.24
695.88	362.50
696.21	360.79
696.55	359.08
696.88	357.42
697.22	355.72
697.56	354.08
697.89	352.42
698.23	350.83
698.56	349.16
698.90	347.54
699.23	345.89
699.57	344.29
699.90	342.71
700.24	341.11
700.58	339.59
700.91	338.14
701.25	336.71
701.58	335.34
701.92	334.00
702.25	332.63
702.59	331.28
702.92	329.92
703.26	328.58
703.59	327.29
703.93	326.07
704.26	324.83
704.60	323.50
704.93	322.18
705.26	320.88
705.60	319.69
705.93	318.50
706.27	317.42
706.60	316.37
706.94	315.28
707.27	314.13
707.61	313.05
707.94	311.93
708.27	310.81
708.61	309.73
708.94	308.69
709.28	307.68
709.61	306.71
709.94	305.78
710.28	304.76
710.61	303.80
710.95	302.74
711.28	301.85
711.61	300.90
711.95	300.02
712.28	299.11
712.61	298.14
712.95	297.25
713.28	296.40
713.61	295.50
713.95	294.63
714.28	293.82
714.61	292.96
714.95	292.15
715.28	291.30
715.61	290.42
715.95	289.57
716.28	288.68
716.61	287.88
716.95	287.02
717.28	286.28
717.61	285.51
717.94	284.79
718.28	283.98
718.61	283.31
718.94	282.59
719.27	281.97
719.61	281.36
719.94	280.74
720.27	280.04
720.60	279.41
720.94	278.79
721.27	278.20
721.60	277.64
721.93	277.08
722.27	276.56
722.60	276.02
722.93	275.48
723.26	275.00
723.59	274.41
723.93	273.92
724.26	273.36
724.59	272.83
724.92	272.29
725.25	271.79
725.59	271.24
725.92	270.81
726.25	270.31
726.58	269.83
726.91	269.33
727.24	268.86
727.57	268.39
727.91	267.91
728.24	267.42
728.57	266.90
728.90	266.44
729.23	265.95
729.56	265.55
729.89	265.11
730.22	264.62
730.55	264.16
730.89	263.73
731.22	263.29
731.55	262.83
731.88	262.40
732.21	261.97
732.54	261.54
732.87	261.08
733.20	260.68
733.53	260.28
733.86	259.90
734.19	259.52
734.52	259.17
734.85	258.83
735.18	258.44
735.51	258.10
735.84	257.71
736.17	257.32
736.50	256.89
736.83	256.63
737.16	256.27
737.49	255.97
737.82	255.57
738.15	255.26
738.48	254.92
738.81	254.57
739.14	254.25
739.47	253.92
739.80	253.59
740.13	253.24
740.46	252.90
740.79	252.53
741.12	252.23
741.45	251.87
741.78	251.48
742.11	251.19
742.44	250.85
742.77	250.56
743.10	250.27
743.43	249.99
743.75	249.59
744.08	249.43
744.41	249.13
744.74	248.85
745.07	248.55
745.40	248.29
745.73	248.10
746.06	247.81
746.39	247.55
746.71	247.30
747.04	247.01
747.37	246.73
747.70	246.49
748.03	246.19
748.36	245.97
748.68	245.75
749.01	245.52
749.34	245.31
749.67	245.10
750.00	244.87
750.33	244.69
750.65	244.46
750.98	244.13
751.31	243.90
751.64	243.74
751.97	243.59
752.29	243.37
752.62	243.08
752.95	242.85
753.28	242.60
753.60	242.39
753.93	242.23
754.26	242.03
754.59	241.78
754.91	241.57
755.24	241.39
755.57	241.18
755.90	240.98
756.22	240.78
756.55	240.56
756.88	240.35
757.20	240.13
757.53	239.95
757.86	239.80
758.19	239.64
758.51	239.47
758.84	239.22
759.17	239.09
759.49	238.97
759.82	238.89
760.15	238.79
760.47	238.62
760.80	238.47
761.13	238.33
761.45	238.23
761.78	238.10
762.11	237.92
762.43	237.83
762.76	237.70
763.08	237.59
763.41	237.47
763.74	237.35
764.06	237.23
764.39	237.09
764.71	236.97
765.04	236.84
765.37	236.70
765.69	236.61
766.02	236.47
766.34	236.32
766.67	236.21
767.00	236.11
767.32	236.07
767.65	236.03
767.97	235.92
768.30	235.84
768.62	235.73
768.95	235.64
769.27	235.51
769.60	235.43
769.92	235.30
770.25	235.21
770.57	235.13
770.90	235.04
771.22	234.97
771.55	234.89
771.87	234.84
772.20	234.75
772.52	234.74
772.85	234.81
773.17	234.71
773.50	234.57
773.82	234.44
774.15	234.32
774.47	234.17
774.80	234.06
775.12	233.99
775.45	233.90
775.77	233.83
776.09	233.77
776.42	233.68
776.74	233.64
777.07	233.54
777.39	233.44
777.72	233.33
778.04	233.23
778.36	233.13
778.69	233.04
779.01	232.96
779.33	232.81
779.66	232.57
779.98	232.50
780.31	232.48
780.63	232.50
780.95	232.44
781.28	232.39
781.60	232.33
781.92	232.21
782.25	232.14
782.57	232.10
782.89	232.00
783.22	231.93
783.54	231.83
783.86	231.81
784.19	231.72
784.51	231.70
784.83	231.64
785.16	231.60
785.48	231.54
785.80	231.46
786.12	231.40
786.45	231.36
786.77	231.33
787.09	231.26
787.42	231.13
787.74	231.06
788.06	231.00
788.38	230.91
788.71	230.86
789.03	230.86
789.35	230.78
789.67	230.76
789.99	230.72
790.32	230.66
790.64	230.62
790.96	230.70
791.28	230.65
791.61	230.60
791.93	230.56
792.25	230.51
792.57	230.55
792.89	230.48
793.21	230.46
793.54	230.43
793.86	230.36
794.18	230.34
794.50	230.31
794.82	230.26
795.14	230.26
795.47	230.27
795.79	230.17
796.11	230.13
796.43	230.08
796.75	230.06
797.07	230.03
797.39	229.96
797.71	229.82
798.04	229.76
798.36	229.73
798.68	229.67
799.00	229.64
799.32	229.57
799.64	229.59
799.96	229.54
800.28	229.51
800.60	229.50
800.92	229.45
801.24	229.39
801.56	229.37
801.89	229.33
802.21	229.32
802.53	229.28
802.85	229.26
803.17	229.23
803.49	229.17
803.81	229.14
804.13	229.13
804.45	229.10
804.77	229.07
805.09	229.04
805.41	229.00
805.73	228.95
806.05	228.91
806.37	228.85
806.69	228.82
807.01	228.76
807.33	228.74
807.65	228.67
807.97	228.68
808.28	228.64
808.60	228.62
808.92	228.58
809.24	228.63
809.56	228.61
809.88	228.60
810.20	228.57
810.52	228.52
810.84	228.48
811.16	228.45
811.48	228.42
811.80	228.44
812.12	228.45
812.43	228.47
812.75	228.45
813.07	228.43
813.39	228.43
813.71	228.41
814.03	228.40
814.35	228.41
814.67	228.39
814.98	228.36
815.30	228.36
815.62	228.29
815.94	228.23
816.26	228.27
816.58	228.26
816.89	228.26
817.21	228.28
817.53	228.28
817.85	228.27
818.17	228.27
818.48	228.23
818.80	228.21
819.12	228.14
819.44	228.11
819.76	228.09
820.07	228.10
820.39	228.12
820.71	228.10
821.03	228.09
821.34	228.07
821.66	228.10
821.98	228.07
822.30	228.09
822.61	228.12
822.93	228.06
823.25	228.02
823.57	228.00
823.88	228.00
824.20	227.98
824.52	227.97
824.83	227.98
825.15	227.98
825.47	227.97
825.79	227.98
826.10	227.96
826.42	227.94
826.74	227.93
827.05	227.84
827.37	227.78
827.69	227.78
828.00	227.76
828.32	227.69
828.64	227.68
828.95	227.71
829.27	227.66
829.58	227.64
829.90	227.67
830.22	227.67
830.53	227.64
830.85	227.62
831.17	227.62
831.48	227.58
831.80	227.53
832.11	227.54
832.43	227.51
832.75	227.49
833.06	227.55
833.38	227.49
833.69	227.51
834.01	227.53
834.32	227.50
834.64	227.49
834.96	227.48
835.27	227.44
835.59	227.40
835.90	227.35
836.22	227.30
836.53	227.25
836.85	227.21
837.16	227.26
837.48	227.25
837.79	227.25
838.11	227.23
838.42	227.22
838.74	227.18
839.05	227.12
839.37	227.11
839.68	227.01
840.00	226.99
840.31	227.00
840.63	226.96
840.94	226.91
841.26	226.89
841.57	226.88
841.88	226.90
842.20	226.87
842.51	226.86
842.83	226.89
843.14	226.97
843.46	226.94
843.77	226.90
844.08	226.86
844.40	226.84
844.71	226.82
845.03	226.80
845.34	226.81
845.65	226.84
845.97	226.86
846.28	226.86
846.60	226.86
846.91	226.81
847.22	226.83
847.54	226.84
847.85	226.82
848.16	226.81
848.48	226.78
848.79	226.82
849.10	226.83
849.42	226.85
849.73	226.75
850.04	226.76
850.36	226.71
850.67	226.72
850.98	226.71
851.30	226.74
851.61	226.75
851.92	226.74
852.23	226.77
852.55	226.74
852.86	226.76
853.17	226.78
853.49	226.84
853.80	226.88
854.11	226.92
854.42	226.97
854.74	226.98
855.05	227.00
855.36	226.97
855.67	227.01
855.99	227.00
856.30	227.13
856.61	227.15
856.92	227.16
857.23	227.18
857.55	227.20
857.86	227.19
858.17	227.24
858.48	227.25
858.79	227.22
859.11	227.27
859.42	227.24
859.73	227.22
860.04	227.20
860.35	227.18
860.66	227.16
860.98	227.15
861.29	227.16
861.60	227.15
861.91	227.17
862.22	227.15
862.53	227.13
862.84	227.03
863.16	227.05
863.47	227.06
863.78	227.02
864.09	227.00
864.40	227.00
864.71	227.00
865.02	226.99
865.33	226.97
865.64	226.95
865.95	226.97
866.27	227.02
866.58	227.03
866.89	227.04
867.20	227.02
867.51	227.03
867.82	227.01
868.13	227.03
868.44	227.04
868.75	227.04
869.06	227.05
869.37	227.07
869.68	227.02
869.99	227.01
870.30	227.07
870.61	227.11
870.92	227.09
871.23	227.06
871.54	227.07
871.85	227.12
872.16	227.09
872.47	227.09
872.78	227.05
873.09	227.04
873.40	227.02
873.71	227.01
874.02	226.98
874.33	226.97
874.64	226.96
874.95	226.94
875.26	226.93
875.56	226.92
875.87	226.89
876.18	226.90
876.49	226.99
876.80	226.92
877.11	226.88
877.42	226.90
877.73	226.92
878.04	226.89
878.35	226.86
878.66	226.88
878.96	226.87
879.27	226.88
879.58	226.86
879.89	226.82
880.20	226.85
880.51	226.81
880.82	226.80
881.12	226.80
881.43	226.78
881.74	226.77
882.05	226.76
882.36	226.75
882.67	226.75
882.97	226.62
883.28	226.63
883.59	226.62
883.90	226.60
884.21	226.56
884.51	226.55
884.82	226.53
885.13	226.53
885.44	226.51
885.74	226.50
886.05	226.51
886.36	226.50
886.67	226.48
886.98	226.55
887.28	226.55
887.59	226.53
887.90	226.54
888.20	226.52
888.51	226.54
888.82	226.53
889.13	226.52
889.43	226.62
889.74	226.60
890.05	226.58
890.35	226.58
890.66	226.57
890.97	226.56
891.28	226.57
891.58	226.57
891.89	226.59
892.20	226.59
892.50	226.60
892.81	226.61
893.12	226.60
893.42	226.53
893.73	226.53
894.04	226.53
894.34	226.52
894.65	226.51
894.95	226.47
895.26	226.51
895.57	226.55
895.87	226.49
896.18	226.51
896.48	226.56
896.79	226.56
897.10	226.58
897.40	226.60
897.71	226.61
898.01	226.56
898.32	226.55
898.63	226.56
898.93	226.54
899.24	226.55
899.54	226.56
899.85	226.58
900.15	226.62
900.46	226.62
900.76	226.63
901.07	226.64
901.38	226.65
901.68	226.61
901.99	226.62
902.29	226.61
902.60	226.60
902.90	226.56
903.21	226.57
903.51	226.56
903.82	226.56
904.12	226.57
904.43	226.60
904.73	226.61
905.03	226.60
905.34	226.69
905.64	226.68
905.95	226.67
906.25	226.67
906.56	226.64
906.86	226.65
907.17	226.66
907.47	226.67
907.77	226.65
908.08	226.66
908.38	226.64
908.69	226.64
908.99	226.65
909.30	226.67
909.60	226.63
909.90	226.64
910.21	226.60
910.51	226.59
910.81	226.56
911.12	226.54
911.42	226.52
911.73	226.40
912.03	226.40
912.33	226.38
912.64	226.38
912.94	226.37
913.24	226.35
913.55	226.33
913.85	226.31
914.15	226.32
914.46	226.28
914.76	226.25
915.06	226.23
915.37	226.21
915.67	226.19
915.97	226.20
916.27	226.17
916.58	226.22
916.88	226.21
917.18	226.20
917.49	226.25
917.79	226.26
918.09	226.27
918.39	226.25
918.70	226.27
919.00	226.26
919.30	226.26
919.60	226.24
919.91	226.20
920.21	226.19
920.51	226.19
920.81	226.21
921.12	226.25
921.42	226.21
921.72	226.22
922.02	226.18
922.32	226.21
922.63	226.21
922.93	226.24
923.23	226.24
923.53	226.25
923.83	226.19
924.13	226.18
924.44	226.16
924.74	226.21
925.04	226.23
925.34	226.20
925.64	226.17
925.94	226.15
926.24	226.22
926.55	226.19
926.85	226.19
927.15	226.19
927.45	226.21
927.75	226.25
928.05	226.24
928.35	226.28
928.65	226.31
928.95	226.34
929.26	226.31
929.56	226.30
929.86	226.34
930.16	226.35
930.46	226.32
930.76	226.36
931.06	226.30
931.36	226.26
931.66	226.33
931.96	226.36
932.26	226.39
932.56	226.37
932.86	226.43
933.16	226.43
933.46	226.43
933.76	226.36
934.06	226.41
934.36	226.46
934.66	226.45
934.96	226.42
935.26	226.42
935.56	226.41
935.86	226.42
936.16	226.41
936.46	226.41
936.76	226.46
937.06	226.45
937.36	226.48
937.66	226.53
937.96	226.50
938.26	226.50
938.56	226.48
938.86	226.50
939.16	226.51
939.46	226.54
939.76	226.56
940.06	226.61
940.35	226.57
940.65	226.53
940.95	226.53
941.25	226.52
941.55	226.53
941.85	226.55
942.15	226.58
942.45	226.58
942.75	226.57
943.04	226.55
943.34	226.62
943.64	226.61
943.94	226.59
944.24	226.59
944.54	226.59
944.84	226.62
945.13	226.60
945.43	226.56
945.73	226.52
946.03	226.52
946.33	226.49
946.62	226.47
946.92	226.46
947.22	226.47
947.52	226.46
947.82	226.44
948.11	226.42
948.41	226.42
948.71	226.39
949.01	226.39
949.31	226.38
949.60	226.34
949.90	226.35
950.20	226.35
950.50	226.32
950.79	226.31
951.09	226.29
951.39	226.27
951.69	226.26
951.98	226.29
952.28	226.28
952.58	226.27
952.87	226.27
953.17	226.28
953.47	226.26
953.76	226.26
954.06	226.23
954.36	226.21
954.66	226.17
954.95	226.19
955.25	226.21
955.55	226.20
955.84	226.16
956.14	226.13
956.44	226.12
956.73	226.14
957.03	226.12
957.32	226.14
957.62	226.13
957.92	226.13
958.21	226.09
958.51	226.19
958.81	226.19
959.10	226.19
959.40	226.18
959.69	226.16
959.99	226.18
960.29	226.18
960.58	226.17
960.88	226.22
961.17	226.21
961.47	226.19
961.76	226.19
962.06	226.21
962.36	226.18
962.65	226.19
962.95	226.19
963.24	226.20
963.54	226.22
963.83	226.24
964.13	226.25
964.42	226.24
964.72	226.17
965.01	226.19
965.31	226.20
965.60	226.20
965.90	226.28
966.19	226.28
966.49	226.31
966.78	226.29
967.08	226.29
967.37	226.30
967.67	226.31
967.96	226.32
968.26	226.31
968.55	226.37
968.85	226.38
969.14	226.36
969.43	226.37
969.73	226.37
970.02	226.34
970.32	226.36
970.61	226.38
970.91	226.35
971.20	226.35
971.49	226.33
971.79	226.36
972.08	226.31
972.38	226.32
972.67	226.32
972.96	226.37
973.26	226.35
973.55	226.39
973.85	226.39
974.14	226.42
974.43	226.46
974.73	226.47
975.02	226.48
975.31	226.50
975.61	226.50
975.90	226.49
976.19	226.48
976.49	226.46
976.78	226.48
977.07	226.52
977.37	226.54
977.66	226.56
977.95	226.56
978.24	226.57
978.54	226.56
978.83	226.56
979.12	226.56
979.42	226.57
979.71	226.54
980.00	226.54
980.29	226.53
980.59	226.52
980.88	226.53
981.17	226.49
981.46	226.49
981.76	226.49
982.05	226.52
982.34	226.55
982.63	226.56
982.93	226.54
983.22	226.54
983.51	226.51
983.80	226.52
984.09	226.49
984.39	226.46
984.68	226.46
984.97	226.45
985.26	226.41
985.55	226.41
985.85	226.37
986.14	226.36
986.43	226.34
986.72	226.32
987.01	226.27
987.30	226.26
987.59	226.25
987.89	226.21
988.18	226.14
988.47	226.11
988.76	226.07
989.05	226.02
989.34	225.99
989.63	226.04
989.92	226.02
990.22	226.00
990.51	226.02
990.80	225.98
991.09	225.98
991.38	225.98
991.67	225.95
991.96	225.94
992.25	225.97
992.54	225.95
992.83	225.91
993.12	225.92
993.41	225.93
993.70	225.97
993.99	226.01
994.28	226.04
994.58	226.09
994.87	226.10
995.16	226.12
995.45	226.11
995.74	226.06
996.03	226.08
996.32	226.10
996.61	226.07
996.90	226.09
997.19	226.06
997.48	226.03
997.77	226.04
998.06	226.05
998.34	226.03
998.63	226.05
998.92	226.07
999.21	226.10
999.50	226.11
999.79	226.06
1000.08	226.07
1000.37	226.08
1000.66	226.05
1000.95	226.10
1001.24	226.12
1001.53	226.12
1001.82	226.13
1002.11	226.10
1002.40	226.10
1002.68	226.15
1002.97	226.21
1003.26	226.23
1003.55	226.24
1003.84	226.25
1004.13	226.30
1004.42	226.30
1004.71	226.32
1004.99	226.32
1005.28	226.31
1005.57	226.32
1005.86	226.32
1006.15	226.31
1006.44	226.27
1006.72	226.29
1007.01	226.27
1007.30	226.25
1007.59	226.24
1007.88	226.21
1008.17	226.23
1008.45	226.23
1008.74	226.18
1009.03	226.14
1009.32	226.13
1009.60	226.15
1009.89	226.13
1010.18	226.09
1010.47	226.09
1010.76	226.07
1011.04	226.09
1011.33	226.10
1011.62	226.11
1011.91	226.12
1012.19	226.15
1012.48	226.13
1012.77	226.12
1013.05	226.16
1013.34	226.17
1013.63	226.19
1013.92	226.20
1014.20	226.19
1014.49	226.17
1014.78	226.19
1015.06	226.19
1015.35	226.18
1015.64	226.17
1015.92	226.19
1016.21	226.16
1016.50	226.15
1016.78	226.15
1017.07	226.13
1017.36	226.11
1017.64	226.08
1017.93	226.06
1018.22	226.01
1018.50	226.02
1018.79	226.02
1019.08	225.95
1019.36	225.94
1019.65	225.94
1019.93	225.95
1020.22	225.94
1020.51	226.01
1020.79	225.98
1021.08	225.66
1021.36	225.79
1021.65	225.91
1021.94	225.57
1022.22	225.99
1022.51	226.19
1022.79	226.26
1023.08	225.60
1023.36	227.41
1023.65	225.82
>>>>>End Processed Spectral Data<<<<<
