SpectraSuite Data File
++++++++++++++++++++++++++++++++++++
Date: Fri Feb 01 16:59:40 EST 2013
User: group
Dark Spectrum Present: No
Reference Spectrum Present: No
Number of Sampled Component Spectra: 1
Spectrometers: USB2E7196
Integration Time (usec): 35000 (USB2E7196)
Spectra Averaged: 100 (USB2E7196)
Boxcar Smoothing: 10 (USB2E7196)
Correct for Electrical Dark: No (USB2E7196)
Strobe/Lamp Enabled: No (USB2E7196)
Correct for Detector Non-linearity: No (USB2E7196)
Correct for Stray Light: No (USB2E7196)
Number of Pixels in Processed Spectrum: 2048
>>>>>Begin Processed Spectral Data<<<<<
339.09	0.00
339.48	212.94
339.86	214.96
340.24	216.31
340.63	216.87
341.01	220.19
341.39	220.02
341.78	221.44
342.16	222.67
342.54	222.72
342.93	211.64
343.31	222.33
343.69	222.88
344.07	223.34
344.46	223.77
344.84	224.19
345.22	224.44
345.60	224.70
345.99	224.90
346.37	225.01
346.75	225.14
347.13	225.20
347.52	225.23
347.90	225.31
348.28	225.32
348.66	225.34
349.05	225.33
349.43	225.39
349.81	225.42
350.19	225.48
350.57	225.51
350.96	225.58
351.34	225.70
351.72	225.78
352.10	225.89
352.48	225.96
352.87	226.00
353.25	226.09
353.63	226.14
354.01	226.21
354.39	226.30
354.77	226.39
355.15	226.51
355.54	226.59
355.92	226.63
356.30	226.72
356.68	226.90
357.06	227.00
357.44	227.03
357.82	227.12
358.20	227.20
358.58	227.29
358.97	227.38
359.35	227.43
359.73	227.51
360.11	227.55
360.49	227.60
360.87	227.68
361.25	227.73
361.63	227.82
362.01	227.87
362.39	227.92
362.77	227.98
363.15	228.01
363.53	228.05
363.91	228.11
364.29	228.15
364.67	228.07
365.05	228.08
365.43	228.11
365.81	228.10
366.19	228.12
366.57	228.18
366.95	228.16
367.33	228.13
367.71	228.15
368.09	228.18
368.47	228.15
368.85	228.15
369.23	228.16
369.61	228.12
369.99	228.13
370.37	228.11
370.75	228.10
371.13	228.04
371.51	228.00
371.89	227.96
372.27	227.89
372.65	227.85
373.03	227.83
373.41	227.77
373.78	227.75
374.16	227.66
374.54	227.53
374.92	227.47
375.30	227.44
375.68	227.35
376.06	227.26
376.44	227.21
376.82	227.10
377.19	226.99
377.57	226.88
377.95	226.79
378.33	226.73
378.71	226.61
379.09	226.53
379.47	226.46
379.84	226.37
380.22	226.30
380.60	226.20
380.98	226.13
381.36	226.06
381.73	225.96
382.11	225.89
382.49	225.84
382.87	225.78
383.25	225.68
383.62	225.77
384.00	225.70
384.38	225.62
384.76	225.61
385.13	225.62
385.51	225.55
385.89	225.45
386.27	225.40
386.64	225.36
387.02	225.27
387.40	225.21
387.78	225.17
388.15	225.13
388.53	225.06
388.91	225.01
389.29	224.98
389.66	224.99
390.04	224.99
390.42	224.97
390.79	224.94
391.17	224.94
391.55	224.79
391.92	224.74
392.30	224.74
392.68	224.72
393.05	224.67
393.43	224.73
393.81	224.76
394.18	224.75
394.56	224.74
394.94	224.82
395.31	224.87
395.69	224.91
396.06	224.93
396.44	225.02
396.82	224.99
397.19	225.09
397.57	225.11
397.95	225.15
398.32	225.18
398.70	225.25
399.07	225.33
399.45	225.38
399.82	225.44
400.20	225.51
400.58	225.56
400.95	225.62
401.33	225.72
401.70	225.85
402.08	225.92
402.45	226.00
402.83	226.09
403.20	226.19
403.58	226.30
403.95	226.45
404.33	226.56
404.71	226.73
405.08	226.88
405.46	227.00
405.83	227.11
406.21	227.24
406.58	227.39
406.96	227.52
407.33	227.75
407.70	227.97
408.08	228.23
408.45	228.45
408.83	228.65
409.20	228.82
409.58	229.00
409.95	229.27
410.33	229.56
410.70	229.80
411.08	230.06
411.45	230.33
411.82	230.65
412.20	231.00
412.57	231.39
412.95	231.67
413.32	232.07
413.69	232.47
414.07	232.92
414.44	233.39
414.82	233.88
415.19	234.36
415.56	234.90
415.94	235.40
416.31	236.01
416.68	236.62
417.06	237.32
417.43	238.02
417.81	238.79
418.18	239.57
418.55	240.39
418.93	241.27
419.30	242.19
419.67	243.09
420.04	244.02
420.42	245.02
420.79	246.22
421.16	247.35
421.54	248.54
421.91	249.75
422.28	251.00
422.66	252.29
423.03	253.61
423.40	254.94
423.77	256.38
424.15	257.84
424.52	259.34
424.89	260.96
425.26	262.46
425.64	263.88
426.01	265.44
426.38	267.10
426.75	268.75
427.13	270.46
427.50	272.25
427.87	274.14
428.24	275.99
428.61	277.72
428.99	279.63
429.36	281.71
429.73	283.75
430.10	285.73
430.47	287.77
430.85	289.87
431.22	292.08
431.59	294.42
431.96	296.64
432.33	299.08
432.70	301.41
433.08	304.21
433.45	306.83
433.82	309.42
434.19	312.31
434.56	315.08
434.93	317.72
435.30	320.31
435.68	323.16
436.05	325.95
436.42	328.75
436.79	331.29
437.16	334.00
437.53	336.78
437.90	339.62
438.27	342.39
438.64	345.18
439.01	347.75
439.38	349.98
439.75	352.16
440.13	354.68
440.50	356.97
440.87	358.81
441.24	360.73
441.61	362.89
441.98	364.32
442.35	366.12
442.72	367.95
443.09	369.72
443.46	370.67
443.83	371.23
444.20	371.72
444.57	372.55
444.94	372.85
445.31	373.23
445.68	373.54
446.05	373.64
446.42	373.28
446.79	372.88
447.16	372.45
447.53	372.10
447.90	370.94
448.27	369.87
448.64	368.32
449.01	367.23
449.37	365.30
449.74	363.46
450.11	361.26
450.48	358.81
450.85	356.36
451.22	354.29
451.59	352.31
451.96	350.37
452.33	347.81
452.70	345.45
453.07	342.65
453.43	339.83
453.80	337.06
454.17	334.41
454.54	331.89
454.91	329.17
455.28	326.51
455.65	324.04
456.02	321.59
456.38	319.46
456.75	316.79
457.12	314.54
457.49	312.34
457.86	310.18
458.23	308.39
458.59	306.34
458.96	304.25
459.33	302.42
459.70	300.56
460.07	299.06
460.43	297.34
460.80	295.71
461.17	294.26
461.54	292.74
461.91	291.37
462.27	289.94
462.64	288.66
463.01	287.32
463.38	286.02
463.74	284.70
464.11	283.52
464.48	282.51
464.85	281.41
465.21	280.54
465.58	279.65
465.95	278.55
466.32	277.67
466.68	276.79
467.05	275.92
467.42	275.05
467.78	274.09
468.15	273.26
468.52	272.60
468.88	271.75
469.25	271.01
469.62	270.37
469.98	269.68
470.35	269.09
470.72	268.53
471.08	267.91
471.45	267.38
471.82	266.89
472.18	266.30
472.55	265.90
472.92	265.38
473.28	264.93
473.65	264.50
474.02	264.06
474.38	263.74
474.75	263.39
475.11	263.06
475.48	262.85
475.85	262.58
476.21	262.41
476.58	262.22
476.94	262.08
477.31	261.93
477.67	261.83
478.04	261.74
478.41	261.70
478.77	261.73
479.14	261.70
479.50	261.72
479.87	261.82
480.23	261.92
480.60	262.00
480.96	262.08
481.33	262.32
481.69	262.53
482.06	262.73
482.42	262.98
482.79	263.27
483.15	263.63
483.52	264.03
483.88	264.37
484.25	264.80
484.61	265.22
484.98	265.72
485.34	266.27
485.71	266.87
486.07	267.47
486.44	268.06
486.80	268.73
487.17	269.42
487.53	270.20
487.90	271.03
488.26	271.99
488.62	272.97
488.99	273.90
489.35	274.94
489.72	276.06
490.08	277.26
490.44	278.51
490.81	279.81
491.17	281.20
491.54	282.67
491.90	284.16
492.26	285.81
492.63	287.48
492.99	289.24
493.36	291.13
493.72	293.22
494.08	295.33
494.45	297.58
494.81	300.00
495.17	302.44
495.54	305.01
495.90	307.68
496.26	310.50
496.63	313.48
496.99	316.54
497.35	319.75
497.72	323.11
498.08	326.59
498.44	330.25
498.80	334.09
499.17	338.14
499.53	342.29
499.89	346.62
500.26	351.10
500.62	355.77
500.98	360.69
501.34	365.68
501.71	370.98
502.07	376.34
502.43	381.89
502.79	387.68
503.16	393.73
503.52	399.98
503.88	406.28
504.24	412.86
504.60	419.76
504.97	426.88
505.33	434.11
505.69	441.73
506.05	449.40
506.41	457.24
506.78	465.31
507.14	473.70
507.50	482.29
507.86	491.23
508.22	500.30
508.59	509.41
508.95	518.91
509.31	528.57
509.67	538.59
510.03	548.73
510.39	559.13
510.75	569.70
511.12	580.41
511.48	591.54
511.84	602.93
512.20	614.27
512.56	625.98
512.92	638.00
513.28	650.21
513.64	662.54
514.00	675.09
514.37	687.84
514.73	700.76
515.09	713.66
515.45	726.70
515.81	740.07
516.17	753.85
516.53	767.72
516.89	781.73
517.25	795.68
517.61	809.96
517.97	824.22
518.33	838.42
518.69	853.05
519.05	867.73
519.41	882.50
519.77	897.75
520.13	912.91
520.49	928.01
520.85	943.11
521.21	958.64
521.57	974.59
521.93	989.97
522.29	1005.99
522.65	1022.13
523.01	1038.15
523.37	1053.90
523.73	1069.72
524.09	1085.50
524.45	1101.49
524.81	1117.85
525.17	1134.24
525.53	1150.88
525.89	1167.48
526.25	1183.98
526.61	1200.14
526.97	1216.61
527.33	1232.79
527.68	1249.07
528.04	1265.24
528.40	1281.48
528.76	1298.07
529.12	1314.28
529.48	1330.90
529.84	1346.57
530.20	1362.79
530.56	1379.29
530.91	1396.36
531.27	1412.80
531.63	1428.98
531.99	1445.17
532.35	1460.83
532.71	1476.38
533.07	1492.15
533.42	1507.67
533.78	1523.38
534.14	1539.30
534.50	1554.36
534.86	1569.96
535.21	1584.90
535.57	1600.49
535.93	1615.68
536.29	1630.11
536.65	1644.78
537.00	1659.25
537.36	1674.37
537.72	1688.44
538.08	1702.69
538.44	1716.17
538.79	1729.85
539.15	1743.15
539.51	1756.59
539.87	1770.59
540.22	1783.99
540.58	1797.57
540.94	1810.55
541.29	1823.14
541.65	1835.59
542.01	1848.47
542.37	1860.49
542.72	1872.61
543.08	1884.22
543.44	1896.23
543.79	1907.38
544.15	1918.17
544.51	1929.57
544.87	1940.13
545.22	1950.83
545.58	1960.84
545.94	1970.50
546.29	1980.03
546.65	1989.74
547.01	1998.82
547.36	2007.29
547.72	2015.74
548.07	2023.36
548.43	2031.50
548.79	2039.46
549.14	2046.80
549.50	2054.01
549.86	2061.44
550.21	2068.64
550.57	2075.78
550.92	2082.49
551.28	2089.28
551.64	2096.35
551.99	2102.72
552.35	2108.89
552.70	2115.00
553.06	2120.87
553.41	2127.17
553.77	2133.25
554.13	2139.40
554.48	2145.57
554.84	2151.31
555.19	2156.54
555.55	2161.84
555.90	2166.37
556.26	2171.19
556.61	2175.95
556.97	2180.45
557.32	2184.71
557.68	2188.92
558.03	2193.06
558.39	2196.72
558.74	2201.54
559.10	2205.50
559.45	2209.34
559.81	2213.62
560.16	2217.47
560.52	2220.97
560.87	2224.55
561.23	2227.23
561.58	2230.18
561.94	2232.75
562.29	2235.06
562.64	2237.96
563.00	2240.50
563.35	2244.05
563.71	2247.16
564.06	2250.48
564.42	2253.31
564.77	2255.98
565.12	2258.41
565.48	2260.62
565.83	2262.64
566.19	2264.16
566.54	2265.08
566.89	2266.31
567.25	2267.22
567.60	2268.69
567.96	2270.44
568.31	2271.28
568.66	2272.68
569.02	2273.47
569.37	2273.94
569.72	2274.95
570.08	2275.13
570.43	2275.33
570.78	2274.98
571.14	2273.79
571.49	2272.64
571.84	2272.43
572.20	2271.53
572.55	2270.64
572.90	2269.03
573.26	2267.89
573.61	2266.20
573.96	2264.82
574.31	2261.96
574.67	2259.24
575.02	2255.67
575.37	2252.44
575.72	2248.91
576.08	2245.50
576.43	2242.30
576.78	2238.92
577.13	2235.77
577.49	2232.80
577.84	2229.59
578.19	2226.08
578.54	2222.76
578.90	2218.79
579.25	2213.47
579.60	2208.70
579.95	2204.01
580.30	2199.36
580.66	2194.38
581.01	2189.57
581.36	2184.91
581.71	2181.01
582.06	2176.74
582.42	2172.57
582.77	2167.56
583.12	2163.20
583.47	2158.96
583.82	2154.33
584.17	2149.23
584.53	2143.99
584.88	2138.64
585.23	2133.12
585.58	2127.71
585.93	2122.28
586.28	2117.69
586.63	2112.90
586.98	2108.09
587.34	2103.52
587.69	2098.82
588.04	2093.86
588.39	2088.52
588.74	2082.09
589.09	2076.26
589.44	2069.59
589.79	2063.71
590.14	2058.29
590.49	2051.91
590.84	2045.63
591.19	2039.62
591.54	2033.46
591.89	2026.57
592.25	2020.03
592.60	2013.07
592.95	2005.73
593.30	1998.70
593.65	1991.21
594.00	1984.30
594.35	1977.24
594.70	1969.31
595.05	1962.47
595.40	1955.11
595.75	1947.75
596.10	1941.76
596.45	1935.06
596.80	1929.13
597.15	1922.69
597.50	1915.79
597.85	1909.38
598.19	1902.83
598.54	1895.95
598.89	1889.40
599.24	1883.47
599.59	1876.93
599.94	1870.74
600.29	1864.67
600.64	1858.15
600.99	1851.01
601.34	1844.29
601.69	1837.30
602.04	1830.61
602.39	1823.20
602.74	1816.63
603.08	1809.87
603.43	1803.25
603.78	1795.92
604.13	1788.84
604.48	1781.79
604.83	1775.03
605.18	1768.35
605.53	1760.54
605.87	1752.69
606.22	1745.56
606.57	1737.61
606.92	1730.38
607.27	1723.36
607.62	1716.56
607.96	1709.46
608.31	1702.92
608.66	1695.49
609.01	1688.23
609.36	1680.69
609.70	1672.77
610.05	1664.77
610.40	1657.34
610.75	1649.19
611.10	1641.76
611.44	1633.38
611.79	1625.41
612.14	1616.88
612.49	1607.69
612.83	1599.25
613.18	1591.12
613.53	1583.12
613.88	1574.71
614.22	1566.56
614.57	1558.03
614.92	1550.01
615.27	1542.53
615.61	1534.33
615.96	1526.25
616.31	1518.50
616.65	1511.21
617.00	1503.74
617.35	1496.17
617.70	1487.95
618.04	1479.37
618.39	1471.20
618.74	1463.54
619.08	1455.28
619.43	1447.65
619.78	1440.85
620.12	1433.89
620.47	1426.45
620.82	1418.27
621.16	1410.89
621.51	1403.16
621.85	1395.56
622.20	1386.95
622.55	1378.46
622.89	1370.63
623.24	1362.97
623.59	1355.57
623.93	1348.01
624.28	1340.81
624.62	1333.38
624.97	1326.24
625.32	1319.51
625.66	1312.49
626.01	1305.48
626.35	1298.06
626.70	1290.28
627.04	1282.52
627.39	1274.68
627.73	1267.16
628.08	1260.28
628.43	1253.10
628.77	1245.91
629.12	1238.35
629.46	1231.31
629.81	1224.00
630.15	1216.76
630.50	1209.51
630.84	1201.41
631.19	1193.56
631.53	1186.02
631.88	1178.46
632.22	1170.82
632.57	1163.50
632.91	1155.90
633.26	1148.48
633.60	1141.08
633.95	1134.03
634.29	1126.94
634.64	1120.32
634.98	1113.06
635.32	1105.95
635.67	1099.26
636.01	1092.58
636.36	1085.84
636.70	1079.26
637.05	1072.70
637.39	1066.18
637.73	1059.70
638.08	1053.82
638.42	1047.82
638.77	1041.46
639.11	1034.94
639.45	1028.60
639.80	1021.94
640.14	1015.68
640.49	1009.20
640.83	1002.93
641.17	996.74
641.52	990.56
641.86	984.04
642.20	978.22
642.55	971.92
642.89	965.53
643.23	958.99
643.58	953.24
643.92	947.16
644.26	941.10
644.61	935.13
644.95	929.24
645.29	922.73
645.64	916.11
645.98	909.83
646.32	903.88
646.66	897.89
647.01	892.21
647.35	886.46
647.69	880.58
648.04	875.05
648.38	869.28
648.72	863.30
649.06	857.37
649.41	851.53
649.75	845.58
650.09	839.72
650.43	833.95
650.78	827.88
651.12	821.99
651.46	816.28
651.80	810.63
652.14	805.18
652.49	799.81
652.83	794.67
653.17	788.99
653.51	783.38
653.85	777.97
654.20	772.30
654.54	766.31
654.88	760.62
655.22	754.77
655.56	749.13
655.90	743.67
656.25	738.49
656.59	733.12
656.93	728.03
657.27	722.88
657.61	717.48
657.95	712.42
658.29	707.31
658.64	702.09
658.98	696.74
659.32	691.29
659.66	686.07
660.00	680.74
660.34	675.82
660.68	670.88
661.02	665.85
661.36	661.17
661.70	656.71
662.05	652.35
662.39	648.11
662.73	643.66
663.07	639.30
663.41	634.77
663.75	630.32
664.09	625.89
664.43	621.39
664.77	617.31
665.11	612.98
665.45	608.83
665.79	604.79
666.13	600.64
666.47	596.59
666.81	592.45
667.15	588.36
667.49	584.47
667.83	580.69
668.17	576.79
668.51	572.81
668.85	568.82
669.19	565.01
669.53	561.10
669.87	557.24
670.21	553.57
670.55	549.88
670.89	546.44
671.23	542.92
671.57	539.47
671.91	535.92
672.25	532.44
672.58	528.93
672.92	525.48
673.26	522.33
673.60	519.15
673.94	516.07
674.28	513.12
674.62	510.11
674.96	507.01
675.30	504.10
675.64	501.14
675.97	498.34
676.31	495.47
676.65	492.60
676.99	489.87
677.33	487.00
677.67	484.27
678.01	481.22
678.34	478.29
678.68	475.42
679.02	472.61
679.36	469.82
679.70	467.19
680.04	464.50
680.37	461.62
680.71	458.81
681.05	456.24
681.39	453.53
681.73	450.92
682.06	448.39
682.40	445.83
682.74	443.38
683.08	440.87
683.42	438.31
683.75	435.81
684.09	433.23
684.43	430.80
684.77	428.35
685.10	426.03
685.44	423.75
685.78	421.49
686.12	419.28
686.45	417.04
686.79	414.74
687.13	412.49
687.46	410.35
687.80	408.28
688.14	406.08
688.48	404.03
688.81	401.80
689.15	399.67
689.49	397.57
689.82	395.46
690.16	393.34
690.50	391.40
690.83	389.42
691.17	387.50
691.51	385.61
691.84	383.74
692.18	381.82
692.52	379.84
692.85	377.91
693.19	376.03
693.52	374.15
693.86	372.31
694.20	370.58
694.53	368.76
694.87	366.90
695.21	365.10
695.54	363.27
695.88	361.52
696.21	359.79
696.55	358.09
696.88	356.39
697.22	354.71
697.56	353.05
697.89	351.40
698.23	349.83
698.56	348.17
698.90	346.63
699.23	344.98
699.57	343.46
699.90	341.92
700.24	340.38
700.58	338.91
700.91	337.44
701.25	335.98
701.58	334.66
701.92	333.25
702.25	331.88
702.59	330.56
702.92	329.26
703.26	327.95
703.59	326.66
703.93	325.47
704.26	324.25
704.60	322.95
704.93	321.66
705.26	320.33
705.60	319.11
705.93	317.92
706.27	316.90
706.60	315.80
706.94	314.75
707.27	313.60
707.61	312.51
707.94	311.45
708.27	310.34
708.61	309.26
708.94	308.29
709.28	307.27
709.61	306.31
709.94	305.37
710.28	304.35
710.61	303.33
710.95	302.24
711.28	301.30
711.61	300.37
711.95	299.47
712.28	298.55
712.61	297.62
712.95	296.68
713.28	295.78
713.61	294.91
713.95	293.99
714.28	293.15
714.61	292.28
714.95	291.44
715.28	290.57
715.61	289.68
715.95	288.79
716.28	287.94
716.61	287.05
716.95	286.22
717.28	285.50
717.61	284.76
717.94	284.04
718.28	283.24
718.61	282.53
718.94	281.83
719.27	281.18
719.61	280.56
719.94	279.90
720.27	279.20
720.60	278.52
720.94	277.91
721.27	277.35
721.60	276.73
721.93	276.10
722.27	275.56
722.60	275.00
722.93	274.45
723.26	273.90
723.59	273.38
723.93	272.85
724.26	272.25
724.59	271.66
724.92	271.14
725.25	270.66
725.59	270.13
725.92	269.63
726.25	269.10
726.58	268.56
726.91	268.07
727.24	267.58
727.57	267.09
727.91	266.54
728.24	266.07
728.57	265.63
728.90	265.19
729.23	264.68
729.56	264.26
729.89	263.79
730.22	263.31
730.55	262.85
730.89	262.39
731.22	261.97
731.55	261.54
731.88	261.12
732.21	260.70
732.54	260.25
732.87	259.85
733.20	259.45
733.53	259.09
733.86	258.71
734.19	258.32
734.52	257.95
734.85	257.67
735.18	257.24
735.51	256.86
735.84	256.50
736.17	256.20
736.50	255.78
736.83	255.55
737.16	255.24
737.49	254.91
737.82	254.57
738.15	254.23
738.48	253.91
738.81	253.57
739.14	253.27
739.47	252.93
739.80	252.60
740.13	252.30
740.46	251.94
740.79	251.67
741.12	251.34
741.45	250.99
741.78	250.61
742.11	250.31
742.44	250.02
742.77	249.73
743.10	249.39
743.43	249.11
743.75	248.75
744.08	248.59
744.41	248.28
744.74	248.00
745.07	247.73
745.40	247.50
745.73	247.29
746.06	246.97
746.39	246.74
746.71	246.47
747.04	246.17
747.37	245.93
747.70	245.64
748.03	245.42
748.36	245.24
748.68	245.00
749.01	244.79
749.34	244.54
749.67	244.29
750.00	244.05
750.33	243.91
750.65	243.66
750.98	243.30
751.31	243.10
751.64	242.88
751.97	242.72
752.29	242.49
752.62	242.20
752.95	242.00
753.28	241.77
753.60	241.55
753.93	241.36
754.26	241.20
754.59	240.97
754.91	240.72
755.24	240.47
755.57	240.28
755.90	240.05
756.22	239.86
756.55	239.66
756.88	239.50
757.20	239.25
757.53	239.07
757.86	238.92
758.19	238.75
758.51	238.58
758.84	238.35
759.17	238.15
759.49	238.00
759.82	237.87
760.15	237.73
760.47	237.60
760.80	237.44
761.13	237.26
761.45	237.09
761.78	236.98
762.11	236.85
762.43	236.70
762.76	236.59
763.08	236.51
763.41	236.39
763.74	236.23
764.06	236.07
764.39	235.91
764.71	235.79
765.04	235.68
765.37	235.55
765.69	235.42
766.02	235.32
766.34	235.23
766.67	235.08
767.00	234.98
767.32	234.92
767.65	234.88
767.97	234.81
768.30	234.70
768.62	234.59
768.95	234.45
769.27	234.35
769.60	234.23
769.92	234.08
770.25	233.96
770.57	233.86
770.90	233.77
771.22	233.67
771.55	233.54
771.87	233.44
772.20	233.35
772.52	233.37
772.85	233.40
773.17	233.29
773.50	233.19
773.82	233.08
774.15	232.96
774.47	232.79
774.80	232.70
775.12	232.64
775.45	232.55
775.77	232.53
776.09	232.49
776.42	232.42
776.74	232.38
777.07	232.30
777.39	232.24
777.72	232.16
778.04	232.12
778.36	232.07
778.69	231.99
779.01	231.94
779.33	231.78
779.66	231.60
779.98	231.56
780.31	231.49
780.63	231.49
780.95	231.46
781.28	231.40
781.60	231.34
781.92	231.28
782.25	231.22
782.57	231.11
782.89	231.02
783.22	230.97
783.54	230.85
783.86	230.81
784.19	230.70
784.51	230.70
784.83	230.63
785.16	230.53
785.48	230.50
785.80	230.42
786.12	230.35
786.45	230.30
786.77	230.20
787.09	230.17
787.42	230.06
787.74	229.98
788.06	229.93
788.38	229.90
788.71	229.82
789.03	229.78
789.35	229.77
789.67	229.69
789.99	229.66
790.32	229.64
790.64	229.59
790.96	229.63
791.28	229.55
791.61	229.51
791.93	229.48
792.25	229.42
792.57	229.44
792.89	229.39
793.21	229.33
793.54	229.28
793.86	229.22
794.18	229.18
794.50	229.12
794.82	229.10
795.14	229.03
795.47	229.02
795.79	228.95
796.11	228.85
796.43	228.85
796.75	228.82
797.07	228.78
797.39	228.73
797.71	228.63
798.04	228.58
798.36	228.52
798.68	228.51
799.00	228.46
799.32	228.37
799.64	228.37
799.96	228.36
800.28	228.33
800.60	228.30
800.92	228.26
801.24	228.21
801.56	228.18
801.89	228.11
802.21	228.09
802.53	228.06
802.85	228.09
803.17	228.05
803.49	227.98
803.81	227.95
804.13	227.91
804.45	227.90
804.77	227.88
805.09	227.87
805.41	227.82
805.73	227.80
806.05	227.78
806.37	227.77
806.69	227.72
807.01	227.69
807.33	227.66
807.65	227.59
807.97	227.60
808.28	227.55
808.60	227.57
808.92	227.52
809.24	227.54
809.56	227.48
809.88	227.45
810.20	227.45
810.52	227.43
810.84	227.42
811.16	227.35
811.48	227.32
811.80	227.32
812.12	227.29
812.43	227.28
812.75	227.28
813.07	227.21
813.39	227.20
813.71	227.18
814.03	227.18
814.35	227.19
814.67	227.16
814.98	227.17
815.30	227.15
815.62	227.14
815.94	227.06
816.26	227.10
816.58	227.07
816.89	227.02
817.21	227.02
817.53	226.97
817.85	226.99
818.17	226.98
818.48	226.93
818.80	226.92
819.12	226.90
819.44	226.87
819.76	226.87
820.07	226.85
820.39	226.79
820.71	226.81
821.03	226.78
821.34	226.77
821.66	226.74
821.98	226.73
822.30	226.72
822.61	226.81
822.93	226.76
823.25	226.75
823.57	226.73
823.88	226.73
824.20	226.74
824.52	226.72
824.83	226.69
825.15	226.70
825.47	226.72
825.79	226.74
826.10	226.68
826.42	226.66
826.74	226.67
827.05	226.70
827.37	226.67
827.69	226.68
828.00	226.67
828.32	226.64
828.64	226.64
828.95	226.68
829.27	226.64
829.58	226.62
829.90	226.66
830.22	226.68
830.53	226.64
830.85	226.64
831.17	226.61
831.48	226.61
831.80	226.61
832.11	226.59
832.43	226.53
832.75	226.57
833.06	226.61
833.38	226.57
833.69	226.57
834.01	226.55
834.32	226.55
834.64	226.53
834.96	226.54
835.27	226.53
835.59	226.50
835.90	226.46
836.22	226.45
836.53	226.39
836.85	226.36
837.16	226.45
837.48	226.44
837.79	226.45
838.11	226.46
838.42	226.44
838.74	226.44
839.05	226.41
839.37	226.38
839.68	226.34
840.00	226.30
840.31	226.28
840.63	226.28
840.94	226.27
841.26	226.24
841.57	226.22
841.88	226.21
842.20	226.18
842.51	226.17
842.83	226.15
843.14	226.22
843.46	226.20
843.77	226.15
844.08	226.14
844.40	226.10
844.71	226.06
845.03	226.02
845.34	226.02
845.65	226.03
845.97	226.02
846.28	225.99
846.60	226.01
846.91	226.00
847.22	225.99
847.54	226.00
847.85	226.04
848.16	226.02
848.48	226.01
848.79	226.05
849.10	226.06
849.42	226.04
849.73	225.97
850.04	225.98
850.36	225.91
850.67	225.92
850.98	225.95
851.30	225.98
851.61	225.98
851.92	225.96
852.23	225.98
852.55	225.99
852.86	226.03
853.17	226.08
853.49	226.08
853.80	226.08
854.11	226.08
854.42	226.08
854.74	226.12
855.05	226.12
855.36	226.08
855.67	226.06
855.99	226.08
856.30	226.21
856.61	226.20
856.92	226.22
857.23	226.20
857.55	226.19
857.86	226.18
858.17	226.18
858.48	226.19
858.79	226.21
859.11	226.21
859.42	226.18
859.73	226.14
860.04	226.18
860.35	226.16
860.66	226.12
860.98	226.11
861.29	226.09
861.60	226.06
861.91	226.06
862.22	226.01
862.53	226.01
862.84	225.90
863.16	225.88
863.47	225.86
863.78	225.85
864.09	225.88
864.40	225.90
864.71	225.92
865.02	225.90
865.33	225.87
865.64	225.83
865.95	225.86
866.27	225.91
866.58	225.86
866.89	225.84
867.20	225.85
867.51	225.82
867.82	225.80
868.13	225.84
868.44	225.84
868.75	225.91
869.06	225.93
869.37	225.91
869.68	225.95
869.99	225.96
870.30	225.99
870.61	225.96
870.92	225.94
871.23	225.92
871.54	225.94
871.85	225.93
872.16	225.95
872.47	225.91
872.78	225.87
873.09	225.86
873.40	225.88
873.71	225.87
874.02	225.88
874.33	225.87
874.64	225.86
874.95	225.87
875.26	225.82
875.56	225.78
875.87	225.78
876.18	225.73
876.49	225.83
876.80	225.78
877.11	225.77
877.42	225.76
877.73	225.76
878.04	225.72
878.35	225.74
878.66	225.74
878.96	225.72
879.27	225.72
879.58	225.72
879.89	225.70
880.20	225.72
880.51	225.72
880.82	225.71
881.12	225.71
881.43	225.66
881.74	225.64
882.05	225.65
882.36	225.68
882.67	225.71
882.97	225.58
883.28	225.60
883.59	225.60
883.90	225.60
884.21	225.63
884.51	225.67
884.82	225.65
885.13	225.65
885.44	225.65
885.74	225.62
886.05	225.60
886.36	225.60
886.67	225.56
886.98	225.60
887.28	225.59
887.59	225.57
887.90	225.56
888.20	225.56
888.51	225.60
888.82	225.55
889.13	225.53
889.43	225.64
889.74	225.63
890.05	225.65
890.35	225.64
890.66	225.61
890.97	225.60
891.28	225.58
891.58	225.55
891.89	225.56
892.20	225.59
892.50	225.62
892.81	225.63
893.12	225.65
893.42	225.63
893.73	225.65
894.04	225.65
894.34	225.68
894.65	225.71
894.95	225.67
895.26	225.67
895.57	225.72
895.87	225.61
896.18	225.61
896.48	225.62
896.79	225.63
897.10	225.65
897.40	225.62
897.71	225.65
898.01	225.64
898.32	225.66
898.63	225.66
898.93	225.65
899.24	225.61
899.54	225.61
899.85	225.63
900.15	225.60
900.46	225.63
900.76	225.63
901.07	225.58
901.38	225.59
901.68	225.61
901.99	225.54
902.29	225.54
902.60	225.51
902.90	225.50
903.21	225.48
903.51	225.44
903.82	225.49
904.12	225.49
904.43	225.51
904.73	225.50
905.03	225.48
905.34	225.55
905.64	225.59
905.95	225.58
906.25	225.53
906.56	225.54
906.86	225.52
907.17	225.52
907.47	225.56
907.77	225.52
908.08	225.48
908.38	225.51
908.69	225.52
908.99	225.50
909.30	225.51
909.60	225.52
909.90	225.53
910.21	225.46
910.51	225.43
910.81	225.40
911.12	225.39
911.42	225.37
911.73	225.27
912.03	225.26
912.33	225.27
912.64	225.24
912.94	225.25
913.24	225.22
913.55	225.18
913.85	225.17
914.15	225.19
914.46	225.24
914.76	225.24
915.06	225.21
915.37	225.24
915.67	225.20
915.97	225.16
916.27	225.13
916.58	225.14
916.88	225.16
917.18	225.14
917.49	225.20
917.79	225.23
918.09	225.22
918.39	225.22
918.70	225.21
919.00	225.22
919.30	225.23
919.60	225.24
919.91	225.24
920.21	225.23
920.51	225.19
920.81	225.15
921.12	225.15
921.42	225.14
921.72	225.13
922.02	225.17
922.32	225.19
922.63	225.21
922.93	225.24
923.23	225.20
923.53	225.22
923.83	225.17
924.13	225.17
924.44	225.18
924.74	225.19
925.04	225.20
925.34	225.18
925.64	225.17
925.94	225.17
926.24	225.24
926.55	225.25
926.85	225.27
927.15	225.29
927.45	225.30
927.75	225.33
928.05	225.33
928.35	225.30
928.65	225.35
928.95	225.36
929.26	225.38
929.56	225.41
929.86	225.40
930.16	225.42
930.46	225.41
930.76	225.43
931.06	225.40
931.36	225.41
931.66	225.48
931.96	225.50
932.26	225.49
932.56	225.47
932.86	225.48
933.16	225.48
933.46	225.48
933.76	225.48
934.06	225.50
934.36	225.56
934.66	225.57
934.96	225.55
935.26	225.56
935.56	225.55
935.86	225.56
936.16	225.57
936.46	225.53
936.76	225.54
937.06	225.52
937.36	225.56
937.66	225.59
937.96	225.56
938.26	225.52
938.56	225.53
938.86	225.54
939.16	225.56
939.46	225.58
939.76	225.57
940.06	225.56
940.35	225.57
940.65	225.54
940.95	225.54
941.25	225.52
941.55	225.51
941.85	225.52
942.15	225.50
942.45	225.55
942.75	225.57
943.04	225.56
943.34	225.57
943.64	225.55
943.94	225.52
944.24	225.52
944.54	225.52
944.84	225.53
945.13	225.51
945.43	225.51
945.73	225.48
946.03	225.45
946.33	225.44
946.62	225.38
946.92	225.39
947.22	225.41
947.52	225.41
947.82	225.40
948.11	225.38
948.41	225.37
948.71	225.31
949.01	225.31
949.31	225.29
949.60	225.28
949.90	225.32
950.20	225.29
950.50	225.29
950.79	225.28
951.09	225.29
951.39	225.27
951.69	225.24
951.98	225.28
952.28	225.26
952.58	225.27
952.87	225.28
953.17	225.27
953.47	225.24
953.76	225.20
954.06	225.17
954.36	225.12
954.66	225.10
954.95	225.13
955.25	225.11
955.55	225.09
955.84	225.04
956.14	225.03
956.44	225.03
956.73	225.01
957.03	225.04
957.32	225.01
957.62	225.00
957.92	225.01
958.21	224.98
958.51	225.13
958.81	225.13
959.10	225.13
959.40	225.13
959.69	225.14
959.99	225.19
960.29	225.20
960.58	225.22
960.88	225.29
961.17	225.30
961.47	225.32
961.76	225.34
962.06	225.38
962.36	225.38
962.65	225.37
962.95	225.40
963.24	225.36
963.54	225.37
963.83	225.38
964.13	225.39
964.42	225.40
964.72	225.33
965.01	225.33
965.31	225.34
965.60	225.35
965.90	225.43
966.19	225.39
966.49	225.41
966.78	225.44
967.08	225.42
967.37	225.44
967.67	225.42
967.96	225.48
968.26	225.51
968.55	225.52
968.85	225.57
969.14	225.56
969.43	225.59
969.73	225.61
970.02	225.63
970.32	225.64
970.61	225.65
970.91	225.63
971.20	225.62
971.49	225.62
971.79	225.64
972.08	225.52
972.38	225.58
972.67	225.57
972.96	225.58
973.26	225.58
973.55	225.59
973.85	225.59
974.14	225.59
974.43	225.59
974.73	225.58
975.02	225.53
975.31	225.54
975.61	225.54
975.90	225.54
976.19	225.52
976.49	225.53
976.78	225.56
977.07	225.56
977.37	225.60
977.66	225.62
977.95	225.60
978.24	225.66
978.54	225.65
978.83	225.66
979.12	225.66
979.42	225.68
979.71	225.65
980.00	225.65
980.29	225.66
980.59	225.62
980.88	225.66
981.17	225.70
981.46	225.71
981.76	225.66
982.05	225.68
982.34	225.69
982.63	225.65
982.93	225.63
983.22	225.63
983.51	225.61
983.80	225.59
984.09	225.61
984.39	225.56
984.68	225.54
984.97	225.49
985.26	225.49
985.55	225.46
985.85	225.44
986.14	225.45
986.43	225.44
986.72	225.44
987.01	225.35
987.30	225.34
987.59	225.31
987.89	225.35
988.18	225.30
988.47	225.26
988.76	225.26
989.05	225.22
989.34	225.18
989.63	225.20
989.92	225.17
990.22	225.11
990.51	225.10
990.80	225.09
991.09	225.09
991.38	225.09
991.67	225.10
991.96	225.07
992.25	225.04
992.54	225.01
992.83	225.00
993.12	225.02
993.41	224.99
993.70	225.02
993.99	225.01
994.28	225.00
994.58	225.01
994.87	224.99
995.16	224.99
995.45	224.98
995.74	224.93
996.03	224.94
996.32	224.95
996.61	224.98
996.90	224.96
997.19	224.98
997.48	224.97
997.77	224.91
998.06	224.89
998.34	224.89
998.63	224.90
998.92	224.88
999.21	224.88
999.50	224.91
999.79	224.88
1000.08	224.88
1000.37	224.88
1000.66	224.87
1000.95	224.90
1001.24	224.91
1001.53	224.93
1001.82	224.92
1002.11	224.89
1002.40	224.93
1002.68	224.96
1002.97	225.05
1003.26	225.05
1003.55	225.03
1003.84	225.07
1004.13	225.13
1004.42	225.09
1004.71	225.08
1004.99	225.09
1005.28	225.13
1005.57	225.10
1005.86	225.07
1006.15	225.06
1006.44	225.08
1006.72	225.11
1007.01	225.09
1007.30	225.09
1007.59	225.12
1007.88	225.16
1008.17	225.20
1008.45	225.19
1008.74	225.17
1009.03	225.11
1009.32	225.11
1009.60	225.11
1009.89	225.11
1010.18	225.06
1010.47	225.11
1010.76	225.15
1011.04	225.13
1011.33	225.17
1011.62	225.20
1011.91	225.23
1012.19	225.26
1012.48	225.27
1012.77	225.28
1013.05	225.33
1013.34	225.33
1013.63	225.33
1013.92	225.33
1014.20	225.33
1014.49	225.32
1014.78	225.34
1015.06	225.32
1015.35	225.32
1015.64	225.34
1015.92	225.37
1016.21	225.44
1016.50	225.44
1016.78	225.44
1017.07	225.45
1017.36	225.42
1017.64	225.41
1017.93	225.40
1018.22	225.38
1018.50	225.35
1018.79	225.30
1019.08	225.25
1019.36	225.27
1019.65	225.21
1019.93	225.24
1020.22	225.21
1020.51	225.26
1020.79	225.23
1021.08	225.12
1021.36	224.63
1021.65	224.51
1021.94	224.78
1022.22	225.25
1022.51	224.62
1022.79	225.81
1023.08	225.16
1023.36	226.20
1023.65	224.95
>>>>>End Processed Spectral Data<<<<<
