SpectraSuite Data File
++++++++++++++++++++++++++++++++++++
Date: Fri Feb 01 18:01:11 EST 2013
User: group
Dark Spectrum Present: No
Reference Spectrum Present: No
Number of Sampled Component Spectra: 1
Spectrometers: USB2E7196
Integration Time (usec): 35000 (USB2E7196)
Spectra Averaged: 100 (USB2E7196)
Boxcar Smoothing: 10 (USB2E7196)
Correct for Electrical Dark: No (USB2E7196)
Strobe/Lamp Enabled: No (USB2E7196)
Correct for Detector Non-linearity: No (USB2E7196)
Correct for Stray Light: No (USB2E7196)
Number of Pixels in Processed Spectrum: 2048
>>>>>Begin Processed Spectral Data<<<<<
339.09	0.00
339.48	212.86
339.86	215.00
340.24	215.08
340.63	217.17
341.01	219.65
341.39	219.56
341.78	221.10
342.16	222.27
342.54	223.04
342.93	211.25
343.31	221.94
343.69	222.49
344.07	222.95
344.46	223.40
344.84	223.79
345.22	224.05
345.60	224.34
345.99	224.55
346.37	224.68
346.75	224.78
347.13	224.87
347.52	224.94
347.90	224.99
348.28	225.07
348.66	225.14
349.05	225.16
349.43	225.20
349.81	225.24
350.19	225.29
350.57	225.37
350.96	225.43
351.34	225.53
351.72	225.60
352.10	225.68
352.48	225.77
352.87	225.82
353.25	225.89
353.63	225.93
354.01	225.98
354.39	226.05
354.77	226.09
355.15	226.22
355.54	226.33
355.92	226.40
356.30	226.44
356.68	226.55
357.06	226.61
357.44	226.66
357.82	226.72
358.20	226.81
358.58	226.85
358.97	226.93
359.35	226.98
359.73	227.07
360.11	227.13
360.49	227.19
360.87	227.28
361.25	227.36
361.63	227.46
362.01	227.49
362.39	227.55
362.77	227.62
363.15	227.61
363.53	227.59
363.91	227.62
364.29	227.65
364.67	227.59
365.05	227.60
365.43	227.63
365.81	227.67
366.19	227.70
366.57	227.73
366.95	227.71
367.33	227.67
367.71	227.65
368.09	227.62
368.47	227.59
368.85	227.52
369.23	227.48
369.61	227.39
369.99	227.39
370.37	227.39
370.75	227.42
371.13	227.38
371.51	227.36
371.89	227.29
372.27	227.27
372.65	227.26
373.03	227.21
373.41	227.14
373.78	227.08
374.16	226.98
374.54	226.92
374.92	226.86
375.30	226.81
375.68	226.73
376.06	226.71
376.44	226.66
376.82	226.61
377.19	226.53
377.57	226.47
377.95	226.40
378.33	226.29
378.71	226.15
379.09	226.08
379.47	226.01
379.84	225.98
380.22	225.89
380.60	225.77
380.98	225.72
381.36	225.68
381.73	225.60
382.11	225.60
382.49	225.58
382.87	225.53
383.25	225.47
383.62	225.54
384.00	225.47
384.38	225.39
384.76	225.37
385.13	225.40
385.51	225.35
385.89	225.27
386.27	225.26
386.64	225.24
387.02	225.20
387.40	225.12
387.78	225.08
388.15	225.07
388.53	225.07
388.91	225.05
389.29	225.02
389.66	225.01
390.04	224.94
390.42	224.88
390.79	224.85
391.17	224.81
391.55	224.69
391.92	224.69
392.30	224.70
392.68	224.68
393.05	224.64
393.43	224.64
393.81	224.64
394.18	224.61
394.56	224.61
394.94	224.66
395.31	224.69
395.69	224.79
396.06	224.79
396.44	224.81
396.82	224.84
397.19	224.92
397.57	224.93
397.95	224.98
398.32	225.02
398.70	225.09
399.07	225.18
399.45	225.25
399.82	225.30
400.20	225.34
400.58	225.39
400.95	225.41
401.33	225.47
401.70	225.67
402.08	225.76
402.45	225.88
402.83	225.97
403.20	226.08
403.58	226.14
403.95	226.28
404.33	226.39
404.71	226.52
405.08	226.69
405.46	226.86
405.83	227.03
406.21	227.22
406.58	227.42
406.96	227.62
407.33	227.84
407.70	228.06
408.08	228.37
408.45	228.65
408.83	228.95
409.20	229.26
409.58	229.49
409.95	229.84
410.33	230.17
410.70	230.53
411.08	230.90
411.45	231.28
411.82	231.66
412.20	232.13
412.57	232.66
412.95	233.03
413.32	233.55
413.69	234.07
414.07	234.63
414.44	235.21
414.82	235.81
415.19	236.52
415.56	237.27
415.94	238.03
416.31	238.90
416.68	239.76
417.06	240.70
417.43	241.58
417.81	242.61
418.18	243.63
418.55	244.74
418.93	245.96
419.30	247.18
419.67	248.44
420.04	249.70
420.42	251.02
420.79	252.59
421.16	254.12
421.54	255.71
421.91	257.31
422.28	259.04
422.66	260.80
423.03	262.51
423.40	264.27
423.77	266.18
424.15	268.09
424.52	270.08
424.89	272.24
425.26	274.37
425.64	276.30
426.01	278.48
426.38	280.71
426.75	282.92
427.13	285.23
427.50	287.70
427.87	290.27
428.24	292.78
428.61	295.18
428.99	297.84
429.36	300.73
429.73	303.58
430.10	306.32
430.47	309.17
430.85	312.11
431.22	315.16
431.59	318.35
431.96	321.41
432.33	324.75
432.70	327.99
433.08	331.80
433.45	335.35
433.82	338.84
434.19	342.74
434.56	346.49
434.93	350.12
435.30	353.65
435.68	357.55
436.05	361.40
436.42	365.18
436.79	368.57
437.16	372.22
437.53	376.04
437.90	379.86
438.27	383.57
438.64	387.35
439.01	390.89
439.38	393.92
439.75	396.82
440.13	400.19
440.50	403.33
440.87	405.83
441.24	408.49
441.61	411.45
441.98	413.48
442.35	416.00
442.72	418.53
443.09	420.97
443.46	422.37
443.83	423.14
444.20	423.84
444.57	425.00
444.94	425.40
445.31	425.88
445.68	426.28
446.05	426.41
446.42	425.94
446.79	425.39
447.16	424.80
447.53	424.36
447.90	422.83
448.27	421.30
448.64	419.14
449.01	417.56
449.37	414.84
449.74	412.29
450.11	409.25
450.48	405.90
450.85	402.48
451.22	399.56
451.59	396.87
451.96	394.24
452.33	390.70
452.70	387.50
453.07	383.66
453.43	379.79
453.80	376.05
454.17	372.42
454.54	368.96
454.91	365.32
455.28	361.72
455.65	358.35
456.02	354.97
456.38	352.05
456.75	348.46
457.12	345.45
457.49	342.44
457.86	339.50
458.23	336.96
458.59	334.21
458.96	331.35
459.33	328.78
459.70	326.22
460.07	324.20
460.43	321.87
460.80	319.65
461.17	317.67
461.54	315.57
461.91	313.59
462.27	311.62
462.64	309.85
463.01	307.97
463.38	306.18
463.74	304.36
464.11	302.79
464.48	301.42
464.85	299.92
465.21	298.72
465.58	297.45
465.95	295.98
466.32	294.70
466.68	293.49
467.05	292.28
467.42	291.13
467.78	289.82
468.15	288.60
468.52	287.67
468.88	286.51
469.25	285.50
469.62	284.65
469.98	283.73
470.35	282.88
470.72	282.07
471.08	281.19
471.45	280.45
471.82	279.68
472.18	278.87
472.55	278.25
472.92	277.52
473.28	276.88
473.65	276.23
474.02	275.60
474.38	275.09
474.75	274.66
475.11	274.16
475.48	273.81
475.85	273.44
476.21	273.05
476.58	272.78
476.94	272.50
477.31	272.21
477.67	271.93
478.04	271.70
478.41	271.55
478.77	271.49
479.14	271.32
479.50	271.27
479.87	271.26
480.23	271.28
480.60	271.27
480.96	271.26
481.33	271.41
481.69	271.58
482.06	271.72
482.42	271.87
482.79	272.09
483.15	272.38
483.52	272.76
483.88	273.14
484.25	273.50
484.61	273.93
484.98	274.40
485.34	274.96
485.71	275.61
486.07	276.22
486.44	276.77
486.80	277.48
487.17	278.22
487.53	279.05
487.90	279.92
488.26	280.93
488.62	281.97
488.99	282.98
489.35	284.06
489.72	285.20
490.08	286.42
490.44	287.69
490.81	289.05
491.17	290.44
491.54	291.95
491.90	293.54
492.26	295.28
492.63	297.07
492.99	298.94
493.36	300.90
493.72	303.03
494.08	305.25
494.45	307.60
494.81	310.08
495.17	312.62
495.54	315.30
495.90	318.12
496.26	321.05
496.63	324.19
496.99	327.48
497.35	330.95
497.72	334.52
498.08	338.20
498.44	342.04
498.80	346.19
499.17	350.47
499.53	354.91
499.89	359.51
500.26	364.23
500.62	369.18
500.98	374.41
501.34	379.79
501.71	385.43
502.07	391.20
502.43	397.14
502.79	403.36
503.16	409.83
503.52	416.50
503.88	423.35
504.24	430.32
504.60	437.66
504.97	445.21
505.33	453.04
505.69	461.27
506.05	469.63
506.41	478.03
506.78	486.73
507.14	495.69
507.50	504.97
507.86	514.59
508.22	524.40
508.59	534.23
508.95	544.43
509.31	554.92
509.67	565.72
510.03	576.71
510.39	587.96
510.75	599.45
511.12	611.19
511.48	623.25
511.84	635.64
512.20	647.92
512.56	660.71
512.92	673.84
513.28	687.08
513.64	700.48
514.00	714.14
514.37	728.09
514.73	742.17
515.09	756.22
515.45	770.65
515.81	785.33
516.17	800.43
516.53	815.77
516.89	831.13
517.25	846.45
517.61	862.14
517.97	877.90
518.33	893.56
518.69	909.53
519.05	925.82
519.41	942.28
519.77	959.23
520.13	976.05
520.49	992.73
520.85	1009.50
521.21	1026.57
521.57	1044.32
521.93	1061.50
522.29	1079.34
522.65	1097.18
523.01	1114.83
523.37	1132.34
523.73	1150.14
524.09	1167.85
524.45	1185.76
524.81	1204.18
525.17	1222.66
525.53	1241.28
525.89	1259.98
526.25	1278.61
526.61	1296.72
526.97	1315.26
527.33	1333.54
527.68	1351.96
528.04	1370.31
528.40	1388.74
528.76	1407.71
529.12	1426.19
529.48	1445.05
529.84	1462.93
530.20	1481.43
530.56	1500.43
530.91	1519.98
531.27	1538.86
531.63	1557.23
531.99	1575.85
532.35	1593.80
532.71	1611.78
533.07	1630.03
533.42	1647.93
533.78	1666.02
534.14	1684.47
534.50	1701.89
534.86	1719.81
535.21	1737.14
535.57	1755.21
535.93	1772.97
536.29	1789.92
536.65	1806.97
537.00	1823.71
537.36	1841.44
537.72	1858.16
538.08	1874.84
538.44	1890.64
538.79	1906.54
539.15	1922.36
539.51	1938.23
539.87	1954.67
540.22	1970.54
540.58	1986.51
540.94	2001.98
541.29	2017.08
541.65	2031.87
542.01	2047.31
542.37	2061.81
542.72	2076.42
543.08	2090.47
543.44	2105.19
543.79	2118.59
544.15	2131.86
544.51	2145.86
544.87	2158.96
545.22	2171.99
545.58	2184.51
545.94	2196.64
546.29	2208.71
546.65	2220.88
547.01	2232.44
547.36	2243.25
547.72	2253.93
548.07	2263.97
548.43	2274.26
548.79	2284.21
549.14	2293.98
549.50	2303.21
549.86	2313.05
550.21	2322.34
550.57	2331.50
550.92	2339.94
551.28	2349.05
551.64	2358.18
551.99	2366.61
552.35	2374.65
552.70	2382.74
553.06	2390.60
553.41	2398.79
553.77	2406.50
554.13	2414.29
554.48	2422.33
554.84	2430.02
555.19	2436.98
555.55	2443.95
555.90	2450.14
556.26	2457.12
556.61	2463.59
556.97	2469.88
557.32	2475.65
557.68	2481.43
558.03	2487.35
558.39	2492.64
558.74	2499.03
559.10	2504.56
559.45	2509.85
559.81	2515.62
560.16	2520.96
560.52	2525.62
560.87	2530.53
561.23	2534.61
561.58	2539.01
561.94	2542.77
562.29	2546.18
562.64	2550.34
563.00	2554.21
563.35	2559.23
563.71	2563.55
564.06	2567.90
564.42	2572.06
564.77	2575.88
565.12	2579.67
565.48	2582.83
565.83	2586.05
566.19	2588.55
566.54	2590.33
566.89	2592.59
567.25	2594.35
567.60	2596.79
567.96	2599.62
568.31	2601.45
568.66	2603.75
569.02	2605.34
569.37	2606.49
569.72	2608.43
570.08	2609.32
570.43	2610.11
570.78	2610.23
571.14	2609.19
571.49	2608.42
571.84	2608.67
572.20	2608.09
572.55	2607.47
572.90	2606.24
573.26	2605.29
573.61	2603.79
573.96	2602.78
574.31	2600.14
574.67	2597.44
575.02	2593.86
575.37	2590.49
575.72	2586.88
576.08	2583.50
576.43	2580.29
576.78	2576.88
577.13	2573.60
577.49	2570.46
577.84	2566.94
578.19	2563.11
578.54	2559.73
578.90	2555.62
579.25	2549.69
579.60	2544.60
579.95	2539.33
580.30	2534.10
580.66	2528.69
581.01	2523.42
581.36	2518.02
581.71	2513.44
582.06	2508.78
582.42	2504.16
582.77	2498.59
583.12	2493.72
583.47	2488.87
583.82	2483.51
584.17	2477.91
584.53	2472.00
584.88	2466.00
585.23	2459.84
585.58	2453.91
585.93	2447.69
586.28	2442.29
586.63	2436.86
586.98	2431.26
587.34	2426.11
587.69	2420.76
588.04	2414.85
588.39	2408.63
588.74	2401.36
589.09	2394.54
589.44	2386.82
589.79	2379.83
590.14	2373.49
590.49	2366.00
590.84	2358.75
591.19	2351.98
591.54	2344.57
591.89	2336.47
592.25	2328.87
592.60	2320.57
592.95	2312.09
593.30	2303.95
593.65	2295.29
594.00	2287.33
594.35	2278.96
594.70	2269.66
595.05	2261.75
595.40	2253.55
595.75	2245.00
596.10	2238.03
596.45	2230.46
596.80	2223.56
597.15	2216.19
597.50	2208.34
597.85	2200.85
598.19	2193.22
598.54	2185.11
598.89	2177.51
599.24	2170.71
599.59	2163.17
599.94	2156.17
600.29	2148.81
600.64	2141.13
600.99	2132.74
601.34	2124.80
601.69	2116.79
602.04	2109.03
602.39	2100.27
602.74	2092.25
603.08	2084.53
603.43	2076.78
603.78	2068.18
604.13	2059.78
604.48	2051.41
604.83	2043.33
605.18	2035.41
605.53	2026.25
605.87	2016.92
606.22	2008.41
606.57	1998.92
606.92	1990.15
607.27	1981.72
607.62	1973.61
607.96	1965.23
608.31	1957.56
608.66	1948.81
609.01	1940.09
609.36	1931.20
609.70	1921.81
610.05	1912.42
610.40	1903.39
610.75	1893.52
611.10	1884.61
611.44	1874.54
611.79	1865.14
612.14	1854.88
612.49	1844.11
612.83	1834.11
613.18	1824.52
613.53	1815.02
613.88	1805.10
614.22	1795.37
614.57	1785.23
614.92	1775.85
615.27	1766.90
615.61	1757.18
615.96	1747.54
616.31	1738.45
616.65	1729.74
617.00	1720.82
617.35	1711.77
617.70	1702.09
618.04	1692.08
618.39	1682.27
618.74	1673.44
619.08	1663.54
619.43	1654.59
619.78	1646.22
620.12	1637.84
620.47	1629.06
620.82	1619.35
621.16	1610.54
621.51	1601.52
621.85	1592.49
622.20	1582.47
622.55	1572.60
622.89	1563.29
623.24	1554.28
623.59	1545.54
623.93	1536.62
624.28	1528.13
624.62	1519.20
624.97	1510.48
625.32	1502.44
625.66	1494.20
626.01	1485.72
626.35	1477.13
626.70	1467.96
627.04	1459.00
627.39	1449.83
627.73	1440.99
628.08	1432.95
628.43	1424.44
628.77	1415.83
629.12	1407.06
629.46	1398.52
629.81	1389.64
630.15	1381.07
630.50	1372.37
630.84	1362.91
631.19	1353.54
631.53	1344.61
631.88	1335.68
632.22	1326.83
632.57	1318.29
632.91	1309.36
633.26	1300.66
633.60	1291.76
633.95	1283.42
634.29	1275.10
634.64	1267.29
634.98	1258.76
635.32	1250.25
635.67	1242.44
636.01	1234.57
636.36	1226.60
636.70	1218.91
637.05	1211.24
637.39	1203.66
637.73	1196.06
638.08	1188.95
638.42	1181.93
638.77	1174.45
639.11	1166.94
639.45	1159.42
639.80	1151.57
640.14	1144.26
640.49	1136.67
640.83	1129.38
641.17	1122.20
641.52	1114.88
641.86	1107.25
642.20	1100.34
642.55	1093.01
642.89	1085.42
643.23	1077.84
643.58	1071.08
643.92	1063.92
644.26	1056.97
644.61	1049.86
644.95	1042.94
645.29	1035.38
645.64	1027.56
645.98	1020.13
646.32	1013.15
646.66	1006.16
647.01	999.52
647.35	992.81
647.69	985.92
648.04	979.48
648.38	972.69
648.72	965.80
649.06	958.84
649.41	952.00
649.75	945.13
650.09	938.41
650.43	931.72
650.78	924.60
651.12	917.73
651.46	911.11
651.80	904.52
652.14	898.21
652.49	892.01
652.83	886.13
653.17	879.65
653.51	873.08
653.85	866.85
654.20	860.28
654.54	853.26
654.88	846.67
655.22	839.86
655.56	833.27
655.90	826.92
656.25	820.83
656.59	814.65
656.93	808.76
657.27	802.69
657.61	796.33
657.95	790.47
658.29	784.57
658.64	778.43
658.98	772.27
659.32	765.92
659.66	759.86
660.00	753.71
660.34	747.99
660.68	742.31
661.02	736.51
661.36	731.08
661.70	725.96
662.05	720.89
662.39	715.89
662.73	710.71
663.07	705.61
663.41	700.42
663.75	695.20
664.09	689.86
664.43	684.79
664.77	680.12
665.11	675.11
665.45	670.26
665.79	665.53
666.13	660.71
666.47	655.98
666.81	651.20
667.15	646.42
667.49	641.78
667.83	637.29
668.17	632.72
668.51	627.99
668.85	623.28
669.19	618.86
669.53	614.44
669.87	610.00
670.21	605.67
670.55	601.47
670.89	597.47
671.23	593.57
671.57	589.49
671.91	585.35
672.25	581.34
672.58	577.36
672.92	573.37
673.26	569.68
673.60	565.97
673.94	562.35
674.28	558.96
674.62	555.62
674.96	552.07
675.30	548.66
675.64	545.27
675.97	542.08
676.31	538.71
676.65	535.35
676.99	532.21
677.33	528.92
677.67	525.69
678.01	522.21
678.34	518.76
678.68	515.38
679.02	512.13
679.36	508.91
679.70	505.70
680.04	502.49
680.37	499.27
680.71	496.07
681.05	493.05
681.39	489.89
681.73	486.82
682.06	483.91
682.40	481.06
682.74	478.13
683.08	475.18
683.42	472.24
683.75	469.33
684.09	466.35
684.43	463.52
684.77	460.64
685.10	457.93
685.44	455.26
685.78	452.63
686.12	450.00
686.45	447.39
686.79	444.75
687.13	442.28
687.46	439.69
687.80	437.24
688.14	434.67
688.48	432.27
688.81	429.71
689.15	427.18
689.49	424.66
689.82	422.26
690.16	419.83
690.50	417.51
690.83	415.27
691.17	412.95
691.51	410.74
691.84	408.60
692.18	406.37
692.52	404.12
692.85	401.90
693.19	399.76
693.52	397.62
693.86	395.55
694.20	393.45
694.53	391.42
694.87	389.24
695.21	387.17
695.54	385.05
695.88	383.05
696.21	381.09
696.55	379.13
696.88	377.20
697.22	375.30
697.56	373.42
697.89	371.55
698.23	369.77
698.56	367.90
698.90	366.09
699.23	364.23
699.57	362.42
699.90	360.66
700.24	358.84
700.58	357.07
700.91	355.31
701.25	353.66
701.58	352.07
701.92	350.52
702.25	348.92
702.59	347.37
702.92	345.83
703.26	344.31
703.59	342.84
703.93	341.45
704.26	340.05
704.60	338.55
704.93	337.03
705.26	335.56
705.60	334.19
705.93	332.84
706.27	331.58
706.60	330.33
706.94	329.06
707.27	327.74
707.61	326.51
707.94	325.32
708.27	324.06
708.61	322.75
708.94	321.56
709.28	320.44
709.61	319.30
709.94	318.18
710.28	317.01
710.61	315.79
710.95	314.52
711.28	313.36
711.61	312.23
711.95	311.16
712.28	310.07
712.61	308.93
712.95	307.78
713.28	306.73
713.61	305.70
713.95	304.63
714.28	303.65
714.61	302.64
714.95	301.66
715.28	300.65
715.61	299.62
715.95	298.63
716.28	297.60
716.61	296.57
716.95	295.55
717.28	294.65
717.61	293.76
717.94	292.88
718.28	291.99
718.61	291.16
718.94	290.32
719.27	289.52
719.61	288.74
719.94	287.96
720.27	287.14
720.60	286.33
720.94	285.62
721.27	284.89
721.60	284.20
721.93	283.50
722.27	282.83
722.60	282.18
722.93	281.49
723.26	280.86
723.59	280.27
723.93	279.68
724.26	279.03
724.59	278.43
724.92	277.76
725.25	277.14
725.59	276.52
725.92	275.94
726.25	275.34
726.58	274.77
726.91	274.21
727.24	273.63
727.57	273.06
727.91	272.48
728.24	271.96
728.57	271.39
728.90	270.82
729.23	270.27
729.56	269.77
729.89	269.22
730.22	268.66
730.55	268.13
730.89	267.62
731.22	267.09
731.55	266.55
731.88	266.12
732.21	265.61
732.54	265.09
732.87	264.59
733.20	264.09
733.53	263.64
733.86	263.22
734.19	262.83
734.52	262.44
734.85	262.07
735.18	261.55
735.51	261.17
735.84	260.74
736.17	260.33
736.50	259.87
736.83	259.60
737.16	259.21
737.49	258.82
737.82	258.41
738.15	258.04
738.48	257.68
738.81	257.30
739.14	256.94
739.47	256.63
739.80	256.30
740.13	256.01
740.46	255.66
740.79	255.28
741.12	254.89
741.45	254.53
741.78	254.16
742.11	253.88
742.44	253.49
742.77	253.15
743.10	252.81
743.43	252.49
743.75	252.03
744.08	251.84
744.41	251.53
744.74	251.22
745.07	250.92
745.40	250.65
745.73	250.36
746.06	250.05
746.39	249.73
746.71	249.39
747.04	249.07
747.37	248.76
747.70	248.48
748.03	248.17
748.36	247.96
748.68	247.66
749.01	247.39
749.34	247.13
749.67	246.87
750.00	246.60
750.33	246.41
750.65	246.18
750.98	245.76
751.31	245.50
751.64	245.27
751.97	245.05
752.29	244.75
752.62	244.47
752.95	244.25
753.28	243.99
753.60	243.77
753.93	243.51
754.26	243.28
754.59	243.02
754.91	242.78
755.24	242.49
755.57	242.25
755.90	241.99
756.22	241.76
756.55	241.51
756.88	241.29
757.20	241.01
757.53	240.76
757.86	240.59
758.19	240.38
758.51	240.14
758.84	239.90
759.17	239.71
759.49	239.49
759.82	239.32
760.15	239.12
760.47	238.91
760.80	238.68
761.13	238.54
761.45	238.33
761.78	238.15
762.11	237.97
762.43	237.81
762.76	237.63
763.08	237.47
763.41	237.34
763.74	237.18
764.06	237.01
764.39	236.86
764.71	236.69
765.04	236.51
765.37	236.36
765.69	236.18
766.02	236.03
766.34	235.87
766.67	235.69
767.00	235.59
767.32	235.54
767.65	235.49
767.97	235.33
768.30	235.22
768.62	235.09
768.95	234.92
769.27	234.79
769.60	234.68
769.92	234.54
770.25	234.40
770.57	234.23
770.90	234.12
771.22	234.01
771.55	233.92
771.87	233.81
772.20	233.71
772.52	233.69
772.85	233.70
773.17	233.64
773.50	233.54
773.82	233.42
774.15	233.26
774.47	233.10
774.80	233.02
775.12	232.92
775.45	232.85
775.77	232.77
776.09	232.67
776.42	232.56
776.74	232.52
777.07	232.43
777.39	232.37
777.72	232.29
778.04	232.23
778.36	232.16
778.69	232.08
779.01	232.02
779.33	231.89
779.66	231.70
779.98	231.61
780.31	231.53
780.63	231.53
780.95	231.48
781.28	231.42
781.60	231.32
781.92	231.25
782.25	231.19
782.57	231.16
782.89	231.12
783.22	231.07
783.54	230.97
783.86	230.95
784.19	230.89
784.51	230.85
784.83	230.80
785.16	230.72
785.48	230.70
785.80	230.62
786.12	230.59
786.45	230.56
786.77	230.52
787.09	230.48
787.42	230.37
787.74	230.33
788.06	230.33
788.38	230.28
788.71	230.23
789.03	230.18
789.35	230.15
789.67	230.06
789.99	230.03
790.32	229.98
790.64	229.92
790.96	229.99
791.28	229.90
791.61	229.82
791.93	229.79
792.25	229.77
792.57	229.80
792.89	229.71
793.21	229.67
793.54	229.61
793.86	229.58
794.18	229.49
794.50	229.43
794.82	229.40
795.14	229.37
795.47	229.34
795.79	229.28
796.11	229.19
796.43	229.18
796.75	229.10
797.07	229.10
797.39	229.05
797.71	228.91
798.04	228.89
798.36	228.87
798.68	228.83
799.00	228.76
799.32	228.67
799.64	228.66
799.96	228.60
800.28	228.58
800.60	228.51
800.92	228.53
801.24	228.47
801.56	228.40
801.89	228.37
802.21	228.38
802.53	228.34
802.85	228.32
803.17	228.31
803.49	228.24
803.81	228.19
804.13	228.13
804.45	228.10
804.77	228.07
805.09	228.03
805.41	227.96
805.73	227.91
806.05	227.85
806.37	227.80
806.69	227.77
807.01	227.71
807.33	227.70
807.65	227.64
807.97	227.66
808.28	227.61
808.60	227.57
808.92	227.49
809.24	227.55
809.56	227.54
809.88	227.48
810.20	227.49
810.52	227.49
810.84	227.46
811.16	227.42
811.48	227.36
811.80	227.36
812.12	227.35
812.43	227.36
812.75	227.35
813.07	227.30
813.39	227.28
813.71	227.23
814.03	227.20
814.35	227.17
814.67	227.11
814.98	227.08
815.30	227.06
815.62	226.99
815.94	226.86
816.26	226.84
816.58	226.81
816.89	226.76
817.21	226.69
817.53	226.68
817.85	226.65
818.17	226.64
818.48	226.61
818.80	226.60
819.12	226.52
819.44	226.49
819.76	226.49
820.07	226.46
820.39	226.47
820.71	226.46
821.03	226.43
821.34	226.39
821.66	226.41
821.98	226.40
822.30	226.41
822.61	226.48
822.93	226.46
823.25	226.44
823.57	226.45
823.88	226.43
824.20	226.43
824.52	226.44
824.83	226.43
825.15	226.36
825.47	226.36
825.79	226.39
826.10	226.38
826.42	226.37
826.74	226.36
827.05	226.33
827.37	226.30
827.69	226.28
828.00	226.28
828.32	226.26
828.64	226.26
828.95	226.30
829.27	226.25
829.58	226.21
829.90	226.25
830.22	226.25
830.53	226.26
830.85	226.24
831.17	226.20
831.48	226.17
831.80	226.19
832.11	226.19
832.43	226.16
832.75	226.16
833.06	226.18
833.38	226.13
833.69	226.13
834.01	226.14
834.32	226.14
834.64	226.11
834.96	226.09
835.27	226.06
835.59	225.99
835.90	225.98
836.22	225.98
836.53	225.93
836.85	225.85
837.16	225.96
837.48	225.95
837.79	225.96
838.11	225.97
838.42	225.94
838.74	225.89
839.05	225.87
839.37	225.84
839.68	225.78
840.00	225.79
840.31	225.78
840.63	225.80
840.94	225.78
841.26	225.78
841.57	225.79
841.88	225.75
842.20	225.73
842.51	225.67
842.83	225.67
843.14	225.73
843.46	225.76
843.77	225.66
844.08	225.64
844.40	225.60
844.71	225.55
845.03	225.55
845.34	225.53
845.65	225.49
845.97	225.46
846.28	225.44
846.60	225.42
846.91	225.38
847.22	225.33
847.54	225.32
847.85	225.32
848.16	225.28
848.48	225.31
848.79	225.35
849.10	225.35
849.42	225.33
849.73	225.20
850.04	225.20
850.36	225.18
850.67	225.19
850.98	225.19
851.30	225.24
851.61	225.19
851.92	225.20
852.23	225.25
852.55	225.27
852.86	225.27
853.17	225.29
853.49	225.32
853.80	225.34
854.11	225.35
854.42	225.35
854.74	225.35
855.05	225.33
855.36	225.24
855.67	225.25
855.99	225.24
856.30	225.38
856.61	225.37
856.92	225.36
857.23	225.34
857.55	225.31
857.86	225.27
858.17	225.31
858.48	225.29
858.79	225.24
859.11	225.25
859.42	225.27
859.73	225.26
860.04	225.23
860.35	225.22
860.66	225.19
860.98	225.20
861.29	225.21
861.60	225.22
861.91	225.30
862.22	225.29
862.53	225.30
862.84	225.20
863.16	225.24
863.47	225.22
863.78	225.25
864.09	225.31
864.40	225.34
864.71	225.36
865.02	225.39
865.33	225.40
865.64	225.37
865.95	225.37
866.27	225.46
866.58	225.50
866.89	225.47
867.20	225.53
867.51	225.51
867.82	225.52
868.13	225.54
868.44	225.50
868.75	225.54
869.06	225.54
869.37	225.56
869.68	225.51
869.99	225.53
870.30	225.51
870.61	225.52
870.92	225.51
871.23	225.49
871.54	225.55
871.85	225.57
872.16	225.57
872.47	225.58
872.78	225.50
873.09	225.49
873.40	225.50
873.71	225.47
874.02	225.44
874.33	225.43
874.64	225.40
874.95	225.44
875.26	225.41
875.56	225.38
875.87	225.36
876.18	225.37
876.49	225.46
876.80	225.47
877.11	225.43
877.42	225.41
877.73	225.42
878.04	225.36
878.35	225.36
878.66	225.38
878.96	225.34
879.27	225.32
879.58	225.30
879.89	225.31
880.20	225.32
880.51	225.30
880.82	225.29
881.12	225.30
881.43	225.24
881.74	225.23
882.05	225.24
882.36	225.23
882.67	225.24
882.97	225.13
883.28	225.09
883.59	225.08
883.90	225.07
884.21	225.06
884.51	225.03
884.82	225.01
885.13	224.99
885.44	224.99
885.74	224.99
886.05	225.02
886.36	224.99
886.67	224.94
886.98	225.02
887.28	225.02
887.59	225.00
887.90	225.00
888.20	224.99
888.51	224.98
888.82	224.94
889.13	224.94
889.43	225.01
889.74	225.00
890.05	225.01
890.35	225.00
890.66	224.98
890.97	225.00
891.28	224.99
891.58	225.00
891.89	225.03
892.20	224.99
892.50	225.00
892.81	225.01
893.12	225.00
893.42	224.95
893.73	224.95
894.04	224.97
894.34	224.99
894.65	224.97
894.95	224.97
895.26	225.00
895.57	225.03
895.87	224.98
896.18	225.00
896.48	225.00
896.79	224.98
897.10	225.00
897.40	225.00
897.71	225.01
898.01	224.99
898.32	224.99
898.63	225.01
898.93	224.99
899.24	225.00
899.54	225.00
899.85	225.00
900.15	224.99
900.46	224.97
900.76	224.99
901.07	225.00
901.38	225.01
901.68	225.03
901.99	225.00
902.29	224.99
902.60	224.98
902.90	224.96
903.21	224.99
903.51	224.99
903.82	225.00
904.12	225.02
904.43	225.01
904.73	225.01
905.03	225.04
905.34	225.13
905.64	225.11
905.95	225.12
906.25	225.11
906.56	225.13
906.86	225.14
907.17	225.11
907.47	225.13
907.77	225.13
908.08	225.09
908.38	225.10
908.69	225.11
908.99	225.15
909.30	225.17
909.60	225.19
909.90	225.20
910.21	225.23
910.51	225.21
910.81	225.23
911.12	225.22
911.42	225.21
911.73	225.11
912.03	225.12
912.33	225.14
912.64	225.14
912.94	225.13
913.24	225.12
913.55	225.12
913.85	225.10
914.15	225.09
914.46	225.12
914.76	225.11
915.06	225.08
915.37	225.06
915.67	225.01
915.97	225.00
916.27	224.95
916.58	224.93
916.88	224.96
917.18	224.95
917.49	225.05
917.79	225.03
918.09	225.05
918.39	225.08
918.70	225.06
919.00	225.07
919.30	225.11
919.60	225.07
919.91	225.05
920.21	225.04
920.51	225.02
920.81	225.00
921.12	224.97
921.42	224.97
921.72	224.99
922.02	225.00
922.32	225.01
922.63	225.00
922.93	225.01
923.23	224.95
923.53	224.92
923.83	224.81
924.13	224.81
924.44	224.80
924.74	224.81
925.04	224.82
925.34	224.79
925.64	224.75
925.94	224.77
926.24	224.82
926.55	224.81
926.85	224.83
927.15	224.82
927.45	224.78
927.75	224.80
928.05	224.75
928.35	224.76
928.65	224.77
928.95	224.80
929.26	224.78
929.56	224.80
929.86	224.83
930.16	224.82
930.46	224.78
930.76	224.74
931.06	224.68
931.36	224.63
931.66	224.66
931.96	224.68
932.26	224.69
932.56	224.62
932.86	224.61
933.16	224.62
933.46	224.61
933.76	224.65
934.06	224.65
934.36	224.70
934.66	224.72
934.96	224.68
935.26	224.71
935.56	224.72
935.86	224.70
936.16	224.70
936.46	224.73
936.76	224.77
937.06	224.76
937.36	224.77
937.66	224.79
937.96	224.80
938.26	224.75
938.56	224.78
938.86	224.81
939.16	224.88
939.46	224.85
939.76	224.86
940.06	224.86
940.35	224.84
940.65	224.79
940.95	224.78
941.25	224.77
941.55	224.73
941.85	224.73
942.15	224.77
942.45	224.76
942.75	224.77
943.04	224.75
943.34	224.79
943.64	224.82
943.94	224.82
944.24	224.79
944.54	224.83
944.84	224.83
945.13	224.82
945.43	224.80
945.73	224.82
946.03	224.78
946.33	224.77
946.62	224.77
946.92	224.79
947.22	224.79
947.52	224.84
947.82	224.87
948.11	224.82
948.41	224.79
948.71	224.78
949.01	224.76
949.31	224.78
949.60	224.77
949.90	224.76
950.20	224.74
950.50	224.75
950.79	224.72
951.09	224.70
951.39	224.69
951.69	224.68
951.98	224.69
952.28	224.73
952.58	224.73
952.87	224.74
953.17	224.75
953.47	224.74
953.76	224.73
954.06	224.68
954.36	224.68
954.66	224.69
954.95	224.74
955.25	224.75
955.55	224.75
955.84	224.75
956.14	224.74
956.44	224.76
956.73	224.75
957.03	224.77
957.32	224.78
957.62	224.77
957.92	224.80
958.21	224.79
958.51	224.89
958.81	224.91
959.10	224.89
959.40	224.90
959.69	224.90
959.99	224.91
960.29	224.93
960.58	224.94
960.88	224.97
961.17	224.92
961.47	224.94
961.76	224.94
962.06	224.93
962.36	224.95
962.65	224.93
962.95	224.96
963.24	224.92
963.54	224.91
963.83	224.94
964.13	224.92
964.42	224.93
964.72	224.85
965.01	224.86
965.31	224.85
965.60	224.82
965.90	224.88
966.19	224.84
966.49	224.86
966.78	224.87
967.08	224.85
967.37	224.86
967.67	224.85
967.96	224.86
968.26	224.86
968.55	224.83
968.85	224.83
969.14	224.80
969.43	224.80
969.73	224.78
970.02	224.76
970.32	224.76
970.61	224.73
970.91	224.71
971.20	224.65
971.49	224.65
971.79	224.68
972.08	224.61
972.38	224.65
972.67	224.62
972.96	224.64
973.26	224.61
973.55	224.65
973.85	224.61
974.14	224.60
974.43	224.60
974.73	224.62
975.02	224.65
975.31	224.68
975.61	224.72
975.90	224.75
976.19	224.77
976.49	224.78
976.78	224.80
977.07	224.81
977.37	224.85
977.66	224.87
977.95	224.86
978.24	224.90
978.54	224.89
978.83	224.83
979.12	224.84
979.42	224.83
979.71	224.81
980.00	224.82
980.29	224.84
980.59	224.85
980.88	224.88
981.17	224.86
981.46	224.86
981.76	224.85
982.05	224.84
982.34	224.85
982.63	224.85
982.93	224.83
983.22	224.83
983.51	224.85
983.80	224.85
984.09	224.86
984.39	224.83
984.68	224.84
984.97	224.90
985.26	224.86
985.55	224.89
985.85	224.89
986.14	224.91
986.43	224.94
986.72	224.90
987.01	224.83
987.30	224.81
987.59	224.83
987.89	224.83
988.18	224.80
988.47	224.76
988.76	224.76
989.05	224.76
989.34	224.76
989.63	224.75
989.92	224.74
990.22	224.70
990.51	224.71
990.80	224.68
991.09	224.66
991.38	224.68
991.67	224.68
991.96	224.64
992.25	224.64
992.54	224.59
992.83	224.59
993.12	224.63
993.41	224.63
993.70	224.65
993.99	224.65
994.28	224.65
994.58	224.65
994.87	224.63
995.16	224.60
995.45	224.61
995.74	224.59
996.03	224.62
996.32	224.63
996.61	224.64
996.90	224.65
997.19	224.64
997.48	224.62
997.77	224.61
998.06	224.64
998.34	224.64
998.63	224.63
998.92	224.67
999.21	224.64
999.50	224.65
999.79	224.62
1000.08	224.61
1000.37	224.62
1000.66	224.63
1000.95	224.63
1001.24	224.67
1001.53	224.68
1001.82	224.70
1002.11	224.64
1002.40	224.64
1002.68	224.66
1002.97	224.73
1003.26	224.72
1003.55	224.71
1003.84	224.70
1004.13	224.73
1004.42	224.73
1004.71	224.74
1004.99	224.72
1005.28	224.75
1005.57	224.75
1005.86	224.73
1006.15	224.72
1006.44	224.76
1006.72	224.79
1007.01	224.79
1007.30	224.78
1007.59	224.75
1007.88	224.77
1008.17	224.81
1008.45	224.82
1008.74	224.81
1009.03	224.78
1009.32	224.81
1009.60	224.83
1009.89	224.82
1010.18	224.76
1010.47	224.74
1010.76	224.75
1011.04	224.75
1011.33	224.75
1011.62	224.78
1011.91	224.78
1012.19	224.78
1012.48	224.75
1012.77	224.77
1013.05	224.83
1013.34	224.84
1013.63	224.83
1013.92	224.82
1014.20	224.80
1014.49	224.79
1014.78	224.77
1015.06	224.73
1015.35	224.71
1015.64	224.72
1015.92	224.74
1016.21	224.76
1016.50	224.79
1016.78	224.78
1017.07	224.78
1017.36	224.76
1017.64	224.71
1017.93	224.73
1018.22	224.71
1018.50	224.70
1018.79	224.65
1019.08	224.61
1019.36	224.59
1019.65	224.60
1019.93	224.60
1020.22	224.59
1020.51	224.65
1020.79	224.64
1021.08	224.25
1021.36	224.24
1021.65	224.37
1021.94	224.89
1022.22	224.40
1022.51	224.77
1022.79	224.97
1023.08	224.22
1023.36	226.00
1023.65	224.33
>>>>>End Processed Spectral Data<<<<<
