SpectraSuite Data File
++++++++++++++++++++++++++++++++++++
Date: Fri Feb 01 17:43:28 EST 2013
User: group
Dark Spectrum Present: No
Reference Spectrum Present: No
Number of Sampled Component Spectra: 1
Spectrometers: USB2E7196
Integration Time (usec): 35000 (USB2E7196)
Spectra Averaged: 100 (USB2E7196)
Boxcar Smoothing: 10 (USB2E7196)
Correct for Electrical Dark: No (USB2E7196)
Strobe/Lamp Enabled: No (USB2E7196)
Correct for Detector Non-linearity: No (USB2E7196)
Correct for Stray Light: No (USB2E7196)
Number of Pixels in Processed Spectrum: 2048
>>>>>Begin Processed Spectral Data<<<<<
339.09	0.00
339.48	212.54
339.86	214.36
340.24	215.84
340.63	217.46
341.01	219.85
341.39	219.67
341.78	220.89
342.16	222.04
342.54	222.55
342.93	211.26
343.31	221.93
343.69	222.44
344.07	222.92
344.46	223.39
344.84	223.73
345.22	223.97
345.60	224.22
345.99	224.39
346.37	224.52
346.75	224.61
347.13	224.66
347.52	224.70
347.90	224.73
348.28	224.71
348.66	224.71
349.05	224.69
349.43	224.69
349.81	224.75
350.19	224.80
350.57	224.86
350.96	224.93
351.34	225.04
351.72	225.15
352.10	225.21
352.48	225.19
352.87	225.24
353.25	225.28
353.63	225.34
354.01	225.40
354.39	225.46
354.77	225.53
355.15	225.61
355.54	225.68
355.92	225.74
356.30	225.82
356.68	226.00
357.06	226.06
357.44	226.11
357.82	226.13
358.20	226.20
358.58	226.23
358.97	226.27
359.35	226.29
359.73	226.35
360.11	226.40
360.49	226.45
360.87	226.48
361.25	226.53
361.63	226.58
362.01	226.64
362.39	226.70
362.77	226.73
363.15	226.79
363.53	226.80
363.91	226.81
364.29	226.81
364.67	226.69
365.05	226.71
365.43	226.73
365.81	226.76
366.19	226.81
366.57	226.86
366.95	226.88
367.33	226.88
367.71	226.88
368.09	226.89
368.47	226.92
368.85	226.96
369.23	226.96
369.61	226.91
369.99	226.92
370.37	226.88
370.75	226.92
371.13	226.86
371.51	226.82
371.89	226.82
372.27	226.81
372.65	226.80
373.03	226.78
373.41	226.75
373.78	226.71
374.16	226.59
374.54	226.54
374.92	226.50
375.30	226.46
375.68	226.41
376.06	226.37
376.44	226.30
376.82	226.22
377.19	226.16
377.57	226.12
377.95	226.08
378.33	226.03
378.71	225.91
379.09	225.87
379.47	225.85
379.84	225.79
380.22	225.72
380.60	225.65
380.98	225.61
381.36	225.53
381.73	225.48
382.11	225.46
382.49	225.41
382.87	225.30
383.25	225.25
383.62	225.30
384.00	225.21
384.38	225.17
384.76	225.15
385.13	225.14
385.51	225.09
385.89	224.98
386.27	224.95
386.64	224.93
387.02	224.89
387.40	224.84
387.78	224.82
388.15	224.79
388.53	224.78
388.91	224.74
389.29	224.72
389.66	224.69
390.04	224.65
390.42	224.63
390.79	224.68
391.17	224.65
391.55	224.55
391.92	224.53
392.30	224.54
392.68	224.54
393.05	224.53
393.43	224.55
393.81	224.57
394.18	224.53
394.56	224.54
394.94	224.54
395.31	224.53
395.69	224.55
396.06	224.61
396.44	224.63
396.82	224.64
397.19	224.74
397.57	224.80
397.95	224.89
398.32	224.88
398.70	224.88
399.07	224.97
399.45	225.02
399.82	225.09
400.20	225.12
400.58	225.18
400.95	225.20
401.33	225.29
401.70	225.44
402.08	225.54
402.45	225.62
402.83	225.74
403.20	225.80
403.58	225.86
403.95	225.96
404.33	226.07
404.71	226.20
405.08	226.34
405.46	226.45
405.83	226.57
406.21	226.75
406.58	226.97
406.96	227.11
407.33	227.28
407.70	227.51
408.08	227.80
408.45	228.01
408.83	228.30
409.20	228.51
409.58	228.72
409.95	229.00
410.33	229.30
410.70	229.62
411.08	230.02
411.45	230.41
411.82	230.79
412.20	231.22
412.57	231.67
412.95	232.04
413.32	232.51
413.69	233.01
414.07	233.51
414.44	234.05
414.82	234.65
415.19	235.33
415.56	235.99
415.94	236.68
416.31	237.49
416.68	238.20
417.06	239.09
417.43	239.92
417.81	240.87
418.18	241.77
418.55	242.78
418.93	243.82
419.30	244.91
419.67	246.03
420.04	247.20
420.42	248.43
420.79	249.87
421.16	251.26
421.54	252.72
421.91	254.24
422.28	255.78
422.66	257.34
423.03	258.89
423.40	260.54
423.77	262.26
424.15	264.01
424.52	265.88
424.89	267.82
425.26	269.72
425.64	271.51
426.01	273.48
426.38	275.45
426.75	277.48
427.13	279.52
427.50	281.74
427.87	283.99
428.24	286.26
428.61	288.39
428.99	290.74
429.36	293.25
429.73	295.77
430.10	298.19
430.47	300.71
430.85	303.27
431.22	305.95
431.59	308.78
431.96	311.49
432.33	314.46
432.70	317.36
433.08	320.76
433.45	323.91
433.82	327.06
434.19	330.59
434.56	334.00
434.93	337.27
435.30	340.41
435.68	343.90
436.05	347.30
436.42	350.67
436.79	353.76
437.16	357.08
437.53	360.47
437.90	363.88
438.27	367.20
438.64	370.66
439.01	373.84
439.38	376.54
439.75	379.14
440.13	382.19
440.50	384.99
440.87	387.22
441.24	389.56
441.61	392.17
441.98	393.99
442.35	396.19
442.72	398.42
443.09	400.63
443.46	401.85
443.83	402.59
444.20	403.25
444.57	404.27
444.94	404.57
445.31	405.03
445.68	405.48
446.05	405.66
446.42	405.19
446.79	404.66
447.16	404.17
447.53	403.81
447.90	402.37
448.27	400.98
448.64	399.09
449.01	397.74
449.37	395.41
449.74	393.13
450.11	390.36
450.48	387.39
450.85	384.37
451.22	381.78
451.59	379.31
451.96	376.98
452.33	373.81
452.70	370.95
453.07	367.51
453.43	364.02
453.80	360.67
454.17	357.44
454.54	354.36
454.91	351.04
455.28	347.80
455.65	344.76
456.02	341.74
456.38	339.08
456.75	335.85
457.12	333.08
457.49	330.35
457.86	327.76
458.23	325.50
458.59	322.96
458.96	320.42
459.33	318.18
459.70	315.85
460.07	314.00
460.43	311.89
460.80	309.88
461.17	308.06
461.54	306.18
461.91	304.42
462.27	302.64
462.64	301.11
463.01	299.45
463.38	297.89
463.74	296.28
464.11	294.88
464.48	293.66
464.85	292.30
465.21	291.25
465.58	290.09
465.95	288.78
466.32	287.68
466.68	286.58
467.05	285.49
467.42	284.41
467.78	283.31
468.15	282.30
468.52	281.47
468.88	280.43
469.25	279.46
469.62	278.69
469.98	277.89
470.35	277.15
470.72	276.42
471.08	275.64
471.45	274.94
471.82	274.27
472.18	273.53
472.55	273.00
472.92	272.35
473.28	271.80
473.65	271.23
474.02	270.68
474.38	270.23
474.75	269.79
475.11	269.34
475.48	269.02
475.85	268.71
476.21	268.44
476.58	268.24
476.94	268.07
477.31	267.84
477.67	267.58
478.04	267.40
478.41	267.26
478.77	267.27
479.14	267.17
479.50	267.14
479.87	267.19
480.23	267.24
480.60	267.28
480.96	267.32
481.33	267.50
481.69	267.70
482.06	267.86
482.42	268.04
482.79	268.29
483.15	268.57
483.52	268.92
483.88	269.28
484.25	269.63
484.61	270.04
484.98	270.48
485.34	271.08
485.71	271.66
486.07	272.30
486.44	272.87
486.80	273.58
487.17	274.29
487.53	275.10
487.90	275.99
488.26	276.95
488.62	278.00
488.99	278.98
489.35	280.03
489.72	281.16
490.08	282.43
490.44	283.70
490.81	285.04
491.17	286.39
491.54	287.88
491.90	289.43
492.26	291.11
492.63	292.91
492.99	294.74
493.36	296.68
493.72	298.77
494.08	300.94
494.45	303.25
494.81	305.71
495.17	308.19
495.54	310.82
495.90	313.60
496.26	316.41
496.63	319.43
496.99	322.64
497.35	325.96
497.72	329.43
498.08	333.01
498.44	336.85
498.80	340.92
499.17	345.02
499.53	349.34
499.89	353.81
500.26	358.38
500.62	363.12
500.98	368.20
501.34	373.40
501.71	378.82
502.07	384.44
502.43	390.17
502.79	396.16
503.16	402.35
503.52	408.76
503.88	415.36
504.24	422.17
504.60	429.22
504.97	436.60
505.33	444.14
505.69	452.07
506.05	460.02
506.41	468.08
506.78	476.41
507.14	485.01
507.50	494.03
507.86	503.31
508.22	512.79
508.59	522.27
508.95	532.13
509.31	542.25
509.67	552.60
510.03	563.19
510.39	574.03
510.75	585.14
511.12	596.39
511.48	608.03
511.84	619.84
512.20	631.69
512.56	643.99
512.92	656.48
513.28	669.22
513.64	682.08
514.00	695.30
514.37	708.72
514.73	722.25
515.09	735.62
515.45	749.44
515.81	763.48
516.17	777.86
516.53	792.45
516.89	807.12
517.25	821.74
517.61	836.67
517.97	851.62
518.33	866.55
518.69	881.82
519.05	897.26
519.41	912.96
519.77	929.09
520.13	945.11
520.49	961.17
520.85	977.03
521.21	993.29
521.57	1010.10
521.93	1026.49
522.29	1043.38
522.65	1060.38
523.01	1077.18
523.37	1093.96
523.73	1110.79
524.09	1127.60
524.45	1144.61
524.81	1162.02
525.17	1179.49
525.53	1197.12
525.89	1214.79
526.25	1232.39
526.61	1249.66
526.97	1267.27
527.33	1284.57
527.68	1301.99
528.04	1319.29
528.40	1336.80
528.76	1354.80
529.12	1372.28
529.48	1390.16
529.84	1407.15
530.20	1424.70
530.56	1442.50
530.91	1460.74
531.27	1478.56
531.63	1495.96
531.99	1513.41
532.35	1530.43
532.71	1547.41
533.07	1564.79
533.42	1581.79
533.78	1598.99
534.14	1616.35
534.50	1632.66
534.86	1649.58
535.21	1665.85
535.57	1682.90
535.93	1699.56
536.29	1715.40
536.65	1731.53
537.00	1747.21
537.36	1763.71
537.72	1779.30
538.08	1795.11
538.44	1810.19
538.79	1825.28
539.15	1840.08
539.51	1855.13
539.87	1870.66
540.22	1885.36
540.58	1900.20
540.94	1914.64
541.29	1928.49
541.65	1942.34
542.01	1956.81
542.37	1970.29
542.72	1983.78
543.08	1996.91
543.44	2010.58
543.79	2023.17
544.15	2035.41
544.51	2048.34
544.87	2060.44
545.22	2072.56
545.58	2083.98
545.94	2094.90
546.29	2105.98
546.65	2117.13
547.01	2127.69
547.36	2137.63
547.72	2147.60
548.07	2156.91
548.43	2166.35
548.79	2175.62
549.14	2184.43
549.50	2192.82
549.86	2201.81
550.21	2210.48
550.57	2218.63
550.92	2226.40
551.28	2234.59
551.64	2242.83
551.99	2250.60
552.35	2258.11
552.70	2265.43
553.06	2272.50
553.41	2280.06
553.77	2287.10
554.13	2294.34
554.48	2301.52
554.84	2308.30
555.19	2314.54
555.55	2320.71
555.90	2326.28
556.26	2332.57
556.61	2338.36
556.97	2344.05
557.32	2349.26
557.68	2354.49
558.03	2359.85
558.39	2364.41
558.74	2370.04
559.10	2375.04
559.45	2379.61
559.81	2384.64
560.16	2389.35
560.52	2393.65
560.87	2398.08
561.23	2401.71
561.58	2405.51
561.94	2409.03
562.29	2412.00
562.64	2415.79
563.00	2419.37
563.35	2423.85
563.71	2427.84
564.06	2431.77
564.42	2435.66
564.77	2439.16
565.12	2442.51
565.48	2445.27
565.83	2448.21
566.19	2450.61
566.54	2451.91
566.89	2453.96
567.25	2455.60
567.60	2457.76
567.96	2460.25
568.31	2461.73
568.66	2463.89
569.02	2465.25
569.37	2466.09
569.72	2467.80
570.08	2468.55
570.43	2469.01
570.78	2468.92
571.14	2467.81
571.49	2466.99
571.84	2466.86
572.20	2466.24
572.55	2465.57
572.90	2464.38
573.26	2463.42
573.61	2461.81
573.96	2460.84
574.31	2458.18
574.67	2455.54
575.02	2452.07
575.37	2448.88
575.72	2445.37
576.08	2441.91
576.43	2438.55
576.78	2435.33
577.13	2432.22
577.49	2429.13
577.84	2426.09
578.19	2422.42
578.54	2419.05
578.90	2415.17
579.25	2409.65
579.60	2404.75
579.95	2399.79
580.30	2394.70
580.66	2389.53
581.01	2384.67
581.36	2379.61
581.71	2375.62
582.06	2371.20
582.42	2366.89
582.77	2361.72
583.12	2357.16
583.47	2352.61
583.82	2347.87
584.17	2342.49
584.53	2336.90
584.88	2331.21
585.23	2325.40
585.58	2319.84
585.93	2314.16
586.28	2308.96
586.63	2303.96
586.98	2298.65
587.34	2293.68
587.69	2288.73
588.04	2283.38
588.39	2277.46
588.74	2270.71
589.09	2264.04
589.44	2256.96
589.79	2250.42
590.14	2244.35
590.49	2237.39
590.84	2230.45
591.19	2224.06
591.54	2217.36
591.89	2209.76
592.25	2202.73
592.60	2194.84
592.95	2187.04
593.30	2179.20
593.65	2171.22
594.00	2163.65
594.35	2155.90
594.70	2147.24
595.05	2139.82
595.40	2131.88
595.75	2123.81
596.10	2117.31
596.45	2110.23
596.80	2103.49
597.15	2096.52
597.50	2089.15
597.85	2082.09
598.19	2075.07
598.54	2067.52
598.89	2060.26
599.24	2053.83
599.59	2046.88
599.94	2040.07
600.29	2033.02
600.64	2025.90
600.99	2017.92
601.34	2010.42
601.69	2002.75
602.04	1995.48
602.39	1987.35
602.74	1980.04
603.08	1972.87
603.43	1965.48
603.78	1957.51
604.13	1949.68
604.48	1941.90
604.83	1934.45
605.18	1927.31
605.53	1918.78
605.87	1910.10
606.22	1902.23
606.57	1893.65
606.92	1885.31
607.27	1877.68
607.62	1870.16
607.96	1862.33
608.31	1855.28
608.66	1847.07
609.01	1838.97
609.36	1830.76
609.70	1822.01
610.05	1813.20
610.40	1804.72
610.75	1795.74
611.10	1787.37
611.44	1778.18
611.79	1769.33
612.14	1759.77
612.49	1749.46
612.83	1740.13
613.18	1731.03
613.53	1722.00
613.88	1712.63
614.22	1703.55
614.57	1693.90
614.92	1685.18
615.27	1676.93
615.61	1667.75
615.96	1658.87
616.31	1650.34
616.65	1642.09
617.00	1633.73
617.35	1625.21
617.70	1616.17
618.04	1606.75
618.39	1597.55
618.74	1589.27
619.08	1580.14
619.43	1571.72
619.78	1564.01
620.12	1556.16
620.47	1547.89
620.82	1538.84
621.16	1530.43
621.51	1522.02
621.85	1513.51
622.20	1504.00
622.55	1494.69
622.89	1485.97
623.24	1477.50
623.59	1469.18
623.93	1460.90
624.28	1452.85
624.62	1444.55
624.97	1436.46
625.32	1428.72
625.66	1420.97
626.01	1412.98
626.35	1404.91
626.70	1396.28
627.04	1387.87
627.39	1379.18
627.73	1371.04
628.08	1363.39
628.43	1355.51
628.77	1347.43
629.12	1339.32
629.46	1331.44
629.81	1323.07
630.15	1315.03
630.50	1306.96
630.84	1298.13
631.19	1289.33
631.53	1281.01
631.88	1272.62
632.22	1264.21
632.57	1256.13
632.91	1247.78
633.26	1239.61
633.60	1231.22
633.95	1223.19
634.29	1215.21
634.64	1207.85
634.98	1199.71
635.32	1191.94
635.67	1184.54
636.01	1177.06
636.36	1169.62
636.70	1162.25
637.05	1155.05
637.39	1147.92
637.73	1140.69
638.08	1134.08
638.42	1127.44
638.77	1120.34
639.11	1113.22
639.45	1106.16
639.80	1098.95
640.14	1092.01
640.49	1084.86
640.83	1077.98
641.17	1071.43
641.52	1064.54
641.86	1057.34
642.20	1050.90
642.55	1043.87
642.89	1036.83
643.23	1029.58
643.58	1023.13
643.92	1016.43
644.26	1009.89
644.61	1003.17
644.95	996.68
645.29	989.59
645.64	982.22
645.98	975.35
646.32	968.64
646.66	962.12
647.01	955.72
647.35	949.40
647.69	942.86
648.04	936.82
648.38	930.40
648.72	923.94
649.06	917.44
649.41	910.94
649.75	904.44
650.09	897.93
650.43	891.73
650.78	884.99
651.12	878.46
651.46	872.17
651.80	866.09
652.14	860.13
652.49	854.25
652.83	848.59
653.17	842.47
653.51	836.46
653.85	830.46
654.20	824.41
654.54	817.90
654.88	811.61
655.22	805.16
655.56	798.88
655.90	792.83
656.25	787.11
656.59	781.34
656.93	775.79
657.27	770.21
657.61	764.27
657.95	758.76
658.29	753.28
658.64	747.41
658.98	741.45
659.32	735.43
659.66	729.75
660.00	724.03
660.34	718.61
660.68	713.21
661.02	707.77
661.36	702.69
661.70	697.81
662.05	693.08
662.39	688.47
662.73	683.68
663.07	678.91
663.41	674.02
663.75	669.14
664.09	664.12
664.43	659.34
664.77	654.87
665.11	650.22
665.45	645.66
665.79	641.33
666.13	636.93
666.47	632.49
666.81	627.98
667.15	623.41
667.49	619.13
667.83	614.94
668.17	610.63
668.51	606.13
668.85	601.70
669.19	597.47
669.53	593.25
669.87	589.04
670.21	585.01
670.55	581.02
670.89	577.25
671.23	573.59
671.57	569.71
671.91	565.89
672.25	562.01
672.58	558.20
672.92	554.42
673.26	550.95
673.60	547.52
673.94	544.16
674.28	541.01
674.62	537.80
674.96	534.47
675.30	531.33
675.64	528.18
675.97	525.13
676.31	522.07
676.65	518.85
676.99	515.84
677.33	512.73
677.67	509.63
678.01	506.30
678.34	503.08
678.68	499.93
679.02	496.86
679.36	493.84
679.70	490.88
680.04	487.96
680.37	484.86
680.71	481.78
681.05	478.89
681.39	475.90
681.73	472.95
682.06	470.15
682.40	467.34
682.74	464.54
683.08	461.74
683.42	458.88
683.75	456.18
684.09	453.32
684.43	450.61
684.77	448.00
685.10	445.43
685.44	442.87
685.78	440.38
686.12	437.83
686.45	435.30
686.79	432.83
687.13	430.34
687.46	427.97
687.80	425.55
688.14	423.08
688.48	420.83
688.81	418.43
689.15	416.09
689.49	413.74
689.82	411.42
690.16	409.12
690.50	406.94
690.83	404.75
691.17	402.62
691.51	400.52
691.84	398.46
692.18	396.37
692.52	394.23
692.85	392.08
693.19	390.06
693.52	388.07
693.86	386.01
694.20	384.05
694.53	382.06
694.87	380.09
695.21	378.12
695.54	376.13
695.88	374.19
696.21	372.26
696.55	370.43
696.88	368.64
697.22	366.79
697.56	364.99
697.89	363.19
698.23	361.47
698.56	359.74
698.90	358.00
699.23	356.20
699.57	354.49
699.90	352.80
700.24	351.14
700.58	349.49
700.91	347.84
701.25	346.30
701.58	344.78
701.92	343.28
702.25	341.82
702.59	340.33
702.92	338.93
703.26	337.55
703.59	336.18
703.93	334.88
704.26	333.57
704.60	332.15
704.93	330.79
705.26	329.39
705.60	328.06
705.93	326.75
706.27	325.60
706.60	324.43
706.94	323.22
707.27	321.92
707.61	320.75
707.94	319.66
708.27	318.45
708.61	317.25
708.94	316.12
709.28	315.04
709.61	313.96
709.94	312.89
710.28	311.76
710.61	310.64
710.95	309.41
711.28	308.41
711.61	307.41
711.95	306.39
712.28	305.37
712.61	304.29
712.95	303.29
713.28	302.31
713.61	301.30
713.95	300.37
714.28	299.48
714.61	298.51
714.95	297.55
715.28	296.60
715.61	295.68
715.95	294.77
716.28	293.82
716.61	292.88
716.95	291.96
717.28	291.15
717.61	290.34
717.94	289.55
718.28	288.67
718.61	287.89
718.94	287.09
719.27	286.39
719.61	285.68
719.94	284.95
720.27	284.14
720.60	283.41
720.94	282.71
721.27	282.04
721.60	281.42
721.93	280.79
722.27	280.18
722.60	279.54
722.93	278.90
723.26	278.32
723.59	277.72
723.93	277.10
724.26	276.48
724.59	275.81
724.92	275.19
725.25	274.62
725.59	274.00
725.92	273.48
726.25	272.89
726.58	272.35
726.91	271.78
727.24	271.26
727.57	270.76
727.91	270.20
728.24	269.67
728.57	269.15
728.90	268.62
729.23	268.09
729.56	267.61
729.89	267.05
730.22	266.51
730.55	265.99
730.89	265.48
731.22	264.97
731.55	264.50
731.88	264.01
732.21	263.51
732.54	263.06
732.87	262.54
733.20	262.09
733.53	261.65
733.86	261.24
734.19	260.81
734.52	260.38
734.85	260.01
735.18	259.53
735.51	259.09
735.84	258.66
736.17	258.26
736.50	257.85
736.83	257.66
737.16	257.28
737.49	256.91
737.82	256.56
738.15	256.18
738.48	255.80
738.81	255.45
739.14	255.12
739.47	254.75
739.80	254.44
740.13	254.08
740.46	253.69
740.79	253.30
741.12	252.94
741.45	252.59
741.78	252.23
742.11	251.96
742.44	251.63
742.77	251.32
743.10	250.96
743.43	250.59
743.75	250.13
744.08	249.94
744.41	249.60
744.74	249.29
745.07	249.01
745.40	248.77
745.73	248.51
746.06	248.24
746.39	247.95
746.71	247.67
747.04	247.40
747.37	247.09
747.70	246.85
748.03	246.63
748.36	246.39
748.68	246.10
749.01	245.82
749.34	245.59
749.67	245.38
750.00	245.14
750.33	244.97
750.65	244.73
750.98	244.40
751.31	244.21
751.64	244.00
751.97	243.83
752.29	243.57
752.62	243.29
752.95	243.06
753.28	242.85
753.60	242.62
753.93	242.43
754.26	242.27
754.59	242.04
754.91	241.79
755.24	241.56
755.57	241.39
755.90	241.19
756.22	240.98
756.55	240.73
756.88	240.55
757.20	240.32
757.53	240.09
757.86	239.89
758.19	239.73
758.51	239.51
758.84	239.28
759.17	239.12
759.49	238.96
759.82	238.82
760.15	238.67
760.47	238.50
760.80	238.30
761.13	238.15
761.45	237.98
761.78	237.80
762.11	237.67
762.43	237.48
762.76	237.31
763.08	237.16
763.41	237.05
763.74	236.90
764.06	236.73
764.39	236.58
764.71	236.43
765.04	236.25
765.37	236.10
765.69	235.94
766.02	235.75
766.34	235.61
766.67	235.41
767.00	235.30
767.32	235.21
767.65	235.14
767.97	235.00
768.30	234.89
768.62	234.79
768.95	234.63
769.27	234.53
769.60	234.42
769.92	234.28
770.25	234.10
770.57	233.93
770.90	233.83
771.22	233.71
771.55	233.62
771.87	233.53
772.20	233.43
772.52	233.44
772.85	233.47
773.17	233.36
773.50	233.25
773.82	233.12
774.15	232.96
774.47	232.79
774.80	232.69
775.12	232.60
775.45	232.55
775.77	232.50
776.09	232.37
776.42	232.28
776.74	232.22
777.07	232.15
777.39	232.10
777.72	232.00
778.04	231.93
778.36	231.83
778.69	231.74
779.01	231.65
779.33	231.47
779.66	231.31
779.98	231.21
780.31	231.17
780.63	231.13
780.95	231.09
781.28	231.03
781.60	230.98
781.92	230.87
782.25	230.76
782.57	230.65
782.89	230.61
783.22	230.52
783.54	230.43
783.86	230.37
784.19	230.30
784.51	230.27
784.83	230.23
785.16	230.17
785.48	230.10
785.80	230.05
786.12	230.02
786.45	229.96
786.77	229.94
787.09	229.87
787.42	229.79
787.74	229.74
788.06	229.71
788.38	229.64
788.71	229.60
789.03	229.55
789.35	229.53
789.67	229.46
789.99	229.45
790.32	229.43
790.64	229.39
790.96	229.45
791.28	229.40
791.61	229.33
791.93	229.30
792.25	229.27
792.57	229.32
792.89	229.27
793.21	229.23
793.54	229.20
793.86	229.15
794.18	229.10
794.50	229.05
794.82	229.00
795.14	228.97
795.47	228.94
795.79	228.92
796.11	228.87
796.43	228.82
796.75	228.77
797.07	228.72
797.39	228.70
797.71	228.55
798.04	228.49
798.36	228.48
798.68	228.45
799.00	228.42
799.32	228.33
799.64	228.31
799.96	228.27
800.28	228.18
800.60	228.17
800.92	228.14
801.24	228.07
801.56	228.08
801.89	228.01
802.21	227.97
802.53	227.91
802.85	227.91
803.17	227.92
803.49	227.88
803.81	227.84
804.13	227.81
804.45	227.78
804.77	227.76
805.09	227.71
805.41	227.66
805.73	227.60
806.05	227.57
806.37	227.52
806.69	227.47
807.01	227.47
807.33	227.43
807.65	227.37
807.97	227.42
808.28	227.35
808.60	227.35
808.92	227.34
809.24	227.34
809.56	227.29
809.88	227.26
810.20	227.26
810.52	227.25
810.84	227.20
811.16	227.17
811.48	227.13
811.80	227.16
812.12	227.11
812.43	227.11
812.75	227.03
813.07	226.98
813.39	226.98
813.71	226.97
814.03	226.94
814.35	226.93
814.67	226.87
814.98	226.83
815.30	226.79
815.62	226.76
815.94	226.69
816.26	226.70
816.58	226.63
816.89	226.59
817.21	226.53
817.53	226.51
817.85	226.50
818.17	226.47
818.48	226.41
818.80	226.42
819.12	226.37
819.44	226.39
819.76	226.37
820.07	226.32
820.39	226.28
820.71	226.29
821.03	226.25
821.34	226.21
821.66	226.20
821.98	226.20
822.30	226.17
822.61	226.21
822.93	226.16
823.25	226.14
823.57	226.13
823.88	226.14
824.20	226.16
824.52	226.15
824.83	226.14
825.15	226.09
825.47	226.03
825.79	226.00
826.10	225.99
826.42	225.96
826.74	225.98
827.05	225.99
827.37	225.94
827.69	225.94
828.00	225.95
828.32	225.99
828.64	225.95
828.95	225.98
829.27	225.93
829.58	225.91
829.90	225.92
830.22	225.89
830.53	225.87
830.85	225.82
831.17	225.81
831.48	225.78
831.80	225.82
832.11	225.87
832.43	225.86
832.75	225.85
833.06	225.91
833.38	225.88
833.69	225.85
834.01	225.88
834.32	225.86
834.64	225.81
834.96	225.79
835.27	225.80
835.59	225.74
835.90	225.73
836.22	225.72
836.53	225.68
836.85	225.69
837.16	225.76
837.48	225.73
837.79	225.73
838.11	225.72
838.42	225.68
838.74	225.69
839.05	225.67
839.37	225.64
839.68	225.56
840.00	225.54
840.31	225.54
840.63	225.52
840.94	225.54
841.26	225.57
841.57	225.54
841.88	225.56
842.20	225.58
842.51	225.55
842.83	225.54
843.14	225.63
843.46	225.63
843.77	225.56
844.08	225.59
844.40	225.56
844.71	225.58
845.03	225.58
845.34	225.54
845.65	225.57
845.97	225.60
846.28	225.62
846.60	225.65
846.91	225.61
847.22	225.57
847.54	225.56
847.85	225.54
848.16	225.54
848.48	225.50
848.79	225.52
849.10	225.57
849.42	225.58
849.73	225.49
850.04	225.47
850.36	225.45
850.67	225.48
850.98	225.47
851.30	225.45
851.61	225.44
851.92	225.43
852.23	225.44
852.55	225.44
852.86	225.45
853.17	225.42
853.49	225.46
853.80	225.49
854.11	225.50
854.42	225.49
854.74	225.48
855.05	225.49
855.36	225.45
855.67	225.43
855.99	225.44
856.30	225.57
856.61	225.55
856.92	225.54
857.23	225.51
857.55	225.49
857.86	225.49
858.17	225.48
858.48	225.49
858.79	225.45
859.11	225.42
859.42	225.38
859.73	225.37
860.04	225.36
860.35	225.32
860.66	225.25
860.98	225.25
861.29	225.26
861.60	225.26
861.91	225.29
862.22	225.28
862.53	225.25
862.84	225.10
863.16	225.15
863.47	225.14
863.78	225.16
864.09	225.17
864.40	225.17
864.71	225.19
865.02	225.19
865.33	225.18
865.64	225.18
865.95	225.18
866.27	225.23
866.58	225.20
866.89	225.24
867.20	225.28
867.51	225.24
867.82	225.22
868.13	225.26
868.44	225.25
868.75	225.24
869.06	225.25
869.37	225.25
869.68	225.20
869.99	225.22
870.30	225.20
870.61	225.20
870.92	225.20
871.23	225.16
871.54	225.19
871.85	225.24
872.16	225.27
872.47	225.23
872.78	225.17
873.09	225.18
873.40	225.18
873.71	225.15
874.02	225.19
874.33	225.16
874.64	225.09
874.95	225.10
875.26	225.06
875.56	225.03
875.87	225.01
876.18	225.01
876.49	225.08
876.80	225.06
877.11	225.08
877.42	225.07
877.73	225.09
878.04	225.03
878.35	225.01
878.66	225.02
878.96	225.01
879.27	225.01
879.58	225.00
879.89	224.98
880.20	225.02
880.51	224.99
880.82	225.01
881.12	225.00
881.43	224.96
881.74	224.95
882.05	224.95
882.36	224.96
882.67	224.97
882.97	224.85
883.28	224.84
883.59	224.77
883.90	224.76
884.21	224.77
884.51	224.78
884.82	224.76
885.13	224.73
885.44	224.73
885.74	224.73
886.05	224.73
886.36	224.73
886.67	224.69
886.98	224.73
887.28	224.71
887.59	224.71
887.90	224.71
888.20	224.69
888.51	224.70
888.82	224.67
889.13	224.65
889.43	224.74
889.74	224.73
890.05	224.76
890.35	224.73
890.66	224.73
890.97	224.72
891.28	224.69
891.58	224.69
891.89	224.68
892.20	224.68
892.50	224.66
892.81	224.65
893.12	224.63
893.42	224.58
893.73	224.60
894.04	224.60
894.34	224.60
894.65	224.63
894.95	224.63
895.26	224.64
895.57	224.71
895.87	224.63
896.18	224.67
896.48	224.68
896.79	224.70
897.10	224.70
897.40	224.66
897.71	224.70
898.01	224.68
898.32	224.70
898.63	224.69
898.93	224.68
899.24	224.67
899.54	224.66
899.85	224.68
900.15	224.69
900.46	224.70
900.76	224.70
901.07	224.69
901.38	224.68
901.68	224.69
901.99	224.63
902.29	224.60
902.60	224.59
902.90	224.54
903.21	224.55
903.51	224.51
903.82	224.58
904.12	224.56
904.43	224.58
904.73	224.56
905.03	224.56
905.34	224.66
905.64	224.67
905.95	224.69
906.25	224.67
906.56	224.64
906.86	224.66
907.17	224.66
907.47	224.68
907.77	224.71
908.08	224.71
908.38	224.74
908.69	224.76
908.99	224.75
909.30	224.81
909.60	224.79
909.90	224.81
910.21	224.75
910.51	224.74
910.81	224.73
911.12	224.75
911.42	224.75
911.73	224.64
912.03	224.66
912.33	224.65
912.64	224.66
912.94	224.65
913.24	224.61
913.55	224.62
913.85	224.59
914.15	224.59
914.46	224.60
914.76	224.56
915.06	224.57
915.37	224.56
915.67	224.55
915.97	224.52
916.27	224.49
916.58	224.51
916.88	224.49
917.18	224.50
917.49	224.59
917.79	224.57
918.09	224.63
918.39	224.65
918.70	224.67
919.00	224.67
919.30	224.71
919.60	224.73
919.91	224.70
920.21	224.76
920.51	224.73
920.81	224.72
921.12	224.77
921.42	224.77
921.72	224.76
922.02	224.74
922.32	224.80
922.63	224.82
922.93	224.85
923.23	224.90
923.53	224.89
923.83	224.84
924.13	224.84
924.44	224.81
924.74	224.81
925.04	224.79
925.34	224.80
925.64	224.77
925.94	224.76
926.24	224.83
926.55	224.78
926.85	224.78
927.15	224.82
927.45	224.80
927.75	224.81
928.05	224.83
928.35	224.83
928.65	224.86
928.95	224.88
929.26	224.86
929.56	224.86
929.86	224.87
930.16	224.83
930.46	224.86
930.76	224.87
931.06	224.82
931.36	224.82
931.66	224.83
931.96	224.85
932.26	224.83
932.56	224.80
932.86	224.83
933.16	224.83
933.46	224.81
933.76	224.80
934.06	224.79
934.36	224.78
934.66	224.81
934.96	224.76
935.26	224.75
935.56	224.73
935.86	224.72
936.16	224.72
936.46	224.71
936.76	224.69
937.06	224.70
937.36	224.70
937.66	224.69
937.96	224.67
938.26	224.63
938.56	224.66
938.86	224.63
939.16	224.65
939.46	224.68
939.76	224.66
940.06	224.66
940.35	224.64
940.65	224.61
940.95	224.56
941.25	224.57
941.55	224.56
941.85	224.58
942.15	224.58
942.45	224.59
942.75	224.60
943.04	224.59
943.34	224.59
943.64	224.59
943.94	224.57
944.24	224.57
944.54	224.57
944.84	224.54
945.13	224.56
945.43	224.51
945.73	224.48
946.03	224.53
946.33	224.50
946.62	224.48
946.92	224.51
947.22	224.53
947.52	224.50
947.82	224.47
948.11	224.44
948.41	224.43
948.71	224.40
949.01	224.37
949.31	224.35
949.60	224.32
949.90	224.34
950.20	224.34
950.50	224.35
950.79	224.34
951.09	224.37
951.39	224.34
951.69	224.35
951.98	224.37
952.28	224.33
952.58	224.35
952.87	224.38
953.17	224.37
953.47	224.37
953.76	224.40
954.06	224.40
954.36	224.41
954.66	224.43
954.95	224.46
955.25	224.51
955.55	224.54
955.84	224.55
956.14	224.58
956.44	224.63
956.73	224.61
957.03	224.62
957.32	224.63
957.62	224.64
957.92	224.64
958.21	224.62
958.51	224.73
958.81	224.76
959.10	224.78
959.40	224.79
959.69	224.81
959.99	224.82
960.29	224.88
960.58	224.90
960.88	224.92
961.17	224.94
961.47	224.93
961.76	224.94
962.06	224.95
962.36	224.92
962.65	224.92
962.95	224.93
963.24	224.92
963.54	224.96
963.83	224.97
964.13	225.03
964.42	225.03
964.72	224.97
965.01	224.92
965.31	224.93
965.60	224.93
965.90	225.00
966.19	224.97
966.49	224.97
966.78	224.95
967.08	224.95
967.37	224.94
967.67	224.96
967.96	224.99
968.26	225.02
968.55	225.05
968.85	225.05
969.14	225.05
969.43	225.08
969.73	225.03
970.02	224.99
970.32	224.94
970.61	224.94
970.91	224.90
971.20	224.92
971.49	224.90
971.79	224.90
972.08	224.82
972.38	224.82
972.67	224.85
972.96	224.85
973.26	224.84
973.55	224.87
973.85	224.81
974.14	224.80
974.43	224.79
974.73	224.79
975.02	224.80
975.31	224.83
975.61	224.85
975.90	224.86
976.19	224.89
976.49	224.91
976.78	224.92
977.07	224.90
977.37	224.92
977.66	224.92
977.95	224.93
978.24	224.93
978.54	224.95
978.83	224.93
979.12	224.92
979.42	224.92
979.71	224.89
980.00	224.90
980.29	224.91
980.59	224.87
980.88	224.89
981.17	224.85
981.46	224.81
981.76	224.80
982.05	224.81
982.34	224.79
982.63	224.78
982.93	224.76
983.22	224.80
983.51	224.80
983.80	224.83
984.09	224.83
984.39	224.82
984.68	224.78
984.97	224.79
985.26	224.78
985.55	224.81
985.85	224.79
986.14	224.82
986.43	224.83
986.72	224.83
987.01	224.79
987.30	224.78
987.59	224.77
987.89	224.78
988.18	224.75
988.47	224.78
988.76	224.80
989.05	224.81
989.34	224.80
989.63	224.79
989.92	224.76
990.22	224.70
990.51	224.72
990.80	224.74
991.09	224.72
991.38	224.71
991.67	224.66
991.96	224.66
992.25	224.64
992.54	224.62
992.83	224.63
993.12	224.65
993.41	224.67
993.70	224.73
993.99	224.73
994.28	224.76
994.58	224.74
994.87	224.68
995.16	224.69
995.45	224.71
995.74	224.68
996.03	224.68
996.32	224.75
996.61	224.75
996.90	224.73
997.19	224.72
997.48	224.74
997.77	224.74
998.06	224.75
998.34	224.75
998.63	224.75
998.92	224.73
999.21	224.70
999.50	224.71
999.79	224.66
1000.08	224.66
1000.37	224.65
1000.66	224.65
1000.95	224.74
1001.24	224.71
1001.53	224.69
1001.82	224.68
1002.11	224.65
1002.40	224.62
1002.68	224.65
1002.97	224.70
1003.26	224.71
1003.55	224.67
1003.84	224.69
1004.13	224.72
1004.42	224.71
1004.71	224.69
1004.99	224.71
1005.28	224.78
1005.57	224.71
1005.86	224.71
1006.15	224.70
1006.44	224.67
1006.72	224.69
1007.01	224.63
1007.30	224.67
1007.59	224.66
1007.88	224.65
1008.17	224.67
1008.45	224.68
1008.74	224.64
1009.03	224.64
1009.32	224.61
1009.60	224.59
1009.89	224.56
1010.18	224.50
1010.47	224.50
1010.76	224.50
1011.04	224.49
1011.33	224.49
1011.62	224.53
1011.91	224.54
1012.19	224.54
1012.48	224.54
1012.77	224.52
1013.05	224.57
1013.34	224.53
1013.63	224.50
1013.92	224.54
1014.20	224.54
1014.49	224.50
1014.78	224.50
1015.06	224.46
1015.35	224.46
1015.64	224.52
1015.92	224.56
1016.21	224.54
1016.50	224.55
1016.78	224.56
1017.07	224.57
1017.36	224.53
1017.64	224.50
1017.93	224.51
1018.22	224.50
1018.50	224.49
1018.79	224.50
1019.08	224.49
1019.36	224.49
1019.65	224.53
1019.93	224.53
1020.22	224.58
1020.51	224.67
1020.79	224.68
1021.08	224.51
1021.36	224.11
1021.65	224.75
1021.94	224.99
1022.22	224.65
1022.51	224.68
1022.79	224.90
1023.08	225.25
1023.36	226.07
1023.65	224.74
>>>>>End Processed Spectral Data<<<<<
