SpectraSuite Data File
++++++++++++++++++++++++++++++++++++
Date: Fri Feb 01 15:40:36 EST 2013
User: group
Dark Spectrum Present: No
Reference Spectrum Present: No
Number of Sampled Component Spectra: 1
Spectrometers: USB2E7196
Integration Time (usec): 35000 (USB2E7196)
Spectra Averaged: 100 (USB2E7196)
Boxcar Smoothing: 10 (USB2E7196)
Correct for Electrical Dark: No (USB2E7196)
Strobe/Lamp Enabled: No (USB2E7196)
Correct for Detector Non-linearity: No (USB2E7196)
Correct for Stray Light: No (USB2E7196)
Number of Pixels in Processed Spectrum: 2048
>>>>>Begin Processed Spectral Data<<<<<
339.09	0.00
339.48	214.95
339.86	216.78
340.24	218.22
340.63	218.96
341.01	221.56
341.39	222.15
341.78	223.14
342.16	224.60
342.54	225.11
342.93	213.51
343.31	224.32
343.69	224.86
344.07	225.30
344.46	225.70
344.84	226.10
345.22	226.37
345.60	226.59
345.99	226.77
346.37	226.92
346.75	227.03
347.13	227.07
347.52	227.11
347.90	227.18
348.28	227.19
348.66	227.23
349.05	227.22
349.43	227.24
349.81	227.26
350.19	227.31
350.57	227.37
350.96	227.44
351.34	227.50
351.72	227.58
352.10	227.71
352.48	227.80
352.87	227.87
353.25	227.96
353.63	228.04
354.01	228.11
354.39	228.16
354.77	228.22
355.15	228.35
355.54	228.39
355.92	228.43
356.30	228.50
356.68	228.61
357.06	228.67
357.44	228.73
357.82	228.81
358.20	228.87
358.58	228.93
358.97	228.98
359.35	229.07
359.73	229.13
360.11	229.15
360.49	229.18
360.87	229.20
361.25	229.25
361.63	229.32
362.01	229.37
362.39	229.38
362.77	229.44
363.15	229.46
363.53	229.47
363.91	229.49
364.29	229.52
364.67	229.46
365.05	229.49
365.43	229.51
365.81	229.54
366.19	229.61
366.57	229.65
366.95	229.61
367.33	229.58
367.71	229.56
368.09	229.61
368.47	229.57
368.85	229.59
369.23	229.57
369.61	229.51
369.99	229.50
370.37	229.49
370.75	229.50
371.13	229.42
371.51	229.38
371.89	229.36
372.27	229.31
372.65	229.27
373.03	229.20
373.41	229.14
373.78	229.04
374.16	228.91
374.54	228.81
374.92	228.78
375.30	228.70
375.68	228.65
376.06	228.54
376.44	228.49
376.82	228.41
377.19	228.31
377.57	228.26
377.95	228.16
378.33	228.08
378.71	227.93
379.09	227.88
379.47	227.84
379.84	227.75
380.22	227.67
380.60	227.59
380.98	227.53
381.36	227.44
381.73	227.38
382.11	227.33
382.49	227.28
382.87	227.22
383.25	227.17
383.62	227.19
384.00	227.10
384.38	227.02
384.76	226.97
385.13	226.93
385.51	226.84
385.89	226.78
386.27	226.71
386.64	226.70
387.02	226.65
387.40	226.60
387.78	226.57
388.15	226.55
388.53	226.53
388.91	226.51
389.29	226.47
389.66	226.48
390.04	226.45
390.42	226.38
390.79	226.37
391.17	226.35
391.55	226.20
391.92	226.22
392.30	226.24
392.68	226.24
393.05	226.25
393.43	226.29
393.81	226.31
394.18	226.33
394.56	226.33
394.94	226.35
395.31	226.33
395.69	226.40
396.06	226.38
396.44	226.40
396.82	226.39
397.19	226.48
397.57	226.49
397.95	226.54
398.32	226.59
398.70	226.66
399.07	226.73
399.45	226.82
399.82	226.88
400.20	226.91
400.58	226.96
400.95	227.02
401.33	227.10
401.70	227.23
402.08	227.35
402.45	227.45
402.83	227.59
403.20	227.72
403.58	227.83
403.95	228.01
404.33	228.14
404.71	228.27
405.08	228.45
405.46	228.60
405.83	228.76
406.21	228.97
406.58	229.09
406.96	229.24
407.33	229.42
407.70	229.61
408.08	229.93
408.45	230.18
408.83	230.41
409.20	230.64
409.58	230.85
409.95	231.10
410.33	231.39
410.70	231.64
411.08	231.91
411.45	232.20
411.82	232.50
412.20	232.88
412.57	233.33
412.95	233.67
413.32	234.07
413.69	234.49
414.07	234.88
414.44	235.38
414.82	235.87
415.19	236.44
415.56	237.02
415.94	237.53
416.31	238.17
416.68	238.79
417.06	239.50
417.43	240.16
417.81	240.90
418.18	241.66
418.55	242.47
418.93	243.38
419.30	244.27
419.67	245.20
420.04	246.12
420.42	247.08
420.79	248.24
421.16	249.37
421.54	250.52
421.91	251.75
422.28	253.01
422.66	254.36
423.03	255.63
423.40	256.96
423.77	258.40
424.15	259.81
424.52	261.32
424.89	262.92
425.26	264.48
425.64	266.00
426.01	267.57
426.38	269.27
426.75	270.94
427.13	272.67
427.50	274.48
427.87	276.38
428.24	278.24
428.61	279.99
428.99	281.98
429.36	284.14
429.73	286.19
430.10	288.21
430.47	290.26
430.85	292.42
431.22	294.67
431.59	297.05
431.96	299.30
432.33	301.80
432.70	304.20
433.08	307.03
433.45	309.64
433.82	312.27
434.19	315.17
434.56	317.96
434.93	320.61
435.30	323.24
435.68	326.11
436.05	328.96
436.42	331.70
436.79	334.22
437.16	336.85
437.53	339.70
437.90	342.48
438.27	345.24
438.64	348.04
439.01	350.65
439.38	352.89
439.75	355.07
440.13	357.49
440.50	359.82
440.87	361.64
441.24	363.62
441.61	365.80
441.98	367.31
442.35	369.10
442.72	370.99
443.09	372.79
443.46	373.78
443.83	374.33
444.20	374.89
444.57	375.72
444.94	376.03
445.31	376.32
445.68	376.71
446.05	376.75
446.42	376.33
446.79	375.89
447.16	375.39
447.53	375.05
447.90	373.92
448.27	372.76
448.64	371.16
449.01	370.00
449.37	367.98
449.74	366.03
450.11	363.79
450.48	361.36
450.85	358.85
451.22	356.73
451.59	354.73
451.96	352.77
452.33	350.12
452.70	347.78
453.07	344.99
453.43	342.08
453.80	339.38
454.17	336.75
454.54	334.18
454.91	331.53
455.28	328.86
455.65	326.38
456.02	323.96
456.38	321.82
456.75	319.13
457.12	316.86
457.49	314.66
457.86	312.48
458.23	310.60
458.59	308.51
458.96	306.41
459.33	304.56
459.70	302.68
460.07	301.21
460.43	299.49
460.80	297.87
461.17	296.44
461.54	294.89
461.91	293.48
462.27	292.03
462.64	290.76
463.01	289.40
463.38	288.09
463.74	286.70
464.11	285.57
464.48	284.57
464.85	283.47
465.21	282.60
465.58	281.65
465.95	280.52
466.32	279.62
466.68	278.69
467.05	277.82
467.42	276.93
467.78	275.96
468.15	275.08
468.52	274.42
468.88	273.52
469.25	272.76
469.62	272.12
469.98	271.45
470.35	270.82
470.72	270.22
471.08	269.58
471.45	269.06
471.82	268.48
472.18	267.89
472.55	267.49
472.92	266.97
473.28	266.53
473.65	266.10
474.02	265.66
474.38	265.33
474.75	264.94
475.11	264.59
475.48	264.38
475.85	264.17
476.21	263.90
476.58	263.74
476.94	263.58
477.31	263.40
477.67	263.27
478.04	263.18
478.41	263.12
478.77	263.13
479.14	263.10
479.50	263.13
479.87	263.19
480.23	263.26
480.60	263.34
480.96	263.44
481.33	263.64
481.69	263.81
482.06	263.99
482.42	264.25
482.79	264.52
483.15	264.80
483.52	265.16
483.88	265.55
484.25	265.92
484.61	266.33
484.98	266.76
485.34	267.33
485.71	267.90
486.07	268.50
486.44	269.06
486.80	269.72
487.17	270.43
487.53	271.28
487.90	272.09
488.26	273.05
488.62	274.03
488.99	274.98
489.35	276.05
489.72	277.17
490.08	278.39
490.44	279.63
490.81	280.96
491.17	282.30
491.54	283.75
491.90	285.28
492.26	286.97
492.63	288.69
492.99	290.44
493.36	292.32
493.72	294.35
494.08	296.48
494.45	298.77
494.81	301.12
495.17	303.51
495.54	306.08
495.90	308.69
496.26	311.48
496.63	314.46
496.99	317.53
497.35	320.78
497.72	324.14
498.08	327.67
498.44	331.33
498.80	335.23
499.17	339.30
499.53	343.46
499.89	347.82
500.26	352.38
500.62	357.06
500.98	362.01
501.34	367.09
501.71	372.40
502.07	377.81
502.43	383.38
502.79	389.21
503.16	395.32
503.52	401.65
503.88	408.07
504.24	414.70
504.60	421.60
504.97	428.74
505.33	436.04
505.69	443.73
506.05	451.52
506.41	459.42
506.78	467.56
507.14	476.06
507.50	484.77
507.86	493.76
508.22	502.94
508.59	512.16
508.95	521.71
509.31	531.55
509.67	541.70
510.03	552.02
510.39	562.56
510.75	573.31
511.12	584.18
511.48	595.51
511.84	606.91
512.20	618.45
512.56	630.42
512.92	642.70
513.28	655.07
513.64	667.51
514.00	680.19
514.37	693.12
514.73	706.20
515.09	719.35
515.45	732.67
515.81	746.25
516.17	760.22
516.53	774.41
516.89	788.63
517.25	802.84
517.61	817.39
517.97	832.00
518.33	846.45
518.69	861.24
519.05	876.17
519.41	891.48
519.77	907.05
520.13	922.45
520.49	937.75
520.85	953.21
521.21	969.07
521.57	985.41
521.93	1001.12
522.29	1017.58
522.65	1033.75
523.01	1050.00
523.37	1066.02
523.73	1082.20
524.09	1098.25
524.45	1114.47
524.81	1131.05
525.17	1147.82
525.53	1164.75
525.89	1181.73
526.25	1198.64
526.61	1215.08
526.97	1231.81
527.33	1248.27
527.68	1264.89
528.04	1281.57
528.40	1298.24
528.76	1315.16
529.12	1331.82
529.48	1348.78
529.84	1364.70
530.20	1381.41
530.56	1398.49
530.91	1415.95
531.27	1432.69
531.63	1449.20
531.99	1465.89
532.35	1481.94
532.71	1497.80
533.07	1513.96
533.42	1529.69
533.78	1545.64
534.14	1561.78
534.50	1577.20
534.86	1593.19
535.21	1608.43
535.57	1624.32
535.93	1639.83
536.29	1654.74
536.65	1669.67
537.00	1684.55
537.36	1699.89
537.72	1714.35
538.08	1728.69
538.44	1742.58
538.79	1756.53
539.15	1770.22
539.51	1783.94
539.87	1798.25
540.22	1811.95
540.58	1825.78
540.94	1839.31
541.29	1852.35
541.65	1865.23
542.01	1878.36
542.37	1890.64
542.72	1903.21
543.08	1914.93
543.44	1927.30
543.79	1938.54
544.15	1949.59
544.51	1961.01
544.87	1971.99
545.22	1982.68
545.58	1993.02
545.94	2002.72
546.29	2012.58
546.65	2022.42
547.01	2031.64
547.36	2040.29
547.72	2048.78
548.07	2056.50
548.43	2064.55
548.79	2072.62
549.14	2080.15
549.50	2087.53
549.86	2095.25
550.21	2102.40
550.57	2109.54
550.92	2116.03
551.28	2123.04
551.64	2130.17
551.99	2136.84
552.35	2143.01
552.70	2149.21
553.06	2155.06
553.41	2161.47
553.77	2167.58
554.13	2173.55
554.48	2179.74
554.84	2185.16
555.19	2190.57
555.55	2195.75
555.90	2200.16
556.26	2204.80
556.61	2209.55
556.97	2213.73
557.32	2217.78
557.68	2221.96
558.03	2226.31
558.39	2230.13
558.74	2234.79
559.10	2238.60
559.45	2242.26
559.81	2246.59
560.16	2250.51
560.52	2253.79
560.87	2257.22
561.23	2259.74
561.58	2262.88
561.94	2265.29
562.29	2267.72
562.64	2270.29
563.00	2272.83
563.35	2276.38
563.71	2279.68
564.06	2282.81
564.42	2285.71
564.77	2288.17
565.12	2290.34
565.48	2292.17
565.83	2293.94
566.19	2295.27
566.54	2296.19
566.89	2297.12
567.25	2297.59
567.60	2298.86
567.96	2300.49
568.31	2301.32
568.66	2302.46
569.02	2302.94
569.37	2303.38
569.72	2304.16
570.08	2304.32
570.43	2304.37
570.78	2303.70
571.14	2301.96
571.49	2300.55
571.84	2300.12
572.20	2298.99
572.55	2297.93
572.90	2296.47
573.26	2295.03
573.61	2293.27
573.96	2291.47
574.31	2288.48
574.67	2285.49
575.02	2281.92
575.37	2278.48
575.72	2274.52
576.08	2271.31
576.43	2268.00
576.78	2264.33
577.13	2261.24
577.49	2258.16
577.84	2254.64
578.19	2250.97
578.54	2247.37
578.90	2243.23
579.25	2237.69
579.60	2232.69
579.95	2227.84
580.30	2222.77
580.66	2217.54
581.01	2212.58
581.36	2207.60
581.71	2203.36
582.06	2198.80
582.42	2194.17
582.77	2188.91
583.12	2184.48
583.47	2179.49
583.82	2174.36
584.17	2168.94
584.53	2163.29
584.88	2157.48
585.23	2151.75
585.58	2146.30
585.93	2140.91
586.28	2136.03
586.63	2131.04
586.98	2125.93
587.34	2121.04
587.69	2116.01
588.04	2110.69
588.39	2104.98
588.74	2098.52
589.09	2092.35
589.44	2085.64
589.79	2079.74
590.14	2074.23
590.49	2067.51
590.84	2061.16
591.19	2055.14
591.54	2048.70
591.89	2041.39
592.25	2034.65
592.60	2027.39
592.95	2019.70
593.30	2012.30
593.65	2004.75
594.00	1997.68
594.35	1990.49
594.70	1982.39
595.05	1975.10
595.40	1967.81
595.75	1960.12
596.10	1953.77
596.45	1947.14
596.80	1940.94
597.15	1934.14
597.50	1926.84
597.85	1920.40
598.19	1913.63
598.54	1906.51
598.89	1899.94
599.24	1893.99
599.59	1887.10
599.94	1880.95
600.29	1874.61
600.64	1868.12
600.99	1860.61
601.34	1853.78
601.69	1846.90
602.04	1840.06
602.39	1832.79
602.74	1825.99
603.08	1819.33
603.43	1812.61
603.78	1805.32
604.13	1797.96
604.48	1790.68
604.83	1783.84
605.18	1776.80
605.53	1768.92
605.87	1760.84
606.22	1753.57
606.57	1745.68
606.92	1738.52
607.27	1731.24
607.62	1724.28
607.96	1716.90
608.31	1710.30
608.66	1702.64
609.01	1694.77
609.36	1687.15
609.70	1679.10
610.05	1671.02
610.40	1663.33
610.75	1655.03
611.10	1647.16
611.44	1639.01
611.79	1631.00
612.14	1622.25
612.49	1613.13
612.83	1604.78
613.18	1596.65
613.53	1588.40
613.88	1579.86
614.22	1571.59
614.57	1562.97
614.92	1554.99
615.27	1547.36
615.61	1538.96
615.96	1530.95
616.31	1523.43
616.65	1516.07
617.00	1508.50
617.35	1500.83
617.70	1492.48
618.04	1484.00
618.39	1475.94
618.74	1468.18
619.08	1459.94
619.43	1452.46
619.78	1445.52
620.12	1438.28
620.47	1430.85
620.82	1422.81
621.16	1415.37
621.51	1407.74
621.85	1400.15
622.20	1391.59
622.55	1383.23
622.89	1375.45
623.24	1367.74
623.59	1360.45
623.93	1352.90
624.28	1345.68
624.62	1338.14
624.97	1330.99
625.32	1324.28
625.66	1317.25
626.01	1310.05
626.35	1302.59
626.70	1294.86
627.04	1287.10
627.39	1279.38
627.73	1271.92
628.08	1264.98
628.43	1257.66
628.77	1250.28
629.12	1242.73
629.46	1235.64
629.81	1228.28
630.15	1220.99
630.50	1213.64
630.84	1205.39
631.19	1197.58
631.53	1190.11
631.88	1182.54
632.22	1174.91
632.57	1167.52
632.91	1159.91
633.26	1152.45
633.60	1145.06
633.95	1137.95
634.29	1130.91
634.64	1124.29
634.98	1116.96
635.32	1109.70
635.67	1103.12
636.01	1096.47
636.36	1089.72
636.70	1083.22
637.05	1076.65
637.39	1070.17
637.73	1063.66
638.08	1057.87
638.42	1051.73
638.77	1045.26
639.11	1038.75
639.45	1032.38
639.80	1025.75
640.14	1019.38
640.49	1012.95
640.83	1006.63
641.17	1000.43
641.52	994.13
641.86	987.66
642.20	981.84
642.55	975.64
642.89	969.18
643.23	962.72
643.58	956.86
643.92	950.54
644.26	944.45
644.61	938.41
644.95	932.38
645.29	925.64
645.64	919.00
645.98	912.63
646.32	906.76
646.66	900.67
647.01	894.92
647.35	889.13
647.69	883.30
648.04	877.82
648.38	871.97
648.72	865.94
649.06	859.89
649.41	854.04
649.75	847.99
650.09	842.04
650.43	836.23
650.78	830.04
651.12	824.15
651.46	818.36
651.80	812.59
652.14	807.18
652.49	801.83
652.83	796.68
653.17	790.99
653.51	785.26
653.85	779.93
654.20	774.22
654.54	768.28
654.88	762.52
655.22	756.58
655.56	750.91
655.90	745.51
656.25	740.24
656.59	734.83
656.93	729.80
657.27	724.55
657.61	719.09
657.95	714.02
658.29	708.90
658.64	703.67
658.98	698.41
659.32	692.96
659.66	687.78
660.00	682.46
660.34	677.52
660.68	672.59
661.02	667.57
661.36	662.92
661.70	658.43
662.05	654.08
662.39	649.78
662.73	645.29
663.07	640.85
663.41	636.35
663.75	631.87
664.09	627.25
664.43	622.88
664.77	618.74
665.11	614.48
665.45	610.36
665.79	606.35
666.13	602.21
666.47	598.07
666.81	593.92
667.15	589.78
667.49	585.89
667.83	582.15
668.17	578.15
668.51	574.05
668.85	570.04
669.19	566.19
669.53	562.36
669.87	558.47
670.21	554.91
670.55	551.30
670.89	547.84
671.23	544.44
671.57	541.01
671.91	537.51
672.25	534.02
672.58	530.54
672.92	527.13
673.26	523.95
673.60	520.86
673.94	517.69
674.28	514.76
674.62	511.80
674.96	508.63
675.30	505.74
675.64	502.84
675.97	500.03
676.31	497.18
676.65	494.25
676.99	491.56
677.33	488.62
677.67	485.76
678.01	482.72
678.34	479.75
678.68	476.84
679.02	473.97
679.36	471.25
679.70	468.59
680.04	465.86
680.37	463.03
680.71	460.24
681.05	457.70
681.39	455.02
681.73	452.37
682.06	449.88
682.40	447.33
682.74	444.80
683.08	442.30
683.42	439.75
683.75	437.26
684.09	434.74
684.43	432.27
684.77	429.85
685.10	427.53
685.44	425.23
685.78	422.97
686.12	420.79
686.45	418.46
686.79	416.15
687.13	413.95
687.46	411.75
687.80	409.63
688.14	407.41
688.48	405.36
688.81	403.13
689.15	400.93
689.49	398.79
689.82	396.74
690.16	394.65
690.50	392.65
690.83	390.67
691.17	388.69
691.51	386.81
691.84	384.99
692.18	383.06
692.52	381.11
692.85	379.20
693.19	377.29
693.52	375.53
693.86	373.71
694.20	371.93
694.53	370.13
694.87	368.26
695.21	366.50
695.54	364.68
695.88	362.98
696.21	361.31
696.55	359.69
696.88	357.94
697.22	356.27
697.56	354.66
697.89	353.03
698.23	351.42
698.56	349.78
698.90	348.14
699.23	346.51
699.57	344.99
699.90	343.45
700.24	341.91
700.58	340.33
700.91	338.80
701.25	337.33
701.58	335.97
701.92	334.61
702.25	333.19
702.59	331.80
702.92	330.46
703.26	329.14
703.59	327.80
703.93	326.67
704.26	325.42
704.60	324.09
704.93	322.83
705.26	321.57
705.60	320.44
705.93	319.31
706.27	318.22
706.60	317.15
706.94	316.07
707.27	314.94
707.61	313.87
707.94	312.84
708.27	311.77
708.61	310.71
708.94	309.71
709.28	308.73
709.61	307.76
709.94	306.78
710.28	305.77
710.61	304.79
710.95	303.67
711.28	302.75
711.61	301.81
711.95	300.87
712.28	299.91
712.61	298.94
712.95	298.01
713.28	297.17
713.61	296.27
713.95	295.36
714.28	294.50
714.61	293.64
714.95	292.80
715.28	291.95
715.61	291.05
715.95	290.19
716.28	289.33
716.61	288.50
716.95	287.70
717.28	286.96
717.61	286.20
717.94	285.49
718.28	284.70
718.61	283.99
718.94	283.34
719.27	282.69
719.61	282.03
719.94	281.36
720.27	280.64
720.60	279.98
720.94	279.38
721.27	278.80
721.60	278.22
721.93	277.64
722.27	277.07
722.60	276.59
722.93	276.02
723.26	275.45
723.59	274.90
723.93	274.36
724.26	273.82
724.59	273.27
724.92	272.79
725.25	272.29
725.59	271.79
725.92	271.27
726.25	270.74
726.58	270.24
726.91	269.73
727.24	269.24
727.57	268.76
727.91	268.23
728.24	267.77
728.57	267.30
728.90	266.84
729.23	266.34
729.56	265.90
729.89	265.46
730.22	265.02
730.55	264.55
730.89	264.11
731.22	263.64
731.55	263.22
731.88	262.75
732.21	262.32
732.54	261.87
732.87	261.45
733.20	261.05
733.53	260.67
733.86	260.32
734.19	259.92
734.52	259.55
734.85	259.22
735.18	258.82
735.51	258.45
735.84	258.07
736.17	257.72
736.50	257.29
736.83	257.03
737.16	256.69
737.49	256.37
737.82	256.03
738.15	255.72
738.48	255.37
738.81	255.07
739.14	254.75
739.47	254.44
739.80	254.13
740.13	253.84
740.46	253.51
740.79	253.13
741.12	252.85
741.45	252.52
741.78	252.20
742.11	251.88
742.44	251.52
742.77	251.26
743.10	250.95
743.43	250.63
743.75	250.23
744.08	250.06
744.41	249.82
744.74	249.51
745.07	249.19
745.40	248.94
745.73	248.68
746.06	248.38
746.39	248.12
746.71	247.86
747.04	247.56
747.37	247.29
747.70	247.06
748.03	246.79
748.36	246.55
748.68	246.31
749.01	246.07
749.34	245.86
749.67	245.60
750.00	245.40
750.33	245.26
750.65	245.06
750.98	244.69
751.31	244.45
751.64	244.27
751.97	244.15
752.29	243.92
752.62	243.69
752.95	243.50
753.28	243.26
753.60	243.03
753.93	242.87
754.26	242.67
754.59	242.47
754.91	242.25
755.24	242.06
755.57	241.87
755.90	241.69
756.22	241.49
756.55	241.28
756.88	241.07
757.20	240.87
757.53	240.65
757.86	240.53
758.19	240.37
758.51	240.18
758.84	239.95
759.17	239.79
759.49	239.63
759.82	239.50
760.15	239.36
760.47	239.22
760.80	239.05
761.13	238.90
761.45	238.75
761.78	238.64
762.11	238.49
762.43	238.34
762.76	238.19
763.08	238.07
763.41	237.98
763.74	237.85
764.06	237.69
764.39	237.58
764.71	237.39
765.04	237.22
765.37	237.07
765.69	236.97
766.02	236.86
766.34	236.75
766.67	236.61
767.00	236.52
767.32	236.46
767.65	236.39
767.97	236.30
768.30	236.17
768.62	236.05
768.95	235.93
769.27	235.80
769.60	235.75
769.92	235.63
770.25	235.48
770.57	235.38
770.90	235.28
771.22	235.17
771.55	235.11
771.87	235.07
772.20	234.98
772.52	234.92
772.85	234.94
773.17	234.83
773.50	234.74
773.82	234.64
774.15	234.50
774.47	234.35
774.80	234.21
775.12	234.13
775.45	234.04
775.77	233.98
776.09	233.90
776.42	233.78
776.74	233.73
777.07	233.68
777.39	233.57
777.72	233.51
778.04	233.47
778.36	233.40
778.69	233.28
779.01	233.24
779.33	233.11
779.66	232.88
779.98	232.82
780.31	232.73
780.63	232.65
780.95	232.61
781.28	232.53
781.60	232.50
781.92	232.42
782.25	232.37
782.57	232.30
782.89	232.26
783.22	232.19
783.54	232.12
783.86	232.07
784.19	232.05
784.51	231.97
784.83	231.91
785.16	231.84
785.48	231.80
785.80	231.78
786.12	231.74
786.45	231.73
786.77	231.68
787.09	231.64
787.42	231.59
787.74	231.56
788.06	231.54
788.38	231.49
788.71	231.47
789.03	231.45
789.35	231.41
789.67	231.36
789.99	231.34
790.32	231.28
790.64	231.22
790.96	231.25
791.28	231.20
791.61	231.17
791.93	231.14
792.25	231.10
792.57	231.12
792.89	231.06
793.21	231.03
793.54	230.99
793.86	230.94
794.18	230.92
794.50	230.86
794.82	230.81
795.14	230.80
795.47	230.77
795.79	230.73
796.11	230.67
796.43	230.64
796.75	230.60
797.07	230.59
797.39	230.59
797.71	230.48
798.04	230.48
798.36	230.42
798.68	230.39
799.00	230.40
799.32	230.26
799.64	230.27
799.96	230.24
800.28	230.22
800.60	230.16
800.92	230.13
801.24	230.09
801.56	230.09
801.89	229.99
802.21	229.95
802.53	229.88
802.85	229.85
803.17	229.85
803.49	229.77
803.81	229.70
804.13	229.64
804.45	229.61
804.77	229.56
805.09	229.54
805.41	229.51
805.73	229.44
806.05	229.41
806.37	229.33
806.69	229.28
807.01	229.27
807.33	229.30
807.65	229.23
807.97	229.25
808.28	229.20
808.60	229.22
808.92	229.20
809.24	229.24
809.56	229.24
809.88	229.18
810.20	229.21
810.52	229.22
810.84	229.19
811.16	229.15
811.48	229.13
811.80	229.14
812.12	229.14
812.43	229.11
812.75	229.12
813.07	229.10
813.39	229.09
813.71	229.03
814.03	229.00
814.35	229.00
814.67	228.94
814.98	228.91
815.30	228.88
815.62	228.86
815.94	228.77
816.26	228.79
816.58	228.77
816.89	228.77
817.21	228.72
817.53	228.73
817.85	228.68
818.17	228.64
818.48	228.59
818.80	228.58
819.12	228.54
819.44	228.51
819.76	228.47
820.07	228.46
820.39	228.47
820.71	228.43
821.03	228.45
821.34	228.42
821.66	228.45
821.98	228.48
822.30	228.47
822.61	228.54
822.93	228.49
823.25	228.45
823.57	228.40
823.88	228.44
824.20	228.41
824.52	228.44
824.83	228.46
825.15	228.46
825.47	228.42
825.79	228.45
826.10	228.47
826.42	228.48
826.74	228.48
827.05	228.48
827.37	228.50
827.69	228.45
828.00	228.49
828.32	228.46
828.64	228.43
828.95	228.49
829.27	228.45
829.58	228.41
829.90	228.43
830.22	228.45
830.53	228.40
830.85	228.40
831.17	228.37
831.48	228.34
831.80	228.30
832.11	228.33
832.43	228.29
832.75	228.28
833.06	228.33
833.38	228.29
833.69	228.27
834.01	228.27
834.32	228.25
834.64	228.20
834.96	228.19
835.27	228.17
835.59	228.11
835.90	228.10
836.22	228.12
836.53	228.07
836.85	228.02
837.16	228.11
837.48	228.11
837.79	228.13
838.11	228.10
838.42	228.11
838.74	228.09
839.05	228.05
839.37	228.02
839.68	227.94
840.00	227.91
840.31	227.90
840.63	227.88
840.94	227.85
841.26	227.83
841.57	227.82
841.88	227.82
842.20	227.81
842.51	227.76
842.83	227.74
843.14	227.84
843.46	227.83
843.77	227.77
844.08	227.76
844.40	227.72
844.71	227.71
845.03	227.68
845.34	227.65
845.65	227.67
845.97	227.66
846.28	227.65
846.60	227.67
846.91	227.67
847.22	227.63
847.54	227.67
847.85	227.66
848.16	227.64
848.48	227.61
848.79	227.62
849.10	227.62
849.42	227.63
849.73	227.54
850.04	227.55
850.36	227.54
850.67	227.55
850.98	227.55
851.30	227.56
851.61	227.57
851.92	227.58
852.23	227.63
852.55	227.60
852.86	227.60
853.17	227.61
853.49	227.64
853.80	227.65
854.11	227.71
854.42	227.74
854.74	227.72
855.05	227.74
855.36	227.73
855.67	227.75
855.99	227.74
856.30	227.86
856.61	227.87
856.92	227.84
857.23	227.84
857.55	227.81
857.86	227.81
858.17	227.85
858.48	227.85
858.79	227.81
859.11	227.88
859.42	227.90
859.73	227.88
860.04	227.85
860.35	227.85
860.66	227.77
860.98	227.76
861.29	227.79
861.60	227.77
861.91	227.78
862.22	227.74
862.53	227.73
862.84	227.61
863.16	227.65
863.47	227.65
863.78	227.64
864.09	227.68
864.40	227.68
864.71	227.67
865.02	227.67
865.33	227.67
865.64	227.60
865.95	227.58
866.27	227.65
866.58	227.67
866.89	227.67
867.20	227.65
867.51	227.64
867.82	227.63
868.13	227.65
868.44	227.63
868.75	227.66
869.06	227.65
869.37	227.67
869.68	227.60
869.99	227.59
870.30	227.61
870.61	227.60
870.92	227.60
871.23	227.60
871.54	227.62
871.85	227.65
872.16	227.66
872.47	227.63
872.78	227.58
873.09	227.59
873.40	227.58
873.71	227.60
874.02	227.61
874.33	227.58
874.64	227.54
874.95	227.56
875.26	227.50
875.56	227.48
875.87	227.47
876.18	227.50
876.49	227.56
876.80	227.51
877.11	227.49
877.42	227.46
877.73	227.42
878.04	227.37
878.35	227.34
878.66	227.32
878.96	227.32
879.27	227.32
879.58	227.27
879.89	227.27
880.20	227.29
880.51	227.26
880.82	227.27
881.12	227.28
881.43	227.23
881.74	227.24
882.05	227.24
882.36	227.24
882.67	227.23
882.97	227.17
883.28	227.19
883.59	227.18
883.90	227.19
884.21	227.21
884.51	227.19
884.82	227.16
885.13	227.16
885.44	227.16
885.74	227.09
886.05	227.11
886.36	227.07
886.67	227.03
886.98	227.10
887.28	227.12
887.59	227.13
887.90	227.15
888.20	227.15
888.51	227.14
888.82	227.12
889.13	227.13
889.43	227.19
889.74	227.18
890.05	227.18
890.35	227.19
890.66	227.21
890.97	227.20
891.28	227.24
891.58	227.26
891.89	227.25
892.20	227.29
892.50	227.28
892.81	227.31
893.12	227.32
893.42	227.27
893.73	227.28
894.04	227.25
894.34	227.25
894.65	227.26
894.95	227.29
895.26	227.29
895.57	227.32
895.87	227.26
896.18	227.25
896.48	227.28
896.79	227.26
897.10	227.25
897.40	227.28
897.71	227.28
898.01	227.32
898.32	227.35
898.63	227.35
898.93	227.38
899.24	227.39
899.54	227.35
899.85	227.38
900.15	227.35
900.46	227.38
900.76	227.40
901.07	227.41
901.38	227.42
901.68	227.45
901.99	227.45
902.29	227.44
902.60	227.44
902.90	227.40
903.21	227.44
903.51	227.43
903.82	227.44
904.12	227.43
904.43	227.39
904.73	227.36
905.03	227.36
905.34	227.44
905.64	227.43
905.95	227.42
906.25	227.40
906.56	227.41
906.86	227.41
907.17	227.39
907.47	227.40
907.77	227.36
908.08	227.33
908.38	227.34
908.69	227.37
908.99	227.39
909.30	227.40
909.60	227.37
909.90	227.38
910.21	227.35
910.51	227.35
910.81	227.34
911.12	227.36
911.42	227.39
911.73	227.26
912.03	227.26
912.33	227.29
912.64	227.26
912.94	227.22
913.24	227.21
913.55	227.18
913.85	227.17
914.15	227.18
914.46	227.20
914.76	227.12
915.06	227.07
915.37	227.03
915.67	227.02
915.97	227.02
916.27	227.00
916.58	227.00
916.88	226.99
917.18	226.95
917.49	227.01
917.79	226.97
918.09	226.99
918.39	227.03
918.70	227.03
919.00	227.04
919.30	227.09
919.60	227.06
919.91	227.04
920.21	227.02
920.51	226.96
920.81	226.94
921.12	226.98
921.42	227.00
921.72	227.02
922.02	226.99
922.32	226.98
922.63	226.94
922.93	226.98
923.23	226.94
923.53	226.95
923.83	226.87
924.13	226.89
924.44	226.87
924.74	226.88
925.04	226.87
925.34	226.85
925.64	226.83
925.94	226.81
926.24	226.85
926.55	226.83
926.85	226.87
927.15	226.83
927.45	226.81
927.75	226.80
928.05	226.80
928.35	226.84
928.65	226.86
928.95	226.88
929.26	226.86
929.56	226.90
929.86	226.91
930.16	226.91
930.46	226.87
930.76	226.89
931.06	226.83
931.36	226.82
931.66	226.85
931.96	226.84
932.26	226.88
932.56	226.85
932.86	226.90
933.16	226.89
933.46	226.92
933.76	226.93
934.06	226.95
934.36	227.00
934.66	226.98
934.96	226.98
935.26	226.99
935.56	227.01
935.86	226.99
936.16	227.01
936.46	227.01
936.76	227.05
937.06	227.05
937.36	227.06
937.66	227.07
937.96	227.08
938.26	227.08
938.56	227.10
938.86	227.12
939.16	227.14
939.46	227.16
939.76	227.17
940.06	227.16
940.35	227.16
940.65	227.11
940.95	227.17
941.25	227.14
941.55	227.18
941.85	227.15
942.15	227.18
942.45	227.19
942.75	227.19
943.04	227.18
943.34	227.23
943.64	227.24
943.94	227.21
944.24	227.24
944.54	227.25
944.84	227.25
945.13	227.24
945.43	227.23
945.73	227.25
946.03	227.25
946.33	227.23
946.62	227.22
946.92	227.19
947.22	227.17
947.52	227.20
947.82	227.17
948.11	227.18
948.41	227.19
948.71	227.16
949.01	227.18
949.31	227.15
949.60	227.13
949.90	227.12
950.20	227.10
950.50	227.05
950.79	227.04
951.09	227.04
951.39	227.01
951.69	227.00
951.98	226.99
952.28	226.98
952.58	226.99
952.87	226.99
953.17	226.98
953.47	226.99
953.76	226.95
954.06	226.93
954.36	226.91
954.66	226.88
954.95	226.92
955.25	226.90
955.55	226.91
955.84	226.89
956.14	226.88
956.44	226.91
956.73	226.90
957.03	226.87
957.32	226.87
957.62	226.86
957.92	226.83
958.21	226.83
958.51	226.91
958.81	226.90
959.10	226.88
959.40	226.92
959.69	226.92
959.99	226.94
960.29	226.97
960.58	226.96
960.88	226.96
961.17	226.96
961.47	226.98
961.76	226.98
962.06	226.95
962.36	226.94
962.65	226.94
962.95	226.94
963.24	226.93
963.54	226.90
963.83	226.91
964.13	226.93
964.42	226.90
964.72	226.81
965.01	226.84
965.31	226.84
965.60	226.80
965.90	226.84
966.19	226.83
966.49	226.81
966.78	226.81
967.08	226.79
967.37	226.75
967.67	226.71
967.96	226.72
968.26	226.77
968.55	226.81
968.85	226.79
969.14	226.79
969.43	226.82
969.73	226.80
970.02	226.79
970.32	226.80
970.61	226.80
970.91	226.79
971.20	226.75
971.49	226.76
971.79	226.80
972.08	226.75
972.38	226.79
972.67	226.79
972.96	226.80
973.26	226.80
973.55	226.85
973.85	226.88
974.14	226.92
974.43	226.91
974.73	226.90
975.02	226.91
975.31	226.92
975.61	226.93
975.90	226.94
976.19	226.94
976.49	226.97
976.78	226.93
977.07	226.94
977.37	226.96
977.66	226.97
977.95	226.95
978.24	226.95
978.54	226.97
978.83	226.96
979.12	226.98
979.42	227.01
979.71	227.01
980.00	227.02
980.29	227.03
980.59	226.98
980.88	226.99
981.17	226.96
981.46	226.99
981.76	227.02
982.05	227.09
982.34	227.12
982.63	227.09
982.93	227.13
983.22	227.17
983.51	227.16
983.80	227.19
984.09	227.20
984.39	227.21
984.68	227.17
984.97	227.20
985.26	227.19
985.55	227.15
985.85	227.10
986.14	227.10
986.43	227.08
986.72	227.10
987.01	227.07
987.30	227.08
987.59	227.07
987.89	227.03
988.18	227.02
988.47	227.02
988.76	227.03
989.05	227.02
989.34	227.00
989.63	227.00
989.92	226.99
990.22	226.96
990.51	226.93
990.80	226.94
991.09	226.92
991.38	226.92
991.67	226.92
991.96	226.92
992.25	226.91
992.54	226.88
992.83	226.87
993.12	226.84
993.41	226.85
993.70	226.88
993.99	226.90
994.28	226.87
994.58	226.82
994.87	226.79
995.16	226.79
995.45	226.75
995.74	226.74
996.03	226.72
996.32	226.75
996.61	226.79
996.90	226.75
997.19	226.71
997.48	226.69
997.77	226.67
998.06	226.65
998.34	226.65
998.63	226.66
998.92	226.66
999.21	226.68
999.50	226.63
999.79	226.64
1000.08	226.64
1000.37	226.64
1000.66	226.66
1000.95	226.66
1001.24	226.66
1001.53	226.68
1001.82	226.67
1002.11	226.66
1002.40	226.65
1002.68	226.61
1002.97	226.69
1003.26	226.71
1003.55	226.73
1003.84	226.76
1004.13	226.78
1004.42	226.76
1004.71	226.75
1004.99	226.72
1005.28	226.70
1005.57	226.73
1005.86	226.66
1006.15	226.62
1006.44	226.61
1006.72	226.59
1007.01	226.60
1007.30	226.61
1007.59	226.63
1007.88	226.62
1008.17	226.61
1008.45	226.59
1008.74	226.63
1009.03	226.59
1009.32	226.60
1009.60	226.62
1009.89	226.60
1010.18	226.61
1010.47	226.61
1010.76	226.61
1011.04	226.65
1011.33	226.67
1011.62	226.69
1011.91	226.72
1012.19	226.77
1012.48	226.76
1012.77	226.79
1013.05	226.82
1013.34	226.82
1013.63	226.83
1013.92	226.85
1014.20	226.86
1014.49	226.90
1014.78	226.89
1015.06	226.85
1015.35	226.86
1015.64	226.87
1015.92	226.90
1016.21	226.91
1016.50	226.94
1016.78	226.97
1017.07	226.97
1017.36	226.97
1017.64	226.96
1017.93	226.97
1018.22	226.98
1018.50	226.99
1018.79	227.00
1019.08	226.94
1019.36	226.98
1019.65	226.93
1019.93	226.97
1020.22	227.01
1020.51	227.03
1020.79	227.03
1021.08	227.12
1021.36	226.99
1021.65	226.89
1021.94	226.64
1022.22	227.32
1022.51	226.27
1022.79	227.80
1023.08	227.02
1023.36	228.14
1023.65	226.83
>>>>>End Processed Spectral Data<<<<<
