SpectraSuite Data File
++++++++++++++++++++++++++++++++++++
Date: Fri Feb 01 18:11:48 EST 2013
User: group
Dark Spectrum Present: No
Reference Spectrum Present: No
Number of Sampled Component Spectra: 1
Spectrometers: USB2E7196
Integration Time (usec): 35000 (USB2E7196)
Spectra Averaged: 100 (USB2E7196)
Boxcar Smoothing: 10 (USB2E7196)
Correct for Electrical Dark: No (USB2E7196)
Strobe/Lamp Enabled: No (USB2E7196)
Correct for Detector Non-linearity: No (USB2E7196)
Correct for Stray Light: No (USB2E7196)
Number of Pixels in Processed Spectrum: 2048
>>>>>Begin Processed Spectral Data<<<<<
339.09	0.00
339.48	212.67
339.86	214.06
340.24	215.89
340.63	216.69
341.01	220.06
341.39	220.14
341.78	221.37
342.16	222.16
342.54	223.00
342.93	211.28
343.31	221.96
343.69	222.51
344.07	223.00
344.46	223.41
344.84	223.81
345.22	224.06
345.60	224.30
345.99	224.48
346.37	224.62
346.75	224.70
347.13	224.79
347.52	224.85
347.90	224.94
348.28	224.96
348.66	225.03
349.05	225.04
349.43	225.09
349.81	225.12
350.19	225.18
350.57	225.21
350.96	225.30
351.34	225.38
351.72	225.45
352.10	225.52
352.48	225.62
352.87	225.68
353.25	225.75
353.63	225.80
354.01	225.86
354.39	225.95
354.77	226.05
355.15	226.15
355.54	226.20
355.92	226.27
356.30	226.37
356.68	226.53
357.06	226.62
357.44	226.71
357.82	226.77
358.20	226.84
358.58	226.92
358.97	226.99
359.35	227.09
359.73	227.19
360.11	227.27
360.49	227.34
360.87	227.36
361.25	227.42
361.63	227.52
362.01	227.57
362.39	227.62
362.77	227.66
363.15	227.65
363.53	227.70
363.91	227.74
364.29	227.79
364.67	227.71
365.05	227.74
365.43	227.74
365.81	227.79
366.19	227.86
366.57	227.91
366.95	227.95
367.33	227.96
367.71	227.94
368.09	227.94
368.47	227.91
368.85	227.92
369.23	227.92
369.61	227.89
369.99	227.94
370.37	227.89
370.75	227.92
371.13	227.90
371.51	227.83
371.89	227.78
372.27	227.72
372.65	227.66
373.03	227.60
373.41	227.56
373.78	227.49
374.16	227.39
374.54	227.33
374.92	227.22
375.30	227.11
375.68	227.08
376.06	227.06
376.44	227.01
376.82	226.95
377.19	226.87
377.57	226.79
377.95	226.69
378.33	226.63
378.71	226.50
379.09	226.45
379.47	226.42
379.84	226.36
380.22	226.29
380.60	226.23
380.98	226.21
381.36	226.13
381.73	226.08
382.11	226.02
382.49	225.94
382.87	225.91
383.25	225.85
383.62	225.90
384.00	225.80
384.38	225.73
384.76	225.73
385.13	225.76
385.51	225.72
385.89	225.64
386.27	225.63
386.64	225.62
387.02	225.57
387.40	225.49
387.78	225.46
388.15	225.43
388.53	225.37
388.91	225.30
389.29	225.26
389.66	225.24
390.04	225.19
390.42	225.19
390.79	225.17
391.17	225.17
391.55	225.03
391.92	225.01
392.30	225.03
392.68	224.99
393.05	224.94
393.43	224.93
393.81	224.90
394.18	224.84
394.56	224.84
394.94	224.89
395.31	224.94
395.69	224.96
396.06	225.00
396.44	225.01
396.82	225.06
397.19	225.17
397.57	225.19
397.95	225.24
398.32	225.28
398.70	225.33
399.07	225.40
399.45	225.42
399.82	225.49
400.20	225.54
400.58	225.63
400.95	225.65
401.33	225.73
401.70	225.91
402.08	226.05
402.45	226.14
402.83	226.27
403.20	226.36
403.58	226.46
403.95	226.62
404.33	226.78
404.71	226.91
405.08	227.07
405.46	227.23
405.83	227.42
406.21	227.57
406.58	227.77
406.96	227.95
407.33	228.20
407.70	228.46
408.08	228.76
408.45	229.03
408.83	229.31
409.20	229.59
409.58	229.85
409.95	230.16
410.33	230.48
410.70	230.80
411.08	231.20
411.45	231.61
411.82	232.04
412.20	232.53
412.57	233.04
412.95	233.48
413.32	234.02
413.69	234.57
414.07	235.20
414.44	235.82
414.82	236.50
415.19	237.26
415.56	237.98
415.94	238.77
416.31	239.65
416.68	240.51
417.06	241.54
417.43	242.49
417.81	243.55
418.18	244.68
418.55	245.85
418.93	247.07
419.30	248.33
419.67	249.61
420.04	250.92
420.42	252.37
420.79	254.01
421.16	255.62
421.54	257.28
421.91	258.96
422.28	260.72
422.66	262.62
423.03	264.42
423.40	266.30
423.77	268.27
424.15	270.28
424.52	272.40
424.89	274.63
425.26	276.81
425.64	278.87
426.01	281.10
426.38	283.41
426.75	285.73
427.13	288.13
427.50	290.68
427.87	293.36
428.24	295.92
428.61	298.39
428.99	301.15
429.36	304.12
429.73	307.01
430.10	309.86
430.47	312.75
430.85	315.75
431.22	318.91
431.59	322.17
431.96	325.33
432.33	328.77
432.70	332.10
433.08	336.06
433.45	339.79
433.82	343.44
434.19	347.51
434.56	351.48
434.93	355.25
435.30	358.90
435.68	362.95
436.05	367.02
436.42	370.96
436.79	374.45
437.16	378.23
437.53	382.26
437.90	386.24
438.27	390.04
438.64	394.06
439.01	397.68
439.38	400.91
439.75	403.96
440.13	407.51
440.50	410.83
440.87	413.37
441.24	416.07
441.61	419.20
441.98	421.28
442.35	423.78
442.72	426.41
443.09	428.95
443.46	430.36
443.83	431.17
444.20	431.88
444.57	433.05
444.94	433.42
445.31	433.87
445.68	434.33
446.05	434.48
446.42	433.90
446.79	433.31
447.16	432.75
447.53	432.33
447.90	430.68
448.27	429.05
448.64	426.83
449.01	425.26
449.37	422.46
449.74	419.82
450.11	416.66
450.48	413.13
450.85	409.55
451.22	406.53
451.59	403.64
451.96	400.86
452.33	397.23
452.70	393.99
453.07	390.02
453.43	385.94
453.80	382.06
454.17	378.32
454.54	374.78
454.91	370.87
455.28	367.08
455.65	363.61
456.02	360.05
456.38	357.01
456.75	353.24
457.12	350.01
457.49	346.87
457.86	343.88
458.23	341.29
458.59	338.44
458.96	335.49
459.33	332.90
459.70	330.31
460.07	328.18
460.43	325.71
460.80	323.40
461.17	321.38
461.54	319.23
461.91	317.20
462.27	315.15
462.64	313.38
463.01	311.44
463.38	309.60
463.74	307.76
464.11	306.15
464.48	304.69
464.85	303.14
465.21	301.90
465.58	300.56
465.95	298.93
466.32	297.64
466.68	296.38
467.05	295.12
467.42	293.85
467.78	292.52
468.15	291.29
468.52	290.37
468.88	289.13
469.25	288.06
469.62	287.14
469.98	286.17
470.35	285.25
470.72	284.38
471.08	283.45
471.45	282.66
471.82	281.88
472.18	281.07
472.55	280.43
472.92	279.72
473.28	279.06
473.65	278.47
474.02	277.82
474.38	277.25
474.75	276.74
475.11	276.24
475.48	275.84
475.85	275.48
476.21	275.09
476.58	274.80
476.94	274.53
477.31	274.28
477.67	274.02
478.04	273.82
478.41	273.70
478.77	273.61
479.14	273.46
479.50	273.36
479.87	273.28
480.23	273.32
480.60	273.25
480.96	273.24
481.33	273.39
481.69	273.53
482.06	273.68
482.42	273.82
482.79	274.00
483.15	274.28
483.52	274.61
483.88	274.92
484.25	275.26
484.61	275.66
484.98	276.07
485.34	276.64
485.71	277.19
486.07	277.78
486.44	278.33
486.80	278.99
487.17	279.75
487.53	280.59
487.90	281.39
488.26	282.39
488.62	283.40
488.99	284.41
489.35	285.46
489.72	286.61
490.08	287.88
490.44	289.17
490.81	290.57
491.17	292.02
491.54	293.59
491.90	295.22
492.26	296.95
492.63	298.82
492.99	300.70
493.36	302.78
493.72	304.98
494.08	307.25
494.45	309.69
494.81	312.21
495.17	314.84
495.54	317.61
495.90	320.48
496.26	323.51
496.63	326.69
496.99	330.11
497.35	333.63
497.72	337.30
498.08	341.04
498.44	344.98
498.80	349.20
499.17	353.54
499.53	358.01
499.89	362.74
500.26	367.56
500.62	372.57
500.98	377.85
501.34	383.23
501.71	388.96
502.07	394.80
502.43	400.83
502.79	407.06
503.16	413.57
503.52	420.28
503.88	427.17
504.24	434.33
504.60	441.66
504.97	449.32
505.33	457.23
505.69	465.59
506.05	473.96
506.41	482.41
506.78	491.15
507.14	500.29
507.50	509.71
507.86	519.44
508.22	529.39
508.59	539.36
508.95	549.74
509.31	560.38
509.67	571.35
510.03	582.44
510.39	593.91
510.75	605.69
511.12	617.54
511.48	629.87
511.84	642.33
512.20	654.91
512.56	667.93
512.92	681.12
513.28	694.60
513.64	708.25
514.00	722.12
514.37	736.31
514.73	750.53
515.09	764.71
515.45	779.20
515.81	794.12
516.17	809.54
516.53	825.10
516.89	840.77
517.25	856.33
517.61	872.31
517.97	888.26
518.33	904.18
518.69	920.47
519.05	936.92
519.41	953.73
519.77	970.88
520.13	988.02
520.49	1005.08
520.85	1022.14
521.21	1039.52
521.57	1057.50
521.93	1075.05
522.29	1093.30
522.65	1111.48
523.01	1129.66
523.37	1147.66
523.73	1165.61
524.09	1183.59
524.45	1201.63
524.81	1220.23
525.17	1238.89
525.53	1257.80
525.89	1276.62
526.25	1295.65
526.61	1314.13
526.97	1333.02
527.33	1351.74
527.68	1370.32
528.04	1388.97
528.40	1407.76
528.76	1427.09
529.12	1445.96
529.48	1465.16
529.84	1483.30
530.20	1502.24
530.56	1521.53
530.91	1541.17
531.27	1560.37
531.63	1579.21
531.99	1598.31
532.35	1616.76
532.71	1635.15
533.07	1653.72
533.42	1672.16
533.78	1690.68
534.14	1709.40
534.50	1727.05
534.86	1745.30
535.21	1762.94
535.57	1781.51
535.93	1799.46
536.29	1816.67
536.65	1834.34
537.00	1851.54
537.36	1869.47
537.72	1886.47
538.08	1903.57
538.44	1919.94
538.79	1936.26
539.15	1952.41
539.51	1968.68
539.87	1985.56
540.22	2001.80
540.58	2018.29
540.94	2034.10
541.29	2049.51
541.65	2064.88
542.01	2080.77
542.37	2095.77
542.72	2110.88
543.08	2125.22
543.44	2140.29
543.79	2154.10
544.15	2167.68
544.51	2182.00
544.87	2195.62
545.22	2208.95
545.58	2221.56
545.94	2233.80
546.29	2246.16
546.65	2258.62
547.01	2270.39
547.36	2281.53
547.72	2292.52
548.07	2302.82
548.43	2313.38
548.79	2323.56
549.14	2333.41
549.50	2342.87
549.86	2352.72
550.21	2362.20
550.57	2371.53
550.92	2380.35
551.28	2389.73
551.64	2398.94
551.99	2407.56
552.35	2415.87
552.70	2424.23
553.06	2432.43
553.41	2440.96
553.77	2449.12
554.13	2457.15
554.48	2465.38
554.84	2473.22
555.19	2480.33
555.55	2487.33
555.90	2493.75
556.26	2500.97
556.61	2507.54
556.97	2513.82
557.32	2519.90
557.68	2525.84
558.03	2531.99
558.39	2537.40
558.74	2543.90
559.10	2549.59
559.45	2554.95
559.81	2560.92
560.16	2566.54
560.52	2571.38
560.87	2576.25
561.23	2580.46
561.58	2584.93
561.94	2588.88
562.29	2592.28
562.64	2596.83
563.00	2601.09
563.35	2606.16
563.71	2610.62
564.06	2615.18
564.42	2619.71
564.77	2623.70
565.12	2627.61
565.48	2630.92
565.83	2634.33
566.19	2636.86
566.54	2638.90
566.89	2641.34
567.25	2643.15
567.60	2645.48
567.96	2648.24
568.31	2650.22
568.66	2652.46
569.02	2654.16
569.37	2655.53
569.72	2657.52
570.08	2658.43
570.43	2659.07
570.78	2659.33
571.14	2658.35
571.49	2657.56
571.84	2657.69
572.20	2657.22
572.55	2656.80
572.90	2655.66
573.26	2654.71
573.61	2653.39
573.96	2652.11
574.31	2649.41
574.67	2646.70
575.02	2643.05
575.37	2639.90
575.72	2636.12
576.08	2632.65
576.43	2629.27
576.78	2625.57
577.13	2622.50
577.49	2619.30
577.84	2615.98
578.19	2612.04
578.54	2608.31
578.90	2604.14
579.25	2598.32
579.60	2593.07
579.95	2587.52
580.30	2582.14
580.66	2576.47
581.01	2571.15
581.36	2565.66
581.71	2561.07
582.06	2556.14
582.42	2551.50
582.77	2545.88
583.12	2541.11
583.47	2536.19
583.82	2531.00
584.17	2525.22
584.53	2519.13
584.88	2512.92
585.23	2506.52
585.58	2500.38
585.93	2494.43
586.28	2489.06
586.63	2483.52
586.98	2477.79
587.34	2472.58
587.69	2466.97
588.04	2461.13
588.39	2454.59
588.74	2447.23
589.09	2440.31
589.44	2432.61
589.79	2425.57
590.14	2419.05
590.49	2411.42
590.84	2404.03
591.19	2396.96
591.54	2389.55
591.89	2381.11
592.25	2373.35
592.60	2365.04
592.95	2356.47
593.30	2347.93
593.65	2339.17
594.00	2330.88
594.35	2322.33
594.70	2312.96
595.05	2304.74
595.40	2296.09
595.75	2287.47
596.10	2280.47
596.45	2272.57
596.80	2265.41
597.15	2257.89
597.50	2249.73
597.85	2242.13
598.19	2234.28
598.54	2226.02
598.89	2218.14
599.24	2211.20
599.59	2203.41
599.94	2196.05
600.29	2188.52
600.64	2180.71
600.99	2172.00
601.34	2164.01
601.69	2155.76
602.04	2147.77
602.39	2139.03
602.74	2131.05
603.08	2123.08
603.43	2114.79
603.78	2105.91
604.13	2097.35
604.48	2088.68
604.83	2080.39
605.18	2072.30
605.53	2063.03
605.87	2053.52
606.22	2044.87
606.57	2035.29
606.92	2026.41
607.27	2017.92
607.62	2009.70
607.96	2001.00
608.31	1993.10
608.66	1983.91
609.01	1974.95
609.36	1965.91
609.70	1956.43
610.05	1946.87
610.40	1937.69
610.75	1927.76
611.10	1918.84
611.44	1908.68
611.79	1899.09
612.14	1888.75
612.49	1877.73
612.83	1867.58
613.18	1857.82
613.53	1848.28
613.88	1838.11
614.22	1828.25
614.57	1817.82
614.92	1808.22
615.27	1799.28
615.61	1789.36
615.96	1779.79
616.31	1770.61
616.65	1761.69
617.00	1752.51
617.35	1743.24
617.70	1733.32
618.04	1723.25
618.39	1713.20
618.74	1704.16
619.08	1694.13
619.43	1684.85
619.78	1676.44
620.12	1667.87
620.47	1658.74
620.82	1648.72
621.16	1639.68
621.51	1630.40
621.85	1621.14
622.20	1610.88
622.55	1600.71
622.89	1591.18
623.24	1581.89
623.59	1572.76
623.93	1563.61
624.28	1554.95
624.62	1545.70
624.97	1536.96
625.32	1528.60
625.66	1520.23
626.01	1511.53
626.35	1502.65
626.70	1493.37
627.04	1484.11
627.39	1474.57
627.73	1465.72
628.08	1457.51
628.43	1448.88
628.77	1440.18
629.12	1431.25
629.46	1422.64
629.81	1413.62
630.15	1404.82
630.50	1395.96
630.84	1386.21
631.19	1376.63
631.53	1367.61
631.88	1358.65
632.22	1349.50
632.57	1340.81
632.91	1331.65
633.26	1322.78
633.60	1313.81
633.95	1305.22
634.29	1296.61
634.64	1288.63
634.98	1279.75
635.32	1271.08
635.67	1263.08
636.01	1255.00
636.36	1246.82
636.70	1238.86
637.05	1231.04
637.39	1223.36
637.73	1215.54
638.08	1208.52
638.42	1201.37
638.77	1193.58
639.11	1185.78
639.45	1178.09
639.80	1170.16
640.14	1162.64
640.49	1154.85
640.83	1147.36
641.17	1140.04
641.52	1132.60
641.86	1124.84
642.20	1117.87
642.55	1110.28
642.89	1102.68
643.23	1094.81
643.58	1087.90
643.92	1080.69
644.26	1073.59
644.61	1066.36
644.95	1059.30
645.29	1051.60
645.64	1043.62
645.98	1036.10
646.32	1029.04
646.66	1021.92
647.01	1015.17
647.35	1008.26
647.69	1001.25
648.04	994.71
648.38	987.84
648.72	980.78
649.06	973.74
649.41	966.78
649.75	959.88
650.09	952.79
650.43	946.00
650.78	938.75
651.12	931.57
651.46	924.72
651.80	918.03
652.14	911.55
652.49	905.14
652.83	899.05
653.17	892.45
653.51	885.80
653.85	879.36
654.20	872.66
654.54	865.68
654.88	858.86
655.22	851.81
655.56	845.08
655.90	838.57
656.25	832.34
656.59	825.96
656.93	819.84
657.27	813.72
657.61	807.29
657.95	801.27
658.29	795.23
658.64	788.97
658.98	782.57
659.32	776.14
659.66	770.02
660.00	763.73
660.34	757.85
660.68	752.05
661.02	746.18
661.36	740.60
661.70	735.28
662.05	730.19
662.39	725.13
662.73	719.85
663.07	714.67
663.41	709.38
663.75	704.13
664.09	698.80
664.43	693.60
664.77	688.79
665.11	683.80
665.45	678.95
665.79	674.25
666.13	669.47
666.47	664.60
666.81	659.70
667.15	654.88
667.49	650.15
667.83	645.53
668.17	640.89
668.51	636.05
668.85	631.25
669.19	626.70
669.53	622.22
669.87	617.69
670.21	613.35
670.55	609.10
670.89	604.98
671.23	600.96
671.57	596.84
671.91	592.63
672.25	588.49
672.58	584.36
672.92	580.28
673.26	576.54
673.60	572.85
673.94	569.22
674.28	565.80
674.62	562.41
674.96	558.82
675.30	555.44
675.64	552.07
675.97	548.79
676.31	545.40
676.65	541.92
676.99	538.72
677.33	535.37
677.67	532.03
678.01	528.58
678.34	525.06
678.68	521.59
679.02	518.29
679.36	514.98
679.70	511.75
680.04	508.48
680.37	505.12
680.71	501.79
681.05	498.69
681.39	495.45
681.73	492.32
682.06	489.35
682.40	486.33
682.74	483.28
683.08	480.29
683.42	477.23
683.75	474.29
684.09	471.25
684.43	468.31
684.77	465.42
685.10	462.58
685.44	459.86
685.78	457.19
686.12	454.51
686.45	451.80
686.79	449.12
687.13	446.54
687.46	443.95
687.80	441.42
688.14	438.74
688.48	436.32
688.81	433.65
689.15	431.10
689.49	428.54
689.82	426.09
690.16	423.63
690.50	421.35
690.83	419.08
691.17	416.71
691.51	414.49
691.84	412.26
692.18	409.99
692.52	407.64
692.85	405.28
693.19	403.09
693.52	400.92
693.86	398.75
694.20	396.65
694.53	394.52
694.87	392.34
695.21	390.22
695.54	388.03
695.88	385.98
696.21	383.89
696.55	381.88
696.88	379.87
697.22	377.85
697.56	375.89
697.89	373.94
698.23	372.08
698.56	370.13
698.90	368.29
699.23	366.35
699.57	364.53
699.90	362.74
700.24	360.90
700.58	359.10
700.91	357.34
701.25	355.57
701.58	353.97
701.92	352.39
702.25	350.77
702.59	349.15
702.92	347.63
703.26	346.11
703.59	344.58
703.93	343.20
704.26	341.80
704.60	340.27
704.93	338.73
705.26	337.24
705.60	335.86
705.93	334.49
706.27	333.25
706.60	332.04
706.94	330.80
707.27	329.45
707.61	328.20
707.94	326.99
708.27	325.71
708.61	324.40
708.94	323.18
709.28	322.03
709.61	320.90
709.94	319.74
710.28	318.51
710.61	317.32
710.95	316.02
711.28	314.90
711.61	313.78
711.95	312.69
712.28	311.60
712.61	310.43
712.95	309.31
713.28	308.25
713.61	307.15
713.95	306.08
714.28	305.10
714.61	304.07
714.95	303.07
715.28	302.10
715.61	301.11
715.95	300.09
716.28	299.07
716.61	298.08
716.95	297.10
717.28	296.27
717.61	295.40
717.94	294.55
718.28	293.56
718.61	292.70
718.94	291.88
719.27	291.06
719.61	290.28
719.94	289.53
720.27	288.69
720.60	287.92
720.94	287.19
721.27	286.46
721.60	285.80
721.93	285.11
722.27	284.44
722.60	283.75
722.93	283.08
723.26	282.45
723.59	281.79
723.93	281.17
724.26	280.49
724.59	279.76
724.92	279.08
725.25	278.54
725.59	277.91
725.92	277.32
726.25	276.71
726.58	276.16
726.91	275.52
727.24	274.97
727.57	274.39
727.91	273.78
728.24	273.26
728.57	272.66
728.90	272.10
729.23	271.50
729.56	270.98
729.89	270.40
730.22	269.83
730.55	269.28
730.89	268.76
731.22	268.26
731.55	267.81
731.88	267.39
732.21	266.86
732.54	266.36
732.87	265.86
733.20	265.41
733.53	264.94
733.86	264.56
734.19	264.09
734.52	263.65
734.85	263.30
735.18	262.79
735.51	262.37
735.84	261.95
736.17	261.56
736.50	261.11
736.83	260.87
737.16	260.48
737.49	260.11
737.82	259.67
738.15	259.27
738.48	258.86
738.81	258.44
739.14	258.05
739.47	257.68
739.80	257.33
740.13	256.96
740.46	256.57
740.79	256.18
741.12	255.79
741.45	255.43
741.78	254.99
742.11	254.66
742.44	254.24
742.77	253.89
743.10	253.51
743.43	253.18
743.75	252.69
744.08	252.50
744.41	252.14
744.74	251.81
745.07	251.48
745.40	251.19
745.73	250.93
746.06	250.61
746.39	250.31
746.71	249.98
747.04	249.64
747.37	249.33
747.70	249.03
748.03	248.74
748.36	248.45
748.68	248.17
749.01	247.85
749.34	247.61
749.67	247.35
750.00	247.10
750.33	246.87
750.65	246.63
750.98	246.24
751.31	246.01
751.64	245.79
751.97	245.59
752.29	245.32
752.62	244.95
752.95	244.72
753.28	244.46
753.60	244.19
753.93	244.01
754.26	243.76
754.59	243.51
754.91	243.26
755.24	243.02
755.57	242.83
755.90	242.68
756.22	242.45
756.55	242.21
756.88	241.96
757.20	241.69
757.53	241.46
757.86	241.27
758.19	241.06
758.51	240.85
758.84	240.60
759.17	240.39
759.49	240.23
759.82	240.04
760.15	239.88
760.47	239.70
760.80	239.46
761.13	239.33
761.45	239.11
761.78	238.95
762.11	238.78
762.43	238.56
762.76	238.35
763.08	238.16
763.41	237.99
763.74	237.86
764.06	237.71
764.39	237.54
764.71	237.37
765.04	237.19
765.37	237.01
765.69	236.84
766.02	236.70
766.34	236.55
766.67	236.40
767.00	236.27
767.32	236.20
767.65	236.18
767.97	236.05
768.30	235.91
768.62	235.77
768.95	235.64
769.27	235.50
769.60	235.38
769.92	235.27
770.25	235.15
770.57	235.01
770.90	234.86
771.22	234.72
771.55	234.61
771.87	234.50
772.20	234.40
772.52	234.36
772.85	234.38
773.17	234.28
773.50	234.16
773.82	234.04
774.15	233.85
774.47	233.64
774.80	233.49
775.12	233.41
775.45	233.34
775.77	233.23
776.09	233.15
776.42	233.04
776.74	232.97
777.07	232.85
777.39	232.74
777.72	232.64
778.04	232.58
778.36	232.48
778.69	232.39
779.01	232.34
779.33	232.19
779.66	232.01
779.98	231.93
780.31	231.84
780.63	231.80
780.95	231.77
781.28	231.69
781.60	231.61
781.92	231.55
782.25	231.46
782.57	231.42
782.89	231.33
783.22	231.28
783.54	231.20
783.86	231.18
784.19	231.13
784.51	231.14
784.83	231.06
785.16	230.98
785.48	230.97
785.80	230.94
786.12	230.89
786.45	230.81
786.77	230.81
787.09	230.78
787.42	230.68
787.74	230.62
788.06	230.61
788.38	230.54
788.71	230.49
789.03	230.42
789.35	230.40
789.67	230.35
789.99	230.31
790.32	230.25
790.64	230.22
790.96	230.27
791.28	230.17
791.61	230.12
791.93	230.09
792.25	230.00
792.57	229.98
792.89	229.92
793.21	229.87
793.54	229.80
793.86	229.74
794.18	229.72
794.50	229.64
794.82	229.59
795.14	229.57
795.47	229.52
795.79	229.51
796.11	229.40
796.43	229.40
796.75	229.33
797.07	229.26
797.39	229.20
797.71	229.09
798.04	229.03
798.36	229.03
798.68	228.99
799.00	228.97
799.32	228.90
799.64	228.91
799.96	228.88
800.28	228.87
800.60	228.82
800.92	228.77
801.24	228.76
801.56	228.73
801.89	228.70
802.21	228.64
802.53	228.60
802.85	228.62
803.17	228.60
803.49	228.56
803.81	228.53
804.13	228.50
804.45	228.45
804.77	228.43
805.09	228.39
805.41	228.34
805.73	228.28
806.05	228.23
806.37	228.15
806.69	228.10
807.01	228.03
807.33	227.99
807.65	227.92
807.97	227.95
808.28	227.91
808.60	227.86
808.92	227.86
809.24	227.84
809.56	227.75
809.88	227.69
810.20	227.67
810.52	227.64
810.84	227.59
811.16	227.54
811.48	227.50
811.80	227.46
812.12	227.44
812.43	227.45
812.75	227.42
813.07	227.38
813.39	227.39
813.71	227.34
814.03	227.33
814.35	227.31
814.67	227.25
814.98	227.22
815.30	227.20
815.62	227.14
815.94	227.11
816.26	227.18
816.58	227.11
816.89	227.12
817.21	227.12
817.53	227.15
817.85	227.13
818.17	227.14
818.48	227.13
818.80	227.14
819.12	227.07
819.44	227.02
819.76	227.03
820.07	227.01
820.39	227.02
820.71	226.98
821.03	226.98
821.34	226.93
821.66	226.93
821.98	226.96
822.30	226.97
822.61	227.00
822.93	226.93
823.25	226.92
823.57	226.91
823.88	226.92
824.20	226.88
824.52	226.89
824.83	226.87
825.15	226.83
825.47	226.79
825.79	226.83
826.10	226.83
826.42	226.79
826.74	226.79
827.05	226.81
827.37	226.82
827.69	226.77
828.00	226.75
828.32	226.74
828.64	226.68
828.95	226.71
829.27	226.65
829.58	226.66
829.90	226.64
830.22	226.59
830.53	226.52
830.85	226.49
831.17	226.44
831.48	226.39
831.80	226.42
832.11	226.38
832.43	226.33
832.75	226.34
833.06	226.40
833.38	226.35
833.69	226.30
834.01	226.28
834.32	226.30
834.64	226.31
834.96	226.31
835.27	226.31
835.59	226.26
835.90	226.22
836.22	226.18
836.53	226.19
836.85	226.18
837.16	226.25
837.48	226.24
837.79	226.25
838.11	226.30
838.42	226.22
838.74	226.24
839.05	226.24
839.37	226.21
839.68	226.12
840.00	226.10
840.31	226.12
840.63	226.08
840.94	226.06
841.26	226.04
841.57	226.02
841.88	225.97
842.20	225.95
842.51	225.93
842.83	225.93
843.14	226.00
843.46	225.98
843.77	225.96
844.08	225.98
844.40	225.96
844.71	225.91
845.03	225.91
845.34	225.89
845.65	225.89
845.97	225.86
846.28	225.87
846.60	225.88
846.91	225.82
847.22	225.83
847.54	225.86
847.85	225.84
848.16	225.81
848.48	225.81
848.79	225.81
849.10	225.84
849.42	225.81
849.73	225.72
850.04	225.72
850.36	225.66
850.67	225.64
850.98	225.62
851.30	225.62
851.61	225.64
851.92	225.65
852.23	225.65
852.55	225.68
852.86	225.67
853.17	225.66
853.49	225.71
853.80	225.71
854.11	225.69
854.42	225.70
854.74	225.70
855.05	225.70
855.36	225.68
855.67	225.69
855.99	225.70
856.30	225.77
856.61	225.78
856.92	225.80
857.23	225.82
857.55	225.78
857.86	225.78
858.17	225.78
858.48	225.78
858.79	225.78
859.11	225.79
859.42	225.79
859.73	225.76
860.04	225.73
860.35	225.69
860.66	225.69
860.98	225.68
861.29	225.71
861.60	225.69
861.91	225.70
862.22	225.63
862.53	225.61
862.84	225.51
863.16	225.53
863.47	225.51
863.78	225.48
864.09	225.51
864.40	225.52
864.71	225.53
865.02	225.53
865.33	225.49
865.64	225.46
865.95	225.44
866.27	225.50
866.58	225.50
866.89	225.51
867.20	225.48
867.51	225.48
867.82	225.46
868.13	225.48
868.44	225.47
868.75	225.52
869.06	225.54
869.37	225.55
869.68	225.51
869.99	225.52
870.30	225.50
870.61	225.52
870.92	225.49
871.23	225.46
871.54	225.47
871.85	225.49
872.16	225.49
872.47	225.49
872.78	225.42
873.09	225.46
873.40	225.44
873.71	225.45
874.02	225.44
874.33	225.43
874.64	225.42
874.95	225.45
875.26	225.43
875.56	225.41
875.87	225.37
876.18	225.38
876.49	225.48
876.80	225.50
877.11	225.49
877.42	225.48
877.73	225.49
878.04	225.46
878.35	225.45
878.66	225.44
878.96	225.43
879.27	225.44
879.58	225.40
879.89	225.39
880.20	225.38
880.51	225.36
880.82	225.37
881.12	225.39
881.43	225.36
881.74	225.36
882.05	225.37
882.36	225.39
882.67	225.40
882.97	225.28
883.28	225.27
883.59	225.22
883.90	225.24
884.21	225.27
884.51	225.26
884.82	225.24
885.13	225.27
885.44	225.29
885.74	225.33
886.05	225.32
886.36	225.33
886.67	225.36
886.98	225.39
887.28	225.37
887.59	225.36
887.90	225.38
888.20	225.37
888.51	225.36
888.82	225.35
889.13	225.35
889.43	225.42
889.74	225.42
890.05	225.41
890.35	225.40
890.66	225.35
890.97	225.32
891.28	225.31
891.58	225.32
891.89	225.32
892.20	225.29
892.50	225.30
892.81	225.30
893.12	225.31
893.42	225.29
893.73	225.33
894.04	225.33
894.34	225.30
894.65	225.29
894.95	225.31
895.26	225.31
895.57	225.36
895.87	225.27
896.18	225.29
896.48	225.32
896.79	225.34
897.10	225.38
897.40	225.42
897.71	225.46
898.01	225.47
898.32	225.48
898.63	225.45
898.93	225.44
899.24	225.44
899.54	225.40
899.85	225.39
900.15	225.36
900.46	225.37
900.76	225.40
901.07	225.43
901.38	225.41
901.68	225.46
901.99	225.41
902.29	225.43
902.60	225.44
902.90	225.47
903.21	225.48
903.51	225.48
903.82	225.53
904.12	225.51
904.43	225.48
904.73	225.49
905.03	225.51
905.34	225.63
905.64	225.63
905.95	225.64
906.25	225.63
906.56	225.66
906.86	225.63
907.17	225.62
907.47	225.62
907.77	225.62
908.08	225.58
908.38	225.60
908.69	225.61
908.99	225.61
909.30	225.60
909.60	225.58
909.90	225.60
910.21	225.52
910.51	225.51
910.81	225.50
911.12	225.45
911.42	225.45
911.73	225.34
912.03	225.36
912.33	225.39
912.64	225.39
912.94	225.35
913.24	225.32
913.55	225.30
913.85	225.27
914.15	225.28
914.46	225.28
914.76	225.22
915.06	225.18
915.37	225.17
915.67	225.13
915.97	225.14
916.27	225.06
916.58	225.09
916.88	225.09
917.18	225.07
917.49	225.16
917.79	225.12
918.09	225.12
918.39	225.12
918.70	225.11
919.00	225.12
919.30	225.19
919.60	225.22
919.91	225.22
920.21	225.24
920.51	225.22
920.81	225.20
921.12	225.24
921.42	225.25
921.72	225.23
922.02	225.25
922.32	225.24
922.63	225.28
922.93	225.32
923.23	225.32
923.53	225.31
923.83	225.24
924.13	225.28
924.44	225.30
924.74	225.33
925.04	225.34
925.34	225.32
925.64	225.25
925.94	225.24
926.24	225.29
926.55	225.27
926.85	225.31
927.15	225.33
927.45	225.30
927.75	225.29
928.05	225.30
928.35	225.31
928.65	225.32
928.95	225.32
929.26	225.29
929.56	225.30
929.86	225.29
930.16	225.32
930.46	225.29
930.76	225.28
931.06	225.24
931.36	225.22
931.66	225.26
931.96	225.27
932.26	225.27
932.56	225.22
932.86	225.24
933.16	225.22
933.46	225.22
933.76	225.24
934.06	225.30
934.36	225.33
934.66	225.28
934.96	225.27
935.26	225.29
935.56	225.31
935.86	225.29
936.16	225.30
936.46	225.28
936.76	225.33
937.06	225.33
937.36	225.34
937.66	225.34
937.96	225.32
938.26	225.33
938.56	225.37
938.86	225.39
939.16	225.42
939.46	225.46
939.76	225.44
940.06	225.45
940.35	225.44
940.65	225.40
940.95	225.46
941.25	225.44
941.55	225.41
941.85	225.42
942.15	225.45
942.45	225.46
942.75	225.43
943.04	225.37
943.34	225.38
943.64	225.35
943.94	225.34
944.24	225.35
944.54	225.33
944.84	225.28
945.13	225.26
945.43	225.25
945.73	225.22
946.03	225.17
946.33	225.11
946.62	225.11
946.92	225.09
947.22	225.06
947.52	225.05
947.82	225.07
948.11	225.02
948.41	224.99
948.71	224.93
949.01	224.96
949.31	224.98
949.60	224.96
949.90	224.99
950.20	224.97
950.50	224.93
950.79	224.91
951.09	224.92
951.39	224.90
951.69	224.87
951.98	224.88
952.28	224.90
952.58	224.92
952.87	224.87
953.17	224.88
953.47	224.87
953.76	224.87
954.06	224.81
954.36	224.80
954.66	224.79
954.95	224.83
955.25	224.78
955.55	224.75
955.84	224.73
956.14	224.70
956.44	224.69
956.73	224.69
957.03	224.70
957.32	224.72
957.62	224.73
957.92	224.72
958.21	224.71
958.51	224.83
958.81	224.83
959.10	224.82
959.40	224.81
959.69	224.81
959.99	224.82
960.29	224.86
960.58	224.85
960.88	224.86
961.17	224.85
961.47	224.92
961.76	224.92
962.06	224.93
962.36	224.97
962.65	224.97
962.95	224.96
963.24	224.95
963.54	224.92
963.83	224.93
964.13	224.96
964.42	224.94
964.72	224.85
965.01	224.87
965.31	224.87
965.60	224.87
965.90	224.96
966.19	224.91
966.49	224.91
966.78	224.94
967.08	224.97
967.37	225.00
967.67	224.93
967.96	224.97
968.26	224.99
968.55	224.99
968.85	224.98
969.14	225.01
969.43	225.02
969.73	225.05
970.02	225.04
970.32	225.02
970.61	225.00
970.91	224.98
971.20	224.98
971.49	224.98
971.79	224.99
972.08	224.90
972.38	224.94
972.67	224.93
972.96	224.95
973.26	224.90
973.55	224.91
973.85	224.92
974.14	224.91
974.43	224.92
974.73	224.90
975.02	224.90
975.31	224.89
975.61	224.87
975.90	224.83
976.19	224.84
976.49	224.81
976.78	224.84
977.07	224.86
977.37	224.87
977.66	224.88
977.95	224.86
978.24	224.90
978.54	224.90
978.83	224.94
979.12	224.94
979.42	224.97
979.71	224.97
980.00	224.98
980.29	224.98
980.59	224.93
980.88	224.95
981.17	224.97
981.46	224.97
981.76	224.98
982.05	225.01
982.34	225.02
982.63	225.05
982.93	225.03
983.22	225.05
983.51	225.05
983.80	225.04
984.09	225.09
984.39	225.08
984.68	225.05
984.97	224.99
985.26	224.95
985.55	224.96
985.85	224.92
986.14	224.92
986.43	224.93
986.72	224.94
987.01	224.91
987.30	224.89
987.59	224.89
987.89	224.90
988.18	224.88
988.47	224.85
988.76	224.86
989.05	224.86
989.34	224.82
989.63	224.84
989.92	224.85
990.22	224.79
990.51	224.76
990.80	224.79
991.09	224.80
991.38	224.84
991.67	224.82
991.96	224.85
992.25	224.89
992.54	224.86
992.83	224.86
993.12	224.87
993.41	224.90
993.70	224.94
993.99	224.94
994.28	224.91
994.58	224.93
994.87	224.90
995.16	224.89
995.45	224.91
995.74	224.88
996.03	224.88
996.32	224.92
996.61	224.96
996.90	224.94
997.19	224.96
997.48	224.95
997.77	224.92
998.06	224.89
998.34	224.87
998.63	224.87
998.92	224.88
999.21	224.90
999.50	224.88
999.79	224.86
1000.08	224.86
1000.37	224.91
1000.66	224.90
1000.95	224.92
1001.24	224.93
1001.53	224.95
1001.82	224.96
1002.11	224.94
1002.40	224.95
1002.68	224.96
1002.97	225.04
1003.26	225.04
1003.55	225.03
1003.84	225.07
1004.13	225.13
1004.42	225.14
1004.71	225.13
1004.99	225.12
1005.28	225.11
1005.57	225.11
1005.86	225.10
1006.15	225.08
1006.44	225.05
1006.72	225.07
1007.01	225.02
1007.30	225.04
1007.59	225.01
1007.88	225.00
1008.17	225.04
1008.45	225.00
1008.74	224.98
1009.03	224.94
1009.32	224.93
1009.60	224.93
1009.89	224.89
1010.18	224.85
1010.47	224.81
1010.76	224.83
1011.04	224.85
1011.33	224.86
1011.62	224.86
1011.91	224.89
1012.19	224.88
1012.48	224.90
1012.77	224.92
1013.05	224.99
1013.34	225.00
1013.63	225.00
1013.92	224.99
1014.20	224.93
1014.49	224.95
1014.78	224.94
1015.06	224.90
1015.35	224.88
1015.64	224.89
1015.92	224.93
1016.21	224.94
1016.50	224.96
1016.78	224.96
1017.07	224.96
1017.36	224.92
1017.64	224.93
1017.93	224.92
1018.22	224.93
1018.50	224.91
1018.79	224.88
1019.08	224.80
1019.36	224.80
1019.65	224.77
1019.93	224.78
1020.22	224.81
1020.51	224.87
1020.79	224.85
1021.08	224.66
1021.36	224.43
1021.65	224.67
1021.94	224.25
1022.22	225.02
1022.51	224.32
1022.79	224.99
1023.08	224.75
1023.36	226.40
1023.65	224.36
>>>>>End Processed Spectral Data<<<<<
