SpectraSuite Data File
++++++++++++++++++++++++++++++++++++
Date: Fri Feb 01 17:23:15 EST 2013
User: group
Dark Spectrum Present: No
Reference Spectrum Present: No
Number of Sampled Component Spectra: 1
Spectrometers: USB2E7196
Integration Time (usec): 35000 (USB2E7196)
Spectra Averaged: 100 (USB2E7196)
Boxcar Smoothing: 10 (USB2E7196)
Correct for Electrical Dark: No (USB2E7196)
Strobe/Lamp Enabled: No (USB2E7196)
Correct for Detector Non-linearity: No (USB2E7196)
Correct for Stray Light: No (USB2E7196)
Number of Pixels in Processed Spectrum: 2048
>>>>>Begin Processed Spectral Data<<<<<
339.09	0.00
339.48	212.78
339.86	214.37
340.24	215.91
340.63	216.98
341.01	219.77
341.39	219.59
341.78	220.62
342.16	222.03
342.54	222.52
342.93	211.21
343.31	221.91
343.69	222.45
344.07	222.93
344.46	223.36
344.84	223.75
345.22	223.98
345.60	224.24
345.99	224.45
346.37	224.58
346.75	224.69
347.13	224.73
347.52	224.78
347.90	224.86
348.28	224.89
348.66	224.95
349.05	224.92
349.43	224.97
349.81	224.95
350.19	225.01
350.57	225.05
350.96	225.12
351.34	225.16
351.72	225.24
352.10	225.30
352.48	225.38
352.87	225.42
353.25	225.50
353.63	225.56
354.01	225.62
354.39	225.72
354.77	225.77
355.15	225.86
355.54	225.90
355.92	225.94
356.30	226.05
356.68	226.18
357.06	226.28
357.44	226.34
357.82	226.42
358.20	226.49
358.58	226.53
358.97	226.60
359.35	226.70
359.73	226.81
360.11	226.89
360.49	226.92
360.87	226.97
361.25	227.03
361.63	227.10
362.01	227.14
362.39	227.21
362.77	227.27
363.15	227.35
363.53	227.42
363.91	227.45
364.29	227.48
364.67	227.39
365.05	227.40
365.43	227.42
365.81	227.48
366.19	227.55
366.57	227.61
366.95	227.63
367.33	227.61
367.71	227.59
368.09	227.60
368.47	227.60
368.85	227.58
369.23	227.60
369.61	227.54
369.99	227.57
370.37	227.53
370.75	227.55
371.13	227.51
371.51	227.46
371.89	227.43
372.27	227.37
372.65	227.36
373.03	227.33
373.41	227.26
373.78	227.18
374.16	227.02
374.54	226.95
374.92	226.88
375.30	226.79
375.68	226.70
376.06	226.62
376.44	226.52
376.82	226.50
377.19	226.43
377.57	226.35
377.95	226.26
378.33	226.17
378.71	226.08
379.09	226.01
379.47	225.94
379.84	225.88
380.22	225.82
380.60	225.69
380.98	225.62
381.36	225.57
381.73	225.48
382.11	225.50
382.49	225.44
382.87	225.36
383.25	225.29
383.62	225.35
384.00	225.29
384.38	225.28
384.76	225.22
385.13	225.18
385.51	225.12
385.89	225.07
386.27	225.03
386.64	224.98
387.02	224.93
387.40	224.87
387.78	224.83
388.15	224.76
388.53	224.77
388.91	224.74
389.29	224.68
389.66	224.72
390.04	224.67
390.42	224.66
390.79	224.62
391.17	224.66
391.55	224.52
391.92	224.51
392.30	224.49
392.68	224.45
393.05	224.44
393.43	224.45
393.81	224.46
394.18	224.44
394.56	224.41
394.94	224.41
395.31	224.44
395.69	224.48
396.06	224.52
396.44	224.53
396.82	224.54
397.19	224.62
397.57	224.60
397.95	224.62
398.32	224.60
398.70	224.65
399.07	224.69
399.45	224.73
399.82	224.77
400.20	224.81
400.58	224.87
400.95	224.90
401.33	224.97
401.70	225.10
402.08	225.20
402.45	225.30
402.83	225.41
403.20	225.51
403.58	225.57
403.95	225.69
404.33	225.83
404.71	225.97
405.08	226.13
405.46	226.26
405.83	226.39
406.21	226.58
406.58	226.77
406.96	226.93
407.33	227.13
407.70	227.31
408.08	227.62
408.45	227.86
408.83	228.09
409.20	228.32
409.58	228.49
409.95	228.74
410.33	229.02
410.70	229.27
411.08	229.59
411.45	229.91
411.82	230.23
412.20	230.59
412.57	231.02
412.95	231.35
413.32	231.79
413.69	232.25
414.07	232.70
414.44	233.17
414.82	233.66
415.19	234.21
415.56	234.83
415.94	235.38
416.31	236.05
416.68	236.72
417.06	237.47
417.43	238.20
417.81	239.03
418.18	239.83
418.55	240.71
418.93	241.61
419.30	242.56
419.67	243.53
420.04	244.55
420.42	245.59
420.79	246.82
421.16	248.00
421.54	249.23
421.91	250.48
422.28	251.80
422.66	253.22
423.03	254.57
423.40	255.97
423.77	257.41
424.15	258.89
424.52	260.45
424.89	262.11
425.26	263.75
425.64	265.25
426.01	266.91
426.38	268.61
426.75	270.37
427.13	272.15
427.50	274.04
427.87	275.98
428.24	277.91
428.61	279.72
428.99	281.74
429.36	283.90
429.73	286.06
430.10	288.17
430.47	290.30
430.85	292.51
431.22	294.80
431.59	297.28
431.96	299.60
432.33	302.18
432.70	304.63
433.08	307.51
433.45	310.23
433.82	312.93
434.19	315.95
434.56	318.85
434.93	321.58
435.30	324.29
435.68	327.27
436.05	330.22
436.42	333.11
436.79	335.75
437.16	338.50
437.53	341.42
437.90	344.27
438.27	347.10
438.64	349.99
439.01	352.67
439.38	354.97
439.75	357.18
440.13	359.74
440.50	362.16
440.87	364.08
441.24	366.10
441.61	368.31
441.98	369.84
442.35	371.76
442.72	373.68
443.09	375.53
443.46	376.53
443.83	377.12
444.20	377.66
444.57	378.50
444.94	378.91
445.31	379.25
445.68	379.64
446.05	379.73
446.42	379.39
446.79	378.98
447.16	378.53
447.53	378.23
447.90	377.04
448.27	375.87
448.64	374.25
449.01	373.05
449.37	371.07
449.74	369.09
450.11	366.73
450.48	364.16
450.85	361.52
451.22	359.35
451.59	357.27
451.96	355.27
452.33	352.58
452.70	350.11
453.07	347.21
453.43	344.20
453.80	341.32
454.17	338.54
454.54	335.89
454.91	333.05
455.28	330.27
455.65	327.65
456.02	325.10
456.38	322.84
456.75	320.08
457.12	317.69
457.49	315.41
457.86	313.15
458.23	311.27
458.59	309.17
458.96	307.00
459.33	305.03
459.70	303.09
460.07	301.51
460.43	299.72
460.80	298.02
461.17	296.53
461.54	294.98
461.91	293.48
462.27	291.98
462.64	290.72
463.01	289.32
463.38	288.01
463.74	286.58
464.11	285.39
464.48	284.34
464.85	283.24
465.21	282.34
465.58	281.38
465.95	280.23
466.32	279.27
466.68	278.32
467.05	277.44
467.42	276.51
467.78	275.58
468.15	274.66
468.52	274.00
468.88	273.14
469.25	272.36
469.62	271.76
469.98	271.07
470.35	270.45
470.72	269.83
471.08	269.12
471.45	268.59
471.82	268.04
472.18	267.44
472.55	267.01
472.92	266.42
473.28	265.97
473.65	265.55
474.02	265.13
474.38	264.79
474.75	264.48
475.11	264.15
475.48	263.88
475.85	263.68
476.21	263.42
476.58	263.22
476.94	263.03
477.31	262.81
477.67	262.66
478.04	262.52
478.41	262.46
478.77	262.55
479.14	262.47
479.50	262.44
479.87	262.49
480.23	262.55
480.60	262.65
480.96	262.71
481.33	262.88
481.69	263.09
482.06	263.28
482.42	263.42
482.79	263.67
483.15	263.97
483.52	264.35
483.88	264.72
484.25	265.14
484.61	265.60
484.98	266.05
485.34	266.65
485.71	267.23
486.07	267.85
486.44	268.41
486.80	269.12
487.17	269.90
487.53	270.72
487.90	271.58
488.26	272.53
488.62	273.53
488.99	274.52
489.35	275.57
489.72	276.70
490.08	277.95
490.44	279.19
490.81	280.53
491.17	281.91
491.54	283.44
491.90	284.95
492.26	286.61
492.63	288.37
492.99	290.11
493.36	291.96
493.72	293.97
494.08	296.02
494.45	298.30
494.81	300.63
495.17	303.08
495.54	305.62
495.90	308.30
496.26	311.08
496.63	314.04
496.99	317.10
497.35	320.36
497.72	323.69
498.08	327.16
498.44	330.78
498.80	334.64
499.17	338.63
499.53	342.74
499.89	347.08
500.26	351.47
500.62	356.12
500.98	361.11
501.34	366.16
501.71	371.48
502.07	376.84
502.43	382.38
502.79	388.08
503.16	394.10
503.52	400.31
503.88	406.63
504.24	413.18
504.60	419.98
504.97	426.97
505.33	434.19
505.69	441.83
506.05	449.49
506.41	457.23
506.78	465.25
507.14	473.60
507.50	482.16
507.86	491.08
508.22	500.10
508.59	509.09
508.95	518.48
509.31	528.09
509.67	538.00
510.03	548.12
510.39	558.53
510.75	569.06
511.12	579.69
511.48	590.75
511.84	601.95
512.20	613.28
512.56	625.00
512.92	636.95
513.28	649.02
513.64	661.21
514.00	673.68
514.37	686.23
514.73	699.03
515.09	711.74
515.45	724.66
515.81	737.93
516.17	751.55
516.53	765.41
516.89	779.29
517.25	793.11
517.61	807.17
517.97	821.19
518.33	835.32
518.69	849.80
519.05	864.34
519.41	879.15
519.77	894.22
520.13	909.24
520.49	924.20
520.85	939.14
521.21	954.48
521.57	970.22
521.93	985.67
522.29	1001.56
522.65	1017.44
523.01	1033.25
523.37	1048.90
523.73	1064.64
524.09	1080.29
524.45	1096.12
524.81	1112.37
525.17	1128.71
525.53	1145.24
525.89	1161.63
526.25	1178.14
526.61	1194.25
526.97	1210.64
527.33	1226.79
527.68	1243.04
528.04	1259.18
528.40	1275.33
528.76	1291.96
529.12	1308.28
529.48	1324.72
529.84	1340.39
530.20	1356.56
530.56	1373.17
530.91	1390.26
531.27	1406.79
531.63	1422.81
531.99	1439.04
532.35	1454.82
532.71	1470.48
533.07	1486.48
533.42	1502.16
533.78	1517.86
534.14	1533.86
534.50	1548.85
534.86	1564.34
535.21	1579.18
535.57	1594.72
535.93	1610.02
536.29	1624.55
536.65	1639.31
537.00	1653.75
537.36	1668.83
537.72	1683.04
538.08	1697.37
538.44	1710.83
538.79	1724.58
539.15	1738.06
539.51	1751.69
539.87	1765.70
540.22	1779.23
540.58	1792.76
540.94	1805.88
541.29	1818.40
541.65	1830.82
542.01	1843.84
542.37	1856.22
542.72	1868.59
543.08	1880.53
543.44	1892.86
543.79	1904.17
544.15	1915.13
544.51	1926.79
544.87	1937.65
545.22	1948.65
545.58	1958.91
545.94	1968.83
546.29	1978.75
546.65	1988.76
547.01	1998.05
547.36	2006.86
547.72	2015.43
548.07	2023.42
548.43	2031.51
548.79	2039.57
549.14	2047.39
549.50	2054.87
549.86	2062.44
550.21	2070.01
550.57	2077.21
550.92	2083.95
551.28	2091.20
551.64	2098.42
551.99	2105.11
552.35	2111.56
552.70	2118.00
553.06	2124.15
553.41	2130.61
553.77	2136.81
554.13	2143.01
554.48	2149.29
554.84	2155.20
555.19	2160.62
555.55	2166.02
555.90	2171.11
556.26	2176.59
556.61	2181.48
556.97	2186.19
557.32	2190.73
557.68	2195.03
558.03	2199.44
558.39	2203.41
558.74	2208.21
559.10	2212.43
559.45	2216.36
559.81	2220.96
560.16	2224.98
560.52	2228.66
560.87	2232.50
561.23	2235.41
561.58	2238.65
561.94	2241.54
562.29	2243.96
562.64	2247.14
563.00	2249.98
563.35	2253.55
563.71	2256.98
564.06	2260.48
564.42	2263.88
564.77	2266.89
565.12	2269.71
565.48	2272.24
565.83	2274.55
566.19	2276.42
566.54	2277.53
566.89	2279.18
567.25	2280.21
567.60	2281.79
567.96	2283.95
568.31	2285.10
568.66	2286.60
569.02	2287.69
569.37	2288.51
569.72	2289.87
570.08	2290.56
570.43	2291.09
570.78	2291.04
571.14	2289.84
571.49	2288.87
571.84	2288.51
572.20	2287.80
572.55	2287.00
572.90	2285.72
573.26	2284.69
573.61	2283.14
573.96	2282.08
574.31	2279.44
574.67	2276.80
575.02	2273.60
575.37	2270.36
575.72	2267.03
576.08	2263.96
576.43	2260.77
576.78	2257.64
577.13	2254.72
577.49	2251.54
577.84	2248.52
578.19	2245.07
578.54	2241.88
578.90	2238.10
579.25	2233.10
579.60	2228.50
579.95	2223.94
580.30	2219.15
580.66	2214.37
581.01	2209.72
581.36	2204.84
581.71	2201.01
582.06	2196.96
582.42	2192.91
582.77	2188.03
583.12	2183.67
583.47	2179.48
583.82	2174.93
584.17	2169.95
584.53	2164.69
584.88	2159.48
585.23	2153.96
585.58	2148.77
585.93	2143.51
586.28	2138.79
586.63	2134.03
586.98	2129.07
587.34	2124.49
587.69	2119.88
588.04	2114.93
588.39	2109.61
588.74	2103.39
589.09	2097.56
589.44	2091.03
589.79	2084.86
590.14	2079.41
590.49	2073.03
590.84	2066.58
591.19	2060.83
591.54	2054.47
591.89	2047.52
592.25	2041.11
592.60	2034.04
592.95	2026.67
593.30	2019.49
593.65	2012.08
594.00	2005.15
594.35	1998.11
594.70	1990.05
595.05	1983.24
595.40	1976.10
595.75	1968.70
596.10	1962.74
596.45	1956.09
596.80	1950.12
597.15	1943.91
597.50	1937.14
597.85	1930.66
598.19	1924.24
598.54	1917.30
598.89	1910.69
599.24	1904.76
599.59	1898.27
599.94	1892.08
600.29	1886.01
600.64	1879.53
600.99	1872.50
601.34	1865.87
601.69	1858.94
602.04	1852.39
602.39	1844.99
602.74	1838.23
603.08	1831.63
603.43	1824.95
603.78	1817.72
604.13	1810.40
604.48	1803.24
604.83	1796.29
605.18	1789.80
605.53	1781.90
605.87	1773.91
606.22	1766.71
606.57	1758.70
606.92	1751.11
607.27	1744.04
607.62	1737.07
607.96	1729.81
608.31	1723.24
608.66	1715.60
609.01	1708.15
609.36	1700.69
609.70	1692.64
610.05	1684.49
610.40	1676.89
610.75	1668.53
611.10	1660.76
611.44	1652.25
611.79	1644.13
612.14	1635.42
612.49	1625.92
612.83	1617.45
613.18	1609.13
613.53	1601.09
613.88	1592.66
614.22	1584.44
614.57	1575.67
614.92	1567.53
615.27	1560.08
615.61	1551.58
615.96	1543.41
616.31	1535.52
616.65	1527.93
617.00	1520.26
617.35	1512.51
617.70	1504.00
618.04	1495.33
618.39	1487.08
618.74	1479.52
619.08	1471.18
619.43	1463.47
619.78	1456.47
620.12	1449.21
620.47	1441.78
620.82	1433.45
621.16	1425.76
621.51	1418.11
621.85	1410.35
622.20	1401.74
622.55	1393.07
622.89	1385.07
623.24	1377.42
623.59	1370.01
623.93	1362.39
624.28	1355.13
624.62	1347.71
624.97	1340.44
625.32	1333.62
625.66	1326.47
626.01	1319.14
626.35	1311.62
626.70	1303.79
627.04	1296.11
627.39	1288.21
627.73	1280.68
628.08	1273.61
628.43	1266.39
628.77	1258.99
629.12	1251.53
629.46	1244.38
629.81	1236.79
630.15	1229.44
630.50	1221.91
630.84	1213.67
631.19	1205.55
631.53	1197.87
631.88	1190.05
632.22	1182.32
632.57	1174.91
632.91	1167.28
633.26	1159.83
633.60	1152.29
633.95	1145.05
634.29	1137.84
634.64	1131.11
634.98	1123.66
635.32	1116.39
635.67	1109.57
636.01	1102.77
636.36	1095.82
636.70	1089.07
637.05	1082.51
637.39	1076.00
637.73	1069.41
638.08	1063.40
638.42	1057.41
638.77	1050.96
639.11	1044.38
639.45	1037.95
639.80	1031.29
640.14	1024.87
640.49	1018.37
640.83	1012.14
641.17	1005.90
641.52	999.54
641.86	992.95
642.20	987.00
642.55	980.64
642.89	974.21
643.23	967.49
643.58	961.72
643.92	955.55
644.26	949.55
644.61	943.40
644.95	937.39
645.29	930.79
645.64	924.04
645.98	917.62
646.32	911.56
646.66	905.42
647.01	899.58
647.35	893.80
647.69	887.76
648.04	882.08
648.38	876.29
648.72	870.29
649.06	864.26
649.41	858.35
649.75	852.37
650.09	846.45
650.43	840.67
650.78	834.41
651.12	828.31
651.46	822.46
651.80	816.80
652.14	811.32
652.49	805.90
652.83	800.65
653.17	795.06
653.51	789.53
653.85	784.08
654.20	778.44
654.54	772.38
654.88	766.62
655.22	760.77
655.56	754.99
655.90	749.47
656.25	744.18
656.59	738.79
656.93	733.62
657.27	728.42
657.61	723.04
657.95	717.95
658.29	712.90
658.64	707.63
658.98	702.16
659.32	696.66
659.66	691.48
660.00	686.19
660.34	681.21
660.68	676.12
661.02	671.09
661.36	666.31
661.70	661.83
662.05	657.46
662.39	653.03
662.73	648.56
663.07	644.17
663.41	639.82
663.75	635.39
664.09	630.83
664.43	626.40
664.77	622.25
665.11	618.05
665.45	613.86
665.79	609.84
666.13	605.84
666.47	601.69
666.81	597.52
667.15	593.36
667.49	589.32
667.83	585.50
668.17	581.57
668.51	577.48
668.85	573.38
669.19	569.50
669.53	565.71
669.87	561.82
670.21	558.04
670.55	554.23
670.89	550.70
671.23	547.29
671.57	543.75
671.91	540.22
672.25	536.60
672.58	533.11
672.92	529.59
673.26	526.33
673.60	523.19
673.94	520.03
674.28	517.11
674.62	514.19
674.96	511.08
675.30	508.14
675.64	505.27
675.97	502.46
676.31	499.58
676.65	496.61
676.99	493.85
677.33	490.99
677.67	488.19
678.01	485.12
678.34	482.15
678.68	479.25
679.02	476.40
679.36	473.61
679.70	470.84
680.04	468.10
680.37	465.28
680.71	462.41
681.05	459.74
681.39	456.99
681.73	454.27
682.06	451.70
682.40	449.14
682.74	446.53
683.08	443.93
683.42	441.31
683.75	438.73
684.09	436.13
684.43	433.62
684.77	431.13
685.10	428.76
685.44	426.38
685.78	424.08
686.12	421.80
686.45	419.47
686.79	417.20
687.13	414.96
687.46	412.70
687.80	410.52
688.14	408.22
688.48	406.13
688.81	403.97
689.15	401.79
689.49	399.62
689.82	397.54
690.16	395.49
690.50	393.50
690.83	391.58
691.17	389.60
691.51	387.66
691.84	385.81
692.18	383.88
692.52	381.89
692.85	379.90
693.19	378.01
693.52	376.15
693.86	374.29
694.20	372.44
694.53	370.63
694.87	368.78
695.21	366.97
695.54	365.14
695.88	363.34
696.21	361.58
696.55	359.82
696.88	358.05
697.22	356.29
697.56	354.62
697.89	352.92
698.23	351.35
698.56	349.74
698.90	348.12
699.23	346.47
699.57	344.89
699.90	343.30
700.24	341.67
700.58	340.15
700.91	338.67
701.25	337.21
701.58	335.79
701.92	334.41
702.25	333.05
702.59	331.66
702.92	330.30
703.26	329.02
703.59	327.74
703.93	326.55
704.26	325.33
704.60	324.06
704.93	322.75
705.26	321.43
705.60	320.23
705.93	319.06
706.27	318.00
706.60	316.96
706.94	315.92
707.27	314.79
707.61	313.66
707.94	312.57
708.27	311.49
708.61	310.41
708.94	309.35
709.28	308.35
709.61	307.36
709.94	306.38
710.28	305.29
710.61	304.30
710.95	303.18
711.28	302.22
711.61	301.22
711.95	300.36
712.28	299.42
712.61	298.44
712.95	297.48
713.28	296.55
713.61	295.58
713.95	294.63
714.28	293.79
714.61	292.94
714.95	292.05
715.28	291.18
715.61	290.34
715.95	289.48
716.28	288.62
716.61	287.72
716.95	286.91
717.28	286.17
717.61	285.38
717.94	284.66
718.28	283.87
718.61	283.13
718.94	282.35
719.27	281.67
719.61	281.02
719.94	280.35
720.27	279.63
720.60	278.98
720.94	278.35
721.27	277.73
721.60	277.14
721.93	276.58
722.27	276.00
722.60	275.43
722.93	274.85
723.26	274.32
723.59	273.80
723.93	273.24
724.26	272.67
724.59	272.10
724.92	271.57
725.25	271.08
725.59	270.58
725.92	270.11
726.25	269.55
726.58	269.02
726.91	268.53
727.24	268.03
727.57	267.55
727.91	267.03
728.24	266.56
728.57	266.08
728.90	265.60
729.23	265.11
729.56	264.67
729.89	264.20
730.22	263.67
730.55	263.20
730.89	262.73
731.22	262.26
731.55	261.84
731.88	261.42
732.21	260.96
732.54	260.48
732.87	260.02
733.20	259.61
733.53	259.23
733.86	258.87
734.19	258.45
734.52	258.06
734.85	257.73
735.18	257.31
735.51	256.94
735.84	256.54
736.17	256.18
736.50	255.73
736.83	255.47
737.16	255.14
737.49	254.79
737.82	254.41
738.15	254.06
738.48	253.75
738.81	253.41
739.14	253.05
739.47	252.77
739.80	252.45
740.13	252.15
740.46	251.79
740.79	251.41
741.12	251.12
741.45	250.81
741.78	250.45
742.11	250.15
742.44	249.79
742.77	249.53
743.10	249.21
743.43	248.91
743.75	248.55
744.08	248.37
744.41	248.11
744.74	247.87
745.07	247.57
745.40	247.29
745.73	247.05
746.06	246.79
746.39	246.52
746.71	246.25
747.04	245.97
747.37	245.72
747.70	245.46
748.03	245.16
748.36	244.93
748.68	244.73
749.01	244.46
749.34	244.28
749.67	244.03
750.00	243.82
750.33	243.68
750.65	243.44
750.98	243.10
751.31	242.90
751.64	242.70
751.97	242.54
752.29	242.29
752.62	242.02
752.95	241.79
753.28	241.57
753.60	241.39
753.93	241.19
754.26	241.00
754.59	240.79
754.91	240.60
755.24	240.36
755.57	240.14
755.90	239.99
756.22	239.76
756.55	239.56
756.88	239.34
757.20	239.08
757.53	238.89
757.86	238.75
758.19	238.54
758.51	238.36
758.84	238.16
759.17	237.99
759.49	237.82
759.82	237.71
760.15	237.58
760.47	237.42
760.80	237.25
761.13	237.09
761.45	236.94
761.78	236.82
762.11	236.65
762.43	236.51
762.76	236.36
763.08	236.22
763.41	236.09
763.74	235.93
764.06	235.82
764.39	235.69
764.71	235.50
765.04	235.38
765.37	235.23
765.69	235.10
766.02	234.96
766.34	234.85
766.67	234.71
767.00	234.59
767.32	234.46
767.65	234.44
767.97	234.32
768.30	234.19
768.62	234.08
768.95	234.00
769.27	233.88
769.60	233.79
769.92	233.65
770.25	233.53
770.57	233.42
770.90	233.34
771.22	233.22
771.55	233.15
771.87	233.06
772.20	233.00
772.52	232.98
772.85	233.01
773.17	232.89
773.50	232.79
773.82	232.68
774.15	232.56
774.47	232.39
774.80	232.30
775.12	232.20
775.45	232.09
775.77	232.01
776.09	231.94
776.42	231.85
776.74	231.83
777.07	231.74
777.39	231.68
777.72	231.58
778.04	231.53
778.36	231.45
778.69	231.37
779.01	231.30
779.33	231.15
779.66	230.99
779.98	230.94
780.31	230.90
780.63	230.87
780.95	230.84
781.28	230.79
781.60	230.74
781.92	230.71
782.25	230.65
782.57	230.59
782.89	230.50
783.22	230.42
783.54	230.35
783.86	230.28
784.19	230.22
784.51	230.20
784.83	230.13
785.16	230.09
785.48	230.05
785.80	230.00
786.12	229.96
786.45	229.93
786.77	229.89
787.09	229.83
787.42	229.76
787.74	229.71
788.06	229.71
788.38	229.63
788.71	229.61
789.03	229.58
789.35	229.57
789.67	229.54
789.99	229.50
790.32	229.43
790.64	229.43
790.96	229.45
791.28	229.37
791.61	229.31
791.93	229.25
792.25	229.23
792.57	229.25
792.89	229.17
793.21	229.14
793.54	229.09
793.86	229.01
794.18	228.95
794.50	228.91
794.82	228.84
795.14	228.83
795.47	228.82
795.79	228.78
796.11	228.71
796.43	228.69
796.75	228.66
797.07	228.68
797.39	228.64
797.71	228.57
798.04	228.55
798.36	228.52
798.68	228.51
799.00	228.45
799.32	228.38
799.64	228.34
799.96	228.31
800.28	228.30
800.60	228.28
800.92	228.26
801.24	228.20
801.56	228.16
801.89	228.13
802.21	228.10
802.53	228.05
802.85	228.03
803.17	228.02
803.49	228.00
803.81	227.91
804.13	227.88
804.45	227.83
804.77	227.78
805.09	227.77
805.41	227.72
805.73	227.67
806.05	227.58
806.37	227.55
806.69	227.50
807.01	227.49
807.33	227.46
807.65	227.37
807.97	227.40
808.28	227.39
808.60	227.35
808.92	227.29
809.24	227.35
809.56	227.32
809.88	227.26
810.20	227.18
810.52	227.19
810.84	227.15
811.16	227.10
811.48	227.08
811.80	227.07
812.12	227.05
812.43	227.05
812.75	227.03
813.07	227.01
813.39	226.97
813.71	226.93
814.03	226.93
814.35	226.93
814.67	226.85
814.98	226.79
815.30	226.75
815.62	226.67
815.94	226.57
816.26	226.58
816.58	226.56
816.89	226.56
817.21	226.50
817.53	226.49
817.85	226.47
818.17	226.45
818.48	226.42
818.80	226.38
819.12	226.34
819.44	226.34
819.76	226.31
820.07	226.32
820.39	226.30
820.71	226.27
821.03	226.23
821.34	226.20
821.66	226.23
821.98	226.25
822.30	226.24
822.61	226.29
822.93	226.23
823.25	226.24
823.57	226.22
823.88	226.25
824.20	226.23
824.52	226.23
824.83	226.21
825.15	226.19
825.47	226.20
825.79	226.20
826.10	226.16
826.42	226.13
826.74	226.13
827.05	226.09
827.37	226.09
827.69	226.10
828.00	226.13
828.32	226.10
828.64	226.07
828.95	226.12
829.27	226.08
829.58	226.08
829.90	226.09
830.22	226.08
830.53	226.04
830.85	226.04
831.17	226.00
831.48	225.98
831.80	225.97
832.11	225.97
832.43	225.96
832.75	225.97
833.06	226.02
833.38	225.99
833.69	225.99
834.01	225.96
834.32	225.97
834.64	225.93
834.96	225.91
835.27	225.90
835.59	225.86
835.90	225.82
836.22	225.82
836.53	225.77
836.85	225.75
837.16	225.82
837.48	225.81
837.79	225.84
838.11	225.85
838.42	225.84
838.74	225.83
839.05	225.83
839.37	225.82
839.68	225.76
840.00	225.72
840.31	225.73
840.63	225.72
840.94	225.70
841.26	225.68
841.57	225.69
841.88	225.72
842.20	225.68
842.51	225.66
842.83	225.64
843.14	225.73
843.46	225.71
843.77	225.67
844.08	225.64
844.40	225.59
844.71	225.57
845.03	225.56
845.34	225.54
845.65	225.50
845.97	225.51
846.28	225.51
846.60	225.51
846.91	225.50
847.22	225.51
847.54	225.50
847.85	225.50
848.16	225.48
848.48	225.45
848.79	225.52
849.10	225.53
849.42	225.55
849.73	225.47
850.04	225.46
850.36	225.41
850.67	225.41
850.98	225.44
851.30	225.45
851.61	225.45
851.92	225.44
852.23	225.46
852.55	225.44
852.86	225.42
853.17	225.44
853.49	225.43
853.80	225.42
854.11	225.42
854.42	225.45
854.74	225.41
855.05	225.42
855.36	225.34
855.67	225.34
855.99	225.31
856.30	225.41
856.61	225.43
856.92	225.43
857.23	225.43
857.55	225.42
857.86	225.37
858.17	225.37
858.48	225.35
858.79	225.36
859.11	225.38
859.42	225.36
859.73	225.36
860.04	225.36
860.35	225.30
860.66	225.27
860.98	225.27
861.29	225.28
861.60	225.26
861.91	225.30
862.22	225.25
862.53	225.25
862.84	225.11
863.16	225.10
863.47	225.08
863.78	225.08
864.09	225.11
864.40	225.15
864.71	225.14
865.02	225.17
865.33	225.14
865.64	225.12
865.95	225.12
866.27	225.15
866.58	225.12
866.89	225.17
867.20	225.18
867.51	225.17
867.82	225.18
868.13	225.22
868.44	225.19
868.75	225.19
869.06	225.21
869.37	225.23
869.68	225.21
869.99	225.25
870.30	225.21
870.61	225.17
870.92	225.17
871.23	225.18
871.54	225.18
871.85	225.22
872.16	225.24
872.47	225.25
872.78	225.23
873.09	225.26
873.40	225.25
873.71	225.27
874.02	225.28
874.33	225.27
874.64	225.25
874.95	225.26
875.26	225.31
875.56	225.29
875.87	225.28
876.18	225.30
876.49	225.41
876.80	225.43
877.11	225.47
877.42	225.45
877.73	225.45
878.04	225.46
878.35	225.47
878.66	225.45
878.96	225.48
879.27	225.46
879.58	225.46
879.89	225.51
880.20	225.53
880.51	225.52
880.82	225.52
881.12	225.52
881.43	225.51
881.74	225.49
882.05	225.50
882.36	225.52
882.67	225.51
882.97	225.39
883.28	225.40
883.59	225.39
883.90	225.42
884.21	225.40
884.51	225.40
884.82	225.38
885.13	225.39
885.44	225.38
885.74	225.39
886.05	225.39
886.36	225.33
886.67	225.26
886.98	225.32
887.28	225.33
887.59	225.31
887.90	225.28
888.20	225.28
888.51	225.27
888.82	225.23
889.13	225.25
889.43	225.30
889.74	225.27
890.05	225.27
890.35	225.24
890.66	225.23
890.97	225.18
891.28	225.18
891.58	225.18
891.89	225.17
892.20	225.14
892.50	225.10
892.81	225.13
893.12	225.17
893.42	225.10
893.73	225.12
894.04	225.14
894.34	225.16
894.65	225.15
894.95	225.17
895.26	225.17
895.57	225.20
895.87	225.14
896.18	225.13
896.48	225.11
896.79	225.13
897.10	225.14
897.40	225.17
897.71	225.13
898.01	225.13
898.32	225.12
898.63	225.10
898.93	225.11
899.24	225.10
899.54	225.06
899.85	225.03
900.15	224.99
900.46	224.95
900.76	224.96
901.07	224.96
901.38	224.91
901.68	224.94
901.99	224.87
902.29	224.87
902.60	224.88
902.90	224.86
903.21	224.85
903.51	224.84
903.82	224.83
904.12	224.85
904.43	224.83
904.73	224.81
905.03	224.84
905.34	224.95
905.64	224.93
905.95	224.90
906.25	224.90
906.56	224.88
906.86	224.91
907.17	224.90
907.47	224.90
907.77	224.91
908.08	224.87
908.38	224.91
908.69	224.91
908.99	224.91
909.30	224.94
909.60	224.91
909.90	224.92
910.21	224.90
910.51	224.91
910.81	224.95
911.12	224.99
911.42	224.96
911.73	224.86
912.03	224.90
912.33	224.94
912.64	224.95
912.94	224.97
913.24	224.97
913.55	224.96
913.85	224.95
914.15	224.99
914.46	225.02
914.76	224.99
915.06	224.95
915.37	224.91
915.67	224.91
915.97	224.92
916.27	224.91
916.58	224.92
916.88	224.90
917.18	224.90
917.49	224.97
917.79	224.99
918.09	225.02
918.39	225.05
918.70	225.05
919.00	225.07
919.30	225.15
919.60	225.12
919.91	225.12
920.21	225.14
920.51	225.10
920.81	225.10
921.12	225.13
921.42	225.17
921.72	225.24
922.02	225.24
922.32	225.28
922.63	225.28
922.93	225.34
923.23	225.38
923.53	225.35
923.83	225.29
924.13	225.30
924.44	225.26
924.74	225.25
925.04	225.27
925.34	225.25
925.64	225.20
925.94	225.24
926.24	225.32
926.55	225.26
926.85	225.28
927.15	225.28
927.45	225.28
927.75	225.24
928.05	225.21
928.35	225.20
928.65	225.22
928.95	225.20
929.26	225.14
929.56	225.14
929.86	225.13
930.16	225.13
930.46	225.12
930.76	225.13
931.06	225.06
931.36	225.04
931.66	225.04
931.96	225.03
932.26	224.97
932.56	224.91
932.86	224.96
933.16	224.95
933.46	224.92
933.76	224.90
934.06	224.94
934.36	225.00
934.66	224.98
934.96	224.94
935.26	224.94
935.56	224.97
935.86	224.93
936.16	224.92
936.46	224.88
936.76	224.86
937.06	224.85
937.36	224.88
937.66	224.88
937.96	224.87
938.26	224.84
938.56	224.86
938.86	224.87
939.16	224.87
939.46	224.89
939.76	224.93
940.06	224.90
940.35	224.87
940.65	224.79
940.95	224.81
941.25	224.78
941.55	224.80
941.85	224.75
942.15	224.76
942.45	224.78
942.75	224.79
943.04	224.80
943.34	224.83
943.64	224.79
943.94	224.77
944.24	224.78
944.54	224.83
944.84	224.83
945.13	224.80
945.43	224.79
945.73	224.78
946.03	224.77
946.33	224.80
946.62	224.82
946.92	224.82
947.22	224.83
947.52	224.89
947.82	224.87
948.11	224.89
948.41	224.92
948.71	224.90
949.01	224.94
949.31	224.94
949.60	224.92
949.90	224.97
950.20	224.97
950.50	224.99
950.79	224.95
951.09	224.98
951.39	225.00
951.69	225.00
951.98	225.01
952.28	225.03
952.58	225.02
952.87	225.04
953.17	225.04
953.47	225.05
953.76	225.03
954.06	225.05
954.36	225.03
954.66	225.00
954.95	225.07
955.25	225.03
955.55	225.05
955.84	225.03
956.14	225.04
956.44	225.06
956.73	225.03
957.03	225.00
957.32	224.99
957.62	225.00
957.92	225.00
958.21	224.98
958.51	225.07
958.81	225.12
959.10	225.09
959.40	225.09
959.69	225.08
959.99	225.10
960.29	225.09
960.58	225.08
960.88	225.08
961.17	225.04
961.47	225.08
961.76	225.06
962.06	225.11
962.36	225.11
962.65	225.08
962.95	225.07
963.24	225.11
963.54	225.10
963.83	225.08
964.13	225.06
964.42	225.04
964.72	224.93
965.01	224.89
965.31	224.88
965.60	224.86
965.90	224.91
966.19	224.87
966.49	224.85
966.78	224.86
967.08	224.87
967.37	224.88
967.67	224.83
967.96	224.83
968.26	224.80
968.55	224.80
968.85	224.81
969.14	224.83
969.43	224.78
969.73	224.79
970.02	224.77
970.32	224.76
970.61	224.75
970.91	224.71
971.20	224.71
971.49	224.69
971.79	224.71
972.08	224.64
972.38	224.64
972.67	224.66
972.96	224.66
973.26	224.62
973.55	224.64
973.85	224.66
974.14	224.65
974.43	224.64
974.73	224.58
975.02	224.57
975.31	224.57
975.61	224.58
975.90	224.56
976.19	224.56
976.49	224.58
976.78	224.59
977.07	224.59
977.37	224.57
977.66	224.60
977.95	224.56
978.24	224.57
978.54	224.57
978.83	224.53
979.12	224.54
979.42	224.52
979.71	224.48
980.00	224.43
980.29	224.44
980.59	224.42
980.88	224.45
981.17	224.46
981.46	224.46
981.76	224.44
982.05	224.49
982.34	224.50
982.63	224.49
982.93	224.50
983.22	224.56
983.51	224.61
983.80	224.66
984.09	224.68
984.39	224.68
984.68	224.69
984.97	224.72
985.26	224.68
985.55	224.72
985.85	224.73
986.14	224.77
986.43	224.77
986.72	224.77
987.01	224.74
987.30	224.71
987.59	224.70
987.89	224.73
988.18	224.70
988.47	224.67
988.76	224.64
989.05	224.62
989.34	224.60
989.63	224.61
989.92	224.55
990.22	224.56
990.51	224.55
990.80	224.53
991.09	224.54
991.38	224.57
991.67	224.57
991.96	224.55
992.25	224.58
992.54	224.57
992.83	224.56
993.12	224.59
993.41	224.62
993.70	224.68
993.99	224.68
994.28	224.71
994.58	224.74
994.87	224.74
995.16	224.73
995.45	224.67
995.74	224.63
996.03	224.66
996.32	224.64
996.61	224.67
996.90	224.68
997.19	224.67
997.48	224.66
997.77	224.63
998.06	224.63
998.34	224.59
998.63	224.59
998.92	224.60
999.21	224.58
999.50	224.61
999.79	224.58
1000.08	224.58
1000.37	224.56
1000.66	224.54
1000.95	224.58
1001.24	224.60
1001.53	224.62
1001.82	224.61
1002.11	224.58
1002.40	224.60
1002.68	224.62
1002.97	224.70
1003.26	224.70
1003.55	224.70
1003.84	224.70
1004.13	224.74
1004.42	224.73
1004.71	224.73
1004.99	224.73
1005.28	224.78
1005.57	224.71
1005.86	224.68
1006.15	224.64
1006.44	224.66
1006.72	224.67
1007.01	224.66
1007.30	224.64
1007.59	224.64
1007.88	224.66
1008.17	224.67
1008.45	224.66
1008.74	224.61
1009.03	224.53
1009.32	224.51
1009.60	224.51
1009.89	224.49
1010.18	224.42
1010.47	224.40
1010.76	224.40
1011.04	224.38
1011.33	224.39
1011.62	224.44
1011.91	224.48
1012.19	224.49
1012.48	224.50
1012.77	224.51
1013.05	224.55
1013.34	224.56
1013.63	224.55
1013.92	224.55
1014.20	224.53
1014.49	224.50
1014.78	224.51
1015.06	224.51
1015.35	224.54
1015.64	224.51
1015.92	224.53
1016.21	224.57
1016.50	224.59
1016.78	224.57
1017.07	224.62
1017.36	224.58
1017.64	224.56
1017.93	224.59
1018.22	224.57
1018.50	224.54
1018.79	224.54
1019.08	224.49
1019.36	224.52
1019.65	224.53
1019.93	224.60
1020.22	224.65
1020.51	224.74
1020.79	224.74
1021.08	224.20
1021.36	224.37
1021.65	224.75
1021.94	224.75
1022.22	224.91
1022.51	224.54
1022.79	225.98
1023.08	225.14
1023.36	226.20
1023.65	224.47
>>>>>End Processed Spectral Data<<<<<
