SpectraSuite Data File
++++++++++++++++++++++++++++++++++++
Date: Fri Feb 01 15:27:36 EST 2013
User: group
Dark Spectrum Present: No
Reference Spectrum Present: No
Number of Sampled Component Spectra: 1
Spectrometers: USB2E7196
Integration Time (usec): 35000 (USB2E7196)
Spectra Averaged: 100 (USB2E7196)
Boxcar Smoothing: 10 (USB2E7196)
Correct for Electrical Dark: No (USB2E7196)
Strobe/Lamp Enabled: No (USB2E7196)
Correct for Detector Non-linearity: No (USB2E7196)
Correct for Stray Light: No (USB2E7196)
Number of Pixels in Processed Spectrum: 2048
>>>>>Begin Processed Spectral Data<<<<<
339.09	0.00
339.48	214.87
339.86	216.36
340.24	217.86
340.63	219.31
341.01	221.89
341.39	222.60
341.78	223.83
342.16	224.94
342.54	225.19
342.93	213.60
343.31	224.39
343.69	224.95
344.07	225.45
344.46	225.87
344.84	226.25
345.22	226.52
345.60	226.75
345.99	226.91
346.37	227.05
346.75	227.16
347.13	227.20
347.52	227.24
347.90	227.30
348.28	227.32
348.66	227.37
349.05	227.37
349.43	227.37
349.81	227.41
350.19	227.50
350.57	227.54
350.96	227.63
351.34	227.72
351.72	227.83
352.10	227.89
352.48	227.96
352.87	228.02
353.25	228.06
353.63	228.11
354.01	228.18
354.39	228.23
354.77	228.30
355.15	228.41
355.54	228.47
355.92	228.51
356.30	228.60
356.68	228.74
357.06	228.79
357.44	228.85
357.82	228.87
358.20	228.90
358.58	228.97
358.97	229.02
359.35	229.09
359.73	229.12
360.11	229.16
360.49	229.22
360.87	229.24
361.25	229.29
361.63	229.36
362.01	229.39
362.39	229.40
362.77	229.45
363.15	229.45
363.53	229.46
363.91	229.46
364.29	229.46
364.67	229.34
365.05	229.36
365.43	229.35
365.81	229.40
366.19	229.44
366.57	229.45
366.95	229.45
367.33	229.40
367.71	229.41
368.09	229.40
368.47	229.37
368.85	229.35
369.23	229.34
369.61	229.28
369.99	229.28
370.37	229.26
370.75	229.24
371.13	229.16
371.51	229.12
371.89	229.08
372.27	229.01
372.65	229.00
373.03	228.93
373.41	228.89
373.78	228.80
374.16	228.71
374.54	228.62
374.92	228.52
375.30	228.45
375.68	228.36
376.06	228.33
376.44	228.27
376.82	228.23
377.19	228.14
377.57	228.06
377.95	227.95
378.33	227.88
378.71	227.75
379.09	227.70
379.47	227.65
379.84	227.56
380.22	227.49
380.60	227.37
380.98	227.30
381.36	227.21
381.73	227.15
382.11	227.10
382.49	227.06
382.87	226.99
383.25	226.95
383.62	227.00
384.00	226.90
384.38	226.84
384.76	226.78
385.13	226.81
385.51	226.77
385.89	226.72
386.27	226.66
386.64	226.63
387.02	226.60
387.40	226.59
387.78	226.55
388.15	226.54
388.53	226.55
388.91	226.47
389.29	226.46
389.66	226.44
390.04	226.39
390.42	226.40
390.79	226.41
391.17	226.35
391.55	226.25
391.92	226.27
392.30	226.28
392.68	226.28
393.05	226.25
393.43	226.26
393.81	226.26
394.18	226.29
394.56	226.36
394.94	226.42
395.31	226.42
395.69	226.50
396.06	226.56
396.44	226.59
396.82	226.68
397.19	226.75
397.57	226.82
397.95	226.90
398.32	226.94
398.70	227.02
399.07	227.10
399.45	227.16
399.82	227.22
400.20	227.31
400.58	227.40
400.95	227.48
401.33	227.59
401.70	227.77
402.08	227.86
402.45	227.94
402.83	228.04
403.20	228.14
403.58	228.23
403.95	228.36
404.33	228.49
404.71	228.64
405.08	228.83
405.46	228.99
405.83	229.16
406.21	229.26
406.58	229.45
406.96	229.67
407.33	229.85
407.70	230.08
408.08	230.32
408.45	230.57
408.83	230.75
409.20	230.97
409.58	231.13
409.95	231.41
410.33	231.69
410.70	231.95
411.08	232.25
411.45	232.58
411.82	232.89
412.20	233.23
412.57	233.64
412.95	233.93
413.32	234.31
413.69	234.69
414.07	235.17
414.44	235.60
414.82	236.08
415.19	236.63
415.56	237.15
415.94	237.70
416.31	238.29
416.68	238.95
417.06	239.65
417.43	240.36
417.81	241.14
418.18	241.88
418.55	242.69
418.93	243.55
419.30	244.43
419.67	245.35
420.04	246.33
420.42	247.31
420.79	248.49
421.16	249.64
421.54	250.86
421.91	252.02
422.28	253.26
422.66	254.60
423.03	255.89
423.40	257.23
423.77	258.62
424.15	260.07
424.52	261.53
424.89	263.15
425.26	264.67
425.64	266.09
426.01	267.68
426.38	269.36
426.75	271.05
427.13	272.77
427.50	274.54
427.87	276.46
428.24	278.30
428.61	280.05
428.99	282.00
429.36	284.09
429.73	286.20
430.10	288.24
430.47	290.23
430.85	292.35
431.22	294.58
431.59	296.97
431.96	299.20
432.33	301.73
432.70	304.08
433.08	306.93
433.45	309.57
433.82	312.19
434.19	315.09
434.56	317.87
434.93	320.54
435.30	323.18
435.68	326.03
436.05	328.90
436.42	331.73
436.79	334.22
437.16	336.93
437.53	339.75
437.90	342.57
438.27	345.38
438.64	348.21
439.01	350.81
439.38	353.04
439.75	355.22
440.13	357.71
440.50	360.08
440.87	361.91
441.24	363.89
441.61	366.04
441.98	367.56
442.35	369.38
442.72	371.21
443.09	373.03
443.46	374.10
443.83	374.64
444.20	375.09
444.57	375.94
444.94	376.25
445.31	376.62
445.68	377.02
446.05	377.08
446.42	376.70
446.79	376.29
447.16	375.82
447.53	375.50
447.90	374.34
448.27	373.19
448.64	371.64
449.01	370.47
449.37	368.47
449.74	366.53
450.11	364.30
450.48	361.82
450.85	359.28
451.22	357.08
451.59	355.12
451.96	353.22
452.33	350.64
452.70	348.25
453.07	345.41
453.43	342.44
453.80	339.65
454.17	336.95
454.54	334.42
454.91	331.71
455.28	328.99
455.65	326.50
456.02	324.05
456.38	321.88
456.75	319.22
457.12	317.00
457.49	314.80
457.86	312.64
458.23	310.78
458.59	308.73
458.96	306.64
459.33	304.74
459.70	302.82
460.07	301.31
460.43	299.60
460.80	297.92
461.17	296.47
461.54	294.96
461.91	293.54
462.27	292.07
462.64	290.84
463.01	289.54
463.38	288.19
463.74	286.79
464.11	285.62
464.48	284.54
464.85	283.39
465.21	282.50
465.58	281.58
465.95	280.47
466.32	279.56
466.68	278.63
467.05	277.71
467.42	276.81
467.78	275.82
468.15	274.93
468.52	274.29
468.88	273.43
469.25	272.66
469.62	271.99
469.98	271.32
470.35	270.66
470.72	270.04
471.08	269.42
471.45	268.89
471.82	268.30
472.18	267.72
472.55	267.29
472.92	266.76
473.28	266.25
473.65	265.81
474.02	265.35
474.38	264.99
474.75	264.68
475.11	264.33
475.48	264.09
475.85	263.86
476.21	263.61
476.58	263.45
476.94	263.30
477.31	263.14
477.67	262.98
478.04	262.88
478.41	262.81
478.77	262.81
479.14	262.71
479.50	262.77
479.87	262.86
480.23	262.94
480.60	262.99
480.96	263.09
481.33	263.33
481.69	263.52
482.06	263.71
482.42	263.90
482.79	264.18
483.15	264.50
483.52	264.85
483.88	265.21
484.25	265.55
484.61	266.02
484.98	266.49
485.34	267.07
485.71	267.68
486.07	268.28
486.44	268.84
486.80	269.55
487.17	270.28
487.53	271.11
487.90	271.97
488.26	272.96
488.62	273.97
488.99	274.91
489.35	275.98
489.72	277.12
490.08	278.36
490.44	279.61
490.81	280.93
491.17	282.29
491.54	283.79
491.90	285.39
492.26	287.03
492.63	288.75
492.99	290.52
493.36	292.42
493.72	294.50
494.08	296.61
494.45	298.87
494.81	301.22
495.17	303.63
495.54	306.20
495.90	308.85
496.26	311.64
496.63	314.59
496.99	317.67
497.35	320.92
497.72	324.32
498.08	327.87
498.44	331.55
498.80	335.48
499.17	339.50
499.53	343.64
499.89	348.01
500.26	352.53
500.62	357.20
500.98	362.15
501.34	367.21
501.71	372.58
502.07	377.99
502.43	383.59
502.79	389.41
503.16	395.46
503.52	401.73
503.88	408.19
504.24	414.89
504.60	421.79
504.97	428.96
505.33	436.24
505.69	443.89
506.05	451.61
506.41	459.55
506.78	467.75
507.14	476.20
507.50	484.96
507.86	493.95
508.22	503.18
508.59	512.34
508.95	521.92
509.31	531.66
509.67	541.78
510.03	552.07
510.39	562.61
510.75	573.45
511.12	584.42
511.48	595.68
511.84	607.09
512.20	618.64
512.56	630.56
512.92	642.79
513.28	655.14
513.64	667.64
514.00	680.33
514.37	693.19
514.73	706.30
515.09	719.34
515.45	732.63
515.81	746.19
516.17	760.24
516.53	774.40
516.89	788.63
517.25	802.76
517.61	817.24
517.97	831.75
518.33	846.23
518.69	861.00
519.05	876.07
519.41	891.28
519.77	906.81
520.13	922.25
520.49	937.61
520.85	953.17
521.21	969.04
521.57	985.30
521.93	1001.19
522.29	1017.61
522.65	1033.90
523.01	1050.23
523.37	1066.21
523.73	1082.48
524.09	1098.67
524.45	1115.06
524.81	1131.88
525.17	1148.79
525.53	1165.73
525.89	1182.66
526.25	1199.46
526.61	1215.81
526.97	1232.49
527.33	1248.99
527.68	1265.67
528.04	1282.25
528.40	1298.92
528.76	1315.97
529.12	1332.57
529.48	1349.56
529.84	1365.65
530.20	1382.39
530.56	1399.49
530.91	1417.04
531.27	1433.81
531.63	1450.19
531.99	1466.76
532.35	1482.76
532.71	1498.70
533.07	1514.97
533.42	1530.94
533.78	1547.12
534.14	1563.60
534.50	1579.09
534.86	1595.17
535.21	1610.39
535.57	1626.48
535.93	1641.92
536.29	1656.70
536.65	1671.95
537.00	1686.73
537.36	1702.14
537.72	1716.75
538.08	1731.15
538.44	1745.11
538.79	1758.98
539.15	1772.87
539.51	1786.76
539.87	1801.09
540.22	1814.93
540.58	1828.90
540.94	1842.42
541.29	1855.48
541.65	1868.14
542.01	1881.45
542.37	1893.72
542.72	1906.25
543.08	1918.02
543.44	1930.61
543.79	1941.84
544.15	1952.79
544.51	1964.53
544.87	1975.54
545.22	1986.39
545.58	1996.58
545.94	2006.29
546.29	2016.26
546.65	2026.06
547.01	2035.26
547.36	2044.15
547.72	2052.63
548.07	2060.45
548.43	2068.50
548.79	2076.49
549.14	2083.98
549.50	2091.36
549.86	2099.20
550.21	2106.60
550.57	2113.74
550.92	2120.12
551.28	2127.33
551.64	2134.44
551.99	2140.86
552.35	2147.05
552.70	2153.17
553.06	2159.22
553.41	2165.63
553.77	2171.71
554.13	2177.90
554.48	2184.10
554.84	2189.39
555.19	2194.69
555.55	2199.91
555.90	2204.32
556.26	2209.20
556.61	2213.95
556.97	2218.28
557.32	2222.30
557.68	2226.45
558.03	2230.69
558.39	2234.63
558.74	2239.34
559.10	2243.24
559.45	2246.97
559.81	2251.18
560.16	2255.05
560.52	2258.30
560.87	2261.66
561.23	2264.28
561.58	2267.19
561.94	2269.80
562.29	2272.31
562.64	2274.91
563.00	2277.37
563.35	2281.02
563.71	2284.09
564.06	2287.23
564.42	2289.99
564.77	2292.47
565.12	2294.62
565.48	2296.43
565.83	2298.10
566.19	2299.25
566.54	2300.25
566.89	2301.21
567.25	2301.72
567.60	2302.89
567.96	2304.50
568.31	2305.39
568.66	2306.37
569.02	2306.88
569.37	2307.10
569.72	2307.91
570.08	2307.97
570.43	2308.02
570.78	2307.14
571.14	2305.67
571.49	2304.61
571.84	2304.16
572.20	2302.93
572.55	2301.84
572.90	2300.35
573.26	2298.99
573.61	2297.23
573.96	2295.18
574.31	2292.14
574.67	2289.04
575.02	2285.38
575.37	2282.03
575.72	2278.00
576.08	2274.76
576.43	2271.30
576.78	2267.56
577.13	2264.33
577.49	2261.28
577.84	2257.76
578.19	2254.18
578.54	2250.23
578.90	2245.74
579.25	2240.25
579.60	2235.23
579.95	2230.07
580.30	2225.06
580.66	2219.89
581.01	2214.94
581.36	2210.05
581.71	2205.84
582.06	2201.31
582.42	2196.79
582.77	2191.39
583.12	2186.68
583.47	2181.79
583.82	2176.65
584.17	2171.19
584.53	2165.65
584.88	2160.00
585.23	2153.98
585.58	2148.33
585.93	2143.01
586.28	2138.29
586.63	2133.10
586.98	2127.81
587.34	2123.03
587.69	2118.02
588.04	2112.53
588.39	2106.68
588.74	2100.03
589.09	2093.82
589.44	2087.06
589.79	2080.95
590.14	2075.28
590.49	2068.83
590.84	2062.38
591.19	2056.30
591.54	2049.90
591.89	2042.33
592.25	2035.27
592.60	2028.11
592.95	2020.40
593.30	2012.95
593.65	2005.15
594.00	1998.14
594.35	1991.11
594.70	1983.06
595.05	1975.75
595.40	1968.39
595.75	1960.95
596.10	1954.64
596.45	1947.85
596.80	1941.54
597.15	1934.80
597.50	1927.51
597.85	1921.05
598.19	1914.38
598.54	1907.26
598.89	1900.54
599.24	1894.62
599.59	1887.82
599.94	1881.61
600.29	1875.27
600.64	1868.71
600.99	1861.17
601.34	1854.25
601.69	1847.17
602.04	1840.16
602.39	1832.79
602.74	1826.01
603.08	1819.27
603.43	1812.58
603.78	1805.31
604.13	1798.18
604.48	1790.91
604.83	1784.16
605.18	1777.12
605.53	1769.08
605.87	1760.98
606.22	1753.81
606.57	1745.73
606.92	1738.52
607.27	1731.25
607.62	1724.33
607.96	1717.04
608.31	1710.41
608.66	1702.70
609.01	1695.04
609.36	1687.46
609.70	1679.50
610.05	1671.37
610.40	1663.60
610.75	1655.38
611.10	1647.60
611.44	1639.22
611.79	1631.24
612.14	1622.54
612.49	1613.33
612.83	1604.94
613.18	1596.83
613.53	1588.73
613.88	1580.22
614.22	1571.95
614.57	1563.42
614.92	1555.40
615.27	1547.73
615.61	1539.41
615.96	1531.40
616.31	1523.79
616.65	1516.50
617.00	1508.82
617.35	1501.23
617.70	1492.77
618.04	1484.10
618.39	1475.85
618.74	1468.16
619.08	1459.89
619.43	1452.34
619.78	1445.44
620.12	1438.33
620.47	1430.79
620.82	1422.50
621.16	1415.22
621.51	1407.48
621.85	1399.80
622.20	1391.23
622.55	1382.85
622.89	1374.91
623.24	1367.40
623.59	1360.00
623.93	1352.45
624.28	1345.21
624.62	1337.64
624.97	1330.53
625.32	1323.88
625.66	1316.73
626.01	1309.46
626.35	1301.85
626.70	1294.00
627.04	1286.18
627.39	1278.35
627.73	1270.90
628.08	1263.98
628.43	1256.52
628.77	1249.21
629.12	1241.57
629.46	1234.37
629.81	1227.02
630.15	1219.82
630.50	1212.36
630.84	1204.20
631.19	1196.29
631.53	1188.86
631.88	1181.29
632.22	1173.67
632.57	1166.23
632.91	1158.76
633.26	1151.46
633.60	1144.08
633.95	1137.09
634.29	1130.10
634.64	1123.46
634.98	1116.26
635.32	1109.20
635.67	1102.70
636.01	1096.06
636.36	1089.27
636.70	1082.80
637.05	1076.21
637.39	1069.85
637.73	1063.28
638.08	1057.42
638.42	1051.35
638.77	1044.86
639.11	1038.25
639.45	1031.89
639.80	1025.26
640.14	1018.89
640.49	1012.37
640.83	1006.23
641.17	999.99
641.52	993.73
641.86	987.29
642.20	981.38
642.55	975.06
642.89	968.56
643.23	962.07
643.58	956.37
643.92	950.17
644.26	944.03
644.61	938.04
644.95	931.92
645.29	925.26
645.64	918.65
645.98	912.28
646.32	906.51
646.66	900.44
647.01	894.70
647.35	889.05
647.69	883.20
648.04	877.67
648.38	871.81
648.72	865.83
649.06	859.76
649.41	853.87
649.75	847.91
650.09	841.94
650.43	836.09
650.78	829.88
651.12	823.90
651.46	818.20
651.80	812.37
652.14	807.07
652.49	801.71
652.83	796.53
653.17	790.86
653.51	785.06
653.85	779.77
654.20	774.11
654.54	768.01
654.88	762.20
655.22	756.29
655.56	750.71
655.90	745.13
656.25	739.87
656.59	734.58
656.93	729.51
657.27	724.40
657.61	718.98
657.95	713.87
658.29	708.76
658.64	703.58
658.98	698.31
659.32	692.82
659.66	687.68
660.00	682.32
660.34	677.41
660.68	672.49
661.02	667.36
661.36	662.67
661.70	658.22
662.05	653.92
662.39	649.54
662.73	645.03
663.07	640.73
663.41	636.22
663.75	631.61
664.09	627.03
664.43	622.64
664.77	618.53
665.11	614.32
665.45	610.25
665.79	606.08
666.13	601.95
666.47	597.86
666.81	593.66
667.15	589.54
667.49	585.67
667.83	581.95
668.17	578.00
668.51	573.85
668.85	569.86
669.19	566.03
669.53	562.24
669.87	558.38
670.21	554.72
670.55	551.12
670.89	547.73
671.23	544.28
671.57	540.78
671.91	537.24
672.25	533.75
672.58	530.19
672.92	526.88
673.26	523.72
673.60	520.60
673.94	517.49
674.28	514.58
674.62	511.59
674.96	508.41
675.30	505.49
675.64	502.68
675.97	499.95
676.31	497.11
676.65	494.16
676.99	491.43
677.33	488.50
677.67	485.66
678.01	482.65
678.34	479.62
678.68	476.75
679.02	473.92
679.36	471.17
679.70	468.49
680.04	465.68
680.37	462.76
680.71	459.99
681.05	457.38
681.39	454.69
681.73	452.07
682.06	449.60
682.40	447.12
682.74	444.60
683.08	442.00
683.42	439.36
683.75	436.87
684.09	434.30
684.43	431.86
684.77	429.40
685.10	427.01
685.44	424.77
685.78	422.52
686.12	420.34
686.45	418.06
686.79	415.77
687.13	413.62
687.46	411.51
687.80	409.38
688.14	407.20
688.48	405.12
688.81	402.86
689.15	400.69
689.49	398.51
689.82	396.42
690.16	394.36
690.50	392.39
690.83	390.49
691.17	388.54
691.51	386.67
691.84	384.88
692.18	383.01
692.52	381.01
692.85	379.04
693.19	377.14
693.52	375.36
693.86	373.61
694.20	371.79
694.53	369.98
694.87	368.19
695.21	366.40
695.54	364.62
695.88	362.94
696.21	361.20
696.55	359.51
696.88	357.84
697.22	356.16
697.56	354.57
697.89	352.86
698.23	351.27
698.56	349.62
698.90	347.98
699.23	346.34
699.57	344.83
699.90	343.29
700.24	341.70
700.58	340.14
700.91	338.63
701.25	337.24
701.58	335.88
701.92	334.49
702.25	333.15
702.59	331.79
702.92	330.44
703.26	329.17
703.59	327.93
703.93	326.68
704.26	325.46
704.60	324.17
704.93	322.92
705.26	321.68
705.60	320.56
705.93	319.45
706.27	318.43
706.60	317.35
706.94	316.31
707.27	315.25
707.61	314.18
707.94	313.12
708.27	311.99
708.61	310.87
708.94	309.85
709.28	308.85
709.61	307.85
709.94	306.91
710.28	305.91
710.61	304.90
710.95	303.89
711.28	303.01
711.61	302.08
711.95	301.16
712.28	300.23
712.61	299.19
712.95	298.24
713.28	297.37
713.61	296.48
713.95	295.55
714.28	294.69
714.61	293.86
714.95	293.01
715.28	292.12
715.61	291.26
715.95	290.41
716.28	289.53
716.61	288.73
716.95	287.92
717.28	287.19
717.61	286.43
717.94	285.67
718.28	284.81
718.61	284.08
718.94	283.42
719.27	282.75
719.61	282.14
719.94	281.48
720.27	280.78
720.60	280.13
720.94	279.50
721.27	278.88
721.60	278.25
721.93	277.68
722.27	277.16
722.60	276.66
722.93	276.08
723.26	275.57
723.59	275.01
723.93	274.47
724.26	273.89
724.59	273.34
724.92	272.83
725.25	272.37
725.59	271.82
725.92	271.27
726.25	270.76
726.58	270.28
726.91	269.79
727.24	269.30
727.57	268.82
727.91	268.30
728.24	267.86
728.57	267.40
728.90	266.96
729.23	266.46
729.56	266.03
729.89	265.52
730.22	265.02
730.55	264.58
730.89	264.11
731.22	263.70
731.55	263.29
731.88	262.87
732.21	262.40
732.54	261.98
732.87	261.58
733.20	261.16
733.53	260.74
733.86	260.36
734.19	259.98
734.52	259.62
734.85	259.32
735.18	258.90
735.51	258.54
735.84	258.16
736.17	257.84
736.50	257.42
736.83	257.23
737.16	256.88
737.49	256.51
737.82	256.17
738.15	255.79
738.48	255.43
738.81	255.09
739.14	254.74
739.47	254.45
739.80	254.13
740.13	253.82
740.46	253.51
740.79	253.15
741.12	252.81
741.45	252.48
741.78	252.11
742.11	251.80
742.44	251.50
742.77	251.23
743.10	250.92
743.43	250.65
743.75	250.25
744.08	250.12
744.41	249.88
744.74	249.58
745.07	249.32
745.40	249.08
745.73	248.85
746.06	248.62
746.39	248.37
746.71	248.08
747.04	247.80
747.37	247.56
747.70	247.34
748.03	247.09
748.36	246.87
748.68	246.66
749.01	246.45
749.34	246.20
749.67	245.96
750.00	245.70
750.33	245.53
750.65	245.33
750.98	244.98
751.31	244.76
751.64	244.56
751.97	244.43
752.29	244.19
752.62	243.94
752.95	243.73
753.28	243.48
753.60	243.33
753.93	243.19
754.26	242.97
754.59	242.73
754.91	242.55
755.24	242.35
755.57	242.18
755.90	241.97
756.22	241.80
756.55	241.60
756.88	241.45
757.20	241.18
757.53	240.97
757.86	240.82
758.19	240.64
758.51	240.47
758.84	240.22
759.17	240.06
759.49	239.90
759.82	239.79
760.15	239.68
760.47	239.51
760.80	239.34
761.13	239.25
761.45	239.13
761.78	239.00
762.11	238.86
762.43	238.71
762.76	238.57
763.08	238.43
763.41	238.32
763.74	238.16
764.06	238.04
764.39	237.92
764.71	237.77
765.04	237.66
765.37	237.54
765.69	237.43
766.02	237.31
766.34	237.21
766.67	237.03
767.00	236.94
767.32	236.87
767.65	236.82
767.97	236.69
768.30	236.58
768.62	236.47
768.95	236.33
769.27	236.26
769.60	236.13
769.92	236.01
770.25	235.85
770.57	235.78
770.90	235.66
771.22	235.57
771.55	235.50
771.87	235.40
772.20	235.32
772.52	235.31
772.85	235.35
773.17	235.23
773.50	235.18
773.82	235.05
774.15	234.91
774.47	234.73
774.80	234.61
775.12	234.51
775.45	234.44
775.77	234.35
776.09	234.24
776.42	234.18
776.74	234.13
777.07	234.07
777.39	233.96
777.72	233.89
778.04	233.82
778.36	233.71
778.69	233.65
779.01	233.59
779.33	233.46
779.66	233.24
779.98	233.18
780.31	233.10
780.63	233.08
780.95	233.03
781.28	233.00
781.60	232.91
781.92	232.85
782.25	232.76
782.57	232.72
782.89	232.63
783.22	232.60
783.54	232.54
783.86	232.49
784.19	232.43
784.51	232.38
784.83	232.30
785.16	232.24
785.48	232.19
785.80	232.11
786.12	232.05
786.45	232.03
786.77	232.00
787.09	231.96
787.42	231.86
787.74	231.81
788.06	231.78
788.38	231.76
788.71	231.69
789.03	231.68
789.35	231.65
789.67	231.60
789.99	231.57
790.32	231.51
790.64	231.48
790.96	231.56
791.28	231.51
791.61	231.50
791.93	231.46
792.25	231.45
792.57	231.46
792.89	231.40
793.21	231.36
793.54	231.28
793.86	231.22
794.18	231.22
794.50	231.17
794.82	231.12
795.14	231.12
795.47	231.10
795.79	231.05
796.11	231.02
796.43	230.99
796.75	230.93
797.07	230.88
797.39	230.85
797.71	230.71
798.04	230.71
798.36	230.69
798.68	230.69
799.00	230.61
799.32	230.56
799.64	230.55
799.96	230.49
800.28	230.52
800.60	230.52
800.92	230.46
801.24	230.42
801.56	230.38
801.89	230.33
802.21	230.33
802.53	230.31
802.85	230.26
803.17	230.27
803.49	230.25
803.81	230.25
804.13	230.21
804.45	230.16
804.77	230.10
805.09	230.08
805.41	230.04
805.73	230.02
806.05	229.95
806.37	229.91
806.69	229.90
807.01	229.86
807.33	229.82
807.65	229.78
807.97	229.77
808.28	229.77
808.60	229.74
808.92	229.70
809.24	229.73
809.56	229.68
809.88	229.61
810.20	229.56
810.52	229.54
810.84	229.48
811.16	229.49
811.48	229.48
811.80	229.48
812.12	229.43
812.43	229.43
812.75	229.41
813.07	229.37
813.39	229.36
813.71	229.33
814.03	229.32
814.35	229.32
814.67	229.27
814.98	229.21
815.30	229.17
815.62	229.11
815.94	229.01
816.26	229.05
816.58	229.03
816.89	229.02
817.21	228.98
817.53	228.98
817.85	228.96
818.17	228.92
818.48	228.89
818.80	228.93
819.12	228.87
819.44	228.85
819.76	228.82
820.07	228.79
820.39	228.77
820.71	228.72
821.03	228.69
821.34	228.69
821.66	228.71
821.98	228.71
822.30	228.69
822.61	228.72
822.93	228.66
823.25	228.63
823.57	228.58
823.88	228.63
824.20	228.61
824.52	228.59
824.83	228.59
825.15	228.54
825.47	228.51
825.79	228.50
826.10	228.48
826.42	228.48
826.74	228.46
827.05	228.46
827.37	228.47
827.69	228.46
828.00	228.44
828.32	228.42
828.64	228.40
828.95	228.47
829.27	228.45
829.58	228.46
829.90	228.47
830.22	228.48
830.53	228.43
830.85	228.42
831.17	228.39
831.48	228.38
831.80	228.42
832.11	228.36
832.43	228.35
832.75	228.38
833.06	228.40
833.38	228.39
833.69	228.37
834.01	228.36
834.32	228.36
834.64	228.35
834.96	228.36
835.27	228.35
835.59	228.31
835.90	228.30
836.22	228.31
836.53	228.27
836.85	228.29
837.16	228.38
837.48	228.38
837.79	228.43
838.11	228.44
838.42	228.40
838.74	228.41
839.05	228.40
839.37	228.37
839.68	228.32
840.00	228.27
840.31	228.27
840.63	228.25
840.94	228.27
841.26	228.23
841.57	228.21
841.88	228.23
842.20	228.21
842.51	228.19
842.83	228.14
843.14	228.23
843.46	228.20
843.77	228.10
844.08	228.08
844.40	228.03
844.71	227.99
845.03	227.98
845.34	227.98
845.65	227.99
845.97	227.98
846.28	227.98
846.60	228.00
846.91	227.97
847.22	227.96
847.54	227.93
847.85	227.93
848.16	227.91
848.48	227.88
848.79	227.89
849.10	227.86
849.42	227.87
849.73	227.79
850.04	227.77
850.36	227.76
850.67	227.78
850.98	227.76
851.30	227.79
851.61	227.77
851.92	227.74
852.23	227.74
852.55	227.73
852.86	227.73
853.17	227.72
853.49	227.74
853.80	227.74
854.11	227.71
854.42	227.75
854.74	227.73
855.05	227.74
855.36	227.70
855.67	227.72
855.99	227.73
856.30	227.84
856.61	227.80
856.92	227.78
857.23	227.74
857.55	227.71
857.86	227.67
858.17	227.66
858.48	227.64
858.79	227.64
859.11	227.63
859.42	227.62
859.73	227.59
860.04	227.60
860.35	227.55
860.66	227.51
860.98	227.49
861.29	227.49
861.60	227.44
861.91	227.45
862.22	227.40
862.53	227.35
862.84	227.24
863.16	227.28
863.47	227.29
863.78	227.30
864.09	227.32
864.40	227.34
864.71	227.36
865.02	227.37
865.33	227.35
865.64	227.34
865.95	227.36
866.27	227.44
866.58	227.42
866.89	227.44
867.20	227.46
867.51	227.43
867.82	227.45
868.13	227.53
868.44	227.52
868.75	227.57
869.06	227.60
869.37	227.64
869.68	227.64
869.99	227.64
870.30	227.63
870.61	227.65
870.92	227.63
871.23	227.62
871.54	227.64
871.85	227.66
872.16	227.69
872.47	227.67
872.78	227.64
873.09	227.66
873.40	227.68
873.71	227.69
874.02	227.70
874.33	227.66
874.64	227.61
874.95	227.62
875.26	227.57
875.56	227.57
875.87	227.53
876.18	227.51
876.49	227.61
876.80	227.61
877.11	227.58
877.42	227.59
877.73	227.56
878.04	227.56
878.35	227.56
878.66	227.55
878.96	227.51
879.27	227.50
879.58	227.50
879.89	227.46
880.20	227.47
880.51	227.45
880.82	227.50
881.12	227.51
881.43	227.48
881.74	227.46
882.05	227.46
882.36	227.47
882.67	227.48
882.97	227.40
883.28	227.39
883.59	227.42
883.90	227.43
884.21	227.47
884.51	227.46
884.82	227.43
885.13	227.43
885.44	227.48
885.74	227.45
886.05	227.40
886.36	227.46
886.67	227.43
886.98	227.47
887.28	227.45
887.59	227.42
887.90	227.45
888.20	227.46
888.51	227.46
888.82	227.42
889.13	227.41
889.43	227.47
889.74	227.45
890.05	227.42
890.35	227.41
890.66	227.38
890.97	227.34
891.28	227.34
891.58	227.31
891.89	227.29
892.20	227.28
892.50	227.27
892.81	227.22
893.12	227.21
893.42	227.19
893.73	227.18
894.04	227.21
894.34	227.19
894.65	227.17
894.95	227.11
895.26	227.11
895.57	227.13
895.87	227.03
896.18	227.06
896.48	227.04
896.79	227.05
897.10	227.06
897.40	227.07
897.71	227.07
898.01	227.08
898.32	227.08
898.63	227.09
898.93	227.13
899.24	227.13
899.54	227.13
899.85	227.09
900.15	227.10
900.46	227.10
900.76	227.11
901.07	227.14
901.38	227.19
901.68	227.19
901.99	227.17
902.29	227.15
902.60	227.12
902.90	227.17
903.21	227.14
903.51	227.12
903.82	227.14
904.12	227.14
904.43	227.13
904.73	227.11
905.03	227.12
905.34	227.21
905.64	227.24
905.95	227.22
906.25	227.24
906.56	227.23
906.86	227.20
907.17	227.23
907.47	227.23
907.77	227.19
908.08	227.20
908.38	227.18
908.69	227.21
908.99	227.25
909.30	227.23
909.60	227.25
909.90	227.27
910.21	227.25
910.51	227.23
910.81	227.24
911.12	227.27
911.42	227.28
911.73	227.15
912.03	227.16
912.33	227.21
912.64	227.22
912.94	227.22
913.24	227.19
913.55	227.15
913.85	227.17
914.15	227.21
914.46	227.23
914.76	227.23
915.06	227.21
915.37	227.15
915.67	227.17
915.97	227.18
916.27	227.13
916.58	227.16
916.88	227.17
917.18	227.15
917.49	227.22
917.79	227.23
918.09	227.26
918.39	227.25
918.70	227.24
919.00	227.25
919.30	227.31
919.60	227.33
919.91	227.33
920.21	227.30
920.51	227.31
920.81	227.30
921.12	227.30
921.42	227.32
921.72	227.35
922.02	227.32
922.32	227.32
922.63	227.33
922.93	227.36
923.23	227.41
923.53	227.42
923.83	227.35
924.13	227.34
924.44	227.35
924.74	227.36
925.04	227.39
925.34	227.39
925.64	227.34
925.94	227.35
926.24	227.43
926.55	227.44
926.85	227.42
927.15	227.42
927.45	227.44
927.75	227.43
928.05	227.41
928.35	227.40
928.65	227.44
928.95	227.46
929.26	227.39
929.56	227.40
929.86	227.42
930.16	227.41
930.46	227.39
930.76	227.41
931.06	227.35
931.36	227.29
931.66	227.30
931.96	227.31
932.26	227.32
932.56	227.22
932.86	227.22
933.16	227.20
933.46	227.21
933.76	227.17
934.06	227.20
934.36	227.24
934.66	227.27
934.96	227.25
935.26	227.25
935.56	227.28
935.86	227.22
936.16	227.18
936.46	227.14
936.76	227.13
937.06	227.09
937.36	227.12
937.66	227.15
937.96	227.10
938.26	227.05
938.56	227.02
938.86	227.03
939.16	227.04
939.46	227.09
939.76	227.09
940.06	227.11
940.35	227.07
940.65	227.02
940.95	227.05
941.25	227.01
941.55	227.00
941.85	227.01
942.15	227.02
942.45	227.05
942.75	227.08
943.04	227.06
943.34	227.10
943.64	227.05
943.94	227.05
944.24	227.05
944.54	227.07
944.84	227.07
945.13	227.08
945.43	227.02
945.73	226.98
946.03	226.93
946.33	226.92
946.62	226.89
946.92	226.88
947.22	226.86
947.52	226.86
947.82	226.89
948.11	226.85
948.41	226.84
948.71	226.80
949.01	226.78
949.31	226.78
949.60	226.73
949.90	226.78
950.20	226.76
950.50	226.79
950.79	226.77
951.09	226.79
951.39	226.77
951.69	226.80
951.98	226.83
952.28	226.83
952.58	226.82
952.87	226.83
953.17	226.83
953.47	226.82
953.76	226.86
954.06	226.85
954.36	226.85
954.66	226.87
954.95	226.93
955.25	226.99
955.55	227.05
955.84	227.06
956.14	227.06
956.44	227.10
956.73	227.07
957.03	227.07
957.32	227.07
957.62	227.08
957.92	227.08
958.21	227.11
958.51	227.22
958.81	227.26
959.10	227.29
959.40	227.36
959.69	227.37
959.99	227.38
960.29	227.38
960.58	227.38
960.88	227.41
961.17	227.40
961.47	227.39
961.76	227.35
962.06	227.39
962.36	227.38
962.65	227.37
962.95	227.40
963.24	227.40
963.54	227.39
963.83	227.40
964.13	227.38
964.42	227.35
964.72	227.30
965.01	227.29
965.31	227.28
965.60	227.27
965.90	227.32
966.19	227.27
966.49	227.27
966.78	227.30
967.08	227.26
967.37	227.27
967.67	227.28
967.96	227.31
968.26	227.30
968.55	227.30
968.85	227.28
969.14	227.27
969.43	227.29
969.73	227.32
970.02	227.31
970.32	227.34
970.61	227.32
970.91	227.25
971.20	227.25
971.49	227.23
971.79	227.20
972.08	227.15
972.38	227.17
972.67	227.15
972.96	227.12
973.26	227.08
973.55	227.09
973.85	227.03
974.14	227.01
974.43	227.01
974.73	226.97
975.02	226.94
975.31	226.93
975.61	226.91
975.90	226.88
976.19	226.86
976.49	226.87
976.78	226.84
977.07	226.84
977.37	226.83
977.66	226.85
977.95	226.83
978.24	226.80
978.54	226.79
978.83	226.78
979.12	226.76
979.42	226.79
979.71	226.74
980.00	226.75
980.29	226.76
980.59	226.71
980.88	226.76
981.17	226.77
981.46	226.78
981.76	226.76
982.05	226.77
982.34	226.78
982.63	226.77
982.93	226.79
983.22	226.82
983.51	226.85
983.80	226.87
984.09	226.87
984.39	226.90
984.68	226.88
984.97	226.89
985.26	226.89
985.55	226.88
985.85	226.87
986.14	226.90
986.43	226.94
986.72	226.94
987.01	226.92
987.30	226.96
987.59	226.94
987.89	226.96
988.18	226.96
988.47	226.97
988.76	226.97
989.05	226.98
989.34	227.00
989.63	227.00
989.92	226.95
990.22	226.97
990.51	226.95
990.80	226.95
991.09	226.98
991.38	227.01
991.67	227.01
991.96	227.00
992.25	227.02
992.54	226.99
992.83	227.02
993.12	227.01
993.41	227.01
993.70	227.04
993.99	227.08
994.28	227.08
994.58	227.12
994.87	227.13
995.16	227.13
995.45	227.09
995.74	227.09
996.03	227.12
996.32	227.15
996.61	227.19
996.90	227.21
997.19	227.21
997.48	227.24
997.77	227.25
998.06	227.26
998.34	227.24
998.63	227.19
998.92	227.21
999.21	227.22
999.50	227.18
999.79	227.19
1000.08	227.16
1000.37	227.18
1000.66	227.19
1000.95	227.23
1001.24	227.21
1001.53	227.25
1001.82	227.24
1002.11	227.23
1002.40	227.23
1002.68	227.25
1002.97	227.31
1003.26	227.27
1003.55	227.24
1003.84	227.24
1004.13	227.28
1004.42	227.25
1004.71	227.28
1004.99	227.24
1005.28	227.25
1005.57	227.27
1005.86	227.25
1006.15	227.23
1006.44	227.19
1006.72	227.17
1007.01	227.12
1007.30	227.16
1007.59	227.12
1007.88	227.12
1008.17	227.10
1008.45	227.08
1008.74	227.03
1009.03	226.96
1009.32	226.95
1009.60	226.90
1009.89	226.90
1010.18	226.88
1010.47	226.87
1010.76	226.84
1011.04	226.85
1011.33	226.86
1011.62	226.90
1011.91	226.92
1012.19	226.91
1012.48	226.91
1012.77	226.88
1013.05	226.89
1013.34	226.84
1013.63	226.83
1013.92	226.81
1014.20	226.80
1014.49	226.77
1014.78	226.76
1015.06	226.74
1015.35	226.77
1015.64	226.82
1015.92	226.82
1016.21	226.80
1016.50	226.82
1016.78	226.86
1017.07	226.88
1017.36	226.82
1017.64	226.75
1017.93	226.73
1018.22	226.74
1018.50	226.74
1018.79	226.71
1019.08	226.69
1019.36	226.69
1019.65	226.68
1019.93	226.72
1020.22	226.74
1020.51	226.83
1020.79	226.86
1021.08	226.86
1021.36	226.38
1021.65	226.37
1021.94	226.81
1022.22	226.34
1022.51	226.61
1022.79	227.45
1023.08	226.71
1023.36	228.52
1023.65	227.17
>>>>>End Processed Spectral Data<<<<<
