SpectraSuite Data File
++++++++++++++++++++++++++++++++++++
Date: Fri Feb 01 18:00:25 EST 2013
User: group
Dark Spectrum Present: No
Reference Spectrum Present: No
Number of Sampled Component Spectra: 1
Spectrometers: USB2E7196
Integration Time (usec): 35000 (USB2E7196)
Spectra Averaged: 100 (USB2E7196)
Boxcar Smoothing: 10 (USB2E7196)
Correct for Electrical Dark: No (USB2E7196)
Strobe/Lamp Enabled: No (USB2E7196)
Correct for Detector Non-linearity: No (USB2E7196)
Correct for Stray Light: No (USB2E7196)
Number of Pixels in Processed Spectrum: 2048
>>>>>Begin Processed Spectral Data<<<<<
339.09	0.00
339.48	213.53
339.86	214.15
340.24	215.90
340.63	216.98
341.01	219.81
341.39	220.26
341.78	221.40
342.16	222.79
342.54	223.32
342.93	211.43
343.31	222.14
343.69	222.65
344.07	223.14
344.46	223.57
344.84	223.95
345.22	224.22
345.60	224.48
345.99	224.66
346.37	224.76
346.75	224.87
347.13	224.97
347.52	225.08
347.90	225.17
348.28	225.20
348.66	225.26
349.05	225.27
349.43	225.29
349.81	225.35
350.19	225.38
350.57	225.43
350.96	225.49
351.34	225.56
351.72	225.64
352.10	225.74
352.48	225.79
352.87	225.86
353.25	225.91
353.63	225.96
354.01	226.05
354.39	226.17
354.77	226.19
355.15	226.27
355.54	226.28
355.92	226.29
356.30	226.35
356.68	226.45
357.06	226.51
357.44	226.57
357.82	226.60
358.20	226.67
358.58	226.71
358.97	226.78
359.35	226.82
359.73	226.88
360.11	226.91
360.49	226.96
360.87	227.00
361.25	227.03
361.63	227.07
362.01	227.10
362.39	227.10
362.77	227.16
363.15	227.18
363.53	227.20
363.91	227.23
364.29	227.28
364.67	227.20
365.05	227.19
365.43	227.20
365.81	227.24
366.19	227.28
366.57	227.32
366.95	227.31
367.33	227.29
367.71	227.27
368.09	227.28
368.47	227.24
368.85	227.24
369.23	227.26
369.61	227.20
369.99	227.16
370.37	227.15
370.75	227.15
371.13	227.10
371.51	227.08
371.89	227.05
372.27	226.98
372.65	226.94
373.03	226.94
373.41	226.89
373.78	226.82
374.16	226.73
374.54	226.62
374.92	226.56
375.30	226.53
375.68	226.44
376.06	226.40
376.44	226.36
376.82	226.31
377.19	226.22
377.57	226.15
377.95	226.11
378.33	226.01
378.71	225.89
379.09	225.86
379.47	225.81
379.84	225.72
380.22	225.67
380.60	225.61
380.98	225.54
381.36	225.50
381.73	225.44
382.11	225.40
382.49	225.38
382.87	225.33
383.25	225.27
383.62	225.36
384.00	225.28
384.38	225.23
384.76	225.20
385.13	225.18
385.51	225.13
385.89	225.06
386.27	225.05
386.64	225.02
387.02	224.93
387.40	224.92
387.78	224.90
388.15	224.86
388.53	224.86
388.91	224.81
389.29	224.78
389.66	224.77
390.04	224.73
390.42	224.72
390.79	224.70
391.17	224.69
391.55	224.60
391.92	224.55
392.30	224.57
392.68	224.54
393.05	224.54
393.43	224.58
393.81	224.62
394.18	224.60
394.56	224.65
394.94	224.73
395.31	224.70
395.69	224.79
396.06	224.85
396.44	224.88
396.82	224.92
397.19	225.01
397.57	225.05
397.95	225.12
398.32	225.14
398.70	225.19
399.07	225.27
399.45	225.29
399.82	225.40
400.20	225.43
400.58	225.50
400.95	225.54
401.33	225.65
401.70	225.78
402.08	225.86
402.45	225.96
402.83	226.05
403.20	226.19
403.58	226.30
403.95	226.42
404.33	226.58
404.71	226.72
405.08	226.87
405.46	227.01
405.83	227.15
406.21	227.35
406.58	227.53
406.96	227.71
407.33	227.95
407.70	228.15
408.08	228.45
408.45	228.71
408.83	229.03
409.20	229.27
409.58	229.50
409.95	229.84
410.33	230.16
410.70	230.51
411.08	230.85
411.45	231.21
411.82	231.59
412.20	231.99
412.57	232.53
412.95	232.93
413.32	233.45
413.69	234.01
414.07	234.58
414.44	235.21
414.82	235.86
415.19	236.56
415.56	237.27
415.94	238.01
416.31	238.86
416.68	239.67
417.06	240.62
417.43	241.50
417.81	242.50
418.18	243.52
418.55	244.64
418.93	245.81
419.30	247.01
419.67	248.26
420.04	249.59
420.42	250.92
420.79	252.49
421.16	254.05
421.54	255.65
421.91	257.27
422.28	258.97
422.66	260.72
423.03	262.48
423.40	264.32
423.77	266.26
424.15	268.19
424.52	270.23
424.89	272.39
425.26	274.53
425.64	276.53
426.01	278.67
426.38	280.92
426.75	283.19
427.13	285.51
427.50	287.98
427.87	290.52
428.24	293.02
428.61	295.41
428.99	298.01
429.36	300.84
429.73	303.67
430.10	306.40
430.47	309.18
430.85	312.02
431.22	315.00
431.59	318.18
431.96	321.25
432.33	324.62
432.70	327.80
433.08	331.59
433.45	335.12
433.82	338.61
434.19	342.51
434.56	346.32
434.93	349.91
435.30	353.45
435.68	357.36
436.05	361.20
436.42	365.01
436.79	368.45
437.16	372.13
437.53	375.94
437.90	379.81
438.27	383.55
438.64	387.43
439.01	390.91
439.38	393.92
439.75	396.85
440.13	400.15
440.50	403.35
440.87	405.87
441.24	408.51
441.61	411.49
441.98	413.55
442.35	416.00
442.72	418.55
443.09	421.02
443.46	422.35
443.83	423.11
444.20	423.78
444.57	424.92
444.94	425.33
445.31	425.82
445.68	426.16
446.05	426.23
446.42	425.69
446.79	425.18
447.16	424.59
447.53	424.20
447.90	422.64
448.27	421.06
448.64	418.90
449.01	417.41
449.37	414.71
449.74	412.11
450.11	409.04
450.48	405.67
450.85	402.23
451.22	399.36
451.59	396.65
451.96	394.02
452.33	390.52
452.70	387.32
453.07	383.50
453.43	379.67
453.80	375.95
454.17	372.40
454.54	368.98
454.91	365.31
455.28	361.65
455.65	358.30
456.02	354.94
456.38	352.09
456.75	348.41
457.12	345.42
457.49	342.38
457.86	339.44
458.23	336.93
458.59	334.17
458.96	331.31
459.33	328.77
459.70	326.21
460.07	324.13
460.43	321.79
460.80	319.53
461.17	317.54
461.54	315.47
461.91	313.51
462.27	311.53
462.64	309.84
463.01	307.98
463.38	306.23
463.74	304.42
464.11	302.80
464.48	301.43
464.85	299.94
465.21	298.70
465.58	297.45
465.95	295.95
466.32	294.68
466.68	293.44
467.05	292.27
467.42	291.04
467.78	289.79
468.15	288.57
468.52	287.68
468.88	286.53
469.25	285.49
469.62	284.59
469.98	283.63
470.35	282.75
470.72	281.95
471.08	281.02
471.45	280.24
471.82	279.49
472.18	278.61
472.55	277.96
472.92	277.28
473.28	276.65
473.65	276.02
474.02	275.44
474.38	274.89
474.75	274.35
475.11	273.89
475.48	273.47
475.85	273.10
476.21	272.78
476.58	272.50
476.94	272.26
477.31	272.01
477.67	271.79
478.04	271.61
478.41	271.41
478.77	271.42
479.14	271.30
479.50	271.25
479.87	271.30
480.23	271.32
480.60	271.32
480.96	271.31
481.33	271.47
481.69	271.65
482.06	271.84
482.42	272.04
482.79	272.26
483.15	272.56
483.52	272.91
483.88	273.16
484.25	273.48
484.61	273.90
484.98	274.30
485.34	274.86
485.71	275.44
486.07	276.06
486.44	276.58
486.80	277.31
487.17	278.03
487.53	278.85
487.90	279.69
488.26	280.65
488.62	281.69
488.99	282.67
489.35	283.70
489.72	284.85
490.08	286.06
490.44	287.39
490.81	288.75
491.17	290.20
491.54	291.80
491.90	293.43
492.26	295.15
492.63	296.96
492.99	298.84
493.36	300.81
493.72	303.02
494.08	305.24
494.45	307.60
494.81	310.09
495.17	312.66
495.54	315.39
495.90	318.21
496.26	321.17
496.63	324.30
496.99	327.63
497.35	331.07
497.72	334.69
498.08	338.36
498.44	342.25
498.80	346.35
499.17	350.60
499.53	355.02
499.89	359.64
500.26	364.48
500.62	369.44
500.98	374.68
501.34	380.02
501.71	385.70
502.07	391.49
502.43	397.45
502.79	403.62
503.16	410.05
503.52	416.69
503.88	423.50
504.24	430.60
504.60	437.89
504.97	445.48
505.33	453.27
505.69	461.47
506.05	469.75
506.41	478.14
506.78	486.85
507.14	495.83
507.50	505.13
507.86	514.68
508.22	524.48
508.59	534.33
508.95	544.55
509.31	555.01
509.67	565.74
510.03	576.75
510.39	588.08
510.75	599.61
511.12	611.28
511.48	623.36
511.84	635.53
512.20	647.87
512.56	660.59
512.92	673.56
513.28	686.89
513.64	700.31
514.00	713.98
514.37	727.82
514.73	741.88
515.09	755.90
515.45	770.22
515.81	784.83
516.17	799.88
516.53	815.16
516.89	830.52
517.25	845.89
517.61	861.50
517.97	877.15
518.33	892.75
518.69	908.85
519.05	925.14
519.41	941.76
519.77	958.70
520.13	975.61
520.49	992.46
520.85	1009.14
521.21	1026.22
521.57	1043.99
521.93	1061.24
522.29	1079.10
522.65	1096.97
523.01	1114.72
523.37	1132.29
523.73	1150.04
524.09	1167.72
524.45	1185.59
524.81	1203.91
525.17	1222.30
525.53	1241.00
525.89	1259.81
526.25	1278.33
526.61	1296.37
526.97	1314.81
527.33	1333.08
527.68	1351.47
528.04	1369.74
528.40	1388.23
528.76	1407.22
529.12	1425.64
529.48	1444.55
529.84	1462.53
530.20	1480.99
530.56	1499.93
530.91	1519.48
531.27	1538.25
531.63	1556.68
531.99	1575.41
532.35	1593.37
532.71	1611.34
533.07	1629.63
533.42	1647.61
533.78	1665.68
534.14	1684.14
534.50	1701.53
534.86	1719.44
535.21	1736.74
535.57	1754.88
535.93	1772.45
536.29	1789.34
536.65	1806.61
537.00	1823.38
537.36	1840.93
537.72	1857.64
538.08	1874.31
538.44	1890.20
538.79	1906.29
539.15	1922.19
539.51	1938.07
539.87	1954.67
540.22	1970.52
540.58	1986.52
540.94	2001.86
541.29	2017.01
541.65	2031.98
542.01	2047.49
542.37	2062.11
542.72	2076.76
543.08	2090.71
543.44	2105.55
543.79	2119.13
544.15	2132.19
544.51	2146.22
544.87	2159.30
545.22	2172.22
545.58	2184.66
545.94	2196.64
546.29	2208.74
546.65	2220.90
547.01	2232.35
547.36	2243.12
547.72	2253.76
548.07	2263.68
548.43	2273.97
548.79	2283.96
549.14	2293.57
549.50	2302.81
549.86	2312.41
550.21	2321.73
550.57	2331.03
550.92	2339.44
551.28	2348.46
551.64	2357.68
551.99	2365.91
552.35	2374.04
552.70	2382.27
553.06	2390.09
553.41	2398.40
553.77	2406.21
554.13	2413.99
554.48	2421.94
554.84	2429.40
555.19	2436.44
555.55	2443.32
555.90	2449.66
556.26	2456.50
556.61	2462.83
556.97	2468.96
557.32	2474.73
557.68	2480.51
558.03	2486.31
558.39	2491.42
558.74	2497.83
559.10	2503.16
559.45	2508.42
559.81	2514.15
560.16	2519.49
560.52	2524.27
560.87	2528.95
561.23	2532.98
561.58	2537.28
561.94	2541.13
562.29	2544.76
562.64	2549.04
563.00	2552.89
563.35	2557.67
563.71	2562.00
564.06	2566.57
564.42	2570.85
564.77	2574.89
565.12	2578.55
565.48	2581.72
565.83	2585.03
566.19	2587.29
566.54	2589.35
566.89	2591.68
567.25	2593.30
567.60	2595.62
567.96	2598.45
568.31	2600.32
568.66	2602.48
569.02	2604.06
569.37	2605.33
569.72	2607.04
570.08	2607.77
570.43	2608.64
570.78	2608.82
571.14	2607.77
571.49	2606.79
571.84	2607.08
572.20	2606.47
572.55	2605.87
572.90	2604.75
573.26	2603.78
573.61	2602.50
573.96	2601.27
574.31	2598.56
574.67	2595.92
575.02	2592.48
575.37	2589.20
575.72	2585.60
576.08	2582.34
576.43	2579.10
576.78	2575.58
577.13	2572.50
577.49	2569.50
577.84	2566.24
578.19	2562.46
578.54	2559.14
578.90	2555.01
579.25	2549.06
579.60	2543.92
579.95	2538.64
580.30	2533.33
580.66	2527.96
581.01	2522.66
581.36	2517.29
581.71	2512.93
582.06	2508.32
582.42	2503.64
582.77	2497.89
583.12	2493.03
583.47	2487.96
583.82	2482.53
584.17	2476.83
584.53	2470.86
584.88	2464.85
585.23	2458.57
585.58	2452.61
585.93	2446.52
586.28	2441.34
586.63	2435.87
586.98	2430.19
587.34	2425.14
587.69	2419.64
588.04	2413.93
588.39	2407.74
588.74	2400.52
589.09	2393.56
589.44	2385.90
589.79	2379.05
590.14	2372.91
590.49	2365.53
590.84	2358.36
591.19	2351.68
591.54	2344.40
591.89	2336.17
592.25	2328.60
592.60	2320.46
592.95	2311.96
593.30	2303.71
593.65	2295.09
594.00	2287.12
594.35	2278.79
594.70	2269.57
595.05	2261.66
595.40	2253.23
595.75	2244.62
596.10	2237.75
596.45	2230.16
596.80	2223.10
597.15	2215.60
597.50	2207.46
597.85	2199.94
598.19	2192.39
598.54	2184.23
598.89	2176.51
599.24	2169.66
599.59	2162.10
599.94	2154.72
600.29	2147.41
600.64	2139.90
600.99	2131.33
601.34	2123.44
601.69	2115.53
602.04	2107.66
602.39	2099.04
602.74	2091.18
603.08	2083.39
603.43	2075.49
603.78	2067.00
604.13	2058.65
604.48	2050.25
604.83	2042.33
605.18	2034.44
605.53	2025.36
605.87	2016.02
606.22	2007.55
606.57	1998.31
606.92	1989.35
607.27	1981.15
607.62	1972.99
607.96	1964.31
608.31	1956.64
608.66	1947.74
609.01	1938.93
609.36	1930.02
609.70	1920.73
610.05	1911.35
610.40	1902.34
610.75	1892.57
611.10	1883.56
611.44	1873.64
611.79	1864.23
612.14	1854.07
612.49	1843.24
612.83	1833.07
613.18	1823.56
613.53	1814.26
613.88	1804.27
614.22	1794.69
614.57	1784.41
614.92	1775.04
615.27	1766.36
615.61	1756.66
615.96	1747.15
616.31	1738.14
616.65	1729.48
617.00	1720.42
617.35	1711.30
617.70	1701.64
618.04	1691.59
618.39	1681.91
618.74	1673.06
619.08	1663.24
619.43	1654.26
619.78	1646.09
620.12	1637.91
620.47	1629.02
620.82	1619.23
621.16	1610.39
621.51	1601.42
621.85	1592.41
622.20	1582.40
622.55	1572.49
622.89	1563.24
623.24	1554.21
623.59	1545.45
623.93	1536.46
624.28	1527.98
624.62	1519.15
624.97	1510.62
625.32	1502.54
625.66	1494.28
626.01	1485.84
626.35	1477.27
626.70	1468.15
627.04	1458.98
627.39	1449.58
627.73	1440.92
628.08	1432.75
628.43	1424.34
628.77	1415.69
629.12	1406.91
629.46	1398.41
629.81	1389.52
630.15	1380.93
630.50	1372.28
630.84	1362.77
631.19	1353.48
631.53	1344.60
631.88	1335.69
632.22	1326.72
632.57	1318.22
632.91	1309.30
633.26	1300.56
633.60	1291.69
633.95	1283.21
634.29	1274.96
634.64	1267.16
634.98	1258.52
635.32	1250.12
635.67	1242.25
636.01	1234.35
636.36	1226.42
636.70	1218.65
637.05	1210.96
637.39	1203.42
637.73	1195.83
638.08	1188.77
638.42	1181.70
638.77	1174.22
639.11	1166.56
639.45	1159.12
639.80	1151.37
640.14	1143.96
640.49	1136.33
640.83	1128.94
641.17	1121.78
641.52	1114.46
641.86	1106.88
642.20	1100.02
642.55	1092.67
642.89	1085.20
643.23	1077.57
643.58	1070.84
643.92	1063.74
644.26	1056.73
644.61	1049.60
644.95	1042.56
645.29	1034.93
645.64	1027.12
645.98	1019.70
646.32	1012.83
646.66	1005.81
647.01	998.96
647.35	992.25
647.69	985.44
648.04	979.03
648.38	972.36
648.72	965.41
649.06	958.41
649.41	951.56
649.75	944.71
650.09	937.80
650.43	931.24
650.78	924.04
651.12	917.17
651.46	910.58
651.80	904.03
652.14	897.83
652.49	891.65
652.83	885.67
653.17	879.18
653.51	872.57
653.85	866.25
654.20	859.76
654.54	852.77
654.88	846.14
655.22	839.33
655.56	832.70
655.90	826.34
656.25	820.32
656.59	814.15
656.93	808.23
657.27	802.34
657.61	795.96
657.95	790.09
658.29	784.13
658.64	777.94
658.98	771.75
659.32	765.38
659.66	759.36
660.00	753.21
660.34	747.47
660.68	741.79
661.02	735.99
661.36	730.57
661.70	725.35
662.05	720.30
662.39	715.37
662.73	710.17
663.07	705.07
663.41	699.96
663.75	694.72
664.09	689.45
664.43	684.31
664.77	679.57
665.11	674.66
665.45	669.87
665.79	665.21
666.13	660.43
666.47	655.67
666.81	650.85
667.15	646.20
667.49	641.66
667.83	637.25
668.17	632.71
668.51	627.98
668.85	623.34
669.19	618.86
669.53	614.37
669.87	609.90
670.21	605.62
670.55	601.39
670.89	597.45
671.23	593.45
671.57	589.31
671.91	585.21
672.25	581.12
672.58	577.12
672.92	573.17
673.26	569.44
673.60	565.81
673.94	562.25
674.28	558.85
674.62	555.46
674.96	551.81
675.30	548.45
675.64	545.15
675.97	541.93
676.31	538.66
676.65	535.30
676.99	532.18
677.33	528.91
677.67	525.65
678.01	522.21
678.34	518.81
678.68	515.49
679.02	512.29
679.36	509.15
679.70	505.98
680.04	502.83
680.37	499.61
680.71	496.41
681.05	493.34
681.39	490.16
681.73	487.12
682.06	484.29
682.40	481.33
682.74	478.34
683.08	475.45
683.42	472.44
683.75	469.52
684.09	466.55
684.43	463.73
684.77	460.86
685.10	458.04
685.44	455.34
685.78	452.72
686.12	450.08
686.45	447.42
686.79	444.78
687.13	442.22
687.46	439.69
687.80	437.19
688.14	434.62
688.48	432.18
688.81	429.57
689.15	427.03
689.49	424.58
689.82	422.16
690.16	419.73
690.50	417.45
690.83	415.23
691.17	412.93
691.51	410.67
691.84	408.51
692.18	406.32
692.52	404.03
692.85	401.78
693.19	399.64
693.52	397.45
693.86	395.30
694.20	393.19
694.53	391.14
694.87	389.02
695.21	386.95
695.54	384.90
695.88	382.84
696.21	380.83
696.55	378.87
696.88	376.90
697.22	374.96
697.56	373.07
697.89	371.15
698.23	369.28
698.56	367.42
698.90	365.63
699.23	363.74
699.57	362.00
699.90	360.22
700.24	358.38
700.58	356.69
700.91	355.01
701.25	353.35
701.58	351.73
701.92	350.15
702.25	348.57
702.59	346.99
702.92	345.48
703.26	343.97
703.59	342.49
703.93	341.10
704.26	339.65
704.60	338.18
704.93	336.70
705.26	335.29
705.60	333.92
705.93	332.52
706.27	331.30
706.60	330.03
706.94	328.79
707.27	327.49
707.61	326.21
707.94	324.96
708.27	323.70
708.61	322.40
708.94	321.19
709.28	320.05
709.61	318.92
709.94	317.83
710.28	316.63
710.61	315.48
710.95	314.24
711.28	313.15
711.61	312.05
711.95	310.97
712.28	309.90
712.61	308.73
712.95	307.66
713.28	306.62
713.61	305.56
713.95	304.51
714.28	303.51
714.61	302.51
714.95	301.52
715.28	300.53
715.61	299.51
715.95	298.50
716.28	297.52
716.61	296.53
716.95	295.55
717.28	294.67
717.61	293.77
717.94	292.90
718.28	291.99
718.61	291.15
718.94	290.35
719.27	289.53
719.61	288.78
719.94	288.04
720.27	287.21
720.60	286.45
720.94	285.72
721.27	285.05
721.60	284.39
721.93	283.68
722.27	282.99
722.60	282.41
722.93	281.80
723.26	281.15
723.59	280.54
723.93	279.94
724.26	279.29
724.59	278.60
724.92	277.98
725.25	277.39
725.59	276.77
725.92	276.17
726.25	275.60
726.58	275.06
726.91	274.46
727.24	273.93
727.57	273.37
727.91	272.79
728.24	272.23
728.57	271.67
728.90	271.16
729.23	270.61
729.56	270.07
729.89	269.48
730.22	268.94
730.55	268.34
730.89	267.85
731.22	267.35
731.55	266.90
731.88	266.44
732.21	265.96
732.54	265.42
732.87	264.94
733.20	264.48
733.53	264.01
733.86	263.59
734.19	263.11
734.52	262.65
734.85	262.29
735.18	261.81
735.51	261.40
735.84	260.97
736.17	260.60
736.50	260.14
736.83	259.88
737.16	259.49
737.49	259.13
737.82	258.70
738.15	258.31
738.48	257.90
738.81	257.53
739.14	257.15
739.47	256.82
739.80	256.44
740.13	256.06
740.46	255.67
740.79	255.28
741.12	254.92
741.45	254.60
741.78	254.19
742.11	253.86
742.44	253.45
742.77	253.10
743.10	252.74
743.43	252.41
743.75	252.00
744.08	251.83
744.41	251.47
744.74	251.12
745.07	250.80
745.40	250.53
745.73	250.26
746.06	249.95
746.39	249.62
746.71	249.32
747.04	249.00
747.37	248.72
747.70	248.44
748.03	248.12
748.36	247.82
748.68	247.54
749.01	247.23
749.34	246.98
749.67	246.70
750.00	246.43
750.33	246.25
750.65	245.98
750.98	245.56
751.31	245.34
751.64	245.13
751.97	244.92
752.29	244.65
752.62	244.35
752.95	244.11
753.28	243.86
753.60	243.65
753.93	243.44
754.26	243.18
754.59	242.90
754.91	242.68
755.24	242.49
755.57	242.27
755.90	242.09
756.22	241.85
756.55	241.62
756.88	241.38
757.20	241.10
757.53	240.84
757.86	240.66
758.19	240.49
758.51	240.24
758.84	240.00
759.17	239.83
759.49	239.67
759.82	239.50
760.15	239.32
760.47	239.10
760.80	238.90
761.13	238.75
761.45	238.59
761.78	238.44
762.11	238.23
762.43	238.05
762.76	237.88
763.08	237.72
763.41	237.58
763.74	237.43
764.06	237.24
764.39	237.10
764.71	236.93
765.04	236.75
765.37	236.62
765.69	236.48
766.02	236.31
766.34	236.14
766.67	235.96
767.00	235.87
767.32	235.79
767.65	235.74
767.97	235.57
768.30	235.45
768.62	235.32
768.95	235.17
769.27	235.04
769.60	234.95
769.92	234.84
770.25	234.69
770.57	234.56
770.90	234.50
771.22	234.32
771.55	234.22
771.87	234.14
772.20	234.03
772.52	234.01
772.85	234.01
773.17	233.92
773.50	233.83
773.82	233.66
774.15	233.52
774.47	233.34
774.80	233.27
775.12	233.16
775.45	233.05
775.77	232.99
776.09	232.92
776.42	232.86
776.74	232.77
777.07	232.69
777.39	232.61
777.72	232.50
778.04	232.49
778.36	232.38
778.69	232.27
779.01	232.19
779.33	232.05
779.66	231.85
779.98	231.73
780.31	231.68
780.63	231.66
780.95	231.61
781.28	231.58
781.60	231.51
781.92	231.45
782.25	231.40
782.57	231.34
782.89	231.26
783.22	231.15
783.54	231.04
783.86	231.01
784.19	230.94
784.51	230.91
784.83	230.84
785.16	230.80
785.48	230.74
785.80	230.67
786.12	230.62
786.45	230.58
786.77	230.56
787.09	230.47
787.42	230.40
787.74	230.35
788.06	230.29
788.38	230.20
788.71	230.14
789.03	230.11
789.35	230.04
789.67	229.95
789.99	229.91
790.32	229.84
790.64	229.79
790.96	229.84
791.28	229.76
791.61	229.67
791.93	229.62
792.25	229.58
792.57	229.62
792.89	229.51
793.21	229.44
793.54	229.36
793.86	229.32
794.18	229.27
794.50	229.18
794.82	229.10
795.14	229.07
795.47	229.02
795.79	228.95
796.11	228.90
796.43	228.88
796.75	228.82
797.07	228.81
797.39	228.79
797.71	228.66
798.04	228.62
798.36	228.60
798.68	228.55
799.00	228.53
799.32	228.44
799.64	228.48
799.96	228.46
800.28	228.48
800.60	228.43
800.92	228.40
801.24	228.37
801.56	228.37
801.89	228.31
802.21	228.32
802.53	228.26
802.85	228.25
803.17	228.25
803.49	228.20
803.81	228.16
804.13	228.08
804.45	228.04
804.77	228.01
805.09	228.00
805.41	227.97
805.73	227.90
806.05	227.86
806.37	227.78
806.69	227.76
807.01	227.70
807.33	227.68
807.65	227.60
807.97	227.63
808.28	227.55
808.60	227.54
808.92	227.50
809.24	227.52
809.56	227.48
809.88	227.40
810.20	227.39
810.52	227.36
810.84	227.33
811.16	227.30
811.48	227.26
811.80	227.24
812.12	227.19
812.43	227.21
812.75	227.19
813.07	227.18
813.39	227.13
813.71	227.09
814.03	227.03
814.35	227.02
814.67	226.99
814.98	226.97
815.30	226.93
815.62	226.88
815.94	226.80
816.26	226.84
816.58	226.82
816.89	226.81
817.21	226.80
817.53	226.80
817.85	226.80
818.17	226.76
818.48	226.73
818.80	226.76
819.12	226.71
819.44	226.66
819.76	226.65
820.07	226.63
820.39	226.61
820.71	226.63
821.03	226.64
821.34	226.61
821.66	226.61
821.98	226.60
822.30	226.56
822.61	226.61
822.93	226.55
823.25	226.53
823.57	226.48
823.88	226.49
824.20	226.44
824.52	226.40
824.83	226.39
825.15	226.35
825.47	226.33
825.79	226.31
826.10	226.31
826.42	226.25
826.74	226.22
827.05	226.21
827.37	226.22
827.69	226.18
828.00	226.13
828.32	226.12
828.64	226.12
828.95	226.16
829.27	226.11
829.58	226.09
829.90	226.11
830.22	226.11
830.53	226.07
830.85	226.09
831.17	226.05
831.48	226.06
831.80	226.05
832.11	226.02
832.43	226.00
832.75	225.99
833.06	226.08
833.38	226.06
833.69	226.02
834.01	226.00
834.32	226.04
834.64	226.03
834.96	226.01
835.27	226.00
835.59	225.96
835.90	225.97
836.22	225.95
836.53	225.92
836.85	225.93
837.16	226.02
837.48	226.01
837.79	226.03
838.11	226.01
838.42	226.00
838.74	226.00
839.05	225.99
839.37	225.95
839.68	225.88
840.00	225.89
840.31	225.90
840.63	225.86
840.94	225.80
841.26	225.79
841.57	225.78
841.88	225.78
842.20	225.78
842.51	225.72
842.83	225.74
843.14	225.82
843.46	225.79
843.77	225.73
844.08	225.68
844.40	225.67
844.71	225.67
845.03	225.65
845.34	225.65
845.65	225.60
845.97	225.63
846.28	225.64
846.60	225.64
846.91	225.62
847.22	225.63
847.54	225.64
847.85	225.65
848.16	225.65
848.48	225.61
848.79	225.65
849.10	225.68
849.42	225.65
849.73	225.55
850.04	225.53
850.36	225.49
850.67	225.52
850.98	225.50
851.30	225.51
851.61	225.49
851.92	225.49
852.23	225.54
852.55	225.53
852.86	225.54
853.17	225.54
853.49	225.59
853.80	225.61
854.11	225.62
854.42	225.63
854.74	225.60
855.05	225.59
855.36	225.55
855.67	225.55
855.99	225.57
856.30	225.67
856.61	225.69
856.92	225.69
857.23	225.67
857.55	225.63
857.86	225.64
858.17	225.64
858.48	225.60
858.79	225.60
859.11	225.60
859.42	225.59
859.73	225.56
860.04	225.52
860.35	225.48
860.66	225.44
860.98	225.44
861.29	225.49
861.60	225.48
861.91	225.47
862.22	225.45
862.53	225.43
862.84	225.33
863.16	225.36
863.47	225.34
863.78	225.35
864.09	225.39
864.40	225.37
864.71	225.36
865.02	225.37
865.33	225.34
865.64	225.32
865.95	225.31
866.27	225.37
866.58	225.39
866.89	225.38
867.20	225.40
867.51	225.36
867.82	225.31
868.13	225.34
868.44	225.29
868.75	225.30
869.06	225.28
869.37	225.32
869.68	225.27
869.99	225.29
870.30	225.31
870.61	225.32
870.92	225.31
871.23	225.35
871.54	225.37
871.85	225.40
872.16	225.40
872.47	225.40
872.78	225.33
873.09	225.31
873.40	225.33
873.71	225.32
874.02	225.35
874.33	225.37
874.64	225.36
874.95	225.40
875.26	225.38
875.56	225.38
875.87	225.31
876.18	225.30
876.49	225.41
876.80	225.36
877.11	225.32
877.42	225.28
877.73	225.29
878.04	225.27
878.35	225.28
878.66	225.27
878.96	225.26
879.27	225.28
879.58	225.28
879.89	225.28
880.20	225.30
880.51	225.29
880.82	225.29
881.12	225.28
881.43	225.28
881.74	225.28
882.05	225.27
882.36	225.32
882.67	225.35
882.97	225.25
883.28	225.27
883.59	225.27
883.90	225.31
884.21	225.32
884.51	225.33
884.82	225.31
885.13	225.30
885.44	225.28
885.74	225.25
886.05	225.25
886.36	225.24
886.67	225.23
886.98	225.28
887.28	225.27
887.59	225.28
887.90	225.29
888.20	225.26
888.51	225.28
888.82	225.29
889.13	225.27
889.43	225.33
889.74	225.32
890.05	225.30
890.35	225.28
890.66	225.25
890.97	225.22
891.28	225.21
891.58	225.23
891.89	225.22
892.20	225.24
892.50	225.23
892.81	225.26
893.12	225.23
893.42	225.16
893.73	225.18
894.04	225.17
894.34	225.17
894.65	225.19
894.95	225.18
895.26	225.12
895.57	225.15
895.87	225.03
896.18	225.05
896.48	225.07
896.79	225.05
897.10	225.05
897.40	225.03
897.71	225.02
898.01	225.01
898.32	225.02
898.63	225.00
898.93	225.01
899.24	224.99
899.54	224.96
899.85	224.96
900.15	224.92
900.46	224.91
900.76	224.93
901.07	224.95
901.38	224.92
901.68	224.93
901.99	224.89
902.29	224.90
902.60	224.89
902.90	224.88
903.21	224.88
903.51	224.87
903.82	224.91
904.12	224.89
904.43	224.89
904.73	224.90
905.03	224.87
905.34	224.94
905.64	224.91
905.95	224.91
906.25	224.90
906.56	224.93
906.86	224.91
907.17	224.88
907.47	224.84
907.77	224.83
908.08	224.82
908.38	224.81
908.69	224.81
908.99	224.83
909.30	224.82
909.60	224.82
909.90	224.80
910.21	224.77
910.51	224.76
910.81	224.73
911.12	224.69
911.42	224.70
911.73	224.58
912.03	224.60
912.33	224.66
912.64	224.64
912.94	224.62
913.24	224.59
913.55	224.59
913.85	224.60
914.15	224.62
914.46	224.63
914.76	224.62
915.06	224.63
915.37	224.60
915.67	224.58
915.97	224.58
916.27	224.59
916.58	224.62
916.88	224.61
917.18	224.65
917.49	224.73
917.79	224.76
918.09	224.78
918.39	224.78
918.70	224.74
919.00	224.76
919.30	224.79
919.60	224.79
919.91	224.76
920.21	224.76
920.51	224.71
920.81	224.69
921.12	224.71
921.42	224.70
921.72	224.71
922.02	224.73
922.32	224.76
922.63	224.74
922.93	224.76
923.23	224.78
923.53	224.75
923.83	224.65
924.13	224.63
924.44	224.64
924.74	224.68
925.04	224.71
925.34	224.70
925.64	224.64
925.94	224.63
926.24	224.69
926.55	224.70
926.85	224.75
927.15	224.76
927.45	224.75
927.75	224.73
928.05	224.72
928.35	224.72
928.65	224.71
928.95	224.75
929.26	224.72
929.56	224.76
929.86	224.77
930.16	224.80
930.46	224.83
930.76	224.83
931.06	224.76
931.36	224.71
931.66	224.71
931.96	224.74
932.26	224.77
932.56	224.73
932.86	224.72
933.16	224.71
933.46	224.70
933.76	224.73
934.06	224.77
934.36	224.81
934.66	224.80
934.96	224.79
935.26	224.76
935.56	224.74
935.86	224.66
936.16	224.66
936.46	224.64
936.76	224.62
937.06	224.62
937.36	224.63
937.66	224.65
937.96	224.63
938.26	224.63
938.56	224.62
938.86	224.61
939.16	224.64
939.46	224.65
939.76	224.65
940.06	224.61
940.35	224.55
940.65	224.49
940.95	224.51
941.25	224.48
941.55	224.46
941.85	224.41
942.15	224.43
942.45	224.44
942.75	224.44
943.04	224.43
943.34	224.43
943.64	224.41
943.94	224.37
944.24	224.38
944.54	224.38
944.84	224.36
945.13	224.36
945.43	224.33
945.73	224.32
946.03	224.33
946.33	224.32
946.62	224.30
946.92	224.29
947.22	224.30
947.52	224.34
947.82	224.38
948.11	224.43
948.41	224.43
948.71	224.40
949.01	224.41
949.31	224.42
949.60	224.43
949.90	224.46
950.20	224.50
950.50	224.48
950.79	224.50
951.09	224.52
951.39	224.52
951.69	224.53
951.98	224.57
952.28	224.55
952.58	224.58
952.87	224.65
953.17	224.71
953.47	224.70
953.76	224.68
954.06	224.70
954.36	224.67
954.66	224.70
954.95	224.74
955.25	224.75
955.55	224.75
955.84	224.73
956.14	224.72
956.44	224.72
956.73	224.75
957.03	224.72
957.32	224.73
957.62	224.73
957.92	224.71
958.21	224.72
958.51	224.84
958.81	224.84
959.10	224.82
959.40	224.79
959.69	224.84
959.99	224.84
960.29	224.80
960.58	224.83
960.88	224.87
961.17	224.85
961.47	224.85
961.76	224.85
962.06	224.89
962.36	224.89
962.65	224.90
962.95	224.90
963.24	224.92
963.54	224.92
963.83	224.92
964.13	224.93
964.42	224.88
964.72	224.80
965.01	224.80
965.31	224.79
965.60	224.80
965.90	224.81
966.19	224.81
966.49	224.82
966.78	224.82
967.08	224.82
967.37	224.88
967.67	224.88
967.96	224.91
968.26	224.89
968.55	224.90
968.85	224.89
969.14	224.89
969.43	224.90
969.73	224.90
970.02	224.88
970.32	224.90
970.61	224.91
970.91	224.92
971.20	224.93
971.49	224.92
971.79	224.93
972.08	224.88
972.38	224.89
972.67	224.90
972.96	224.92
973.26	224.86
973.55	224.87
973.85	224.85
974.14	224.82
974.43	224.82
974.73	224.80
975.02	224.80
975.31	224.80
975.61	224.77
975.90	224.80
976.19	224.81
976.49	224.83
976.78	224.86
977.07	224.85
977.37	224.83
977.66	224.88
977.95	224.85
978.24	224.86
978.54	224.88
978.83	224.88
979.12	224.84
979.42	224.85
979.71	224.80
980.00	224.82
980.29	224.85
980.59	224.84
980.88	224.89
981.17	224.89
981.46	224.92
981.76	224.99
982.05	225.00
982.34	225.02
982.63	225.01
982.93	225.00
983.22	225.02
983.51	225.04
983.80	225.03
984.09	225.04
984.39	225.04
984.68	225.03
984.97	225.03
985.26	225.06
985.55	225.08
985.85	225.06
986.14	225.05
986.43	225.07
986.72	225.06
987.01	225.00
987.30	225.02
987.59	224.97
987.89	224.96
988.18	224.91
988.47	224.88
988.76	224.86
989.05	224.83
989.34	224.81
989.63	224.82
989.92	224.82
990.22	224.81
990.51	224.79
990.80	224.79
991.09	224.80
991.38	224.80
991.67	224.77
991.96	224.76
992.25	224.75
992.54	224.71
992.83	224.70
993.12	224.70
993.41	224.70
993.70	224.75
993.99	224.73
994.28	224.75
994.58	224.77
994.87	224.73
995.16	224.74
995.45	224.70
995.74	224.67
996.03	224.69
996.32	224.71
996.61	224.73
996.90	224.69
997.19	224.67
997.48	224.65
997.77	224.60
998.06	224.61
998.34	224.63
998.63	224.61
998.92	224.63
999.21	224.67
999.50	224.62
999.79	224.59
1000.08	224.57
1000.37	224.54
1000.66	224.51
1000.95	224.59
1001.24	224.58
1001.53	224.58
1001.82	224.58
1002.11	224.51
1002.40	224.52
1002.68	224.54
1002.97	224.59
1003.26	224.58
1003.55	224.57
1003.84	224.64
1004.13	224.66
1004.42	224.65
1004.71	224.66
1004.99	224.64
1005.28	224.62
1005.57	224.66
1005.86	224.64
1006.15	224.64
1006.44	224.64
1006.72	224.64
1007.01	224.56
1007.30	224.56
1007.59	224.56
1007.88	224.55
1008.17	224.60
1008.45	224.55
1008.74	224.51
1009.03	224.51
1009.32	224.50
1009.60	224.54
1009.89	224.51
1010.18	224.47
1010.47	224.47
1010.76	224.47
1011.04	224.45
1011.33	224.44
1011.62	224.43
1011.91	224.44
1012.19	224.45
1012.48	224.44
1012.77	224.46
1013.05	224.53
1013.34	224.55
1013.63	224.53
1013.92	224.52
1014.20	224.51
1014.49	224.54
1014.78	224.56
1015.06	224.50
1015.35	224.53
1015.64	224.52
1015.92	224.50
1016.21	224.51
1016.50	224.48
1016.78	224.52
1017.07	224.54
1017.36	224.54
1017.64	224.50
1017.93	224.51
1018.22	224.48
1018.50	224.48
1018.79	224.49
1019.08	224.45
1019.36	224.45
1019.65	224.42
1019.93	224.45
1020.22	224.42
1020.51	224.46
1020.79	224.43
1021.08	224.10
1021.36	224.00
1021.65	224.80
1021.94	224.44
1022.22	224.63
1022.51	223.79
1022.79	224.73
1023.08	223.98
1023.36	225.71
1023.65	224.19
>>>>>End Processed Spectral Data<<<<<
