SpectraSuite Data File
++++++++++++++++++++++++++++++++++++
Date: Fri Feb 01 18:05:07 EST 2013
User: group
Dark Spectrum Present: No
Reference Spectrum Present: No
Number of Sampled Component Spectra: 1
Spectrometers: USB2E7196
Integration Time (usec): 35000 (USB2E7196)
Spectra Averaged: 100 (USB2E7196)
Boxcar Smoothing: 10 (USB2E7196)
Correct for Electrical Dark: No (USB2E7196)
Strobe/Lamp Enabled: No (USB2E7196)
Correct for Detector Non-linearity: No (USB2E7196)
Correct for Stray Light: No (USB2E7196)
Number of Pixels in Processed Spectrum: 2048
>>>>>Begin Processed Spectral Data<<<<<
339.09	0.00
339.48	212.60
339.86	214.10
340.24	215.76
340.63	217.61
341.01	219.98
341.39	220.10
341.78	221.53
342.16	222.46
342.54	223.06
342.93	211.42
343.31	222.09
343.69	222.63
344.07	223.10
344.46	223.53
344.84	223.91
345.22	224.15
345.60	224.38
345.99	224.57
346.37	224.72
346.75	224.83
347.13	224.92
347.52	224.98
347.90	225.06
348.28	225.08
348.66	225.13
349.05	225.12
349.43	225.14
349.81	225.16
350.19	225.20
350.57	225.27
350.96	225.33
351.34	225.43
351.72	225.52
352.10	225.63
352.48	225.71
352.87	225.74
353.25	225.81
353.63	225.90
354.01	225.94
354.39	226.00
354.77	226.05
355.15	226.15
355.54	226.19
355.92	226.21
356.30	226.32
356.68	226.48
357.06	226.55
357.44	226.61
357.82	226.66
358.20	226.75
358.58	226.81
358.97	226.88
359.35	226.98
359.73	227.03
360.11	227.04
360.49	227.09
360.87	227.14
361.25	227.16
361.63	227.25
362.01	227.28
362.39	227.30
362.77	227.36
363.15	227.38
363.53	227.40
363.91	227.41
364.29	227.42
364.67	227.33
365.05	227.33
365.43	227.34
365.81	227.40
366.19	227.44
366.57	227.46
366.95	227.45
367.33	227.40
367.71	227.38
368.09	227.42
368.47	227.41
368.85	227.40
369.23	227.44
369.61	227.36
369.99	227.40
370.37	227.40
370.75	227.39
371.13	227.33
371.51	227.27
371.89	227.23
372.27	227.22
372.65	227.14
373.03	227.12
373.41	227.09
373.78	227.02
374.16	226.93
374.54	226.83
374.92	226.81
375.30	226.76
375.68	226.69
376.06	226.64
376.44	226.58
376.82	226.53
377.19	226.45
377.57	226.40
377.95	226.31
378.33	226.21
378.71	226.11
379.09	226.05
379.47	226.03
379.84	225.99
380.22	225.88
380.60	225.85
380.98	225.80
381.36	225.76
381.73	225.69
382.11	225.65
382.49	225.60
382.87	225.52
383.25	225.45
383.62	225.54
384.00	225.47
384.38	225.47
384.76	225.43
385.13	225.44
385.51	225.38
385.89	225.32
386.27	225.32
386.64	225.30
387.02	225.26
387.40	225.21
387.78	225.17
388.15	225.16
388.53	225.14
388.91	225.11
389.29	225.05
389.66	225.05
390.04	224.98
390.42	225.00
390.79	225.01
391.17	225.02
391.55	224.87
391.92	224.86
392.30	224.82
392.68	224.78
393.05	224.76
393.43	224.79
393.81	224.80
394.18	224.79
394.56	224.80
394.94	224.85
395.31	224.85
395.69	224.89
396.06	224.93
396.44	224.95
396.82	224.97
397.19	225.07
397.57	225.09
397.95	225.18
398.32	225.20
398.70	225.25
399.07	225.34
399.45	225.41
399.82	225.47
400.20	225.52
400.58	225.64
400.95	225.67
401.33	225.76
401.70	225.90
402.08	225.98
402.45	226.08
402.83	226.18
403.20	226.33
403.58	226.45
403.95	226.60
404.33	226.76
404.71	226.89
405.08	227.08
405.46	227.25
405.83	227.42
406.21	227.60
406.58	227.76
406.96	227.94
407.33	228.14
407.70	228.37
408.08	228.69
408.45	228.91
408.83	229.21
409.20	229.45
409.58	229.70
409.95	230.05
410.33	230.39
410.70	230.72
411.08	231.11
411.45	231.51
411.82	231.93
412.20	232.39
412.57	232.95
412.95	233.31
413.32	233.83
413.69	234.35
414.07	234.94
414.44	235.54
414.82	236.18
415.19	236.91
415.56	237.64
415.94	238.38
416.31	239.24
416.68	240.07
417.06	241.06
417.43	241.97
417.81	242.97
418.18	244.00
418.55	245.16
418.93	246.31
419.30	247.53
419.67	248.72
420.04	250.01
420.42	251.34
420.79	252.97
421.16	254.55
421.54	256.14
421.91	257.77
422.28	259.52
422.66	261.30
423.03	263.10
423.40	264.92
423.77	266.82
424.15	268.77
424.52	270.80
424.89	272.99
425.26	275.13
425.64	277.10
426.01	279.29
426.38	281.56
426.75	283.83
427.13	286.17
427.50	288.65
427.87	291.23
428.24	293.80
428.61	296.19
428.99	298.85
429.36	301.73
429.73	304.56
430.10	307.33
430.47	310.16
430.85	313.04
431.22	316.08
431.59	319.26
431.96	322.29
432.33	325.67
432.70	328.88
433.08	332.67
433.45	336.23
433.82	339.74
434.19	343.63
434.56	347.45
434.93	351.05
435.30	354.61
435.68	358.48
436.05	362.30
436.42	366.06
436.79	369.44
437.16	373.08
437.53	376.91
437.90	380.63
438.27	384.39
438.64	388.22
439.01	391.74
439.38	394.84
439.75	397.83
440.13	401.20
440.50	404.40
440.87	406.94
441.24	409.61
441.61	412.55
441.98	414.63
442.35	417.07
442.72	419.64
443.09	422.16
443.46	423.56
443.83	424.32
444.20	425.05
444.57	426.27
444.94	426.68
445.31	427.16
445.68	427.62
446.05	427.71
446.42	427.20
446.79	426.64
447.16	426.04
447.53	425.60
447.90	424.04
448.27	422.42
448.64	420.22
449.01	418.73
449.37	416.07
449.74	413.49
450.11	410.42
450.48	407.04
450.85	403.54
451.22	400.58
451.59	397.84
451.96	395.17
452.33	391.56
452.70	388.37
453.07	384.55
453.43	380.65
453.80	376.87
454.17	373.24
454.54	369.76
454.91	366.04
455.28	362.41
455.65	359.06
456.02	355.65
456.38	352.72
456.75	349.02
457.12	345.95
457.49	342.87
457.86	339.95
458.23	337.39
458.59	334.60
458.96	331.76
459.33	329.23
459.70	326.64
460.07	324.57
460.43	322.22
460.80	319.99
461.17	318.05
461.54	315.95
461.91	313.95
462.27	312.00
462.64	310.23
463.01	308.32
463.38	306.49
463.74	304.69
464.11	303.11
464.48	301.72
464.85	300.15
465.21	298.96
465.58	297.65
465.95	296.15
466.32	294.90
466.68	293.69
467.05	292.48
467.42	291.27
467.78	290.00
468.15	288.77
468.52	287.79
468.88	286.60
469.25	285.58
469.62	284.74
469.98	283.79
470.35	282.97
470.72	282.15
471.08	281.27
471.45	280.53
471.82	279.78
472.18	278.95
472.55	278.34
472.92	277.62
473.28	276.97
473.65	276.37
474.02	275.73
474.38	275.21
474.75	274.72
475.11	274.26
475.48	273.88
475.85	273.53
476.21	273.22
476.58	272.92
476.94	272.68
477.31	272.39
477.67	272.15
478.04	271.94
478.41	271.79
478.77	271.72
479.14	271.58
479.50	271.51
479.87	271.51
480.23	271.58
480.60	271.57
480.96	271.59
481.33	271.72
481.69	271.87
482.06	271.99
482.42	272.12
482.79	272.32
483.15	272.61
483.52	272.95
483.88	273.29
484.25	273.70
484.61	274.10
484.98	274.55
485.34	275.15
485.71	275.74
486.07	276.34
486.44	276.93
486.80	277.67
487.17	278.42
487.53	279.27
487.90	280.09
488.26	281.04
488.62	282.08
488.99	283.09
489.35	284.18
489.72	285.38
490.08	286.64
490.44	287.93
490.81	289.29
491.17	290.71
491.54	292.23
491.90	293.79
492.26	295.54
492.63	297.37
492.99	299.17
493.36	301.12
493.72	303.29
494.08	305.49
494.45	307.81
494.81	310.31
495.17	312.88
495.54	315.63
495.90	318.47
496.26	321.36
496.63	324.45
496.99	327.77
497.35	331.20
497.72	334.80
498.08	338.51
498.44	342.43
498.80	346.60
499.17	350.91
499.53	355.31
499.89	359.95
500.26	364.70
500.62	369.67
500.98	374.92
501.34	380.35
501.71	386.04
502.07	391.84
502.43	397.74
502.79	403.92
503.16	410.31
503.52	416.98
503.88	423.83
504.24	430.89
504.60	438.18
504.97	445.76
505.33	453.53
505.69	461.71
506.05	469.94
506.41	478.29
506.78	486.94
507.14	495.94
507.50	505.28
507.86	514.91
508.22	524.75
508.59	534.65
508.95	544.80
509.31	555.24
509.67	566.07
510.03	577.17
510.39	588.53
510.75	600.13
511.12	611.88
511.48	624.03
511.84	636.33
512.20	648.67
512.56	661.45
512.92	674.59
513.28	687.94
513.64	701.44
514.00	715.21
514.37	729.15
514.73	743.27
515.09	757.34
515.45	771.71
515.81	786.43
516.17	801.55
516.53	816.93
516.89	832.33
517.25	847.73
517.61	863.34
517.97	879.00
518.33	894.64
518.69	910.70
519.05	926.91
519.41	943.45
519.77	960.46
520.13	977.38
520.49	994.14
520.85	1011.00
521.21	1028.14
521.57	1045.89
521.93	1063.28
522.29	1081.16
522.65	1098.99
523.01	1116.70
523.37	1134.32
523.73	1152.13
524.09	1169.85
524.45	1187.86
524.81	1206.10
525.17	1224.55
525.53	1243.23
525.89	1261.94
526.25	1280.63
526.61	1298.85
526.97	1317.40
527.33	1335.59
527.68	1353.94
528.04	1372.38
528.40	1390.87
528.76	1409.93
529.12	1428.35
529.48	1447.21
529.84	1465.19
530.20	1483.78
530.56	1502.87
530.91	1522.26
531.27	1540.90
531.63	1559.44
531.99	1578.06
532.35	1596.31
532.71	1614.27
533.07	1632.68
533.42	1650.71
533.78	1668.86
534.14	1687.34
534.50	1704.88
534.86	1723.13
535.21	1740.69
535.57	1758.79
535.93	1776.41
536.29	1793.39
536.65	1810.77
537.00	1827.72
537.36	1845.27
537.72	1862.01
538.08	1878.71
538.44	1894.77
538.79	1911.06
539.15	1926.80
539.51	1942.69
539.87	1959.22
540.22	1975.16
540.58	1991.16
540.94	2006.69
541.29	2021.87
541.65	2036.78
542.01	2052.31
542.37	2066.74
542.72	2081.40
543.08	2095.50
543.44	2110.32
543.79	2123.89
544.15	2137.06
544.51	2150.85
544.87	2164.06
545.22	2177.14
545.58	2189.60
545.94	2201.62
546.29	2213.69
546.65	2225.99
547.01	2237.56
547.36	2248.42
547.72	2259.25
548.07	2269.16
548.43	2279.50
548.79	2289.38
549.14	2299.03
549.50	2308.34
549.86	2318.10
550.21	2327.48
550.57	2336.56
550.92	2345.16
551.28	2354.19
551.64	2363.36
551.99	2371.78
552.35	2380.03
552.70	2388.10
553.06	2396.04
553.41	2404.32
553.77	2412.24
554.13	2420.04
554.48	2428.20
554.84	2435.61
555.19	2442.59
555.55	2449.77
555.90	2456.02
556.26	2462.89
556.61	2469.48
556.97	2475.51
557.32	2481.19
557.68	2486.83
558.03	2492.87
558.39	2498.00
558.74	2504.35
559.10	2509.89
559.45	2515.20
559.81	2521.00
560.16	2526.42
560.52	2531.29
560.87	2536.13
561.23	2540.11
561.58	2544.48
561.94	2548.33
562.29	2552.03
562.64	2556.25
563.00	2559.88
563.35	2564.77
563.71	2569.13
564.06	2573.54
564.42	2577.82
564.77	2581.91
565.12	2585.66
565.48	2588.89
565.83	2592.11
566.19	2594.58
566.54	2596.46
566.89	2598.75
567.25	2600.31
567.60	2602.81
567.96	2605.52
568.31	2607.45
568.66	2609.59
569.02	2611.29
569.37	2612.37
569.72	2614.11
570.08	2615.22
570.43	2616.16
570.78	2616.30
571.14	2615.40
571.49	2614.72
571.84	2615.06
572.20	2614.62
572.55	2614.04
572.90	2612.93
573.26	2611.96
573.61	2610.63
573.96	2609.41
574.31	2606.71
574.67	2604.26
575.02	2600.52
575.37	2597.34
575.72	2593.69
576.08	2590.46
576.43	2587.08
576.78	2583.64
577.13	2580.46
577.49	2577.15
577.84	2573.74
578.19	2569.88
578.54	2566.41
578.90	2562.11
579.25	2556.27
579.60	2550.91
579.95	2545.67
580.30	2540.33
580.66	2534.78
581.01	2529.48
581.36	2524.12
581.71	2519.85
582.06	2515.01
582.42	2510.42
582.77	2504.66
583.12	2499.79
583.47	2494.84
583.82	2489.59
584.17	2483.97
584.53	2478.03
584.88	2471.96
585.23	2465.87
585.58	2459.92
585.93	2453.88
586.28	2448.71
586.63	2443.30
586.98	2437.85
587.34	2432.70
587.69	2427.32
588.04	2421.78
588.39	2415.57
588.74	2408.42
589.09	2401.48
589.44	2393.90
589.79	2386.99
590.14	2380.59
590.49	2373.06
590.84	2365.87
591.19	2358.99
591.54	2351.61
591.89	2343.43
592.25	2335.68
592.60	2327.35
592.95	2318.91
593.30	2310.60
593.65	2301.93
594.00	2293.85
594.35	2285.47
594.70	2276.24
595.05	2268.14
595.40	2259.72
595.75	2250.96
596.10	2243.85
596.45	2236.25
596.80	2229.13
597.15	2221.77
597.50	2213.95
597.85	2206.63
598.19	2199.08
598.54	2191.01
598.89	2183.36
599.24	2176.62
599.59	2169.14
599.94	2161.99
600.29	2154.81
600.64	2147.19
600.99	2138.56
601.34	2130.63
601.69	2122.52
602.04	2114.60
602.39	2105.85
602.74	2097.85
603.08	2090.00
603.43	2082.14
603.78	2073.56
604.13	2065.16
604.48	2056.76
604.83	2048.60
605.18	2040.54
605.53	2031.17
605.87	2021.74
606.22	2013.28
606.57	2003.75
606.92	1995.00
607.27	1986.67
607.62	1978.42
607.96	1969.78
608.31	1962.10
608.66	1953.10
609.01	1944.27
609.36	1935.39
609.70	1926.08
610.05	1916.79
610.40	1907.88
610.75	1898.11
611.10	1889.01
611.44	1879.11
611.79	1869.50
612.14	1859.27
612.49	1848.40
612.83	1838.50
613.18	1828.98
613.53	1819.43
613.88	1809.42
614.22	1799.60
614.57	1789.30
614.92	1779.78
615.27	1770.98
615.61	1761.12
615.96	1751.60
616.31	1742.73
616.65	1733.96
617.00	1725.13
617.35	1715.89
617.70	1706.19
618.04	1696.04
618.39	1686.30
618.74	1677.28
619.08	1667.48
619.43	1658.50
619.78	1650.27
620.12	1641.80
620.47	1632.88
620.82	1623.26
621.16	1614.46
621.51	1605.52
621.85	1596.55
622.20	1586.47
622.55	1576.47
622.89	1567.28
623.24	1558.26
623.59	1549.30
623.93	1540.51
624.28	1531.94
624.62	1523.01
624.97	1514.44
625.32	1506.49
625.66	1498.24
626.01	1489.86
626.35	1481.18
626.70	1472.04
627.04	1462.98
627.39	1453.69
627.73	1444.96
628.08	1436.81
628.43	1428.35
628.77	1419.73
629.12	1410.92
629.46	1402.47
629.81	1393.69
630.15	1385.04
630.50	1376.32
630.84	1366.75
631.19	1357.26
631.53	1348.32
631.88	1339.46
632.22	1330.50
632.57	1321.90
632.91	1312.98
633.26	1304.19
633.60	1295.43
633.95	1286.98
634.29	1278.66
634.64	1270.89
634.98	1262.20
635.32	1253.70
635.67	1245.81
636.01	1237.93
636.36	1229.90
636.70	1222.17
637.05	1214.53
637.39	1206.92
637.73	1199.24
638.08	1192.28
638.42	1185.33
638.77	1177.73
639.11	1170.09
639.45	1162.43
639.80	1154.65
640.14	1147.16
640.49	1139.60
640.83	1132.17
641.17	1124.95
641.52	1117.60
641.86	1109.86
642.20	1102.91
642.55	1095.46
642.89	1087.87
643.23	1080.28
643.58	1073.52
643.92	1066.33
644.26	1059.35
644.61	1052.27
644.95	1045.33
645.29	1037.68
645.64	1029.78
645.98	1022.42
646.32	1015.49
646.66	1008.58
647.01	1001.75
647.35	995.03
647.69	988.03
648.04	981.66
648.38	974.90
648.72	967.93
649.06	961.12
649.41	954.27
649.75	947.42
650.09	940.56
650.43	933.76
650.78	926.59
651.12	919.73
651.46	912.93
651.80	906.39
652.14	900.11
652.49	893.84
652.83	887.89
653.17	881.24
653.51	874.69
653.85	868.39
654.20	861.91
654.54	855.01
654.88	848.39
655.22	841.44
655.56	834.87
655.90	828.51
656.25	822.40
656.59	816.29
656.93	810.42
657.27	804.46
657.61	798.21
657.95	792.27
658.29	786.37
658.64	780.31
658.98	774.06
659.32	767.72
659.66	761.67
660.00	755.45
660.34	749.77
660.68	744.02
661.02	738.23
661.36	732.77
661.70	727.53
662.05	722.53
662.39	717.56
662.73	712.34
663.07	707.21
663.41	702.01
663.75	696.75
664.09	691.34
664.43	686.18
664.77	681.44
665.11	676.50
665.45	671.63
665.79	667.01
666.13	662.25
666.47	657.51
666.81	652.74
667.15	647.99
667.49	643.44
667.83	638.96
668.17	634.40
668.51	629.62
668.85	624.94
669.19	620.45
669.53	616.01
669.87	611.56
670.21	607.28
670.55	603.05
670.89	599.08
671.23	595.16
671.57	591.06
671.91	586.95
672.25	582.87
672.58	578.76
672.92	574.68
673.26	571.01
673.60	567.35
673.94	563.67
674.28	560.28
674.62	556.91
674.96	553.28
675.30	549.87
675.64	546.55
675.97	543.31
676.31	540.01
676.65	536.59
676.99	533.42
677.33	530.08
677.67	526.78
678.01	523.26
678.34	519.82
678.68	516.53
679.02	513.26
679.36	510.03
679.70	506.92
680.04	503.75
680.37	500.43
680.71	497.17
681.05	494.19
681.39	491.08
681.73	487.97
682.06	485.05
682.40	482.11
682.74	479.16
683.08	476.26
683.42	473.18
683.75	470.29
684.09	467.27
684.43	464.43
684.77	461.59
685.10	458.87
685.44	456.15
685.78	453.48
686.12	450.81
686.45	448.14
686.79	445.47
687.13	442.92
687.46	440.39
687.80	437.83
688.14	435.23
688.48	432.79
688.81	430.20
689.15	427.71
689.49	425.19
689.82	422.74
690.16	420.31
690.50	418.05
690.83	415.82
691.17	413.53
691.51	411.31
691.84	409.16
692.18	406.95
692.52	404.71
692.85	402.47
693.19	400.33
693.52	398.20
693.86	396.07
694.20	393.94
694.53	391.86
694.87	389.68
695.21	387.60
695.54	385.48
695.88	383.44
696.21	381.47
696.55	379.51
696.88	377.56
697.22	375.60
697.56	373.70
697.89	371.81
698.23	369.98
698.56	368.12
698.90	366.27
699.23	364.34
699.57	362.48
699.90	360.66
700.24	358.82
700.58	357.08
700.91	355.36
701.25	353.67
701.58	352.07
701.92	350.53
702.25	348.99
702.59	347.46
702.92	345.96
703.26	344.45
703.59	342.99
703.93	341.57
704.26	340.11
704.60	338.62
704.93	337.11
705.26	335.64
705.60	334.24
705.93	332.92
706.27	331.66
706.60	330.44
706.94	329.19
707.27	327.86
707.61	326.57
707.94	325.39
708.27	324.13
708.61	322.82
708.94	321.67
709.28	320.48
709.61	319.29
709.94	318.15
710.28	316.96
710.61	315.78
710.95	314.51
711.28	313.43
711.61	312.31
711.95	311.20
712.28	310.08
712.61	308.95
712.95	307.83
713.28	306.85
713.61	305.79
713.95	304.77
714.28	303.82
714.61	302.83
714.95	301.81
715.28	300.84
715.61	299.84
715.95	298.81
716.28	297.79
716.61	296.81
716.95	295.84
717.28	294.96
717.61	294.07
717.94	293.24
718.28	292.28
718.61	291.44
718.94	290.66
719.27	289.89
719.61	289.11
719.94	288.30
720.27	287.48
720.60	286.74
720.94	285.98
721.27	285.27
721.60	284.61
721.93	283.88
722.27	283.24
722.60	282.64
722.93	281.96
723.26	281.29
723.59	280.68
723.93	280.02
724.26	279.32
724.59	278.63
724.92	278.01
725.25	277.46
725.59	276.84
725.92	276.23
726.25	275.64
726.58	275.08
726.91	274.56
727.24	273.95
727.57	273.36
727.91	272.77
728.24	272.20
728.57	271.61
728.90	271.09
729.23	270.47
729.56	269.95
729.89	269.39
730.22	268.87
730.55	268.33
730.89	267.84
731.22	267.37
731.55	266.88
731.88	266.37
732.21	265.86
732.54	265.39
732.87	264.88
733.20	264.37
733.53	263.90
733.86	263.42
734.19	263.00
734.52	262.63
734.85	262.25
735.18	261.78
735.51	261.38
735.84	260.95
736.17	260.61
736.50	260.13
736.83	259.86
737.16	259.46
737.49	259.06
737.82	258.68
738.15	258.30
738.48	257.95
738.81	257.57
739.14	257.19
739.47	256.80
739.80	256.44
740.13	256.12
740.46	255.74
740.79	255.38
741.12	255.01
741.45	254.63
741.78	254.26
742.11	253.96
742.44	253.58
742.77	253.24
743.10	252.84
743.43	252.49
743.75	252.05
744.08	251.90
744.41	251.57
744.74	251.25
745.07	250.89
745.40	250.58
745.73	250.33
746.06	250.02
746.39	249.78
746.71	249.47
747.04	249.19
747.37	248.92
747.70	248.66
748.03	248.39
748.36	248.12
748.68	247.86
749.01	247.56
749.34	247.31
749.67	247.05
750.00	246.83
750.33	246.66
750.65	246.44
750.98	246.05
751.31	245.81
751.64	245.54
751.97	245.38
752.29	245.14
752.62	244.86
752.95	244.63
753.28	244.33
753.60	244.09
753.93	243.83
754.26	243.62
754.59	243.35
754.91	243.10
755.24	242.86
755.57	242.62
755.90	242.40
756.22	242.17
756.55	241.95
756.88	241.73
757.20	241.45
757.53	241.22
757.86	241.02
758.19	240.85
758.51	240.68
758.84	240.41
759.17	240.22
759.49	240.03
759.82	239.87
760.15	239.74
760.47	239.57
760.80	239.38
761.13	239.21
761.45	239.03
761.78	238.87
762.11	238.69
762.43	238.51
762.76	238.35
763.08	238.18
763.41	238.02
763.74	237.85
764.06	237.67
764.39	237.52
764.71	237.33
765.04	237.15
765.37	236.98
765.69	236.81
766.02	236.67
766.34	236.50
766.67	236.35
767.00	236.18
767.32	236.09
767.65	236.01
767.97	235.89
768.30	235.76
768.62	235.63
768.95	235.46
769.27	235.31
769.60	235.19
769.92	235.06
770.25	234.91
770.57	234.77
770.90	234.66
771.22	234.53
771.55	234.44
771.87	234.32
772.20	234.19
772.52	234.17
772.85	234.19
773.17	234.06
773.50	233.94
773.82	233.85
774.15	233.71
774.47	233.55
774.80	233.43
775.12	233.32
775.45	233.21
775.77	233.15
776.09	233.05
776.42	232.92
776.74	232.89
777.07	232.81
777.39	232.72
777.72	232.62
778.04	232.52
778.36	232.42
778.69	232.35
779.01	232.29
779.33	232.13
779.66	231.95
779.98	231.90
780.31	231.81
780.63	231.75
780.95	231.70
781.28	231.63
781.60	231.53
781.92	231.46
782.25	231.40
782.57	231.33
782.89	231.27
783.22	231.24
783.54	231.13
783.86	231.05
784.19	231.02
784.51	231.03
784.83	230.97
785.16	230.89
785.48	230.83
785.80	230.80
786.12	230.76
786.45	230.68
786.77	230.64
787.09	230.59
787.42	230.50
787.74	230.43
788.06	230.43
788.38	230.38
788.71	230.35
789.03	230.32
789.35	230.28
789.67	230.22
789.99	230.17
790.32	230.13
790.64	230.11
790.96	230.12
791.28	230.02
791.61	229.98
791.93	229.98
792.25	229.92
792.57	229.93
792.89	229.87
793.21	229.84
793.54	229.79
793.86	229.77
794.18	229.74
794.50	229.69
794.82	229.59
795.14	229.56
795.47	229.53
795.79	229.48
796.11	229.41
796.43	229.37
796.75	229.32
797.07	229.28
797.39	229.21
797.71	229.14
798.04	229.12
798.36	229.09
798.68	229.03
799.00	229.00
799.32	228.90
799.64	228.84
799.96	228.79
800.28	228.77
800.60	228.71
800.92	228.67
801.24	228.62
801.56	228.59
801.89	228.54
802.21	228.49
802.53	228.45
802.85	228.41
803.17	228.41
803.49	228.37
803.81	228.34
804.13	228.30
804.45	228.23
804.77	228.16
805.09	228.10
805.41	228.07
805.73	228.02
806.05	227.98
806.37	227.99
806.69	227.92
807.01	227.84
807.33	227.78
807.65	227.72
807.97	227.76
808.28	227.72
808.60	227.67
808.92	227.63
809.24	227.64
809.56	227.62
809.88	227.60
810.20	227.60
810.52	227.60
810.84	227.57
811.16	227.53
811.48	227.50
811.80	227.53
812.12	227.47
812.43	227.46
812.75	227.40
813.07	227.33
813.39	227.32
813.71	227.30
814.03	227.30
814.35	227.27
814.67	227.20
814.98	227.18
815.30	227.18
815.62	227.10
815.94	226.98
816.26	226.98
816.58	226.90
816.89	226.89
817.21	226.79
817.53	226.77
817.85	226.76
818.17	226.73
818.48	226.66
818.80	226.70
819.12	226.66
819.44	226.65
819.76	226.59
820.07	226.58
820.39	226.59
820.71	226.58
821.03	226.55
821.34	226.51
821.66	226.49
821.98	226.46
822.30	226.47
822.61	226.55
822.93	226.51
823.25	226.48
823.57	226.44
823.88	226.47
824.20	226.47
824.52	226.46
824.83	226.45
825.15	226.44
825.47	226.39
825.79	226.41
826.10	226.40
826.42	226.43
826.74	226.43
827.05	226.40
827.37	226.39
827.69	226.38
828.00	226.37
828.32	226.34
828.64	226.33
828.95	226.41
829.27	226.36
829.58	226.36
829.90	226.39
830.22	226.40
830.53	226.36
830.85	226.34
831.17	226.32
831.48	226.32
831.80	226.29
832.11	226.28
832.43	226.25
832.75	226.21
833.06	226.25
833.38	226.22
833.69	226.20
834.01	226.20
834.32	226.22
834.64	226.27
834.96	226.28
835.27	226.27
835.59	226.22
835.90	226.19
836.22	226.16
836.53	226.12
836.85	226.09
837.16	226.18
837.48	226.18
837.79	226.20
838.11	226.21
838.42	226.21
838.74	226.18
839.05	226.17
839.37	226.18
839.68	226.12
840.00	226.09
840.31	226.10
840.63	226.10
840.94	226.06
841.26	226.01
841.57	226.02
841.88	226.03
842.20	226.00
842.51	225.99
842.83	226.00
843.14	226.10
843.46	226.11
843.77	226.04
844.08	225.98
844.40	225.93
844.71	225.90
845.03	225.89
845.34	225.89
845.65	225.89
845.97	225.86
846.28	225.87
846.60	225.91
846.91	225.88
847.22	225.85
847.54	225.87
847.85	225.86
848.16	225.81
848.48	225.76
848.79	225.77
849.10	225.77
849.42	225.76
849.73	225.66
850.04	225.64
850.36	225.61
850.67	225.65
850.98	225.68
851.30	225.68
851.61	225.66
851.92	225.67
852.23	225.69
852.55	225.70
852.86	225.68
853.17	225.67
853.49	225.69
853.80	225.66
854.11	225.66
854.42	225.63
854.74	225.66
855.05	225.64
855.36	225.65
855.67	225.65
855.99	225.66
856.30	225.74
856.61	225.73
856.92	225.71
857.23	225.70
857.55	225.64
857.86	225.64
858.17	225.65
858.48	225.64
858.79	225.63
859.11	225.62
859.42	225.60
859.73	225.57
860.04	225.58
860.35	225.56
860.66	225.52
860.98	225.53
861.29	225.54
861.60	225.52
861.91	225.54
862.22	225.50
862.53	225.44
862.84	225.31
863.16	225.36
863.47	225.35
863.78	225.33
864.09	225.37
864.40	225.40
864.71	225.41
865.02	225.39
865.33	225.34
865.64	225.33
865.95	225.35
866.27	225.46
866.58	225.43
866.89	225.46
867.20	225.45
867.51	225.45
867.82	225.45
868.13	225.50
868.44	225.48
868.75	225.51
869.06	225.55
869.37	225.58
869.68	225.54
869.99	225.54
870.30	225.57
870.61	225.59
870.92	225.58
871.23	225.56
871.54	225.61
871.85	225.67
872.16	225.70
872.47	225.72
872.78	225.61
873.09	225.65
873.40	225.67
873.71	225.68
874.02	225.68
874.33	225.66
874.64	225.63
874.95	225.66
875.26	225.63
875.56	225.66
875.87	225.65
876.18	225.69
876.49	225.77
876.80	225.76
877.11	225.72
877.42	225.70
877.73	225.68
878.04	225.64
878.35	225.64
878.66	225.62
878.96	225.60
879.27	225.62
879.58	225.60
879.89	225.56
880.20	225.61
880.51	225.63
880.82	225.64
881.12	225.65
881.43	225.58
881.74	225.59
882.05	225.55
882.36	225.53
882.67	225.49
882.97	225.40
883.28	225.40
883.59	225.40
883.90	225.39
884.21	225.42
884.51	225.39
884.82	225.36
885.13	225.38
885.44	225.38
885.74	225.34
886.05	225.31
886.36	225.31
886.67	225.24
886.98	225.27
887.28	225.24
887.59	225.24
887.90	225.25
888.20	225.25
888.51	225.28
888.82	225.25
889.13	225.29
889.43	225.34
889.74	225.33
890.05	225.34
890.35	225.33
890.66	225.31
890.97	225.32
891.28	225.29
891.58	225.29
891.89	225.25
892.20	225.27
892.50	225.26
892.81	225.23
893.12	225.20
893.42	225.11
893.73	225.14
894.04	225.11
894.34	225.13
894.65	225.11
894.95	225.08
895.26	225.08
895.57	225.09
895.87	225.01
896.18	225.02
896.48	225.01
896.79	225.02
897.10	225.00
897.40	225.02
897.71	225.04
898.01	225.03
898.32	225.06
898.63	225.07
898.93	225.07
899.24	225.12
899.54	225.18
899.85	225.20
900.15	225.17
900.46	225.16
900.76	225.15
901.07	225.13
901.38	225.13
901.68	225.19
901.99	225.11
902.29	225.13
902.60	225.13
902.90	225.12
903.21	225.12
903.51	225.12
903.82	225.14
904.12	225.12
904.43	225.11
904.73	225.11
905.03	225.07
905.34	225.19
905.64	225.16
905.95	225.14
906.25	225.12
906.56	225.11
906.86	225.13
907.17	225.14
907.47	225.17
907.77	225.17
908.08	225.10
908.38	225.13
908.69	225.12
908.99	225.10
909.30	225.09
909.60	225.09
909.90	225.08
910.21	225.03
910.51	225.02
910.81	225.03
911.12	225.02
911.42	225.03
911.73	224.92
912.03	224.94
912.33	224.95
912.64	224.95
912.94	224.97
913.24	224.93
913.55	224.92
913.85	224.89
914.15	224.90
914.46	224.92
914.76	224.88
915.06	224.88
915.37	224.86
915.67	224.87
915.97	224.86
916.27	224.84
916.58	224.89
916.88	224.90
917.18	224.91
917.49	224.98
917.79	224.97
918.09	224.99
918.39	224.99
918.70	224.98
919.00	224.99
919.30	225.04
919.60	225.06
919.91	225.07
920.21	225.07
920.51	225.05
920.81	225.06
921.12	225.10
921.42	225.07
921.72	225.10
922.02	225.09
922.32	225.09
922.63	225.10
922.93	225.13
923.23	225.13
923.53	225.08
923.83	225.00
924.13	225.02
924.44	225.02
924.74	225.01
925.04	225.03
925.34	225.03
925.64	224.99
925.94	225.00
926.24	225.02
926.55	225.05
926.85	225.06
927.15	225.07
927.45	225.08
927.75	225.12
928.05	225.13
928.35	225.12
928.65	225.17
928.95	225.17
929.26	225.14
929.56	225.15
929.86	225.20
930.16	225.19
930.46	225.19
930.76	225.21
931.06	225.19
931.36	225.18
931.66	225.21
931.96	225.20
932.26	225.20
932.56	225.18
932.86	225.15
933.16	225.15
933.46	225.15
933.76	225.11
934.06	225.11
934.36	225.17
934.66	225.19
934.96	225.15
935.26	225.17
935.56	225.18
935.86	225.17
936.16	225.14
936.46	225.18
936.76	225.19
937.06	225.16
937.36	225.22
937.66	225.22
937.96	225.23
938.26	225.23
938.56	225.22
938.86	225.20
939.16	225.24
939.46	225.25
939.76	225.25
940.06	225.27
940.35	225.24
940.65	225.17
940.95	225.17
941.25	225.18
941.55	225.15
941.85	225.14
942.15	225.14
942.45	225.18
942.75	225.17
943.04	225.14
943.34	225.15
943.64	225.10
943.94	225.07
944.24	225.06
944.54	225.03
944.84	225.04
945.13	225.03
945.43	224.98
945.73	224.96
946.03	224.93
946.33	224.90
946.62	224.89
946.92	224.89
947.22	224.90
947.52	224.88
947.82	224.87
948.11	224.83
948.41	224.82
948.71	224.78
949.01	224.74
949.31	224.73
949.60	224.70
949.90	224.73
950.20	224.74
950.50	224.69
950.79	224.70
951.09	224.70
951.39	224.71
951.69	224.70
951.98	224.73
952.28	224.73
952.58	224.74
952.87	224.74
953.17	224.76
953.47	224.72
953.76	224.70
954.06	224.70
954.36	224.72
954.66	224.74
954.95	224.76
955.25	224.80
955.55	224.78
955.84	224.80
956.14	224.79
956.44	224.78
956.73	224.81
957.03	224.81
957.32	224.77
957.62	224.78
957.92	224.79
958.21	224.78
958.51	224.88
958.81	224.89
959.10	224.92
959.40	224.91
959.69	224.92
959.99	224.95
960.29	224.95
960.58	224.96
960.88	224.96
961.17	224.93
961.47	224.95
961.76	224.97
962.06	224.95
962.36	224.93
962.65	224.94
962.95	224.94
963.24	224.92
963.54	224.96
963.83	224.95
964.13	224.96
964.42	224.96
964.72	224.90
965.01	224.90
965.31	224.89
965.60	224.88
965.90	224.97
966.19	224.95
966.49	224.94
966.78	224.90
967.08	224.89
967.37	224.87
967.67	224.85
967.96	224.89
968.26	224.93
968.55	224.93
968.85	224.92
969.14	224.94
969.43	224.98
969.73	224.96
970.02	224.95
970.32	224.96
970.61	224.95
970.91	224.93
971.20	224.94
971.49	224.95
971.79	224.94
972.08	224.87
972.38	224.89
972.67	224.91
972.96	224.95
973.26	224.95
973.55	225.04
973.85	225.04
974.14	225.03
974.43	225.01
974.73	225.01
975.02	225.01
975.31	224.98
975.61	224.96
975.90	224.96
976.19	224.99
976.49	224.97
976.78	224.97
977.07	224.96
977.37	224.96
977.66	224.96
977.95	224.96
978.24	224.97
978.54	224.99
978.83	225.00
979.12	224.97
979.42	224.96
979.71	224.94
980.00	224.93
980.29	224.91
980.59	224.88
980.88	224.87
981.17	224.86
981.46	224.86
981.76	224.87
982.05	224.89
982.34	224.92
982.63	224.91
982.93	224.92
983.22	224.95
983.51	224.96
983.80	224.97
984.09	224.96
984.39	224.91
984.68	224.89
984.97	224.90
985.26	224.93
985.55	224.93
985.85	224.90
986.14	224.91
986.43	224.91
986.72	224.91
987.01	224.91
987.30	224.91
987.59	224.90
987.89	224.88
988.18	224.83
988.47	224.78
988.76	224.75
989.05	224.73
989.34	224.69
989.63	224.69
989.92	224.63
990.22	224.62
990.51	224.62
990.80	224.58
991.09	224.56
991.38	224.52
991.67	224.53
991.96	224.50
992.25	224.45
992.54	224.45
992.83	224.48
993.12	224.46
993.41	224.47
993.70	224.48
993.99	224.45
994.28	224.49
994.58	224.50
994.87	224.50
995.16	224.49
995.45	224.48
995.74	224.40
996.03	224.43
996.32	224.43
996.61	224.47
996.90	224.48
997.19	224.51
997.48	224.50
997.77	224.48
998.06	224.50
998.34	224.49
998.63	224.46
998.92	224.43
999.21	224.42
999.50	224.44
999.79	224.42
1000.08	224.46
1000.37	224.47
1000.66	224.46
1000.95	224.49
1001.24	224.54
1001.53	224.57
1001.82	224.60
1002.11	224.60
1002.40	224.65
1002.68	224.70
1002.97	224.77
1003.26	224.75
1003.55	224.75
1003.84	224.79
1004.13	224.85
1004.42	224.90
1004.71	224.92
1004.99	224.92
1005.28	224.95
1005.57	224.95
1005.86	224.97
1006.15	224.98
1006.44	224.96
1006.72	224.98
1007.01	225.01
1007.30	224.99
1007.59	224.99
1007.88	225.02
1008.17	225.04
1008.45	225.00
1008.74	224.94
1009.03	224.90
1009.32	224.90
1009.60	224.92
1009.89	224.91
1010.18	224.80
1010.47	224.77
1010.76	224.81
1011.04	224.83
1011.33	224.86
1011.62	224.90
1011.91	224.89
1012.19	224.91
1012.48	224.93
1012.77	224.92
1013.05	224.95
1013.34	224.94
1013.63	224.93
1013.92	224.90
1014.20	224.89
1014.49	224.88
1014.78	224.90
1015.06	224.86
1015.35	224.88
1015.64	224.88
1015.92	224.89
1016.21	224.93
1016.50	224.91
1016.78	224.91
1017.07	224.91
1017.36	224.89
1017.64	224.83
1017.93	224.84
1018.22	224.83
1018.50	224.84
1018.79	224.86
1019.08	224.80
1019.36	224.78
1019.65	224.76
1019.93	224.79
1020.22	224.79
1020.51	224.86
1020.79	224.82
1021.08	224.95
1021.36	225.30
1021.65	225.09
1021.94	224.62
1022.22	224.43
1022.51	224.42
1022.79	225.05
1023.08	224.97
1023.36	225.97
1023.65	223.97
>>>>>End Processed Spectral Data<<<<<
