SpectraSuite Data File
++++++++++++++++++++++++++++++++++++
Date: Fri Feb 01 18:16:46 EST 2013
User: group
Dark Spectrum Present: No
Reference Spectrum Present: No
Number of Sampled Component Spectra: 1
Spectrometers: USB2E7196
Integration Time (usec): 35000 (USB2E7196)
Spectra Averaged: 100 (USB2E7196)
Boxcar Smoothing: 10 (USB2E7196)
Correct for Electrical Dark: No (USB2E7196)
Strobe/Lamp Enabled: No (USB2E7196)
Correct for Detector Non-linearity: No (USB2E7196)
Correct for Stray Light: No (USB2E7196)
Number of Pixels in Processed Spectrum: 2048
>>>>>Begin Processed Spectral Data<<<<<
339.09	0.00
339.48	213.52
339.86	214.19
340.24	215.88
340.63	217.09
341.01	220.33
341.39	220.11
341.78	221.13
342.16	222.67
342.54	223.50
342.93	211.53
343.31	222.23
343.69	222.71
344.07	223.18
344.46	223.61
344.84	224.01
345.22	224.23
345.60	224.47
345.99	224.67
346.37	224.78
346.75	224.86
347.13	224.92
347.52	224.92
347.90	225.02
348.28	225.05
348.66	225.07
349.05	225.06
349.43	225.08
349.81	225.14
350.19	225.18
350.57	225.27
350.96	225.35
351.34	225.44
351.72	225.55
352.10	225.65
352.48	225.71
352.87	225.77
353.25	225.84
353.63	225.89
354.01	225.94
354.39	226.04
354.77	226.10
355.15	226.18
355.54	226.26
355.92	226.29
356.30	226.39
356.68	226.54
357.06	226.60
357.44	226.67
357.82	226.73
358.20	226.81
358.58	226.86
358.97	226.91
359.35	226.98
359.73	227.10
360.11	227.12
360.49	227.20
360.87	227.23
361.25	227.32
361.63	227.39
362.01	227.44
362.39	227.44
362.77	227.50
363.15	227.53
363.53	227.59
363.91	227.64
364.29	227.69
364.67	227.61
365.05	227.63
365.43	227.64
365.81	227.68
366.19	227.75
366.57	227.77
366.95	227.76
367.33	227.69
367.71	227.65
368.09	227.68
368.47	227.68
368.85	227.64
369.23	227.62
369.61	227.62
369.99	227.65
370.37	227.64
370.75	227.65
371.13	227.61
371.51	227.54
371.89	227.47
372.27	227.40
372.65	227.36
373.03	227.34
373.41	227.27
373.78	227.19
374.16	227.08
374.54	227.03
374.92	226.97
375.30	226.94
375.68	226.86
376.06	226.83
376.44	226.74
376.82	226.71
377.19	226.64
377.57	226.56
377.95	226.45
378.33	226.42
378.71	226.33
379.09	226.29
379.47	226.25
379.84	226.20
380.22	226.13
380.60	226.05
380.98	225.98
381.36	225.94
381.73	225.86
382.11	225.81
382.49	225.76
382.87	225.72
383.25	225.66
383.62	225.76
384.00	225.68
384.38	225.65
384.76	225.62
385.13	225.62
385.51	225.52
385.89	225.48
386.27	225.43
386.64	225.40
387.02	225.36
387.40	225.32
387.78	225.30
388.15	225.29
388.53	225.25
388.91	225.22
389.29	225.18
389.66	225.16
390.04	225.13
390.42	225.13
390.79	225.09
391.17	225.11
391.55	224.95
391.92	224.92
392.30	224.90
392.68	224.90
393.05	224.89
393.43	224.90
393.81	224.91
394.18	224.88
394.56	224.88
394.94	224.89
395.31	224.91
395.69	224.96
396.06	224.98
396.44	225.01
396.82	225.03
397.19	225.11
397.57	225.14
397.95	225.17
398.32	225.19
398.70	225.22
399.07	225.22
399.45	225.29
399.82	225.36
400.20	225.38
400.58	225.45
400.95	225.47
401.33	225.57
401.70	225.71
402.08	225.83
402.45	225.94
402.83	226.06
403.20	226.16
403.58	226.24
403.95	226.39
404.33	226.54
404.71	226.68
405.08	226.85
405.46	227.00
405.83	227.18
406.21	227.32
406.58	227.55
406.96	227.76
407.33	227.98
407.70	228.21
408.08	228.53
408.45	228.78
408.83	229.11
409.20	229.37
409.58	229.61
409.95	229.91
410.33	230.25
410.70	230.56
411.08	230.96
411.45	231.35
411.82	231.73
412.20	232.20
412.57	232.73
412.95	233.19
413.32	233.75
413.69	234.35
414.07	234.97
414.44	235.60
414.82	236.29
415.19	237.03
415.56	237.78
415.94	238.57
416.31	239.45
416.68	240.28
417.06	241.30
417.43	242.25
417.81	243.33
418.18	244.40
418.55	245.58
418.93	246.82
419.30	248.09
419.67	249.42
420.04	250.77
420.42	252.17
420.79	253.80
421.16	255.40
421.54	257.04
421.91	258.79
422.28	260.55
422.66	262.41
423.03	264.22
423.40	266.10
423.77	268.11
424.15	270.17
424.52	272.31
424.89	274.55
425.26	276.76
425.64	278.81
426.01	281.06
426.38	283.40
426.75	285.79
427.13	288.21
427.50	290.77
427.87	293.42
428.24	296.05
428.61	298.57
428.99	301.33
429.36	304.30
429.73	307.19
430.10	310.08
430.47	313.01
430.85	316.04
431.22	319.22
431.59	322.51
431.96	325.68
432.33	329.17
432.70	332.53
433.08	336.49
433.45	340.21
433.82	343.92
434.19	347.97
434.56	351.86
434.93	355.65
435.30	359.35
435.68	363.43
436.05	367.45
436.42	371.34
436.79	374.90
437.16	378.71
437.53	382.76
437.90	386.76
438.27	390.61
438.64	394.62
439.01	398.27
439.38	401.49
439.75	404.53
440.13	408.04
440.50	411.34
440.87	413.93
441.24	416.69
441.61	419.77
441.98	421.94
442.35	424.52
442.72	427.14
443.09	429.66
443.46	431.13
443.83	431.99
444.20	432.73
444.57	433.90
444.94	434.33
445.31	434.76
445.68	435.16
446.05	435.29
446.42	434.71
446.79	434.15
447.16	433.54
447.53	433.12
447.90	431.50
448.27	429.90
448.64	427.68
449.01	426.09
449.37	423.27
449.74	420.57
450.11	417.38
450.48	413.90
450.85	410.34
451.22	407.26
451.59	404.36
451.96	401.63
452.33	397.97
452.70	394.66
453.07	390.70
453.43	386.69
453.80	382.77
454.17	379.04
454.54	375.44
454.91	371.58
455.28	367.77
455.65	364.25
456.02	360.71
456.38	357.69
456.75	353.89
457.12	350.69
457.49	347.55
457.86	344.51
458.23	341.84
458.59	338.96
458.96	335.99
459.33	333.37
459.70	330.72
460.07	328.60
460.43	326.11
460.80	323.80
461.17	321.69
461.54	319.57
461.91	317.51
462.27	315.42
462.64	313.64
463.01	311.72
463.38	309.82
463.74	307.95
464.11	306.27
464.48	304.81
464.85	303.23
465.21	301.98
465.58	300.67
465.95	299.13
466.32	297.83
466.68	296.55
467.05	295.28
467.42	294.00
467.78	292.66
468.15	291.46
468.52	290.49
468.88	289.32
469.25	288.19
469.62	287.31
469.98	286.35
470.35	285.45
470.72	284.58
471.08	283.69
471.45	282.93
471.82	282.18
472.18	281.32
472.55	280.70
472.92	279.94
473.28	279.26
473.65	278.59
474.02	277.92
474.38	277.38
474.75	276.87
475.11	276.34
475.48	275.94
475.85	275.48
476.21	275.08
476.58	274.73
476.94	274.47
477.31	274.16
477.67	273.92
478.04	273.72
478.41	273.54
478.77	273.48
479.14	273.27
479.50	273.15
479.87	273.17
480.23	273.17
480.60	273.13
480.96	273.14
481.33	273.30
481.69	273.46
482.06	273.57
482.42	273.72
482.79	273.92
483.15	274.18
483.52	274.58
483.88	274.91
484.25	275.25
484.61	275.69
484.98	276.10
485.34	276.64
485.71	277.19
486.07	277.80
486.44	278.34
486.80	279.06
487.17	279.81
487.53	280.62
487.90	281.47
488.26	282.47
488.62	283.53
488.99	284.53
489.35	285.59
489.72	286.76
490.08	288.03
490.44	289.36
490.81	290.77
491.17	292.17
491.54	293.72
491.90	295.38
492.26	297.08
492.63	298.92
492.99	300.84
493.36	302.86
493.72	305.05
494.08	307.29
494.45	309.66
494.81	312.17
495.17	314.79
495.54	317.58
495.90	320.43
496.26	323.37
496.63	326.51
496.99	329.89
497.35	333.43
497.72	337.07
498.08	340.82
498.44	344.71
498.80	348.91
499.17	353.30
499.53	357.75
499.89	362.46
500.26	367.33
500.62	372.26
500.98	377.57
501.34	383.02
501.71	388.80
502.07	394.64
502.43	400.70
502.79	406.93
503.16	413.42
503.52	420.21
503.88	427.14
504.24	434.33
504.60	441.76
504.97	449.45
505.33	457.36
505.69	465.75
506.05	474.21
506.41	482.79
506.78	491.59
507.14	500.74
507.50	510.21
507.86	519.97
508.22	529.92
508.59	539.91
508.95	550.28
509.31	560.85
509.67	571.85
510.03	582.99
510.39	594.52
510.75	606.30
511.12	618.20
511.48	630.46
511.84	642.93
512.20	655.41
512.56	668.36
512.92	681.63
513.28	695.08
513.64	708.70
514.00	722.55
514.37	736.69
514.73	751.03
515.09	765.32
515.45	779.87
515.81	794.80
516.17	810.21
516.53	825.77
516.89	841.45
517.25	857.01
517.61	872.89
517.97	888.79
518.33	904.60
518.69	920.83
519.05	937.44
519.41	954.28
519.77	971.51
520.13	988.63
520.49	1005.68
520.85	1022.73
521.21	1040.14
521.57	1058.19
521.93	1075.70
522.29	1093.94
522.65	1112.01
523.01	1130.06
523.37	1148.02
523.73	1166.06
524.09	1184.09
524.45	1202.30
524.81	1220.89
525.17	1239.71
525.53	1258.60
525.89	1277.66
526.25	1296.56
526.61	1314.99
526.97	1333.76
527.33	1352.34
527.68	1371.05
528.04	1389.65
528.40	1408.38
528.76	1427.71
529.12	1446.51
529.48	1465.81
529.84	1484.08
530.20	1503.04
530.56	1522.35
530.91	1542.10
531.27	1561.30
531.63	1580.21
531.99	1599.16
532.35	1617.64
532.71	1636.04
533.07	1654.82
533.42	1673.16
533.78	1691.78
534.14	1710.55
534.50	1728.43
534.86	1746.86
535.21	1764.55
535.57	1783.07
535.93	1801.23
536.29	1818.56
536.65	1836.22
537.00	1853.26
537.36	1871.10
537.72	1888.18
538.08	1905.26
538.44	1921.65
538.79	1938.03
539.15	1954.15
539.51	1970.47
539.87	1987.53
540.22	2003.81
540.58	2020.24
540.94	2036.19
541.29	2051.65
541.65	2066.99
542.01	2082.78
542.37	2097.75
542.72	2112.88
543.08	2127.29
543.44	2142.41
543.79	2156.18
544.15	2169.60
544.51	2184.08
544.87	2197.70
545.22	2211.07
545.58	2223.88
545.94	2236.12
546.29	2248.45
546.65	2261.01
547.01	2272.89
547.36	2284.07
547.72	2295.07
548.07	2305.29
548.43	2315.80
548.79	2326.19
549.14	2336.09
549.50	2345.75
549.86	2355.70
550.21	2365.36
550.57	2374.98
550.92	2383.78
551.28	2393.05
551.64	2402.59
551.99	2411.30
552.35	2419.55
552.70	2427.94
553.06	2436.01
553.41	2444.59
553.77	2452.84
554.13	2460.76
554.48	2469.10
554.84	2476.69
555.19	2483.89
555.55	2491.05
555.90	2497.58
556.26	2504.68
556.61	2511.31
556.97	2517.62
557.32	2523.80
557.68	2529.63
558.03	2535.72
558.39	2541.17
558.74	2547.89
559.10	2553.62
559.45	2559.05
559.81	2565.10
560.16	2570.60
560.52	2575.62
560.87	2580.79
561.23	2584.90
561.58	2589.55
561.94	2593.43
562.29	2597.21
562.64	2601.63
563.00	2605.65
563.35	2610.68
563.71	2615.19
564.06	2620.06
564.42	2624.41
564.77	2628.18
565.12	2632.15
565.48	2635.34
565.83	2638.51
566.19	2641.08
566.54	2642.90
566.89	2645.19
567.25	2647.02
567.60	2649.57
567.96	2652.62
568.31	2654.48
568.66	2656.88
569.02	2658.49
569.37	2659.78
569.72	2661.66
570.08	2662.58
570.43	2663.63
570.78	2663.94
571.14	2662.95
571.49	2661.99
571.84	2662.49
572.20	2662.15
572.55	2661.49
572.90	2660.33
573.26	2659.56
573.61	2658.10
573.96	2656.94
574.31	2654.23
574.67	2651.47
575.02	2647.92
575.37	2644.19
575.72	2640.39
576.08	2637.00
576.43	2633.61
576.78	2630.08
577.13	2626.94
577.49	2623.80
577.84	2620.24
578.19	2616.26
578.54	2612.52
578.90	2608.34
579.25	2602.23
579.60	2596.84
579.95	2591.59
580.30	2586.31
580.66	2580.57
581.01	2575.29
581.36	2569.91
581.71	2565.61
582.06	2560.83
582.42	2555.94
582.77	2550.57
583.12	2545.78
583.47	2540.64
583.82	2535.40
584.17	2529.52
584.53	2523.49
584.88	2517.35
585.23	2510.99
585.58	2504.97
585.93	2499.15
586.28	2493.70
586.63	2488.18
586.98	2482.55
587.34	2477.16
587.69	2471.62
588.04	2465.83
588.39	2459.47
588.74	2452.11
589.09	2444.90
589.44	2437.15
589.79	2430.20
590.14	2423.72
590.49	2416.05
590.84	2408.71
591.19	2401.80
591.54	2394.41
591.89	2385.93
592.25	2378.05
592.60	2369.65
592.95	2360.99
593.30	2352.28
593.65	2343.50
594.00	2335.23
594.35	2326.69
594.70	2317.33
595.05	2308.98
595.40	2300.41
595.75	2291.59
596.10	2284.46
596.45	2276.61
596.80	2269.35
597.15	2261.81
597.50	2253.63
597.85	2245.98
598.19	2238.22
598.54	2229.79
598.89	2222.01
599.24	2215.04
599.59	2207.25
599.94	2199.90
600.29	2192.20
600.64	2184.30
600.99	2175.65
601.34	2167.56
601.69	2159.30
602.04	2151.36
602.39	2142.73
602.74	2134.73
603.08	2126.82
603.43	2118.60
603.78	2109.84
604.13	2101.19
604.48	2092.52
604.83	2084.20
605.18	2075.96
605.53	2066.57
605.87	2057.01
606.22	2048.35
606.57	2038.73
606.92	2029.76
607.27	2021.20
607.62	2013.09
607.96	2004.60
608.31	1996.62
608.66	1987.51
609.01	1978.59
609.36	1969.43
609.70	1959.75
610.05	1950.01
610.40	1940.59
610.75	1930.74
611.10	1921.62
611.44	1911.45
611.79	1901.71
612.14	1891.28
612.49	1880.30
612.83	1870.10
613.18	1860.41
613.53	1850.70
613.88	1840.51
614.22	1830.56
614.57	1820.22
614.92	1810.46
615.27	1801.30
615.61	1791.22
615.96	1781.60
616.31	1772.29
616.65	1763.38
617.00	1754.13
617.35	1744.91
617.70	1735.05
618.04	1724.84
618.39	1714.90
618.74	1705.90
619.08	1696.05
619.43	1686.89
619.78	1678.60
620.12	1670.00
620.47	1660.84
620.82	1650.80
621.16	1641.81
621.51	1632.73
621.85	1623.52
622.20	1613.30
622.55	1603.22
622.89	1593.79
623.24	1584.45
623.59	1575.50
623.93	1566.40
624.28	1557.87
624.62	1548.77
624.97	1540.17
625.32	1531.98
625.66	1523.63
626.01	1515.01
626.35	1505.99
626.70	1496.68
627.04	1487.30
627.39	1477.79
627.73	1468.88
628.08	1460.60
628.43	1451.93
628.77	1443.01
629.12	1433.86
629.46	1425.14
629.81	1416.07
630.15	1407.31
630.50	1398.38
630.84	1388.65
631.19	1379.04
631.53	1369.92
631.88	1360.85
632.22	1351.60
632.57	1342.67
632.91	1333.34
633.26	1324.40
633.60	1315.43
633.95	1306.77
634.29	1298.24
634.64	1290.28
634.98	1281.44
635.32	1272.87
635.67	1264.78
636.01	1256.87
636.36	1248.81
636.70	1240.96
637.05	1233.16
637.39	1225.43
637.73	1217.67
638.08	1210.52
638.42	1203.33
638.77	1195.60
639.11	1187.73
639.45	1180.05
639.80	1172.10
640.14	1164.60
640.49	1156.78
640.83	1149.14
641.17	1141.76
641.52	1134.19
641.86	1126.40
642.20	1119.36
642.55	1111.79
642.89	1104.06
643.23	1096.16
643.58	1089.19
643.92	1081.86
644.26	1074.69
644.61	1067.42
644.95	1060.21
645.29	1052.42
645.64	1044.36
645.98	1036.76
646.32	1029.66
646.66	1022.53
647.01	1015.72
647.35	1008.86
647.69	1001.76
648.04	995.27
648.38	988.40
648.72	981.43
649.06	974.36
649.41	967.47
649.75	960.42
650.09	953.40
650.43	946.63
650.78	939.32
651.12	932.35
651.46	925.48
651.80	918.77
652.14	912.38
652.49	905.98
652.83	899.94
653.17	893.27
653.51	886.59
653.85	880.15
654.20	873.42
654.54	866.34
654.88	859.62
655.22	852.57
655.56	845.75
655.90	839.20
656.25	832.92
656.59	826.53
656.93	820.45
657.27	814.35
657.61	807.90
657.95	801.91
658.29	795.78
658.64	789.52
658.98	783.21
659.32	776.76
659.66	770.62
660.00	764.35
660.34	758.48
660.68	752.64
661.02	746.72
661.36	741.22
661.70	735.88
662.05	730.68
662.39	725.69
662.73	720.37
663.07	715.18
663.41	709.96
663.75	704.62
664.09	699.27
664.43	694.10
664.77	689.23
665.11	684.20
665.45	679.27
665.79	674.52
666.13	669.66
666.47	664.87
666.81	660.04
667.15	655.19
667.49	650.54
667.83	646.04
668.17	641.42
668.51	636.57
668.85	631.77
669.19	627.29
669.53	622.75
669.87	618.29
670.21	613.90
670.55	609.55
670.89	605.53
671.23	601.54
671.57	597.38
671.91	593.18
672.25	589.08
672.58	585.03
672.92	580.99
673.26	577.25
673.60	573.50
673.94	569.83
674.28	566.36
674.62	562.96
674.96	559.35
675.30	555.90
675.64	552.45
675.97	549.19
676.31	545.78
676.65	542.34
676.99	539.17
677.33	535.81
677.67	532.49
678.01	528.88
678.34	525.39
678.68	522.04
679.02	518.71
679.36	515.38
679.70	512.13
680.04	508.91
680.37	505.57
680.71	502.24
681.05	499.11
681.39	495.92
681.73	492.71
682.06	489.76
682.40	486.75
682.74	483.81
683.08	480.83
683.42	477.76
683.75	474.80
684.09	471.78
684.43	468.89
684.77	465.99
685.10	463.25
685.44	460.49
685.78	457.73
686.12	455.03
686.45	452.31
686.79	449.58
687.13	446.96
687.46	444.34
687.80	441.82
688.14	439.12
688.48	436.62
688.81	434.01
689.15	431.39
689.49	428.85
689.82	426.34
690.16	423.84
690.50	421.57
690.83	419.27
691.17	416.86
691.51	414.59
691.84	412.42
692.18	410.20
692.52	407.85
692.85	405.56
693.19	403.37
693.52	401.24
693.86	399.10
694.20	397.00
694.53	394.87
694.87	392.70
695.21	390.62
695.54	388.51
695.88	386.46
696.21	384.41
696.55	382.42
696.88	380.42
697.22	378.42
697.56	376.49
697.89	374.57
698.23	372.71
698.56	370.78
698.90	368.88
699.23	366.91
699.57	365.04
699.90	363.25
700.24	361.46
700.58	359.65
700.91	357.86
701.25	356.14
701.58	354.50
701.92	352.84
702.25	351.22
702.59	349.61
702.92	348.05
703.26	346.50
703.59	345.00
703.93	343.58
704.26	342.18
704.60	340.62
704.93	339.11
705.26	337.64
705.60	336.26
705.93	334.92
706.27	333.67
706.60	332.39
706.94	331.10
707.27	329.74
707.61	328.47
707.94	327.28
708.27	325.98
708.61	324.72
708.94	323.54
709.28	322.40
709.61	321.25
709.94	320.13
710.28	318.95
710.61	317.77
710.95	316.51
711.28	315.41
711.61	314.35
711.95	313.26
712.28	312.15
712.61	310.98
712.95	309.85
713.28	308.77
713.61	307.73
713.95	306.68
714.28	305.67
714.61	304.61
714.95	303.57
715.28	302.56
715.61	301.49
715.95	300.46
716.28	299.40
716.61	298.41
716.95	297.41
717.28	296.51
717.61	295.61
717.94	294.72
718.28	293.72
718.61	292.83
718.94	291.98
719.27	291.17
719.61	290.43
719.94	289.63
720.27	288.80
720.60	287.99
720.94	287.23
721.27	286.54
721.60	285.90
721.93	285.24
722.27	284.58
722.60	283.97
722.93	283.30
723.26	282.67
723.59	282.02
723.93	281.39
724.26	280.71
724.59	280.03
724.92	279.41
725.25	278.85
725.59	278.25
725.92	277.65
726.25	277.03
726.58	276.39
726.91	275.79
727.24	275.22
727.57	274.68
727.91	274.09
728.24	273.52
728.57	272.92
728.90	272.36
729.23	271.77
729.56	271.21
729.89	270.62
730.22	270.08
730.55	269.53
730.89	268.98
731.22	268.48
731.55	267.98
731.88	267.46
732.21	266.97
732.54	266.45
732.87	265.94
733.20	265.44
733.53	264.98
733.86	264.56
734.19	264.12
734.52	263.65
734.85	263.24
735.18	262.75
735.51	262.27
735.84	261.84
736.17	261.42
736.50	260.98
736.83	260.70
737.16	260.28
737.49	259.84
737.82	259.45
738.15	259.02
738.48	258.62
738.81	258.23
739.14	257.81
739.47	257.38
739.80	257.00
740.13	256.64
740.46	256.29
740.79	255.89
741.12	255.51
741.45	255.13
741.78	254.73
742.11	254.39
742.44	254.02
742.77	253.67
743.10	253.26
743.43	252.89
743.75	252.44
744.08	252.22
744.41	251.88
744.74	251.55
745.07	251.22
745.40	250.93
745.73	250.64
746.06	250.32
746.39	250.06
746.71	249.72
747.04	249.39
747.37	249.05
747.70	248.76
748.03	248.44
748.36	248.18
748.68	247.90
749.01	247.58
749.34	247.28
749.67	246.98
750.00	246.75
750.33	246.55
750.65	246.31
750.98	245.93
751.31	245.66
751.64	245.37
751.97	245.17
752.29	244.90
752.62	244.57
752.95	244.32
753.28	244.03
753.60	243.80
753.93	243.62
754.26	243.42
754.59	243.14
754.91	242.89
755.24	242.66
755.57	242.42
755.90	242.20
756.22	242.04
756.55	241.78
756.88	241.56
757.20	241.28
757.53	241.05
757.86	240.82
758.19	240.66
758.51	240.48
758.84	240.22
759.17	240.01
759.49	239.86
759.82	239.73
760.15	239.56
760.47	239.41
760.80	239.20
761.13	239.02
761.45	238.87
761.78	238.71
762.11	238.53
762.43	238.36
762.76	238.23
763.08	238.08
763.41	237.94
763.74	237.79
764.06	237.65
764.39	237.50
764.71	237.37
765.04	237.18
765.37	237.04
765.69	236.93
766.02	236.80
766.34	236.63
766.67	236.44
767.00	236.30
767.32	236.20
767.65	236.15
767.97	236.00
768.30	235.89
768.62	235.76
768.95	235.63
769.27	235.50
769.60	235.38
769.92	235.23
770.25	235.13
770.57	235.00
770.90	234.87
771.22	234.76
771.55	234.65
771.87	234.56
772.20	234.43
772.52	234.35
772.85	234.35
773.17	234.25
773.50	234.15
773.82	234.05
774.15	233.89
774.47	233.72
774.80	233.55
775.12	233.42
775.45	233.31
775.77	233.20
776.09	233.10
776.42	232.99
776.74	232.94
777.07	232.81
777.39	232.72
777.72	232.64
778.04	232.57
778.36	232.47
778.69	232.38
779.01	232.30
779.33	232.15
779.66	231.96
779.98	231.86
780.31	231.76
780.63	231.73
780.95	231.66
781.28	231.58
781.60	231.56
781.92	231.47
782.25	231.42
782.57	231.35
782.89	231.28
783.22	231.18
783.54	231.07
783.86	231.01
784.19	230.94
784.51	230.89
784.83	230.81
785.16	230.73
785.48	230.66
785.80	230.61
786.12	230.57
786.45	230.50
786.77	230.47
787.09	230.41
787.42	230.29
787.74	230.22
788.06	230.16
788.38	230.07
788.71	230.01
789.03	229.92
789.35	229.88
789.67	229.83
789.99	229.81
790.32	229.74
790.64	229.72
790.96	229.77
791.28	229.66
791.61	229.58
791.93	229.57
792.25	229.51
792.57	229.50
792.89	229.43
793.21	229.37
793.54	229.32
793.86	229.26
794.18	229.23
794.50	229.19
794.82	229.15
795.14	229.13
795.47	229.13
795.79	229.12
796.11	229.03
796.43	228.98
796.75	228.93
797.07	228.91
797.39	228.84
797.71	228.68
798.04	228.66
798.36	228.64
798.68	228.59
799.00	228.56
799.32	228.49
799.64	228.45
799.96	228.42
800.28	228.39
800.60	228.36
800.92	228.35
801.24	228.29
801.56	228.28
801.89	228.25
802.21	228.19
802.53	228.14
802.85	228.18
803.17	228.21
803.49	228.19
803.81	228.15
804.13	228.14
804.45	228.11
804.77	228.07
805.09	228.05
805.41	228.01
805.73	227.93
806.05	227.91
806.37	227.87
806.69	227.82
807.01	227.79
807.33	227.77
807.65	227.71
807.97	227.79
808.28	227.74
808.60	227.74
808.92	227.75
809.24	227.79
809.56	227.70
809.88	227.63
810.20	227.59
810.52	227.58
810.84	227.53
811.16	227.53
811.48	227.50
811.80	227.51
812.12	227.50
812.43	227.52
812.75	227.49
813.07	227.46
813.39	227.47
813.71	227.48
814.03	227.45
814.35	227.44
814.67	227.34
814.98	227.29
815.30	227.23
815.62	227.18
815.94	227.10
816.26	227.13
816.58	227.07
816.89	227.09
817.21	227.04
817.53	227.03
817.85	227.01
818.17	227.04
818.48	227.00
818.80	227.02
819.12	226.98
819.44	226.98
819.76	226.96
820.07	226.97
820.39	226.90
820.71	226.91
821.03	226.89
821.34	226.87
821.66	226.89
821.98	226.88
822.30	226.84
822.61	226.85
822.93	226.79
823.25	226.80
823.57	226.73
823.88	226.73
824.20	226.72
824.52	226.71
824.83	226.65
825.15	226.59
825.47	226.53
825.79	226.52
826.10	226.45
826.42	226.44
826.74	226.43
827.05	226.40
827.37	226.35
827.69	226.34
828.00	226.30
828.32	226.26
828.64	226.25
828.95	226.28
829.27	226.24
829.58	226.23
829.90	226.21
830.22	226.23
830.53	226.18
830.85	226.14
831.17	226.09
831.48	226.09
831.80	226.08
832.11	226.07
832.43	226.06
832.75	226.05
833.06	226.11
833.38	226.05
833.69	226.05
834.01	226.02
834.32	226.01
834.64	226.00
834.96	225.97
835.27	225.96
835.59	225.94
835.90	225.90
836.22	225.88
836.53	225.83
836.85	225.79
837.16	225.88
837.48	225.85
837.79	225.91
838.11	225.89
838.42	225.91
838.74	225.88
839.05	225.84
839.37	225.83
839.68	225.75
840.00	225.76
840.31	225.75
840.63	225.77
840.94	225.77
841.26	225.77
841.57	225.79
841.88	225.78
842.20	225.75
842.51	225.78
842.83	225.78
843.14	225.90
843.46	225.91
843.77	225.87
844.08	225.92
844.40	225.86
844.71	225.90
845.03	225.84
845.34	225.86
845.65	225.86
845.97	225.88
846.28	225.89
846.60	225.89
846.91	225.87
847.22	225.86
847.54	225.89
847.85	225.88
848.16	225.86
848.48	225.89
848.79	225.94
849.10	225.92
849.42	225.92
849.73	225.83
850.04	225.83
850.36	225.77
850.67	225.78
850.98	225.79
851.30	225.79
851.61	225.84
851.92	225.82
852.23	225.90
852.55	225.89
852.86	225.90
853.17	225.92
853.49	225.98
853.80	225.99
854.11	225.97
854.42	226.00
854.74	226.00
855.05	225.97
855.36	225.95
855.67	225.94
855.99	225.98
856.30	226.12
856.61	226.10
856.92	226.14
857.23	226.11
857.55	226.11
857.86	226.09
858.17	226.10
858.48	226.10
858.79	226.05
859.11	226.07
859.42	226.05
859.73	226.03
860.04	226.02
860.35	226.00
860.66	225.98
860.98	225.97
861.29	225.99
861.60	226.01
861.91	225.99
862.22	225.99
862.53	225.96
862.84	225.83
863.16	225.85
863.47	225.78
863.78	225.77
864.09	225.76
864.40	225.75
864.71	225.74
865.02	225.76
865.33	225.74
865.64	225.73
865.95	225.72
866.27	225.79
866.58	225.76
866.89	225.75
867.20	225.75
867.51	225.72
867.82	225.67
868.13	225.67
868.44	225.67
868.75	225.66
869.06	225.67
869.37	225.64
869.68	225.61
869.99	225.63
870.30	225.61
870.61	225.61
870.92	225.57
871.23	225.54
871.54	225.50
871.85	225.50
872.16	225.49
872.47	225.49
872.78	225.43
873.09	225.42
873.40	225.38
873.71	225.35
874.02	225.33
874.33	225.34
874.64	225.32
874.95	225.31
875.26	225.30
875.56	225.26
875.87	225.26
876.18	225.28
876.49	225.37
876.80	225.36
877.11	225.37
877.42	225.37
877.73	225.35
878.04	225.34
878.35	225.35
878.66	225.33
878.96	225.36
879.27	225.34
879.58	225.32
879.89	225.33
880.20	225.38
880.51	225.37
880.82	225.34
881.12	225.33
881.43	225.32
881.74	225.30
882.05	225.32
882.36	225.33
882.67	225.29
882.97	225.21
883.28	225.23
883.59	225.20
883.90	225.22
884.21	225.26
884.51	225.29
884.82	225.28
885.13	225.28
885.44	225.22
885.74	225.24
886.05	225.25
886.36	225.26
886.67	225.21
886.98	225.28
887.28	225.31
887.59	225.31
887.90	225.30
888.20	225.30
888.51	225.32
888.82	225.31
889.13	225.33
889.43	225.38
889.74	225.40
890.05	225.43
890.35	225.42
890.66	225.39
890.97	225.36
891.28	225.37
891.58	225.37
891.89	225.41
892.20	225.38
892.50	225.38
892.81	225.38
893.12	225.36
893.42	225.34
893.73	225.30
894.04	225.31
894.34	225.33
894.65	225.31
894.95	225.28
895.26	225.28
895.57	225.30
895.87	225.22
896.18	225.23
896.48	225.23
896.79	225.22
897.10	225.25
897.40	225.26
897.71	225.24
898.01	225.24
898.32	225.24
898.63	225.25
898.93	225.24
899.24	225.22
899.54	225.25
899.85	225.21
900.15	225.22
900.46	225.24
900.76	225.23
901.07	225.27
901.38	225.26
901.68	225.27
901.99	225.25
902.29	225.28
902.60	225.25
902.90	225.21
903.21	225.21
903.51	225.17
903.82	225.17
904.12	225.20
904.43	225.19
904.73	225.20
905.03	225.17
905.34	225.27
905.64	225.29
905.95	225.28
906.25	225.28
906.56	225.31
906.86	225.26
907.17	225.27
907.47	225.22
907.77	225.18
908.08	225.14
908.38	225.11
908.69	225.09
908.99	225.09
909.30	225.08
909.60	225.08
909.90	225.09
910.21	225.03
910.51	224.98
910.81	224.95
911.12	224.94
911.42	224.94
911.73	224.84
912.03	224.85
912.33	224.86
912.64	224.84
912.94	224.82
913.24	224.82
913.55	224.82
913.85	224.82
914.15	224.87
914.46	224.89
914.76	224.88
915.06	224.87
915.37	224.86
915.67	224.87
915.97	224.87
916.27	224.83
916.58	224.85
916.88	224.88
917.18	224.87
917.49	224.93
917.79	224.94
918.09	224.94
918.39	224.96
918.70	224.96
919.00	225.00
919.30	225.04
919.60	225.02
919.91	225.01
920.21	225.06
920.51	225.05
920.81	225.06
921.12	225.08
921.42	225.09
921.72	225.12
922.02	225.10
922.32	225.11
922.63	225.15
922.93	225.22
923.23	225.21
923.53	225.21
923.83	225.14
924.13	225.12
924.44	225.13
924.74	225.14
925.04	225.16
925.34	225.13
925.64	225.11
925.94	225.14
926.24	225.19
926.55	225.17
926.85	225.16
927.15	225.20
927.45	225.23
927.75	225.25
928.05	225.22
928.35	225.25
928.65	225.28
928.95	225.29
929.26	225.28
929.56	225.32
929.86	225.35
930.16	225.36
930.46	225.40
930.76	225.42
931.06	225.41
931.36	225.41
931.66	225.45
931.96	225.46
932.26	225.46
932.56	225.42
932.86	225.42
933.16	225.47
933.46	225.43
933.76	225.40
934.06	225.43
934.36	225.50
934.66	225.51
934.96	225.48
935.26	225.47
935.56	225.48
935.86	225.46
936.16	225.44
936.46	225.41
936.76	225.39
937.06	225.37
937.36	225.34
937.66	225.31
937.96	225.30
938.26	225.28
938.56	225.29
938.86	225.30
939.16	225.33
939.46	225.31
939.76	225.30
940.06	225.30
940.35	225.23
940.65	225.18
940.95	225.16
941.25	225.17
941.55	225.16
941.85	225.13
942.15	225.14
942.45	225.18
942.75	225.22
943.04	225.23
943.34	225.24
943.64	225.26
943.94	225.27
944.24	225.25
944.54	225.28
944.84	225.25
945.13	225.20
945.43	225.16
945.73	225.16
946.03	225.12
946.33	225.10
946.62	225.09
946.92	225.07
947.22	225.07
947.52	225.06
947.82	225.08
948.11	225.08
948.41	225.04
948.71	224.99
949.01	224.97
949.31	224.94
949.60	224.93
949.90	224.92
950.20	224.91
950.50	224.89
950.79	224.86
951.09	224.85
951.39	224.85
951.69	224.83
951.98	224.82
952.28	224.85
952.58	224.83
952.87	224.82
953.17	224.82
953.47	224.81
953.76	224.78
954.06	224.74
954.36	224.69
954.66	224.65
954.95	224.66
955.25	224.65
955.55	224.67
955.84	224.63
956.14	224.65
956.44	224.63
956.73	224.61
957.03	224.62
957.32	224.62
957.62	224.63
957.92	224.63
958.21	224.59
958.51	224.67
958.81	224.66
959.10	224.68
959.40	224.71
959.69	224.71
959.99	224.74
960.29	224.72
960.58	224.72
960.88	224.77
961.17	224.77
961.47	224.78
961.76	224.73
962.06	224.73
962.36	224.66
962.65	224.64
962.95	224.64
963.24	224.62
963.54	224.61
963.83	224.63
964.13	224.64
964.42	224.66
964.72	224.60
965.01	224.66
965.31	224.66
965.60	224.60
965.90	224.68
966.19	224.66
966.49	224.67
966.78	224.70
967.08	224.70
967.37	224.73
967.67	224.71
967.96	224.77
968.26	224.79
968.55	224.79
968.85	224.85
969.14	224.87
969.43	224.86
969.73	224.89
970.02	224.90
970.32	224.91
970.61	224.91
970.91	224.86
971.20	224.84
971.49	224.85
971.79	224.90
972.08	224.82
972.38	224.87
972.67	224.87
972.96	224.89
973.26	224.85
973.55	224.87
973.85	224.86
974.14	224.85
974.43	224.85
974.73	224.88
975.02	224.87
975.31	224.91
975.61	224.89
975.90	224.89
976.19	224.89
976.49	224.89
976.78	224.87
977.07	224.87
977.37	224.86
977.66	224.86
977.95	224.84
978.24	224.88
978.54	224.87
978.83	224.87
979.12	224.86
979.42	224.88
979.71	224.87
980.00	224.88
980.29	224.87
980.59	224.88
980.88	224.91
981.17	224.88
981.46	224.84
981.76	224.87
982.05	224.89
982.34	224.87
982.63	224.87
982.93	224.87
983.22	224.92
983.51	224.91
983.80	224.94
984.09	224.96
984.39	224.90
984.68	224.87
984.97	224.88
985.26	224.87
985.55	224.86
985.85	224.80
986.14	224.82
986.43	224.81
986.72	224.80
987.01	224.75
987.30	224.77
987.59	224.78
987.89	224.76
988.18	224.72
988.47	224.72
988.76	224.74
989.05	224.75
989.34	224.74
989.63	224.75
989.92	224.73
990.22	224.72
990.51	224.76
990.80	224.74
991.09	224.74
991.38	224.75
991.67	224.76
991.96	224.76
992.25	224.73
992.54	224.72
992.83	224.71
993.12	224.69
993.41	224.68
993.70	224.74
993.99	224.75
994.28	224.76
994.58	224.80
994.87	224.79
995.16	224.80
995.45	224.77
995.74	224.76
996.03	224.77
996.32	224.79
996.61	224.80
996.90	224.81
997.19	224.80
997.48	224.80
997.77	224.78
998.06	224.78
998.34	224.83
998.63	224.82
998.92	224.84
999.21	224.88
999.50	224.89
999.79	224.85
1000.08	224.86
1000.37	224.86
1000.66	224.83
1000.95	224.82
1001.24	224.86
1001.53	224.90
1001.82	224.92
1002.11	224.91
1002.40	224.91
1002.68	224.94
1002.97	225.04
1003.26	225.02
1003.55	225.01
1003.84	225.03
1004.13	225.10
1004.42	225.10
1004.71	225.10
1004.99	225.13
1005.28	225.13
1005.57	225.12
1005.86	225.09
1006.15	225.09
1006.44	225.12
1006.72	225.15
1007.01	225.16
1007.30	225.15
1007.59	225.16
1007.88	225.16
1008.17	225.17
1008.45	225.16
1008.74	225.11
1009.03	225.09
1009.32	225.12
1009.60	225.13
1009.89	225.11
1010.18	225.07
1010.47	225.10
1010.76	225.12
1011.04	225.11
1011.33	225.13
1011.62	225.13
1011.91	225.15
1012.19	225.15
1012.48	225.14
1012.77	225.13
1013.05	225.19
1013.34	225.14
1013.63	225.13
1013.92	225.18
1014.20	225.19
1014.49	225.18
1014.78	225.19
1015.06	225.14
1015.35	225.18
1015.64	225.23
1015.92	225.26
1016.21	225.28
1016.50	225.26
1016.78	225.28
1017.07	225.28
1017.36	225.26
1017.64	225.24
1017.93	225.25
1018.22	225.27
1018.50	225.24
1018.79	225.24
1019.08	225.18
1019.36	225.19
1019.65	225.15
1019.93	225.12
1020.22	225.12
1020.51	225.18
1020.79	225.16
1021.08	225.24
1021.36	224.60
1021.65	225.30
1021.94	225.06
1022.22	224.62
1022.51	224.67
1022.79	225.40
1023.08	225.38
1023.36	226.09
1023.65	224.89
>>>>>End Processed Spectral Data<<<<<
