SpectraSuite Data File
++++++++++++++++++++++++++++++++++++
Date: Fri Feb 01 16:37:34 EST 2013
User: group
Dark Spectrum Present: No
Reference Spectrum Present: No
Number of Sampled Component Spectra: 1
Spectrometers: USB2E7196
Integration Time (usec): 35000 (USB2E7196)
Spectra Averaged: 100 (USB2E7196)
Boxcar Smoothing: 10 (USB2E7196)
Correct for Electrical Dark: No (USB2E7196)
Strobe/Lamp Enabled: No (USB2E7196)
Correct for Detector Non-linearity: No (USB2E7196)
Correct for Stray Light: No (USB2E7196)
Number of Pixels in Processed Spectrum: 2048
>>>>>Begin Processed Spectral Data<<<<<
339.09	0.00
339.48	213.90
339.86	215.30
340.24	217.11
340.63	218.57
341.01	220.88
341.39	221.30
341.78	222.35
342.16	224.23
342.54	223.67
342.93	212.44
343.31	223.18
343.69	223.73
344.07	224.21
344.46	224.61
344.84	224.96
345.22	225.21
345.60	225.42
345.99	225.61
346.37	225.68
346.75	225.78
347.13	225.83
347.52	225.88
347.90	225.95
348.28	225.93
348.66	225.92
349.05	225.88
349.43	225.88
349.81	225.88
350.19	225.90
350.57	225.92
350.96	225.99
351.34	226.07
351.72	226.08
352.10	226.12
352.48	226.18
352.87	226.21
353.25	226.25
353.63	226.32
354.01	226.35
354.39	226.42
354.77	226.48
355.15	226.59
355.54	226.63
355.92	226.66
356.30	226.71
356.68	226.86
357.06	226.95
357.44	227.01
357.82	227.12
358.20	227.20
358.58	227.28
358.97	227.36
359.35	227.45
359.73	227.58
360.11	227.66
360.49	227.71
360.87	227.75
361.25	227.79
361.63	227.84
362.01	227.88
362.39	227.92
362.77	227.98
363.15	227.96
363.53	228.00
363.91	228.05
364.29	228.12
364.67	228.06
365.05	228.10
365.43	228.10
365.81	228.07
366.19	228.11
366.57	228.18
366.95	228.15
367.33	228.10
367.71	228.07
368.09	228.05
368.47	228.03
368.85	228.02
369.23	228.05
369.61	228.02
369.99	228.07
370.37	228.05
370.75	228.08
371.13	228.04
371.51	228.01
371.89	227.98
372.27	227.93
372.65	227.91
373.03	227.84
373.41	227.82
373.78	227.82
374.16	227.77
374.54	227.64
374.92	227.61
375.30	227.56
375.68	227.52
376.06	227.50
376.44	227.44
376.82	227.41
377.19	227.35
377.57	227.27
377.95	227.17
378.33	227.11
378.71	226.97
379.09	226.95
379.47	226.87
379.84	226.79
380.22	226.74
380.60	226.65
380.98	226.58
381.36	226.52
381.73	226.43
382.11	226.38
382.49	226.35
382.87	226.25
383.25	226.22
383.62	226.25
384.00	226.15
384.38	226.14
384.76	226.11
385.13	226.10
385.51	226.06
385.89	225.99
386.27	225.92
386.64	225.88
387.02	225.81
387.40	225.78
387.78	225.73
388.15	225.68
388.53	225.64
388.91	225.60
389.29	225.58
389.66	225.53
390.04	225.48
390.42	225.46
390.79	225.47
391.17	225.45
391.55	225.33
391.92	225.33
392.30	225.30
392.68	225.26
393.05	225.23
393.43	225.21
393.81	225.21
394.18	225.20
394.56	225.21
394.94	225.26
395.31	225.27
395.69	225.32
396.06	225.33
396.44	225.36
396.82	225.37
397.19	225.41
397.57	225.45
397.95	225.49
398.32	225.50
398.70	225.56
399.07	225.60
399.45	225.61
399.82	225.68
400.20	225.72
400.58	225.79
400.95	225.78
401.33	225.85
401.70	226.01
402.08	226.15
402.45	226.24
402.83	226.33
403.20	226.44
403.58	226.51
403.95	226.64
404.33	226.80
404.71	226.94
405.08	227.13
405.46	227.26
405.83	227.39
406.21	227.54
406.58	227.67
406.96	227.81
407.33	228.00
407.70	228.20
408.08	228.48
408.45	228.69
408.83	228.96
409.20	229.19
409.58	229.31
409.95	229.55
410.33	229.82
410.70	230.05
411.08	230.34
411.45	230.67
411.82	230.99
412.20	231.35
412.57	231.78
412.95	232.05
413.32	232.44
413.69	232.86
414.07	233.25
414.44	233.72
414.82	234.21
415.19	234.77
415.56	235.33
415.94	235.86
416.31	236.50
416.68	237.12
417.06	237.86
417.43	238.58
417.81	239.36
418.18	240.12
418.55	240.98
418.93	241.88
419.30	242.80
419.67	243.73
420.04	244.68
420.42	245.63
420.79	246.83
421.16	248.00
421.54	249.19
421.91	250.45
422.28	251.70
422.66	253.08
423.03	254.41
423.40	255.71
423.77	257.08
424.15	258.54
424.52	260.03
424.89	261.60
425.26	263.14
425.64	264.60
426.01	266.23
426.38	267.89
426.75	269.51
427.13	271.22
427.50	272.99
427.87	274.85
428.24	276.75
428.61	278.47
428.99	280.42
429.36	282.52
429.73	284.56
430.10	286.57
430.47	288.58
430.85	290.65
431.22	292.86
431.59	295.26
431.96	297.46
432.33	299.94
432.70	302.31
433.08	305.13
433.45	307.74
433.82	310.30
434.19	313.17
434.56	315.96
434.93	318.58
435.30	321.17
435.68	324.00
436.05	326.80
436.42	329.57
436.79	332.07
437.16	334.72
437.53	337.53
437.90	340.35
438.27	343.12
438.64	345.93
439.01	348.53
439.38	350.76
439.75	352.89
440.13	355.38
440.50	357.69
440.87	359.48
441.24	361.38
441.61	363.51
441.98	364.96
442.35	366.75
442.72	368.61
443.09	370.40
443.46	371.43
443.83	372.01
444.20	372.50
444.57	373.27
444.94	373.57
445.31	373.87
445.68	374.19
446.05	374.25
446.42	373.83
446.79	373.39
447.16	372.95
447.53	372.67
447.90	371.51
448.27	370.38
448.64	368.85
449.01	367.69
449.37	365.77
449.74	363.91
450.11	361.66
450.48	359.20
450.85	356.73
451.22	354.58
451.59	352.58
451.96	350.69
452.33	348.15
452.70	345.84
453.07	343.06
453.43	340.17
453.80	337.42
454.17	334.79
454.54	332.25
454.91	329.56
455.28	326.91
455.65	324.39
456.02	321.98
456.38	319.85
456.75	317.25
457.12	315.00
457.49	312.80
457.86	310.65
458.23	308.81
458.59	306.77
458.96	304.71
459.33	302.85
459.70	301.01
460.07	299.55
460.43	297.82
460.80	296.23
461.17	294.81
461.54	293.31
461.91	291.93
462.27	290.56
462.64	289.31
463.01	287.94
463.38	286.71
463.74	285.31
464.11	284.12
464.48	283.13
464.85	282.03
465.21	281.18
465.58	280.31
465.95	279.23
466.32	278.35
466.68	277.48
467.05	276.59
467.42	275.71
467.78	274.77
468.15	273.91
468.52	273.23
468.88	272.39
469.25	271.64
469.62	271.03
469.98	270.35
470.35	269.73
470.72	269.14
471.08	268.46
471.45	267.99
471.82	267.46
472.18	266.85
472.55	266.41
472.92	265.87
473.28	265.36
473.65	264.91
474.02	264.48
474.38	264.11
474.75	263.82
475.11	263.45
475.48	263.18
475.85	262.94
476.21	262.70
476.58	262.50
476.94	262.38
477.31	262.18
477.67	262.04
478.04	261.90
478.41	261.87
478.77	261.95
479.14	261.86
479.50	261.86
479.87	261.92
480.23	262.04
480.60	262.10
480.96	262.25
481.33	262.49
481.69	262.67
482.06	262.84
482.42	263.04
482.79	263.32
483.15	263.66
483.52	264.06
483.88	264.45
484.25	264.88
484.61	265.31
484.98	265.78
485.34	266.36
485.71	266.97
486.07	267.59
486.44	268.16
486.80	268.86
487.17	269.60
487.53	270.43
487.90	271.26
488.26	272.18
488.62	273.16
488.99	274.13
489.35	275.18
489.72	276.37
490.08	277.58
490.44	278.81
490.81	280.16
491.17	281.52
491.54	283.04
491.90	284.56
492.26	286.18
492.63	287.92
492.99	289.68
493.36	291.55
493.72	293.59
494.08	295.69
494.45	297.93
494.81	300.32
495.17	302.78
495.54	305.39
495.90	308.11
496.26	310.92
496.63	313.91
496.99	317.03
497.35	320.27
497.72	323.70
498.08	327.26
498.44	330.92
498.80	334.86
499.17	338.87
499.53	343.12
499.89	347.55
500.26	352.07
500.62	356.74
500.98	361.75
501.34	366.85
501.71	372.14
502.07	377.63
502.43	383.26
502.79	389.06
503.16	395.08
503.52	401.34
503.88	407.76
504.24	414.39
504.60	421.26
504.97	428.36
505.33	435.65
505.69	443.31
506.05	451.06
506.41	458.92
506.78	467.09
507.14	475.47
507.50	484.11
507.86	493.11
508.22	502.36
508.59	511.56
508.95	521.09
509.31	530.96
509.67	541.08
510.03	551.41
510.39	561.95
510.75	572.80
511.12	583.77
511.48	595.06
511.84	606.48
512.20	617.99
512.56	629.92
512.92	642.09
513.28	654.41
513.64	666.89
514.00	679.59
514.37	692.54
514.73	705.57
515.09	718.57
515.45	731.77
515.81	745.31
516.17	759.13
516.53	773.22
516.89	787.33
517.25	801.39
517.61	815.75
517.97	830.25
518.33	844.61
518.69	859.31
519.05	874.19
519.41	889.31
519.77	904.74
520.13	920.09
520.49	935.32
520.85	950.66
521.21	966.22
521.57	982.37
521.93	998.11
522.29	1014.40
522.65	1030.61
523.01	1046.77
523.37	1062.75
523.73	1078.97
524.09	1095.01
524.45	1111.28
524.81	1127.92
525.17	1144.52
525.53	1161.18
525.89	1177.85
526.25	1194.67
526.61	1210.95
526.97	1227.64
527.33	1244.09
527.68	1260.61
528.04	1277.15
528.40	1293.62
528.76	1310.66
529.12	1327.20
529.48	1343.95
529.84	1359.76
530.20	1376.23
530.56	1393.08
530.91	1410.22
531.27	1426.82
531.63	1443.07
531.99	1459.46
532.35	1475.24
532.71	1491.12
533.07	1507.35
533.42	1523.34
533.78	1539.29
534.14	1555.44
534.50	1570.52
534.86	1586.22
535.21	1601.28
535.57	1616.94
535.93	1632.25
536.29	1646.80
536.65	1661.70
537.00	1676.23
537.36	1691.53
537.72	1705.92
538.08	1720.39
538.44	1734.11
538.79	1747.81
539.15	1761.31
539.51	1774.89
539.87	1789.03
540.22	1802.48
540.58	1815.92
540.94	1828.84
541.29	1841.31
541.65	1853.76
542.01	1866.91
542.37	1879.10
542.72	1891.45
543.08	1903.19
543.44	1915.50
543.79	1926.80
544.15	1937.50
544.51	1949.02
544.87	1959.80
545.22	1970.59
545.58	1980.74
545.94	1990.51
546.29	2000.45
546.65	2010.32
547.01	2019.55
547.36	2028.23
547.72	2036.73
548.07	2044.85
548.43	2053.07
548.79	2061.10
549.14	2068.88
549.50	2076.15
549.86	2083.74
550.21	2090.90
550.57	2098.03
550.92	2104.59
551.28	2111.57
551.64	2118.71
551.99	2125.08
552.35	2131.15
552.70	2137.36
553.06	2143.21
553.41	2149.40
553.77	2155.22
554.13	2161.21
554.48	2167.24
554.84	2172.83
555.19	2178.02
555.55	2183.08
555.90	2187.56
556.26	2192.48
556.61	2197.06
556.97	2201.52
557.32	2205.55
557.68	2209.78
558.03	2213.99
558.39	2217.67
558.74	2222.18
559.10	2225.97
559.45	2229.60
559.81	2233.80
560.16	2237.49
560.52	2240.73
560.87	2244.25
561.23	2246.84
561.58	2249.72
561.94	2252.19
562.29	2254.51
562.64	2257.36
563.00	2259.84
563.35	2263.31
563.71	2266.45
564.06	2269.59
564.42	2272.34
564.77	2275.12
565.12	2277.55
565.48	2279.49
565.83	2281.51
566.19	2282.93
566.54	2283.83
566.89	2285.18
567.25	2286.02
567.60	2287.31
567.96	2289.08
568.31	2289.88
568.66	2291.17
569.02	2291.94
569.37	2292.49
569.72	2293.54
570.08	2293.85
570.43	2294.05
570.78	2293.56
571.14	2292.09
571.49	2290.74
571.84	2290.38
572.20	2289.24
572.55	2288.02
572.90	2286.42
573.26	2285.07
573.61	2283.33
573.96	2281.83
574.31	2278.87
574.67	2276.07
575.02	2272.63
575.37	2269.13
575.72	2265.52
576.08	2262.04
576.43	2258.52
576.78	2254.98
577.13	2251.49
577.49	2248.19
577.84	2244.86
578.19	2241.19
578.54	2237.67
578.90	2233.65
579.25	2228.18
579.60	2223.30
579.95	2218.42
580.30	2213.61
580.66	2208.39
581.01	2203.54
581.36	2198.69
581.71	2194.75
582.06	2190.34
582.42	2185.98
582.77	2180.95
583.12	2176.46
583.47	2172.06
583.82	2167.43
584.17	2162.26
584.53	2156.88
584.88	2151.31
585.23	2145.64
585.58	2140.22
585.93	2134.75
586.28	2129.96
586.63	2125.03
586.98	2119.96
587.34	2115.36
587.69	2110.54
588.04	2105.52
588.39	2099.95
588.74	2093.39
589.09	2087.18
589.44	2080.50
589.79	2074.28
590.14	2068.63
590.49	2062.02
590.84	2055.66
591.19	2049.57
591.54	2043.17
591.89	2036.03
592.25	2029.40
592.60	2022.17
592.95	2014.70
593.30	2007.52
593.65	1999.85
594.00	1992.82
594.35	1985.68
594.70	1977.55
595.05	1970.41
595.40	1963.14
595.75	1955.77
596.10	1949.71
596.45	1943.03
596.80	1936.84
597.15	1930.44
597.50	1923.62
597.85	1917.12
598.19	1910.61
598.54	1903.76
598.89	1897.22
599.24	1891.35
599.59	1884.83
599.94	1878.56
600.29	1872.22
600.64	1865.62
600.99	1858.34
601.34	1851.60
601.69	1844.55
602.04	1837.84
602.39	1830.52
602.74	1823.78
603.08	1817.11
603.43	1810.40
603.78	1803.12
604.13	1795.93
604.48	1788.77
604.83	1781.86
605.18	1775.36
605.53	1767.35
605.87	1759.31
606.22	1751.93
606.57	1743.86
606.92	1736.45
607.27	1729.30
607.62	1722.47
607.96	1715.23
608.31	1708.90
608.66	1701.33
609.01	1694.04
609.36	1686.66
609.70	1678.66
610.05	1670.69
610.40	1663.03
610.75	1654.62
611.10	1647.00
611.44	1638.51
611.79	1630.45
612.14	1621.82
612.49	1612.54
612.83	1604.12
613.18	1595.98
613.53	1587.91
613.88	1579.47
614.22	1571.27
614.57	1562.72
614.92	1554.72
615.27	1547.35
615.61	1538.94
615.96	1531.00
616.31	1523.21
616.65	1515.77
617.00	1508.26
617.35	1500.43
617.70	1492.17
618.04	1483.83
618.39	1475.45
618.74	1468.00
619.08	1459.76
619.43	1452.08
619.78	1445.01
620.12	1437.89
620.47	1430.36
620.82	1422.13
621.16	1414.78
621.51	1407.05
621.85	1399.37
622.20	1390.95
622.55	1382.51
622.89	1374.59
623.24	1366.97
623.59	1359.57
623.93	1352.03
624.28	1344.78
624.62	1337.38
624.97	1330.17
625.32	1323.31
625.66	1316.38
626.01	1309.17
626.35	1301.78
626.70	1294.06
627.04	1286.45
627.39	1278.76
627.73	1271.29
628.08	1264.50
628.43	1257.23
628.77	1249.92
629.12	1242.36
629.46	1235.13
629.81	1227.58
630.15	1220.40
630.50	1212.95
630.84	1204.79
631.19	1196.70
631.53	1189.17
631.88	1181.57
632.22	1173.94
632.57	1166.58
632.91	1159.11
633.26	1151.71
633.60	1144.14
633.95	1137.05
634.29	1129.88
634.64	1123.05
634.98	1115.88
635.32	1108.74
635.67	1102.07
636.01	1095.36
636.36	1088.63
636.70	1082.06
637.05	1075.52
637.39	1069.07
637.73	1062.59
638.08	1056.81
638.42	1050.89
638.77	1044.41
639.11	1037.84
639.45	1031.42
639.80	1024.87
640.14	1018.48
640.49	1012.00
640.83	1005.86
641.17	999.70
641.52	993.47
641.86	987.02
642.20	981.14
642.55	974.74
642.89	968.37
643.23	961.88
643.58	956.14
643.92	950.03
644.26	944.07
644.61	937.98
644.95	931.98
645.29	925.44
645.64	918.82
645.98	912.49
646.32	906.57
646.66	900.55
647.01	894.77
647.35	889.04
647.69	883.19
648.04	877.64
648.38	871.84
648.72	865.89
649.06	859.85
649.41	853.84
649.75	847.97
650.09	842.04
650.43	836.29
650.78	830.14
651.12	824.10
651.46	818.31
651.80	812.66
652.14	807.29
652.49	801.91
652.83	796.72
653.17	791.17
653.51	785.48
653.85	779.99
654.20	774.41
654.54	768.47
654.88	762.68
655.22	756.70
655.56	750.94
655.90	745.44
656.25	740.32
656.59	734.95
656.93	729.82
657.27	724.67
657.61	719.14
657.95	714.03
658.29	708.95
658.64	703.72
658.98	698.37
659.32	692.81
659.66	687.55
660.00	682.28
660.34	677.31
660.68	672.41
661.02	667.46
661.36	662.69
661.70	658.15
662.05	653.82
662.39	649.61
662.73	645.13
663.07	640.75
663.41	636.27
663.75	631.86
664.09	627.29
664.43	622.88
664.77	618.86
665.11	614.56
665.45	610.40
665.79	606.28
666.13	602.17
666.47	598.07
666.81	593.93
667.15	589.76
667.49	585.79
667.83	581.97
668.17	577.98
668.51	573.94
668.85	569.88
669.19	565.91
669.53	562.03
669.87	558.22
670.21	554.48
670.55	550.76
670.89	547.26
671.23	543.80
671.57	540.26
671.91	536.71
672.25	533.30
672.58	529.79
672.92	526.38
673.26	523.17
673.60	519.99
673.94	516.92
674.28	513.97
674.62	511.04
674.96	507.94
675.30	505.12
675.64	502.21
675.97	499.44
676.31	496.62
676.65	493.68
676.99	490.97
677.33	488.14
677.67	485.34
678.01	482.35
678.34	479.39
678.68	476.53
679.02	473.74
679.36	470.96
679.70	468.28
680.04	465.57
680.37	462.79
680.71	459.98
681.05	457.35
681.39	454.68
681.73	452.05
682.06	449.52
682.40	446.91
682.74	444.37
683.08	441.75
683.42	439.14
683.75	436.65
684.09	434.04
684.43	431.55
684.77	429.11
685.10	426.77
685.44	424.50
685.78	422.17
686.12	419.90
686.45	417.58
686.79	415.27
687.13	413.04
687.46	410.82
687.80	408.69
688.14	406.39
688.48	404.33
688.81	402.09
689.15	399.96
689.49	397.80
689.82	395.68
690.16	393.66
690.50	391.70
690.83	389.72
691.17	387.76
691.51	385.90
691.84	384.04
692.18	382.14
692.52	380.17
692.85	378.27
693.19	376.41
693.52	374.58
693.86	372.76
694.20	371.00
694.53	369.18
694.87	367.37
695.21	365.66
695.54	363.81
695.88	362.07
696.21	360.36
696.55	358.73
696.88	357.08
697.22	355.43
697.56	353.81
697.89	352.18
698.23	350.59
698.56	348.95
698.90	347.38
699.23	345.74
699.57	344.18
699.90	342.63
700.24	341.03
700.58	339.55
700.91	338.09
701.25	336.62
701.58	335.29
701.92	333.87
702.25	332.49
702.59	331.16
702.92	329.84
703.26	328.55
703.59	327.23
703.93	326.06
704.26	324.83
704.60	323.56
704.93	322.29
705.26	321.04
705.60	319.89
705.93	318.70
706.27	317.65
706.60	316.61
706.94	315.52
707.27	314.42
707.61	313.33
707.94	312.27
708.27	311.19
708.61	310.11
708.94	309.09
709.28	308.09
709.61	307.09
709.94	306.09
710.28	305.04
710.61	304.02
710.95	302.93
711.28	302.00
711.61	301.07
711.95	300.17
712.28	299.21
712.61	298.18
712.95	297.23
713.28	296.32
713.61	295.41
713.95	294.53
714.28	293.72
714.61	292.85
714.95	291.99
715.28	291.13
715.61	290.25
715.95	289.39
716.28	288.51
716.61	287.68
716.95	286.92
717.28	286.15
717.61	285.40
717.94	284.63
718.28	283.85
718.61	283.10
718.94	282.40
719.27	281.70
719.61	281.05
719.94	280.39
720.27	279.66
720.60	279.01
720.94	278.37
721.27	277.73
721.60	277.15
721.93	276.57
722.27	276.02
722.60	275.48
722.93	274.93
723.26	274.43
723.59	273.89
723.93	273.30
724.26	272.76
724.59	272.20
724.92	271.69
725.25	271.19
725.59	270.67
725.92	270.14
726.25	269.67
726.58	269.17
726.91	268.69
727.24	268.22
727.57	267.70
727.91	267.20
728.24	266.74
728.57	266.26
728.90	265.80
729.23	265.29
729.56	264.84
729.89	264.38
730.22	263.86
730.55	263.36
730.89	262.94
731.22	262.51
731.55	262.10
731.88	261.64
732.21	261.17
732.54	260.74
732.87	260.35
733.20	259.95
733.53	259.57
733.86	259.19
734.19	258.81
734.52	258.47
734.85	258.16
735.18	257.76
735.51	257.41
735.84	257.04
736.17	256.71
736.50	256.31
736.83	256.10
737.16	255.78
737.49	255.50
737.82	255.12
738.15	254.76
738.48	254.45
738.81	254.14
739.14	253.84
739.47	253.53
739.80	253.19
740.13	252.90
740.46	252.56
740.79	252.23
741.12	251.91
741.45	251.60
741.78	251.27
742.11	251.03
742.44	250.65
742.77	250.34
743.10	250.03
743.43	249.74
743.75	249.35
744.08	249.19
744.41	248.88
744.74	248.62
745.07	248.38
745.40	248.10
745.73	247.86
746.06	247.59
746.39	247.32
746.71	247.07
747.04	246.78
747.37	246.53
747.70	246.32
748.03	246.08
748.36	245.79
748.68	245.52
749.01	245.21
749.34	245.01
749.67	244.80
750.00	244.56
750.33	244.37
750.65	244.12
750.98	243.78
751.31	243.56
751.64	243.37
751.97	243.16
752.29	242.95
752.62	242.71
752.95	242.48
753.28	242.22
753.60	242.02
753.93	241.85
754.26	241.65
754.59	241.38
754.91	241.16
755.24	241.00
755.57	240.80
755.90	240.63
756.22	240.43
756.55	240.22
756.88	240.00
757.20	239.78
757.53	239.59
757.86	239.42
758.19	239.26
758.51	239.08
758.84	238.86
759.17	238.64
759.49	238.48
759.82	238.37
760.15	238.26
760.47	238.08
760.80	237.91
761.13	237.74
761.45	237.61
761.78	237.47
762.11	237.34
762.43	237.16
762.76	237.02
763.08	236.90
763.41	236.76
763.74	236.67
764.06	236.54
764.39	236.43
764.71	236.26
765.04	236.12
765.37	235.97
765.69	235.83
766.02	235.75
766.34	235.63
766.67	235.48
767.00	235.43
767.32	235.36
767.65	235.28
767.97	235.19
768.30	235.10
768.62	234.99
768.95	234.85
769.27	234.77
769.60	234.68
769.92	234.56
770.25	234.49
770.57	234.37
770.90	234.30
771.22	234.21
771.55	234.14
771.87	234.06
772.20	233.97
772.52	234.02
772.85	234.02
773.17	233.92
773.50	233.85
773.82	233.70
774.15	233.60
774.47	233.47
774.80	233.38
775.12	233.29
775.45	233.24
775.77	233.18
776.09	233.13
776.42	233.07
776.74	233.04
777.07	232.96
777.39	232.88
777.72	232.81
778.04	232.72
778.36	232.67
778.69	232.61
779.01	232.57
779.33	232.44
779.66	232.28
779.98	232.20
780.31	232.15
780.63	232.16
780.95	232.16
781.28	232.10
781.60	232.03
781.92	231.94
782.25	231.87
782.57	231.82
782.89	231.74
783.22	231.66
783.54	231.60
783.86	231.57
784.19	231.54
784.51	231.52
784.83	231.49
785.16	231.45
785.48	231.39
785.80	231.31
786.12	231.24
786.45	231.21
786.77	231.16
787.09	231.08
787.42	230.97
787.74	230.86
788.06	230.81
788.38	230.76
788.71	230.73
789.03	230.67
789.35	230.64
789.67	230.61
789.99	230.54
790.32	230.47
790.64	230.37
790.96	230.37
791.28	230.26
791.61	230.20
791.93	230.12
792.25	230.07
792.57	230.08
792.89	230.02
793.21	229.97
793.54	229.94
793.86	229.88
794.18	229.83
794.50	229.80
794.82	229.77
795.14	229.76
795.47	229.72
795.79	229.69
796.11	229.61
796.43	229.52
796.75	229.49
797.07	229.44
797.39	229.40
797.71	229.31
798.04	229.31
798.36	229.26
798.68	229.22
799.00	229.19
799.32	229.13
799.64	229.13
799.96	229.05
800.28	229.01
800.60	228.96
800.92	228.94
801.24	228.88
801.56	228.86
801.89	228.78
802.21	228.78
802.53	228.72
802.85	228.74
803.17	228.76
803.49	228.68
803.81	228.62
804.13	228.61
804.45	228.57
804.77	228.49
805.09	228.47
805.41	228.42
805.73	228.35
806.05	228.27
806.37	228.20
806.69	228.22
807.01	228.18
807.33	228.18
807.65	228.13
807.97	228.16
808.28	228.13
808.60	228.12
808.92	228.08
809.24	228.13
809.56	228.07
809.88	228.01
810.20	228.03
810.52	228.03
810.84	227.99
811.16	227.96
811.48	227.93
811.80	227.94
812.12	227.95
812.43	227.96
812.75	227.97
813.07	227.97
813.39	227.93
813.71	227.90
814.03	227.83
814.35	227.83
814.67	227.73
814.98	227.69
815.30	227.65
815.62	227.62
815.94	227.54
816.26	227.56
816.58	227.54
816.89	227.55
817.21	227.53
817.53	227.51
817.85	227.52
818.17	227.53
818.48	227.51
818.80	227.50
819.12	227.47
819.44	227.44
819.76	227.42
820.07	227.42
820.39	227.43
820.71	227.47
821.03	227.46
821.34	227.48
821.66	227.52
821.98	227.54
822.30	227.53
822.61	227.57
822.93	227.52
823.25	227.51
823.57	227.49
823.88	227.50
824.20	227.52
824.52	227.53
824.83	227.50
825.15	227.47
825.47	227.46
825.79	227.50
826.10	227.50
826.42	227.51
826.74	227.49
827.05	227.48
827.37	227.50
827.69	227.47
828.00	227.46
828.32	227.43
828.64	227.42
828.95	227.44
829.27	227.41
829.58	227.42
829.90	227.44
830.22	227.43
830.53	227.41
830.85	227.36
831.17	227.33
831.48	227.32
831.80	227.29
832.11	227.27
832.43	227.20
832.75	227.18
833.06	227.23
833.38	227.21
833.69	227.18
834.01	227.17
834.32	227.13
834.64	227.10
834.96	227.08
835.27	227.07
835.59	227.02
835.90	226.98
836.22	226.95
836.53	226.91
836.85	226.88
837.16	226.98
837.48	226.96
837.79	227.00
838.11	227.00
838.42	226.99
838.74	227.00
839.05	226.99
839.37	226.97
839.68	226.87
840.00	226.82
840.31	226.82
840.63	226.79
840.94	226.81
841.26	226.80
841.57	226.78
841.88	226.75
842.20	226.72
842.51	226.74
842.83	226.76
843.14	226.85
843.46	226.85
843.77	226.75
844.08	226.75
844.40	226.69
844.71	226.68
845.03	226.67
845.34	226.66
845.65	226.60
845.97	226.60
846.28	226.59
846.60	226.62
846.91	226.60
847.22	226.57
847.54	226.55
847.85	226.53
848.16	226.51
848.48	226.51
848.79	226.53
849.10	226.48
849.42	226.45
849.73	226.35
850.04	226.32
850.36	226.28
850.67	226.28
850.98	226.26
851.30	226.24
851.61	226.24
851.92	226.19
852.23	226.26
852.55	226.26
852.86	226.29
853.17	226.28
853.49	226.31
853.80	226.31
854.11	226.30
854.42	226.30
854.74	226.28
855.05	226.27
855.36	226.23
855.67	226.23
855.99	226.27
856.30	226.36
856.61	226.37
856.92	226.40
857.23	226.40
857.55	226.41
857.86	226.43
858.17	226.42
858.48	226.46
858.79	226.45
859.11	226.48
859.42	226.45
859.73	226.45
860.04	226.44
860.35	226.43
860.66	226.44
860.98	226.47
861.29	226.49
861.60	226.51
861.91	226.57
862.22	226.56
862.53	226.54
862.84	226.45
863.16	226.50
863.47	226.48
863.78	226.46
864.09	226.48
864.40	226.46
864.71	226.46
865.02	226.47
865.33	226.47
865.64	226.47
865.95	226.50
866.27	226.59
866.58	226.57
866.89	226.62
867.20	226.61
867.51	226.62
867.82	226.65
868.13	226.69
868.44	226.65
868.75	226.68
869.06	226.68
869.37	226.73
869.68	226.65
869.99	226.66
870.30	226.68
870.61	226.68
870.92	226.69
871.23	226.68
871.54	226.68
871.85	226.70
872.16	226.67
872.47	226.65
872.78	226.57
873.09	226.57
873.40	226.55
873.71	226.58
874.02	226.56
874.33	226.53
874.64	226.50
874.95	226.50
875.26	226.53
875.56	226.53
875.87	226.50
876.18	226.50
876.49	226.58
876.80	226.56
877.11	226.53
877.42	226.52
877.73	226.51
878.04	226.46
878.35	226.44
878.66	226.45
878.96	226.44
879.27	226.42
879.58	226.41
879.89	226.38
880.20	226.37
880.51	226.33
880.82	226.34
881.12	226.36
881.43	226.33
881.74	226.26
882.05	226.23
882.36	226.21
882.67	226.22
882.97	226.14
883.28	226.10
883.59	226.08
883.90	226.10
884.21	226.13
884.51	226.12
884.82	226.09
885.13	226.05
885.44	226.05
885.74	226.09
886.05	226.09
886.36	226.11
886.67	226.08
886.98	226.13
887.28	226.13
887.59	226.13
887.90	226.15
888.20	226.16
888.51	226.20
888.82	226.17
889.13	226.20
889.43	226.25
889.74	226.26
890.05	226.27
890.35	226.24
890.66	226.23
890.97	226.21
891.28	226.23
891.58	226.25
891.89	226.24
892.20	226.20
892.50	226.17
892.81	226.17
893.12	226.17
893.42	226.09
893.73	226.06
894.04	226.03
894.34	226.02
894.65	226.02
894.95	225.97
895.26	226.02
895.57	226.04
895.87	225.95
896.18	225.98
896.48	226.00
896.79	226.03
897.10	226.02
897.40	226.03
897.71	226.03
898.01	225.99
898.32	225.96
898.63	225.94
898.93	225.99
899.24	225.96
899.54	225.97
899.85	226.01
900.15	226.00
900.46	226.01
900.76	226.02
901.07	226.00
901.38	226.01
901.68	226.02
901.99	226.00
902.29	226.01
902.60	225.99
902.90	226.00
903.21	225.96
903.51	225.94
903.82	225.98
904.12	225.99
904.43	226.04
904.73	226.12
905.03	226.12
905.34	226.20
905.64	226.23
905.95	226.24
906.25	226.24
906.56	226.25
906.86	226.25
907.17	226.22
907.47	226.24
907.77	226.25
908.08	226.21
908.38	226.19
908.69	226.20
908.99	226.24
909.30	226.23
909.60	226.26
909.90	226.29
910.21	226.25
910.51	226.21
910.81	226.18
911.12	226.17
911.42	226.17
911.73	226.05
912.03	226.03
912.33	226.03
912.64	226.02
912.94	225.99
913.24	225.95
913.55	225.97
913.85	225.95
914.15	225.92
914.46	225.96
914.76	225.97
915.06	225.95
915.37	225.92
915.67	225.92
915.97	225.90
916.27	225.89
916.58	225.88
916.88	225.92
917.18	225.93
917.49	225.97
917.79	225.97
918.09	226.02
918.39	226.03
918.70	226.03
919.00	226.00
919.30	226.07
919.60	226.10
919.91	226.06
920.21	226.07
920.51	226.05
920.81	226.03
921.12	226.02
921.42	226.01
921.72	225.99
922.02	225.99
922.32	226.01
922.63	226.01
922.93	226.06
923.23	226.01
923.53	225.98
923.83	225.91
924.13	225.90
924.44	225.87
924.74	225.91
925.04	225.93
925.34	225.94
925.64	225.89
925.94	225.88
926.24	225.94
926.55	225.95
926.85	225.97
927.15	225.99
927.45	225.97
927.75	225.99
928.05	225.99
928.35	225.98
928.65	226.00
928.95	225.97
929.26	225.93
929.56	225.97
929.86	225.98
930.16	225.99
930.46	225.97
930.76	225.99
931.06	225.90
931.36	225.87
931.66	225.88
931.96	225.88
932.26	225.88
932.56	225.84
932.86	225.85
933.16	225.84
933.46	225.81
933.76	225.78
934.06	225.81
934.36	225.82
934.66	225.83
934.96	225.80
935.26	225.82
935.56	225.84
935.86	225.80
936.16	225.80
936.46	225.81
936.76	225.80
937.06	225.78
937.36	225.79
937.66	225.79
937.96	225.79
938.26	225.76
938.56	225.78
938.86	225.76
939.16	225.79
939.46	225.82
939.76	225.83
940.06	225.86
940.35	225.80
940.65	225.76
940.95	225.75
941.25	225.71
941.55	225.71
941.85	225.67
942.15	225.70
942.45	225.76
942.75	225.75
943.04	225.76
943.34	225.75
943.64	225.76
943.94	225.74
944.24	225.74
944.54	225.76
944.84	225.75
945.13	225.76
945.43	225.73
945.73	225.70
946.03	225.68
946.33	225.67
946.62	225.70
946.92	225.71
947.22	225.74
947.52	225.78
947.82	225.79
948.11	225.80
948.41	225.80
948.71	225.73
949.01	225.75
949.31	225.78
949.60	225.82
949.90	225.85
950.20	225.86
950.50	225.85
950.79	225.85
951.09	225.87
951.39	225.88
951.69	225.89
951.98	225.94
952.28	225.94
952.58	225.94
952.87	225.93
953.17	225.96
953.47	225.94
953.76	225.93
954.06	225.90
954.36	225.87
954.66	225.88
954.95	225.93
955.25	225.94
955.55	225.92
955.84	225.89
956.14	225.88
956.44	225.90
956.73	225.90
957.03	225.89
957.32	225.90
957.62	225.89
957.92	225.90
958.21	225.86
958.51	226.00
958.81	226.00
959.10	226.05
959.40	226.07
959.69	226.06
959.99	226.08
960.29	226.10
960.58	226.15
960.88	226.18
961.17	226.19
961.47	226.18
961.76	226.17
962.06	226.18
962.36	226.19
962.65	226.17
962.95	226.18
963.24	226.18
963.54	226.19
963.83	226.19
964.13	226.17
964.42	226.16
964.72	226.05
965.01	226.07
965.31	226.00
965.60	225.99
965.90	226.05
966.19	226.03
966.49	226.00
966.78	225.98
967.08	225.93
967.37	225.91
967.67	225.88
967.96	225.89
968.26	225.89
968.55	225.91
968.85	225.91
969.14	225.92
969.43	225.91
969.73	225.86
970.02	225.85
970.32	225.86
970.61	225.83
970.91	225.81
971.20	225.77
971.49	225.78
971.79	225.77
972.08	225.70
972.38	225.69
972.67	225.72
972.96	225.72
973.26	225.72
973.55	225.76
973.85	225.78
974.14	225.77
974.43	225.78
974.73	225.74
975.02	225.73
975.31	225.71
975.61	225.71
975.90	225.71
976.19	225.70
976.49	225.70
976.78	225.73
977.07	225.72
977.37	225.70
977.66	225.73
977.95	225.74
978.24	225.76
978.54	225.80
978.83	225.80
979.12	225.82
979.42	225.80
979.71	225.76
980.00	225.74
980.29	225.73
980.59	225.71
980.88	225.77
981.17	225.79
981.46	225.81
981.76	225.83
982.05	225.86
982.34	225.90
982.63	225.88
982.93	225.90
983.22	225.95
983.51	225.97
983.80	225.98
984.09	225.96
984.39	225.93
984.68	225.91
984.97	225.94
985.26	225.92
985.55	225.95
985.85	225.94
986.14	225.95
986.43	225.98
986.72	225.96
987.01	225.92
987.30	225.89
987.59	225.87
987.89	225.88
988.18	225.86
988.47	225.84
988.76	225.87
989.05	225.87
989.34	225.84
989.63	225.89
989.92	225.87
990.22	225.89
990.51	225.94
990.80	225.94
991.09	225.92
991.38	225.92
991.67	225.89
991.96	225.85
992.25	225.87
992.54	225.88
992.83	225.90
993.12	225.92
993.41	225.95
993.70	225.99
993.99	226.00
994.28	226.02
994.58	226.00
994.87	225.97
995.16	225.96
995.45	225.95
995.74	225.89
996.03	225.91
996.32	225.93
996.61	225.90
996.90	225.86
997.19	225.86
997.48	225.88
997.77	225.88
998.06	225.91
998.34	225.90
998.63	225.89
998.92	225.88
999.21	225.87
999.50	225.85
999.79	225.84
1000.08	225.82
1000.37	225.79
1000.66	225.81
1000.95	225.84
1001.24	225.82
1001.53	225.80
1001.82	225.79
1002.11	225.76
1002.40	225.72
1002.68	225.76
1002.97	225.84
1003.26	225.84
1003.55	225.76
1003.84	225.78
1004.13	225.82
1004.42	225.83
1004.71	225.79
1004.99	225.80
1005.28	225.80
1005.57	225.77
1005.86	225.74
1006.15	225.73
1006.44	225.72
1006.72	225.72
1007.01	225.70
1007.30	225.71
1007.59	225.74
1007.88	225.76
1008.17	225.74
1008.45	225.75
1008.74	225.68
1009.03	225.64
1009.32	225.62
1009.60	225.70
1009.89	225.66
1010.18	225.59
1010.47	225.58
1010.76	225.57
1011.04	225.55
1011.33	225.57
1011.62	225.62
1011.91	225.60
1012.19	225.61
1012.48	225.61
1012.77	225.59
1013.05	225.63
1013.34	225.64
1013.63	225.65
1013.92	225.63
1014.20	225.64
1014.49	225.62
1014.78	225.64
1015.06	225.61
1015.35	225.63
1015.64	225.62
1015.92	225.61
1016.21	225.64
1016.50	225.63
1016.78	225.66
1017.07	225.65
1017.36	225.59
1017.64	225.56
1017.93	225.61
1018.22	225.62
1018.50	225.63
1018.79	225.63
1019.08	225.59
1019.36	225.62
1019.65	225.60
1019.93	225.62
1020.22	225.64
1020.51	225.71
1020.79	225.72
1021.08	225.87
1021.36	225.50
1021.65	225.56
1021.94	225.65
1022.22	226.45
1022.51	225.55
1022.79	225.74
1023.08	225.71
1023.36	227.02
1023.65	225.70
>>>>>End Processed Spectral Data<<<<<
