SpectraSuite Data File
++++++++++++++++++++++++++++++++++++
Date: Fri Feb 01 15:19:21 EST 2013
User: group
Dark Spectrum Present: No
Reference Spectrum Present: No
Number of Sampled Component Spectra: 1
Spectrometers: USB2E7196
Integration Time (usec): 35000 (USB2E7196)
Spectra Averaged: 100 (USB2E7196)
Boxcar Smoothing: 10 (USB2E7196)
Correct for Electrical Dark: No (USB2E7196)
Strobe/Lamp Enabled: No (USB2E7196)
Correct for Detector Non-linearity: No (USB2E7196)
Correct for Stray Light: No (USB2E7196)
Number of Pixels in Processed Spectrum: 2048
>>>>>Begin Processed Spectral Data<<<<<
339.09	0.00
339.48	215.44
339.86	216.89
340.24	218.43
340.63	219.89
341.01	222.02
341.39	222.82
341.78	223.76
342.16	224.94
342.54	225.43
342.93	213.76
343.31	224.58
343.69	225.13
344.07	225.54
344.46	225.94
344.84	226.31
345.22	226.55
345.60	226.73
345.99	226.92
346.37	227.03
346.75	227.11
347.13	227.18
347.52	227.19
347.90	227.25
348.28	227.29
348.66	227.32
349.05	227.29
349.43	227.30
349.81	227.32
350.19	227.36
350.57	227.41
350.96	227.48
351.34	227.51
351.72	227.55
352.10	227.66
352.48	227.72
352.87	227.74
353.25	227.83
353.63	227.93
354.01	227.96
354.39	228.02
354.77	228.09
355.15	228.16
355.54	228.24
355.92	228.31
356.30	228.36
356.68	228.48
357.06	228.57
357.44	228.60
357.82	228.66
358.20	228.71
358.58	228.75
358.97	228.79
359.35	228.88
359.73	228.94
360.11	228.98
360.49	229.06
360.87	229.12
361.25	229.15
361.63	229.19
362.01	229.25
362.39	229.29
362.77	229.33
363.15	229.37
363.53	229.41
363.91	229.40
364.29	229.38
364.67	229.32
365.05	229.31
365.43	229.38
365.81	229.38
366.19	229.41
366.57	229.46
366.95	229.46
367.33	229.40
367.71	229.44
368.09	229.46
368.47	229.43
368.85	229.38
369.23	229.37
369.61	229.31
369.99	229.30
370.37	229.28
370.75	229.28
371.13	229.21
371.51	229.15
371.89	229.11
372.27	229.10
372.65	229.04
373.03	228.99
373.41	228.86
373.78	228.77
374.16	228.69
374.54	228.60
374.92	228.52
375.30	228.48
375.68	228.36
376.06	228.29
376.44	228.21
376.82	228.17
377.19	228.09
377.57	228.05
377.95	227.97
378.33	227.90
378.71	227.78
379.09	227.74
379.47	227.71
379.84	227.64
380.22	227.54
380.60	227.43
380.98	227.38
381.36	227.33
381.73	227.26
382.11	227.22
382.49	227.16
382.87	227.11
383.25	227.06
383.62	227.10
384.00	227.02
384.38	226.95
384.76	226.90
385.13	226.86
385.51	226.80
385.89	226.70
386.27	226.68
386.64	226.65
387.02	226.59
387.40	226.53
387.78	226.53
388.15	226.50
388.53	226.50
388.91	226.46
389.29	226.44
389.66	226.47
390.04	226.44
390.42	226.42
390.79	226.39
391.17	226.38
391.55	226.28
391.92	226.25
392.30	226.29
392.68	226.28
393.05	226.27
393.43	226.29
393.81	226.31
394.18	226.29
394.56	226.30
394.94	226.34
395.31	226.35
395.69	226.36
396.06	226.39
396.44	226.43
396.82	226.43
397.19	226.54
397.57	226.56
397.95	226.57
398.32	226.61
398.70	226.65
399.07	226.72
399.45	226.77
399.82	226.85
400.20	226.90
400.58	227.00
400.95	227.06
401.33	227.13
401.70	227.29
402.08	227.39
402.45	227.47
402.83	227.56
403.20	227.69
403.58	227.82
403.95	227.98
404.33	228.08
404.71	228.25
405.08	228.38
405.46	228.51
405.83	228.68
406.21	228.83
406.58	229.02
406.96	229.21
407.33	229.40
407.70	229.61
408.08	229.89
408.45	230.10
408.83	230.34
409.20	230.57
409.58	230.74
409.95	231.01
410.33	231.31
410.70	231.57
411.08	231.84
411.45	232.10
411.82	232.40
412.20	232.82
412.57	233.24
412.95	233.56
413.32	233.97
413.69	234.42
414.07	234.87
414.44	235.35
414.82	235.82
415.19	236.37
415.56	236.92
415.94	237.45
416.31	238.09
416.68	238.74
417.06	239.45
417.43	240.17
417.81	240.91
418.18	241.68
418.55	242.52
418.93	243.42
419.30	244.36
419.67	245.32
420.04	246.23
420.42	247.23
420.79	248.41
421.16	249.59
421.54	250.75
421.91	251.96
422.28	253.21
422.66	254.56
423.03	255.86
423.40	257.20
423.77	258.62
424.15	260.05
424.52	261.51
424.89	263.14
425.26	264.68
425.64	266.11
426.01	267.69
426.38	269.39
426.75	271.05
427.13	272.77
427.50	274.55
427.87	276.41
428.24	278.27
428.61	280.03
428.99	281.93
429.36	284.06
429.73	286.14
430.10	288.16
430.47	290.22
430.85	292.34
431.22	294.59
431.59	297.00
431.96	299.23
432.33	301.73
432.70	304.12
433.08	306.93
433.45	309.62
433.82	312.28
434.19	315.13
434.56	317.98
434.93	320.64
435.30	323.29
435.68	326.27
436.05	329.13
436.42	331.93
436.79	334.48
437.16	337.20
437.53	340.00
437.90	342.86
438.27	345.62
438.64	348.46
439.01	351.06
439.38	353.27
439.75	355.52
440.13	358.06
440.50	360.37
440.87	362.23
441.24	364.20
441.61	366.34
441.98	367.84
442.35	369.60
442.72	371.48
443.09	373.36
443.46	374.31
443.83	374.88
444.20	375.41
444.57	376.24
444.94	376.49
445.31	376.87
445.68	377.17
446.05	377.24
446.42	376.87
446.79	376.47
447.16	376.00
447.53	375.60
447.90	374.44
448.27	373.29
448.64	371.74
449.01	370.55
449.37	368.59
449.74	366.70
450.11	364.45
450.48	361.96
450.85	359.36
451.22	357.21
451.59	355.15
451.96	353.14
452.33	350.53
452.70	348.18
453.07	345.33
453.43	342.46
453.80	339.70
454.17	337.01
454.54	334.44
454.91	331.74
455.28	329.06
455.65	326.55
456.02	324.08
456.38	321.87
456.75	319.18
457.12	316.92
457.49	314.70
457.86	312.53
458.23	310.65
458.59	308.58
458.96	306.48
459.33	304.61
459.70	302.78
460.07	301.27
460.43	299.53
460.80	297.87
461.17	296.40
461.54	294.87
461.91	293.45
462.27	292.00
462.64	290.75
463.01	289.38
463.38	288.09
463.74	286.69
464.11	285.55
464.48	284.53
464.85	283.39
465.21	282.54
465.58	281.59
465.95	280.51
466.32	279.57
466.68	278.68
467.05	277.78
467.42	276.88
467.78	275.93
468.15	275.05
468.52	274.40
468.88	273.52
469.25	272.73
469.62	272.06
469.98	271.36
470.35	270.72
470.72	270.14
471.08	269.46
471.45	268.96
471.82	268.41
472.18	267.83
472.55	267.38
472.92	266.84
473.28	266.40
473.65	265.94
474.02	265.51
474.38	265.13
474.75	264.84
475.11	264.50
475.48	264.26
475.85	264.06
476.21	263.85
476.58	263.65
476.94	263.51
477.31	263.36
477.67	263.23
478.04	263.10
478.41	263.03
478.77	263.07
479.14	263.00
479.50	262.98
479.87	263.06
480.23	263.11
480.60	263.18
480.96	263.24
481.33	263.45
481.69	263.64
482.06	263.85
482.42	264.03
482.79	264.29
483.15	264.60
483.52	264.99
483.88	265.33
484.25	265.72
484.61	266.16
484.98	266.60
485.34	267.14
485.71	267.76
486.07	268.36
486.44	268.95
486.80	269.65
487.17	270.38
487.53	271.21
487.90	272.10
488.26	273.02
488.62	274.01
488.99	275.00
489.35	276.04
489.72	277.15
490.08	278.39
490.44	279.60
490.81	280.94
491.17	282.24
491.54	283.71
491.90	285.27
492.26	286.94
492.63	288.64
492.99	290.43
493.36	292.34
493.72	294.35
494.08	296.42
494.45	298.69
494.81	301.08
495.17	303.52
495.54	306.06
495.90	308.75
496.26	311.53
496.63	314.47
496.99	317.61
497.35	320.85
497.72	324.20
498.08	327.72
498.44	331.37
498.80	335.31
499.17	339.31
499.53	343.46
499.89	347.82
500.26	352.35
500.62	357.03
500.98	361.93
501.34	367.00
501.71	372.35
502.07	377.77
502.43	383.34
502.79	389.15
503.16	395.24
503.52	401.52
503.88	407.95
504.24	414.57
504.60	421.42
504.97	428.51
505.33	435.84
505.69	443.54
506.05	451.28
506.41	459.17
506.78	467.36
507.14	475.80
507.50	484.52
507.86	493.52
508.22	502.68
508.59	511.88
508.95	521.46
509.31	531.28
509.67	541.34
510.03	551.70
510.39	562.22
510.75	572.99
511.12	583.93
511.48	595.25
511.84	606.71
512.20	618.17
512.56	630.21
512.92	642.45
513.28	654.77
513.64	667.29
514.00	680.01
514.37	692.99
514.73	706.15
515.09	719.19
515.45	732.45
515.81	746.08
516.17	760.16
516.53	774.26
516.89	788.44
517.25	802.70
517.61	817.11
517.97	831.63
518.33	846.13
518.69	860.91
519.05	875.96
519.41	891.18
519.77	906.82
520.13	922.24
520.49	937.59
520.85	953.01
521.21	968.78
521.57	985.01
521.93	1000.79
522.29	1017.17
522.65	1033.48
523.01	1049.84
523.37	1065.86
523.73	1081.89
524.09	1098.15
524.45	1114.50
524.81	1131.12
525.17	1148.05
525.53	1164.97
525.89	1181.81
526.25	1198.64
526.61	1215.02
526.97	1231.87
527.33	1248.48
527.68	1265.23
528.04	1281.79
528.40	1298.51
528.76	1315.56
529.12	1332.11
529.48	1348.97
529.84	1365.03
530.20	1381.70
530.56	1398.85
530.91	1416.31
531.27	1433.26
531.63	1449.72
531.99	1466.37
532.35	1482.36
532.71	1498.23
533.07	1514.51
533.42	1530.46
533.78	1546.65
534.14	1563.05
534.50	1578.30
534.86	1594.15
535.21	1609.32
535.57	1625.40
535.93	1641.01
536.29	1655.91
536.65	1671.29
537.00	1686.21
537.36	1701.62
537.72	1716.21
538.08	1730.58
538.44	1744.57
538.79	1758.58
539.15	1772.38
539.51	1786.30
539.87	1800.80
540.22	1814.65
540.58	1828.63
540.94	1842.17
541.29	1855.22
541.65	1868.04
542.01	1881.56
542.37	1893.96
542.72	1906.58
543.08	1918.32
543.44	1930.73
543.79	1942.03
544.15	1952.99
544.51	1964.67
544.87	1975.73
545.22	1986.55
545.58	1996.79
545.94	2006.53
546.29	2016.30
546.65	2026.12
547.01	2035.40
547.36	2044.23
547.72	2052.73
548.07	2060.50
548.43	2068.68
548.79	2076.69
549.14	2084.19
549.50	2091.54
549.86	2099.39
550.21	2106.56
550.57	2113.79
550.92	2120.38
551.28	2127.50
551.64	2134.53
551.99	2141.01
552.35	2147.11
552.70	2153.33
553.06	2159.29
553.41	2165.72
553.77	2171.86
554.13	2177.97
554.48	2184.04
554.84	2189.30
555.19	2194.69
555.55	2199.88
555.90	2204.28
556.26	2209.19
556.61	2213.99
556.97	2218.14
557.32	2222.13
557.68	2226.41
558.03	2230.75
558.39	2234.47
558.74	2239.11
559.10	2243.00
559.45	2246.65
559.81	2250.93
560.16	2254.76
560.52	2257.95
560.87	2261.28
561.23	2263.98
561.58	2266.91
561.94	2269.39
562.29	2271.85
562.64	2274.43
563.00	2277.08
563.35	2280.62
563.71	2283.65
564.06	2286.69
564.42	2289.50
564.77	2291.91
565.12	2294.02
565.48	2295.69
565.83	2297.54
566.19	2298.83
566.54	2299.75
566.89	2300.78
567.25	2301.31
567.60	2302.57
567.96	2304.14
568.31	2304.94
568.66	2305.92
569.02	2306.39
569.37	2306.70
569.72	2307.55
570.08	2307.68
570.43	2307.47
570.78	2306.69
571.14	2305.07
571.49	2303.68
571.84	2303.28
572.20	2301.91
572.55	2300.82
572.90	2299.22
573.26	2297.72
573.61	2295.94
573.96	2293.98
574.31	2290.92
574.67	2287.92
575.02	2284.21
575.37	2280.81
575.72	2276.84
576.08	2273.43
576.43	2270.20
576.78	2266.31
577.13	2263.19
577.49	2259.98
577.84	2256.53
578.19	2252.83
578.54	2248.99
578.90	2244.65
579.25	2239.01
579.60	2234.14
579.95	2229.02
580.30	2223.99
580.66	2218.78
581.01	2213.73
581.36	2208.71
581.71	2204.44
582.06	2199.92
582.42	2195.28
582.77	2190.10
583.12	2185.45
583.47	2180.53
583.82	2175.17
584.17	2169.91
584.53	2164.21
584.88	2158.42
585.23	2152.40
585.58	2146.96
585.93	2141.69
586.28	2136.93
586.63	2131.81
586.98	2126.69
587.34	2121.94
587.69	2116.95
588.04	2111.55
588.39	2105.67
588.74	2099.31
589.09	2093.19
589.44	2086.18
589.79	2080.17
590.14	2074.44
590.49	2067.89
590.84	2061.54
591.19	2055.59
591.54	2049.06
591.89	2041.43
592.25	2034.47
592.60	2027.28
592.95	2019.56
593.30	2012.00
593.65	2004.25
594.00	1997.17
594.35	1989.79
594.70	1981.70
595.05	1974.34
595.40	1967.02
595.75	1959.51
596.10	1953.01
596.45	1946.06
596.80	1939.91
597.15	1933.24
597.50	1926.06
597.85	1919.50
598.19	1912.81
598.54	1905.68
598.89	1899.08
599.24	1893.16
599.59	1886.58
599.94	1880.39
600.29	1873.98
600.64	1867.28
600.99	1859.82
601.34	1852.89
601.69	1845.92
602.04	1838.93
602.39	1831.57
602.74	1824.72
603.08	1818.01
603.43	1811.27
603.78	1804.03
604.13	1796.70
604.48	1789.20
604.83	1782.27
605.18	1775.29
605.53	1767.19
605.87	1759.18
606.22	1751.87
606.57	1744.04
606.92	1736.58
607.27	1729.33
607.62	1722.46
607.96	1715.11
608.31	1708.43
608.66	1700.67
609.01	1693.21
609.36	1685.70
609.70	1677.71
610.05	1669.58
610.40	1661.91
610.75	1653.64
611.10	1646.01
611.44	1637.72
611.79	1629.87
612.14	1621.19
612.49	1611.95
612.83	1603.63
613.18	1595.50
613.53	1587.43
613.88	1578.89
614.22	1570.74
614.57	1562.21
614.92	1554.09
615.27	1546.67
615.61	1538.30
615.96	1530.40
616.31	1522.74
616.65	1515.35
617.00	1507.80
617.35	1500.14
617.70	1491.62
618.04	1483.10
618.39	1474.85
618.74	1467.29
619.08	1458.97
619.43	1451.39
619.78	1444.58
620.12	1437.39
620.47	1429.82
620.82	1421.60
621.16	1414.17
621.51	1406.44
621.85	1398.82
622.20	1390.29
622.55	1381.94
622.89	1374.15
623.24	1366.62
623.59	1359.13
623.93	1351.57
624.28	1344.48
624.62	1336.91
624.97	1329.81
625.32	1323.04
625.66	1316.03
626.01	1308.70
626.35	1301.21
626.70	1293.56
627.04	1285.78
627.39	1278.08
627.73	1270.67
628.08	1263.69
628.43	1256.25
628.77	1248.97
629.12	1241.38
629.46	1234.21
629.81	1226.78
630.15	1219.59
630.50	1212.21
630.84	1204.05
631.19	1196.22
631.53	1188.63
631.88	1181.15
632.22	1173.49
632.57	1166.23
632.91	1158.63
633.26	1151.29
633.60	1144.05
633.95	1136.96
634.29	1129.99
634.64	1123.22
634.98	1115.89
635.32	1108.81
635.67	1102.32
636.01	1095.59
636.36	1088.77
636.70	1082.33
637.05	1075.73
637.39	1069.25
637.73	1062.66
638.08	1056.84
638.42	1050.78
638.77	1044.26
639.11	1037.63
639.45	1031.32
639.80	1024.67
640.14	1018.26
640.49	1011.70
640.83	1005.37
641.17	998.98
641.52	992.64
641.86	986.24
642.20	980.35
642.55	974.13
642.89	967.62
643.23	961.13
643.58	955.31
643.92	949.02
644.26	942.93
644.61	936.90
644.95	930.77
645.29	924.11
645.64	917.37
645.98	911.09
646.32	905.30
646.66	899.14
647.01	893.31
647.35	887.66
647.69	881.90
648.04	876.37
648.38	870.60
648.72	864.52
649.06	858.46
649.41	852.62
649.75	846.57
650.09	840.74
650.43	834.97
650.78	828.82
651.12	822.92
651.46	817.21
651.80	811.38
652.14	806.07
652.49	800.76
652.83	795.62
653.17	789.95
653.51	784.21
653.85	778.96
654.20	773.27
654.54	767.21
654.88	761.47
655.22	755.63
655.56	750.02
655.90	744.64
656.25	739.42
656.59	734.07
656.93	729.01
657.27	723.77
657.61	718.29
657.95	713.26
658.29	708.12
658.64	702.90
658.98	697.72
659.32	692.27
659.66	687.12
660.00	681.78
660.34	676.86
660.68	671.99
661.02	666.94
661.36	662.35
661.70	657.86
662.05	653.51
662.39	649.18
662.73	644.76
663.07	640.38
663.41	635.88
663.75	631.38
664.09	626.87
664.43	622.52
664.77	618.43
665.11	614.14
665.45	610.02
665.79	605.91
666.13	601.79
666.47	597.65
666.81	593.46
667.15	589.39
667.49	585.50
667.83	581.69
668.17	577.75
668.51	573.62
668.85	569.59
669.19	565.70
669.53	561.81
669.87	557.87
670.21	554.19
670.55	550.63
670.89	547.20
671.23	543.70
671.57	540.17
671.91	536.65
672.25	533.22
672.58	529.76
672.92	526.41
673.26	523.29
673.60	520.22
673.94	517.13
674.28	514.27
674.62	511.27
674.96	508.15
675.30	505.29
675.64	502.41
675.97	499.71
676.31	496.83
676.65	493.92
676.99	491.23
677.33	488.38
677.67	485.54
678.01	482.52
678.34	479.52
678.68	476.72
679.02	473.88
679.36	471.12
679.70	468.38
680.04	465.62
680.37	462.71
680.71	459.92
681.05	457.30
681.39	454.57
681.73	451.98
682.06	449.49
682.40	446.93
682.74	444.42
683.08	441.86
683.42	439.29
683.75	436.79
684.09	434.25
684.43	431.78
684.77	429.34
685.10	426.98
685.44	424.69
685.78	422.36
686.12	420.17
686.45	417.91
686.79	415.62
687.13	413.46
687.46	411.32
687.80	409.20
688.14	406.98
688.48	404.87
688.81	402.64
689.15	400.47
689.49	398.35
689.82	396.25
690.16	394.15
690.50	392.26
690.83	390.35
691.17	388.34
691.51	386.47
691.84	384.65
692.18	382.75
692.52	380.80
692.85	378.89
693.19	376.98
693.52	375.17
693.86	373.38
694.20	371.63
694.53	369.81
694.87	367.97
695.21	366.19
695.54	364.44
695.88	362.69
696.21	361.02
696.55	359.34
696.88	357.63
697.22	356.02
697.56	354.35
697.89	352.67
698.23	351.15
698.56	349.53
698.90	347.91
699.23	346.28
699.57	344.74
699.90	343.22
700.24	341.67
700.58	340.09
700.91	338.62
701.25	337.15
701.58	335.82
701.92	334.49
702.25	333.15
702.59	331.75
702.92	330.45
703.26	329.09
703.59	327.84
703.93	326.68
704.26	325.41
704.60	324.13
704.93	322.87
705.26	321.58
705.60	320.42
705.93	319.26
706.27	318.27
706.60	317.23
706.94	316.14
707.27	315.03
707.61	313.99
707.94	312.98
708.27	311.84
708.61	310.72
708.94	309.69
709.28	308.70
709.61	307.73
709.94	306.77
710.28	305.77
710.61	304.76
710.95	303.69
711.28	302.79
711.61	301.85
711.95	300.95
712.28	300.01
712.61	299.00
712.95	298.09
713.28	297.18
713.61	296.27
713.95	295.40
714.28	294.60
714.61	293.74
714.95	292.85
715.28	292.01
715.61	291.18
715.95	290.31
716.28	289.42
716.61	288.61
716.95	287.74
717.28	287.04
717.61	286.30
717.94	285.57
718.28	284.77
718.61	284.06
718.94	283.34
719.27	282.70
719.61	282.04
719.94	281.40
720.27	280.68
720.60	279.96
720.94	279.33
721.27	278.68
721.60	278.14
721.93	277.56
722.27	277.03
722.60	276.44
722.93	275.92
723.26	275.43
723.59	274.86
723.93	274.35
724.26	273.73
724.59	273.17
724.92	272.66
725.25	272.13
725.59	271.62
725.92	271.12
726.25	270.59
726.58	270.12
726.91	269.63
727.24	269.16
727.57	268.77
727.91	268.28
728.24	267.81
728.57	267.28
728.90	266.82
729.23	266.35
729.56	265.97
729.89	265.48
730.22	265.00
730.55	264.56
730.89	264.13
731.22	263.72
731.55	263.29
731.88	262.82
732.21	262.42
732.54	262.00
732.87	261.59
733.20	261.20
733.53	260.84
733.86	260.45
734.19	260.06
734.52	259.69
734.85	259.38
735.18	258.98
735.51	258.66
735.84	258.32
736.17	257.97
736.50	257.52
736.83	257.29
737.16	256.94
737.49	256.61
737.82	256.26
738.15	255.90
738.48	255.58
738.81	255.31
739.14	254.97
739.47	254.66
739.80	254.37
740.13	254.07
740.46	253.73
740.79	253.43
741.12	253.10
741.45	252.78
741.78	252.42
742.11	252.12
742.44	251.76
742.77	251.42
743.10	251.11
743.43	250.82
743.75	250.41
744.08	250.25
744.41	249.96
744.74	249.70
745.07	249.44
745.40	249.22
745.73	248.95
746.06	248.69
746.39	248.41
746.71	248.10
747.04	247.83
747.37	247.58
747.70	247.31
748.03	247.03
748.36	246.76
748.68	246.54
749.01	246.28
749.34	246.07
749.67	245.87
750.00	245.67
750.33	245.50
750.65	245.31
750.98	244.97
751.31	244.75
751.64	244.55
751.97	244.44
752.29	244.18
752.62	243.91
752.95	243.71
753.28	243.51
753.60	243.34
753.93	243.16
754.26	242.94
754.59	242.68
754.91	242.49
755.24	242.27
755.57	242.10
755.90	241.93
756.22	241.74
756.55	241.53
756.88	241.31
757.20	241.07
757.53	240.86
757.86	240.68
758.19	240.54
758.51	240.33
758.84	240.06
759.17	239.88
759.49	239.72
759.82	239.59
760.15	239.41
760.47	239.25
760.80	239.08
761.13	238.94
761.45	238.83
761.78	238.74
762.11	238.62
762.43	238.41
762.76	238.26
763.08	238.11
763.41	237.97
763.74	237.85
764.06	237.75
764.39	237.62
764.71	237.48
765.04	237.32
765.37	237.22
765.69	237.10
766.02	236.99
766.34	236.88
766.67	236.74
767.00	236.68
767.32	236.60
767.65	236.54
767.97	236.43
768.30	236.32
768.62	236.17
768.95	236.10
769.27	236.03
769.60	235.96
769.92	235.86
770.25	235.73
770.57	235.63
770.90	235.51
771.22	235.41
771.55	235.31
771.87	235.25
772.20	235.15
772.52	235.15
772.85	235.18
773.17	235.11
773.50	235.03
773.82	234.93
774.15	234.80
774.47	234.66
774.80	234.56
775.12	234.49
775.45	234.40
775.77	234.34
776.09	234.28
776.42	234.18
776.74	234.13
777.07	234.08
777.39	234.00
777.72	233.93
778.04	233.88
778.36	233.80
778.69	233.73
779.01	233.67
779.33	233.52
779.66	233.35
779.98	233.26
780.31	233.21
780.63	233.21
780.95	233.17
781.28	233.08
781.60	233.03
781.92	232.94
782.25	232.86
782.57	232.75
782.89	232.66
783.22	232.60
783.54	232.54
783.86	232.51
784.19	232.45
784.51	232.43
784.83	232.37
785.16	232.31
785.48	232.24
785.80	232.17
786.12	232.13
786.45	232.05
786.77	232.03
787.09	231.96
787.42	231.84
787.74	231.79
788.06	231.77
788.38	231.74
788.71	231.71
789.03	231.67
789.35	231.66
789.67	231.62
789.99	231.55
790.32	231.52
790.64	231.46
790.96	231.49
791.28	231.39
791.61	231.34
791.93	231.30
792.25	231.27
792.57	231.35
792.89	231.29
793.21	231.28
793.54	231.24
793.86	231.18
794.18	231.10
794.50	231.06
794.82	231.01
795.14	230.94
795.47	230.92
795.79	230.90
796.11	230.85
796.43	230.78
796.75	230.76
797.07	230.72
797.39	230.65
797.71	230.58
798.04	230.57
798.36	230.51
798.68	230.49
799.00	230.47
799.32	230.34
799.64	230.34
799.96	230.31
800.28	230.27
800.60	230.25
800.92	230.23
801.24	230.21
801.56	230.19
801.89	230.17
802.21	230.15
802.53	230.09
802.85	230.08
803.17	230.11
803.49	230.06
803.81	230.02
804.13	229.99
804.45	229.93
804.77	229.91
805.09	229.87
805.41	229.84
805.73	229.80
806.05	229.72
806.37	229.66
806.69	229.61
807.01	229.55
807.33	229.54
807.65	229.50
807.97	229.49
808.28	229.44
808.60	229.40
808.92	229.34
809.24	229.39
809.56	229.35
809.88	229.30
810.20	229.29
810.52	229.28
810.84	229.27
811.16	229.25
811.48	229.21
811.80	229.24
812.12	229.22
812.43	229.22
812.75	229.24
813.07	229.21
813.39	229.20
813.71	229.18
814.03	229.12
814.35	229.11
814.67	229.07
814.98	229.05
815.30	229.02
815.62	228.99
815.94	228.91
816.26	228.92
816.58	228.88
816.89	228.88
817.21	228.85
817.53	228.82
817.85	228.82
818.17	228.81
818.48	228.77
818.80	228.75
819.12	228.74
819.44	228.72
819.76	228.71
820.07	228.69
820.39	228.69
820.71	228.70
821.03	228.69
821.34	228.61
821.66	228.63
821.98	228.63
822.30	228.63
822.61	228.69
822.93	228.64
823.25	228.63
823.57	228.60
823.88	228.58
824.20	228.56
824.52	228.59
824.83	228.56
825.15	228.51
825.47	228.51
825.79	228.50
826.10	228.45
826.42	228.44
826.74	228.43
827.05	228.43
827.37	228.42
827.69	228.40
828.00	228.45
828.32	228.45
828.64	228.42
828.95	228.45
829.27	228.41
829.58	228.40
829.90	228.39
830.22	228.39
830.53	228.37
830.85	228.37
831.17	228.33
831.48	228.34
831.80	228.33
832.11	228.28
832.43	228.26
832.75	228.28
833.06	228.33
833.38	228.31
833.69	228.26
834.01	228.27
834.32	228.27
834.64	228.27
834.96	228.26
835.27	228.27
835.59	228.23
835.90	228.15
836.22	228.17
836.53	228.16
836.85	228.16
837.16	228.23
837.48	228.21
837.79	228.23
838.11	228.23
838.42	228.22
838.74	228.24
839.05	228.23
839.37	228.20
839.68	228.14
840.00	228.12
840.31	228.16
840.63	228.13
840.94	228.12
841.26	228.08
841.57	228.06
841.88	228.02
842.20	228.02
842.51	228.04
842.83	228.01
843.14	228.08
843.46	228.06
843.77	228.05
844.08	228.04
844.40	227.98
844.71	227.99
845.03	227.96
845.34	227.95
845.65	227.91
845.97	227.91
846.28	227.87
846.60	227.89
846.91	227.85
847.22	227.79
847.54	227.80
847.85	227.78
848.16	227.77
848.48	227.75
848.79	227.77
849.10	227.77
849.42	227.79
849.73	227.66
850.04	227.65
850.36	227.58
850.67	227.56
850.98	227.55
851.30	227.52
851.61	227.51
851.92	227.52
852.23	227.53
852.55	227.53
852.86	227.54
853.17	227.54
853.49	227.54
853.80	227.60
854.11	227.59
854.42	227.62
854.74	227.58
855.05	227.59
855.36	227.57
855.67	227.55
855.99	227.52
856.30	227.65
856.61	227.67
856.92	227.68
857.23	227.68
857.55	227.66
857.86	227.63
858.17	227.67
858.48	227.65
858.79	227.66
859.11	227.68
859.42	227.66
859.73	227.63
860.04	227.66
860.35	227.62
860.66	227.60
860.98	227.62
861.29	227.65
861.60	227.62
861.91	227.64
862.22	227.65
862.53	227.64
862.84	227.50
863.16	227.51
863.47	227.49
863.78	227.52
864.09	227.55
864.40	227.59
864.71	227.61
865.02	227.62
865.33	227.62
865.64	227.61
865.95	227.64
866.27	227.74
866.58	227.73
866.89	227.75
867.20	227.74
867.51	227.72
867.82	227.74
868.13	227.78
868.44	227.77
868.75	227.77
869.06	227.79
869.37	227.82
869.68	227.79
869.99	227.79
870.30	227.79
870.61	227.80
870.92	227.79
871.23	227.77
871.54	227.77
871.85	227.75
872.16	227.73
872.47	227.70
872.78	227.62
873.09	227.63
873.40	227.63
873.71	227.68
874.02	227.68
874.33	227.64
874.64	227.63
874.95	227.61
875.26	227.62
875.56	227.59
875.87	227.61
876.18	227.61
876.49	227.69
876.80	227.67
877.11	227.65
877.42	227.65
877.73	227.63
878.04	227.63
878.35	227.64
878.66	227.65
878.96	227.65
879.27	227.64
879.58	227.64
879.89	227.62
880.20	227.63
880.51	227.61
880.82	227.59
881.12	227.58
881.43	227.58
881.74	227.55
882.05	227.56
882.36	227.54
882.67	227.53
882.97	227.43
883.28	227.41
883.59	227.37
883.90	227.36
884.21	227.39
884.51	227.37
884.82	227.33
885.13	227.32
885.44	227.32
885.74	227.31
886.05	227.28
886.36	227.26
886.67	227.20
886.98	227.24
887.28	227.26
887.59	227.26
887.90	227.22
888.20	227.19
888.51	227.18
888.82	227.14
889.13	227.15
889.43	227.23
889.74	227.25
890.05	227.25
890.35	227.23
890.66	227.19
890.97	227.15
891.28	227.18
891.58	227.16
891.89	227.17
892.20	227.15
892.50	227.12
892.81	227.09
893.12	227.10
893.42	227.07
893.73	227.08
894.04	227.06
894.34	227.09
894.65	227.11
894.95	227.13
895.26	227.15
895.57	227.21
895.87	227.13
896.18	227.12
896.48	227.12
896.79	227.11
897.10	227.12
897.40	227.15
897.71	227.16
898.01	227.15
898.32	227.15
898.63	227.16
898.93	227.21
899.24	227.23
899.54	227.24
899.85	227.23
900.15	227.22
900.46	227.24
900.76	227.25
901.07	227.27
901.38	227.26
901.68	227.28
901.99	227.23
902.29	227.22
902.60	227.23
902.90	227.24
903.21	227.24
903.51	227.25
903.82	227.27
904.12	227.27
904.43	227.29
904.73	227.28
905.03	227.31
905.34	227.36
905.64	227.36
905.95	227.34
906.25	227.31
906.56	227.30
906.86	227.33
907.17	227.29
907.47	227.28
907.77	227.27
908.08	227.23
908.38	227.27
908.69	227.30
908.99	227.31
909.30	227.32
909.60	227.31
909.90	227.33
910.21	227.29
910.51	227.26
910.81	227.27
911.12	227.27
911.42	227.27
911.73	227.16
912.03	227.17
912.33	227.15
912.64	227.20
912.94	227.19
913.24	227.14
913.55	227.19
913.85	227.15
914.15	227.18
914.46	227.20
914.76	227.16
915.06	227.15
915.37	227.15
915.67	227.12
915.97	227.16
916.27	227.11
916.58	227.12
916.88	227.11
917.18	227.10
917.49	227.13
917.79	227.12
918.09	227.13
918.39	227.16
918.70	227.17
919.00	227.12
919.30	227.17
919.60	227.15
919.91	227.10
920.21	227.12
920.51	227.06
920.81	227.04
921.12	227.06
921.42	227.01
921.72	227.01
922.02	227.01
922.32	226.98
922.63	227.01
922.93	227.08
923.23	227.10
923.53	227.08
923.83	227.05
924.13	227.07
924.44	227.09
924.74	227.11
925.04	227.14
925.34	227.17
925.64	227.13
925.94	227.13
926.24	227.19
926.55	227.19
926.85	227.23
927.15	227.22
927.45	227.19
927.75	227.19
928.05	227.18
928.35	227.18
928.65	227.22
928.95	227.20
929.26	227.15
929.56	227.15
929.86	227.15
930.16	227.15
930.46	227.11
930.76	227.10
931.06	227.06
931.36	227.03
931.66	227.03
931.96	227.03
932.26	227.04
932.56	226.97
932.86	226.96
933.16	226.96
933.46	226.94
933.76	226.93
934.06	226.95
934.36	226.98
934.66	226.99
934.96	226.98
935.26	227.00
935.56	227.02
935.86	227.00
936.16	227.02
936.46	226.99
936.76	227.01
937.06	227.00
937.36	227.00
937.66	227.01
937.96	227.00
938.26	227.00
938.56	226.99
938.86	227.02
939.16	227.07
939.46	227.11
939.76	227.16
940.06	227.16
940.35	227.16
940.65	227.11
940.95	227.12
941.25	227.05
941.55	227.04
941.85	227.04
942.15	227.09
942.45	227.10
942.75	227.11
943.04	227.11
943.34	227.15
943.64	227.14
943.94	227.14
944.24	227.18
944.54	227.21
944.84	227.23
945.13	227.25
945.43	227.18
945.73	227.15
946.03	227.16
946.33	227.16
946.62	227.15
946.92	227.17
947.22	227.18
947.52	227.23
947.82	227.23
948.11	227.24
948.41	227.22
948.71	227.17
949.01	227.18
949.31	227.18
949.60	227.15
949.90	227.17
950.20	227.14
950.50	227.12
950.79	227.09
951.09	227.11
951.39	227.06
951.69	227.10
951.98	227.13
952.28	227.11
952.58	227.14
952.87	227.14
953.17	227.15
953.47	227.13
953.76	227.10
954.06	227.11
954.36	227.07
954.66	227.04
954.95	227.13
955.25	227.12
955.55	227.12
955.84	227.12
956.14	227.11
956.44	227.15
956.73	227.12
957.03	227.12
957.32	227.08
957.62	227.12
957.92	227.13
958.21	227.10
958.51	227.22
958.81	227.20
959.10	227.19
959.40	227.25
959.69	227.26
959.99	227.27
960.29	227.22
960.58	227.22
960.88	227.26
961.17	227.21
961.47	227.24
961.76	227.22
962.06	227.22
962.36	227.21
962.65	227.17
962.95	227.18
963.24	227.15
963.54	227.16
963.83	227.13
964.13	227.13
964.42	227.12
964.72	227.00
965.01	226.99
965.31	226.99
965.60	226.92
965.90	227.00
966.19	226.95
966.49	226.96
966.78	226.97
967.08	226.96
967.37	226.97
967.67	226.92
967.96	226.96
968.26	226.93
968.55	226.94
968.85	226.92
969.14	226.91
969.43	226.92
969.73	226.90
970.02	226.89
970.32	226.84
970.61	226.82
970.91	226.82
971.20	226.81
971.49	226.82
971.79	226.82
972.08	226.73
972.38	226.75
972.67	226.76
972.96	226.76
973.26	226.75
973.55	226.76
973.85	226.77
974.14	226.75
974.43	226.76
974.73	226.73
975.02	226.75
975.31	226.75
975.61	226.73
975.90	226.72
976.19	226.75
976.49	226.76
976.78	226.79
977.07	226.75
977.37	226.75
977.66	226.76
977.95	226.77
978.24	226.79
978.54	226.82
978.83	226.83
979.12	226.84
979.42	226.83
979.71	226.79
980.00	226.82
980.29	226.85
980.59	226.85
980.88	226.90
981.17	226.93
981.46	226.95
981.76	226.99
982.05	227.00
982.34	227.01
982.63	227.02
982.93	227.03
983.22	227.11
983.51	227.11
983.80	227.14
984.09	227.13
984.39	227.12
984.68	227.13
984.97	227.12
985.26	227.11
985.55	227.12
985.85	227.14
986.14	227.15
986.43	227.11
986.72	227.13
987.01	227.09
987.30	227.07
987.59	227.07
987.89	227.08
988.18	227.08
988.47	227.05
988.76	227.04
989.05	226.99
989.34	226.92
989.63	226.92
989.92	226.91
990.22	226.90
990.51	226.93
990.80	226.89
991.09	226.90
991.38	226.92
991.67	226.92
991.96	226.87
992.25	226.86
992.54	226.84
992.83	226.84
993.12	226.82
993.41	226.81
993.70	226.84
993.99	226.84
994.28	226.85
994.58	226.86
994.87	226.87
995.16	226.89
995.45	226.90
995.74	226.94
996.03	226.94
996.32	226.95
996.61	226.93
996.90	226.93
997.19	226.93
997.48	226.92
997.77	226.90
998.06	226.91
998.34	226.91
998.63	226.92
998.92	226.90
999.21	226.90
999.50	226.91
999.79	226.87
1000.08	226.86
1000.37	226.86
1000.66	226.85
1000.95	226.90
1001.24	226.90
1001.53	226.90
1001.82	226.85
1002.11	226.85
1002.40	226.89
1002.68	226.94
1002.97	227.02
1003.26	227.04
1003.55	226.99
1003.84	227.01
1004.13	227.04
1004.42	227.06
1004.71	227.05
1004.99	227.02
1005.28	227.06
1005.57	227.02
1005.86	226.99
1006.15	227.02
1006.44	227.01
1006.72	227.04
1007.01	226.99
1007.30	227.00
1007.59	227.04
1007.88	227.05
1008.17	227.04
1008.45	226.98
1008.74	226.96
1009.03	226.90
1009.32	226.87
1009.60	226.91
1009.89	226.92
1010.18	226.91
1010.47	226.90
1010.76	226.93
1011.04	226.93
1011.33	226.94
1011.62	226.99
1011.91	227.02
1012.19	227.00
1012.48	227.02
1012.77	227.02
1013.05	227.07
1013.34	227.05
1013.63	227.05
1013.92	227.08
1014.20	227.09
1014.49	227.11
1014.78	227.11
1015.06	227.09
1015.35	227.10
1015.64	227.11
1015.92	227.12
1016.21	227.13
1016.50	227.13
1016.78	227.14
1017.07	227.17
1017.36	227.16
1017.64	227.17
1017.93	227.18
1018.22	227.17
1018.50	227.18
1018.79	227.19
1019.08	227.17
1019.36	227.20
1019.65	227.19
1019.93	227.19
1020.22	227.20
1020.51	227.25
1020.79	227.25
1021.08	226.95
1021.36	227.27
1021.65	227.23
1021.94	227.36
1022.22	227.32
1022.51	227.34
1022.79	227.28
1023.08	227.41
1023.36	228.07
1023.65	227.18
>>>>>End Processed Spectral Data<<<<<
