SpectraSuite Data File
++++++++++++++++++++++++++++++++++++
Date: Fri Feb 01 15:29:16 EST 2013
User: group
Dark Spectrum Present: No
Reference Spectrum Present: No
Number of Sampled Component Spectra: 1
Spectrometers: USB2E7196
Integration Time (usec): 35000 (USB2E7196)
Spectra Averaged: 100 (USB2E7196)
Boxcar Smoothing: 10 (USB2E7196)
Correct for Electrical Dark: No (USB2E7196)
Strobe/Lamp Enabled: No (USB2E7196)
Correct for Detector Non-linearity: No (USB2E7196)
Correct for Stray Light: No (USB2E7196)
Number of Pixels in Processed Spectrum: 2048
>>>>>Begin Processed Spectral Data<<<<<
339.09	0.00
339.48	214.57
339.86	216.27
340.24	217.49
340.63	219.17
341.01	221.67
341.39	220.98
341.78	223.16
342.16	224.34
342.54	224.49
342.93	213.05
343.31	223.83
343.69	224.38
344.07	224.85
344.46	225.27
344.84	225.65
345.22	225.89
345.60	226.17
345.99	226.36
346.37	226.48
346.75	226.60
347.13	226.65
347.52	226.73
347.90	226.79
348.28	226.85
348.66	226.85
349.05	226.87
349.43	226.94
349.81	226.99
350.19	227.05
350.57	227.16
350.96	227.28
351.34	227.37
351.72	227.46
352.10	227.55
352.48	227.63
352.87	227.67
353.25	227.75
353.63	227.82
354.01	227.89
354.39	227.97
354.77	228.08
355.15	228.20
355.54	228.25
355.92	228.30
356.30	228.38
356.68	228.56
357.06	228.63
357.44	228.68
357.82	228.74
358.20	228.83
358.58	228.89
358.97	228.94
359.35	229.01
359.73	229.13
360.11	229.16
360.49	229.24
360.87	229.30
361.25	229.36
361.63	229.45
362.01	229.53
362.39	229.57
362.77	229.60
363.15	229.63
363.53	229.68
363.91	229.70
364.29	229.71
364.67	229.63
365.05	229.65
365.43	229.67
365.81	229.71
366.19	229.74
366.57	229.75
366.95	229.74
367.33	229.71
367.71	229.68
368.09	229.71
368.47	229.67
368.85	229.66
369.23	229.63
369.61	229.55
369.99	229.54
370.37	229.53
370.75	229.53
371.13	229.46
371.51	229.37
371.89	229.33
372.27	229.26
372.65	229.18
373.03	229.10
373.41	229.01
373.78	228.95
374.16	228.83
374.54	228.74
374.92	228.70
375.30	228.61
375.68	228.50
376.06	228.43
376.44	228.38
376.82	228.32
377.19	228.24
377.57	228.16
377.95	228.04
378.33	227.94
378.71	227.79
379.09	227.73
379.47	227.66
379.84	227.56
380.22	227.47
380.60	227.38
380.98	227.33
381.36	227.24
381.73	227.15
382.11	227.09
382.49	227.02
382.87	226.94
383.25	226.91
383.62	226.94
384.00	226.84
384.38	226.72
384.76	226.68
385.13	226.67
385.51	226.60
385.89	226.53
386.27	226.49
386.64	226.48
387.02	226.46
387.40	226.43
387.78	226.42
388.15	226.42
388.53	226.42
388.91	226.40
389.29	226.39
389.66	226.40
390.04	226.40
390.42	226.42
390.79	226.42
391.17	226.39
391.55	226.30
391.92	226.36
392.30	226.43
392.68	226.40
393.05	226.38
393.43	226.41
393.81	226.45
394.18	226.46
394.56	226.48
394.94	226.51
395.31	226.52
395.69	226.58
396.06	226.62
396.44	226.65
396.82	226.69
397.19	226.78
397.57	226.80
397.95	226.83
398.32	226.84
398.70	226.89
399.07	226.97
399.45	227.02
399.82	227.05
400.20	227.07
400.58	227.16
400.95	227.24
401.33	227.36
401.70	227.51
402.08	227.62
402.45	227.72
402.83	227.85
403.20	227.98
403.58	228.12
403.95	228.25
404.33	228.38
404.71	228.50
405.08	228.69
405.46	228.81
405.83	229.01
406.21	229.20
406.58	229.37
406.96	229.55
407.33	229.72
407.70	229.95
408.08	230.22
408.45	230.42
408.83	230.65
409.20	230.89
409.58	231.05
409.95	231.27
410.33	231.56
410.70	231.78
411.08	232.10
411.45	232.39
411.82	232.69
412.20	233.07
412.57	233.50
412.95	233.78
413.32	234.20
413.69	234.59
414.07	235.00
414.44	235.47
414.82	235.95
415.19	236.53
415.56	237.05
415.94	237.59
416.31	238.24
416.68	238.85
417.06	239.55
417.43	240.21
417.81	240.99
418.18	241.76
418.55	242.60
418.93	243.46
419.30	244.37
419.67	245.28
420.04	246.24
420.42	247.23
420.79	248.44
421.16	249.61
421.54	250.78
421.91	251.99
422.28	253.25
422.66	254.55
423.03	255.86
423.40	257.18
423.77	258.57
424.15	260.01
424.52	261.51
424.89	263.09
425.26	264.63
425.64	266.10
426.01	267.68
426.38	269.34
426.75	270.97
427.13	272.68
427.50	274.50
427.87	276.37
428.24	278.22
428.61	279.93
428.99	281.83
429.36	283.95
429.73	286.01
430.10	288.05
430.47	290.12
430.85	292.23
431.22	294.50
431.59	296.94
431.96	299.15
432.33	301.64
432.70	304.07
433.08	306.90
433.45	309.56
433.82	312.17
434.19	315.05
434.56	317.85
434.93	320.50
435.30	323.16
435.68	326.06
436.05	328.89
436.42	331.69
436.79	334.18
437.16	336.92
437.53	339.81
437.90	342.66
438.27	345.43
438.64	348.24
439.01	350.83
439.38	353.03
439.75	355.22
440.13	357.70
440.50	360.04
440.87	361.94
441.24	363.86
441.61	366.06
441.98	367.58
442.35	369.44
442.72	371.33
443.09	373.09
443.46	374.08
443.83	374.68
444.20	375.24
444.57	376.11
444.94	376.36
445.31	376.69
445.68	377.00
446.05	377.06
446.42	376.68
446.79	376.28
447.16	375.85
447.53	375.54
447.90	374.40
448.27	373.22
448.64	371.60
449.01	370.46
449.37	368.44
449.74	366.51
450.11	364.27
450.48	361.78
450.85	359.25
451.22	357.08
451.59	355.03
451.96	353.12
452.33	350.51
452.70	348.14
453.07	345.31
453.43	342.39
453.80	339.63
454.17	336.94
454.54	334.34
454.91	331.58
455.28	328.92
455.65	326.41
456.02	323.94
456.38	321.78
456.75	319.14
457.12	316.91
457.49	314.73
457.86	312.53
458.23	310.67
458.59	308.63
458.96	306.54
459.33	304.70
459.70	302.78
460.07	301.27
460.43	299.58
460.80	297.91
461.17	296.48
461.54	294.97
461.91	293.54
462.27	292.12
462.64	290.87
463.01	289.47
463.38	288.15
463.74	286.77
464.11	285.62
464.48	284.54
464.85	283.43
465.21	282.53
465.58	281.57
465.95	280.46
466.32	279.52
466.68	278.61
467.05	277.73
467.42	276.82
467.78	275.85
468.15	274.97
468.52	274.29
468.88	273.41
469.25	272.60
469.62	271.98
469.98	271.31
470.35	270.72
470.72	270.07
471.08	269.40
471.45	268.85
471.82	268.29
472.18	267.69
472.55	267.20
472.92	266.64
473.28	266.17
473.65	265.72
474.02	265.28
474.38	264.93
474.75	264.55
475.11	264.19
475.48	263.94
475.85	263.69
476.21	263.46
476.58	263.28
476.94	263.16
477.31	263.01
477.67	262.84
478.04	262.69
478.41	262.68
478.77	262.76
479.14	262.69
479.50	262.69
479.87	262.78
480.23	262.88
480.60	262.97
480.96	263.05
481.33	263.26
481.69	263.47
482.06	263.66
482.42	263.86
482.79	264.14
483.15	264.46
483.52	264.83
483.88	265.19
484.25	265.57
484.61	265.95
484.98	266.40
485.34	266.98
485.71	267.58
486.07	268.18
486.44	268.75
486.80	269.48
487.17	270.17
487.53	271.00
487.90	271.88
488.26	272.80
488.62	273.82
488.99	274.80
489.35	275.84
489.72	276.96
490.08	278.17
490.44	279.39
490.81	280.74
491.17	282.12
491.54	283.60
491.90	285.13
492.26	286.83
492.63	288.59
492.99	290.38
493.36	292.30
493.72	294.33
494.08	296.45
494.45	298.70
494.81	301.10
495.17	303.50
495.54	306.09
495.90	308.80
496.26	311.60
496.63	314.55
496.99	317.69
497.35	320.93
497.72	324.33
498.08	327.85
498.44	331.49
498.80	335.41
499.17	339.44
499.53	343.63
499.89	347.99
500.26	352.46
500.62	357.14
500.98	362.12
501.34	367.24
501.71	372.54
502.07	377.99
502.43	383.63
502.79	389.51
503.16	395.58
503.52	401.88
503.88	408.30
504.24	414.95
504.60	421.83
504.97	428.99
505.33	436.37
505.69	444.09
506.05	451.88
506.41	459.77
506.78	467.99
507.14	476.45
507.50	485.18
507.86	494.18
508.22	503.36
508.59	512.57
508.95	522.19
509.31	532.04
509.67	542.17
510.03	552.46
510.39	562.97
510.75	573.76
511.12	584.68
511.48	596.01
511.84	607.55
512.20	619.10
512.56	631.13
512.92	643.26
513.28	655.67
513.64	668.20
514.00	680.89
514.37	693.77
514.73	706.82
515.09	719.88
515.45	733.21
515.81	746.81
516.17	760.77
516.53	774.93
516.89	789.06
517.25	803.30
517.61	817.77
517.97	832.28
518.33	846.74
518.69	861.64
519.05	876.61
519.41	891.74
519.77	907.28
520.13	922.70
520.49	938.17
520.85	953.52
521.21	969.26
521.57	985.57
521.93	1001.43
522.29	1017.94
522.65	1034.21
523.01	1050.50
523.37	1066.65
523.73	1082.84
524.09	1098.94
524.45	1115.34
524.81	1132.00
525.17	1148.89
525.53	1165.93
525.89	1182.76
526.25	1199.68
526.61	1216.10
526.97	1232.78
527.33	1249.32
527.68	1265.94
528.04	1282.44
528.40	1299.30
528.76	1316.41
529.12	1333.02
529.48	1349.98
529.84	1366.09
530.20	1382.80
530.56	1399.96
530.91	1417.40
531.27	1434.23
531.63	1450.84
531.99	1467.53
532.35	1483.55
532.71	1499.42
533.07	1515.66
533.42	1531.71
533.78	1547.52
534.14	1563.90
534.50	1579.36
534.86	1595.30
535.21	1610.54
535.57	1626.57
535.93	1641.98
536.29	1656.87
536.65	1672.23
537.00	1687.06
537.36	1702.31
537.72	1716.86
538.08	1731.28
538.44	1745.22
538.79	1759.26
539.15	1772.99
539.51	1786.68
539.87	1801.09
540.22	1815.00
540.58	1828.80
540.94	1842.28
541.29	1855.49
541.65	1868.15
542.01	1881.58
542.37	1894.07
542.72	1906.64
543.08	1918.41
543.44	1930.83
543.79	1942.15
544.15	1953.03
544.51	1964.57
544.87	1975.71
545.22	1986.60
545.58	1996.82
545.94	2006.55
546.29	2016.38
546.65	2026.22
547.01	2035.58
547.36	2044.41
547.72	2052.82
548.07	2060.81
548.43	2069.01
548.79	2076.97
549.14	2084.78
549.50	2092.18
549.86	2099.83
550.21	2107.09
550.57	2114.41
550.92	2121.01
551.28	2128.19
551.64	2135.34
551.99	2142.06
552.35	2148.14
552.70	2154.32
553.06	2160.21
553.41	2166.62
553.77	2172.79
554.13	2178.92
554.48	2185.09
554.84	2190.39
555.19	2195.78
555.55	2200.81
555.90	2205.17
556.26	2210.09
556.61	2214.57
556.97	2218.75
557.32	2222.88
557.68	2227.17
558.03	2231.41
558.39	2235.18
558.74	2239.67
559.10	2243.44
559.45	2246.85
559.81	2251.14
560.16	2254.88
560.52	2258.31
560.87	2261.64
561.23	2264.16
561.58	2267.03
561.94	2269.48
562.29	2272.03
562.64	2274.73
563.00	2277.40
563.35	2281.01
563.71	2284.20
564.06	2287.55
564.42	2290.41
564.77	2292.88
565.12	2294.92
565.48	2296.66
565.83	2298.49
566.19	2299.79
566.54	2300.74
566.89	2301.95
567.25	2302.46
567.60	2303.83
567.96	2305.41
568.31	2306.17
568.66	2307.27
569.02	2307.76
569.37	2308.12
569.72	2308.75
570.08	2308.74
570.43	2308.64
570.78	2307.99
571.14	2306.23
571.49	2304.90
571.84	2304.53
572.20	2303.25
572.55	2302.18
572.90	2300.67
573.26	2299.16
573.61	2297.40
573.96	2295.47
574.31	2292.40
574.67	2289.38
575.02	2285.60
575.37	2282.03
575.72	2278.16
576.08	2274.71
576.43	2271.41
576.78	2267.61
577.13	2264.41
577.49	2261.27
577.84	2257.69
578.19	2253.77
578.54	2250.24
578.90	2245.77
579.25	2240.15
579.60	2235.19
579.95	2230.21
580.30	2225.15
580.66	2219.89
581.01	2214.90
581.36	2210.00
581.71	2205.81
582.06	2201.28
582.42	2196.90
582.77	2191.62
583.12	2186.93
583.47	2182.07
583.82	2177.00
584.17	2171.69
584.53	2166.21
584.88	2160.47
585.23	2154.61
585.58	2149.01
585.93	2143.37
586.28	2138.66
586.63	2133.47
586.98	2128.27
587.34	2123.44
587.69	2118.39
588.04	2113.11
588.39	2107.32
588.74	2100.89
589.09	2094.52
589.44	2087.68
589.79	2081.47
590.14	2075.88
590.49	2069.33
590.84	2062.96
591.19	2056.74
591.54	2050.22
591.89	2042.77
592.25	2035.94
592.60	2028.80
592.95	2021.22
593.30	2013.80
593.65	2005.96
594.00	1998.88
594.35	1991.67
594.70	1983.50
595.05	1976.34
595.40	1968.85
595.75	1961.31
596.10	1954.87
596.45	1948.17
596.80	1941.77
597.15	1935.09
597.50	1927.76
597.85	1921.35
598.19	1914.68
598.54	1907.63
598.89	1901.02
599.24	1895.01
599.59	1888.26
599.94	1881.96
600.29	1875.68
600.64	1869.11
600.99	1861.57
601.34	1854.69
601.69	1847.53
602.04	1840.60
602.39	1833.12
602.74	1826.52
603.08	1819.66
603.43	1812.85
603.78	1805.57
604.13	1798.48
604.48	1791.19
604.83	1784.37
605.18	1777.30
605.53	1769.27
605.87	1761.15
606.22	1753.88
606.57	1745.86
606.92	1738.59
607.27	1731.36
607.62	1724.38
607.96	1717.00
608.31	1710.47
608.66	1702.70
609.01	1695.22
609.36	1687.58
609.70	1679.66
610.05	1671.44
610.40	1663.82
610.75	1655.43
611.10	1647.77
611.44	1639.33
611.79	1631.31
612.14	1622.71
612.49	1613.66
612.83	1605.32
613.18	1597.15
613.53	1589.05
613.88	1580.56
614.22	1572.23
614.57	1563.67
614.92	1555.68
615.27	1548.11
615.61	1539.82
615.96	1531.83
616.31	1524.14
616.65	1516.94
617.00	1509.33
617.35	1501.61
617.70	1493.29
618.04	1484.88
618.39	1476.60
618.74	1469.09
619.08	1460.78
619.43	1453.10
619.78	1446.09
620.12	1438.78
620.47	1431.35
620.82	1423.09
621.16	1415.71
621.51	1408.14
621.85	1400.56
622.20	1392.01
622.55	1383.73
622.89	1375.96
623.24	1368.33
623.59	1360.86
623.93	1353.29
624.28	1346.12
624.62	1338.59
624.97	1331.38
625.32	1324.59
625.66	1317.55
626.01	1310.29
626.35	1302.78
626.70	1295.13
627.04	1287.33
627.39	1279.66
627.73	1272.22
628.08	1265.38
628.43	1257.95
628.77	1250.50
629.12	1242.78
629.46	1235.53
629.81	1228.03
630.15	1220.74
630.50	1213.39
630.84	1205.28
631.19	1197.31
631.53	1189.69
631.88	1182.16
632.22	1174.58
632.57	1167.27
632.91	1159.76
633.26	1152.41
633.60	1145.08
633.95	1138.01
634.29	1131.00
634.64	1124.27
634.98	1116.87
635.32	1109.69
635.67	1103.15
636.01	1096.50
636.36	1089.78
636.70	1083.32
637.05	1076.81
637.39	1070.34
637.73	1063.79
638.08	1057.99
638.42	1052.07
638.77	1045.57
639.11	1038.94
639.45	1032.45
639.80	1025.84
640.14	1019.33
640.49	1012.76
640.83	1006.48
641.17	1000.13
641.52	993.82
641.86	987.39
642.20	981.56
642.55	975.22
642.89	968.69
643.23	962.10
643.58	956.37
643.92	950.04
644.26	943.92
644.61	937.82
644.95	931.79
645.29	925.10
645.64	918.37
645.98	912.06
646.32	906.26
646.66	900.25
647.01	894.40
647.35	888.72
647.69	882.87
648.04	877.34
648.38	871.58
648.72	865.54
649.06	859.40
649.41	853.59
649.75	847.60
650.09	841.65
650.43	835.84
650.78	829.62
651.12	823.74
651.46	818.05
651.80	812.32
652.14	806.97
652.49	801.68
652.83	796.45
653.17	790.82
653.51	785.04
653.85	779.65
654.20	773.99
654.54	767.91
654.88	762.20
655.22	756.34
655.56	750.65
655.90	745.19
656.25	739.99
656.59	734.60
656.93	729.52
657.27	724.38
657.61	718.92
657.95	713.82
658.29	708.70
658.64	703.46
658.98	698.19
659.32	692.69
659.66	687.45
660.00	682.15
660.34	677.22
660.68	672.33
661.02	667.34
661.36	662.69
661.70	658.25
662.05	653.85
662.39	649.53
662.73	645.08
663.07	640.74
663.41	636.28
663.75	631.75
664.09	627.25
664.43	622.95
664.77	618.91
665.11	614.65
665.45	610.54
665.79	606.45
666.13	602.31
666.47	598.29
666.81	594.17
667.15	590.11
667.49	586.17
667.83	582.40
668.17	578.42
668.51	574.35
668.85	570.35
669.19	566.47
669.53	562.59
669.87	558.72
670.21	555.04
670.55	551.44
670.89	547.97
671.23	544.54
671.57	541.03
671.91	537.50
672.25	534.05
672.58	530.61
672.92	527.26
673.26	524.11
673.60	520.92
673.94	517.73
674.28	514.80
674.62	511.85
674.96	508.70
675.30	505.85
675.64	502.95
675.97	500.18
676.31	497.37
676.65	494.44
676.99	491.73
677.33	488.81
677.67	485.96
678.01	482.93
678.34	479.86
678.68	476.98
679.02	474.14
679.36	471.38
679.70	468.58
680.04	465.74
680.37	462.84
680.71	460.05
681.05	457.54
681.39	454.82
681.73	452.23
682.06	449.77
682.40	447.20
682.74	444.62
683.08	442.09
683.42	439.48
683.75	437.03
684.09	434.47
684.43	432.07
684.77	429.63
685.10	427.34
685.44	425.09
685.78	422.80
686.12	420.60
686.45	418.30
686.79	416.08
687.13	413.91
687.46	411.78
687.80	409.59
688.14	407.31
688.48	405.26
688.81	402.96
689.15	400.81
689.49	398.61
689.82	396.56
690.16	394.47
690.50	392.54
690.83	390.59
691.17	388.66
691.51	386.74
691.84	384.84
692.18	382.93
692.52	380.90
692.85	378.96
693.19	377.05
693.52	375.26
693.86	373.41
694.20	371.64
694.53	369.86
694.87	368.07
695.21	366.28
695.54	364.45
695.88	362.72
696.21	360.96
696.55	359.35
696.88	357.65
697.22	355.98
697.56	354.33
697.89	352.69
698.23	351.02
698.56	349.39
698.90	347.81
699.23	346.13
699.57	344.62
699.90	343.06
700.24	341.55
700.58	340.01
700.91	338.50
701.25	337.06
701.58	335.66
701.92	334.27
702.25	332.91
702.59	331.52
702.92	330.25
703.26	328.96
703.59	327.63
703.93	326.46
704.26	325.27
704.60	324.00
704.93	322.71
705.26	321.52
705.60	320.38
705.93	319.25
706.27	318.24
706.60	317.22
706.94	316.18
707.27	315.02
707.61	313.99
707.94	312.97
708.27	311.91
708.61	310.84
708.94	309.87
709.28	308.87
709.61	307.92
709.94	306.96
710.28	305.92
710.61	304.98
710.95	303.90
711.28	302.95
711.61	301.98
711.95	301.05
712.28	300.07
712.61	299.10
712.95	298.17
713.28	297.30
713.61	296.38
713.95	295.48
714.28	294.65
714.61	293.72
714.95	292.89
715.28	292.03
715.61	291.18
715.95	290.29
716.28	289.44
716.61	288.64
716.95	287.83
717.28	287.10
717.61	286.34
717.94	285.62
718.28	284.84
718.61	284.14
718.94	283.45
719.27	282.80
719.61	282.13
719.94	281.46
720.27	280.71
720.60	280.04
720.94	279.42
721.27	278.83
721.60	278.30
721.93	277.72
722.27	277.14
722.60	276.59
722.93	276.06
723.26	275.52
723.59	274.94
723.93	274.40
724.26	273.87
724.59	273.31
724.92	272.78
725.25	272.29
725.59	271.76
725.92	271.27
726.25	270.77
726.58	270.30
726.91	269.82
727.24	269.39
727.57	268.92
727.91	268.43
728.24	267.97
728.57	267.46
728.90	266.97
729.23	266.50
729.56	266.05
729.89	265.55
730.22	265.08
730.55	264.66
730.89	264.22
731.22	263.73
731.55	263.28
731.88	262.86
732.21	262.37
732.54	261.94
732.87	261.51
733.20	261.10
733.53	260.69
733.86	260.29
734.19	259.86
734.52	259.51
734.85	259.17
735.18	258.76
735.51	258.41
735.84	258.04
736.17	257.65
736.50	257.22
736.83	257.01
737.16	256.71
737.49	256.34
737.82	255.99
738.15	255.69
738.48	255.38
738.81	255.08
739.14	254.77
739.47	254.46
739.80	254.15
740.13	253.85
740.46	253.53
740.79	253.20
741.12	252.92
741.45	252.60
741.78	252.24
742.11	251.93
742.44	251.62
742.77	251.34
743.10	251.07
743.43	250.82
743.75	250.42
744.08	250.27
744.41	250.01
744.74	249.73
745.07	249.43
745.40	249.22
745.73	248.98
746.06	248.73
746.39	248.48
746.71	248.21
747.04	247.96
747.37	247.72
747.70	247.50
748.03	247.25
748.36	247.03
748.68	246.80
749.01	246.56
749.34	246.38
749.67	246.16
750.00	245.96
750.33	245.77
750.65	245.57
750.98	245.19
751.31	245.01
751.64	244.80
751.97	244.67
752.29	244.41
752.62	244.15
752.95	243.97
753.28	243.79
753.60	243.62
753.93	243.43
754.26	243.25
754.59	243.02
754.91	242.80
755.24	242.57
755.57	242.38
755.90	242.20
756.22	241.94
756.55	241.76
756.88	241.57
757.20	241.39
757.53	241.18
757.86	241.03
758.19	240.86
758.51	240.73
758.84	240.47
759.17	240.28
759.49	240.12
759.82	240.01
760.15	239.84
760.47	239.66
760.80	239.47
761.13	239.32
761.45	239.14
761.78	239.02
762.11	238.91
762.43	238.79
762.76	238.62
763.08	238.51
763.41	238.35
763.74	238.19
764.06	238.05
764.39	237.91
764.71	237.73
765.04	237.54
765.37	237.36
765.69	237.20
766.02	237.11
766.34	236.95
766.67	236.75
767.00	236.62
767.32	236.54
767.65	236.48
767.97	236.36
768.30	236.24
768.62	236.12
768.95	235.95
769.27	235.78
769.60	235.71
769.92	235.58
770.25	235.44
770.57	235.30
770.90	235.19
771.22	235.06
771.55	234.99
771.87	234.93
772.20	234.81
772.52	234.80
772.85	234.79
773.17	234.72
773.50	234.60
773.82	234.48
774.15	234.35
774.47	234.15
774.80	234.01
775.12	233.90
775.45	233.79
775.77	233.72
776.09	233.66
776.42	233.57
776.74	233.49
777.07	233.41
777.39	233.37
777.72	233.27
778.04	233.19
778.36	233.09
778.69	232.98
779.01	232.94
779.33	232.84
779.66	232.68
779.98	232.61
780.31	232.58
780.63	232.57
780.95	232.53
781.28	232.47
781.60	232.46
781.92	232.43
782.25	232.39
782.57	232.33
782.89	232.30
783.22	232.26
783.54	232.20
783.86	232.18
784.19	232.10
784.51	232.07
784.83	232.05
785.16	232.01
785.48	231.97
785.80	231.96
786.12	231.90
786.45	231.88
786.77	231.88
787.09	231.82
787.42	231.75
787.74	231.74
788.06	231.75
788.38	231.70
788.71	231.65
789.03	231.65
789.35	231.63
789.67	231.59
789.99	231.56
790.32	231.54
790.64	231.52
790.96	231.60
791.28	231.55
791.61	231.51
791.93	231.52
792.25	231.53
792.57	231.56
792.89	231.50
793.21	231.47
793.54	231.39
793.86	231.34
794.18	231.36
794.50	231.29
794.82	231.26
795.14	231.24
795.47	231.26
795.79	231.22
796.11	231.16
796.43	231.11
796.75	231.04
797.07	231.00
797.39	230.95
797.71	230.84
798.04	230.78
798.36	230.76
798.68	230.69
799.00	230.66
799.32	230.56
799.64	230.55
799.96	230.52
800.28	230.51
800.60	230.48
800.92	230.41
801.24	230.35
801.56	230.31
801.89	230.27
802.21	230.22
802.53	230.13
802.85	230.12
803.17	230.17
803.49	230.12
803.81	230.08
804.13	230.01
804.45	229.96
804.77	229.93
805.09	229.89
805.41	229.86
805.73	229.78
806.05	229.71
806.37	229.66
806.69	229.59
807.01	229.54
807.33	229.50
807.65	229.44
807.97	229.45
808.28	229.42
808.60	229.38
808.92	229.28
809.24	229.35
809.56	229.30
809.88	229.19
810.20	229.20
810.52	229.15
810.84	229.14
811.16	229.08
811.48	229.04
811.80	229.02
812.12	228.97
812.43	228.97
812.75	228.93
813.07	228.86
813.39	228.82
813.71	228.76
814.03	228.72
814.35	228.65
814.67	228.56
814.98	228.49
815.30	228.47
815.62	228.45
815.94	228.33
816.26	228.33
816.58	228.29
816.89	228.24
817.21	228.19
817.53	228.13
817.85	228.11
818.17	228.10
818.48	228.05
818.80	228.08
819.12	228.05
819.44	228.04
819.76	228.06
820.07	228.03
820.39	228.04
820.71	228.06
821.03	228.11
821.34	228.12
821.66	228.17
821.98	228.18
822.30	228.21
822.61	228.29
822.93	228.22
823.25	228.26
823.57	228.24
823.88	228.27
824.20	228.32
824.52	228.34
824.83	228.36
825.15	228.37
825.47	228.34
825.79	228.33
826.10	228.34
826.42	228.31
826.74	228.35
827.05	228.35
827.37	228.34
827.69	228.35
828.00	228.35
828.32	228.31
828.64	228.26
828.95	228.31
829.27	228.28
829.58	228.32
829.90	228.32
830.22	228.35
830.53	228.34
830.85	228.35
831.17	228.33
831.48	228.34
831.80	228.35
832.11	228.36
832.43	228.38
832.75	228.39
833.06	228.48
833.38	228.45
833.69	228.48
834.01	228.50
834.32	228.50
834.64	228.49
834.96	228.49
835.27	228.49
835.59	228.46
835.90	228.42
836.22	228.39
836.53	228.37
836.85	228.37
837.16	228.45
837.48	228.45
837.79	228.47
838.11	228.47
838.42	228.41
838.74	228.43
839.05	228.41
839.37	228.36
839.68	228.32
840.00	228.30
840.31	228.29
840.63	228.27
840.94	228.24
841.26	228.25
841.57	228.25
841.88	228.24
842.20	228.24
842.51	228.21
842.83	228.19
843.14	228.25
843.46	228.21
843.77	228.09
844.08	228.07
844.40	228.03
844.71	227.99
845.03	227.97
845.34	227.96
845.65	227.93
845.97	227.94
846.28	227.90
846.60	227.89
846.91	227.84
847.22	227.81
847.54	227.79
847.85	227.74
848.16	227.73
848.48	227.68
848.79	227.65
849.10	227.66
849.42	227.67
849.73	227.58
850.04	227.57
850.36	227.55
850.67	227.52
850.98	227.48
851.30	227.45
851.61	227.43
851.92	227.38
852.23	227.38
852.55	227.37
852.86	227.33
853.17	227.33
853.49	227.34
853.80	227.35
854.11	227.32
854.42	227.33
854.74	227.29
855.05	227.31
855.36	227.23
855.67	227.20
855.99	227.18
856.30	227.25
856.61	227.24
856.92	227.25
857.23	227.23
857.55	227.19
857.86	227.19
858.17	227.17
858.48	227.13
858.79	227.12
859.11	227.11
859.42	227.12
859.73	227.06
860.04	227.04
860.35	227.00
860.66	226.98
860.98	226.99
861.29	227.01
861.60	227.00
861.91	227.04
862.22	227.07
862.53	227.04
862.84	226.95
863.16	226.99
863.47	226.94
863.78	227.00
864.09	227.06
864.40	227.10
864.71	227.15
865.02	227.21
865.33	227.19
865.64	227.20
865.95	227.22
866.27	227.34
866.58	227.36
866.89	227.40
867.20	227.42
867.51	227.42
867.82	227.43
868.13	227.50
868.44	227.52
868.75	227.53
869.06	227.58
869.37	227.59
869.68	227.59
869.99	227.65
870.30	227.67
870.61	227.72
870.92	227.72
871.23	227.75
871.54	227.77
871.85	227.82
872.16	227.85
872.47	227.85
872.78	227.76
873.09	227.78
873.40	227.78
873.71	227.82
874.02	227.81
874.33	227.82
874.64	227.80
874.95	227.82
875.26	227.80
875.56	227.84
875.87	227.84
876.18	227.84
876.49	227.93
876.80	227.92
877.11	227.88
877.42	227.89
877.73	227.90
878.04	227.91
878.35	227.89
878.66	227.93
878.96	227.92
879.27	227.97
879.58	227.99
879.89	227.97
880.20	228.00
880.51	228.02
880.82	228.00
881.12	227.99
881.43	227.95
881.74	227.92
882.05	227.87
882.36	227.86
882.67	227.89
882.97	227.80
883.28	227.75
883.59	227.76
883.90	227.78
884.21	227.77
884.51	227.71
884.82	227.72
885.13	227.68
885.44	227.69
885.74	227.62
886.05	227.58
886.36	227.60
886.67	227.52
886.98	227.56
887.28	227.56
887.59	227.55
887.90	227.55
888.20	227.55
888.51	227.54
888.82	227.51
889.13	227.48
889.43	227.52
889.74	227.50
890.05	227.46
890.35	227.39
890.66	227.31
890.97	227.30
891.28	227.21
891.58	227.18
891.89	227.15
892.20	227.14
892.50	227.11
892.81	227.05
893.12	227.06
893.42	226.95
893.73	226.91
894.04	226.89
894.34	226.85
894.65	226.85
894.95	226.85
895.26	226.84
895.57	226.86
895.87	226.76
896.18	226.75
896.48	226.76
896.79	226.74
897.10	226.77
897.40	226.79
897.71	226.82
898.01	226.80
898.32	226.78
898.63	226.76
898.93	226.79
899.24	226.81
899.54	226.77
899.85	226.79
900.15	226.82
900.46	226.81
900.76	226.84
901.07	226.82
901.38	226.80
901.68	226.81
901.99	226.77
902.29	226.76
902.60	226.79
902.90	226.75
903.21	226.75
903.51	226.75
903.82	226.76
904.12	226.77
904.43	226.78
904.73	226.78
905.03	226.83
905.34	226.95
905.64	226.92
905.95	226.96
906.25	226.99
906.56	227.00
906.86	227.02
907.17	227.03
907.47	227.08
907.77	227.09
908.08	227.11
908.38	227.15
908.69	227.19
908.99	227.23
909.30	227.29
909.60	227.30
909.90	227.30
910.21	227.28
910.51	227.28
910.81	227.31
911.12	227.36
911.42	227.37
911.73	227.27
912.03	227.31
912.33	227.34
912.64	227.35
912.94	227.36
913.24	227.36
913.55	227.38
913.85	227.40
914.15	227.44
914.46	227.46
914.76	227.44
915.06	227.41
915.37	227.38
915.67	227.37
915.97	227.42
916.27	227.42
916.58	227.44
916.88	227.47
917.18	227.45
917.49	227.48
917.79	227.46
918.09	227.46
918.39	227.49
918.70	227.50
919.00	227.49
919.30	227.49
919.60	227.46
919.91	227.43
920.21	227.39
920.51	227.36
920.81	227.34
921.12	227.35
921.42	227.39
921.72	227.43
922.02	227.40
922.32	227.38
922.63	227.39
922.93	227.42
923.23	227.40
923.53	227.39
923.83	227.34
924.13	227.35
924.44	227.33
924.74	227.33
925.04	227.31
925.34	227.29
925.64	227.24
925.94	227.26
926.24	227.30
926.55	227.30
926.85	227.26
927.15	227.23
927.45	227.19
927.75	227.14
928.05	227.05
928.35	227.03
928.65	227.02
928.95	227.02
929.26	226.94
929.56	226.96
929.86	226.93
930.16	226.90
930.46	226.85
930.76	226.85
931.06	226.76
931.36	226.72
931.66	226.71
931.96	226.70
932.26	226.67
932.56	226.60
932.86	226.58
933.16	226.62
933.46	226.63
933.76	226.59
934.06	226.60
934.36	226.64
934.66	226.63
934.96	226.61
935.26	226.57
935.56	226.59
935.86	226.56
936.16	226.56
936.46	226.53
936.76	226.55
937.06	226.53
937.36	226.53
937.66	226.52
937.96	226.56
938.26	226.54
938.56	226.56
938.86	226.56
939.16	226.59
939.46	226.57
939.76	226.58
940.06	226.63
940.35	226.60
940.65	226.60
940.95	226.63
941.25	226.61
941.55	226.60
941.85	226.60
942.15	226.62
942.45	226.64
942.75	226.67
943.04	226.68
943.34	226.71
943.64	226.76
943.94	226.77
944.24	226.78
944.54	226.83
944.84	226.82
945.13	226.82
945.43	226.83
945.73	226.83
946.03	226.86
946.33	226.85
946.62	226.86
946.92	226.88
947.22	226.88
947.52	226.93
947.82	227.00
948.11	227.01
948.41	227.01
948.71	227.02
949.01	227.06
949.31	227.08
949.60	227.08
949.90	227.10
950.20	227.11
950.50	227.07
950.79	227.06
951.09	227.10
951.39	227.16
951.69	227.14
951.98	227.18
952.28	227.18
952.58	227.20
952.87	227.22
953.17	227.23
953.47	227.26
953.76	227.24
954.06	227.23
954.36	227.24
954.66	227.27
954.95	227.30
955.25	227.26
955.55	227.29
955.84	227.30
956.14	227.29
956.44	227.30
956.73	227.29
957.03	227.32
957.32	227.29
957.62	227.25
957.92	227.27
958.21	227.25
958.51	227.33
958.81	227.32
959.10	227.33
959.40	227.33
959.69	227.30
959.99	227.33
960.29	227.29
960.58	227.28
960.88	227.28
961.17	227.24
961.47	227.26
961.76	227.21
962.06	227.17
962.36	227.12
962.65	227.11
962.95	227.12
963.24	227.09
963.54	227.10
963.83	227.09
964.13	227.09
964.42	227.05
964.72	227.01
965.01	227.00
965.31	226.95
965.60	226.92
965.90	226.97
966.19	226.93
966.49	226.92
966.78	226.90
967.08	226.87
967.37	226.87
967.67	226.82
967.96	226.83
968.26	226.84
968.55	226.85
968.85	226.84
969.14	226.81
969.43	226.78
969.73	226.74
970.02	226.72
970.32	226.67
970.61	226.64
970.91	226.58
971.20	226.55
971.49	226.54
971.79	226.57
972.08	226.48
972.38	226.49
972.67	226.48
972.96	226.51
973.26	226.51
973.55	226.54
973.85	226.56
974.14	226.56
974.43	226.56
974.73	226.56
975.02	226.55
975.31	226.58
975.61	226.60
975.90	226.61
976.19	226.62
976.49	226.64
976.78	226.68
977.07	226.66
977.37	226.71
977.66	226.75
977.95	226.72
978.24	226.76
978.54	226.77
978.83	226.78
979.12	226.76
979.42	226.76
979.71	226.72
980.00	226.72
980.29	226.74
980.59	226.72
980.88	226.76
981.17	226.78
981.46	226.77
981.76	226.78
982.05	226.85
982.34	226.84
982.63	226.87
982.93	226.88
983.22	226.94
983.51	226.93
983.80	226.96
984.09	227.02
984.39	227.05
984.68	227.06
984.97	227.10
985.26	227.11
985.55	227.12
985.85	227.15
986.14	227.21
986.43	227.22
986.72	227.26
987.01	227.25
987.30	227.27
987.59	227.28
987.89	227.31
988.18	227.28
988.47	227.29
988.76	227.26
989.05	227.28
989.34	227.26
989.63	227.29
989.92	227.23
990.22	227.19
990.51	227.18
990.80	227.17
991.09	227.16
991.38	227.16
991.67	227.17
991.96	227.17
992.25	227.15
992.54	227.11
992.83	227.12
993.12	227.12
993.41	227.11
993.70	227.15
993.99	227.17
994.28	227.17
994.58	227.18
994.87	227.18
995.16	227.18
995.45	227.14
995.74	227.13
996.03	227.17
996.32	227.19
996.61	227.21
996.90	227.21
997.19	227.21
997.48	227.20
997.77	227.17
998.06	227.19
998.34	227.16
998.63	227.17
998.92	227.14
999.21	227.15
999.50	227.15
999.79	227.14
1000.08	227.09
1000.37	227.08
1000.66	227.06
1000.95	227.05
1001.24	227.05
1001.53	227.08
1001.82	227.04
1002.11	227.01
1002.40	227.00
1002.68	226.98
1002.97	227.04
1003.26	227.03
1003.55	227.02
1003.84	227.01
1004.13	226.98
1004.42	226.98
1004.71	226.97
1004.99	226.95
1005.28	226.95
1005.57	226.91
1005.86	226.86
1006.15	226.85
1006.44	226.83
1006.72	226.85
1007.01	226.84
1007.30	226.83
1007.59	226.81
1007.88	226.81
1008.17	226.79
1008.45	226.76
1008.74	226.71
1009.03	226.68
1009.32	226.64
1009.60	226.63
1009.89	226.63
1010.18	226.57
1010.47	226.52
1010.76	226.50
1011.04	226.51
1011.33	226.52
1011.62	226.54
1011.91	226.56
1012.19	226.55
1012.48	226.59
1012.77	226.58
1013.05	226.61
1013.34	226.60
1013.63	226.59
1013.92	226.60
1014.20	226.61
1014.49	226.65
1014.78	226.64
1015.06	226.60
1015.35	226.62
1015.64	226.61
1015.92	226.63
1016.21	226.69
1016.50	226.69
1016.78	226.72
1017.07	226.73
1017.36	226.72
1017.64	226.74
1017.93	226.73
1018.22	226.74
1018.50	226.70
1018.79	226.70
1019.08	226.67
1019.36	226.65
1019.65	226.66
1019.93	226.67
1020.22	226.71
1020.51	226.75
1020.79	226.76
1021.08	226.45
1021.36	226.24
1021.65	226.70
1021.94	226.68
1022.22	226.03
1022.51	226.73
1022.79	227.07
1023.08	227.32
1023.36	227.91
1023.65	226.77
>>>>>End Processed Spectral Data<<<<<
