SpectraSuite Data File
++++++++++++++++++++++++++++++++++++
Date: Fri Feb 01 15:45:55 EST 2013
User: group
Dark Spectrum Present: No
Reference Spectrum Present: No
Number of Sampled Component Spectra: 1
Spectrometers: USB2E7196
Integration Time (usec): 35000 (USB2E7196)
Spectra Averaged: 100 (USB2E7196)
Boxcar Smoothing: 10 (USB2E7196)
Correct for Electrical Dark: No (USB2E7196)
Strobe/Lamp Enabled: No (USB2E7196)
Correct for Detector Non-linearity: No (USB2E7196)
Correct for Stray Light: No (USB2E7196)
Number of Pixels in Processed Spectrum: 2048
>>>>>Begin Processed Spectral Data<<<<<
339.09	0.00
339.48	215.46
339.86	216.27
340.24	218.00
340.63	219.00
341.01	221.77
341.39	222.18
341.78	223.44
342.16	224.31
342.54	225.06
342.93	213.34
343.31	224.14
343.69	224.65
344.07	225.13
344.46	225.54
344.84	225.90
345.22	226.13
345.60	226.37
345.99	226.57
346.37	226.70
346.75	226.79
347.13	226.84
347.52	226.87
347.90	226.94
348.28	227.00
348.66	227.05
349.05	227.07
349.43	227.09
349.81	227.12
350.19	227.15
350.57	227.18
350.96	227.25
351.34	227.30
351.72	227.39
352.10	227.48
352.48	227.54
352.87	227.62
353.25	227.70
353.63	227.76
354.01	227.80
354.39	227.87
354.77	227.96
355.15	228.09
355.54	228.14
355.92	228.17
356.30	228.23
356.68	228.32
357.06	228.36
357.44	228.41
357.82	228.46
358.20	228.57
358.58	228.64
358.97	228.71
359.35	228.78
359.73	228.83
360.11	228.87
360.49	228.94
360.87	228.99
361.25	229.04
361.63	229.10
362.01	229.15
362.39	229.16
362.77	229.20
363.15	229.21
363.53	229.26
363.91	229.29
364.29	229.34
364.67	229.29
365.05	229.29
365.43	229.33
365.81	229.36
366.19	229.39
366.57	229.41
366.95	229.36
367.33	229.38
367.71	229.36
368.09	229.33
368.47	229.31
368.85	229.29
369.23	229.26
369.61	229.19
369.99	229.23
370.37	229.22
370.75	229.20
371.13	229.14
371.51	229.10
371.89	229.06
372.27	229.00
372.65	228.96
373.03	228.94
373.41	228.84
373.78	228.76
374.16	228.64
374.54	228.56
374.92	228.50
375.30	228.40
375.68	228.31
376.06	228.29
376.44	228.22
376.82	228.17
377.19	228.09
377.57	228.05
377.95	227.89
378.33	227.82
378.71	227.70
379.09	227.62
379.47	227.57
379.84	227.48
380.22	227.39
380.60	227.28
380.98	227.20
381.36	227.16
381.73	227.08
382.11	227.06
382.49	227.00
382.87	226.97
383.25	226.90
383.62	226.97
384.00	226.89
384.38	226.85
384.76	226.79
385.13	226.78
385.51	226.70
385.89	226.68
386.27	226.62
386.64	226.60
387.02	226.55
387.40	226.49
387.78	226.47
388.15	226.47
388.53	226.45
388.91	226.40
389.29	226.36
389.66	226.36
390.04	226.31
390.42	226.29
390.79	226.26
391.17	226.25
391.55	226.12
391.92	226.10
392.30	226.08
392.68	226.07
393.05	226.08
393.43	226.09
393.81	226.10
394.18	226.10
394.56	226.14
394.94	226.20
395.31	226.19
395.69	226.26
396.06	226.31
396.44	226.35
396.82	226.42
397.19	226.54
397.57	226.60
397.95	226.64
398.32	226.70
398.70	226.75
399.07	226.84
399.45	226.92
399.82	227.00
400.20	227.07
400.58	227.17
400.95	227.21
401.33	227.34
401.70	227.46
402.08	227.57
402.45	227.63
402.83	227.75
403.20	227.88
403.58	227.97
403.95	228.11
404.33	228.25
404.71	228.36
405.08	228.52
405.46	228.62
405.83	228.80
406.21	228.97
406.58	229.16
406.96	229.32
407.33	229.49
407.70	229.67
408.08	229.97
408.45	230.18
408.83	230.43
409.20	230.61
409.58	230.81
409.95	231.10
410.33	231.40
410.70	231.64
411.08	231.94
411.45	232.21
411.82	232.48
412.20	232.82
412.57	233.25
412.95	233.55
413.32	233.99
413.69	234.35
414.07	234.78
414.44	235.23
414.82	235.67
415.19	236.21
415.56	236.76
415.94	237.29
416.31	237.93
416.68	238.54
417.06	239.29
417.43	239.97
417.81	240.70
418.18	241.47
418.55	242.29
418.93	243.17
419.30	244.09
419.67	245.02
420.04	246.00
420.42	246.95
420.79	248.13
421.16	249.26
421.54	250.46
421.91	251.65
422.28	252.92
422.66	254.29
423.03	255.61
423.40	256.95
423.77	258.36
424.15	259.80
424.52	261.27
424.89	262.84
425.26	264.37
425.64	265.81
426.01	267.40
426.38	269.08
426.75	270.72
427.13	272.45
427.50	274.25
427.87	276.12
428.24	277.97
428.61	279.72
428.99	281.65
429.36	283.75
429.73	285.82
430.10	287.82
430.47	289.84
430.85	291.97
431.22	294.20
431.59	296.53
431.96	298.76
432.33	301.25
432.70	303.63
433.08	306.49
433.45	309.15
433.82	311.77
434.19	314.68
434.56	317.53
434.93	320.17
435.30	322.78
435.68	325.69
436.05	328.52
436.42	331.32
436.79	333.84
437.16	336.54
437.53	339.39
437.90	342.25
438.27	345.04
438.64	347.91
439.01	350.52
439.38	352.81
439.75	355.01
440.13	357.52
440.50	359.83
440.87	361.70
441.24	363.62
441.61	365.82
441.98	367.26
442.35	369.08
442.72	370.96
443.09	372.81
443.46	373.79
443.83	374.44
444.20	374.93
444.57	375.78
444.94	376.07
445.31	376.39
445.68	376.69
446.05	376.74
446.42	376.31
446.79	375.92
447.16	375.45
447.53	375.10
447.90	373.91
448.27	372.74
448.64	371.11
449.01	369.99
449.37	367.94
449.74	366.04
450.11	363.76
450.48	361.26
450.85	358.72
451.22	356.60
451.59	354.55
451.96	352.66
452.33	350.08
452.70	347.78
453.07	344.96
453.43	342.05
453.80	339.27
454.17	336.60
454.54	334.01
454.91	331.27
455.28	328.58
455.65	326.11
456.02	323.68
456.38	321.50
456.75	318.79
457.12	316.53
457.49	314.32
457.86	312.16
458.23	310.30
458.59	308.24
458.96	306.11
459.33	304.25
459.70	302.36
460.07	300.85
460.43	299.08
460.80	297.45
461.17	296.07
461.54	294.61
461.91	293.16
462.27	291.72
462.64	290.43
463.01	289.10
463.38	287.79
463.74	286.40
464.11	285.26
464.48	284.27
464.85	283.22
465.21	282.33
465.58	281.43
465.95	280.34
466.32	279.43
466.68	278.54
467.05	277.64
467.42	276.75
467.78	275.75
468.15	274.89
468.52	274.21
468.88	273.29
469.25	272.50
469.62	271.90
469.98	271.24
470.35	270.64
470.72	270.02
471.08	269.38
471.45	268.85
471.82	268.31
472.18	267.71
472.55	267.24
472.92	266.72
473.28	266.25
473.65	265.82
474.02	265.38
474.38	265.00
474.75	264.69
475.11	264.32
475.48	264.11
475.85	263.89
476.21	263.68
476.58	263.53
476.94	263.36
477.31	263.19
477.67	263.02
478.04	262.93
478.41	262.90
478.77	262.94
479.14	262.92
479.50	262.94
479.87	263.00
480.23	263.09
480.60	263.21
480.96	263.30
481.33	263.51
481.69	263.70
482.06	263.91
482.42	264.09
482.79	264.39
483.15	264.68
483.52	265.08
483.88	265.41
484.25	265.80
484.61	266.27
484.98	266.77
485.34	267.39
485.71	267.93
486.07	268.53
486.44	269.11
486.80	269.81
487.17	270.57
487.53	271.41
487.90	272.27
488.26	273.15
488.62	274.14
488.99	275.09
489.35	276.15
489.72	277.27
490.08	278.50
490.44	279.75
490.81	281.10
491.17	282.41
491.54	283.93
491.90	285.49
492.26	287.12
492.63	288.79
492.99	290.53
493.36	292.46
493.72	294.48
494.08	296.57
494.45	298.82
494.81	301.15
495.17	303.57
495.54	306.11
495.90	308.83
496.26	311.62
496.63	314.60
496.99	317.67
497.35	320.90
497.72	324.30
498.08	327.76
498.44	331.40
498.80	335.35
499.17	339.32
499.53	343.44
499.89	347.81
500.26	352.31
500.62	357.00
500.98	361.95
501.34	367.05
501.71	372.37
502.07	377.79
502.43	383.44
502.79	389.25
503.16	395.33
503.52	401.59
503.88	407.99
504.24	414.62
504.60	421.58
504.97	428.74
505.33	436.09
505.69	443.77
506.05	451.57
506.41	459.47
506.78	467.62
507.14	476.17
507.50	484.88
507.86	493.96
508.22	503.11
508.59	512.34
508.95	521.96
509.31	531.73
509.67	541.84
510.03	552.17
510.39	562.71
510.75	573.47
511.12	584.46
511.48	595.76
511.84	607.19
512.20	618.60
512.56	630.58
512.92	642.79
513.28	655.21
513.64	667.67
514.00	680.32
514.37	693.31
514.73	706.31
515.09	719.37
515.45	732.65
515.81	746.30
516.17	760.31
516.53	774.44
516.89	788.68
517.25	802.84
517.61	817.20
517.97	831.66
518.33	846.16
518.69	860.89
519.05	875.95
519.41	891.28
519.77	906.90
520.13	922.34
520.49	937.72
520.85	953.20
521.21	968.97
521.57	985.31
521.93	1001.05
522.29	1017.39
522.65	1033.67
523.01	1049.90
523.37	1066.01
523.73	1082.17
524.09	1098.22
524.45	1114.57
524.81	1131.25
525.17	1148.17
525.53	1165.08
525.89	1181.96
526.25	1198.87
526.61	1215.21
526.97	1231.83
527.33	1248.23
527.68	1264.92
528.04	1281.35
528.40	1297.83
528.76	1314.95
529.12	1331.46
529.48	1348.41
529.84	1364.47
530.20	1381.14
530.56	1398.15
530.91	1415.45
531.27	1432.18
531.63	1448.71
531.99	1465.25
532.35	1481.20
532.71	1496.98
533.07	1513.25
533.42	1529.19
533.78	1545.18
534.14	1561.47
534.50	1576.91
534.86	1592.93
535.21	1608.04
535.57	1624.03
535.93	1639.56
536.29	1654.30
536.65	1669.36
537.00	1684.20
537.36	1699.48
537.72	1713.92
538.08	1728.30
538.44	1742.07
538.79	1755.96
539.15	1769.58
539.51	1783.38
539.87	1797.76
540.22	1811.57
540.58	1825.35
540.94	1838.67
541.29	1851.59
541.65	1864.27
542.01	1877.45
542.37	1889.73
542.72	1902.08
543.08	1913.75
543.44	1926.19
543.79	1937.27
544.15	1948.24
544.51	1959.76
544.87	1970.72
545.22	1981.48
545.58	1991.73
545.94	2001.64
546.29	2011.54
546.65	2021.45
547.01	2030.62
547.36	2039.28
547.72	2047.66
548.07	2055.55
548.43	2063.65
548.79	2071.70
549.14	2079.16
549.50	2086.43
549.86	2093.99
550.21	2101.35
550.57	2108.49
550.92	2115.00
551.28	2122.18
551.64	2129.34
551.99	2135.80
552.35	2141.92
552.70	2148.18
553.06	2154.17
553.41	2160.42
553.77	2166.34
554.13	2172.40
554.48	2178.57
554.84	2184.13
555.19	2189.48
555.55	2194.50
555.90	2199.12
556.26	2203.84
556.61	2208.64
556.97	2213.00
557.32	2217.26
557.68	2221.47
558.03	2225.80
558.39	2229.66
558.74	2234.23
559.10	2238.04
559.45	2241.85
559.81	2246.26
560.16	2250.17
560.52	2253.41
560.87	2256.91
561.23	2259.75
561.58	2262.65
561.94	2265.24
562.29	2267.57
562.64	2270.24
563.00	2272.90
563.35	2276.39
563.71	2279.50
564.06	2282.77
564.42	2285.47
564.77	2287.90
565.12	2290.15
565.48	2292.02
565.83	2293.65
566.19	2294.93
566.54	2295.91
566.89	2296.91
567.25	2297.46
567.60	2298.66
567.96	2300.26
568.31	2301.11
568.66	2302.14
569.02	2302.63
569.37	2302.86
569.72	2303.62
570.08	2303.63
570.43	2303.75
570.78	2303.09
571.14	2301.59
571.49	2300.19
571.84	2299.98
572.20	2298.92
572.55	2297.75
572.90	2296.27
573.26	2295.00
573.61	2293.35
573.96	2291.46
574.31	2288.41
574.67	2285.42
575.02	2281.75
575.37	2278.39
575.72	2274.55
576.08	2271.25
576.43	2267.99
576.78	2264.31
577.13	2261.25
577.49	2258.30
577.84	2254.66
578.19	2250.95
578.54	2247.35
578.90	2243.04
579.25	2237.46
579.60	2232.39
579.95	2227.39
580.30	2222.30
580.66	2217.17
581.01	2212.24
581.36	2207.40
581.71	2203.33
582.06	2198.79
582.42	2194.35
582.77	2189.08
583.12	2184.41
583.47	2179.53
583.82	2174.49
584.17	2169.27
584.53	2163.71
584.88	2158.11
585.23	2152.30
585.58	2146.71
585.93	2141.22
586.28	2136.50
586.63	2131.35
586.98	2126.33
587.34	2121.77
587.69	2116.93
588.04	2111.43
588.39	2105.64
588.74	2099.05
589.09	2092.78
589.44	2085.97
589.79	2080.15
590.14	2074.57
590.49	2068.07
590.84	2061.69
591.19	2055.58
591.54	2049.00
591.89	2041.55
592.25	2034.59
592.60	2027.42
592.95	2019.87
593.30	2012.54
593.65	2004.96
594.00	1997.92
594.35	1990.63
594.70	1982.49
595.05	1975.11
595.40	1968.05
595.75	1960.57
596.10	1954.27
596.45	1947.61
596.80	1941.53
597.15	1934.62
597.50	1927.38
597.85	1921.01
598.19	1914.34
598.54	1907.25
598.89	1900.64
599.24	1894.81
599.59	1888.04
599.94	1881.90
600.29	1875.55
600.64	1869.09
600.99	1861.54
601.34	1854.76
601.69	1847.78
602.04	1840.96
602.39	1833.60
602.74	1826.63
603.08	1820.01
603.43	1813.40
603.78	1806.13
604.13	1798.79
604.48	1791.46
604.83	1784.71
605.18	1777.57
605.53	1769.58
605.87	1761.61
606.22	1754.37
606.57	1746.36
606.92	1739.13
607.27	1731.78
607.62	1724.84
607.96	1717.43
608.31	1710.85
608.66	1703.15
609.01	1695.51
609.36	1687.79
609.70	1679.86
610.05	1671.81
610.40	1664.03
610.75	1655.66
611.10	1647.91
611.44	1639.56
611.79	1631.65
612.14	1622.94
612.49	1613.88
612.83	1605.53
613.18	1597.30
613.53	1589.23
613.88	1580.70
614.22	1572.41
614.57	1563.98
614.92	1555.89
615.27	1548.32
615.61	1539.91
615.96	1531.95
616.31	1524.38
616.65	1517.14
617.00	1509.57
617.35	1501.90
617.70	1493.47
618.04	1485.02
618.39	1476.77
618.74	1469.20
619.08	1460.87
619.43	1453.25
619.78	1446.30
620.12	1439.05
620.47	1431.57
620.82	1423.49
621.16	1416.17
621.51	1408.63
621.85	1400.99
622.20	1392.47
622.55	1384.17
622.89	1376.39
623.24	1368.78
623.59	1361.40
623.93	1353.79
624.28	1346.60
624.62	1339.09
624.97	1332.04
625.32	1325.32
625.66	1318.35
626.01	1311.20
626.35	1303.67
626.70	1295.95
627.04	1288.10
627.39	1280.37
627.73	1273.03
628.08	1265.98
628.43	1258.53
628.77	1251.07
629.12	1243.48
629.46	1236.37
629.81	1228.94
630.15	1221.66
630.50	1214.19
630.84	1205.94
631.19	1197.95
631.53	1190.38
631.88	1182.84
632.22	1175.20
632.57	1167.84
632.91	1160.22
633.26	1152.78
633.60	1145.55
633.95	1138.49
634.29	1131.60
634.64	1124.83
634.98	1117.38
635.32	1110.29
635.67	1103.71
636.01	1097.10
636.36	1090.26
636.70	1083.70
637.05	1077.14
637.39	1070.69
637.73	1064.21
638.08	1058.44
638.42	1052.49
638.77	1046.02
639.11	1039.33
639.45	1032.97
639.80	1026.31
640.14	1019.93
640.49	1013.34
640.83	1006.92
641.17	1000.56
641.52	994.09
641.86	987.76
642.20	982.00
642.55	975.71
642.89	969.26
643.23	962.67
643.58	956.90
643.92	950.72
644.26	944.56
644.61	938.55
644.95	932.46
645.29	925.79
645.64	919.10
645.98	912.79
646.32	907.00
646.66	900.94
647.01	895.14
647.35	889.43
647.69	883.59
648.04	878.03
648.38	872.30
648.72	866.24
649.06	860.16
649.41	854.23
649.75	848.26
650.09	842.28
650.43	836.53
650.78	830.41
651.12	824.42
651.46	818.75
651.80	813.03
652.14	807.76
652.49	802.41
652.83	797.23
653.17	791.58
653.51	785.90
653.85	780.56
654.20	774.84
654.54	768.78
654.88	763.09
655.22	757.22
655.56	751.57
655.90	746.21
656.25	741.02
656.59	735.67
656.93	730.50
657.27	725.27
657.61	719.85
657.95	714.69
658.29	709.67
658.64	704.40
658.98	699.09
659.32	693.54
659.66	688.32
660.00	682.96
660.34	677.99
660.68	673.06
661.02	667.92
661.36	663.22
661.70	658.74
662.05	654.31
662.39	649.97
662.73	645.49
663.07	641.13
663.41	636.63
663.75	632.14
664.09	627.60
664.43	623.33
664.77	619.19
665.11	614.91
665.45	610.73
665.79	606.60
666.13	602.43
666.47	598.37
666.81	594.17
667.15	590.04
667.49	586.14
667.83	582.38
668.17	578.47
668.51	574.37
668.85	570.41
669.19	566.60
669.53	562.81
669.87	558.91
670.21	555.18
670.55	551.53
670.89	548.11
671.23	544.66
671.57	541.13
671.91	537.62
672.25	534.16
672.58	530.62
672.92	527.29
673.26	524.12
673.60	520.97
673.94	517.87
674.28	514.99
674.62	512.01
674.96	508.84
675.30	505.91
675.64	503.04
675.97	500.21
676.31	497.32
676.65	494.36
676.99	491.62
677.33	488.76
677.67	485.89
678.01	482.83
678.34	479.86
678.68	476.99
679.02	474.15
679.36	471.37
679.70	468.70
680.04	465.91
680.37	463.05
680.71	460.23
681.05	457.68
681.39	454.92
681.73	452.25
682.06	449.69
682.40	447.15
682.74	444.63
683.08	442.04
683.42	439.48
683.75	437.00
684.09	434.42
684.43	431.93
684.77	429.53
685.10	427.19
685.44	424.92
685.78	422.64
686.12	420.42
686.45	418.18
686.79	415.84
687.13	413.64
687.46	411.48
687.80	409.34
688.14	407.12
688.48	405.10
688.81	402.87
689.15	400.74
689.49	398.65
689.82	396.57
690.16	394.55
690.50	392.63
690.83	390.73
691.17	388.87
691.51	387.04
691.84	385.19
692.18	383.23
692.52	381.25
692.85	379.30
693.19	377.38
693.52	375.54
693.86	373.78
694.20	372.00
694.53	370.19
694.87	368.34
695.21	366.53
695.54	364.69
695.88	363.04
696.21	361.31
696.55	359.60
696.88	357.91
697.22	356.27
697.56	354.62
697.89	352.90
698.23	351.25
698.56	349.65
698.90	348.05
699.23	346.42
699.57	344.87
699.90	343.35
700.24	341.82
700.58	340.26
700.91	338.75
701.25	337.29
701.58	335.92
701.92	334.57
702.25	333.21
702.59	331.86
702.92	330.48
703.26	329.20
703.59	327.90
703.93	326.75
704.26	325.50
704.60	324.19
704.93	322.97
705.26	321.70
705.60	320.50
705.93	319.33
706.27	318.31
706.60	317.24
706.94	316.17
707.27	315.01
707.61	313.97
707.94	312.96
708.27	311.88
708.61	310.81
708.94	309.79
709.28	308.80
709.61	307.86
709.94	306.92
710.28	305.90
710.61	304.94
710.95	303.82
711.28	302.88
711.61	301.95
711.95	301.01
712.28	300.07
712.61	299.07
712.95	298.10
713.28	297.20
713.61	296.30
713.95	295.40
714.28	294.56
714.61	293.68
714.95	292.83
715.28	291.96
715.61	291.08
715.95	290.23
716.28	289.37
716.61	288.47
716.95	287.66
717.28	286.87
717.61	286.06
717.94	285.31
718.28	284.49
718.61	283.77
718.94	283.08
719.27	282.39
719.61	281.72
719.94	281.08
720.27	280.40
720.60	279.72
720.94	279.07
721.27	278.51
721.60	277.93
721.93	277.30
722.27	276.76
722.60	276.22
722.93	275.68
723.26	275.15
723.59	274.64
723.93	274.10
724.26	273.57
724.59	273.04
724.92	272.55
725.25	272.08
725.59	271.57
725.92	271.04
726.25	270.56
726.58	270.09
726.91	269.61
727.24	269.12
727.57	268.67
727.91	268.19
728.24	267.75
728.57	267.26
728.90	266.83
729.23	266.37
729.56	265.94
729.89	265.47
730.22	264.99
730.55	264.50
730.89	264.04
731.22	263.60
731.55	263.20
731.88	262.78
732.21	262.36
732.54	261.93
732.87	261.53
733.20	261.12
733.53	260.76
733.86	260.39
734.19	259.98
734.52	259.62
734.85	259.27
735.18	258.85
735.51	258.53
735.84	258.12
736.17	257.77
736.50	257.39
736.83	257.13
737.16	256.83
737.49	256.50
737.82	256.16
738.15	255.85
738.48	255.51
738.81	255.17
739.14	254.82
739.47	254.51
739.80	254.19
740.13	253.89
740.46	253.55
740.79	253.21
741.12	252.94
741.45	252.62
741.78	252.29
742.11	251.99
742.44	251.62
742.77	251.33
743.10	251.02
743.43	250.72
743.75	250.33
744.08	250.16
744.41	249.89
744.74	249.67
745.07	249.38
745.40	249.11
745.73	248.84
746.06	248.59
746.39	248.30
746.71	248.03
747.04	247.75
747.37	247.49
747.70	247.23
748.03	246.97
748.36	246.72
748.68	246.48
749.01	246.21
749.34	245.98
749.67	245.78
750.00	245.57
750.33	245.39
750.65	245.18
750.98	244.83
751.31	244.60
751.64	244.35
751.97	244.15
752.29	243.94
752.62	243.69
752.95	243.47
753.28	243.25
753.60	243.04
753.93	242.84
754.26	242.64
754.59	242.42
754.91	242.19
755.24	242.00
755.57	241.78
755.90	241.62
756.22	241.44
756.55	241.22
756.88	241.02
757.20	240.79
757.53	240.58
757.86	240.42
758.19	240.25
758.51	240.11
758.84	239.92
759.17	239.74
759.49	239.58
759.82	239.46
760.15	239.31
760.47	239.19
760.80	239.04
761.13	238.90
761.45	238.75
761.78	238.63
762.11	238.47
762.43	238.37
762.76	238.21
763.08	238.08
763.41	237.96
763.74	237.82
764.06	237.70
764.39	237.58
764.71	237.43
765.04	237.29
765.37	237.15
765.69	237.02
766.02	236.88
766.34	236.79
766.67	236.65
767.00	236.57
767.32	236.48
767.65	236.41
767.97	236.30
768.30	236.19
768.62	236.09
768.95	235.99
769.27	235.86
769.60	235.81
769.92	235.69
770.25	235.57
770.57	235.48
770.90	235.41
771.22	235.31
771.55	235.22
771.87	235.13
772.20	235.04
772.52	235.07
772.85	235.13
773.17	235.02
773.50	234.94
773.82	234.83
774.15	234.70
774.47	234.56
774.80	234.51
775.12	234.44
775.45	234.36
775.77	234.27
776.09	234.20
776.42	234.10
776.74	234.07
777.07	233.99
777.39	233.90
777.72	233.79
778.04	233.75
778.36	233.68
778.69	233.63
779.01	233.55
779.33	233.36
779.66	233.16
779.98	233.09
780.31	233.00
780.63	232.99
780.95	232.96
781.28	232.90
781.60	232.79
781.92	232.72
782.25	232.66
782.57	232.63
782.89	232.57
783.22	232.52
783.54	232.45
783.86	232.41
784.19	232.33
784.51	232.32
784.83	232.25
785.16	232.19
785.48	232.11
785.80	232.08
786.12	232.06
786.45	232.01
786.77	231.99
787.09	231.94
787.42	231.86
787.74	231.80
788.06	231.80
788.38	231.76
788.71	231.70
789.03	231.64
789.35	231.58
789.67	231.52
789.99	231.49
790.32	231.38
790.64	231.35
790.96	231.39
791.28	231.31
791.61	231.28
791.93	231.25
792.25	231.24
792.57	231.28
792.89	231.22
793.21	231.21
793.54	231.16
793.86	231.13
794.18	231.11
794.50	231.08
794.82	231.00
795.14	230.97
795.47	230.93
795.79	230.89
796.11	230.85
796.43	230.84
796.75	230.79
797.07	230.77
797.39	230.73
797.71	230.65
798.04	230.63
798.36	230.58
798.68	230.53
799.00	230.47
799.32	230.38
799.64	230.35
799.96	230.29
800.28	230.25
800.60	230.19
800.92	230.16
801.24	230.08
801.56	230.07
801.89	230.02
802.21	229.98
802.53	229.94
802.85	229.91
803.17	229.90
803.49	229.84
803.81	229.80
804.13	229.78
804.45	229.70
804.77	229.67
805.09	229.63
805.41	229.59
805.73	229.56
806.05	229.50
806.37	229.46
806.69	229.43
807.01	229.41
807.33	229.42
807.65	229.34
807.97	229.39
808.28	229.35
808.60	229.34
808.92	229.32
809.24	229.38
809.56	229.36
809.88	229.28
810.20	229.26
810.52	229.26
810.84	229.20
811.16	229.18
811.48	229.16
811.80	229.18
812.12	229.16
812.43	229.17
812.75	229.13
813.07	229.11
813.39	229.11
813.71	229.08
814.03	229.02
814.35	229.01
814.67	228.92
814.98	228.89
815.30	228.86
815.62	228.81
815.94	228.72
816.26	228.74
816.58	228.74
816.89	228.73
817.21	228.71
817.53	228.72
817.85	228.71
818.17	228.67
818.48	228.63
818.80	228.65
819.12	228.59
819.44	228.58
819.76	228.57
820.07	228.52
820.39	228.50
820.71	228.51
821.03	228.51
821.34	228.49
821.66	228.50
821.98	228.51
822.30	228.49
822.61	228.55
822.93	228.48
823.25	228.45
823.57	228.43
823.88	228.44
824.20	228.42
824.52	228.43
824.83	228.43
825.15	228.38
825.47	228.36
825.79	228.35
826.10	228.35
826.42	228.33
826.74	228.32
827.05	228.27
827.37	228.25
827.69	228.21
828.00	228.20
828.32	228.20
828.64	228.16
828.95	228.22
829.27	228.14
829.58	228.13
829.90	228.14
830.22	228.16
830.53	228.14
830.85	228.09
831.17	228.04
831.48	228.02
831.80	228.03
832.11	228.00
832.43	227.97
832.75	227.95
833.06	227.96
833.38	227.91
833.69	227.93
834.01	227.91
834.32	227.90
834.64	227.90
834.96	227.87
835.27	227.91
835.59	227.88
835.90	227.88
836.22	227.82
836.53	227.81
836.85	227.77
837.16	227.85
837.48	227.83
837.79	227.84
838.11	227.83
838.42	227.84
838.74	227.85
839.05	227.85
839.37	227.85
839.68	227.81
840.00	227.83
840.31	227.85
840.63	227.81
840.94	227.81
841.26	227.79
841.57	227.77
841.88	227.75
842.20	227.72
842.51	227.68
842.83	227.72
843.14	227.77
843.46	227.73
843.77	227.66
844.08	227.67
844.40	227.66
844.71	227.64
845.03	227.58
845.34	227.56
845.65	227.56
845.97	227.56
846.28	227.57
846.60	227.55
846.91	227.51
847.22	227.52
847.54	227.53
847.85	227.50
848.16	227.48
848.48	227.45
848.79	227.48
849.10	227.48
849.42	227.47
849.73	227.39
850.04	227.41
850.36	227.38
850.67	227.41
850.98	227.44
851.30	227.46
851.61	227.48
851.92	227.48
852.23	227.50
852.55	227.50
852.86	227.48
853.17	227.51
853.49	227.55
853.80	227.56
854.11	227.53
854.42	227.59
854.74	227.60
855.05	227.61
855.36	227.57
855.67	227.57
855.99	227.58
856.30	227.69
856.61	227.67
856.92	227.66
857.23	227.65
857.55	227.64
857.86	227.63
858.17	227.65
858.48	227.65
858.79	227.61
859.11	227.62
859.42	227.61
859.73	227.60
860.04	227.56
860.35	227.54
860.66	227.52
860.98	227.51
861.29	227.50
861.60	227.47
861.91	227.49
862.22	227.47
862.53	227.43
862.84	227.30
863.16	227.34
863.47	227.31
863.78	227.26
864.09	227.24
864.40	227.25
864.71	227.25
865.02	227.26
865.33	227.24
865.64	227.22
865.95	227.22
866.27	227.22
866.58	227.22
866.89	227.24
867.20	227.24
867.51	227.18
867.82	227.17
868.13	227.19
868.44	227.15
868.75	227.17
869.06	227.16
869.37	227.16
869.68	227.15
869.99	227.14
870.30	227.16
870.61	227.17
870.92	227.14
871.23	227.11
871.54	227.11
871.85	227.15
872.16	227.13
872.47	227.10
872.78	227.07
873.09	227.08
873.40	227.04
873.71	227.03
874.02	227.04
874.33	227.03
874.64	227.04
874.95	227.08
875.26	227.05
875.56	227.07
875.87	227.07
876.18	227.04
876.49	227.20
876.80	227.19
877.11	227.16
877.42	227.21
877.73	227.19
878.04	227.14
878.35	227.13
878.66	227.16
878.96	227.16
879.27	227.16
879.58	227.19
879.89	227.19
880.20	227.25
880.51	227.24
880.82	227.24
881.12	227.24
881.43	227.21
881.74	227.21
882.05	227.20
882.36	227.24
882.67	227.25
882.97	227.10
883.28	227.12
883.59	227.11
883.90	227.10
884.21	227.16
884.51	227.19
884.82	227.15
885.13	227.16
885.44	227.20
885.74	227.21
886.05	227.18
886.36	227.22
886.67	227.16
886.98	227.23
887.28	227.24
887.59	227.26
887.90	227.26
888.20	227.26
888.51	227.27
888.82	227.23
889.13	227.24
889.43	227.33
889.74	227.33
890.05	227.32
890.35	227.36
890.66	227.34
890.97	227.35
891.28	227.36
891.58	227.35
891.89	227.34
892.20	227.33
892.50	227.32
892.81	227.32
893.12	227.32
893.42	227.25
893.73	227.28
894.04	227.29
894.34	227.31
894.65	227.32
894.95	227.31
895.26	227.33
895.57	227.36
895.87	227.25
896.18	227.23
896.48	227.27
896.79	227.21
897.10	227.19
897.40	227.17
897.71	227.20
898.01	227.21
898.32	227.23
898.63	227.22
898.93	227.24
899.24	227.23
899.54	227.20
899.85	227.20
900.15	227.20
900.46	227.16
900.76	227.18
901.07	227.18
901.38	227.20
901.68	227.18
901.99	227.12
902.29	227.14
902.60	227.14
902.90	227.09
903.21	227.10
903.51	227.11
903.82	227.12
904.12	227.07
904.43	227.05
904.73	227.01
905.03	227.00
905.34	227.06
905.64	227.02
905.95	227.05
906.25	227.04
906.56	227.01
906.86	227.03
907.17	226.98
907.47	226.95
907.77	226.92
908.08	226.88
908.38	226.88
908.69	226.88
908.99	226.91
909.30	226.89
909.60	226.87
909.90	226.87
910.21	226.82
910.51	226.84
910.81	226.80
911.12	226.81
911.42	226.79
911.73	226.71
912.03	226.74
912.33	226.72
912.64	226.73
912.94	226.73
913.24	226.68
913.55	226.68
913.85	226.65
914.15	226.65
914.46	226.68
914.76	226.66
915.06	226.67
915.37	226.64
915.67	226.65
915.97	226.64
916.27	226.62
916.58	226.63
916.88	226.59
917.18	226.60
917.49	226.66
917.79	226.68
918.09	226.70
918.39	226.70
918.70	226.73
919.00	226.73
919.30	226.78
919.60	226.80
919.91	226.82
920.21	226.85
920.51	226.88
920.81	226.88
921.12	226.91
921.42	226.89
921.72	226.94
922.02	226.96
922.32	227.01
922.63	227.00
922.93	227.10
923.23	227.11
923.53	227.09
923.83	227.04
924.13	227.05
924.44	227.03
924.74	227.05
925.04	227.07
925.34	227.04
925.64	226.96
925.94	226.95
926.24	227.01
926.55	226.99
926.85	226.98
927.15	227.01
927.45	227.00
927.75	226.99
928.05	226.99
928.35	226.96
928.65	226.97
928.95	227.00
929.26	226.91
929.56	226.95
929.86	227.00
930.16	226.99
930.46	226.98
930.76	227.00
931.06	226.98
931.36	226.95
931.66	227.00
931.96	227.07
932.26	227.09
932.56	227.02
932.86	227.07
933.16	227.06
933.46	227.05
933.76	227.05
934.06	227.09
934.36	227.10
934.66	227.15
934.96	227.11
935.26	227.09
935.56	227.12
935.86	227.10
936.16	227.09
936.46	227.11
936.76	227.14
937.06	227.13
937.36	227.12
937.66	227.14
937.96	227.13
938.26	227.09
938.56	227.10
938.86	227.08
939.16	227.09
939.46	227.11
939.76	227.13
940.06	227.11
940.35	227.08
940.65	227.03
940.95	227.03
941.25	227.03
941.55	227.06
941.85	227.04
942.15	227.05
942.45	227.04
942.75	227.01
943.04	227.03
943.34	227.01
943.64	227.01
943.94	227.01
944.24	227.00
944.54	227.01
944.84	226.96
945.13	226.97
945.43	226.91
945.73	226.90
946.03	226.88
946.33	226.87
946.62	226.86
946.92	226.83
947.22	226.79
947.52	226.79
947.82	226.75
948.11	226.74
948.41	226.71
948.71	226.72
949.01	226.73
949.31	226.64
949.60	226.65
949.90	226.66
950.20	226.60
950.50	226.56
950.79	226.55
951.09	226.56
951.39	226.55
951.69	226.56
951.98	226.57
952.28	226.56
952.58	226.56
952.87	226.55
953.17	226.58
953.47	226.59
953.76	226.58
954.06	226.57
954.36	226.55
954.66	226.54
954.95	226.55
955.25	226.55
955.55	226.58
955.84	226.58
956.14	226.55
956.44	226.58
956.73	226.61
957.03	226.62
957.32	226.64
957.62	226.67
957.92	226.72
958.21	226.74
958.51	226.87
958.81	226.89
959.10	226.93
959.40	226.97
959.69	226.99
959.99	226.99
960.29	227.01
960.58	227.00
960.88	227.05
961.17	227.06
961.47	227.07
961.76	227.06
962.06	227.10
962.36	227.13
962.65	227.15
962.95	227.16
963.24	227.17
963.54	227.16
963.83	227.15
964.13	227.16
964.42	227.12
964.72	227.05
965.01	227.06
965.31	227.06
965.60	227.02
965.90	227.09
966.19	227.08
966.49	227.12
966.78	227.16
967.08	227.17
967.37	227.19
967.67	227.20
967.96	227.24
968.26	227.24
968.55	227.25
968.85	227.26
969.14	227.24
969.43	227.22
969.73	227.24
970.02	227.25
970.32	227.22
970.61	227.26
970.91	227.20
971.20	227.19
971.49	227.17
971.79	227.19
972.08	227.10
972.38	227.14
972.67	227.14
972.96	227.16
973.26	227.13
973.55	227.16
973.85	227.17
974.14	227.17
974.43	227.20
974.73	227.16
975.02	227.18
975.31	227.18
975.61	227.18
975.90	227.17
976.19	227.13
976.49	227.11
976.78	227.06
977.07	227.05
977.37	227.06
977.66	227.07
977.95	227.05
978.24	227.06
978.54	227.05
978.83	227.04
979.12	226.99
979.42	226.98
979.71	226.92
980.00	226.91
980.29	226.89
980.59	226.83
980.88	226.85
981.17	226.80
981.46	226.76
981.76	226.77
982.05	226.75
982.34	226.78
982.63	226.82
982.93	226.84
983.22	226.86
983.51	226.85
983.80	226.85
984.09	226.86
984.39	226.84
984.68	226.81
984.97	226.82
985.26	226.81
985.55	226.82
985.85	226.78
986.14	226.75
986.43	226.75
986.72	226.75
987.01	226.70
987.30	226.71
987.59	226.73
987.89	226.74
988.18	226.75
988.47	226.71
988.76	226.66
989.05	226.62
989.34	226.61
989.63	226.64
989.92	226.63
990.22	226.61
990.51	226.59
990.80	226.61
991.09	226.60
991.38	226.59
991.67	226.58
991.96	226.59
992.25	226.60
992.54	226.61
992.83	226.57
993.12	226.60
993.41	226.62
993.70	226.68
993.99	226.70
994.28	226.72
994.58	226.76
994.87	226.78
995.16	226.82
995.45	226.80
995.74	226.77
996.03	226.76
996.32	226.80
996.61	226.81
996.90	226.81
997.19	226.80
997.48	226.80
997.77	226.81
998.06	226.82
998.34	226.81
998.63	226.79
998.92	226.81
999.21	226.81
999.50	226.83
999.79	226.78
1000.08	226.75
1000.37	226.73
1000.66	226.71
1000.95	226.72
1001.24	226.72
1001.53	226.76
1001.82	226.78
1002.11	226.80
1002.40	226.82
1002.68	226.86
1002.97	226.94
1003.26	226.96
1003.55	226.96
1003.84	226.95
1004.13	226.99
1004.42	226.98
1004.71	227.01
1004.99	227.03
1005.28	227.02
1005.57	227.01
1005.86	226.99
1006.15	226.99
1006.44	226.96
1006.72	226.97
1007.01	226.97
1007.30	226.98
1007.59	226.97
1007.88	226.97
1008.17	226.95
1008.45	226.92
1008.74	226.89
1009.03	226.85
1009.32	226.81
1009.60	226.80
1009.89	226.79
1010.18	226.75
1010.47	226.76
1010.76	226.77
1011.04	226.77
1011.33	226.81
1011.62	226.80
1011.91	226.82
1012.19	226.85
1012.48	226.89
1012.77	226.89
1013.05	226.93
1013.34	226.89
1013.63	226.86
1013.92	226.87
1014.20	226.86
1014.49	226.88
1014.78	226.88
1015.06	226.82
1015.35	226.85
1015.64	226.86
1015.92	226.88
1016.21	226.87
1016.50	226.86
1016.78	226.84
1017.07	226.83
1017.36	226.80
1017.64	226.80
1017.93	226.79
1018.22	226.77
1018.50	226.72
1018.79	226.69
1019.08	226.63
1019.36	226.66
1019.65	226.67
1019.93	226.65
1020.22	226.67
1020.51	226.69
1020.79	226.67
1021.08	226.77
1021.36	226.15
1021.65	226.37
1021.94	226.51
1022.22	226.81
1022.51	226.73
1022.79	226.96
1023.08	226.78
1023.36	227.87
1023.65	226.40
>>>>>End Processed Spectral Data<<<<<
