SpectraSuite Data File
++++++++++++++++++++++++++++++++++++
Date: Fri Feb 01 16:16:10 EST 2013
User: group
Dark Spectrum Present: No
Reference Spectrum Present: No
Number of Sampled Component Spectra: 1
Spectrometers: USB2E7196
Integration Time (usec): 35000 (USB2E7196)
Spectra Averaged: 100 (USB2E7196)
Boxcar Smoothing: 10 (USB2E7196)
Correct for Electrical Dark: No (USB2E7196)
Strobe/Lamp Enabled: No (USB2E7196)
Correct for Detector Non-linearity: No (USB2E7196)
Correct for Stray Light: No (USB2E7196)
Number of Pixels in Processed Spectrum: 2048
>>>>>Begin Processed Spectral Data<<<<<
339.09	0.00
339.48	213.95
339.86	215.70
340.24	216.68
340.63	218.49
341.01	220.95
341.39	220.31
341.78	222.53
342.16	223.53
342.54	223.81
342.93	212.24
343.31	222.99
343.69	223.53
344.07	223.97
344.46	224.41
344.84	224.75
345.22	224.97
345.60	225.24
345.99	225.42
346.37	225.56
346.75	225.66
347.13	225.72
347.52	225.77
347.90	225.87
348.28	225.95
348.66	226.01
349.05	226.02
349.43	226.09
349.81	226.12
350.19	226.16
350.57	226.22
350.96	226.29
351.34	226.36
351.72	226.44
352.10	226.53
352.48	226.59
352.87	226.66
353.25	226.73
353.63	226.80
354.01	226.86
354.39	226.89
354.77	226.98
355.15	227.11
355.54	227.17
355.92	227.21
356.30	227.28
356.68	227.40
357.06	227.49
357.44	227.55
357.82	227.62
358.20	227.70
358.58	227.76
358.97	227.86
359.35	227.97
359.73	228.09
360.11	228.15
360.49	228.24
360.87	228.29
361.25	228.38
361.63	228.43
362.01	228.48
362.39	228.56
362.77	228.60
363.15	228.63
363.53	228.66
363.91	228.71
364.29	228.74
364.67	228.67
365.05	228.68
365.43	228.71
365.81	228.72
366.19	228.76
366.57	228.84
366.95	228.81
367.33	228.74
367.71	228.72
368.09	228.69
368.47	228.68
368.85	228.68
369.23	228.68
369.61	228.63
369.99	228.63
370.37	228.62
370.75	228.60
371.13	228.49
371.51	228.44
371.89	228.41
372.27	228.34
372.65	228.28
373.03	228.22
373.41	228.17
373.78	228.10
374.16	228.03
374.54	227.91
374.92	227.81
375.30	227.74
375.68	227.65
376.06	227.63
376.44	227.55
376.82	227.47
377.19	227.39
377.57	227.31
377.95	227.22
378.33	227.13
378.71	227.03
379.09	227.02
379.47	226.95
379.84	226.88
380.22	226.80
380.60	226.71
380.98	226.66
381.36	226.59
381.73	226.52
382.11	226.43
382.49	226.37
382.87	226.32
383.25	226.27
383.62	226.31
384.00	226.21
384.38	226.15
384.76	226.11
385.13	226.08
385.51	226.07
385.89	225.98
386.27	225.93
386.64	225.91
387.02	225.84
387.40	225.80
387.78	225.76
388.15	225.75
388.53	225.73
388.91	225.70
389.29	225.66
389.66	225.63
390.04	225.58
390.42	225.59
390.79	225.58
391.17	225.58
391.55	225.45
391.92	225.45
392.30	225.46
392.68	225.44
393.05	225.42
393.43	225.40
393.81	225.43
394.18	225.45
394.56	225.45
394.94	225.49
395.31	225.54
395.69	225.60
396.06	225.64
396.44	225.67
396.82	225.68
397.19	225.78
397.57	225.83
397.95	225.92
398.32	225.93
398.70	226.00
399.07	226.11
399.45	226.17
399.82	226.24
400.20	226.30
400.58	226.37
400.95	226.40
401.33	226.52
401.70	226.68
402.08	226.75
402.45	226.85
402.83	226.97
403.20	227.06
403.58	227.13
403.95	227.26
404.33	227.40
404.71	227.56
405.08	227.71
405.46	227.87
405.83	228.03
406.21	228.19
406.58	228.33
406.96	228.46
407.33	228.66
407.70	228.86
408.08	229.14
408.45	229.36
408.83	229.57
409.20	229.77
409.58	229.95
409.95	230.22
410.33	230.48
410.70	230.69
411.08	230.98
411.45	231.27
411.82	231.57
412.20	231.92
412.57	232.31
412.95	232.61
413.32	233.00
413.69	233.37
414.07	233.80
414.44	234.31
414.82	234.79
415.19	235.28
415.56	235.77
415.94	236.31
416.31	236.97
416.68	237.61
417.06	238.34
417.43	239.01
417.81	239.76
418.18	240.55
418.55	241.39
418.93	242.24
419.30	243.12
419.67	244.02
420.04	244.99
420.42	245.97
420.79	247.14
421.16	248.28
421.54	249.47
421.91	250.68
422.28	251.88
422.66	253.17
423.03	254.50
423.40	255.87
423.77	257.26
424.15	258.64
424.52	260.13
424.89	261.69
425.26	263.21
425.64	264.63
426.01	266.20
426.38	267.85
426.75	269.52
427.13	271.27
427.50	273.09
427.87	274.95
428.24	276.82
428.61	278.55
428.99	280.52
429.36	282.60
429.73	284.65
430.10	286.66
430.47	288.76
430.85	290.87
431.22	293.14
431.59	295.52
431.96	297.77
432.33	300.23
432.70	302.61
433.08	305.43
433.45	308.09
433.82	310.71
434.19	313.59
434.56	316.45
434.93	319.08
435.30	321.64
435.68	324.52
436.05	327.32
436.42	330.12
436.79	332.54
437.16	335.24
437.53	338.07
437.90	340.87
438.27	343.60
438.64	346.44
439.01	348.99
439.38	351.21
439.75	353.37
440.13	355.86
440.50	358.21
440.87	360.02
441.24	361.94
441.61	364.09
441.98	365.57
442.35	367.32
442.72	369.19
443.09	371.05
443.46	372.01
443.83	372.57
444.20	373.09
444.57	374.01
444.94	374.31
445.31	374.63
445.68	374.99
446.05	375.00
446.42	374.61
446.79	374.20
447.16	373.76
447.53	373.47
447.90	372.37
448.27	371.22
448.64	369.65
449.01	368.49
449.37	366.53
449.74	364.66
450.11	362.44
450.48	359.96
450.85	357.44
451.22	355.32
451.59	353.37
451.96	351.42
452.33	348.79
452.70	346.45
453.07	343.63
453.43	340.70
453.80	337.98
454.17	335.28
454.54	332.78
454.91	330.07
455.28	327.38
455.65	324.84
456.02	322.41
456.38	320.28
456.75	317.64
457.12	315.37
457.49	313.17
457.86	310.97
458.23	309.12
458.59	307.08
458.96	305.01
459.33	303.13
459.70	301.29
460.07	299.82
460.43	298.09
460.80	296.50
461.17	295.11
461.54	293.66
461.91	292.29
462.27	290.81
462.64	289.57
463.01	288.23
463.38	286.94
463.74	285.55
464.11	284.41
464.48	283.40
464.85	282.30
465.21	281.40
465.58	280.51
465.95	279.43
466.32	278.50
466.68	277.63
467.05	276.73
467.42	275.83
467.78	274.86
468.15	273.98
468.52	273.31
468.88	272.46
469.25	271.69
469.62	271.05
469.98	270.36
470.35	269.70
470.72	269.13
471.08	268.49
471.45	267.99
471.82	267.45
472.18	266.88
472.55	266.46
472.92	265.97
473.28	265.53
473.65	265.10
474.02	264.70
474.38	264.33
474.75	264.02
475.11	263.65
475.48	263.40
475.85	263.21
476.21	262.99
476.58	262.79
476.94	262.66
477.31	262.49
477.67	262.38
478.04	262.28
478.41	262.22
478.77	262.28
479.14	262.22
479.50	262.22
479.87	262.29
480.23	262.35
480.60	262.41
480.96	262.49
481.33	262.72
481.69	262.93
482.06	263.12
482.42	263.34
482.79	263.65
483.15	264.03
483.52	264.42
483.88	264.80
484.25	265.21
484.61	265.63
484.98	266.08
485.34	266.63
485.71	267.24
486.07	267.86
486.44	268.43
486.80	269.12
487.17	269.87
487.53	270.70
487.90	271.56
488.26	272.53
488.62	273.54
488.99	274.46
489.35	275.49
489.72	276.63
490.08	277.86
490.44	279.07
490.81	280.37
491.17	281.74
491.54	283.20
491.90	284.74
492.26	286.40
492.63	288.15
492.99	289.95
493.36	291.88
493.72	293.89
494.08	296.01
494.45	298.26
494.81	300.63
495.17	303.03
495.54	305.66
495.90	308.33
496.26	311.14
496.63	314.13
496.99	317.28
497.35	320.54
497.72	323.87
498.08	327.42
498.44	331.13
498.80	335.06
499.17	339.17
499.53	343.36
499.89	347.79
500.26	352.30
500.62	356.98
500.98	361.93
501.34	367.04
501.71	372.37
502.07	377.84
502.43	383.47
502.79	389.29
503.16	395.35
503.52	401.66
503.88	408.08
504.24	414.72
504.60	421.59
504.97	428.78
505.33	436.15
505.69	443.88
506.05	451.65
506.41	459.57
506.78	467.70
507.14	476.13
507.50	484.84
507.86	493.93
508.22	503.14
508.59	512.32
508.95	521.91
509.31	531.77
509.67	541.91
510.03	552.20
510.39	562.80
510.75	573.59
511.12	584.47
511.48	595.76
511.84	607.19
512.20	618.71
512.56	630.64
512.92	642.85
513.28	655.16
513.64	667.63
514.00	680.29
514.37	693.22
514.73	706.26
515.09	719.25
515.45	732.44
515.81	746.04
516.17	759.99
516.53	774.09
516.89	788.19
517.25	802.28
517.61	816.72
517.97	831.11
518.33	845.50
518.69	860.35
519.05	875.27
519.41	890.44
519.77	905.98
520.13	921.40
520.49	936.61
520.85	952.08
521.21	967.76
521.57	983.90
521.93	999.59
522.29	1016.02
522.65	1032.29
523.01	1048.54
523.37	1064.57
523.73	1080.80
524.09	1096.89
524.45	1113.15
524.81	1129.79
525.17	1146.39
525.53	1163.28
525.89	1180.12
526.25	1196.89
526.61	1213.30
526.97	1230.05
527.33	1246.39
527.68	1262.90
528.04	1279.57
528.40	1296.09
528.76	1313.12
529.12	1329.66
529.48	1346.52
529.84	1362.44
530.20	1378.97
530.56	1395.83
530.91	1413.11
531.27	1429.74
531.63	1446.11
531.99	1462.63
532.35	1478.48
532.71	1494.41
533.07	1510.60
533.42	1526.46
533.78	1542.49
534.14	1558.72
534.50	1573.97
534.86	1589.94
535.21	1605.07
535.57	1620.85
535.93	1636.26
536.29	1651.01
536.65	1666.01
537.00	1680.68
537.36	1695.91
537.72	1710.43
538.08	1724.91
538.44	1738.65
538.79	1752.54
539.15	1766.20
539.51	1779.84
539.87	1794.08
540.22	1807.90
540.58	1821.76
540.94	1834.97
541.29	1847.75
541.65	1860.27
542.01	1873.41
542.37	1885.54
542.72	1897.86
543.08	1909.59
543.44	1921.93
543.79	1933.10
544.15	1944.16
544.51	1955.74
544.87	1966.62
545.22	1977.24
545.58	1987.45
545.94	1997.08
546.29	2006.90
546.65	2016.74
547.01	2026.04
547.36	2034.71
547.72	2043.04
548.07	2050.75
548.43	2058.95
548.79	2066.87
549.14	2074.49
549.50	2081.78
549.86	2089.44
550.21	2096.75
550.57	2103.81
550.92	2110.31
551.28	2117.35
551.64	2124.32
551.99	2130.81
552.35	2136.95
552.70	2143.08
553.06	2148.94
553.41	2155.25
553.77	2161.13
554.13	2167.07
554.48	2173.22
554.84	2178.74
555.19	2183.91
555.55	2189.02
555.90	2193.32
556.26	2198.24
556.61	2202.94
556.97	2207.26
557.32	2211.50
557.68	2215.61
558.03	2220.07
558.39	2223.74
558.74	2228.42
559.10	2232.31
559.45	2235.96
559.81	2240.21
560.16	2244.07
560.52	2247.38
560.87	2250.80
561.23	2253.64
561.58	2256.55
561.94	2258.86
562.29	2261.24
562.64	2264.00
563.00	2266.61
563.35	2270.28
563.71	2273.25
564.06	2276.43
564.42	2279.16
564.77	2281.63
565.12	2283.97
565.48	2285.90
565.83	2287.85
566.19	2289.11
566.54	2289.94
566.89	2290.95
567.25	2291.67
567.60	2293.07
567.96	2294.84
568.31	2295.84
568.66	2296.72
569.02	2297.39
569.37	2297.87
569.72	2298.72
570.08	2298.88
570.43	2298.88
570.78	2298.33
571.14	2297.04
571.49	2295.75
571.84	2295.57
572.20	2294.36
572.55	2293.34
572.90	2291.76
573.26	2290.32
573.61	2288.69
573.96	2286.95
574.31	2284.01
574.67	2281.10
575.02	2277.53
575.37	2273.91
575.72	2270.15
576.08	2266.99
576.43	2263.65
576.78	2260.16
577.13	2257.05
577.49	2254.03
577.84	2250.63
578.19	2246.87
578.54	2243.27
578.90	2239.01
579.25	2233.46
579.60	2228.61
579.95	2223.66
580.30	2218.56
580.66	2213.53
581.01	2208.59
581.36	2203.77
581.71	2199.70
582.06	2195.18
582.42	2190.68
582.77	2185.67
583.12	2181.17
583.47	2176.48
583.82	2171.61
584.17	2166.20
584.53	2160.77
584.88	2155.12
585.23	2149.38
585.58	2143.95
585.93	2138.48
586.28	2133.72
586.63	2128.65
586.98	2123.60
587.34	2118.91
587.69	2114.12
588.04	2108.87
588.39	2103.23
588.74	2096.78
589.09	2090.72
589.44	2083.98
589.79	2078.00
590.14	2072.34
590.49	2065.70
590.84	2059.32
591.19	2053.33
591.54	2047.10
591.89	2039.74
592.25	2032.94
592.60	2025.82
592.95	2018.31
593.30	2010.99
593.65	2003.46
594.00	1996.52
594.35	1989.37
594.70	1981.35
595.05	1974.16
595.40	1966.96
595.75	1959.45
596.10	1953.22
596.45	1946.50
596.80	1940.45
597.15	1933.92
597.50	1926.90
597.85	1920.55
598.19	1913.95
598.54	1906.78
598.89	1900.12
599.24	1894.19
599.59	1887.63
599.94	1881.41
600.29	1875.00
600.64	1868.47
600.99	1861.15
601.34	1854.35
601.69	1847.37
602.04	1840.64
602.39	1833.37
602.74	1826.59
603.08	1819.90
603.43	1813.27
603.78	1805.92
604.13	1798.70
604.48	1791.36
604.83	1784.48
605.18	1777.61
605.53	1769.63
605.87	1761.69
606.22	1754.41
606.57	1746.51
606.92	1739.20
607.27	1732.05
607.62	1725.20
607.96	1717.99
608.31	1711.27
608.66	1703.63
609.01	1696.15
609.36	1688.52
609.70	1680.50
610.05	1672.43
610.40	1664.73
610.75	1656.46
611.10	1648.90
611.44	1640.54
611.79	1632.51
612.14	1623.88
612.49	1614.53
612.83	1606.18
613.18	1597.97
613.53	1589.76
613.88	1581.24
614.22	1572.96
614.57	1564.42
614.92	1556.32
615.27	1548.64
615.61	1540.37
615.96	1532.36
616.31	1524.70
616.65	1517.32
617.00	1509.80
617.35	1502.18
617.70	1493.87
618.04	1485.26
618.39	1476.95
618.74	1469.29
619.08	1461.05
619.43	1453.52
619.78	1446.57
620.12	1439.40
620.47	1431.96
620.82	1423.93
621.16	1416.52
621.51	1408.81
621.85	1401.10
622.20	1392.77
622.55	1384.44
622.89	1376.67
623.24	1369.09
623.59	1361.59
623.93	1353.96
624.28	1346.67
624.62	1339.03
624.97	1331.81
625.32	1325.11
625.66	1318.13
626.01	1310.90
626.35	1303.44
626.70	1295.68
627.04	1288.10
627.39	1280.34
627.73	1272.94
628.08	1265.91
628.43	1258.65
628.77	1251.33
629.12	1243.88
629.46	1236.63
629.81	1229.17
630.15	1221.71
630.50	1214.29
630.84	1206.12
631.19	1198.22
631.53	1190.65
631.88	1183.15
632.22	1175.54
632.57	1168.15
632.91	1160.56
633.26	1153.13
633.60	1145.71
633.95	1138.54
634.29	1131.49
634.64	1124.79
634.98	1117.33
635.32	1110.20
635.67	1103.58
636.01	1096.92
636.36	1089.91
636.70	1083.39
637.05	1076.90
637.39	1070.59
637.73	1064.04
638.08	1058.24
638.42	1052.23
638.77	1045.79
639.11	1039.17
639.45	1032.80
639.80	1026.19
640.14	1019.78
640.49	1013.24
640.83	1006.93
641.17	1000.64
641.52	994.24
641.86	987.80
642.20	982.05
642.55	975.70
642.89	969.13
643.23	962.57
643.58	956.92
643.92	950.71
644.26	944.65
644.61	938.60
644.95	932.60
645.29	925.96
645.64	919.23
645.98	912.88
646.32	906.95
646.66	900.84
647.01	895.06
647.35	889.34
647.69	883.52
648.04	877.98
648.38	872.23
648.72	866.22
649.06	860.13
649.41	854.25
649.75	848.41
650.09	842.55
650.43	836.79
650.78	830.59
651.12	824.58
651.46	818.80
651.80	813.03
652.14	807.66
652.49	802.28
652.83	797.08
653.17	791.40
653.51	785.76
653.85	780.43
654.20	774.76
654.54	768.78
654.88	763.06
655.22	757.19
655.56	751.45
655.90	746.05
656.25	740.76
656.59	735.31
656.93	730.19
657.27	725.03
657.61	719.59
657.95	714.51
658.29	709.44
658.64	704.14
658.98	698.88
659.32	693.34
659.66	688.09
660.00	682.80
660.34	677.83
660.68	672.92
661.02	667.86
661.36	663.20
661.70	658.74
662.05	654.36
662.39	650.02
662.73	645.55
663.07	641.15
663.41	636.72
663.75	632.25
664.09	627.63
664.43	623.18
664.77	619.12
665.11	614.87
665.45	610.72
665.79	606.66
666.13	602.50
666.47	598.48
666.81	594.36
667.15	590.25
667.49	586.40
667.83	582.52
668.17	578.54
668.51	574.38
668.85	570.36
669.19	566.54
669.53	562.67
669.87	558.79
670.21	555.15
670.55	551.50
670.89	548.11
671.23	544.71
671.57	541.16
671.91	537.54
672.25	534.02
672.58	530.50
672.92	527.08
673.26	523.88
673.60	520.67
673.94	517.53
674.28	514.56
674.62	511.58
674.96	508.48
675.30	505.56
675.64	502.65
675.97	499.79
676.31	496.90
676.65	493.97
676.99	491.27
677.33	488.31
677.67	485.50
678.01	482.43
678.34	479.45
678.68	476.63
679.02	473.91
679.36	471.19
679.70	468.51
680.04	465.77
680.37	462.87
680.71	460.05
681.05	457.49
681.39	454.80
681.73	452.15
682.06	449.64
682.40	447.15
682.74	444.61
683.08	442.11
683.42	439.52
683.75	437.05
684.09	434.47
684.43	432.01
684.77	429.54
685.10	427.20
685.44	424.91
685.78	422.64
686.12	420.32
686.45	417.97
686.79	415.61
687.13	413.41
687.46	411.27
687.80	409.14
688.14	406.87
688.48	404.79
688.81	402.54
689.15	400.36
689.49	398.14
689.82	396.07
690.16	393.95
690.50	391.99
690.83	390.02
691.17	388.11
691.51	386.24
691.84	384.42
692.18	382.53
692.52	380.54
692.85	378.56
693.19	376.67
693.52	374.82
693.86	373.06
694.20	371.30
694.53	369.51
694.87	367.65
695.21	365.89
695.54	364.07
695.88	362.38
696.21	360.68
696.55	359.04
696.88	357.35
697.22	355.74
697.56	354.12
697.89	352.46
698.23	350.83
698.56	349.20
698.90	347.62
699.23	345.93
699.57	344.37
699.90	342.85
700.24	341.31
700.58	339.80
700.91	338.29
701.25	336.81
701.58	335.46
701.92	334.08
702.25	332.70
702.59	331.32
702.92	329.95
703.26	328.66
703.59	327.35
703.93	326.17
704.26	324.88
704.60	323.54
704.93	322.27
705.26	320.97
705.60	319.76
705.93	318.56
706.27	317.52
706.60	316.45
706.94	315.36
707.27	314.21
707.61	313.13
707.94	312.10
708.27	311.02
708.61	309.90
708.94	308.91
709.28	307.90
709.61	306.94
709.94	305.97
710.28	304.90
710.61	303.94
710.95	302.85
711.28	301.95
711.61	301.03
711.95	300.09
712.28	299.16
712.61	298.22
712.95	297.30
713.28	296.45
713.61	295.52
713.95	294.61
714.28	293.78
714.61	292.91
714.95	292.03
715.28	291.18
715.61	290.31
715.95	289.43
716.28	288.60
716.61	287.76
716.95	286.95
717.28	286.22
717.61	285.42
717.94	284.69
718.28	283.87
718.61	283.10
718.94	282.41
719.27	281.72
719.61	281.05
719.94	280.39
720.27	279.63
720.60	278.98
720.94	278.33
721.27	277.72
721.60	277.14
721.93	276.54
722.27	275.96
722.60	275.38
722.93	274.81
723.26	274.23
723.59	273.65
723.93	273.08
724.26	272.54
724.59	272.00
724.92	271.46
725.25	270.96
725.59	270.49
725.92	269.98
726.25	269.52
726.58	269.02
726.91	268.51
727.24	268.07
727.57	267.62
727.91	267.11
728.24	266.64
728.57	266.15
728.90	265.71
729.23	265.25
729.56	264.81
729.89	264.36
730.22	263.89
730.55	263.47
730.89	263.06
731.22	262.62
731.55	262.19
731.88	261.78
732.21	261.39
732.54	260.93
732.87	260.50
733.20	260.11
733.53	259.71
733.86	259.37
734.19	258.96
734.52	258.56
734.85	258.25
735.18	257.89
735.51	257.54
735.84	257.15
736.17	256.81
736.50	256.43
736.83	256.22
737.16	255.90
737.49	255.57
737.82	255.18
738.15	254.84
738.48	254.49
738.81	254.18
739.14	253.83
739.47	253.51
739.80	253.20
740.13	252.87
740.46	252.52
740.79	252.17
741.12	251.82
741.45	251.54
741.78	251.22
742.11	250.91
742.44	250.54
742.77	250.27
743.10	249.95
743.43	249.64
743.75	249.29
744.08	249.14
744.41	248.87
744.74	248.60
745.07	248.33
745.40	248.14
745.73	247.89
746.06	247.62
746.39	247.36
746.71	247.09
747.04	246.80
747.37	246.56
747.70	246.29
748.03	246.05
748.36	245.82
748.68	245.56
749.01	245.32
749.34	245.13
749.67	244.90
750.00	244.69
750.33	244.56
750.65	244.31
750.98	243.95
751.31	243.70
751.64	243.51
751.97	243.34
752.29	243.05
752.62	242.79
752.95	242.60
753.28	242.39
753.60	242.20
753.93	242.04
754.26	241.85
754.59	241.67
754.91	241.48
755.24	241.23
755.57	241.06
755.90	240.86
756.22	240.66
756.55	240.47
756.88	240.28
757.20	240.03
757.53	239.86
757.86	239.72
758.19	239.56
758.51	239.44
758.84	239.24
759.17	239.08
759.49	238.91
759.82	238.78
760.15	238.64
760.47	238.49
760.80	238.36
761.13	238.24
761.45	238.09
761.78	237.96
762.11	237.88
762.43	237.74
762.76	237.62
763.08	237.51
763.41	237.39
763.74	237.24
764.06	237.10
764.39	236.95
764.71	236.80
765.04	236.65
765.37	236.45
765.69	236.29
766.02	236.16
766.34	236.04
766.67	235.93
767.00	235.84
767.32	235.78
767.65	235.70
767.97	235.55
768.30	235.45
768.62	235.33
768.95	235.18
769.27	235.05
769.60	234.93
769.92	234.78
770.25	234.69
770.57	234.59
770.90	234.51
771.22	234.39
771.55	234.27
771.87	234.19
772.20	234.10
772.52	234.08
772.85	234.09
773.17	234.02
773.50	233.87
773.82	233.77
774.15	233.60
774.47	233.42
774.80	233.33
775.12	233.23
775.45	233.14
775.77	233.05
776.09	232.98
776.42	232.91
776.74	232.89
777.07	232.76
777.39	232.70
777.72	232.61
778.04	232.55
778.36	232.50
778.69	232.44
779.01	232.41
779.33	232.26
779.66	232.10
779.98	232.02
780.31	231.97
780.63	231.91
780.95	231.89
781.28	231.84
781.60	231.79
781.92	231.72
782.25	231.64
782.57	231.58
782.89	231.49
783.22	231.42
783.54	231.31
783.86	231.28
784.19	231.19
784.51	231.14
784.83	231.06
785.16	231.00
785.48	230.95
785.80	230.85
786.12	230.80
786.45	230.72
786.77	230.67
787.09	230.59
787.42	230.50
787.74	230.48
788.06	230.42
788.38	230.35
788.71	230.32
789.03	230.29
789.35	230.24
789.67	230.23
789.99	230.20
790.32	230.16
790.64	230.13
790.96	230.19
791.28	230.11
791.61	230.12
791.93	230.09
792.25	230.05
792.57	230.09
792.89	230.05
793.21	230.04
793.54	230.01
793.86	229.96
794.18	229.93
794.50	229.84
794.82	229.82
795.14	229.83
795.47	229.82
795.79	229.81
796.11	229.79
796.43	229.73
796.75	229.69
797.07	229.66
797.39	229.62
797.71	229.52
798.04	229.51
798.36	229.47
798.68	229.45
799.00	229.44
799.32	229.36
799.64	229.37
799.96	229.36
800.28	229.35
800.60	229.36
800.92	229.35
801.24	229.32
801.56	229.32
801.89	229.27
802.21	229.26
802.53	229.17
802.85	229.15
803.17	229.17
803.49	229.14
803.81	229.13
804.13	229.08
804.45	229.05
804.77	229.05
805.09	229.01
805.41	228.93
805.73	228.88
806.05	228.83
806.37	228.84
806.69	228.81
807.01	228.76
807.33	228.72
807.65	228.71
807.97	228.73
808.28	228.70
808.60	228.65
808.92	228.60
809.24	228.68
809.56	228.65
809.88	228.61
810.20	228.57
810.52	228.58
810.84	228.56
811.16	228.55
811.48	228.51
811.80	228.51
812.12	228.51
812.43	228.50
812.75	228.50
813.07	228.43
813.39	228.44
813.71	228.41
814.03	228.38
814.35	228.34
814.67	228.33
814.98	228.31
815.30	228.31
815.62	228.24
815.94	228.17
816.26	228.22
816.58	228.16
816.89	228.15
817.21	228.13
817.53	228.10
817.85	228.04
818.17	228.03
818.48	228.01
818.80	227.97
819.12	227.93
819.44	227.87
819.76	227.84
820.07	227.79
820.39	227.78
820.71	227.76
821.03	227.73
821.34	227.65
821.66	227.62
821.98	227.59
822.30	227.62
822.61	227.66
822.93	227.57
823.25	227.59
823.57	227.53
823.88	227.51
824.20	227.50
824.52	227.52
824.83	227.47
825.15	227.43
825.47	227.42
825.79	227.38
826.10	227.40
826.42	227.37
826.74	227.34
827.05	227.36
827.37	227.37
827.69	227.38
828.00	227.40
828.32	227.39
828.64	227.38
828.95	227.41
829.27	227.36
829.58	227.32
829.90	227.31
830.22	227.35
830.53	227.30
830.85	227.31
831.17	227.25
831.48	227.22
831.80	227.20
832.11	227.21
832.43	227.22
832.75	227.16
833.06	227.21
833.38	227.20
833.69	227.17
834.01	227.15
834.32	227.11
834.64	227.10
834.96	227.07
835.27	227.05
835.59	227.00
835.90	226.96
836.22	226.95
836.53	226.92
836.85	226.88
837.16	226.98
837.48	226.95
837.79	227.01
838.11	227.04
838.42	227.03
838.74	227.05
839.05	227.04
839.37	227.06
839.68	227.01
840.00	227.02
840.31	227.01
840.63	226.99
840.94	226.97
841.26	226.94
841.57	226.96
841.88	226.98
842.20	226.98
842.51	227.00
842.83	227.02
843.14	227.09
843.46	227.09
843.77	227.02
844.08	227.02
844.40	226.96
844.71	226.90
845.03	226.94
845.34	226.93
845.65	226.95
845.97	226.97
846.28	226.99
846.60	227.00
846.91	227.01
847.22	227.02
847.54	227.07
847.85	227.10
848.16	227.10
848.48	227.09
848.79	227.11
849.10	227.11
849.42	227.11
849.73	227.04
850.04	227.02
850.36	227.00
850.67	227.05
850.98	227.09
851.30	227.14
851.61	227.12
851.92	227.12
852.23	227.15
852.55	227.15
852.86	227.13
853.17	227.13
853.49	227.13
853.80	227.12
854.11	227.11
854.42	227.10
854.74	227.07
855.05	227.06
855.36	227.02
855.67	226.97
855.99	226.96
856.30	227.06
856.61	227.06
856.92	227.05
857.23	227.04
857.55	226.99
857.86	226.98
858.17	226.98
858.48	226.92
858.79	226.88
859.11	226.83
859.42	226.81
859.73	226.78
860.04	226.76
860.35	226.75
860.66	226.70
860.98	226.68
861.29	226.69
861.60	226.70
861.91	226.72
862.22	226.72
862.53	226.71
862.84	226.60
863.16	226.61
863.47	226.60
863.78	226.57
864.09	226.57
864.40	226.57
864.71	226.59
865.02	226.60
865.33	226.60
865.64	226.60
865.95	226.59
866.27	226.64
866.58	226.61
866.89	226.60
867.20	226.60
867.51	226.57
867.82	226.53
868.13	226.53
868.44	226.49
868.75	226.54
869.06	226.52
869.37	226.52
869.68	226.48
869.99	226.46
870.30	226.44
870.61	226.46
870.92	226.43
871.23	226.38
871.54	226.36
871.85	226.37
872.16	226.38
872.47	226.38
872.78	226.33
873.09	226.35
873.40	226.32
873.71	226.33
874.02	226.33
874.33	226.37
874.64	226.34
874.95	226.35
875.26	226.30
875.56	226.30
875.87	226.28
876.18	226.29
876.49	226.38
876.80	226.37
877.11	226.34
877.42	226.36
877.73	226.38
878.04	226.40
878.35	226.42
878.66	226.45
878.96	226.45
879.27	226.46
879.58	226.48
879.89	226.48
880.20	226.48
880.51	226.50
880.82	226.48
881.12	226.46
881.43	226.45
881.74	226.44
882.05	226.45
882.36	226.45
882.67	226.46
882.97	226.40
883.28	226.41
883.59	226.43
883.90	226.43
884.21	226.44
884.51	226.43
884.82	226.39
885.13	226.36
885.44	226.36
885.74	226.32
886.05	226.31
886.36	226.33
886.67	226.35
886.98	226.40
887.28	226.45
887.59	226.45
887.90	226.49
888.20	226.49
888.51	226.53
888.82	226.56
889.13	226.54
889.43	226.60
889.74	226.60
890.05	226.62
890.35	226.62
890.66	226.60
890.97	226.59
891.28	226.61
891.58	226.61
891.89	226.61
892.20	226.62
892.50	226.62
892.81	226.60
893.12	226.59
893.42	226.53
893.73	226.49
894.04	226.51
894.34	226.47
894.65	226.47
894.95	226.44
895.26	226.41
895.57	226.44
895.87	226.38
896.18	226.38
896.48	226.36
896.79	226.33
897.10	226.35
897.40	226.33
897.71	226.33
898.01	226.31
898.32	226.34
898.63	226.32
898.93	226.35
899.24	226.36
899.54	226.35
899.85	226.35
900.15	226.36
900.46	226.36
900.76	226.37
901.07	226.38
901.38	226.39
901.68	226.39
901.99	226.37
902.29	226.36
902.60	226.35
902.90	226.32
903.21	226.35
903.51	226.33
903.82	226.37
904.12	226.35
904.43	226.35
904.73	226.32
905.03	226.34
905.34	226.39
905.64	226.36
905.95	226.35
906.25	226.36
906.56	226.37
906.86	226.35
907.17	226.36
907.47	226.34
907.77	226.28
908.08	226.28
908.38	226.28
908.69	226.27
908.99	226.26
909.30	226.29
909.60	226.27
909.90	226.27
910.21	226.24
910.51	226.22
910.81	226.18
911.12	226.19
911.42	226.18
911.73	226.08
912.03	226.10
912.33	226.14
912.64	226.14
912.94	226.12
913.24	226.10
913.55	226.05
913.85	226.09
914.15	226.13
914.46	226.12
914.76	226.09
915.06	226.10
915.37	226.13
915.67	226.11
915.97	226.10
916.27	226.05
916.58	226.07
916.88	226.07
917.18	226.10
917.49	226.16
917.79	226.15
918.09	226.14
918.39	226.15
918.70	226.10
919.00	226.09
919.30	226.12
919.60	226.13
919.91	226.14
920.21	226.10
920.51	226.08
920.81	226.09
921.12	226.10
921.42	226.10
921.72	226.09
922.02	226.10
922.32	226.12
922.63	226.15
922.93	226.15
923.23	226.17
923.53	226.15
923.83	226.09
924.13	226.08
924.44	226.07
924.74	226.11
925.04	226.15
925.34	226.13
925.64	226.08
925.94	226.08
926.24	226.16
926.55	226.16
926.85	226.17
927.15	226.16
927.45	226.17
927.75	226.17
928.05	226.16
928.35	226.13
928.65	226.16
928.95	226.17
929.26	226.16
929.56	226.17
929.86	226.18
930.16	226.19
930.46	226.22
930.76	226.25
931.06	226.17
931.36	226.14
931.66	226.17
931.96	226.18
932.26	226.19
932.56	226.13
932.86	226.13
933.16	226.13
933.46	226.13
933.76	226.09
934.06	226.14
934.36	226.17
934.66	226.20
934.96	226.17
935.26	226.17
935.56	226.19
935.86	226.14
936.16	226.15
936.46	226.15
936.76	226.11
937.06	226.13
937.36	226.15
937.66	226.16
937.96	226.16
938.26	226.15
938.56	226.10
938.86	226.13
939.16	226.17
939.46	226.17
939.76	226.15
940.06	226.15
940.35	226.09
940.65	226.03
940.95	226.03
941.25	226.01
941.55	226.00
941.85	225.98
942.15	226.01
942.45	226.07
942.75	226.08
943.04	226.09
943.34	226.11
943.64	226.08
943.94	226.09
944.24	226.11
944.54	226.11
944.84	226.13
945.13	226.08
945.43	226.05
945.73	226.02
946.03	226.04
946.33	226.02
946.62	226.02
946.92	226.02
947.22	226.03
947.52	226.00
947.82	226.01
948.11	226.04
948.41	226.00
948.71	225.96
949.01	225.93
949.31	225.93
949.60	225.87
949.90	225.88
950.20	225.87
950.50	225.83
950.79	225.83
951.09	225.84
951.39	225.84
951.69	225.86
951.98	225.90
952.28	225.94
952.58	225.95
952.87	225.97
953.17	225.98
953.47	225.98
953.76	225.97
954.06	225.95
954.36	225.88
954.66	225.88
954.95	225.90
955.25	225.90
955.55	225.88
955.84	225.88
956.14	225.94
956.44	225.92
956.73	225.92
957.03	225.94
957.32	225.95
957.62	225.94
957.92	225.94
958.21	225.92
958.51	226.00
958.81	226.01
959.10	226.01
959.40	226.04
959.69	226.05
959.99	226.06
960.29	226.09
960.58	226.12
960.88	226.18
961.17	226.18
961.47	226.19
961.76	226.20
962.06	226.21
962.36	226.14
962.65	226.16
962.95	226.17
963.24	226.19
963.54	226.21
963.83	226.24
964.13	226.23
964.42	226.23
964.72	226.17
965.01	226.17
965.31	226.16
965.60	226.15
965.90	226.20
966.19	226.20
966.49	226.20
966.78	226.19
967.08	226.21
967.37	226.20
967.67	226.21
967.96	226.23
968.26	226.23
968.55	226.26
968.85	226.25
969.14	226.21
969.43	226.20
969.73	226.16
970.02	226.10
970.32	226.11
970.61	226.09
970.91	226.02
971.20	226.03
971.49	226.05
971.79	226.04
972.08	225.96
972.38	225.97
972.67	225.96
972.96	225.97
973.26	225.90
973.55	225.93
973.85	225.92
974.14	225.92
974.43	225.91
974.73	225.90
975.02	225.89
975.31	225.90
975.61	225.87
975.90	225.88
976.19	225.91
976.49	225.88
976.78	225.88
977.07	225.89
977.37	225.83
977.66	225.83
977.95	225.81
978.24	225.82
978.54	225.85
978.83	225.83
979.12	225.85
979.42	225.86
979.71	225.82
980.00	225.81
980.29	225.82
980.59	225.82
980.88	225.84
981.17	225.83
981.46	225.86
981.76	225.86
982.05	225.89
982.34	225.89
982.63	225.91
982.93	225.90
983.22	225.91
983.51	225.95
983.80	225.96
984.09	225.97
984.39	225.99
984.68	225.94
984.97	225.96
985.26	225.93
985.55	225.94
985.85	225.94
986.14	225.97
986.43	225.98
986.72	226.02
987.01	225.99
987.30	226.00
987.59	226.00
987.89	226.03
988.18	225.99
988.47	225.99
988.76	225.99
989.05	226.03
989.34	226.02
989.63	226.06
989.92	226.06
990.22	226.05
990.51	226.03
990.80	226.07
991.09	226.08
991.38	226.11
991.67	226.09
991.96	226.10
992.25	226.14
992.54	226.11
992.83	226.06
993.12	226.07
993.41	226.11
993.70	226.14
993.99	226.14
994.28	226.17
994.58	226.18
994.87	226.17
995.16	226.16
995.45	226.14
995.74	226.10
996.03	226.10
996.32	226.12
996.61	226.16
996.90	226.12
997.19	226.12
997.48	226.10
997.77	226.12
998.06	226.13
998.34	226.08
998.63	226.09
998.92	226.13
999.21	226.10
999.50	226.09
999.79	226.08
1000.08	226.06
1000.37	226.08
1000.66	226.06
1000.95	226.09
1001.24	226.12
1001.53	226.16
1001.82	226.17
1002.11	226.18
1002.40	226.17
1002.68	226.16
1002.97	226.24
1003.26	226.24
1003.55	226.20
1003.84	226.24
1004.13	226.28
1004.42	226.31
1004.71	226.29
1004.99	226.26
1005.28	226.30
1005.57	226.29
1005.86	226.25
1006.15	226.25
1006.44	226.24
1006.72	226.26
1007.01	226.23
1007.30	226.19
1007.59	226.17
1007.88	226.15
1008.17	226.13
1008.45	226.14
1008.74	226.11
1009.03	226.06
1009.32	226.08
1009.60	226.12
1009.89	226.10
1010.18	226.01
1010.47	225.99
1010.76	226.00
1011.04	226.01
1011.33	226.12
1011.62	226.09
1011.91	226.12
1012.19	226.12
1012.48	226.12
1012.77	226.10
1013.05	226.15
1013.34	226.15
1013.63	226.16
1013.92	226.20
1014.20	226.21
1014.49	226.19
1014.78	226.20
1015.06	226.19
1015.35	226.19
1015.64	226.16
1015.92	226.18
1016.21	226.20
1016.50	226.20
1016.78	226.20
1017.07	226.21
1017.36	226.08
1017.64	226.09
1017.93	226.07
1018.22	226.05
1018.50	226.03
1018.79	226.02
1019.08	225.99
1019.36	226.00
1019.65	226.00
1019.93	225.99
1020.22	226.00
1020.51	226.08
1020.79	226.09
1021.08	225.53
1021.36	225.69
1021.65	225.69
1021.94	226.17
1022.22	225.80
1022.51	226.13
1022.79	226.39
1023.08	226.21
1023.36	227.71
1023.65	226.49
>>>>>End Processed Spectral Data<<<<<
