SpectraSuite Data File
++++++++++++++++++++++++++++++++++++
Date: Fri Feb 01 15:05:56 EST 2013
User: group
Dark Spectrum Present: No
Reference Spectrum Present: No
Number of Sampled Component Spectra: 1
Spectrometers: USB2E7196
Integration Time (usec): 35000 (USB2E7196)
Spectra Averaged: 100 (USB2E7196)
Boxcar Smoothing: 10 (USB2E7196)
Correct for Electrical Dark: No (USB2E7196)
Strobe/Lamp Enabled: No (USB2E7196)
Correct for Detector Non-linearity: No (USB2E7196)
Correct for Stray Light: No (USB2E7196)
Number of Pixels in Processed Spectrum: 2048
>>>>>Begin Processed Spectral Data<<<<<
339.09	0.00
339.48	215.11
339.86	216.16
340.24	217.62
340.63	219.25
341.01	222.42
341.39	221.83
341.78	223.64
342.16	224.56
342.54	224.93
342.93	213.35
343.31	224.14
343.69	224.69
344.07	225.18
344.46	225.61
344.84	226.00
345.22	226.17
345.60	226.43
345.99	226.58
346.37	226.71
346.75	226.81
347.13	226.91
347.52	226.96
347.90	227.04
348.28	227.04
348.66	227.10
349.05	227.12
349.43	227.19
349.81	227.26
350.19	227.29
350.57	227.35
350.96	227.41
351.34	227.49
351.72	227.55
352.10	227.64
352.48	227.73
352.87	227.79
353.25	227.90
353.63	227.97
354.01	228.07
354.39	228.14
354.77	228.23
355.15	228.32
355.54	228.40
355.92	228.42
356.30	228.49
356.68	228.63
357.06	228.72
357.44	228.74
357.82	228.81
358.20	228.90
358.58	229.00
358.97	229.07
359.35	229.16
359.73	229.27
360.11	229.33
360.49	229.39
360.87	229.46
361.25	229.54
361.63	229.62
362.01	229.65
362.39	229.67
362.77	229.74
363.15	229.74
363.53	229.73
363.91	229.77
364.29	229.78
364.67	229.69
365.05	229.70
365.43	229.75
365.81	229.75
366.19	229.77
366.57	229.72
366.95	229.72
367.33	229.67
367.71	229.61
368.09	229.61
368.47	229.58
368.85	229.53
369.23	229.50
369.61	229.42
369.99	229.41
370.37	229.40
370.75	229.39
371.13	229.34
371.51	229.32
371.89	229.29
372.27	229.24
372.65	229.20
373.03	229.15
373.41	229.10
373.78	229.04
374.16	228.90
374.54	228.85
374.92	228.79
375.30	228.74
375.68	228.66
376.06	228.60
376.44	228.49
376.82	228.42
377.19	228.34
377.57	228.28
377.95	228.17
378.33	228.08
378.71	227.94
379.09	227.88
379.47	227.80
379.84	227.69
380.22	227.60
380.60	227.51
380.98	227.42
381.36	227.32
381.73	227.23
382.11	227.21
382.49	227.13
382.87	227.03
383.25	226.94
383.62	226.99
384.00	226.90
384.38	226.83
384.76	226.78
385.13	226.75
385.51	226.68
385.89	226.63
386.27	226.59
386.64	226.57
387.02	226.54
387.40	226.50
387.78	226.47
388.15	226.46
388.53	226.41
388.91	226.38
389.29	226.39
389.66	226.39
390.04	226.33
390.42	226.33
390.79	226.34
391.17	226.34
391.55	226.24
391.92	226.26
392.30	226.30
392.68	226.30
393.05	226.32
393.43	226.33
393.81	226.32
394.18	226.33
394.56	226.37
394.94	226.40
395.31	226.42
395.69	226.51
396.06	226.55
396.44	226.62
396.82	226.66
397.19	226.74
397.57	226.79
397.95	226.90
398.32	226.93
398.70	226.99
399.07	227.07
399.45	227.13
399.82	227.20
400.20	227.29
400.58	227.38
400.95	227.45
401.33	227.57
401.70	227.77
402.08	227.85
402.45	227.96
402.83	228.07
403.20	228.19
403.58	228.28
403.95	228.43
404.33	228.57
404.71	228.70
405.08	228.89
405.46	229.03
405.83	229.16
406.21	229.34
406.58	229.53
406.96	229.73
407.33	229.92
407.70	230.10
408.08	230.37
408.45	230.59
408.83	230.82
409.20	231.07
409.58	231.26
409.95	231.54
410.33	231.83
410.70	232.08
411.08	232.38
411.45	232.69
411.82	233.02
412.20	233.38
412.57	233.80
412.95	234.08
413.32	234.52
413.69	234.92
414.07	235.35
414.44	235.79
414.82	236.25
415.19	236.81
415.56	237.36
415.94	237.90
416.31	238.52
416.68	239.15
417.06	239.84
417.43	240.51
417.81	241.25
418.18	242.00
418.55	242.82
418.93	243.71
419.30	244.62
419.67	245.55
420.04	246.50
420.42	247.45
420.79	248.66
421.16	249.76
421.54	250.94
421.91	252.15
422.28	253.41
422.66	254.71
423.03	256.02
423.40	257.36
423.77	258.75
424.15	260.19
424.52	261.65
424.89	263.24
425.26	264.78
425.64	266.26
426.01	267.82
426.38	269.47
426.75	271.10
427.13	272.77
427.50	274.55
427.87	276.42
428.24	278.28
428.61	279.99
428.99	281.92
429.36	284.00
429.73	286.09
430.10	288.11
430.47	290.17
430.85	292.24
431.22	294.47
431.59	296.86
431.96	299.13
432.33	301.64
432.70	304.03
433.08	306.84
433.45	309.44
433.82	312.06
434.19	315.00
434.56	317.83
434.93	320.52
435.30	323.13
435.68	326.01
436.05	328.90
436.42	331.70
436.79	334.25
437.16	336.94
437.53	339.74
437.90	342.60
438.27	345.36
438.64	348.22
439.01	350.80
439.38	352.99
439.75	355.12
440.13	357.58
440.50	359.94
440.87	361.78
441.24	363.74
441.61	365.89
441.98	367.36
442.35	369.14
442.72	371.02
443.09	372.87
443.46	373.87
443.83	374.43
444.20	374.92
444.57	375.76
444.94	376.07
445.31	376.40
445.68	376.75
446.05	376.82
446.42	376.44
446.79	376.06
447.16	375.68
447.53	375.37
447.90	374.27
448.27	373.07
448.64	371.52
449.01	370.39
449.37	368.43
449.74	366.52
450.11	364.32
450.48	361.85
450.85	359.31
451.22	357.21
451.59	355.18
451.96	353.27
452.33	350.66
452.70	348.32
453.07	345.51
453.43	342.58
453.80	339.85
454.17	337.16
454.54	334.64
454.91	331.93
455.28	329.31
455.65	326.77
456.02	324.32
456.38	322.16
456.75	319.52
457.12	317.30
457.49	315.10
457.86	312.92
458.23	311.07
458.59	309.03
458.96	306.90
459.33	305.06
459.70	303.19
460.07	301.69
460.43	299.94
460.80	298.31
461.17	296.88
461.54	295.36
461.91	293.95
462.27	292.48
462.64	291.21
463.01	289.82
463.38	288.54
463.74	287.16
464.11	285.98
464.48	284.91
464.85	283.77
465.21	282.90
465.58	281.97
465.95	280.85
466.32	279.94
466.68	279.01
467.05	278.11
467.42	277.22
467.78	276.28
468.15	275.39
468.52	274.72
468.88	273.82
469.25	273.02
469.62	272.33
469.98	271.63
470.35	270.96
470.72	270.31
471.08	269.62
471.45	269.07
471.82	268.52
472.18	267.92
472.55	267.46
472.92	266.90
473.28	266.38
473.65	265.89
474.02	265.43
474.38	265.05
474.75	264.67
475.11	264.30
475.48	263.98
475.85	263.73
476.21	263.46
476.58	263.31
476.94	263.16
477.31	263.00
477.67	262.84
478.04	262.69
478.41	262.60
478.77	262.61
479.14	262.56
479.50	262.55
479.87	262.60
480.23	262.66
480.60	262.70
480.96	262.78
481.33	262.99
481.69	263.18
482.06	263.39
482.42	263.59
482.79	263.85
483.15	264.18
483.52	264.56
483.88	264.93
484.25	265.29
484.61	265.73
484.98	266.14
485.34	266.70
485.71	267.30
486.07	267.88
486.44	268.47
486.80	269.19
487.17	269.90
487.53	270.72
487.90	271.58
488.26	272.51
488.62	273.53
488.99	274.50
489.35	275.54
489.72	276.63
490.08	277.87
490.44	279.11
490.81	280.46
491.17	281.84
491.54	283.28
491.90	284.84
492.26	286.46
492.63	288.21
492.99	289.98
493.36	291.92
493.72	294.04
494.08	296.14
494.45	298.38
494.81	300.74
495.17	303.16
495.54	305.73
495.90	308.44
496.26	311.26
496.63	314.20
496.99	317.35
497.35	320.59
497.72	323.99
498.08	327.50
498.44	331.13
498.80	335.05
499.17	339.10
499.53	343.26
499.89	347.64
500.26	352.14
500.62	356.80
500.98	361.70
501.34	366.76
501.71	372.10
502.07	377.49
502.43	383.10
502.79	388.91
503.16	394.97
503.52	401.23
503.88	407.68
504.24	414.35
504.60	421.16
504.97	428.28
505.33	435.56
505.69	443.22
506.05	450.99
506.41	458.83
506.78	466.93
507.14	475.39
507.50	484.11
507.86	493.10
508.22	502.23
508.59	511.36
508.95	520.88
509.31	530.61
509.67	540.66
510.03	550.87
510.39	561.42
510.75	572.18
511.12	583.09
511.48	594.27
511.84	605.71
512.20	617.23
512.56	629.17
512.92	641.28
513.28	653.59
513.64	666.12
514.00	678.83
514.37	691.81
514.73	704.83
515.09	717.85
515.45	731.15
515.81	744.72
516.17	758.82
516.53	772.94
516.89	787.12
517.25	801.36
517.61	815.79
517.97	830.23
518.33	844.60
518.69	859.39
519.05	874.38
519.41	889.56
519.77	905.12
520.13	920.58
520.49	936.01
520.85	951.52
521.21	967.25
521.57	983.56
521.93	999.38
522.29	1015.74
522.65	1032.04
523.01	1048.25
523.37	1064.43
523.73	1080.59
524.09	1096.67
524.45	1113.01
524.81	1129.75
525.17	1146.68
525.53	1163.63
525.89	1180.58
526.25	1197.38
526.61	1213.89
526.97	1230.66
527.33	1247.26
527.68	1264.04
528.04	1280.60
528.40	1297.33
528.76	1314.49
529.12	1331.13
529.48	1348.05
529.84	1364.24
530.20	1380.85
530.56	1397.99
530.91	1415.36
531.27	1432.22
531.63	1448.68
531.99	1465.47
532.35	1481.46
532.71	1497.39
533.07	1513.79
533.42	1529.88
533.78	1546.09
534.14	1562.43
534.50	1577.93
534.86	1593.88
535.21	1608.91
535.57	1625.03
535.93	1640.55
536.29	1655.37
536.65	1670.59
537.00	1685.48
537.36	1700.92
537.72	1715.69
538.08	1730.18
538.44	1744.16
538.79	1758.16
539.15	1772.17
539.51	1785.95
539.87	1800.38
540.22	1814.26
540.58	1828.06
540.94	1841.54
541.29	1854.58
541.65	1867.34
542.01	1880.57
542.37	1892.81
542.72	1905.53
543.08	1917.39
543.44	1929.87
543.79	1941.18
544.15	1952.19
544.51	1963.75
544.87	1974.70
545.22	1985.61
545.58	1996.00
545.94	2005.69
546.29	2015.66
546.65	2025.40
547.01	2034.64
547.36	2043.51
547.72	2052.09
548.07	2059.95
548.43	2068.25
548.79	2076.32
549.14	2083.83
549.50	2091.21
549.86	2099.09
550.21	2106.39
550.57	2113.47
550.92	2119.98
551.28	2127.03
551.64	2133.99
551.99	2140.59
552.35	2146.70
552.70	2152.59
553.06	2158.47
553.41	2164.80
553.77	2170.79
554.13	2176.95
554.48	2183.08
554.84	2188.45
555.19	2193.72
555.55	2198.81
555.90	2203.05
556.26	2207.81
556.61	2212.51
556.97	2216.63
557.32	2220.66
557.68	2224.68
558.03	2228.88
558.39	2232.59
558.74	2237.10
559.10	2240.98
559.45	2244.65
559.81	2249.05
560.16	2252.84
560.52	2256.14
560.87	2259.65
561.23	2262.22
561.58	2265.08
561.94	2267.62
562.29	2269.84
562.64	2272.41
563.00	2275.04
563.35	2278.52
563.71	2281.57
564.06	2284.66
564.42	2287.50
564.77	2289.96
565.12	2292.10
565.48	2293.85
565.83	2295.63
566.19	2296.76
566.54	2297.73
566.89	2298.55
567.25	2298.93
567.60	2300.27
567.96	2301.62
568.31	2302.33
568.66	2303.32
569.02	2303.89
569.37	2304.00
569.72	2304.82
570.08	2304.84
570.43	2304.63
570.78	2303.74
571.14	2302.17
571.49	2300.84
571.84	2300.36
572.20	2298.91
572.55	2297.86
572.90	2296.33
573.26	2294.82
573.61	2293.12
573.96	2291.03
574.31	2288.09
574.67	2284.87
575.02	2281.08
575.37	2277.51
575.72	2273.50
576.08	2270.13
576.43	2266.62
576.78	2262.79
577.13	2259.48
577.49	2256.35
577.84	2252.88
578.19	2249.26
578.54	2245.36
578.90	2241.02
579.25	2235.39
579.60	2230.41
579.95	2225.23
580.30	2220.01
580.66	2214.54
581.01	2209.57
581.36	2204.63
581.71	2200.17
582.06	2195.63
582.42	2191.14
582.77	2185.93
583.12	2181.25
583.47	2176.24
583.82	2171.10
584.17	2165.87
584.53	2160.23
584.88	2154.45
585.23	2148.39
585.58	2142.75
585.93	2137.24
586.28	2132.34
586.63	2127.12
586.98	2121.87
587.34	2117.19
587.69	2112.30
588.04	2107.09
588.39	2101.31
588.74	2094.72
589.09	2088.69
589.44	2081.81
589.79	2075.54
590.14	2069.88
590.49	2063.21
590.84	2056.78
591.19	2050.50
591.54	2043.87
591.89	2036.31
592.25	2029.33
592.60	2022.10
592.95	2014.29
593.30	2006.78
593.65	1998.93
594.00	1992.00
594.35	1984.76
594.70	1976.54
595.05	1969.17
595.40	1961.88
595.75	1954.25
596.10	1947.86
596.45	1940.82
596.80	1934.55
597.15	1927.89
597.50	1920.50
597.85	1914.06
598.19	1907.37
598.54	1900.29
598.89	1893.58
599.24	1887.78
599.59	1880.99
599.94	1874.72
600.29	1868.36
600.64	1861.90
600.99	1854.43
601.34	1847.39
601.69	1840.24
602.04	1833.17
602.39	1825.79
602.74	1818.92
603.08	1812.24
603.43	1805.50
603.78	1798.26
604.13	1791.07
604.48	1783.69
604.83	1776.98
605.18	1769.91
605.53	1761.75
605.87	1753.80
606.22	1746.59
606.57	1738.63
606.92	1731.29
607.27	1724.12
607.62	1717.22
607.96	1709.82
608.31	1703.19
608.66	1695.58
609.01	1688.10
609.36	1680.78
609.70	1672.86
610.05	1664.70
610.40	1656.92
610.75	1648.53
611.10	1641.01
611.44	1632.68
611.79	1624.70
612.14	1616.06
612.49	1606.95
612.83	1598.77
613.18	1590.65
613.53	1582.54
613.88	1573.91
614.22	1565.66
614.57	1557.12
614.92	1549.19
615.27	1541.65
615.61	1533.47
615.96	1525.39
616.31	1517.85
616.65	1510.35
617.00	1502.70
617.35	1495.04
617.70	1486.70
618.04	1478.30
618.39	1469.93
618.74	1462.31
619.08	1454.18
619.43	1446.60
619.78	1439.75
620.12	1432.57
620.47	1424.99
620.82	1416.85
621.16	1409.56
621.51	1402.05
621.85	1394.53
622.20	1385.98
622.55	1377.79
622.89	1369.93
623.24	1362.49
623.59	1355.14
623.93	1347.69
624.28	1340.47
624.62	1333.05
624.97	1325.97
625.32	1319.26
625.66	1312.29
626.01	1305.15
626.35	1297.63
626.70	1289.88
627.04	1282.17
627.39	1274.39
627.73	1267.22
628.08	1260.43
628.43	1253.07
628.77	1245.74
629.12	1238.10
629.46	1230.94
629.81	1223.46
630.15	1216.22
630.50	1208.89
630.84	1200.73
631.19	1192.89
631.53	1185.49
631.88	1177.95
632.22	1170.40
632.57	1163.13
632.91	1155.68
633.26	1148.28
633.60	1140.99
633.95	1133.98
634.29	1126.96
634.64	1120.31
634.98	1112.90
635.32	1105.70
635.67	1099.32
636.01	1092.73
636.36	1085.98
636.70	1079.60
637.05	1073.13
637.39	1066.73
637.73	1060.15
638.08	1054.40
638.42	1048.47
638.77	1041.96
639.11	1035.40
639.45	1029.03
639.80	1022.43
640.14	1016.02
640.49	1009.48
640.83	1003.25
641.17	997.04
641.52	990.79
641.86	984.44
642.20	978.60
642.55	972.36
642.89	965.75
643.23	959.15
643.58	953.36
643.92	947.10
644.26	941.04
644.61	935.10
644.95	929.10
645.29	922.46
645.64	915.68
645.98	909.42
646.32	903.64
646.66	897.61
647.01	891.85
647.35	886.21
647.69	880.45
648.04	874.90
648.38	869.14
648.72	863.00
649.06	856.89
649.41	851.03
649.75	845.03
650.09	839.12
650.43	833.40
650.78	827.26
651.12	821.32
651.46	815.51
651.80	809.63
652.14	804.23
652.49	798.93
652.83	793.79
653.17	788.10
653.51	782.33
653.85	776.96
654.20	771.28
654.54	765.22
654.88	759.49
655.22	753.66
655.56	747.99
655.90	742.69
656.25	737.50
656.59	732.16
656.93	727.08
657.27	721.97
657.61	716.63
657.95	711.61
658.29	706.55
658.64	701.44
658.98	696.25
659.32	690.84
659.66	685.56
660.00	680.26
660.34	675.37
660.68	670.55
661.02	665.58
661.36	660.96
661.70	656.52
662.05	652.21
662.39	647.83
662.73	643.42
663.07	639.06
663.41	634.62
663.75	630.11
664.09	625.59
664.43	621.24
664.77	617.08
665.11	612.85
665.45	608.77
665.79	604.69
666.13	600.60
666.47	596.56
666.81	592.45
667.15	588.31
667.49	584.45
667.83	580.62
668.17	576.66
668.51	572.58
668.85	568.60
669.19	564.76
669.53	560.99
669.87	557.08
670.21	553.36
670.55	549.72
670.89	546.37
671.23	542.94
671.57	539.46
671.91	535.99
672.25	532.56
672.58	529.11
672.92	525.77
673.26	522.66
673.60	519.57
673.94	516.48
674.28	513.64
674.62	510.69
674.96	507.65
675.30	504.72
675.64	501.83
675.97	499.09
676.31	496.21
676.65	493.29
676.99	490.63
677.33	487.82
677.67	485.08
678.01	482.06
678.34	479.11
678.68	476.26
679.02	473.43
679.36	470.67
679.70	467.91
680.04	465.09
680.37	462.16
680.71	459.36
681.05	456.72
681.39	454.00
681.73	451.34
682.06	448.80
682.40	446.29
682.74	443.74
683.08	441.19
683.42	438.61
683.75	436.16
684.09	433.65
684.43	431.19
684.77	428.67
685.10	426.36
685.44	424.08
685.78	421.77
686.12	419.53
686.45	417.23
686.79	414.94
687.13	412.81
687.46	410.69
687.80	408.55
688.14	406.39
688.48	404.32
688.81	402.09
689.15	399.97
689.49	397.85
689.82	395.82
690.16	393.76
690.50	391.82
690.83	389.87
691.17	387.86
691.51	385.98
691.84	384.17
692.18	382.19
692.52	380.16
692.85	378.26
693.19	376.36
693.52	374.57
693.86	372.81
694.20	371.00
694.53	369.21
694.87	367.40
695.21	365.62
695.54	363.83
695.88	362.13
696.21	360.34
696.55	358.65
696.88	356.97
697.22	355.38
697.56	353.80
697.89	352.14
698.23	350.55
698.56	348.92
698.90	347.37
699.23	345.73
699.57	344.27
699.90	342.72
700.24	341.22
700.58	339.69
700.91	338.17
701.25	336.72
701.58	335.40
701.92	334.02
702.25	332.65
702.59	331.30
702.92	329.94
703.26	328.71
703.59	327.47
703.93	326.32
704.26	325.06
704.60	323.76
704.93	322.52
705.26	321.28
705.60	320.15
705.93	318.98
706.27	317.99
706.60	316.90
706.94	315.86
707.27	314.76
707.61	313.74
707.94	312.74
708.27	311.70
708.61	310.62
708.94	309.62
709.28	308.65
709.61	307.71
709.94	306.80
710.28	305.77
710.61	304.77
710.95	303.70
711.28	302.81
711.61	301.86
711.95	300.93
712.28	300.05
712.61	299.05
712.95	298.16
713.28	297.30
713.61	296.48
713.95	295.56
714.28	294.74
714.61	293.86
714.95	293.01
715.28	292.12
715.61	291.26
715.95	290.42
716.28	289.58
716.61	288.76
716.95	287.99
717.28	287.28
717.61	286.53
717.94	285.80
718.28	284.97
718.61	284.24
718.94	283.54
719.27	282.87
719.61	282.26
719.94	281.54
720.27	280.80
720.60	280.06
720.94	279.46
721.27	278.82
721.60	278.25
721.93	277.68
722.27	277.12
722.60	276.55
722.93	275.94
723.26	275.41
723.59	274.86
723.93	274.26
724.26	273.68
724.59	273.10
724.92	272.53
725.25	272.03
725.59	271.53
725.92	271.08
726.25	270.54
726.58	270.04
726.91	269.57
727.24	269.09
727.57	268.69
727.91	268.16
728.24	267.73
728.57	267.21
728.90	266.74
729.23	266.29
729.56	265.89
729.89	265.42
730.22	264.93
730.55	264.48
730.89	264.03
731.22	263.62
731.55	263.18
731.88	262.78
732.21	262.34
732.54	261.90
732.87	261.39
733.20	261.00
733.53	260.59
733.86	260.23
734.19	259.85
734.52	259.42
734.85	259.12
735.18	258.71
735.51	258.36
735.84	257.99
736.17	257.60
736.50	257.19
736.83	256.98
737.16	256.63
737.49	256.28
737.82	255.97
738.15	255.67
738.48	255.32
738.81	254.98
739.14	254.65
739.47	254.35
739.80	254.08
740.13	253.79
740.46	253.45
740.79	253.07
741.12	252.75
741.45	252.43
741.78	252.10
742.11	251.78
742.44	251.45
742.77	251.16
743.10	250.87
743.43	250.57
743.75	250.15
744.08	250.05
744.41	249.79
744.74	249.53
745.07	249.23
745.40	248.98
745.73	248.79
746.06	248.56
746.39	248.30
746.71	248.04
747.04	247.75
747.37	247.49
747.70	247.29
748.03	247.04
748.36	246.84
748.68	246.59
749.01	246.39
749.34	246.17
749.67	245.95
750.00	245.73
750.33	245.60
750.65	245.40
750.98	245.06
751.31	244.80
751.64	244.58
751.97	244.38
752.29	244.16
752.62	243.88
752.95	243.67
753.28	243.46
753.60	243.26
753.93	243.10
754.26	242.93
754.59	242.71
754.91	242.53
755.24	242.32
755.57	242.15
755.90	241.93
756.22	241.76
756.55	241.52
756.88	241.33
757.20	241.09
757.53	240.89
757.86	240.69
758.19	240.54
758.51	240.38
758.84	240.19
759.17	240.06
759.49	239.91
759.82	239.77
760.15	239.62
760.47	239.47
760.80	239.30
761.13	239.14
761.45	238.99
761.78	238.83
762.11	238.67
762.43	238.50
762.76	238.36
763.08	238.21
763.41	238.10
763.74	237.95
764.06	237.80
764.39	237.69
764.71	237.59
765.04	237.44
765.37	237.27
765.69	237.16
766.02	237.03
766.34	236.89
766.67	236.76
767.00	236.67
767.32	236.58
767.65	236.48
767.97	236.37
768.30	236.27
768.62	236.16
768.95	236.04
769.27	235.93
769.60	235.86
769.92	235.73
770.25	235.63
770.57	235.51
770.90	235.43
771.22	235.26
771.55	235.17
771.87	235.11
772.20	235.02
772.52	234.98
772.85	235.00
773.17	234.89
773.50	234.75
773.82	234.63
774.15	234.49
774.47	234.40
774.80	234.31
775.12	234.23
775.45	234.17
775.77	234.09
776.09	234.01
776.42	233.89
776.74	233.87
777.07	233.82
777.39	233.75
777.72	233.68
778.04	233.67
778.36	233.58
778.69	233.50
779.01	233.43
779.33	233.28
779.66	233.10
779.98	233.02
780.31	232.96
780.63	232.93
780.95	232.88
781.28	232.80
781.60	232.74
781.92	232.63
782.25	232.55
782.57	232.51
782.89	232.44
783.22	232.40
783.54	232.29
783.86	232.22
784.19	232.16
784.51	232.13
784.83	232.04
785.16	231.96
785.48	231.92
785.80	231.91
786.12	231.86
786.45	231.83
786.77	231.85
787.09	231.83
787.42	231.74
787.74	231.71
788.06	231.66
788.38	231.61
788.71	231.57
789.03	231.55
789.35	231.57
789.67	231.53
789.99	231.49
790.32	231.46
790.64	231.45
790.96	231.50
791.28	231.46
791.61	231.44
791.93	231.40
792.25	231.40
792.57	231.42
792.89	231.41
793.21	231.38
793.54	231.30
793.86	231.27
794.18	231.27
794.50	231.22
794.82	231.19
795.14	231.16
795.47	231.15
795.79	231.12
796.11	231.03
796.43	231.00
796.75	230.97
797.07	230.95
797.39	230.92
797.71	230.80
798.04	230.75
798.36	230.74
798.68	230.75
799.00	230.69
799.32	230.60
799.64	230.57
799.96	230.53
800.28	230.51
800.60	230.46
800.92	230.42
801.24	230.42
801.56	230.41
801.89	230.34
802.21	230.34
802.53	230.29
802.85	230.29
803.17	230.29
803.49	230.23
803.81	230.17
804.13	230.09
804.45	230.07
804.77	230.06
805.09	230.04
805.41	229.98
805.73	229.94
806.05	229.92
806.37	229.87
806.69	229.85
807.01	229.82
807.33	229.81
807.65	229.73
807.97	229.75
808.28	229.72
808.60	229.72
808.92	229.65
809.24	229.70
809.56	229.66
809.88	229.62
810.20	229.62
810.52	229.62
810.84	229.61
811.16	229.58
811.48	229.53
811.80	229.51
812.12	229.46
812.43	229.45
812.75	229.41
813.07	229.37
813.39	229.35
813.71	229.27
814.03	229.24
814.35	229.23
814.67	229.15
814.98	229.10
815.30	229.08
815.62	229.04
815.94	228.97
816.26	228.99
816.58	228.94
816.89	228.94
817.21	228.89
817.53	228.85
817.85	228.83
818.17	228.80
818.48	228.74
818.80	228.75
819.12	228.73
819.44	228.70
819.76	228.67
820.07	228.68
820.39	228.68
820.71	228.66
821.03	228.66
821.34	228.62
821.66	228.63
821.98	228.63
822.30	228.61
822.61	228.62
822.93	228.57
823.25	228.58
823.57	228.55
823.88	228.56
824.20	228.57
824.52	228.56
824.83	228.55
825.15	228.55
825.47	228.53
825.79	228.51
826.10	228.52
826.42	228.53
826.74	228.49
827.05	228.46
827.37	228.48
827.69	228.44
828.00	228.44
828.32	228.38
828.64	228.36
828.95	228.42
829.27	228.41
829.58	228.37
829.90	228.36
830.22	228.34
830.53	228.31
830.85	228.31
831.17	228.30
831.48	228.31
831.80	228.30
832.11	228.28
832.43	228.26
832.75	228.23
833.06	228.27
833.38	228.25
833.69	228.26
834.01	228.22
834.32	228.24
834.64	228.22
834.96	228.23
835.27	228.22
835.59	228.17
835.90	228.12
836.22	228.11
836.53	228.09
836.85	228.09
837.16	228.16
837.48	228.12
837.79	228.13
838.11	228.14
838.42	228.17
838.74	228.20
839.05	228.20
839.37	228.22
839.68	228.15
840.00	228.15
840.31	228.19
840.63	228.17
840.94	228.17
841.26	228.18
841.57	228.21
841.88	228.20
842.20	228.20
842.51	228.20
842.83	228.22
843.14	228.29
843.46	228.32
843.77	228.30
844.08	228.29
844.40	228.26
844.71	228.22
845.03	228.18
845.34	228.16
845.65	228.17
845.97	228.17
846.28	228.15
846.60	228.16
846.91	228.12
847.22	228.12
847.54	228.12
847.85	228.14
848.16	228.12
848.48	228.11
848.79	228.13
849.10	228.15
849.42	228.14
849.73	228.05
850.04	228.01
850.36	227.96
850.67	227.96
850.98	227.94
851.30	227.94
851.61	227.93
851.92	227.90
852.23	227.88
852.55	227.84
852.86	227.87
853.17	227.85
853.49	227.86
853.80	227.84
854.11	227.85
854.42	227.82
854.74	227.78
855.05	227.78
855.36	227.69
855.67	227.67
855.99	227.62
856.30	227.71
856.61	227.71
856.92	227.71
857.23	227.72
857.55	227.70
857.86	227.68
858.17	227.65
858.48	227.63
858.79	227.61
859.11	227.59
859.42	227.57
859.73	227.55
860.04	227.53
860.35	227.52
860.66	227.49
860.98	227.45
861.29	227.47
861.60	227.46
861.91	227.49
862.22	227.49
862.53	227.49
862.84	227.37
863.16	227.40
863.47	227.33
863.78	227.33
864.09	227.36
864.40	227.36
864.71	227.36
865.02	227.39
865.33	227.36
865.64	227.36
865.95	227.34
866.27	227.40
866.58	227.40
866.89	227.42
867.20	227.43
867.51	227.43
867.82	227.43
868.13	227.45
868.44	227.44
868.75	227.44
869.06	227.43
869.37	227.46
869.68	227.40
869.99	227.46
870.30	227.45
870.61	227.46
870.92	227.44
871.23	227.43
871.54	227.43
871.85	227.47
872.16	227.51
872.47	227.51
872.78	227.47
873.09	227.45
873.40	227.42
873.71	227.41
874.02	227.39
874.33	227.41
874.64	227.40
874.95	227.39
875.26	227.40
875.56	227.43
875.87	227.43
876.18	227.45
876.49	227.51
876.80	227.52
877.11	227.48
877.42	227.51
877.73	227.55
878.04	227.57
878.35	227.59
878.66	227.55
878.96	227.56
879.27	227.53
879.58	227.55
879.89	227.57
880.20	227.60
880.51	227.59
880.82	227.57
881.12	227.57
881.43	227.60
881.74	227.57
882.05	227.55
882.36	227.57
882.67	227.57
882.97	227.47
883.28	227.45
883.59	227.45
883.90	227.46
884.21	227.44
884.51	227.41
884.82	227.39
885.13	227.42
885.44	227.42
885.74	227.43
886.05	227.41
886.36	227.40
886.67	227.34
886.98	227.41
887.28	227.43
887.59	227.43
887.90	227.38
888.20	227.37
888.51	227.37
888.82	227.33
889.13	227.32
889.43	227.43
889.74	227.43
890.05	227.41
890.35	227.37
890.66	227.38
890.97	227.36
891.28	227.31
891.58	227.29
891.89	227.29
892.20	227.29
892.50	227.27
892.81	227.29
893.12	227.32
893.42	227.24
893.73	227.21
894.04	227.15
894.34	227.15
894.65	227.13
894.95	227.10
895.26	227.09
895.57	227.14
895.87	227.00
896.18	227.00
896.48	227.03
896.79	227.04
897.10	227.03
897.40	227.06
897.71	227.07
898.01	227.08
898.32	227.08
898.63	227.05
898.93	227.06
899.24	227.01
899.54	227.00
899.85	227.02
900.15	227.03
900.46	227.07
900.76	227.07
901.07	227.07
901.38	227.11
901.68	227.10
901.99	227.05
902.29	227.07
902.60	227.05
902.90	227.03
903.21	227.03
903.51	227.03
903.82	227.02
904.12	227.02
904.43	227.02
904.73	227.01
905.03	227.03
905.34	227.13
905.64	227.16
905.95	227.16
906.25	227.16
906.56	227.15
906.86	227.13
907.17	227.14
907.47	227.15
907.77	227.14
908.08	227.14
908.38	227.15
908.69	227.17
908.99	227.20
909.30	227.20
909.60	227.21
909.90	227.18
910.21	227.17
910.51	227.20
910.81	227.18
911.12	227.19
911.42	227.21
911.73	227.13
912.03	227.12
912.33	227.14
912.64	227.13
912.94	227.14
913.24	227.13
913.55	227.13
913.85	227.15
914.15	227.17
914.46	227.18
914.76	227.18
915.06	227.20
915.37	227.18
915.67	227.19
915.97	227.21
916.27	227.21
916.58	227.24
916.88	227.21
917.18	227.22
917.49	227.28
917.79	227.27
918.09	227.28
918.39	227.29
918.70	227.29
919.00	227.28
919.30	227.34
919.60	227.32
919.91	227.33
920.21	227.35
920.51	227.33
920.81	227.36
921.12	227.35
921.42	227.37
921.72	227.38
922.02	227.38
922.32	227.41
922.63	227.41
922.93	227.44
923.23	227.45
923.53	227.47
923.83	227.41
924.13	227.41
924.44	227.41
924.74	227.44
925.04	227.46
925.34	227.47
925.64	227.41
925.94	227.45
926.24	227.51
926.55	227.51
926.85	227.50
927.15	227.49
927.45	227.52
927.75	227.46
928.05	227.48
928.35	227.47
928.65	227.47
928.95	227.50
929.26	227.50
929.56	227.52
929.86	227.53
930.16	227.49
930.46	227.46
930.76	227.45
931.06	227.39
931.36	227.34
931.66	227.34
931.96	227.35
932.26	227.36
932.56	227.28
932.86	227.26
933.16	227.27
933.46	227.25
933.76	227.19
934.06	227.23
934.36	227.25
934.66	227.21
934.96	227.20
935.26	227.18
935.56	227.16
935.86	227.15
936.16	227.12
936.46	227.14
936.76	227.17
937.06	227.15
937.36	227.16
937.66	227.19
937.96	227.20
938.26	227.19
938.56	227.17
938.86	227.20
939.16	227.22
939.46	227.22
939.76	227.23
940.06	227.23
940.35	227.20
940.65	227.12
940.95	227.15
941.25	227.10
941.55	227.14
941.85	227.12
942.15	227.13
942.45	227.16
942.75	227.12
943.04	227.10
943.34	227.13
943.64	227.16
943.94	227.14
944.24	227.13
944.54	227.13
944.84	227.14
945.13	227.11
945.43	227.11
945.73	227.14
946.03	227.13
946.33	227.19
946.62	227.13
946.92	227.15
947.22	227.18
947.52	227.20
947.82	227.18
948.11	227.21
948.41	227.18
948.71	227.14
949.01	227.18
949.31	227.20
949.60	227.17
949.90	227.17
950.20	227.15
950.50	227.15
950.79	227.13
951.09	227.10
951.39	227.09
951.69	227.06
951.98	227.04
952.28	227.03
952.58	226.97
952.87	226.99
953.17	226.98
953.47	226.98
953.76	226.96
954.06	226.93
954.36	226.88
954.66	226.88
954.95	226.90
955.25	226.89
955.55	226.92
955.84	226.92
956.14	226.92
956.44	226.95
956.73	226.93
957.03	226.94
957.32	226.93
957.62	226.92
957.92	226.96
958.21	226.96
958.51	227.08
958.81	227.10
959.10	227.11
959.40	227.12
959.69	227.10
959.99	227.11
960.29	227.14
960.58	227.13
960.88	227.17
961.17	227.17
961.47	227.18
961.76	227.15
962.06	227.13
962.36	227.10
962.65	227.09
962.95	227.10
963.24	227.10
963.54	227.10
963.83	227.11
964.13	227.10
964.42	227.03
964.72	226.97
965.01	226.97
965.31	226.96
965.60	226.93
965.90	226.97
966.19	226.97
966.49	226.91
966.78	226.90
967.08	226.91
967.37	226.89
967.67	226.85
967.96	226.87
968.26	226.88
968.55	226.90
968.85	226.89
969.14	226.88
969.43	226.86
969.73	226.86
970.02	226.84
970.32	226.83
970.61	226.86
970.91	226.80
971.20	226.79
971.49	226.83
971.79	226.87
972.08	226.83
972.38	226.83
972.67	226.82
972.96	226.84
973.26	226.81
973.55	226.85
973.85	226.84
974.14	226.81
974.43	226.79
974.73	226.78
975.02	226.75
975.31	226.75
975.61	226.78
975.90	226.77
976.19	226.78
976.49	226.77
976.78	226.77
977.07	226.79
977.37	226.80
977.66	226.78
977.95	226.75
978.24	226.75
978.54	226.80
978.83	226.83
979.12	226.85
979.42	226.86
979.71	226.84
980.00	226.86
980.29	226.88
980.59	226.88
980.88	226.92
981.17	226.92
981.46	226.94
981.76	226.91
982.05	226.95
982.34	226.94
982.63	226.95
982.93	226.95
983.22	226.99
983.51	226.97
983.80	226.96
984.09	227.00
984.39	226.99
984.68	226.94
984.97	226.97
985.26	226.94
985.55	226.95
985.85	226.94
986.14	226.95
986.43	226.97
986.72	226.99
987.01	226.94
987.30	226.93
987.59	226.96
987.89	226.98
988.18	226.95
988.47	226.98
988.76	227.00
989.05	227.00
989.34	226.99
989.63	227.04
989.92	227.04
990.22	227.04
990.51	227.04
990.80	227.04
991.09	227.01
991.38	227.03
991.67	227.01
991.96	226.99
992.25	227.00
992.54	226.97
992.83	226.96
993.12	226.98
993.41	227.01
993.70	227.01
993.99	227.02
994.28	227.07
994.58	227.08
994.87	227.05
995.16	227.05
995.45	227.02
995.74	226.97
996.03	226.99
996.32	226.99
996.61	227.03
996.90	227.04
997.19	227.04
997.48	227.04
997.77	227.02
998.06	227.03
998.34	226.99
998.63	227.01
998.92	226.98
999.21	226.96
999.50	226.97
999.79	226.93
1000.08	226.92
1000.37	226.94
1000.66	226.93
1000.95	226.98
1001.24	226.94
1001.53	226.97
1001.82	226.98
1002.11	226.95
1002.40	226.95
1002.68	226.93
1002.97	227.00
1003.26	226.99
1003.55	227.00
1003.84	227.00
1004.13	227.03
1004.42	227.02
1004.71	226.99
1004.99	227.00
1005.28	227.05
1005.57	227.04
1005.86	227.06
1006.15	227.05
1006.44	226.99
1006.72	226.99
1007.01	226.93
1007.30	226.98
1007.59	226.97
1007.88	226.92
1008.17	226.93
1008.45	226.93
1008.74	226.91
1009.03	226.81
1009.32	226.79
1009.60	226.78
1009.89	226.75
1010.18	226.73
1010.47	226.75
1010.76	226.76
1011.04	226.77
1011.33	226.75
1011.62	226.74
1011.91	226.73
1012.19	226.73
1012.48	226.71
1012.77	226.71
1013.05	226.74
1013.34	226.74
1013.63	226.72
1013.92	226.77
1014.20	226.78
1014.49	226.76
1014.78	226.80
1015.06	226.86
1015.35	226.90
1015.64	226.90
1015.92	226.96
1016.21	226.95
1016.50	226.93
1016.78	226.99
1017.07	226.99
1017.36	226.99
1017.64	226.99
1017.93	227.03
1018.22	227.02
1018.50	227.04
1018.79	227.03
1019.08	227.01
1019.36	227.01
1019.65	227.04
1019.93	227.08
1020.22	227.08
1020.51	227.14
1020.79	227.09
1021.08	226.64
1021.36	226.67
1021.65	227.00
1021.94	226.78
1022.22	227.05
1022.51	227.10
1022.79	227.79
1023.08	227.11
1023.36	228.41
1023.65	226.52
>>>>>End Processed Spectral Data<<<<<
