SpectraSuite Data File
++++++++++++++++++++++++++++++++++++
Date: Fri Feb 01 16:23:00 EST 2013
User: group
Dark Spectrum Present: No
Reference Spectrum Present: No
Number of Sampled Component Spectra: 1
Spectrometers: USB2E7196
Integration Time (usec): 35000 (USB2E7196)
Spectra Averaged: 100 (USB2E7196)
Boxcar Smoothing: 10 (USB2E7196)
Correct for Electrical Dark: No (USB2E7196)
Strobe/Lamp Enabled: No (USB2E7196)
Correct for Detector Non-linearity: No (USB2E7196)
Correct for Stray Light: No (USB2E7196)
Number of Pixels in Processed Spectrum: 2048
>>>>>Begin Processed Spectral Data<<<<<
339.09	0.00
339.48	213.63
339.86	214.89
340.24	216.72
340.63	217.95
341.01	221.12
341.39	220.56
341.78	221.86
342.16	223.28
342.54	223.96
342.93	212.29
343.31	223.05
343.69	223.58
344.07	224.06
344.46	224.50
344.84	224.91
345.22	225.16
345.60	225.42
345.99	225.62
346.37	225.76
346.75	225.87
347.13	225.94
347.52	225.95
347.90	226.01
348.28	226.05
348.66	226.06
349.05	226.06
349.43	226.09
349.81	226.16
350.19	226.20
350.57	226.27
350.96	226.29
351.34	226.38
351.72	226.50
352.10	226.60
352.48	226.69
352.87	226.72
353.25	226.78
353.63	226.87
354.01	226.96
354.39	227.04
354.77	227.11
355.15	227.21
355.54	227.32
355.92	227.40
356.30	227.49
356.68	227.59
357.06	227.71
357.44	227.79
357.82	227.86
358.20	227.93
358.58	227.98
358.97	228.10
359.35	228.19
359.73	228.25
360.11	228.34
360.49	228.39
360.87	228.44
361.25	228.50
361.63	228.57
362.01	228.62
362.39	228.65
362.77	228.71
363.15	228.71
363.53	228.73
363.91	228.74
364.29	228.75
364.67	228.75
365.05	228.76
365.43	228.76
365.81	228.77
366.19	228.80
366.57	228.85
366.95	228.80
367.33	228.72
367.71	228.72
368.09	228.70
368.47	228.69
368.85	228.66
369.23	228.64
369.61	228.58
369.99	228.54
370.37	228.51
370.75	228.48
371.13	228.46
371.51	228.36
371.89	228.32
372.27	228.27
372.65	228.21
373.03	228.14
373.41	228.09
373.78	228.02
374.16	227.91
374.54	227.81
374.92	227.78
375.30	227.73
375.68	227.63
376.06	227.56
376.44	227.48
376.82	227.42
377.19	227.33
377.57	227.26
377.95	227.17
378.33	227.12
378.71	227.03
379.09	226.96
379.47	226.94
379.84	226.88
380.22	226.81
380.60	226.72
380.98	226.67
381.36	226.60
381.73	226.51
382.11	226.48
382.49	226.41
382.87	226.34
383.25	226.30
383.62	226.36
384.00	226.27
384.38	226.21
384.76	226.18
385.13	226.19
385.51	226.11
385.89	226.07
386.27	226.00
386.64	225.93
387.02	225.90
387.40	225.86
387.78	225.82
388.15	225.81
388.53	225.80
388.91	225.73
389.29	225.68
389.66	225.68
390.04	225.63
390.42	225.63
390.79	225.61
391.17	225.59
391.55	225.47
391.92	225.47
392.30	225.50
392.68	225.46
393.05	225.44
393.43	225.48
393.81	225.48
394.18	225.49
394.56	225.51
394.94	225.54
395.31	225.54
395.69	225.61
396.06	225.65
396.44	225.67
396.82	225.71
397.19	225.82
397.57	225.85
397.95	225.96
398.32	225.99
398.70	226.06
399.07	226.16
399.45	226.22
399.82	226.30
400.20	226.35
400.58	226.42
400.95	226.50
401.33	226.59
401.70	226.76
402.08	226.87
402.45	226.99
402.83	227.08
403.20	227.20
403.58	227.28
403.95	227.41
404.33	227.58
404.71	227.71
405.08	227.89
405.46	228.03
405.83	228.19
406.21	228.38
406.58	228.53
406.96	228.70
407.33	228.88
407.70	229.07
408.08	229.37
408.45	229.58
408.83	229.80
409.20	230.03
409.58	230.21
409.95	230.47
410.33	230.75
410.70	231.04
411.08	231.30
411.45	231.60
411.82	231.90
412.20	232.24
412.57	232.68
412.95	232.97
413.32	233.38
413.69	233.79
414.07	234.17
414.44	234.62
414.82	235.07
415.19	235.60
415.56	236.11
415.94	236.61
416.31	237.24
416.68	237.85
417.06	238.53
417.43	239.20
417.81	239.93
418.18	240.68
418.55	241.47
418.93	242.39
419.30	243.28
419.67	244.22
420.04	245.14
420.42	246.08
420.79	247.25
421.16	248.35
421.54	249.50
421.91	250.72
422.28	251.97
422.66	253.31
423.03	254.61
423.40	255.95
423.77	257.37
424.15	258.80
424.52	260.29
424.89	261.89
425.26	263.42
425.64	264.86
426.01	266.42
426.38	268.05
426.75	269.70
427.13	271.37
427.50	273.19
427.87	275.07
428.24	276.93
428.61	278.65
428.99	280.63
429.36	282.74
429.73	284.84
430.10	286.88
430.47	288.90
430.85	291.00
431.22	293.26
431.59	295.60
431.96	297.83
432.33	300.29
432.70	302.69
433.08	305.53
433.45	308.20
433.82	310.78
434.19	313.68
434.56	316.48
434.93	319.12
435.30	321.71
435.68	324.56
436.05	327.39
436.42	330.18
436.79	332.67
437.16	335.35
437.53	338.15
437.90	340.91
438.27	343.66
438.64	346.50
439.01	349.03
439.38	351.23
439.75	353.41
440.13	355.94
440.50	358.22
440.87	360.03
441.24	361.98
441.61	364.18
441.98	365.67
442.35	367.47
442.72	369.33
443.09	371.11
443.46	372.11
443.83	372.71
444.20	373.25
444.57	374.09
444.94	374.36
445.31	374.70
445.68	375.08
446.05	375.12
446.42	374.74
446.79	374.35
447.16	373.93
447.53	373.55
447.90	372.36
448.27	371.21
448.64	369.63
449.01	368.46
449.37	366.45
449.74	364.60
450.11	362.38
450.48	359.94
450.85	357.42
451.22	355.31
451.59	353.30
451.96	351.32
452.33	348.68
452.70	346.29
453.07	343.46
453.43	340.58
453.80	337.86
454.17	335.17
454.54	332.65
454.91	329.97
455.28	327.36
455.65	324.88
456.02	322.49
456.38	320.36
456.75	317.70
457.12	315.48
457.49	313.24
457.86	311.07
458.23	309.25
458.59	307.22
458.96	305.14
459.33	303.27
459.70	301.41
460.07	299.95
460.43	298.28
460.80	296.65
461.17	295.22
461.54	293.71
461.91	292.31
462.27	290.90
462.64	289.62
463.01	288.29
463.38	287.01
463.74	285.64
464.11	284.48
464.48	283.47
464.85	282.41
465.21	281.57
465.58	280.64
465.95	279.50
466.32	278.58
466.68	277.70
467.05	276.82
467.42	275.97
467.78	275.03
468.15	274.16
468.52	273.53
468.88	272.69
469.25	271.96
469.62	271.33
469.98	270.65
470.35	270.04
470.72	269.46
471.08	268.79
471.45	268.24
471.82	267.71
472.18	267.12
472.55	266.71
472.92	266.17
473.28	265.73
473.65	265.31
474.02	264.84
474.38	264.45
474.75	264.13
475.11	263.80
475.48	263.59
475.85	263.35
476.21	263.09
476.58	262.86
476.94	262.70
477.31	262.54
477.67	262.40
478.04	262.34
478.41	262.25
478.77	262.32
479.14	262.25
479.50	262.28
479.87	262.36
480.23	262.42
480.60	262.48
480.96	262.59
481.33	262.76
481.69	263.04
482.06	263.27
482.42	263.46
482.79	263.67
483.15	263.94
483.52	264.36
483.88	264.72
484.25	265.13
484.61	265.57
484.98	266.02
485.34	266.58
485.71	267.13
486.07	267.72
486.44	268.29
486.80	269.02
487.17	269.72
487.53	270.52
487.90	271.35
488.26	272.27
488.62	273.26
488.99	274.30
489.35	275.31
489.72	276.37
490.08	277.60
490.44	278.88
490.81	280.27
491.17	281.61
491.54	283.06
491.90	284.61
492.26	286.24
492.63	287.98
492.99	289.77
493.36	291.63
493.72	293.69
494.08	295.77
494.45	298.03
494.81	300.37
495.17	302.82
495.54	305.41
495.90	308.15
496.26	310.96
496.63	313.91
496.99	317.04
497.35	320.31
497.72	323.73
498.08	327.23
498.44	330.83
498.80	334.76
499.17	338.79
499.53	342.96
499.89	347.32
500.26	351.82
500.62	356.46
500.98	361.49
501.34	366.56
501.71	371.89
502.07	377.34
502.43	382.97
502.79	388.85
503.16	394.94
503.52	401.20
503.88	407.69
504.24	414.27
504.60	421.15
504.97	428.35
505.33	435.68
505.69	443.40
506.05	451.26
506.41	459.16
506.78	467.33
507.14	475.82
507.50	484.56
507.86	493.66
508.22	502.87
508.59	512.12
508.95	521.75
509.31	531.60
509.67	541.71
510.03	552.01
510.39	562.58
510.75	573.41
511.12	584.33
511.48	595.56
511.84	607.10
512.20	618.58
512.56	630.52
512.92	642.71
513.28	655.07
513.64	667.55
514.00	680.27
514.37	693.25
514.73	706.33
515.09	719.34
515.45	732.56
515.81	746.16
516.17	760.12
516.53	774.27
516.89	788.42
517.25	802.62
517.61	817.08
517.97	831.43
518.33	845.85
518.69	860.56
519.05	875.48
519.41	890.60
519.77	906.10
520.13	921.49
520.49	936.82
520.85	952.14
521.21	967.83
521.57	984.04
521.93	999.73
522.29	1015.93
522.65	1032.17
523.01	1048.29
523.37	1064.26
523.73	1080.24
524.09	1096.14
524.45	1112.45
524.81	1128.93
525.17	1145.66
525.53	1162.48
525.89	1179.19
526.25	1196.03
526.61	1212.39
526.97	1229.09
527.33	1245.55
527.68	1262.08
528.04	1278.50
528.40	1295.00
528.76	1311.93
529.12	1328.44
529.48	1345.27
529.84	1361.22
530.20	1377.68
530.56	1394.61
530.91	1411.95
531.27	1428.66
531.63	1445.09
531.99	1461.57
532.35	1477.49
532.71	1493.25
533.07	1509.46
533.42	1525.35
533.78	1541.37
534.14	1557.54
534.50	1572.72
534.86	1588.45
535.21	1603.60
535.57	1619.44
535.93	1634.80
536.29	1649.45
536.65	1664.41
537.00	1679.08
537.36	1694.42
537.72	1708.89
538.08	1723.26
538.44	1737.00
538.79	1750.92
539.15	1764.53
539.51	1778.09
539.87	1792.36
540.22	1806.00
540.58	1819.67
540.94	1832.87
541.29	1845.63
541.65	1858.20
542.01	1871.45
542.37	1883.79
542.72	1896.05
543.08	1907.76
543.44	1920.16
543.79	1931.36
544.15	1942.36
544.51	1953.95
544.87	1964.89
545.22	1975.68
545.58	1985.84
545.94	1995.51
546.29	2005.29
546.65	2015.08
547.01	2024.41
547.36	2033.01
547.72	2041.49
548.07	2049.34
548.43	2057.50
548.79	2065.46
549.14	2073.00
549.50	2080.18
549.86	2087.71
550.21	2095.04
550.57	2102.01
550.92	2108.59
551.28	2115.76
551.64	2122.70
551.99	2129.09
552.35	2135.22
552.70	2141.25
553.06	2147.23
553.41	2153.50
553.77	2159.54
554.13	2165.56
554.48	2171.61
554.84	2177.12
555.19	2182.42
555.55	2187.52
555.90	2191.98
556.26	2196.73
556.61	2201.51
556.97	2205.75
557.32	2209.95
557.68	2214.09
558.03	2218.54
558.39	2222.20
558.74	2226.79
559.10	2230.67
559.45	2234.36
559.81	2238.58
560.16	2242.59
560.52	2245.81
560.87	2249.28
561.23	2251.79
561.58	2254.69
561.94	2257.11
562.29	2259.48
562.64	2262.24
563.00	2264.96
563.35	2268.49
563.71	2271.73
564.06	2274.96
564.42	2277.92
564.77	2280.46
565.12	2282.74
565.48	2284.68
565.83	2286.54
566.19	2287.91
566.54	2288.70
566.89	2289.81
567.25	2290.38
567.60	2291.60
567.96	2293.32
568.31	2294.21
568.66	2295.50
569.02	2296.23
569.37	2296.65
569.72	2297.59
570.08	2297.61
570.43	2297.71
570.78	2297.18
571.14	2295.61
571.49	2294.20
571.84	2293.96
572.20	2292.87
572.55	2291.95
572.90	2290.33
573.26	2289.10
573.61	2287.38
573.96	2285.82
574.31	2283.03
574.67	2280.23
575.02	2276.76
575.37	2273.47
575.72	2269.72
576.08	2266.35
576.43	2263.03
576.78	2259.45
577.13	2256.25
577.49	2253.22
577.84	2249.60
578.19	2245.95
578.54	2242.45
578.90	2238.22
579.25	2232.67
579.60	2227.79
579.95	2222.75
580.30	2217.85
580.66	2212.65
581.01	2207.71
581.36	2202.87
581.71	2198.70
582.06	2194.21
582.42	2189.80
582.77	2184.60
583.12	2180.08
583.47	2175.52
583.82	2170.66
584.17	2165.48
584.53	2160.13
584.88	2154.62
585.23	2148.88
585.58	2143.34
585.93	2137.94
586.28	2133.44
586.63	2128.45
586.98	2123.55
587.34	2119.00
587.69	2114.17
588.04	2109.02
588.39	2103.38
588.74	2096.95
589.09	2090.80
589.44	2083.99
589.79	2078.05
590.14	2072.52
590.49	2066.08
590.84	2059.68
591.19	2053.55
591.54	2047.08
591.89	2039.68
592.25	2032.79
592.60	2025.72
592.95	2018.25
593.30	2010.89
593.65	2003.30
594.00	1996.29
594.35	1988.91
594.70	1980.84
595.05	1973.75
595.40	1966.56
595.75	1959.11
596.10	1952.98
596.45	1946.34
596.80	1940.43
597.15	1933.78
597.50	1926.77
597.85	1920.24
598.19	1913.62
598.54	1906.61
598.89	1900.14
599.24	1894.37
599.59	1887.89
599.94	1881.77
600.29	1875.47
600.64	1869.08
600.99	1861.66
601.34	1854.86
601.69	1848.05
602.04	1841.21
602.39	1833.89
602.74	1827.03
603.08	1820.30
603.43	1813.63
603.78	1806.28
604.13	1798.99
604.48	1791.70
604.83	1784.82
605.18	1777.86
605.53	1769.90
605.87	1761.97
606.22	1754.80
606.57	1746.89
606.92	1739.60
607.27	1732.45
607.62	1725.44
607.96	1718.08
608.31	1711.46
608.66	1703.98
609.01	1696.35
609.36	1688.89
609.70	1680.87
610.05	1672.80
610.40	1665.09
610.75	1656.60
611.10	1648.94
611.44	1640.52
611.79	1632.66
612.14	1624.03
612.49	1614.92
612.83	1606.59
613.18	1598.49
613.53	1590.32
613.88	1581.64
614.22	1573.31
614.57	1564.54
614.92	1556.59
615.27	1549.00
615.61	1540.76
615.96	1532.63
616.31	1524.95
616.65	1517.54
617.00	1509.88
617.35	1502.32
617.70	1493.94
618.04	1485.48
618.39	1477.33
618.74	1469.67
619.08	1461.25
619.43	1453.60
619.78	1446.74
620.12	1439.47
620.47	1431.94
620.82	1423.73
621.16	1416.35
621.51	1408.80
621.85	1401.26
622.20	1392.76
622.55	1384.41
622.89	1376.57
623.24	1368.91
623.59	1361.57
623.93	1353.96
624.28	1346.73
624.62	1339.15
624.97	1331.99
625.32	1325.26
625.66	1318.18
626.01	1311.03
626.35	1303.56
626.70	1295.82
627.04	1288.01
627.39	1280.20
627.73	1272.76
628.08	1265.92
628.43	1258.72
628.77	1251.24
629.12	1243.73
629.46	1236.54
629.81	1229.11
630.15	1221.81
630.50	1214.38
630.84	1206.14
631.19	1198.29
631.53	1190.75
631.88	1183.16
632.22	1175.65
632.57	1168.30
632.91	1160.76
633.26	1153.35
633.60	1145.99
633.95	1138.83
634.29	1131.76
634.64	1125.22
634.98	1117.93
635.32	1110.68
635.67	1103.92
636.01	1097.30
636.36	1090.35
636.70	1083.82
637.05	1077.28
637.39	1070.86
637.73	1064.30
638.08	1058.39
638.42	1052.35
638.77	1045.96
639.11	1039.26
639.45	1032.86
639.80	1026.17
640.14	1019.81
640.49	1013.36
640.83	1007.08
641.17	1000.91
641.52	994.54
641.86	987.99
642.20	982.05
642.55	975.79
642.89	969.36
643.23	962.78
643.58	957.13
643.92	950.96
644.26	944.79
644.61	938.67
644.95	932.72
645.29	926.06
645.64	919.27
645.98	912.94
646.32	907.26
646.66	901.27
647.01	895.53
647.35	889.83
647.69	883.93
648.04	878.32
648.38	872.47
648.72	866.54
649.06	860.52
649.41	854.62
649.75	848.60
650.09	842.73
650.43	836.93
650.78	830.70
651.12	824.76
651.46	819.04
651.80	813.30
652.14	807.97
652.49	802.69
652.83	797.60
653.17	791.83
653.51	786.07
653.85	780.71
654.20	775.07
654.54	768.98
654.88	763.18
655.22	757.30
655.56	751.60
655.90	746.17
656.25	740.86
656.59	735.56
656.93	730.51
657.27	725.32
657.61	719.94
657.95	714.85
658.29	709.71
658.64	704.54
658.98	699.24
659.32	693.72
659.66	688.54
660.00	683.18
660.34	678.29
660.68	673.40
661.02	668.20
661.36	663.44
661.70	659.01
662.05	654.67
662.39	650.31
662.73	645.84
663.07	641.45
663.41	637.02
663.75	632.50
664.09	627.94
664.43	623.51
664.77	619.33
665.11	615.05
665.45	610.94
665.79	606.84
666.13	602.69
666.47	598.63
666.81	594.46
667.15	590.36
667.49	586.45
667.83	582.61
668.17	578.70
668.51	574.63
668.85	570.56
669.19	566.74
669.53	562.92
669.87	559.08
670.21	555.33
670.55	551.65
670.89	548.18
671.23	544.76
671.57	541.27
671.91	537.71
672.25	534.22
672.58	530.65
672.92	527.21
673.26	524.04
673.60	520.76
673.94	517.61
674.28	514.70
674.62	511.75
674.96	508.60
675.30	505.68
675.64	502.77
675.97	500.02
676.31	497.11
676.65	494.17
676.99	491.46
677.33	488.64
677.67	485.85
678.01	482.78
678.34	479.76
678.68	476.84
679.02	474.06
679.36	471.28
679.70	468.53
680.04	465.82
680.37	462.93
680.71	460.23
681.05	457.65
681.39	454.91
681.73	452.24
682.06	449.75
682.40	447.21
682.74	444.65
683.08	442.06
683.42	439.47
683.75	436.99
684.09	434.41
684.43	431.86
684.77	429.38
685.10	427.05
685.44	424.71
685.78	422.45
686.12	420.22
686.45	418.00
686.79	415.73
687.13	413.51
687.46	411.34
687.80	409.17
688.14	406.91
688.48	404.86
688.81	402.61
689.15	400.44
689.49	398.31
689.82	396.25
690.16	394.15
690.50	392.24
690.83	390.28
691.17	388.30
691.51	386.39
691.84	384.59
692.18	382.70
692.52	380.72
692.85	378.74
693.19	376.83
693.52	375.00
693.86	373.21
694.20	371.41
694.53	369.61
694.87	367.76
695.21	365.99
695.54	364.10
695.88	362.34
696.21	360.59
696.55	358.90
696.88	357.18
697.22	355.52
697.56	353.87
697.89	352.23
698.23	350.63
698.56	349.07
698.90	347.45
699.23	345.79
699.57	344.25
699.90	342.74
700.24	341.17
700.58	339.61
700.91	338.07
701.25	336.62
701.58	335.25
701.92	333.85
702.25	332.47
702.59	331.12
702.92	329.82
703.26	328.51
703.59	327.18
703.93	326.00
704.26	324.75
704.60	323.40
704.93	322.09
705.26	320.79
705.60	319.60
705.93	318.44
706.27	317.43
706.60	316.38
706.94	315.28
707.27	314.16
707.61	313.07
707.94	312.04
708.27	310.94
708.61	309.89
708.94	308.96
709.28	307.95
709.61	306.97
709.94	306.03
710.28	305.00
710.61	304.05
710.95	303.02
711.28	302.12
711.61	301.19
711.95	300.31
712.28	299.42
712.61	298.41
712.95	297.48
713.28	296.54
713.61	295.64
713.95	294.77
714.28	293.94
714.61	293.11
714.95	292.32
715.28	291.45
715.61	290.57
715.95	289.66
716.28	288.82
716.61	287.99
716.95	287.17
717.28	286.41
717.61	285.62
717.94	284.87
718.28	284.07
718.61	283.35
718.94	282.66
719.27	281.96
719.61	281.33
719.94	280.64
720.27	279.91
720.60	279.27
720.94	278.62
721.27	278.00
721.60	277.41
721.93	276.77
722.27	276.22
722.60	275.67
722.93	275.10
723.26	274.55
723.59	273.98
723.93	273.39
724.26	272.86
724.59	272.28
724.92	271.71
725.25	271.21
725.59	270.68
725.92	270.17
726.25	269.65
726.58	269.18
726.91	268.66
727.24	268.16
727.57	267.69
727.91	267.19
728.24	266.72
728.57	266.20
728.90	265.75
729.23	265.24
729.56	264.76
729.89	264.28
730.22	263.83
730.55	263.38
730.89	263.00
731.22	262.50
731.55	262.13
731.88	261.73
732.21	261.28
732.54	260.87
732.87	260.45
733.20	260.06
733.53	259.67
733.86	259.29
734.19	258.91
734.52	258.52
734.85	258.18
735.18	257.77
735.51	257.44
735.84	257.10
736.17	256.80
736.50	256.39
736.83	256.18
737.16	255.83
737.49	255.53
737.82	255.15
738.15	254.87
738.48	254.53
738.81	254.20
739.14	253.87
739.47	253.54
739.80	253.23
740.13	252.92
740.46	252.58
740.79	252.27
741.12	251.98
741.45	251.63
741.78	251.31
742.11	251.04
742.44	250.70
742.77	250.41
743.10	250.11
743.43	249.85
743.75	249.45
744.08	249.31
744.41	249.05
744.74	248.81
745.07	248.52
745.40	248.26
745.73	248.05
746.06	247.79
746.39	247.51
746.71	247.27
747.04	247.00
747.37	246.79
747.70	246.55
748.03	246.29
748.36	246.12
748.68	245.91
749.01	245.66
749.34	245.44
749.67	245.18
750.00	244.93
750.33	244.76
750.65	244.58
750.98	244.24
751.31	244.00
751.64	243.79
751.97	243.63
752.29	243.37
752.62	243.11
752.95	242.93
753.28	242.72
753.60	242.49
753.93	242.29
754.26	242.07
754.59	241.85
754.91	241.66
755.24	241.45
755.57	241.24
755.90	241.04
756.22	240.88
756.55	240.69
756.88	240.52
757.20	240.28
757.53	240.05
757.86	239.87
758.19	239.67
758.51	239.48
758.84	239.27
759.17	239.10
759.49	238.91
759.82	238.75
760.15	238.62
760.47	238.48
760.80	238.33
761.13	238.19
761.45	238.03
761.78	237.87
762.11	237.73
762.43	237.58
762.76	237.47
763.08	237.35
763.41	237.23
763.74	237.07
764.06	236.95
764.39	236.84
764.71	236.71
765.04	236.58
765.37	236.43
765.69	236.30
766.02	236.22
766.34	236.10
766.67	235.94
767.00	235.82
767.32	235.75
767.65	235.67
767.97	235.56
768.30	235.46
768.62	235.37
768.95	235.25
769.27	235.15
769.60	235.03
769.92	234.87
770.25	234.75
770.57	234.64
770.90	234.51
771.22	234.43
771.55	234.32
771.87	234.24
772.20	234.14
772.52	234.14
772.85	234.12
773.17	234.04
773.50	233.96
773.82	233.86
774.15	233.71
774.47	233.56
774.80	233.45
775.12	233.36
775.45	233.27
775.77	233.18
776.09	233.09
776.42	233.00
776.74	232.96
777.07	232.90
777.39	232.86
777.72	232.80
778.04	232.71
778.36	232.63
778.69	232.59
779.01	232.55
779.33	232.38
779.66	232.26
779.98	232.21
780.31	232.14
780.63	232.14
780.95	232.10
781.28	232.05
781.60	232.02
781.92	231.98
782.25	231.91
782.57	231.83
782.89	231.77
783.22	231.71
783.54	231.64
783.86	231.58
784.19	231.47
784.51	231.42
784.83	231.38
785.16	231.33
785.48	231.29
785.80	231.25
786.12	231.20
786.45	231.14
786.77	231.08
787.09	231.04
787.42	230.94
787.74	230.88
788.06	230.84
788.38	230.79
788.71	230.76
789.03	230.73
789.35	230.70
789.67	230.69
789.99	230.64
790.32	230.59
790.64	230.58
790.96	230.64
791.28	230.55
791.61	230.50
791.93	230.47
792.25	230.39
792.57	230.43
792.89	230.38
793.21	230.34
793.54	230.33
793.86	230.27
794.18	230.23
794.50	230.16
794.82	230.10
795.14	230.04
795.47	229.98
795.79	229.93
796.11	229.88
796.43	229.81
796.75	229.77
797.07	229.74
797.39	229.66
797.71	229.57
798.04	229.54
798.36	229.48
798.68	229.42
799.00	229.40
799.32	229.29
799.64	229.29
799.96	229.25
800.28	229.20
800.60	229.15
800.92	229.12
801.24	229.11
801.56	229.11
801.89	229.08
802.21	229.04
802.53	228.98
802.85	228.95
803.17	228.96
803.49	228.92
803.81	228.89
804.13	228.84
804.45	228.77
804.77	228.75
805.09	228.74
805.41	228.67
805.73	228.59
806.05	228.58
806.37	228.57
806.69	228.51
807.01	228.47
807.33	228.48
807.65	228.41
807.97	228.42
808.28	228.40
808.60	228.36
808.92	228.35
809.24	228.41
809.56	228.37
809.88	228.29
810.20	228.29
810.52	228.27
810.84	228.27
811.16	228.24
811.48	228.22
811.80	228.24
812.12	228.25
812.43	228.25
812.75	228.21
813.07	228.17
813.39	228.16
813.71	228.15
814.03	228.12
814.35	228.11
814.67	228.06
814.98	228.03
815.30	228.03
815.62	227.97
815.94	227.89
816.26	227.94
816.58	227.96
816.89	227.92
817.21	227.89
817.53	227.88
817.85	227.88
818.17	227.89
818.48	227.84
818.80	227.84
819.12	227.85
819.44	227.82
819.76	227.79
820.07	227.80
820.39	227.77
820.71	227.77
821.03	227.79
821.34	227.77
821.66	227.79
821.98	227.77
822.30	227.78
822.61	227.81
822.93	227.77
823.25	227.73
823.57	227.73
823.88	227.72
824.20	227.71
824.52	227.72
824.83	227.72
825.15	227.70
825.47	227.68
825.79	227.69
826.10	227.67
826.42	227.64
826.74	227.64
827.05	227.62
827.37	227.62
827.69	227.58
828.00	227.54
828.32	227.50
828.64	227.49
828.95	227.54
829.27	227.51
829.58	227.49
829.90	227.51
830.22	227.49
830.53	227.44
830.85	227.40
831.17	227.38
831.48	227.33
831.80	227.34
832.11	227.34
832.43	227.32
832.75	227.30
833.06	227.36
833.38	227.31
833.69	227.32
834.01	227.28
834.32	227.27
834.64	227.26
834.96	227.25
835.27	227.25
835.59	227.22
835.90	227.16
836.22	227.12
836.53	227.09
836.85	227.09
837.16	227.18
837.48	227.16
837.79	227.13
838.11	227.12
838.42	227.08
838.74	227.06
839.05	227.01
839.37	227.01
839.68	226.91
840.00	226.88
840.31	226.86
840.63	226.85
840.94	226.84
841.26	226.84
841.57	226.82
841.88	226.81
842.20	226.80
842.51	226.80
842.83	226.79
843.14	226.87
843.46	226.85
843.77	226.79
844.08	226.80
844.40	226.78
844.71	226.79
845.03	226.75
845.34	226.74
845.65	226.72
845.97	226.74
846.28	226.76
846.60	226.78
846.91	226.74
847.22	226.74
847.54	226.74
847.85	226.74
848.16	226.73
848.48	226.70
848.79	226.68
849.10	226.64
849.42	226.64
849.73	226.54
850.04	226.53
850.36	226.52
850.67	226.54
850.98	226.55
851.30	226.56
851.61	226.59
851.92	226.58
852.23	226.62
852.55	226.61
852.86	226.60
853.17	226.60
853.49	226.65
853.80	226.67
854.11	226.68
854.42	226.68
854.74	226.66
855.05	226.67
855.36	226.65
855.67	226.70
855.99	226.71
856.30	226.83
856.61	226.85
856.92	226.84
857.23	226.84
857.55	226.80
857.86	226.79
858.17	226.85
858.48	226.83
858.79	226.79
859.11	226.79
859.42	226.76
859.73	226.78
860.04	226.77
860.35	226.72
860.66	226.73
860.98	226.74
861.29	226.79
861.60	226.78
861.91	226.79
862.22	226.77
862.53	226.76
862.84	226.64
863.16	226.65
863.47	226.62
863.78	226.61
864.09	226.62
864.40	226.62
864.71	226.58
865.02	226.61
865.33	226.61
865.64	226.60
865.95	226.60
866.27	226.65
866.58	226.65
866.89	226.70
867.20	226.68
867.51	226.68
867.82	226.67
868.13	226.68
868.44	226.69
868.75	226.69
869.06	226.69
869.37	226.69
869.68	226.65
869.99	226.65
870.30	226.69
870.61	226.71
870.92	226.70
871.23	226.66
871.54	226.66
871.85	226.67
872.16	226.67
872.47	226.67
872.78	226.62
873.09	226.59
873.40	226.55
873.71	226.55
874.02	226.54
874.33	226.51
874.64	226.52
874.95	226.51
875.26	226.49
875.56	226.50
875.87	226.50
876.18	226.49
876.49	226.62
876.80	226.56
877.11	226.55
877.42	226.47
877.73	226.49
878.04	226.45
878.35	226.47
878.66	226.44
878.96	226.44
879.27	226.42
879.58	226.44
879.89	226.41
880.20	226.42
880.51	226.37
880.82	226.33
881.12	226.32
881.43	226.31
881.74	226.29
882.05	226.26
882.36	226.26
882.67	226.25
882.97	226.12
883.28	226.15
883.59	226.14
883.90	226.20
884.21	226.17
884.51	226.18
884.82	226.14
885.13	226.16
885.44	226.18
885.74	226.19
886.05	226.19
886.36	226.19
886.67	226.15
886.98	226.22
887.28	226.23
887.59	226.19
887.90	226.21
888.20	226.20
888.51	226.24
888.82	226.22
889.13	226.24
889.43	226.31
889.74	226.27
890.05	226.26
890.35	226.25
890.66	226.25
890.97	226.23
891.28	226.26
891.58	226.27
891.89	226.24
892.20	226.18
892.50	226.12
892.81	226.13
893.12	226.15
893.42	226.11
893.73	226.12
894.04	226.16
894.34	226.14
894.65	226.14
894.95	226.12
895.26	226.11
895.57	226.13
895.87	226.05
896.18	226.08
896.48	226.09
896.79	226.07
897.10	226.09
897.40	226.11
897.71	226.08
898.01	226.06
898.32	226.05
898.63	226.07
898.93	226.10
899.24	226.11
899.54	226.09
899.85	226.09
900.15	226.10
900.46	226.09
900.76	226.06
901.07	226.05
901.38	226.01
901.68	226.03
901.99	225.97
902.29	225.98
902.60	225.95
902.90	225.93
903.21	225.97
903.51	225.95
903.82	225.95
904.12	225.95
904.43	225.97
904.73	226.00
905.03	226.02
905.34	226.11
905.64	226.11
905.95	226.11
906.25	226.11
906.56	226.15
906.86	226.13
907.17	226.17
907.47	226.19
907.77	226.20
908.08	226.19
908.38	226.25
908.69	226.27
908.99	226.29
909.30	226.31
909.60	226.27
909.90	226.30
910.21	226.28
910.51	226.26
910.81	226.24
911.12	226.26
911.42	226.25
911.73	226.15
912.03	226.15
912.33	226.20
912.64	226.20
912.94	226.18
913.24	226.18
913.55	226.17
913.85	226.18
914.15	226.22
914.46	226.22
914.76	226.21
915.06	226.23
915.37	226.23
915.67	226.21
915.97	226.23
916.27	226.24
916.58	226.23
916.88	226.27
917.18	226.27
917.49	226.32
917.79	226.30
918.09	226.31
918.39	226.34
918.70	226.30
919.00	226.28
919.30	226.31
919.60	226.32
919.91	226.31
920.21	226.34
920.51	226.32
920.81	226.34
921.12	226.35
921.42	226.31
921.72	226.32
922.02	226.33
922.32	226.34
922.63	226.34
922.93	226.42
923.23	226.40
923.53	226.38
923.83	226.31
924.13	226.32
924.44	226.31
924.74	226.33
925.04	226.39
925.34	226.40
925.64	226.36
925.94	226.34
926.24	226.35
926.55	226.29
926.85	226.29
927.15	226.24
927.45	226.23
927.75	226.21
928.05	226.19
928.35	226.16
928.65	226.15
928.95	226.13
929.26	226.10
929.56	226.11
929.86	226.12
930.16	226.13
930.46	226.11
930.76	226.10
931.06	226.04
931.36	225.99
931.66	226.00
931.96	225.99
932.26	225.99
932.56	225.99
932.86	225.99
933.16	225.98
933.46	225.98
933.76	225.95
934.06	225.97
934.36	225.99
934.66	225.99
934.96	226.01
935.26	226.01
935.56	225.98
935.86	225.95
936.16	225.95
936.46	225.95
936.76	225.91
937.06	225.94
937.36	225.93
937.66	225.95
937.96	225.92
938.26	225.92
938.56	225.91
938.86	225.88
939.16	225.92
939.46	225.90
939.76	225.95
940.06	225.97
940.35	225.97
940.65	225.95
940.95	225.97
941.25	225.93
941.55	225.91
941.85	225.95
942.15	225.99
942.45	226.00
942.75	226.01
943.04	226.06
943.34	226.05
943.64	226.08
943.94	226.07
944.24	226.08
944.54	226.09
944.84	226.09
945.13	226.10
945.43	226.07
945.73	226.12
946.03	226.09
946.33	226.11
946.62	226.10
946.92	226.08
947.22	226.11
947.52	226.16
947.82	226.19
948.11	226.18
948.41	226.17
948.71	226.17
949.01	226.17
949.31	226.15
949.60	226.16
949.90	226.18
950.20	226.17
950.50	226.20
950.79	226.18
951.09	226.23
951.39	226.26
951.69	226.28
951.98	226.29
952.28	226.33
952.58	226.33
952.87	226.36
953.17	226.39
953.47	226.39
953.76	226.36
954.06	226.37
954.36	226.32
954.66	226.34
954.95	226.37
955.25	226.39
955.55	226.44
955.84	226.45
956.14	226.49
956.44	226.51
956.73	226.49
957.03	226.48
957.32	226.46
957.62	226.45
957.92	226.44
958.21	226.42
958.51	226.51
958.81	226.48
959.10	226.49
959.40	226.50
959.69	226.48
959.99	226.49
960.29	226.49
960.58	226.51
960.88	226.50
961.17	226.49
961.47	226.47
961.76	226.41
962.06	226.38
962.36	226.36
962.65	226.34
962.95	226.36
963.24	226.40
963.54	226.40
963.83	226.39
964.13	226.39
964.42	226.36
964.72	226.28
965.01	226.31
965.31	226.27
965.60	226.22
965.90	226.31
966.19	226.28
966.49	226.29
966.78	226.28
967.08	226.26
967.37	226.23
967.67	226.23
967.96	226.24
968.26	226.26
968.55	226.20
968.85	226.22
969.14	226.21
969.43	226.17
969.73	226.13
970.02	226.11
970.32	226.06
970.61	226.06
970.91	226.05
971.20	226.00
971.49	225.97
971.79	225.99
972.08	225.91
972.38	225.93
972.67	225.90
972.96	225.92
973.26	225.92
973.55	225.92
973.85	225.93
974.14	225.89
974.43	225.87
974.73	225.88
975.02	225.85
975.31	225.83
975.61	225.83
975.90	225.82
976.19	225.81
976.49	225.85
976.78	225.84
977.07	225.82
977.37	225.83
977.66	225.83
977.95	225.83
978.24	225.83
978.54	225.80
978.83	225.76
979.12	225.72
979.42	225.68
979.71	225.66
980.00	225.61
980.29	225.63
980.59	225.62
980.88	225.67
981.17	225.65
981.46	225.65
981.76	225.65
982.05	225.67
982.34	225.68
982.63	225.70
982.93	225.68
983.22	225.72
983.51	225.74
983.80	225.79
984.09	225.80
984.39	225.74
984.68	225.74
984.97	225.77
985.26	225.78
985.55	225.82
985.85	225.82
986.14	225.86
986.43	225.87
986.72	225.88
987.01	225.80
987.30	225.83
987.59	225.80
987.89	225.81
988.18	225.77
988.47	225.77
988.76	225.76
989.05	225.77
989.34	225.76
989.63	225.80
989.92	225.76
990.22	225.77
990.51	225.82
990.80	225.82
991.09	225.83
991.38	225.86
991.67	225.83
991.96	225.82
992.25	225.86
992.54	225.87
992.83	225.86
993.12	225.90
993.41	225.91
993.70	225.96
993.99	225.99
994.28	226.07
994.58	226.07
994.87	226.03
995.16	226.06
995.45	226.06
995.74	226.01
996.03	226.04
996.32	226.04
996.61	226.05
996.90	226.10
997.19	226.09
997.48	226.08
997.77	226.11
998.06	226.11
998.34	226.06
998.63	226.04
998.92	226.08
999.21	226.09
999.50	226.10
999.79	226.07
1000.08	226.06
1000.37	226.05
1000.66	226.05
1000.95	226.10
1001.24	226.07
1001.53	226.05
1001.82	226.06
1002.11	226.03
1002.40	226.05
1002.68	226.11
1002.97	226.13
1003.26	226.11
1003.55	226.11
1003.84	226.11
1004.13	226.14
1004.42	226.15
1004.71	226.13
1004.99	226.11
1005.28	226.16
1005.57	226.12
1005.86	226.10
1006.15	226.09
1006.44	226.08
1006.72	226.07
1007.01	226.05
1007.30	226.07
1007.59	226.04
1007.88	226.03
1008.17	226.03
1008.45	226.00
1008.74	225.92
1009.03	225.85
1009.32	225.85
1009.60	225.84
1009.89	225.84
1010.18	225.80
1010.47	225.77
1010.76	225.77
1011.04	225.72
1011.33	225.70
1011.62	225.72
1011.91	225.75
1012.19	225.75
1012.48	225.69
1012.77	225.72
1013.05	225.76
1013.34	225.73
1013.63	225.71
1013.92	225.71
1014.20	225.74
1014.49	225.71
1014.78	225.73
1015.06	225.69
1015.35	225.70
1015.64	225.68
1015.92	225.67
1016.21	225.68
1016.50	225.67
1016.78	225.66
1017.07	225.71
1017.36	225.69
1017.64	225.67
1017.93	225.67
1018.22	225.63
1018.50	225.66
1018.79	225.64
1019.08	225.56
1019.36	225.60
1019.65	225.59
1019.93	225.64
1020.22	225.63
1020.51	225.68
1020.79	225.68
1021.08	225.13
1021.36	225.55
1021.65	225.73
1021.94	225.27
1022.22	226.13
1022.51	224.98
1022.79	226.47
1023.08	225.93
1023.36	226.61
1023.65	225.74
>>>>>End Processed Spectral Data<<<<<
