SpectraSuite Data File
++++++++++++++++++++++++++++++++++++
Date: Fri Feb 01 16:04:26 EST 2013
User: group
Dark Spectrum Present: No
Reference Spectrum Present: No
Number of Sampled Component Spectra: 1
Spectrometers: USB2E7196
Integration Time (usec): 35000 (USB2E7196)
Spectra Averaged: 100 (USB2E7196)
Boxcar Smoothing: 10 (USB2E7196)
Correct for Electrical Dark: No (USB2E7196)
Strobe/Lamp Enabled: No (USB2E7196)
Correct for Detector Non-linearity: No (USB2E7196)
Correct for Stray Light: No (USB2E7196)
Number of Pixels in Processed Spectrum: 2048
>>>>>Begin Processed Spectral Data<<<<<
339.09	0.00
339.48	215.01
339.86	215.97
340.24	218.03
340.63	218.42
341.01	221.48
341.39	221.82
341.78	223.06
342.16	223.72
342.54	224.58
342.93	213.05
343.31	223.82
343.69	224.35
344.07	224.83
344.46	225.21
344.84	225.60
345.22	225.84
345.60	226.09
345.99	226.29
346.37	226.44
346.75	226.53
347.13	226.56
347.52	226.59
347.90	226.67
348.28	226.71
348.66	226.75
349.05	226.73
349.43	226.77
349.81	226.76
350.19	226.80
350.57	226.85
350.96	226.92
351.34	227.00
351.72	227.09
352.10	227.18
352.48	227.28
352.87	227.34
353.25	227.43
353.63	227.48
354.01	227.53
354.39	227.58
354.77	227.69
355.15	227.81
355.54	227.85
355.92	227.91
356.30	227.98
356.68	228.11
357.06	228.18
357.44	228.23
357.82	228.32
358.20	228.43
358.58	228.48
358.97	228.52
359.35	228.63
359.73	228.70
360.11	228.73
360.49	228.77
360.87	228.81
361.25	228.85
361.63	228.91
362.01	228.96
362.39	229.00
362.77	229.03
363.15	229.06
363.53	229.13
363.91	229.11
364.29	229.14
364.67	229.06
365.05	229.09
365.43	229.14
365.81	229.13
366.19	229.14
366.57	229.19
366.95	229.20
367.33	229.15
367.71	229.12
368.09	229.13
368.47	229.14
368.85	229.10
369.23	229.11
369.61	229.05
369.99	229.06
370.37	229.03
370.75	229.05
371.13	228.96
371.51	228.92
371.89	228.94
372.27	228.86
372.65	228.85
373.03	228.82
373.41	228.74
373.78	228.70
374.16	228.59
374.54	228.48
374.92	228.43
375.30	228.36
375.68	228.28
376.06	228.23
376.44	228.13
376.82	228.10
377.19	228.03
377.57	227.99
377.95	227.88
378.33	227.83
378.71	227.67
379.09	227.67
379.47	227.58
379.84	227.51
380.22	227.46
380.60	227.35
380.98	227.25
381.36	227.19
381.73	227.06
382.11	227.02
382.49	226.96
382.87	226.88
383.25	226.81
383.62	226.89
384.00	226.80
384.38	226.77
384.76	226.77
385.13	226.77
385.51	226.71
385.89	226.65
386.27	226.58
386.64	226.62
387.02	226.56
387.40	226.53
387.78	226.50
388.15	226.46
388.53	226.45
388.91	226.43
389.29	226.42
389.66	226.46
390.04	226.44
390.42	226.43
390.79	226.45
391.17	226.47
391.55	226.33
391.92	226.33
392.30	226.35
392.68	226.29
393.05	226.26
393.43	226.28
393.81	226.29
394.18	226.31
394.56	226.30
394.94	226.30
395.31	226.32
395.69	226.36
396.06	226.42
396.44	226.45
396.82	226.49
397.19	226.57
397.57	226.60
397.95	226.64
398.32	226.66
398.70	226.69
399.07	226.73
399.45	226.81
399.82	226.89
400.20	226.91
400.58	227.00
400.95	227.01
401.33	227.09
401.70	227.26
402.08	227.34
402.45	227.43
402.83	227.55
403.20	227.65
403.58	227.76
403.95	227.85
404.33	227.95
404.71	228.06
405.08	228.22
405.46	228.35
405.83	228.51
406.21	228.67
406.58	228.85
406.96	228.98
407.33	229.13
407.70	229.28
408.08	229.57
408.45	229.80
408.83	230.05
409.20	230.25
409.58	230.40
409.95	230.65
410.33	230.89
410.70	231.13
411.08	231.44
411.45	231.74
411.82	232.06
412.20	232.44
412.57	232.88
412.95	233.17
413.32	233.58
413.69	233.99
414.07	234.45
414.44	234.89
414.82	235.39
415.19	235.93
415.56	236.49
415.94	237.04
416.31	237.65
416.68	238.29
417.06	238.99
417.43	239.70
417.81	240.45
418.18	241.21
418.55	242.06
418.93	242.90
419.30	243.78
419.67	244.70
420.04	245.64
420.42	246.62
420.79	247.79
421.16	248.93
421.54	250.09
421.91	251.28
422.28	252.56
422.66	253.88
423.03	255.22
423.40	256.55
423.77	257.95
424.15	259.35
424.52	260.81
424.89	262.45
425.26	264.01
425.64	265.47
426.01	267.10
426.38	268.78
426.75	270.48
427.13	272.23
427.50	274.03
427.87	275.89
428.24	277.74
428.61	279.50
428.99	281.46
429.36	283.60
429.73	285.67
430.10	287.71
430.47	289.79
430.85	291.87
431.22	294.12
431.59	296.50
431.96	298.74
432.33	301.20
432.70	303.57
433.08	306.36
433.45	309.03
433.82	311.61
434.19	314.47
434.56	317.27
434.93	319.93
435.30	322.58
435.68	325.46
436.05	328.28
436.42	331.06
436.79	333.57
437.16	336.26
437.53	339.12
437.90	341.89
438.27	344.59
438.64	347.46
439.01	350.06
439.38	352.31
439.75	354.51
440.13	357.04
440.50	359.37
440.87	361.27
441.24	363.22
441.61	365.38
441.98	366.88
442.35	368.68
442.72	370.49
443.09	372.30
443.46	373.35
443.83	373.94
444.20	374.47
444.57	375.27
444.94	375.54
445.31	375.90
445.68	376.24
446.05	376.36
446.42	375.95
446.79	375.52
447.16	375.03
447.53	374.69
447.90	373.52
448.27	372.37
448.64	370.70
449.01	369.57
449.37	367.62
449.74	365.75
450.11	363.51
450.48	361.07
450.85	358.56
451.22	356.36
451.59	354.30
451.96	352.33
452.33	349.73
452.70	347.34
453.07	344.47
453.43	341.60
453.80	338.81
454.17	336.16
454.54	333.60
454.91	330.92
455.28	328.24
455.65	325.76
456.02	323.31
456.38	321.21
456.75	318.52
457.12	316.24
457.49	314.02
457.86	311.84
458.23	309.92
458.59	307.88
458.96	305.79
459.33	303.98
459.70	302.09
460.07	300.63
460.43	298.91
460.80	297.31
461.17	295.84
461.54	294.31
461.91	292.90
462.27	291.46
462.64	290.17
463.01	288.82
463.38	287.52
463.74	286.14
464.11	284.95
464.48	283.90
464.85	282.78
465.21	281.88
465.58	280.94
465.95	279.86
466.32	278.96
466.68	278.08
467.05	277.16
467.42	276.30
467.78	275.36
468.15	274.50
468.52	273.86
468.88	273.02
469.25	272.28
469.62	271.60
469.98	270.95
470.35	270.33
470.72	269.72
471.08	269.08
471.45	268.56
471.82	268.04
472.18	267.49
472.55	267.08
472.92	266.54
473.28	266.10
473.65	265.68
474.02	265.23
474.38	264.86
474.75	264.56
475.11	264.22
475.48	263.96
475.85	263.73
476.21	263.47
476.58	263.26
476.94	263.11
477.31	262.98
477.67	262.85
478.04	262.73
478.41	262.70
478.77	262.70
479.14	262.62
479.50	262.57
479.87	262.62
480.23	262.73
480.60	262.79
480.96	262.88
481.33	263.05
481.69	263.20
482.06	263.41
482.42	263.58
482.79	263.82
483.15	264.12
483.52	264.49
483.88	264.84
484.25	265.23
484.61	265.65
484.98	266.04
485.34	266.55
485.71	267.16
486.07	267.71
486.44	268.31
486.80	269.00
487.17	269.77
487.53	270.56
487.90	271.43
488.26	272.39
488.62	273.34
488.99	274.35
489.35	275.42
489.72	276.53
490.08	277.75
490.44	279.00
490.81	280.35
491.17	281.70
491.54	283.15
491.90	284.71
492.26	286.37
492.63	288.15
492.99	289.97
493.36	291.86
493.72	293.95
494.08	296.07
494.45	298.37
494.81	300.71
495.17	303.17
495.54	305.70
495.90	308.37
496.26	311.22
496.63	314.18
496.99	317.34
497.35	320.63
497.72	324.09
498.08	327.62
498.44	331.32
498.80	335.22
499.17	339.34
499.53	343.58
499.89	348.02
500.26	352.54
500.62	357.25
500.98	362.32
501.34	367.38
501.71	372.70
502.07	378.09
502.43	383.77
502.79	389.59
503.16	395.70
503.52	402.02
503.88	408.40
504.24	415.09
504.60	421.93
504.97	429.09
505.33	436.41
505.69	444.14
506.05	451.96
506.41	459.87
506.78	468.02
507.14	476.40
507.50	485.03
507.86	494.10
508.22	503.26
508.59	512.40
508.95	522.03
509.31	531.89
509.67	542.05
510.03	552.35
510.39	562.87
510.75	573.67
511.12	584.58
511.48	595.90
511.84	607.29
512.20	618.76
512.56	630.65
512.92	642.82
513.28	655.16
513.64	667.61
514.00	680.38
514.37	693.39
514.73	706.51
515.09	719.59
515.45	732.84
515.81	746.48
516.17	760.47
516.53	774.56
516.89	788.73
517.25	802.86
517.61	817.20
517.97	831.71
518.33	846.15
518.69	861.07
519.05	876.01
519.41	891.26
519.77	906.90
520.13	922.36
520.49	937.71
520.85	953.17
521.21	968.87
521.57	985.09
521.93	1000.83
522.29	1017.18
522.65	1033.40
523.01	1049.61
523.37	1065.63
523.73	1081.78
524.09	1097.87
524.45	1114.24
524.81	1131.01
525.17	1147.92
525.53	1164.82
525.89	1181.61
526.25	1198.28
526.61	1214.76
526.97	1231.41
527.33	1247.76
527.68	1264.33
528.04	1280.85
528.40	1297.40
528.76	1314.46
529.12	1331.02
529.48	1347.89
529.84	1363.88
530.20	1380.60
530.56	1397.56
530.91	1415.01
531.27	1431.75
531.63	1448.17
531.99	1464.60
532.35	1480.52
532.71	1496.29
533.07	1512.47
533.42	1528.41
533.78	1544.46
534.14	1560.73
534.50	1575.99
534.86	1591.87
535.21	1606.96
535.57	1622.71
535.93	1638.15
536.29	1652.75
536.65	1667.81
537.00	1682.47
537.36	1697.56
537.72	1711.89
538.08	1726.10
538.44	1739.59
538.79	1753.29
539.15	1766.77
539.51	1780.33
539.87	1794.41
540.22	1807.93
540.58	1821.50
540.94	1834.56
541.29	1847.26
541.65	1859.64
542.01	1872.82
542.37	1885.01
542.72	1897.35
543.08	1909.07
543.44	1921.32
543.79	1932.55
544.15	1943.36
544.51	1954.83
544.87	1965.88
545.22	1976.73
545.58	1987.06
545.94	1996.85
546.29	2006.83
546.65	2016.73
547.01	2026.08
547.36	2034.78
547.72	2043.44
548.07	2051.41
548.43	2059.78
548.79	2067.89
549.14	2075.64
549.50	2082.93
549.86	2090.75
550.21	2098.16
550.57	2105.40
550.92	2112.09
551.28	2119.38
551.64	2126.58
551.99	2133.21
552.35	2139.40
552.70	2145.53
553.06	2151.63
553.41	2158.15
553.77	2164.19
554.13	2170.31
554.48	2176.56
554.84	2182.10
555.19	2187.50
555.55	2192.75
555.90	2197.14
556.26	2202.05
556.61	2206.66
556.97	2211.05
557.32	2215.19
557.68	2219.39
558.03	2223.63
558.39	2227.35
558.74	2231.75
559.10	2235.52
559.45	2239.12
559.81	2243.42
560.16	2247.27
560.52	2250.40
560.87	2253.75
561.23	2256.44
561.58	2259.31
561.94	2261.64
562.29	2263.92
562.64	2266.50
563.00	2268.98
563.35	2272.64
563.71	2275.60
564.06	2278.94
564.42	2281.93
564.77	2284.35
565.12	2286.67
565.48	2288.58
565.83	2290.50
566.19	2291.99
566.54	2293.04
566.89	2294.31
567.25	2294.88
567.60	2296.16
567.96	2297.89
568.31	2298.63
568.66	2299.79
569.02	2300.55
569.37	2301.02
569.72	2301.98
570.08	2302.18
570.43	2302.33
570.78	2301.72
571.14	2300.28
571.49	2298.88
571.84	2298.45
572.20	2297.40
572.55	2296.38
572.90	2294.92
573.26	2293.49
573.61	2291.62
573.96	2289.77
574.31	2286.65
574.67	2283.74
575.02	2280.18
575.37	2276.75
575.72	2273.03
576.08	2269.78
576.43	2266.36
576.78	2262.54
577.13	2259.37
577.49	2256.21
577.84	2252.62
578.19	2248.80
578.54	2245.28
578.90	2241.11
579.25	2235.63
579.60	2230.65
579.95	2225.45
580.30	2220.43
580.66	2215.20
581.01	2210.31
581.36	2205.47
581.71	2201.32
582.06	2196.94
582.42	2192.48
582.77	2187.22
583.12	2182.70
583.47	2177.85
583.82	2172.86
584.17	2167.67
584.53	2162.26
584.88	2156.60
585.23	2150.95
585.58	2145.61
585.93	2140.09
586.28	2135.33
586.63	2130.26
586.98	2125.31
587.34	2120.70
587.69	2115.88
588.04	2110.63
588.39	2105.12
588.74	2098.64
589.09	2092.49
589.44	2085.72
589.79	2079.67
590.14	2074.09
590.49	2067.52
590.84	2061.12
591.19	2055.15
591.54	2048.79
591.89	2041.44
592.25	2034.72
592.60	2027.50
592.95	2019.89
593.30	2012.62
593.65	2004.98
594.00	1997.93
594.35	1990.66
594.70	1982.75
595.05	1975.57
595.40	1968.40
595.75	1960.84
596.10	1954.58
596.45	1947.88
596.80	1941.60
597.15	1935.02
597.50	1927.97
597.85	1921.57
598.19	1915.03
598.54	1907.92
598.89	1901.26
599.24	1895.37
599.59	1888.71
599.94	1882.54
600.29	1876.20
600.64	1869.63
600.99	1862.23
601.34	1855.44
601.69	1848.61
602.04	1841.65
602.39	1834.21
602.74	1827.22
603.08	1820.50
603.43	1813.88
603.78	1806.58
604.13	1799.56
604.48	1792.39
604.83	1785.50
605.18	1778.53
605.53	1770.36
605.87	1762.39
606.22	1755.27
606.57	1747.28
606.92	1739.84
607.27	1732.47
607.62	1725.49
607.96	1718.09
608.31	1711.41
608.66	1703.68
609.01	1695.88
609.36	1688.25
609.70	1680.15
610.05	1672.12
610.40	1664.41
610.75	1655.90
611.10	1648.14
611.44	1639.53
611.79	1631.32
612.14	1622.66
612.49	1613.50
612.83	1605.22
613.18	1597.03
613.53	1588.85
613.88	1580.25
614.22	1572.05
614.57	1563.46
614.92	1555.48
615.27	1548.01
615.61	1539.73
615.96	1531.74
616.31	1524.24
616.65	1516.85
617.00	1509.37
617.35	1501.78
617.70	1493.34
618.04	1484.89
618.39	1476.71
618.74	1469.14
619.08	1460.94
619.43	1453.33
619.78	1446.29
620.12	1439.17
620.47	1431.76
620.82	1423.58
621.16	1416.16
621.51	1408.60
621.85	1401.17
622.20	1392.64
622.55	1384.23
622.89	1376.34
623.24	1368.68
623.59	1361.24
623.93	1353.72
624.28	1346.67
624.62	1339.10
624.97	1331.91
625.32	1325.13
625.66	1318.08
626.01	1310.95
626.35	1303.50
626.70	1295.80
627.04	1288.14
627.39	1280.33
627.73	1272.71
628.08	1265.74
628.43	1258.52
628.77	1251.16
629.12	1243.59
629.46	1236.53
629.81	1229.11
630.15	1221.91
630.50	1214.58
630.84	1206.31
631.19	1198.44
631.53	1190.73
631.88	1183.26
632.22	1175.73
632.57	1168.51
632.91	1161.07
633.26	1153.65
633.60	1146.15
633.95	1139.02
634.29	1132.00
634.64	1125.31
634.98	1118.10
635.32	1110.96
635.67	1104.27
636.01	1097.53
636.36	1090.65
636.70	1084.09
637.05	1077.59
637.39	1071.13
637.73	1064.59
638.08	1058.80
638.42	1052.79
638.77	1046.40
639.11	1039.70
639.45	1033.27
639.80	1026.58
640.14	1020.09
640.49	1013.51
640.83	1007.30
641.17	1001.09
641.52	994.71
641.86	988.24
642.20	982.38
642.55	976.05
642.89	969.64
643.23	963.07
643.58	957.32
643.92	951.04
644.26	945.00
644.61	938.95
644.95	932.93
645.29	926.36
645.64	919.66
645.98	913.35
646.32	907.58
646.66	901.56
647.01	895.82
647.35	890.10
647.69	884.20
648.04	878.65
648.38	872.86
648.72	866.92
649.06	860.90
649.41	855.09
649.75	849.20
650.09	843.24
650.43	837.45
650.78	831.26
651.12	825.30
651.46	819.53
651.80	813.76
652.14	808.37
652.49	802.91
652.83	797.69
653.17	791.95
653.51	786.25
653.85	780.87
654.20	775.18
654.54	769.19
654.88	763.51
655.22	757.63
655.56	751.82
655.90	746.32
656.25	741.05
656.59	735.61
656.93	730.49
657.27	725.33
657.61	719.98
657.95	714.90
658.29	709.76
658.64	704.40
658.98	699.10
659.32	693.59
659.66	688.44
660.00	683.22
660.34	678.30
660.68	673.35
661.02	668.32
661.36	663.56
661.70	659.03
662.05	654.68
662.39	650.32
662.73	645.91
663.07	641.54
663.41	637.04
663.75	632.55
664.09	627.96
664.43	623.55
664.77	619.44
665.11	615.17
665.45	611.05
665.79	607.04
666.13	602.90
666.47	598.84
666.81	594.63
667.15	590.40
667.49	586.47
667.83	582.64
668.17	578.70
668.51	574.67
668.85	570.61
669.19	566.80
669.53	562.98
669.87	559.11
670.21	555.43
670.55	551.84
670.89	548.42
671.23	545.02
671.57	541.50
671.91	537.93
672.25	534.45
672.58	530.97
672.92	527.59
673.26	524.42
673.60	521.24
673.94	518.14
674.28	515.30
674.62	512.34
674.96	509.16
675.30	506.18
675.64	503.24
675.97	500.51
676.31	497.62
676.65	494.68
676.99	492.03
677.33	489.17
677.67	486.28
678.01	483.19
678.34	480.23
678.68	477.37
679.02	474.56
679.36	471.75
679.70	469.03
680.04	466.27
680.37	463.41
680.71	460.62
681.05	458.00
681.39	455.19
681.73	452.51
682.06	450.07
682.40	447.56
682.74	445.04
683.08	442.50
683.42	439.84
683.75	437.33
684.09	434.72
684.43	432.22
684.77	429.78
685.10	427.45
685.44	425.16
685.78	422.87
686.12	420.63
686.45	418.38
686.79	416.09
687.13	413.89
687.46	411.72
687.80	409.56
688.14	407.32
688.48	405.31
688.81	403.14
689.15	400.99
689.49	398.87
689.82	396.76
690.16	394.68
690.50	392.80
690.83	390.86
691.17	388.88
691.51	387.01
691.84	385.18
692.18	383.24
692.52	381.20
692.85	379.25
693.19	377.29
693.52	375.47
693.86	373.68
694.20	371.89
694.53	370.09
694.87	368.19
695.21	366.41
695.54	364.57
695.88	362.81
696.21	361.05
696.55	359.34
696.88	357.68
697.22	356.02
697.56	354.36
697.89	352.70
698.23	351.13
698.56	349.53
698.90	347.92
699.23	346.28
699.57	344.76
699.90	343.24
700.24	341.75
700.58	340.21
700.91	338.68
701.25	337.22
701.58	335.87
701.92	334.57
702.25	333.25
702.59	331.88
702.92	330.51
703.26	329.22
703.59	327.90
703.93	326.68
704.26	325.43
704.60	324.11
704.93	322.79
705.26	321.51
705.60	320.28
705.93	319.08
706.27	318.02
706.60	316.90
706.94	315.79
707.27	314.64
707.61	313.56
707.94	312.57
708.27	311.50
708.61	310.38
708.94	309.31
709.28	308.32
709.61	307.37
709.94	306.46
710.28	305.39
710.61	304.46
710.95	303.37
711.28	302.47
711.61	301.59
711.95	300.73
712.28	299.78
712.61	298.80
712.95	297.91
713.28	297.04
713.61	296.18
713.95	295.29
714.28	294.47
714.61	293.65
714.95	292.79
715.28	291.91
715.61	291.03
715.95	290.19
716.28	289.33
716.61	288.47
716.95	287.64
717.28	286.95
717.61	286.19
717.94	285.45
718.28	284.64
718.61	283.87
718.94	283.14
719.27	282.48
719.61	281.84
719.94	281.15
720.27	280.43
720.60	279.80
720.94	279.20
721.27	278.58
721.60	277.97
721.93	277.35
722.27	276.79
722.60	276.25
722.93	275.69
723.26	275.15
723.59	274.57
723.93	274.02
724.26	273.45
724.59	272.87
724.92	272.36
725.25	271.86
725.59	271.37
725.92	270.84
726.25	270.31
726.58	269.84
726.91	269.38
727.24	268.92
727.57	268.44
727.91	267.91
728.24	267.44
728.57	266.96
728.90	266.52
729.23	266.06
729.56	265.63
729.89	265.18
730.22	264.69
730.55	264.25
730.89	263.79
731.22	263.36
731.55	262.91
731.88	262.50
732.21	262.08
732.54	261.66
732.87	261.25
733.20	260.89
733.53	260.50
733.86	260.11
734.19	259.73
734.52	259.35
734.85	259.00
735.18	258.59
735.51	258.24
735.84	257.86
736.17	257.49
736.50	257.07
736.83	256.85
737.16	256.52
737.49	256.21
737.82	255.87
738.15	255.53
738.48	255.24
738.81	254.89
739.14	254.56
739.47	254.22
739.80	253.95
740.13	253.65
740.46	253.31
740.79	252.97
741.12	252.65
741.45	252.34
741.78	252.02
742.11	251.74
742.44	251.38
742.77	251.09
743.10	250.78
743.43	250.49
743.75	250.11
744.08	249.94
744.41	249.69
744.74	249.44
745.07	249.12
745.40	248.85
745.73	248.61
746.06	248.32
746.39	248.04
746.71	247.75
747.04	247.43
747.37	247.14
747.70	246.91
748.03	246.63
748.36	246.41
748.68	246.19
749.01	245.93
749.34	245.72
749.67	245.48
750.00	245.27
750.33	245.12
750.65	244.88
750.98	244.52
751.31	244.25
751.64	244.03
751.97	243.86
752.29	243.63
752.62	243.43
752.95	243.21
753.28	243.01
753.60	242.77
753.93	242.60
754.26	242.42
754.59	242.18
754.91	241.98
755.24	241.75
755.57	241.58
755.90	241.39
756.22	241.22
756.55	241.02
756.88	240.81
757.20	240.58
757.53	240.38
757.86	240.24
758.19	240.08
758.51	239.87
758.84	239.67
759.17	239.49
759.49	239.34
759.82	239.23
760.15	239.10
760.47	238.95
760.80	238.77
761.13	238.66
761.45	238.52
761.78	238.40
762.11	238.25
762.43	238.08
762.76	237.93
763.08	237.79
763.41	237.66
763.74	237.51
764.06	237.34
764.39	237.20
764.71	237.09
765.04	236.94
765.37	236.82
765.69	236.71
766.02	236.60
766.34	236.43
766.67	236.30
767.00	236.23
767.32	236.20
767.65	236.18
767.97	236.07
768.30	235.99
768.62	235.88
768.95	235.77
769.27	235.67
769.60	235.60
769.92	235.48
770.25	235.34
770.57	235.30
770.90	235.24
771.22	235.14
771.55	235.01
771.87	234.97
772.20	234.89
772.52	234.88
772.85	234.90
773.17	234.81
773.50	234.72
773.82	234.60
774.15	234.44
774.47	234.27
774.80	234.16
775.12	234.06
775.45	233.99
775.77	233.96
776.09	233.86
776.42	233.76
776.74	233.72
777.07	233.68
777.39	233.56
777.72	233.47
778.04	233.42
778.36	233.31
778.69	233.23
779.01	233.17
779.33	233.02
779.66	232.87
779.98	232.81
780.31	232.73
780.63	232.70
780.95	232.65
781.28	232.60
781.60	232.54
781.92	232.49
782.25	232.40
782.57	232.35
782.89	232.30
783.22	232.24
783.54	232.18
783.86	232.11
784.19	232.06
784.51	232.03
784.83	231.95
785.16	231.94
785.48	231.88
785.80	231.81
786.12	231.76
786.45	231.68
786.77	231.61
787.09	231.56
787.42	231.47
787.74	231.44
788.06	231.40
788.38	231.35
788.71	231.29
789.03	231.23
789.35	231.17
789.67	231.10
789.99	231.09
790.32	231.03
790.64	230.98
790.96	231.02
791.28	230.93
791.61	230.89
791.93	230.84
792.25	230.78
792.57	230.82
792.89	230.76
793.21	230.76
793.54	230.76
793.86	230.71
794.18	230.66
794.50	230.61
794.82	230.57
795.14	230.55
795.47	230.54
795.79	230.52
796.11	230.47
796.43	230.43
796.75	230.36
797.07	230.30
797.39	230.27
797.71	230.19
798.04	230.17
798.36	230.13
798.68	230.11
799.00	230.09
799.32	229.99
799.64	229.95
799.96	229.91
800.28	229.87
800.60	229.81
800.92	229.76
801.24	229.71
801.56	229.67
801.89	229.62
802.21	229.56
802.53	229.50
802.85	229.49
803.17	229.54
803.49	229.47
803.81	229.44
804.13	229.43
804.45	229.38
804.77	229.34
805.09	229.32
805.41	229.28
805.73	229.22
806.05	229.19
806.37	229.13
806.69	229.08
807.01	229.04
807.33	229.07
807.65	229.04
807.97	229.08
808.28	229.02
808.60	229.01
808.92	228.98
809.24	229.03
809.56	228.97
809.88	228.89
810.20	228.90
810.52	228.92
810.84	228.88
811.16	228.85
811.48	228.79
811.80	228.81
812.12	228.77
812.43	228.79
812.75	228.78
813.07	228.79
813.39	228.81
813.71	228.77
814.03	228.74
814.35	228.72
814.67	228.64
814.98	228.64
815.30	228.60
815.62	228.57
815.94	228.50
816.26	228.55
816.58	228.49
816.89	228.47
817.21	228.43
817.53	228.41
817.85	228.37
818.17	228.38
818.48	228.34
818.80	228.35
819.12	228.34
819.44	228.32
819.76	228.28
820.07	228.27
820.39	228.25
820.71	228.23
821.03	228.22
821.34	228.21
821.66	228.18
821.98	228.18
822.30	228.17
822.61	228.22
822.93	228.15
823.25	228.17
823.57	228.15
823.88	228.17
824.20	228.14
824.52	228.18
824.83	228.17
825.15	228.14
825.47	228.12
825.79	228.09
826.10	228.06
826.42	228.07
826.74	228.06
827.05	228.06
827.37	228.09
827.69	228.07
828.00	228.02
828.32	228.04
828.64	228.05
828.95	228.10
829.27	228.05
829.58	228.07
829.90	228.05
830.22	228.05
830.53	228.01
830.85	228.03
831.17	228.02
831.48	228.04
831.80	228.06
832.11	228.08
832.43	228.03
832.75	228.03
833.06	228.10
833.38	228.06
833.69	228.05
834.01	228.00
834.32	228.00
834.64	228.03
834.96	228.03
835.27	228.00
835.59	227.96
835.90	227.94
836.22	227.90
836.53	227.86
836.85	227.86
837.16	227.94
837.48	227.94
837.79	227.94
838.11	227.91
838.42	227.87
838.74	227.83
839.05	227.87
839.37	227.87
839.68	227.79
840.00	227.78
840.31	227.78
840.63	227.77
840.94	227.78
841.26	227.74
841.57	227.75
841.88	227.73
842.20	227.73
842.51	227.72
842.83	227.72
843.14	227.78
843.46	227.76
843.77	227.69
844.08	227.65
844.40	227.59
844.71	227.56
845.03	227.54
845.34	227.54
845.65	227.52
845.97	227.51
846.28	227.50
846.60	227.51
846.91	227.48
847.22	227.47
847.54	227.46
847.85	227.46
848.16	227.42
848.48	227.42
848.79	227.42
849.10	227.40
849.42	227.41
849.73	227.34
850.04	227.31
850.36	227.30
850.67	227.34
850.98	227.34
851.30	227.35
851.61	227.36
851.92	227.35
852.23	227.35
852.55	227.36
852.86	227.37
853.17	227.34
853.49	227.36
853.80	227.37
854.11	227.39
854.42	227.40
854.74	227.37
855.05	227.36
855.36	227.30
855.67	227.32
855.99	227.29
856.30	227.43
856.61	227.44
856.92	227.44
857.23	227.42
857.55	227.39
857.86	227.39
858.17	227.40
858.48	227.40
858.79	227.42
859.11	227.41
859.42	227.37
859.73	227.37
860.04	227.35
860.35	227.34
860.66	227.31
860.98	227.28
861.29	227.29
861.60	227.28
861.91	227.32
862.22	227.30
862.53	227.31
862.84	227.16
863.16	227.19
863.47	227.17
863.78	227.15
864.09	227.21
864.40	227.25
864.71	227.25
865.02	227.23
865.33	227.17
865.64	227.15
865.95	227.16
866.27	227.22
866.58	227.23
866.89	227.23
867.20	227.22
867.51	227.23
867.82	227.24
868.13	227.27
868.44	227.27
868.75	227.26
869.06	227.26
869.37	227.27
869.68	227.23
869.99	227.23
870.30	227.25
870.61	227.21
870.92	227.17
871.23	227.15
871.54	227.17
871.85	227.23
872.16	227.25
872.47	227.25
872.78	227.20
873.09	227.18
873.40	227.20
873.71	227.21
874.02	227.21
874.33	227.20
874.64	227.17
874.95	227.19
875.26	227.17
875.56	227.17
875.87	227.16
876.18	227.15
876.49	227.23
876.80	227.22
877.11	227.25
877.42	227.24
877.73	227.23
878.04	227.24
878.35	227.25
878.66	227.25
878.96	227.23
879.27	227.20
879.58	227.20
879.89	227.17
880.20	227.18
880.51	227.18
880.82	227.19
881.12	227.19
881.43	227.14
881.74	227.12
882.05	227.12
882.36	227.14
882.67	227.17
882.97	227.04
883.28	226.99
883.59	226.94
883.90	226.95
884.21	226.96
884.51	226.92
884.82	226.91
885.13	226.90
885.44	226.92
885.74	226.95
886.05	226.95
886.36	226.96
886.67	226.92
886.98	226.96
887.28	226.98
887.59	226.97
887.90	226.98
888.20	227.00
888.51	226.99
888.82	226.97
889.13	226.97
889.43	227.04
889.74	227.06
890.05	227.05
890.35	227.02
890.66	227.00
890.97	227.00
891.28	226.96
891.58	226.96
891.89	226.95
892.20	226.93
892.50	226.91
892.81	226.89
893.12	226.92
893.42	226.85
893.73	226.83
894.04	226.83
894.34	226.84
894.65	226.81
894.95	226.82
895.26	226.80
895.57	226.88
895.87	226.79
896.18	226.84
896.48	226.88
896.79	226.87
897.10	226.91
897.40	226.91
897.71	226.93
898.01	226.94
898.32	226.95
898.63	226.95
898.93	226.95
899.24	226.95
899.54	226.95
899.85	226.95
900.15	226.94
900.46	226.94
900.76	226.92
901.07	226.95
901.38	226.94
901.68	226.95
901.99	226.91
902.29	226.94
902.60	226.89
902.90	226.88
903.21	226.89
903.51	226.86
903.82	226.88
904.12	226.88
904.43	226.90
904.73	226.87
905.03	226.87
905.34	226.96
905.64	226.93
905.95	226.93
906.25	226.96
906.56	226.96
906.86	226.98
907.17	226.97
907.47	226.99
907.77	226.98
908.08	226.99
908.38	226.99
908.69	227.01
908.99	227.05
909.30	227.07
909.60	227.04
909.90	227.06
910.21	227.02
910.51	226.99
910.81	226.94
911.12	227.01
911.42	227.03
911.73	226.94
912.03	226.97
912.33	226.99
912.64	227.00
912.94	226.98
913.24	226.98
913.55	226.98
913.85	226.99
914.15	227.02
914.46	227.02
914.76	227.00
915.06	226.99
915.37	226.95
915.67	226.95
915.97	226.95
916.27	226.96
916.58	226.97
916.88	226.98
917.18	227.02
917.49	227.03
917.79	227.04
918.09	227.06
918.39	227.09
918.70	227.06
919.00	227.00
919.30	227.07
919.60	227.03
919.91	227.03
920.21	226.98
920.51	226.92
920.81	226.89
921.12	226.89
921.42	226.87
921.72	226.85
922.02	226.84
922.32	226.86
922.63	226.81
922.93	226.87
923.23	226.86
923.53	226.84
923.83	226.76
924.13	226.73
924.44	226.72
924.74	226.71
925.04	226.73
925.34	226.74
925.64	226.68
925.94	226.69
926.24	226.71
926.55	226.72
926.85	226.74
927.15	226.73
927.45	226.72
927.75	226.74
928.05	226.78
928.35	226.76
928.65	226.77
928.95	226.80
929.26	226.74
929.56	226.76
929.86	226.76
930.16	226.77
930.46	226.76
930.76	226.76
931.06	226.73
931.36	226.68
931.66	226.71
931.96	226.70
932.26	226.72
932.56	226.72
932.86	226.73
933.16	226.74
933.46	226.76
933.76	226.76
934.06	226.76
934.36	226.76
934.66	226.77
934.96	226.75
935.26	226.76
935.56	226.79
935.86	226.76
936.16	226.79
936.46	226.76
936.76	226.76
937.06	226.77
937.36	226.74
937.66	226.78
937.96	226.80
938.26	226.79
938.56	226.76
938.86	226.73
939.16	226.75
939.46	226.75
939.76	226.75
940.06	226.73
940.35	226.72
940.65	226.68
940.95	226.71
941.25	226.69
941.55	226.66
941.85	226.66
942.15	226.66
942.45	226.60
942.75	226.59
943.04	226.58
943.34	226.57
943.64	226.58
943.94	226.56
944.24	226.56
944.54	226.58
944.84	226.63
945.13	226.62
945.43	226.59
945.73	226.58
946.03	226.56
946.33	226.58
946.62	226.59
946.92	226.56
947.22	226.55
947.52	226.54
947.82	226.58
948.11	226.55
948.41	226.54
948.71	226.54
949.01	226.59
949.31	226.62
949.60	226.60
949.90	226.62
950.20	226.61
950.50	226.60
950.79	226.57
951.09	226.55
951.39	226.58
951.69	226.55
951.98	226.59
952.28	226.64
952.58	226.63
952.87	226.64
953.17	226.68
953.47	226.68
953.76	226.71
954.06	226.67
954.36	226.68
954.66	226.70
954.95	226.75
955.25	226.74
955.55	226.74
955.84	226.71
956.14	226.72
956.44	226.70
956.73	226.65
957.03	226.67
957.32	226.65
957.62	226.63
957.92	226.65
958.21	226.60
958.51	226.66
958.81	226.67
959.10	226.64
959.40	226.68
959.69	226.65
959.99	226.63
960.29	226.65
960.58	226.60
960.88	226.61
961.17	226.60
961.47	226.61
961.76	226.60
962.06	226.62
962.36	226.58
962.65	226.59
962.95	226.61
963.24	226.60
963.54	226.60
963.83	226.58
964.13	226.56
964.42	226.53
964.72	226.43
965.01	226.43
965.31	226.43
965.60	226.38
965.90	226.47
966.19	226.46
966.49	226.48
966.78	226.52
967.08	226.55
967.37	226.52
967.67	226.50
967.96	226.52
968.26	226.56
968.55	226.59
968.85	226.59
969.14	226.59
969.43	226.61
969.73	226.60
970.02	226.64
970.32	226.69
970.61	226.72
970.91	226.73
971.20	226.70
971.49	226.74
971.79	226.76
972.08	226.65
972.38	226.66
972.67	226.63
972.96	226.61
973.26	226.59
973.55	226.64
973.85	226.67
974.14	226.66
974.43	226.64
974.73	226.66
975.02	226.63
975.31	226.66
975.61	226.65
975.90	226.64
976.19	226.63
976.49	226.62
976.78	226.61
977.07	226.60
977.37	226.60
977.66	226.58
977.95	226.59
978.24	226.61
978.54	226.64
978.83	226.66
979.12	226.67
979.42	226.63
979.71	226.64
980.00	226.60
980.29	226.59
980.59	226.59
980.88	226.63
981.17	226.68
981.46	226.65
981.76	226.65
982.05	226.70
982.34	226.70
982.63	226.70
982.93	226.73
983.22	226.75
983.51	226.77
983.80	226.80
984.09	226.80
984.39	226.77
984.68	226.75
984.97	226.79
985.26	226.80
985.55	226.83
985.85	226.78
986.14	226.77
986.43	226.78
986.72	226.76
987.01	226.68
987.30	226.67
987.59	226.67
987.89	226.69
988.18	226.67
988.47	226.70
988.76	226.71
989.05	226.70
989.34	226.68
989.63	226.72
989.92	226.70
990.22	226.67
990.51	226.72
990.80	226.71
991.09	226.70
991.38	226.73
991.67	226.73
991.96	226.73
992.25	226.76
992.54	226.74
992.83	226.75
993.12	226.77
993.41	226.76
993.70	226.79
993.99	226.77
994.28	226.76
994.58	226.75
994.87	226.71
995.16	226.72
995.45	226.71
995.74	226.69
996.03	226.69
996.32	226.70
996.61	226.69
996.90	226.68
997.19	226.64
997.48	226.58
997.77	226.58
998.06	226.59
998.34	226.57
998.63	226.57
998.92	226.59
999.21	226.60
999.50	226.58
999.79	226.55
1000.08	226.56
1000.37	226.57
1000.66	226.58
1000.95	226.61
1001.24	226.60
1001.53	226.61
1001.82	226.58
1002.11	226.57
1002.40	226.60
1002.68	226.61
1002.97	226.69
1003.26	226.70
1003.55	226.70
1003.84	226.70
1004.13	226.69
1004.42	226.71
1004.71	226.71
1004.99	226.68
1005.28	226.73
1005.57	226.75
1005.86	226.75
1006.15	226.74
1006.44	226.71
1006.72	226.71
1007.01	226.70
1007.30	226.69
1007.59	226.69
1007.88	226.70
1008.17	226.71
1008.45	226.71
1008.74	226.65
1009.03	226.61
1009.32	226.60
1009.60	226.61
1009.89	226.59
1010.18	226.56
1010.47	226.52
1010.76	226.51
1011.04	226.53
1011.33	226.50
1011.62	226.50
1011.91	226.51
1012.19	226.50
1012.48	226.51
1012.77	226.49
1013.05	226.49
1013.34	226.52
1013.63	226.53
1013.92	226.51
1014.20	226.50
1014.49	226.46
1014.78	226.48
1015.06	226.43
1015.35	226.45
1015.64	226.46
1015.92	226.48
1016.21	226.51
1016.50	226.51
1016.78	226.51
1017.07	226.52
1017.36	226.52
1017.64	226.52
1017.93	226.52
1018.22	226.53
1018.50	226.55
1018.79	226.53
1019.08	226.51
1019.36	226.50
1019.65	226.49
1019.93	226.55
1020.22	226.57
1020.51	226.63
1020.79	226.64
1021.08	226.49
1021.36	226.58
1021.65	226.11
1021.94	226.63
1022.22	226.74
1022.51	226.48
1022.79	227.41
1023.08	226.85
1023.36	227.53
1023.65	226.57
>>>>>End Processed Spectral Data<<<<<
