SpectraSuite Data File
++++++++++++++++++++++++++++++++++++
Date: Fri Feb 01 15:50:27 EST 2013
User: group
Dark Spectrum Present: No
Reference Spectrum Present: No
Number of Sampled Component Spectra: 1
Spectrometers: USB2E7196
Integration Time (usec): 35000 (USB2E7196)
Spectra Averaged: 100 (USB2E7196)
Boxcar Smoothing: 10 (USB2E7196)
Correct for Electrical Dark: No (USB2E7196)
Strobe/Lamp Enabled: No (USB2E7196)
Correct for Detector Non-linearity: No (USB2E7196)
Correct for Stray Light: No (USB2E7196)
Number of Pixels in Processed Spectrum: 2048
>>>>>Begin Processed Spectral Data<<<<<
339.09	0.00
339.48	214.77
339.86	215.75
340.24	217.80
340.63	219.57
341.01	221.58
341.39	222.45
341.78	222.93
342.16	224.27
342.54	224.68
342.93	213.13
343.31	223.88
343.69	224.42
344.07	224.89
344.46	225.30
344.84	225.65
345.22	225.91
345.60	226.11
345.99	226.30
346.37	226.42
346.75	226.50
347.13	226.58
347.52	226.61
347.90	226.66
348.28	226.70
348.66	226.74
349.05	226.72
349.43	226.77
349.81	226.84
350.19	226.85
350.57	226.91
350.96	226.95
351.34	227.05
351.72	227.14
352.10	227.24
352.48	227.31
352.87	227.40
353.25	227.44
353.63	227.51
354.01	227.59
354.39	227.69
354.77	227.81
355.15	227.91
355.54	227.96
355.92	228.04
356.30	228.12
356.68	228.26
357.06	228.35
357.44	228.44
357.82	228.51
358.20	228.60
358.58	228.66
358.97	228.72
359.35	228.84
359.73	228.91
360.11	228.99
360.49	229.05
360.87	229.07
361.25	229.13
361.63	229.22
362.01	229.26
362.39	229.27
362.77	229.28
363.15	229.29
363.53	229.34
363.91	229.35
364.29	229.37
364.67	229.31
365.05	229.30
365.43	229.30
365.81	229.34
366.19	229.38
366.57	229.41
366.95	229.43
367.33	229.37
367.71	229.34
368.09	229.30
368.47	229.30
368.85	229.25
369.23	229.24
369.61	229.19
369.99	229.22
370.37	229.20
370.75	229.22
371.13	229.19
371.51	229.15
371.89	229.09
372.27	229.03
372.65	228.97
373.03	228.94
373.41	228.85
373.78	228.77
374.16	228.65
374.54	228.59
374.92	228.49
375.30	228.46
375.68	228.37
376.06	228.32
376.44	228.26
376.82	228.21
377.19	228.16
377.57	228.09
377.95	227.98
378.33	227.92
378.71	227.79
379.09	227.70
379.47	227.63
379.84	227.56
380.22	227.49
380.60	227.43
380.98	227.35
381.36	227.32
381.73	227.26
382.11	227.22
382.49	227.14
382.87	227.09
383.25	226.99
383.62	227.07
384.00	227.00
384.38	226.92
384.76	226.88
385.13	226.87
385.51	226.83
385.89	226.75
386.27	226.69
386.64	226.66
387.02	226.61
387.40	226.52
387.78	226.51
388.15	226.43
388.53	226.36
388.91	226.30
389.29	226.25
389.66	226.20
390.04	226.15
390.42	226.16
390.79	226.12
391.17	226.10
391.55	225.94
391.92	225.94
392.30	225.93
392.68	225.94
393.05	225.89
393.43	225.86
393.81	225.85
394.18	225.83
394.56	225.83
394.94	225.88
395.31	225.91
395.69	225.91
396.06	225.96
396.44	226.04
396.82	226.07
397.19	226.18
397.57	226.21
397.95	226.28
398.32	226.29
398.70	226.36
399.07	226.46
399.45	226.52
399.82	226.57
400.20	226.64
400.58	226.70
400.95	226.76
401.33	226.88
401.70	227.06
402.08	227.17
402.45	227.27
402.83	227.41
403.20	227.55
403.58	227.71
403.95	227.89
404.33	228.04
404.71	228.19
405.08	228.34
405.46	228.52
405.83	228.69
406.21	228.84
406.58	229.02
406.96	229.17
407.33	229.40
407.70	229.61
408.08	229.90
408.45	230.15
408.83	230.41
409.20	230.63
409.58	230.82
409.95	231.09
410.33	231.37
410.70	231.61
411.08	231.93
411.45	232.23
411.82	232.49
412.20	232.85
412.57	233.25
412.95	233.54
413.32	233.93
413.69	234.34
414.07	234.79
414.44	235.24
414.82	235.71
415.19	236.25
415.56	236.83
415.94	237.39
416.31	238.00
416.68	238.63
417.06	239.35
417.43	240.04
417.81	240.82
418.18	241.61
418.55	242.46
418.93	243.31
419.30	244.22
419.67	245.17
420.04	246.09
420.42	247.08
420.79	248.28
421.16	249.45
421.54	250.61
421.91	251.83
422.28	253.11
422.66	254.45
423.03	255.71
423.40	257.00
423.77	258.37
424.15	259.80
424.52	261.24
424.89	262.85
425.26	264.41
425.64	265.85
426.01	267.44
426.38	269.08
426.75	270.75
427.13	272.45
427.50	274.23
427.87	276.14
428.24	278.00
428.61	279.76
428.99	281.68
429.36	283.81
429.73	285.91
430.10	287.93
430.47	289.98
430.85	292.08
431.22	294.31
431.59	296.70
431.96	298.92
432.33	301.43
432.70	303.75
433.08	306.52
433.45	309.17
433.82	311.71
434.19	314.58
434.56	317.37
434.93	320.03
435.30	322.61
435.68	325.45
436.05	328.28
436.42	331.09
436.79	333.57
437.16	336.25
437.53	339.05
437.90	341.83
438.27	344.59
438.64	347.44
439.01	350.07
439.38	352.29
439.75	354.45
440.13	356.92
440.50	359.26
440.87	361.13
441.24	363.05
441.61	365.26
441.98	366.74
442.35	368.53
442.72	370.39
443.09	372.27
443.46	373.27
443.83	373.83
444.20	374.33
444.57	375.17
444.94	375.47
445.31	375.82
445.68	376.18
446.05	376.21
446.42	375.81
446.79	375.36
447.16	374.95
447.53	374.66
447.90	373.53
448.27	372.39
448.64	370.82
449.01	369.67
449.37	367.71
449.74	365.85
450.11	363.60
450.48	361.11
450.85	358.54
451.22	356.40
451.59	354.42
451.96	352.46
452.33	349.91
452.70	347.58
453.07	344.74
453.43	341.88
453.80	339.14
454.17	336.51
454.54	334.01
454.91	331.26
455.28	328.59
455.65	326.11
456.02	323.63
456.38	321.47
456.75	318.82
457.12	316.59
457.49	314.34
457.86	312.20
458.23	310.39
458.59	308.37
458.96	306.32
459.33	304.45
459.70	302.59
460.07	301.11
460.43	299.36
460.80	297.75
461.17	296.34
461.54	294.86
461.91	293.48
462.27	291.99
462.64	290.79
463.01	289.48
463.38	288.17
463.74	286.84
464.11	285.69
464.48	284.70
464.85	283.58
465.21	282.74
465.58	281.82
465.95	280.71
466.32	279.84
466.68	278.92
467.05	278.05
467.42	277.18
467.78	276.24
468.15	275.35
468.52	274.67
468.88	273.77
469.25	273.02
469.62	272.35
469.98	271.71
470.35	271.05
470.72	270.41
471.08	269.78
471.45	269.29
471.82	268.71
472.18	268.09
472.55	267.68
472.92	267.13
473.28	266.65
473.65	266.19
474.02	265.71
474.38	265.34
474.75	265.02
475.11	264.68
475.48	264.43
475.85	264.20
476.21	263.99
476.58	263.80
476.94	263.64
477.31	263.47
477.67	263.30
478.04	263.20
478.41	263.11
478.77	263.11
479.14	263.04
479.50	263.04
479.87	263.12
480.23	263.17
480.60	263.24
480.96	263.31
481.33	263.55
481.69	263.74
482.06	263.91
482.42	264.10
482.79	264.32
483.15	264.60
483.52	264.97
483.88	265.29
484.25	265.66
484.61	266.07
484.98	266.51
485.34	267.07
485.71	267.62
486.07	268.22
486.44	268.76
486.80	269.44
487.17	270.19
487.53	270.97
487.90	271.79
488.26	272.75
488.62	273.77
488.99	274.73
489.35	275.78
489.72	276.95
490.08	278.11
490.44	279.37
490.81	280.71
491.17	282.05
491.54	283.52
491.90	285.08
492.26	286.74
492.63	288.51
492.99	290.32
493.36	292.23
493.72	294.30
494.08	296.47
494.45	298.73
494.81	301.10
495.17	303.53
495.54	306.10
495.90	308.75
496.26	311.56
496.63	314.51
496.99	317.62
497.35	320.86
497.72	324.30
498.08	327.83
498.44	331.47
498.80	335.41
499.17	339.49
499.53	343.64
499.89	348.01
500.26	352.54
500.62	357.16
500.98	362.14
501.34	367.24
501.71	372.56
502.07	377.95
502.43	383.56
502.79	389.41
503.16	395.50
503.52	401.80
503.88	408.17
504.24	414.81
504.60	421.65
504.97	428.81
505.33	436.13
505.69	443.81
506.05	451.59
506.41	459.46
506.78	467.59
507.14	476.07
507.50	484.82
507.86	493.80
508.22	503.03
508.59	512.19
508.95	521.79
509.31	531.59
509.67	541.75
510.03	552.04
510.39	562.64
510.75	573.41
511.12	584.29
511.48	595.64
511.84	607.08
512.20	618.67
512.56	630.60
512.92	642.85
513.28	655.20
513.64	667.69
514.00	680.46
514.37	693.39
514.73	706.43
515.09	719.44
515.45	732.72
515.81	746.26
516.17	760.33
516.53	774.45
516.89	788.70
517.25	802.87
517.61	817.28
517.97	831.73
518.33	846.15
518.69	860.90
519.05	875.81
519.41	890.98
519.77	906.52
520.13	921.95
520.49	937.25
520.85	952.67
521.21	968.41
521.57	984.69
521.93	1000.52
522.29	1016.92
522.65	1033.18
523.01	1049.37
523.37	1065.35
523.73	1081.50
524.09	1097.49
524.45	1113.74
524.81	1130.29
525.17	1147.11
525.53	1163.93
525.89	1180.77
526.25	1197.75
526.61	1214.18
526.97	1230.93
527.33	1247.33
527.68	1263.90
528.04	1280.39
528.40	1296.94
528.76	1313.98
529.12	1330.49
529.48	1347.40
529.84	1363.45
530.20	1379.93
530.56	1396.89
530.91	1414.38
531.27	1431.07
531.63	1447.57
531.99	1464.13
532.35	1480.08
532.71	1495.98
533.07	1512.31
533.42	1528.20
533.78	1544.17
534.14	1560.43
534.50	1575.71
534.86	1591.70
535.21	1606.88
535.57	1622.82
535.93	1638.29
536.29	1653.07
536.65	1668.16
537.00	1682.89
537.36	1698.24
537.72	1712.87
538.08	1727.30
538.44	1741.00
538.79	1754.98
539.15	1768.73
539.51	1782.44
539.87	1796.84
540.22	1810.57
540.58	1824.28
540.94	1837.66
541.29	1850.46
541.65	1862.98
542.01	1876.31
542.37	1888.55
542.72	1901.03
543.08	1912.68
543.44	1925.11
543.79	1936.33
544.15	1947.30
544.51	1958.75
544.87	1969.62
545.22	1980.49
545.58	1990.76
545.94	2000.64
546.29	2010.49
546.65	2020.20
547.01	2029.53
547.36	2038.24
547.72	2046.72
548.07	2054.50
548.43	2062.65
548.79	2070.82
549.14	2078.54
549.50	2085.77
549.86	2093.41
550.21	2100.61
550.57	2107.91
550.92	2114.46
551.28	2121.55
551.64	2128.66
551.99	2135.31
552.35	2141.37
552.70	2147.56
553.06	2153.54
553.41	2159.79
553.77	2165.77
554.13	2171.99
554.48	2178.03
554.84	2183.38
555.19	2188.64
555.55	2193.80
555.90	2198.33
556.26	2203.18
556.61	2207.88
556.97	2212.17
557.32	2216.40
557.68	2220.59
558.03	2224.91
558.39	2228.63
558.74	2233.09
559.10	2236.90
559.45	2240.51
559.81	2244.98
560.16	2248.69
560.52	2251.90
560.87	2255.23
561.23	2257.86
561.58	2260.79
561.94	2263.32
562.29	2265.79
562.64	2268.52
563.00	2271.17
563.35	2274.69
563.71	2277.79
564.06	2281.03
564.42	2283.83
564.77	2286.28
565.12	2288.64
565.48	2290.48
565.83	2292.36
566.19	2293.74
566.54	2294.56
566.89	2295.66
567.25	2296.12
567.60	2297.44
567.96	2299.05
568.31	2299.99
568.66	2301.22
569.02	2301.75
569.37	2302.03
569.72	2302.88
570.08	2302.95
570.43	2303.00
570.78	2302.43
571.14	2300.84
571.49	2299.44
571.84	2299.19
572.20	2297.99
572.55	2296.84
572.90	2295.48
573.26	2293.96
573.61	2292.31
573.96	2290.57
574.31	2287.52
574.67	2284.60
575.02	2280.95
575.37	2277.58
575.72	2273.74
576.08	2270.21
576.43	2266.90
576.78	2263.26
577.13	2259.99
577.49	2256.94
577.84	2253.28
578.19	2249.50
578.54	2245.88
578.90	2241.62
579.25	2236.03
579.60	2231.11
579.95	2226.12
580.30	2220.91
580.66	2215.77
581.01	2210.79
581.36	2205.91
581.71	2201.74
582.06	2197.14
582.42	2192.76
582.77	2187.54
583.12	2182.99
583.47	2178.29
583.82	2173.18
584.17	2167.98
584.53	2162.55
584.88	2156.87
585.23	2151.13
585.58	2145.67
585.93	2140.26
586.28	2135.62
586.63	2130.62
586.98	2125.51
587.34	2120.76
587.69	2115.79
588.04	2110.49
588.39	2104.81
588.74	2098.31
589.09	2092.27
589.44	2085.47
589.79	2079.47
590.14	2073.89
590.49	2067.36
590.84	2060.98
591.19	2055.09
591.54	2048.53
591.89	2041.20
592.25	2034.35
592.60	2027.19
592.95	2019.60
593.30	2012.18
593.65	2004.48
594.00	1997.39
594.35	1990.11
594.70	1982.15
595.05	1974.93
595.40	1967.77
595.75	1960.33
596.10	1954.14
596.45	1947.30
596.80	1941.19
597.15	1934.45
597.50	1927.19
597.85	1920.97
598.19	1914.32
598.54	1907.09
598.89	1900.55
599.24	1894.59
599.59	1887.90
599.94	1881.84
600.29	1875.45
600.64	1868.83
600.99	1861.51
601.34	1854.76
601.69	1847.90
602.04	1840.93
602.39	1833.70
602.74	1826.93
603.08	1820.08
603.43	1813.34
603.78	1805.98
604.13	1798.74
604.48	1791.42
604.83	1784.68
605.18	1777.42
605.53	1769.39
605.87	1761.39
606.22	1754.08
606.57	1746.05
606.92	1738.75
607.27	1731.43
607.62	1724.34
607.96	1717.05
608.31	1710.24
608.66	1702.63
609.01	1694.92
609.36	1687.33
609.70	1679.18
610.05	1671.10
610.40	1663.45
610.75	1655.13
611.10	1647.52
611.44	1639.17
611.79	1631.20
612.14	1622.52
612.49	1613.40
612.83	1605.01
613.18	1596.88
613.53	1588.80
613.88	1580.32
614.22	1571.99
614.57	1563.43
614.92	1555.55
615.27	1547.95
615.61	1539.64
615.96	1531.58
616.31	1524.04
616.65	1516.71
617.00	1509.19
617.35	1501.51
617.70	1493.20
618.04	1484.70
618.39	1476.40
618.74	1468.83
619.08	1460.55
619.43	1452.93
619.78	1445.93
620.12	1438.85
620.47	1431.27
620.82	1423.15
621.16	1415.81
621.51	1408.30
621.85	1400.74
622.20	1392.21
622.55	1383.89
622.89	1376.03
623.24	1368.33
623.59	1360.96
623.93	1353.40
624.28	1346.14
624.62	1338.53
624.97	1331.27
625.32	1324.46
625.66	1317.53
626.01	1310.27
626.35	1302.77
626.70	1294.97
627.04	1287.29
627.39	1279.47
627.73	1272.18
628.08	1265.18
628.43	1257.81
628.77	1250.32
629.12	1242.63
629.46	1235.57
629.81	1228.21
630.15	1220.99
630.50	1213.63
630.84	1205.39
631.19	1197.53
631.53	1190.08
631.88	1182.59
632.22	1175.04
632.57	1167.73
632.91	1160.24
633.26	1152.75
633.60	1145.43
633.95	1138.44
634.29	1131.41
634.64	1124.77
634.98	1117.33
635.32	1110.20
635.67	1103.66
636.01	1097.07
636.36	1090.27
636.70	1083.70
637.05	1077.18
637.39	1070.81
637.73	1064.28
638.08	1058.39
638.42	1052.36
638.77	1045.87
639.11	1039.16
639.45	1032.77
639.80	1026.10
640.14	1019.71
640.49	1013.27
640.83	1006.91
641.17	1000.70
641.52	994.38
641.86	987.90
642.20	982.01
642.55	975.72
642.89	969.17
643.23	962.60
643.58	956.87
643.92	950.66
644.26	944.47
644.61	938.40
644.95	932.37
645.29	925.74
645.64	918.97
645.98	912.60
646.32	906.84
646.66	900.77
647.01	895.01
647.35	889.22
647.69	883.35
648.04	877.84
648.38	871.97
648.72	865.91
649.06	859.83
649.41	853.95
649.75	847.95
650.09	842.01
650.43	836.25
650.78	830.07
651.12	824.13
651.46	818.49
651.80	812.72
652.14	807.30
652.49	802.05
652.83	796.96
653.17	791.28
653.51	785.59
653.85	780.23
654.20	774.52
654.54	768.44
654.88	762.74
655.22	756.86
655.56	751.23
655.90	745.90
656.25	740.63
656.59	735.36
656.93	730.28
657.27	725.15
657.61	719.72
657.95	714.73
658.29	709.60
658.64	704.34
658.98	699.00
659.32	693.53
659.66	688.30
660.00	682.95
660.34	678.03
660.68	673.08
661.02	668.06
661.36	663.40
661.70	658.98
662.05	654.61
662.39	650.29
662.73	645.83
663.07	641.41
663.41	637.03
663.75	632.47
664.09	627.92
664.43	623.54
664.77	619.41
665.11	615.03
665.45	610.92
665.79	606.88
666.13	602.74
666.47	598.64
666.81	594.48
667.15	590.39
667.49	586.50
667.83	582.76
668.17	578.79
668.51	574.66
668.85	570.59
669.19	566.80
669.53	562.93
669.87	559.05
670.21	555.29
670.55	551.66
670.89	548.29
671.23	544.83
671.57	541.27
671.91	537.74
672.25	534.25
672.58	530.75
672.92	527.33
673.26	524.16
673.60	521.03
673.94	517.92
674.28	514.98
674.62	512.04
674.96	508.83
675.30	505.93
675.64	503.03
675.97	500.36
676.31	497.46
676.65	494.52
676.99	491.77
677.33	488.97
677.67	486.09
678.01	483.04
678.34	480.07
678.68	477.20
679.02	474.34
679.36	471.58
679.70	468.87
680.04	466.05
680.37	463.16
680.71	460.40
681.05	457.75
681.39	455.05
681.73	452.41
682.06	449.92
682.40	447.42
682.74	444.94
683.08	442.34
683.42	439.75
683.75	437.24
684.09	434.70
684.43	432.22
684.77	429.79
685.10	427.39
685.44	425.10
685.78	422.85
686.12	420.63
686.45	418.34
686.79	416.02
687.13	413.81
687.46	411.70
687.80	409.54
688.14	407.34
688.48	405.26
688.81	402.98
689.15	400.84
689.49	398.73
689.82	396.63
690.16	394.58
690.50	392.63
690.83	390.70
691.17	388.75
691.51	386.83
691.84	384.99
692.18	383.13
692.52	381.19
692.85	379.26
693.19	377.39
693.52	375.61
693.86	373.79
694.20	372.03
694.53	370.22
694.87	368.39
695.21	366.65
695.54	364.81
695.88	363.11
696.21	361.39
696.55	359.63
696.88	357.95
697.22	356.24
697.56	354.61
697.89	353.00
698.23	351.41
698.56	349.81
698.90	348.19
699.23	346.50
699.57	344.90
699.90	343.35
700.24	341.81
700.58	340.25
700.91	338.75
701.25	337.31
701.58	335.95
701.92	334.56
702.25	333.16
702.59	331.80
702.92	330.46
703.26	329.15
703.59	327.90
703.93	326.70
704.26	325.43
704.60	324.12
704.93	322.80
705.26	321.55
705.60	320.38
705.93	319.23
706.27	318.21
706.60	317.19
706.94	316.14
707.27	315.01
707.61	313.94
707.94	312.94
708.27	311.81
708.61	310.72
708.94	309.72
709.28	308.74
709.61	307.78
709.94	306.81
710.28	305.80
710.61	304.79
710.95	303.72
711.28	302.83
711.61	301.87
711.95	300.96
712.28	299.96
712.61	298.92
712.95	297.93
713.28	297.10
713.61	296.18
713.95	295.26
714.28	294.41
714.61	293.56
714.95	292.69
715.28	291.85
715.61	290.97
715.95	290.10
716.28	289.21
716.61	288.40
716.95	287.59
717.28	286.86
717.61	286.10
717.94	285.34
718.28	284.52
718.61	283.84
718.94	283.15
719.27	282.51
719.61	281.90
719.94	281.29
720.27	280.56
720.60	279.88
720.94	279.26
721.27	278.67
721.60	278.09
721.93	277.48
722.27	276.94
722.60	276.38
722.93	275.84
723.26	275.32
723.59	274.75
723.93	274.23
724.26	273.67
724.59	273.14
724.92	272.61
725.25	272.13
725.59	271.60
725.92	271.07
726.25	270.58
726.58	270.11
726.91	269.58
727.24	269.06
727.57	268.57
727.91	268.10
728.24	267.64
728.57	267.17
728.90	266.71
729.23	266.23
729.56	265.81
729.89	265.32
730.22	264.82
730.55	264.35
730.89	263.90
731.22	263.47
731.55	263.04
731.88	262.65
732.21	262.26
732.54	261.79
732.87	261.40
733.20	261.04
733.53	260.66
733.86	260.30
734.19	259.93
734.52	259.56
734.85	259.26
735.18	258.85
735.51	258.50
735.84	258.13
736.17	257.78
736.50	257.34
736.83	257.12
737.16	256.83
737.49	256.50
737.82	256.15
738.15	255.82
738.48	255.47
738.81	255.12
739.14	254.78
739.47	254.49
739.80	254.14
740.13	253.81
740.46	253.44
740.79	253.13
741.12	252.83
741.45	252.56
741.78	252.18
742.11	251.88
742.44	251.54
742.77	251.26
743.10	250.98
743.43	250.72
743.75	250.38
744.08	250.21
744.41	249.92
744.74	249.61
745.07	249.31
745.40	249.07
745.73	248.84
746.06	248.57
746.39	248.32
746.71	248.10
747.04	247.80
747.37	247.58
747.70	247.32
748.03	247.05
748.36	246.82
748.68	246.57
749.01	246.33
749.34	246.09
749.67	245.85
750.00	245.62
750.33	245.45
750.65	245.19
750.98	244.82
751.31	244.65
751.64	244.46
751.97	244.31
752.29	244.09
752.62	243.83
752.95	243.59
753.28	243.39
753.60	243.15
753.93	242.99
754.26	242.76
754.59	242.55
754.91	242.34
755.24	242.14
755.57	241.96
755.90	241.76
756.22	241.56
756.55	241.37
756.88	241.13
757.20	240.90
757.53	240.71
757.86	240.54
758.19	240.35
758.51	240.16
758.84	239.93
759.17	239.73
759.49	239.57
759.82	239.46
760.15	239.30
760.47	239.15
760.80	238.97
761.13	238.85
761.45	238.67
761.78	238.54
762.11	238.38
762.43	238.22
762.76	238.05
763.08	237.94
763.41	237.80
763.74	237.68
764.06	237.53
764.39	237.39
764.71	237.25
765.04	237.10
765.37	236.98
765.69	236.85
766.02	236.71
766.34	236.60
766.67	236.44
767.00	236.32
767.32	236.25
767.65	236.20
767.97	236.06
768.30	235.97
768.62	235.86
768.95	235.75
769.27	235.67
769.60	235.59
769.92	235.47
770.25	235.33
770.57	235.24
770.90	235.10
771.22	235.01
771.55	234.90
771.87	234.81
772.20	234.72
772.52	234.72
772.85	234.76
773.17	234.66
773.50	234.57
773.82	234.46
774.15	234.32
774.47	234.18
774.80	234.12
775.12	234.04
775.45	233.95
775.77	233.87
776.09	233.80
776.42	233.70
776.74	233.68
777.07	233.63
777.39	233.58
777.72	233.53
778.04	233.46
778.36	233.44
778.69	233.42
779.01	233.35
779.33	233.22
779.66	233.04
779.98	232.98
780.31	232.89
780.63	232.87
780.95	232.83
781.28	232.77
781.60	232.68
781.92	232.59
782.25	232.52
782.57	232.46
782.89	232.36
783.22	232.30
783.54	232.23
783.86	232.19
784.19	232.08
784.51	232.06
784.83	231.98
785.16	231.90
785.48	231.79
785.80	231.72
786.12	231.67
786.45	231.62
786.77	231.59
787.09	231.53
787.42	231.45
787.74	231.38
788.06	231.29
788.38	231.24
788.71	231.18
789.03	231.15
789.35	231.13
789.67	231.13
789.99	231.09
790.32	231.01
790.64	230.92
790.96	230.97
791.28	230.90
791.61	230.86
791.93	230.84
792.25	230.80
792.57	230.87
792.89	230.74
793.21	230.68
793.54	230.62
793.86	230.57
794.18	230.54
794.50	230.48
794.82	230.44
795.14	230.41
795.47	230.41
795.79	230.35
796.11	230.26
796.43	230.21
796.75	230.18
797.07	230.15
797.39	230.14
797.71	230.04
798.04	230.00
798.36	230.01
798.68	229.93
799.00	229.92
799.32	229.83
799.64	229.88
799.96	229.87
800.28	229.86
800.60	229.84
800.92	229.82
801.24	229.80
801.56	229.79
801.89	229.76
802.21	229.74
802.53	229.68
802.85	229.69
803.17	229.69
803.49	229.65
803.81	229.61
804.13	229.59
804.45	229.53
804.77	229.49
805.09	229.44
805.41	229.42
805.73	229.37
806.05	229.27
806.37	229.22
806.69	229.20
807.01	229.16
807.33	229.16
807.65	229.09
807.97	229.10
808.28	229.08
808.60	229.09
808.92	229.08
809.24	229.16
809.56	229.11
809.88	229.05
810.20	229.05
810.52	229.07
810.84	229.02
811.16	229.01
811.48	228.96
811.80	229.00
812.12	229.00
812.43	228.99
812.75	229.02
813.07	229.00
813.39	228.99
813.71	228.97
814.03	228.93
814.35	228.95
814.67	228.92
814.98	228.91
815.30	228.85
815.62	228.77
815.94	228.69
816.26	228.73
816.58	228.70
816.89	228.68
817.21	228.63
817.53	228.65
817.85	228.66
818.17	228.70
818.48	228.63
818.80	228.62
819.12	228.59
819.44	228.55
819.76	228.54
820.07	228.52
820.39	228.49
820.71	228.50
821.03	228.49
821.34	228.47
821.66	228.45
821.98	228.45
822.30	228.47
822.61	228.49
822.93	228.42
823.25	228.43
823.57	228.38
823.88	228.38
824.20	228.36
824.52	228.38
824.83	228.36
825.15	228.35
825.47	228.34
825.79	228.36
826.10	228.38
826.42	228.37
826.74	228.37
827.05	228.34
827.37	228.34
827.69	228.30
828.00	228.30
828.32	228.30
828.64	228.28
828.95	228.31
829.27	228.31
829.58	228.30
829.90	228.28
830.22	228.35
830.53	228.32
830.85	228.30
831.17	228.26
831.48	228.26
831.80	228.27
832.11	228.22
832.43	228.21
832.75	228.15
833.06	228.18
833.38	228.15
833.69	228.16
834.01	228.17
834.32	228.16
834.64	228.11
834.96	228.10
835.27	228.09
835.59	228.02
835.90	227.93
836.22	227.94
836.53	227.92
836.85	227.85
837.16	227.90
837.48	227.90
837.79	227.89
838.11	227.83
838.42	227.78
838.74	227.78
839.05	227.76
839.37	227.77
839.68	227.71
840.00	227.70
840.31	227.72
840.63	227.69
840.94	227.69
841.26	227.68
841.57	227.69
841.88	227.69
842.20	227.68
842.51	227.69
842.83	227.68
843.14	227.76
843.46	227.76
843.77	227.72
844.08	227.69
844.40	227.66
844.71	227.68
845.03	227.71
845.34	227.69
845.65	227.68
845.97	227.66
846.28	227.65
846.60	227.64
846.91	227.60
847.22	227.58
847.54	227.57
847.85	227.61
848.16	227.55
848.48	227.56
848.79	227.60
849.10	227.61
849.42	227.61
849.73	227.53
850.04	227.53
850.36	227.47
850.67	227.49
850.98	227.50
851.30	227.53
851.61	227.51
851.92	227.51
852.23	227.52
852.55	227.55
852.86	227.54
853.17	227.55
853.49	227.56
853.80	227.58
854.11	227.58
854.42	227.55
854.74	227.56
855.05	227.57
855.36	227.52
855.67	227.52
855.99	227.53
856.30	227.60
856.61	227.58
856.92	227.62
857.23	227.60
857.55	227.60
857.86	227.58
858.17	227.60
858.48	227.59
858.79	227.56
859.11	227.54
859.42	227.53
859.73	227.49
860.04	227.50
860.35	227.44
860.66	227.45
860.98	227.46
861.29	227.46
861.60	227.44
861.91	227.49
862.22	227.46
862.53	227.45
862.84	227.39
863.16	227.42
863.47	227.42
863.78	227.46
864.09	227.48
864.40	227.49
864.71	227.47
865.02	227.51
865.33	227.51
865.64	227.48
865.95	227.49
866.27	227.58
866.58	227.59
866.89	227.64
867.20	227.65
867.51	227.62
867.82	227.63
868.13	227.62
868.44	227.61
868.75	227.66
869.06	227.64
869.37	227.64
869.68	227.59
869.99	227.58
870.30	227.56
870.61	227.58
870.92	227.53
871.23	227.55
871.54	227.53
871.85	227.57
872.16	227.61
872.47	227.59
872.78	227.54
873.09	227.55
873.40	227.52
873.71	227.48
874.02	227.46
874.33	227.43
874.64	227.43
874.95	227.44
875.26	227.38
875.56	227.36
875.87	227.34
876.18	227.39
876.49	227.50
876.80	227.47
877.11	227.45
877.42	227.47
877.73	227.44
878.04	227.42
878.35	227.42
878.66	227.37
878.96	227.37
879.27	227.37
879.58	227.36
879.89	227.38
880.20	227.41
880.51	227.42
880.82	227.44
881.12	227.43
881.43	227.37
881.74	227.40
882.05	227.36
882.36	227.36
882.67	227.34
882.97	227.21
883.28	227.20
883.59	227.17
883.90	227.16
884.21	227.15
884.51	227.18
884.82	227.17
885.13	227.21
885.44	227.20
885.74	227.19
886.05	227.15
886.36	227.15
886.67	227.10
886.98	227.13
887.28	227.13
887.59	227.13
887.90	227.14
888.20	227.11
888.51	227.16
888.82	227.14
889.13	227.14
889.43	227.19
889.74	227.16
890.05	227.11
890.35	227.10
890.66	227.09
890.97	227.06
891.28	227.03
891.58	227.00
891.89	227.00
892.20	226.98
892.50	226.97
892.81	226.93
893.12	226.93
893.42	226.92
893.73	226.92
894.04	226.91
894.34	226.91
894.65	226.92
894.95	226.91
895.26	226.90
895.57	226.94
895.87	226.86
896.18	226.91
896.48	226.92
896.79	226.92
897.10	226.91
897.40	226.88
897.71	226.92
898.01	226.93
898.32	226.95
898.63	226.99
898.93	227.01
899.24	227.04
899.54	227.03
899.85	227.00
900.15	227.00
900.46	227.01
900.76	227.04
901.07	227.05
901.38	227.07
901.68	227.07
901.99	227.03
902.29	227.05
902.60	227.05
902.90	227.05
903.21	227.05
903.51	227.07
903.82	227.09
904.12	227.07
904.43	227.06
904.73	227.07
905.03	227.06
905.34	227.12
905.64	227.08
905.95	227.08
906.25	227.12
906.56	227.08
906.86	227.08
907.17	227.06
907.47	227.07
907.77	227.04
908.08	227.04
908.38	227.05
908.69	227.05
908.99	227.07
909.30	227.09
909.60	227.10
909.90	227.08
910.21	227.09
910.51	227.08
910.81	227.09
911.12	227.07
911.42	227.05
911.73	226.97
912.03	227.01
912.33	227.03
912.64	227.01
912.94	227.02
913.24	227.01
913.55	226.99
913.85	226.95
914.15	226.96
914.46	226.96
914.76	226.93
915.06	226.92
915.37	226.90
915.67	226.93
915.97	226.94
916.27	226.95
916.58	226.94
916.88	226.92
917.18	226.90
917.49	226.96
917.79	226.93
918.09	226.95
918.39	226.92
918.70	226.93
919.00	226.92
919.30	226.97
919.60	226.97
919.91	226.96
920.21	226.96
920.51	226.95
920.81	226.92
921.12	226.96
921.42	226.94
921.72	226.96
922.02	226.94
922.32	226.94
922.63	226.90
922.93	226.94
923.23	226.94
923.53	226.95
923.83	226.91
924.13	226.95
924.44	226.95
924.74	227.00
925.04	227.03
925.34	227.03
925.64	226.95
925.94	226.93
926.24	227.01
926.55	226.99
926.85	227.00
927.15	227.01
927.45	227.02
927.75	226.98
928.05	226.96
928.35	226.97
928.65	226.94
928.95	226.96
929.26	226.93
929.56	226.94
929.86	226.94
930.16	226.92
930.46	226.91
930.76	226.88
931.06	226.84
931.36	226.81
931.66	226.83
931.96	226.87
932.26	226.89
932.56	226.85
932.86	226.88
933.16	226.86
933.46	226.85
933.76	226.81
934.06	226.87
934.36	226.92
934.66	226.90
934.96	226.89
935.26	226.92
935.56	226.93
935.86	226.90
936.16	226.90
936.46	226.90
936.76	226.91
937.06	226.93
937.36	226.95
937.66	226.93
937.96	226.93
938.26	226.91
938.56	226.92
938.86	226.91
939.16	226.93
939.46	226.98
939.76	227.00
940.06	227.04
940.35	227.00
940.65	226.91
940.95	226.95
941.25	226.96
941.55	226.95
941.85	226.93
942.15	226.99
942.45	227.02
942.75	227.02
943.04	227.02
943.34	227.00
943.64	226.99
943.94	227.01
944.24	227.00
944.54	227.00
944.84	227.01
945.13	227.01
945.43	227.02
945.73	226.99
946.03	226.97
946.33	226.91
946.62	226.91
946.92	226.93
947.22	226.89
947.52	226.90
947.82	226.89
948.11	226.86
948.41	226.83
948.71	226.79
949.01	226.80
949.31	226.79
949.60	226.81
949.90	226.82
950.20	226.78
950.50	226.78
950.79	226.75
951.09	226.76
951.39	226.73
951.69	226.70
951.98	226.72
952.28	226.72
952.58	226.73
952.87	226.73
953.17	226.75
953.47	226.77
953.76	226.74
954.06	226.74
954.36	226.74
954.66	226.75
954.95	226.78
955.25	226.76
955.55	226.76
955.84	226.72
956.14	226.70
956.44	226.71
956.73	226.69
957.03	226.70
957.32	226.68
957.62	226.68
957.92	226.68
958.21	226.68
958.51	226.80
958.81	226.83
959.10	226.83
959.40	226.82
959.69	226.82
959.99	226.86
960.29	226.86
960.58	226.87
960.88	226.92
961.17	226.88
961.47	226.88
961.76	226.86
962.06	226.89
962.36	226.90
962.65	226.91
962.95	226.90
963.24	226.92
963.54	226.93
963.83	226.94
964.13	226.93
964.42	226.87
964.72	226.81
965.01	226.83
965.31	226.84
965.60	226.83
965.90	226.90
966.19	226.86
966.49	226.86
966.78	226.86
967.08	226.83
967.37	226.86
967.67	226.88
967.96	226.88
968.26	226.87
968.55	226.89
968.85	226.91
969.14	226.91
969.43	226.92
969.73	226.93
970.02	226.95
970.32	226.99
970.61	227.02
970.91	226.95
971.20	226.92
971.49	226.90
971.79	226.93
972.08	226.86
972.38	226.87
972.67	226.87
972.96	226.88
973.26	226.87
973.55	226.90
973.85	226.87
974.14	226.92
974.43	226.93
974.73	226.92
975.02	226.91
975.31	226.92
975.61	226.91
975.90	226.88
976.19	226.86
976.49	226.88
976.78	226.91
977.07	226.92
977.37	226.95
977.66	226.98
977.95	226.96
978.24	226.97
978.54	226.97
978.83	226.98
979.12	226.95
979.42	226.93
979.71	226.90
980.00	226.93
980.29	226.88
980.59	226.88
980.88	226.94
981.17	226.92
981.46	226.90
981.76	226.90
982.05	226.91
982.34	226.91
982.63	226.90
982.93	226.88
983.22	226.89
983.51	226.86
983.80	226.85
984.09	226.84
984.39	226.80
984.68	226.81
984.97	226.81
985.26	226.81
985.55	226.82
985.85	226.79
986.14	226.76
986.43	226.79
986.72	226.76
987.01	226.71
987.30	226.72
987.59	226.72
987.89	226.73
988.18	226.70
988.47	226.70
988.76	226.68
989.05	226.70
989.34	226.67
989.63	226.70
989.92	226.68
990.22	226.68
990.51	226.69
990.80	226.66
991.09	226.66
991.38	226.66
991.67	226.62
991.96	226.59
992.25	226.64
992.54	226.59
992.83	226.59
993.12	226.56
993.41	226.58
993.70	226.61
993.99	226.61
994.28	226.65
994.58	226.68
994.87	226.64
995.16	226.60
995.45	226.65
995.74	226.62
996.03	226.64
996.32	226.66
996.61	226.69
996.90	226.69
997.19	226.66
997.48	226.67
997.77	226.71
998.06	226.75
998.34	226.74
998.63	226.75
998.92	226.76
999.21	226.78
999.50	226.77
999.79	226.76
1000.08	226.79
1000.37	226.78
1000.66	226.75
1000.95	226.81
1001.24	226.82
1001.53	226.79
1001.82	226.80
1002.11	226.81
1002.40	226.82
1002.68	226.84
1002.97	226.94
1003.26	226.94
1003.55	226.97
1003.84	226.95
1004.13	227.00
1004.42	227.01
1004.71	227.00
1004.99	226.98
1005.28	227.01
1005.57	227.02
1005.86	227.01
1006.15	226.97
1006.44	226.99
1006.72	226.99
1007.01	226.96
1007.30	226.98
1007.59	227.02
1007.88	227.03
1008.17	227.02
1008.45	227.01
1008.74	227.02
1009.03	226.97
1009.32	226.99
1009.60	226.99
1009.89	227.01
1010.18	226.93
1010.47	226.92
1010.76	226.93
1011.04	226.94
1011.33	226.95
1011.62	226.92
1011.91	226.91
1012.19	226.91
1012.48	226.90
1012.77	226.86
1013.05	226.90
1013.34	226.87
1013.63	226.82
1013.92	226.81
1014.20	226.76
1014.49	226.76
1014.78	226.73
1015.06	226.71
1015.35	226.68
1015.64	226.70
1015.92	226.68
1016.21	226.66
1016.50	226.62
1016.78	226.65
1017.07	226.62
1017.36	226.60
1017.64	226.60
1017.93	226.61
1018.22	226.58
1018.50	226.56
1018.79	226.56
1019.08	226.50
1019.36	226.51
1019.65	226.50
1019.93	226.52
1020.22	226.57
1020.51	226.61
1020.79	226.58
1021.08	226.19
1021.36	226.31
1021.65	226.37
1021.94	226.28
1022.22	226.54
1022.51	226.49
1022.79	227.06
1023.08	226.80
1023.36	227.73
1023.65	226.15
>>>>>End Processed Spectral Data<<<<<
