SpectraSuite Data File
++++++++++++++++++++++++++++++++++++
Date: Fri Feb 01 17:43:36 EST 2013
User: group
Dark Spectrum Present: No
Reference Spectrum Present: No
Number of Sampled Component Spectra: 1
Spectrometers: USB2E7196
Integration Time (usec): 35000 (USB2E7196)
Spectra Averaged: 100 (USB2E7196)
Boxcar Smoothing: 10 (USB2E7196)
Correct for Electrical Dark: No (USB2E7196)
Strobe/Lamp Enabled: No (USB2E7196)
Correct for Detector Non-linearity: No (USB2E7196)
Correct for Stray Light: No (USB2E7196)
Number of Pixels in Processed Spectrum: 2048
>>>>>Begin Processed Spectral Data<<<<<
339.09	0.00
339.48	212.94
339.86	214.16
340.24	215.51
340.63	216.59
341.01	220.10
341.39	219.47
341.78	220.78
342.16	221.72
342.54	222.25
342.93	211.12
343.31	221.81
343.69	222.35
344.07	222.81
344.46	223.24
344.84	223.61
345.22	223.83
345.60	224.09
345.99	224.26
346.37	224.40
346.75	224.51
347.13	224.54
347.52	224.60
347.90	224.64
348.28	224.65
348.66	224.69
349.05	224.64
349.43	224.68
349.81	224.69
350.19	224.72
350.57	224.75
350.96	224.81
351.34	224.88
351.72	224.91
352.10	225.00
352.48	225.04
352.87	225.10
353.25	225.17
353.63	225.22
354.01	225.26
354.39	225.31
354.77	225.38
355.15	225.48
355.54	225.56
355.92	225.60
356.30	225.66
356.68	225.80
357.06	225.90
357.44	225.97
357.82	226.06
358.20	226.15
358.58	226.24
358.97	226.28
359.35	226.35
359.73	226.46
360.11	226.51
360.49	226.59
360.87	226.66
361.25	226.71
361.63	226.77
362.01	226.86
362.39	226.92
362.77	226.95
363.15	226.99
363.53	227.01
363.91	227.03
364.29	227.05
364.67	226.98
365.05	227.02
365.43	227.05
365.81	227.11
366.19	227.14
366.57	227.20
366.95	227.24
367.33	227.24
367.71	227.27
368.09	227.28
368.47	227.28
368.85	227.29
369.23	227.29
369.61	227.27
369.99	227.30
370.37	227.32
370.75	227.38
371.13	227.35
371.51	227.33
371.89	227.31
372.27	227.30
372.65	227.25
373.03	227.19
373.41	227.14
373.78	227.08
374.16	226.98
374.54	226.88
374.92	226.81
375.30	226.76
375.68	226.67
376.06	226.65
376.44	226.60
376.82	226.54
377.19	226.47
377.57	226.42
377.95	226.34
378.33	226.25
378.71	226.12
379.09	226.08
379.47	226.00
379.84	225.96
380.22	225.90
380.60	225.85
380.98	225.79
381.36	225.72
381.73	225.63
382.11	225.59
382.49	225.56
382.87	225.49
383.25	225.44
383.62	225.51
384.00	225.44
384.38	225.36
384.76	225.31
385.13	225.32
385.51	225.26
385.89	225.17
386.27	225.13
386.64	225.11
387.02	225.04
387.40	225.03
387.78	224.97
388.15	224.92
388.53	224.83
388.91	224.79
389.29	224.78
389.66	224.76
390.04	224.71
390.42	224.69
390.79	224.70
391.17	224.64
391.55	224.51
391.92	224.49
392.30	224.49
392.68	224.48
393.05	224.45
393.43	224.42
393.81	224.43
394.18	224.43
394.56	224.43
394.94	224.45
395.31	224.37
395.69	224.42
396.06	224.45
396.44	224.52
396.82	224.53
397.19	224.59
397.57	224.61
397.95	224.65
398.32	224.65
398.70	224.64
399.07	224.74
399.45	224.77
399.82	224.80
400.20	224.84
400.58	224.86
400.95	224.85
401.33	224.94
401.70	225.07
402.08	225.13
402.45	225.23
402.83	225.32
403.20	225.48
403.58	225.56
403.95	225.71
404.33	225.84
404.71	225.99
405.08	226.18
405.46	226.32
405.83	226.48
406.21	226.64
406.58	226.84
406.96	226.99
407.33	227.21
407.70	227.46
408.08	227.77
408.45	228.03
408.83	228.36
409.20	228.64
409.58	228.87
409.95	229.18
410.33	229.46
410.70	229.80
411.08	230.15
411.45	230.52
411.82	230.88
412.20	231.32
412.57	231.79
412.95	232.15
413.32	232.63
413.69	233.11
414.07	233.64
414.44	234.23
414.82	234.80
415.19	235.44
415.56	236.07
415.94	236.73
416.31	237.48
416.68	238.20
417.06	239.06
417.43	239.86
417.81	240.77
418.18	241.72
418.55	242.72
418.93	243.74
419.30	244.83
419.67	245.94
420.04	247.12
420.42	248.31
420.79	249.76
421.16	251.17
421.54	252.64
421.91	254.10
422.28	255.63
422.66	257.25
423.03	258.81
423.40	260.45
423.77	262.17
424.15	263.96
424.52	265.75
424.89	267.73
425.26	269.65
425.64	271.43
426.01	273.38
426.38	275.40
426.75	277.46
427.13	279.54
427.50	281.76
427.87	284.02
428.24	286.29
428.61	288.40
428.99	290.77
429.36	293.32
429.73	295.85
430.10	298.28
430.47	300.78
430.85	303.37
431.22	306.10
431.59	308.96
431.96	311.69
432.33	314.70
432.70	317.56
433.08	320.98
433.45	324.20
433.82	327.34
434.19	330.84
434.56	334.26
434.93	337.47
435.30	340.66
435.68	344.17
436.05	347.62
436.42	351.02
436.79	354.05
437.16	357.29
437.53	360.74
437.90	364.15
438.27	367.45
438.64	370.89
439.01	374.05
439.38	376.81
439.75	379.41
440.13	382.46
440.50	385.26
440.87	387.49
441.24	389.83
441.61	392.53
441.98	394.37
442.35	396.58
442.72	398.90
443.09	401.13
443.46	402.32
443.83	403.04
444.20	403.63
444.57	404.65
444.94	405.06
445.31	405.51
445.68	405.95
446.05	406.11
446.42	405.70
446.79	405.18
447.16	404.64
447.53	404.30
447.90	402.92
448.27	401.58
448.64	399.66
449.01	398.28
449.37	395.82
449.74	393.54
450.11	390.79
450.48	387.79
450.85	384.69
451.22	382.14
451.59	379.72
451.96	377.43
452.33	374.35
452.70	371.46
453.07	368.03
453.43	364.55
453.80	361.19
454.17	357.94
454.54	354.86
454.91	351.55
455.28	348.26
455.65	345.22
456.02	342.19
456.38	339.53
456.75	336.31
457.12	333.59
457.49	330.84
457.86	328.24
458.23	325.98
458.59	323.50
458.96	320.91
459.33	318.64
459.70	316.32
460.07	314.42
460.43	312.33
460.80	310.35
461.17	308.54
461.54	306.65
461.91	304.87
462.27	303.08
462.64	301.53
463.01	299.91
463.38	298.34
463.74	296.68
464.11	295.32
464.48	294.09
464.85	292.73
465.21	291.64
465.58	290.45
465.95	289.08
466.32	287.93
466.68	286.87
467.05	285.74
467.42	284.67
467.78	283.54
468.15	282.48
468.52	281.65
468.88	280.60
469.25	279.68
469.62	278.92
469.98	278.09
470.35	277.35
470.72	276.58
471.08	275.77
471.45	275.07
471.82	274.40
472.18	273.64
472.55	273.10
472.92	272.46
473.28	271.91
473.65	271.34
474.02	270.81
474.38	270.29
474.75	269.89
475.11	269.43
475.48	269.08
475.85	268.77
476.21	268.43
476.58	268.19
476.94	268.03
477.31	267.78
477.67	267.57
478.04	267.34
478.41	267.24
478.77	267.24
479.14	267.15
479.50	267.07
479.87	267.10
480.23	267.17
480.60	267.23
480.96	267.26
481.33	267.47
481.69	267.62
482.06	267.83
482.42	267.99
482.79	268.20
483.15	268.44
483.52	268.80
483.88	269.12
484.25	269.48
484.61	269.86
484.98	270.30
485.34	270.85
485.71	271.47
486.07	272.05
486.44	272.58
486.80	273.29
487.17	274.04
487.53	274.85
487.90	275.68
488.26	276.60
488.62	277.62
488.99	278.60
489.35	279.67
489.72	280.80
490.08	282.02
490.44	283.29
490.81	284.68
491.17	286.06
491.54	287.59
491.90	289.13
492.26	290.85
492.63	292.62
492.99	294.44
493.36	296.34
493.72	298.42
494.08	300.61
494.45	302.93
494.81	305.35
495.17	307.86
495.54	310.48
495.90	313.24
496.26	316.13
496.63	319.19
496.99	322.39
497.35	325.68
497.72	329.20
498.08	332.81
498.44	336.62
498.80	340.63
499.17	344.79
499.53	349.09
499.89	353.57
500.26	358.18
500.62	362.97
500.98	368.13
501.34	373.40
501.71	378.86
502.07	384.43
502.43	390.25
502.79	396.26
503.16	402.55
503.52	409.04
503.88	415.62
504.24	422.42
504.60	429.50
504.97	436.93
505.33	444.51
505.69	452.49
506.05	460.45
506.41	468.62
506.78	477.01
507.14	485.78
507.50	494.82
507.86	504.14
508.22	513.65
508.59	523.11
508.95	532.94
509.31	543.00
509.67	553.40
510.03	563.97
510.39	574.84
510.75	585.91
511.12	597.15
511.48	608.77
511.84	620.58
512.20	632.49
512.56	644.71
512.92	657.25
513.28	669.94
513.64	682.84
514.00	695.96
514.37	709.31
514.73	722.79
515.09	736.18
515.45	749.96
515.81	763.99
516.17	778.41
516.53	792.97
516.89	807.80
517.25	822.50
517.61	837.49
517.97	852.47
518.33	867.50
518.69	882.90
519.05	898.43
519.41	914.11
519.77	930.16
520.13	946.32
520.49	962.38
520.85	978.41
521.21	994.75
521.57	1011.53
521.93	1027.99
522.29	1045.04
522.65	1061.93
523.01	1078.74
523.37	1095.43
523.73	1112.34
524.09	1129.33
524.45	1146.29
524.81	1163.73
525.17	1181.20
525.53	1198.87
525.89	1216.62
526.25	1234.27
526.61	1251.55
526.97	1269.14
527.33	1286.59
527.68	1303.95
528.04	1321.12
528.40	1338.51
528.76	1356.47
529.12	1374.06
529.48	1391.90
529.84	1408.73
530.20	1426.32
530.56	1444.19
530.91	1462.59
531.27	1480.34
531.63	1497.62
531.99	1515.20
532.35	1532.23
532.71	1549.23
533.07	1566.52
533.42	1583.48
533.78	1600.53
534.14	1617.80
534.50	1634.27
534.86	1651.15
535.21	1667.54
535.57	1684.68
535.93	1701.29
536.29	1717.11
536.65	1733.30
537.00	1749.09
537.36	1765.73
537.72	1781.44
538.08	1797.24
538.44	1812.28
538.79	1827.38
539.15	1842.12
539.51	1857.02
539.87	1872.49
540.22	1887.29
540.58	1902.34
540.94	1916.69
541.29	1930.64
541.65	1944.54
542.01	1958.94
542.37	1972.63
542.72	1986.15
543.08	1999.33
543.44	2013.14
543.79	2025.76
544.15	2037.92
544.51	2050.85
544.87	2063.01
545.22	2075.19
545.58	2086.58
545.94	2097.57
546.29	2108.79
546.65	2120.10
547.01	2130.75
547.36	2140.78
547.72	2150.75
548.07	2159.90
548.43	2169.36
548.79	2178.49
549.14	2187.47
549.50	2196.00
549.86	2204.82
550.21	2213.37
550.57	2221.66
550.92	2229.47
551.28	2237.78
551.64	2246.17
551.99	2253.82
552.35	2261.17
552.70	2268.34
553.06	2275.54
553.41	2283.10
553.77	2290.11
554.13	2297.40
554.48	2304.54
554.84	2311.40
555.19	2317.67
555.55	2324.05
555.90	2329.61
556.26	2336.06
556.61	2341.78
556.97	2347.41
557.32	2352.68
557.68	2358.10
558.03	2363.39
558.39	2368.10
558.74	2373.83
559.10	2378.69
559.45	2383.29
559.81	2388.61
560.16	2393.60
560.52	2397.94
560.87	2402.34
561.23	2405.95
561.58	2409.50
561.94	2413.14
562.29	2416.11
562.64	2419.91
563.00	2423.32
563.35	2427.84
563.71	2431.62
564.06	2435.60
564.42	2439.43
564.77	2442.82
565.12	2445.99
565.48	2448.82
565.83	2451.54
566.19	2453.64
566.54	2455.32
566.89	2457.46
567.25	2458.89
567.60	2460.85
567.96	2463.42
568.31	2465.02
568.66	2467.04
569.02	2468.53
569.37	2469.54
569.72	2471.13
570.08	2471.85
570.43	2472.36
570.78	2472.38
571.14	2471.56
571.49	2470.72
571.84	2470.77
572.20	2470.16
572.55	2469.50
572.90	2468.21
573.26	2467.44
573.61	2466.01
573.96	2464.89
574.31	2462.25
574.67	2459.62
575.02	2456.28
575.37	2452.88
575.72	2449.39
576.08	2446.09
576.43	2442.93
576.78	2439.60
577.13	2436.53
577.49	2433.48
577.84	2430.24
578.19	2426.71
578.54	2423.29
578.90	2419.42
579.25	2413.86
579.60	2409.04
579.95	2404.09
580.30	2399.23
580.66	2393.86
581.01	2388.87
581.36	2383.66
581.71	2379.50
582.06	2375.04
582.42	2370.68
582.77	2365.58
583.12	2360.78
583.47	2356.34
583.82	2351.50
584.17	2345.91
584.53	2340.32
584.88	2334.68
585.23	2328.89
585.58	2323.06
585.93	2317.28
586.28	2312.17
586.63	2307.15
586.98	2301.85
587.34	2296.81
587.69	2291.73
588.04	2286.47
588.39	2280.67
588.74	2274.01
589.09	2267.60
589.44	2260.47
589.79	2253.79
590.14	2247.66
590.49	2240.72
590.84	2233.63
591.19	2227.16
591.54	2220.36
591.89	2212.76
592.25	2205.68
592.60	2198.12
592.95	2190.31
593.30	2182.50
593.65	2174.33
594.00	2166.58
594.35	2158.76
594.70	2150.07
595.05	2142.52
595.40	2134.55
595.75	2126.64
596.10	2120.00
596.45	2112.84
596.80	2106.19
597.15	2099.34
597.50	2091.97
597.85	2085.06
598.19	2078.09
598.54	2070.70
598.89	2063.70
599.24	2057.26
599.59	2050.22
599.94	2043.27
600.29	2036.23
600.64	2029.03
600.99	2021.20
601.34	2013.91
601.69	2006.18
602.04	1998.95
602.39	1990.92
602.74	1983.46
603.08	1976.09
603.43	1968.76
603.78	1960.78
604.13	1952.95
604.48	1945.21
604.83	1937.71
605.18	1930.37
605.53	1921.81
605.87	1913.08
606.22	1905.02
606.57	1896.23
606.92	1887.83
607.27	1880.22
607.62	1872.86
607.96	1865.16
608.31	1858.09
608.66	1849.89
609.01	1841.95
609.36	1833.60
609.70	1824.83
610.05	1816.05
610.40	1807.71
610.75	1798.57
611.10	1790.07
611.44	1780.78
611.79	1771.80
612.14	1762.25
612.49	1752.11
612.83	1742.70
613.18	1733.57
613.53	1724.66
613.88	1715.39
614.22	1706.27
614.57	1696.62
614.92	1687.67
615.27	1679.36
615.61	1670.07
615.96	1661.09
616.31	1652.49
616.65	1644.41
617.00	1636.06
617.35	1627.63
617.70	1618.43
618.04	1609.05
618.39	1599.84
618.74	1591.55
619.08	1582.39
619.43	1573.90
619.78	1566.09
620.12	1558.26
620.47	1549.88
620.82	1540.75
621.16	1532.48
621.51	1524.06
621.85	1515.52
622.20	1506.01
622.55	1496.71
622.89	1488.00
623.24	1479.39
623.59	1471.17
623.93	1462.81
624.28	1454.71
624.62	1446.34
624.97	1438.26
625.32	1430.77
625.66	1423.05
626.01	1414.98
626.35	1406.96
626.70	1398.48
627.04	1390.04
627.39	1381.26
627.73	1373.05
628.08	1365.41
628.43	1357.44
628.77	1349.40
629.12	1341.04
629.46	1333.15
629.81	1324.71
630.15	1316.65
630.50	1308.57
630.84	1299.53
631.19	1290.67
631.53	1282.32
631.88	1274.01
632.22	1265.59
632.57	1257.42
632.91	1249.03
633.26	1240.90
633.60	1232.49
633.95	1224.46
634.29	1216.53
634.64	1209.15
634.98	1201.05
635.32	1193.22
635.67	1185.82
636.01	1178.38
636.36	1171.05
636.70	1163.89
637.05	1156.73
637.39	1149.52
637.73	1142.40
638.08	1135.88
638.42	1129.29
638.77	1122.26
639.11	1115.02
639.45	1107.97
639.80	1100.74
640.14	1093.83
640.49	1086.63
640.83	1079.75
641.17	1073.10
641.52	1066.26
641.86	1059.20
642.20	1052.83
642.55	1045.79
642.89	1038.70
643.23	1031.52
643.58	1025.09
643.92	1018.24
644.26	1011.70
644.61	1005.04
644.95	998.42
645.29	991.36
645.64	984.03
645.98	977.04
646.32	970.43
646.66	963.87
647.01	957.48
647.35	951.19
647.69	944.79
648.04	938.71
648.38	932.28
648.72	925.77
649.06	919.25
649.41	912.74
649.75	906.37
650.09	899.78
650.43	893.47
650.78	886.67
651.12	880.13
651.46	873.73
651.80	867.48
652.14	861.47
652.49	855.50
652.83	849.84
653.17	843.69
653.51	837.60
653.85	831.62
654.20	825.41
654.54	818.83
654.88	812.42
655.22	805.94
655.56	799.66
655.90	793.64
656.25	787.84
656.59	781.95
656.93	776.32
657.27	770.73
657.61	764.74
657.95	759.26
658.29	753.73
658.64	747.95
658.98	742.12
659.32	736.18
659.66	730.50
660.00	724.75
660.34	719.27
660.68	713.82
661.02	708.34
661.36	703.18
661.70	698.24
662.05	693.56
662.39	688.89
662.73	684.03
663.07	679.22
663.41	674.35
663.75	669.44
664.09	664.38
664.43	659.62
664.77	655.20
665.11	650.53
665.45	646.02
665.79	641.62
666.13	637.16
666.47	632.76
666.81	628.28
667.15	623.67
667.49	619.42
667.83	615.18
668.17	610.87
668.51	606.40
668.85	602.04
669.19	597.74
669.53	593.56
669.87	589.41
670.21	585.32
670.55	581.35
670.89	577.58
671.23	573.87
671.57	569.95
671.91	566.10
672.25	562.22
672.58	558.39
672.92	554.70
673.26	551.27
673.60	547.73
673.94	544.32
674.28	541.20
674.62	537.99
674.96	534.70
675.30	531.54
675.64	528.46
675.97	525.39
676.31	522.36
676.65	519.20
676.99	516.19
677.33	513.10
677.67	509.99
678.01	506.72
678.34	503.43
678.68	500.33
679.02	497.25
679.36	494.25
679.70	491.26
680.04	488.28
680.37	485.18
680.71	482.17
681.05	479.25
681.39	476.28
681.73	473.34
682.06	470.57
682.40	467.84
682.74	465.04
683.08	462.22
683.42	459.35
683.75	456.59
684.09	453.78
684.43	451.04
684.77	448.35
685.10	445.80
685.44	443.27
685.78	440.78
686.12	438.27
686.45	435.75
686.79	433.29
687.13	430.84
687.46	428.42
687.80	426.01
688.14	423.55
688.48	421.30
688.81	418.91
689.15	416.52
689.49	414.09
689.82	411.79
690.16	409.52
690.50	407.31
690.83	405.16
691.17	402.95
691.51	400.85
691.84	398.79
692.18	396.69
692.52	394.60
692.85	392.44
693.19	390.40
693.52	388.29
693.86	386.23
694.20	384.24
694.53	382.27
694.87	380.29
695.21	378.35
695.54	376.32
695.88	374.41
696.21	372.55
696.55	370.70
696.88	368.79
697.22	366.92
697.56	365.12
697.89	363.32
698.23	361.60
698.56	359.85
698.90	358.11
699.23	356.32
699.57	354.59
699.90	352.90
700.24	351.16
700.58	349.56
700.91	347.96
701.25	346.36
701.58	344.84
701.92	343.31
702.25	341.79
702.59	340.26
702.92	338.81
703.26	337.35
703.59	335.98
703.93	334.71
704.26	333.45
704.60	332.09
704.93	330.68
705.26	329.32
705.60	328.02
705.93	326.75
706.27	325.57
706.60	324.42
706.94	323.22
707.27	322.03
707.61	320.88
707.94	319.75
708.27	318.54
708.61	317.36
708.94	316.23
709.28	315.13
709.61	314.09
709.94	313.02
710.28	311.92
710.61	310.83
710.95	309.64
711.28	308.57
711.61	307.52
711.95	306.49
712.28	305.47
712.61	304.39
712.95	303.36
713.28	302.41
713.61	301.38
713.95	300.43
714.28	299.50
714.61	298.55
714.95	297.61
715.28	296.69
715.61	295.73
715.95	294.82
716.28	293.88
716.61	293.00
716.95	292.04
717.28	291.21
717.61	290.36
717.94	289.58
718.28	288.70
718.61	287.87
718.94	287.13
719.27	286.39
719.61	285.70
719.94	284.98
720.27	284.19
720.60	283.48
720.94	282.79
721.27	282.10
721.60	281.46
721.93	280.79
722.27	280.17
722.60	279.54
722.93	278.89
723.26	278.30
723.59	277.66
723.93	277.08
724.26	276.46
724.59	275.83
724.92	275.21
725.25	274.66
725.59	274.07
725.92	273.46
726.25	272.84
726.58	272.28
726.91	271.73
727.24	271.20
727.57	270.67
727.91	270.09
728.24	269.56
728.57	268.99
728.90	268.47
729.23	267.91
729.56	267.44
729.89	266.91
730.22	266.39
730.55	265.81
730.89	265.29
731.22	264.80
731.55	264.33
731.88	263.84
732.21	263.36
732.54	262.92
732.87	262.49
733.20	262.07
733.53	261.60
733.86	261.16
734.19	260.73
734.52	260.31
734.85	259.96
735.18	259.53
735.51	259.14
735.84	258.72
736.17	258.34
736.50	257.90
736.83	257.66
737.16	257.28
737.49	256.99
737.82	256.60
738.15	256.24
738.48	255.84
738.81	255.50
739.14	255.12
739.47	254.75
739.80	254.42
740.13	254.13
740.46	253.80
740.79	253.46
741.12	253.09
741.45	252.77
741.78	252.39
742.11	252.09
742.44	251.74
742.77	251.44
743.10	251.10
743.43	250.77
743.75	250.34
744.08	250.17
744.41	249.85
744.74	249.60
745.07	249.31
745.40	249.07
745.73	248.81
746.06	248.49
746.39	248.24
746.71	247.90
747.04	247.55
747.37	247.27
747.70	246.99
748.03	246.71
748.36	246.45
748.68	246.16
749.01	245.87
749.34	245.64
749.67	245.40
750.00	245.17
750.33	244.99
750.65	244.76
750.98	244.41
751.31	244.16
751.64	243.93
751.97	243.74
752.29	243.49
752.62	243.20
752.95	242.99
753.28	242.73
753.60	242.52
753.93	242.34
754.26	242.14
754.59	241.91
754.91	241.73
755.24	241.50
755.57	241.31
755.90	241.12
756.22	240.89
756.55	240.67
756.88	240.45
757.20	240.22
757.53	240.01
757.86	239.81
758.19	239.67
758.51	239.47
758.84	239.22
759.17	239.04
759.49	238.90
759.82	238.78
760.15	238.60
760.47	238.45
760.80	238.27
761.13	238.09
761.45	237.93
761.78	237.77
762.11	237.63
762.43	237.47
762.76	237.34
763.08	237.21
763.41	237.08
763.74	236.95
764.06	236.73
764.39	236.55
764.71	236.37
765.04	236.16
765.37	236.00
765.69	235.88
766.02	235.71
766.34	235.59
766.67	235.41
767.00	235.29
767.32	235.23
767.65	235.13
767.97	235.02
768.30	234.90
768.62	234.77
768.95	234.61
769.27	234.47
769.60	234.34
769.92	234.23
770.25	234.06
770.57	233.92
770.90	233.84
771.22	233.78
771.55	233.65
771.87	233.56
772.20	233.42
772.52	233.41
772.85	233.41
773.17	233.28
773.50	233.17
773.82	233.06
774.15	232.88
774.47	232.74
774.80	232.60
775.12	232.50
775.45	232.34
775.77	232.25
776.09	232.17
776.42	232.10
776.74	231.98
777.07	231.90
777.39	231.82
777.72	231.71
778.04	231.60
778.36	231.53
778.69	231.49
779.01	231.44
779.33	231.26
779.66	231.11
779.98	231.01
780.31	230.96
780.63	230.90
780.95	230.85
781.28	230.78
781.60	230.72
781.92	230.67
782.25	230.63
782.57	230.55
782.89	230.49
783.22	230.39
783.54	230.35
783.86	230.30
784.19	230.21
784.51	230.19
784.83	230.14
785.16	230.09
785.48	229.99
785.80	229.95
786.12	229.91
786.45	229.86
786.77	229.84
787.09	229.77
787.42	229.74
787.74	229.70
788.06	229.65
788.38	229.61
788.71	229.52
789.03	229.49
789.35	229.47
789.67	229.40
789.99	229.37
790.32	229.31
790.64	229.30
790.96	229.35
791.28	229.30
791.61	229.27
791.93	229.25
792.25	229.26
792.57	229.30
792.89	229.21
793.21	229.18
793.54	229.12
793.86	229.08
794.18	229.02
794.50	228.97
794.82	228.93
795.14	228.88
795.47	228.91
795.79	228.89
796.11	228.85
796.43	228.82
796.75	228.79
797.07	228.75
797.39	228.71
797.71	228.62
798.04	228.58
798.36	228.56
798.68	228.55
799.00	228.47
799.32	228.35
799.64	228.37
799.96	228.34
800.28	228.32
800.60	228.26
800.92	228.22
801.24	228.18
801.56	228.18
801.89	228.15
802.21	228.11
802.53	228.06
802.85	228.04
803.17	228.06
803.49	228.01
803.81	227.97
804.13	227.93
804.45	227.87
804.77	227.84
805.09	227.79
805.41	227.73
805.73	227.70
806.05	227.69
806.37	227.65
806.69	227.60
807.01	227.55
807.33	227.55
807.65	227.48
807.97	227.53
808.28	227.45
808.60	227.42
808.92	227.37
809.24	227.38
809.56	227.33
809.88	227.28
810.20	227.24
810.52	227.22
810.84	227.15
811.16	227.11
811.48	227.06
811.80	227.04
812.12	227.03
812.43	227.02
812.75	226.98
813.07	226.94
813.39	226.91
813.71	226.89
814.03	226.85
814.35	226.82
814.67	226.71
814.98	226.69
815.30	226.67
815.62	226.65
815.94	226.58
816.26	226.63
816.58	226.54
816.89	226.53
817.21	226.49
817.53	226.49
817.85	226.48
818.17	226.47
818.48	226.42
818.80	226.42
819.12	226.37
819.44	226.31
819.76	226.28
820.07	226.25
820.39	226.23
820.71	226.22
821.03	226.22
821.34	226.23
821.66	226.24
821.98	226.22
822.30	226.18
822.61	226.20
822.93	226.12
823.25	226.12
823.57	226.09
823.88	226.13
824.20	226.10
824.52	226.09
824.83	226.08
825.15	226.06
825.47	226.04
825.79	226.06
826.10	226.09
826.42	226.08
826.74	226.09
827.05	226.07
827.37	226.10
827.69	226.08
828.00	226.06
828.32	226.03
828.64	226.01
828.95	226.05
829.27	226.01
829.58	226.01
829.90	226.04
830.22	226.04
830.53	225.97
830.85	225.96
831.17	225.95
831.48	225.95
831.80	225.96
832.11	225.91
832.43	225.88
832.75	225.83
833.06	225.87
833.38	225.87
833.69	225.85
834.01	225.83
834.32	225.83
834.64	225.81
834.96	225.82
835.27	225.81
835.59	225.79
835.90	225.75
836.22	225.78
836.53	225.74
836.85	225.74
837.16	225.87
837.48	225.86
837.79	225.86
838.11	225.84
838.42	225.83
838.74	225.89
839.05	225.88
839.37	225.90
839.68	225.84
840.00	225.82
840.31	225.85
840.63	225.83
840.94	225.82
841.26	225.82
841.57	225.81
841.88	225.83
842.20	225.81
842.51	225.82
842.83	225.77
843.14	225.86
843.46	225.86
843.77	225.81
844.08	225.80
844.40	225.79
844.71	225.81
845.03	225.81
845.34	225.77
845.65	225.76
845.97	225.74
846.28	225.72
846.60	225.73
846.91	225.70
847.22	225.67
847.54	225.67
847.85	225.67
848.16	225.66
848.48	225.63
848.79	225.66
849.10	225.66
849.42	225.64
849.73	225.54
850.04	225.52
850.36	225.48
850.67	225.51
850.98	225.52
851.30	225.48
851.61	225.43
851.92	225.42
852.23	225.43
852.55	225.40
852.86	225.42
853.17	225.41
853.49	225.42
853.80	225.42
854.11	225.44
854.42	225.43
854.74	225.37
855.05	225.38
855.36	225.32
855.67	225.29
855.99	225.31
856.30	225.41
856.61	225.41
856.92	225.38
857.23	225.35
857.55	225.28
857.86	225.29
858.17	225.30
858.48	225.27
858.79	225.21
859.11	225.23
859.42	225.22
859.73	225.21
860.04	225.17
860.35	225.14
860.66	225.09
860.98	225.08
861.29	225.13
861.60	225.09
861.91	225.10
862.22	225.08
862.53	225.02
862.84	224.87
863.16	224.87
863.47	224.86
863.78	224.87
864.09	224.89
864.40	224.87
864.71	224.84
865.02	224.83
865.33	224.86
865.64	224.83
865.95	224.82
866.27	224.88
866.58	224.86
866.89	224.89
867.20	224.87
867.51	224.84
867.82	224.82
868.13	224.87
868.44	224.85
868.75	224.90
869.06	224.93
869.37	224.98
869.68	224.97
869.99	224.95
870.30	224.95
870.61	224.99
870.92	224.99
871.23	225.01
871.54	225.07
871.85	225.10
872.16	225.14
872.47	225.10
872.78	225.06
873.09	225.11
873.40	225.11
873.71	225.14
874.02	225.16
874.33	225.18
874.64	225.15
874.95	225.19
875.26	225.15
875.56	225.14
875.87	225.10
876.18	225.10
876.49	225.22
876.80	225.23
877.11	225.21
877.42	225.20
877.73	225.19
878.04	225.16
878.35	225.16
878.66	225.18
878.96	225.20
879.27	225.21
879.58	225.18
879.89	225.18
880.20	225.21
880.51	225.20
880.82	225.17
881.12	225.15
881.43	225.12
881.74	225.11
882.05	225.10
882.36	225.14
882.67	225.15
882.97	225.05
883.28	225.01
883.59	224.99
883.90	225.01
884.21	225.06
884.51	225.08
884.82	225.07
885.13	225.06
885.44	225.05
885.74	225.00
886.05	225.02
886.36	224.99
886.67	224.95
886.98	225.00
887.28	225.02
887.59	225.04
887.90	225.05
888.20	225.04
888.51	225.05
888.82	225.00
889.13	224.99
889.43	225.06
889.74	225.08
890.05	225.09
890.35	225.10
890.66	225.08
890.97	225.03
891.28	225.02
891.58	224.99
891.89	225.00
892.20	224.98
892.50	224.96
892.81	224.96
893.12	224.95
893.42	224.89
893.73	224.90
894.04	224.91
894.34	224.87
894.65	224.89
894.95	224.89
895.26	224.91
895.57	224.95
895.87	224.83
896.18	224.80
896.48	224.77
896.79	224.74
897.10	224.76
897.40	224.74
897.71	224.73
898.01	224.74
898.32	224.74
898.63	224.74
898.93	224.77
899.24	224.78
899.54	224.77
899.85	224.79
900.15	224.76
900.46	224.74
900.76	224.78
901.07	224.76
901.38	224.75
901.68	224.75
901.99	224.71
902.29	224.74
902.60	224.75
902.90	224.75
903.21	224.75
903.51	224.73
903.82	224.74
904.12	224.75
904.43	224.77
904.73	224.75
905.03	224.78
905.34	224.85
905.64	224.85
905.95	224.87
906.25	224.85
906.56	224.87
906.86	224.85
907.17	224.85
907.47	224.86
907.77	224.86
908.08	224.87
908.38	224.89
908.69	224.88
908.99	224.89
909.30	224.94
909.60	224.97
909.90	224.97
910.21	224.97
910.51	224.97
910.81	224.95
911.12	224.98
911.42	224.98
911.73	224.89
912.03	224.91
912.33	224.93
912.64	224.93
912.94	224.93
913.24	224.90
913.55	224.88
913.85	224.88
914.15	224.90
914.46	224.89
914.76	224.85
915.06	224.90
915.37	224.91
915.67	224.85
915.97	224.81
916.27	224.78
916.58	224.82
916.88	224.84
917.18	224.81
917.49	224.84
917.79	224.83
918.09	224.85
918.39	224.86
918.70	224.80
919.00	224.82
919.30	224.84
919.60	224.86
919.91	224.86
920.21	224.87
920.51	224.84
920.81	224.84
921.12	224.86
921.42	224.80
921.72	224.80
922.02	224.80
922.32	224.82
922.63	224.82
922.93	224.82
923.23	224.75
923.53	224.73
923.83	224.66
924.13	224.64
924.44	224.63
924.74	224.61
925.04	224.65
925.34	224.65
925.64	224.59
925.94	224.55
926.24	224.61
926.55	224.59
926.85	224.60
927.15	224.55
927.45	224.53
927.75	224.56
928.05	224.53
928.35	224.52
928.65	224.53
928.95	224.52
929.26	224.46
929.56	224.50
929.86	224.52
930.16	224.52
930.46	224.52
930.76	224.52
931.06	224.48
931.36	224.45
931.66	224.43
931.96	224.46
932.26	224.51
932.56	224.44
932.86	224.45
933.16	224.46
933.46	224.47
933.76	224.43
934.06	224.43
934.36	224.49
934.66	224.47
934.96	224.46
935.26	224.47
935.56	224.51
935.86	224.47
936.16	224.44
936.46	224.43
936.76	224.43
937.06	224.40
937.36	224.40
937.66	224.39
937.96	224.37
938.26	224.35
938.56	224.34
938.86	224.35
939.16	224.35
939.46	224.35
939.76	224.36
940.06	224.41
940.35	224.42
940.65	224.31
940.95	224.35
941.25	224.31
941.55	224.31
941.85	224.32
942.15	224.34
942.45	224.40
942.75	224.39
943.04	224.41
943.34	224.42
943.64	224.46
943.94	224.43
944.24	224.44
944.54	224.47
944.84	224.44
945.13	224.43
945.43	224.44
945.73	224.46
946.03	224.43
946.33	224.44
946.62	224.43
946.92	224.46
947.22	224.48
947.52	224.50
947.82	224.49
948.11	224.48
948.41	224.46
948.71	224.45
949.01	224.49
949.31	224.47
949.60	224.48
949.90	224.47
950.20	224.51
950.50	224.53
950.79	224.49
951.09	224.53
951.39	224.52
951.69	224.51
951.98	224.53
952.28	224.55
952.58	224.51
952.87	224.50
953.17	224.54
953.47	224.49
953.76	224.51
954.06	224.52
954.36	224.53
954.66	224.54
954.95	224.56
955.25	224.55
955.55	224.57
955.84	224.55
956.14	224.56
956.44	224.57
956.73	224.54
957.03	224.59
957.32	224.56
957.62	224.57
957.92	224.58
958.21	224.54
958.51	224.66
958.81	224.70
959.10	224.69
959.40	224.69
959.69	224.69
959.99	224.72
960.29	224.71
960.58	224.67
960.88	224.72
961.17	224.69
961.47	224.68
961.76	224.67
962.06	224.70
962.36	224.70
962.65	224.71
962.95	224.72
963.24	224.70
963.54	224.68
963.83	224.69
964.13	224.67
964.42	224.65
964.72	224.54
965.01	224.53
965.31	224.53
965.60	224.54
965.90	224.58
966.19	224.53
966.49	224.53
966.78	224.54
967.08	224.50
967.37	224.49
967.67	224.48
967.96	224.46
968.26	224.42
968.55	224.42
968.85	224.37
969.14	224.35
969.43	224.34
969.73	224.32
970.02	224.27
970.32	224.26
970.61	224.29
970.91	224.28
971.20	224.23
971.49	224.25
971.79	224.23
972.08	224.19
972.38	224.21
972.67	224.20
972.96	224.21
973.26	224.20
973.55	224.21
973.85	224.21
974.14	224.20
974.43	224.21
974.73	224.21
975.02	224.23
975.31	224.25
975.61	224.26
975.90	224.25
976.19	224.26
976.49	224.27
976.78	224.27
977.07	224.28
977.37	224.30
977.66	224.27
977.95	224.24
978.24	224.26
978.54	224.29
978.83	224.29
979.12	224.29
979.42	224.30
979.71	224.29
980.00	224.29
980.29	224.30
980.59	224.32
980.88	224.32
981.17	224.32
981.46	224.31
981.76	224.32
982.05	224.39
982.34	224.44
982.63	224.48
982.93	224.46
983.22	224.51
983.51	224.52
983.80	224.57
984.09	224.58
984.39	224.57
984.68	224.56
984.97	224.58
985.26	224.59
985.55	224.60
985.85	224.59
986.14	224.61
986.43	224.65
986.72	224.65
987.01	224.64
987.30	224.64
987.59	224.63
987.89	224.66
988.18	224.63
988.47	224.64
988.76	224.62
989.05	224.65
989.34	224.62
989.63	224.64
989.92	224.62
990.22	224.61
990.51	224.62
990.80	224.60
991.09	224.60
991.38	224.60
991.67	224.56
991.96	224.56
992.25	224.55
992.54	224.51
992.83	224.49
993.12	224.45
993.41	224.48
993.70	224.53
993.99	224.52
994.28	224.54
994.58	224.51
994.87	224.50
995.16	224.46
995.45	224.43
995.74	224.38
996.03	224.40
996.32	224.46
996.61	224.48
996.90	224.49
997.19	224.48
997.48	224.48
997.77	224.51
998.06	224.50
998.34	224.49
998.63	224.48
998.92	224.48
999.21	224.52
999.50	224.51
999.79	224.48
1000.08	224.45
1000.37	224.46
1000.66	224.45
1000.95	224.44
1001.24	224.41
1001.53	224.44
1001.82	224.45
1002.11	224.40
1002.40	224.39
1002.68	224.41
1002.97	224.42
1003.26	224.38
1003.55	224.34
1003.84	224.36
1004.13	224.42
1004.42	224.40
1004.71	224.41
1004.99	224.42
1005.28	224.44
1005.57	224.44
1005.86	224.38
1006.15	224.39
1006.44	224.36
1006.72	224.36
1007.01	224.36
1007.30	224.38
1007.59	224.36
1007.88	224.35
1008.17	224.36
1008.45	224.30
1008.74	224.26
1009.03	224.27
1009.32	224.29
1009.60	224.30
1009.89	224.28
1010.18	224.20
1010.47	224.24
1010.76	224.22
1011.04	224.24
1011.33	224.26
1011.62	224.29
1011.91	224.31
1012.19	224.31
1012.48	224.31
1012.77	224.32
1013.05	224.37
1013.34	224.39
1013.63	224.39
1013.92	224.41
1014.20	224.40
1014.49	224.39
1014.78	224.38
1015.06	224.35
1015.35	224.34
1015.64	224.37
1015.92	224.40
1016.21	224.44
1016.50	224.44
1016.78	224.43
1017.07	224.40
1017.36	224.34
1017.64	224.31
1017.93	224.32
1018.22	224.34
1018.50	224.37
1018.79	224.35
1019.08	224.31
1019.36	224.32
1019.65	224.30
1019.93	224.34
1020.22	224.38
1020.51	224.45
1020.79	224.45
1021.08	224.80
1021.36	224.47
1021.65	224.30
1021.94	224.29
1022.22	224.62
1022.51	224.09
1022.79	224.99
1023.08	224.80
1023.36	225.16
1023.65	224.15
>>>>>End Processed Spectral Data<<<<<
