SpectraSuite Data File
++++++++++++++++++++++++++++++++++++
Date: Fri Feb 01 17:41:56 EST 2013
User: group
Dark Spectrum Present: No
Reference Spectrum Present: No
Number of Sampled Component Spectra: 1
Spectrometers: USB2E7196
Integration Time (usec): 35000 (USB2E7196)
Spectra Averaged: 100 (USB2E7196)
Boxcar Smoothing: 10 (USB2E7196)
Correct for Electrical Dark: No (USB2E7196)
Strobe/Lamp Enabled: No (USB2E7196)
Correct for Detector Non-linearity: No (USB2E7196)
Correct for Stray Light: No (USB2E7196)
Number of Pixels in Processed Spectrum: 2048
>>>>>Begin Processed Spectral Data<<<<<
339.09	0.00
339.48	212.02
339.86	213.89
340.24	215.78
340.63	217.05
341.01	219.65
341.39	219.74
341.78	221.18
342.16	222.03
342.54	222.78
342.93	211.02
343.31	221.69
343.69	222.23
344.07	222.70
344.46	223.10
344.84	223.46
345.22	223.71
345.60	223.97
345.99	224.14
346.37	224.31
346.75	224.39
347.13	224.47
347.52	224.57
347.90	224.68
348.28	224.74
348.66	224.79
349.05	224.78
349.43	224.83
349.81	224.90
350.19	224.93
350.57	225.00
350.96	225.07
351.34	225.17
351.72	225.28
352.10	225.38
352.48	225.45
352.87	225.53
353.25	225.60
353.63	225.65
354.01	225.72
354.39	225.74
354.77	225.82
355.15	225.93
355.54	225.95
355.92	225.99
356.30	226.07
356.68	226.22
357.06	226.33
357.44	226.41
357.82	226.48
358.20	226.59
358.58	226.65
358.97	226.73
359.35	226.79
359.73	226.88
360.11	226.91
360.49	227.01
360.87	227.06
361.25	227.13
361.63	227.20
362.01	227.26
362.39	227.32
362.77	227.36
363.15	227.37
363.53	227.42
363.91	227.43
364.29	227.44
364.67	227.36
365.05	227.39
365.43	227.41
365.81	227.42
366.19	227.46
366.57	227.52
366.95	227.48
367.33	227.44
367.71	227.43
368.09	227.46
368.47	227.41
368.85	227.39
369.23	227.38
369.61	227.34
369.99	227.33
370.37	227.32
370.75	227.34
371.13	227.32
371.51	227.30
371.89	227.28
372.27	227.24
372.65	227.23
373.03	227.17
373.41	227.13
373.78	227.09
374.16	226.98
374.54	226.90
374.92	226.83
375.30	226.79
375.68	226.69
376.06	226.65
376.44	226.59
376.82	226.50
377.19	226.43
377.57	226.38
377.95	226.26
378.33	226.19
378.71	226.07
379.09	226.04
379.47	225.99
379.84	225.92
380.22	225.83
380.60	225.74
380.98	225.66
381.36	225.59
381.73	225.49
382.11	225.43
382.49	225.37
382.87	225.32
383.25	225.26
383.62	225.33
384.00	225.22
384.38	225.20
384.76	225.20
385.13	225.18
385.51	225.10
385.89	225.06
386.27	225.03
386.64	225.04
387.02	224.94
387.40	224.84
387.78	224.79
388.15	224.77
388.53	224.72
388.91	224.69
389.29	224.62
389.66	224.57
390.04	224.56
390.42	224.53
390.79	224.51
391.17	224.49
391.55	224.37
391.92	224.38
392.30	224.38
392.68	224.32
393.05	224.31
393.43	224.35
393.81	224.39
394.18	224.36
394.56	224.36
394.94	224.43
395.31	224.44
395.69	224.47
396.06	224.52
396.44	224.57
396.82	224.63
397.19	224.72
397.57	224.77
397.95	224.81
398.32	224.83
398.70	224.92
399.07	225.00
399.45	225.04
399.82	225.07
400.20	225.09
400.58	225.19
400.95	225.21
401.33	225.33
401.70	225.48
402.08	225.61
402.45	225.69
402.83	225.82
403.20	225.95
403.58	226.09
403.95	226.21
404.33	226.30
404.71	226.42
405.08	226.60
405.46	226.75
405.83	226.93
406.21	227.05
406.58	227.21
406.96	227.40
407.33	227.61
407.70	227.86
408.08	228.15
408.45	228.38
408.83	228.62
409.20	228.83
409.58	229.02
409.95	229.27
410.33	229.57
410.70	229.82
411.08	230.13
411.45	230.44
411.82	230.77
412.20	231.20
412.57	231.66
412.95	232.00
413.32	232.47
413.69	232.92
414.07	233.47
414.44	233.99
414.82	234.50
415.19	235.12
415.56	235.70
415.94	236.33
416.31	237.08
416.68	237.82
417.06	238.64
417.43	239.38
417.81	240.27
418.18	241.19
418.55	242.16
418.93	243.21
419.30	244.23
419.67	245.29
420.04	246.37
420.42	247.50
420.79	248.85
421.16	250.16
421.54	251.54
421.91	252.91
422.28	254.36
422.66	255.91
423.03	257.42
423.40	259.01
423.77	260.62
424.15	262.24
424.52	263.93
424.89	265.75
425.26	267.56
425.64	269.20
426.01	271.01
426.38	272.91
426.75	274.83
427.13	276.84
427.50	278.97
427.87	281.15
428.24	283.29
428.61	285.29
428.99	287.53
429.36	289.99
429.73	292.39
430.10	294.74
430.47	297.12
430.85	299.55
431.22	302.15
431.59	304.89
431.96	307.52
432.33	310.40
432.70	313.16
433.08	316.43
433.45	319.51
433.82	322.50
434.19	325.84
434.56	329.06
434.93	332.10
435.30	335.08
435.68	338.45
436.05	341.77
436.42	345.04
436.79	347.99
437.16	351.11
437.53	354.40
437.90	357.65
438.27	360.85
438.64	364.11
439.01	367.09
439.38	369.70
439.75	372.23
440.13	375.14
440.50	377.86
440.87	379.97
441.24	382.20
441.61	384.75
441.98	386.49
442.35	388.59
442.72	390.77
443.09	392.92
443.46	394.05
443.83	394.74
444.20	395.33
444.57	396.30
444.94	396.61
445.31	397.02
445.68	397.42
446.05	397.51
446.42	397.14
446.79	396.68
447.16	396.17
447.53	395.82
447.90	394.47
448.27	393.13
448.64	391.39
449.01	390.13
449.37	387.81
449.74	385.67
450.11	383.10
450.48	380.30
450.85	377.42
451.22	374.98
451.59	372.61
451.96	370.41
452.33	367.40
452.70	364.75
453.07	361.45
453.43	358.12
453.80	354.95
454.17	351.83
454.54	348.89
454.91	345.74
455.28	342.62
455.65	339.74
456.02	336.93
456.38	334.43
456.75	331.33
457.12	328.79
457.49	326.20
457.86	323.69
458.23	321.52
458.59	319.10
458.96	316.67
459.33	314.53
459.70	312.33
460.07	310.56
460.43	308.52
460.80	306.65
461.17	304.96
461.54	303.16
461.91	301.50
462.27	299.82
462.64	298.38
463.01	296.78
463.38	295.28
463.74	293.68
464.11	292.29
464.48	291.09
464.85	289.78
465.21	288.74
465.58	287.64
465.95	286.32
466.32	285.26
466.68	284.20
467.05	283.16
467.42	282.11
467.78	281.00
468.15	279.95
468.52	279.15
468.88	278.13
469.25	277.22
469.62	276.47
469.98	275.61
470.35	274.89
470.72	274.21
471.08	273.47
471.45	272.82
471.82	272.16
472.18	271.44
472.55	270.83
472.92	270.21
473.28	269.69
473.65	269.16
474.02	268.60
474.38	268.18
474.75	267.80
475.11	267.38
475.48	267.06
475.85	266.77
476.21	266.51
476.58	266.30
476.94	266.11
477.31	265.89
477.67	265.73
478.04	265.52
478.41	265.42
478.77	265.42
479.14	265.33
479.50	265.33
479.87	265.38
480.23	265.45
480.60	265.50
480.96	265.58
481.33	265.83
481.69	266.04
482.06	266.20
482.42	266.37
482.79	266.62
483.15	266.94
483.52	267.31
483.88	267.65
484.25	268.01
484.61	268.41
484.98	268.88
485.34	269.45
485.71	270.08
486.07	270.67
486.44	271.22
486.80	271.89
487.17	272.61
487.53	273.44
487.90	274.32
488.26	275.26
488.62	276.28
488.99	277.21
489.35	278.23
489.72	279.36
490.08	280.59
490.44	281.80
490.81	283.18
491.17	284.54
491.54	286.02
491.90	287.58
492.26	289.26
492.63	291.01
492.99	292.80
493.36	294.69
493.72	296.78
494.08	298.88
494.45	301.16
494.81	303.60
495.17	306.07
495.54	308.71
495.90	311.44
496.26	314.19
496.63	317.21
496.99	320.35
497.35	323.67
497.72	327.11
498.08	330.71
498.44	334.41
498.80	338.39
499.17	342.50
499.53	346.74
499.89	351.21
500.26	355.79
500.62	360.53
500.98	365.56
501.34	370.63
501.71	376.06
502.07	381.59
502.43	387.25
502.79	393.10
503.16	399.21
503.52	405.56
503.88	412.03
504.24	418.71
504.60	425.69
504.97	432.89
505.33	440.29
505.69	448.09
506.05	455.93
506.41	463.92
506.78	472.13
507.14	480.64
507.50	489.43
507.86	498.54
508.22	507.84
508.59	517.11
508.95	526.86
509.31	536.73
509.67	546.97
510.03	557.43
510.39	568.06
510.75	578.97
511.12	590.04
511.48	601.49
511.84	613.10
512.20	624.77
512.56	636.81
512.92	649.10
513.28	661.52
513.64	674.23
514.00	687.14
514.37	700.27
514.73	713.58
515.09	726.78
515.45	740.19
515.81	753.86
516.17	768.01
516.53	782.38
516.89	796.79
517.25	811.14
517.61	825.72
517.97	840.44
518.33	855.11
518.69	870.12
519.05	885.34
519.41	900.74
519.77	916.51
520.13	932.23
520.49	947.97
520.85	963.62
521.21	979.44
521.57	995.89
521.93	1011.98
522.29	1028.51
522.65	1045.13
523.01	1061.56
523.37	1078.05
523.73	1094.66
524.09	1110.99
524.45	1127.64
524.81	1144.61
525.17	1161.70
525.53	1178.88
525.89	1196.16
526.25	1213.37
526.61	1230.08
526.97	1247.24
527.33	1264.15
527.68	1281.17
528.04	1297.99
528.40	1315.00
528.76	1332.56
529.12	1349.58
529.48	1366.85
529.84	1383.50
530.20	1400.47
530.56	1417.94
530.91	1435.77
531.27	1452.93
531.63	1469.85
531.99	1486.90
532.35	1503.49
532.71	1520.00
533.07	1536.91
533.42	1553.28
533.78	1569.87
534.14	1586.70
534.50	1602.51
534.86	1618.98
535.21	1634.78
535.57	1651.25
535.93	1667.34
536.29	1682.77
536.65	1698.48
537.00	1713.87
537.36	1729.78
537.72	1745.12
538.08	1760.29
538.44	1774.79
538.79	1789.49
539.15	1803.87
539.51	1818.37
539.87	1833.36
540.22	1847.72
540.58	1862.12
540.94	1876.08
541.29	1889.59
541.65	1903.11
542.01	1917.19
542.37	1930.29
542.72	1943.42
543.08	1956.22
543.44	1969.59
543.79	1981.80
544.15	1993.65
544.51	2006.14
544.87	2017.88
545.22	2029.58
545.58	2040.71
545.94	2051.35
546.29	2062.20
546.65	2073.03
547.01	2083.25
547.36	2092.88
547.72	2102.24
548.07	2111.24
548.43	2120.41
548.79	2129.09
549.14	2137.71
549.50	2145.84
549.86	2154.34
550.21	2162.56
550.57	2170.54
550.92	2178.03
551.28	2185.87
551.64	2193.81
551.99	2201.23
552.35	2208.35
552.70	2215.33
553.06	2222.21
553.41	2229.40
553.77	2236.05
554.13	2242.95
554.48	2249.79
554.84	2256.32
555.19	2262.42
555.55	2268.36
555.90	2273.85
556.26	2280.17
556.61	2285.66
556.97	2291.05
557.32	2296.16
557.68	2301.20
558.03	2306.17
558.39	2310.59
558.74	2316.11
559.10	2320.92
559.45	2325.26
559.81	2330.34
560.16	2334.98
560.52	2339.06
560.87	2343.21
561.23	2346.67
561.58	2350.26
561.94	2353.67
562.29	2356.57
562.64	2360.24
563.00	2363.49
563.35	2367.57
563.71	2371.31
564.06	2375.07
564.42	2378.76
564.77	2382.00
565.12	2385.19
565.48	2387.96
565.83	2390.62
566.19	2392.73
566.54	2394.15
566.89	2396.27
567.25	2397.54
567.60	2399.42
567.96	2401.87
568.31	2403.54
568.66	2405.36
569.02	2406.54
569.37	2407.48
569.72	2408.91
570.08	2409.76
570.43	2410.24
570.78	2410.32
571.14	2409.31
571.49	2408.44
571.84	2408.30
572.20	2407.59
572.55	2406.92
572.90	2405.69
573.26	2404.87
573.61	2403.40
573.96	2402.27
574.31	2399.52
574.67	2396.89
575.02	2393.63
575.37	2390.52
575.72	2386.99
576.08	2383.87
576.43	2380.77
576.78	2377.55
577.13	2374.56
577.49	2371.36
577.84	2368.57
578.19	2364.99
578.54	2361.66
578.90	2357.75
579.25	2352.49
579.60	2347.82
579.95	2343.03
580.30	2338.16
580.66	2333.09
581.01	2328.32
581.36	2323.37
581.71	2319.48
582.06	2315.30
582.42	2311.10
582.77	2305.82
583.12	2301.31
583.47	2297.00
583.82	2292.32
584.17	2287.10
584.53	2281.85
584.88	2276.38
585.23	2270.54
585.58	2265.08
585.93	2259.47
586.28	2254.69
586.63	2249.77
586.98	2244.54
587.34	2239.72
587.69	2234.72
588.04	2229.51
588.39	2223.73
588.74	2217.09
589.09	2210.64
589.44	2203.72
589.79	2197.20
590.14	2191.43
590.49	2184.77
590.84	2177.89
591.19	2171.52
591.54	2164.86
591.89	2157.44
592.25	2150.64
592.60	2143.02
592.95	2135.30
593.30	2127.66
593.65	2119.69
594.00	2112.18
594.35	2104.86
594.70	2096.48
595.05	2089.31
595.40	2081.54
595.75	2073.78
596.10	2067.56
596.45	2060.66
596.80	2054.16
597.15	2047.41
597.50	2040.37
597.85	2033.53
598.19	2026.74
598.54	2019.85
598.89	2012.92
599.24	2006.50
599.59	1999.65
599.94	1993.23
600.29	1986.59
600.64	1979.73
600.99	1972.04
601.34	1965.03
601.69	1957.45
602.04	1950.33
602.39	1942.43
602.74	1935.26
603.08	1928.21
603.43	1920.92
603.78	1913.34
604.13	1905.76
604.48	1898.36
604.83	1891.09
605.18	1883.98
605.53	1875.55
605.87	1866.87
606.22	1859.17
606.57	1850.84
606.92	1842.73
607.27	1835.23
607.62	1827.90
607.96	1820.39
608.31	1813.55
608.66	1805.52
609.01	1797.64
609.36	1789.62
609.70	1781.23
610.05	1772.73
610.40	1764.59
610.75	1755.84
611.10	1747.56
611.44	1738.55
611.79	1729.68
612.14	1720.39
612.49	1710.44
612.83	1701.35
613.18	1692.65
613.53	1683.97
613.88	1674.81
614.22	1666.02
614.57	1656.60
614.92	1647.97
615.27	1639.94
615.61	1631.11
615.96	1622.48
616.31	1614.15
616.65	1606.17
617.00	1598.08
617.35	1589.82
617.70	1580.89
618.04	1571.86
618.39	1562.83
618.74	1554.72
619.08	1545.94
619.43	1537.73
619.78	1530.27
620.12	1522.76
620.47	1514.61
620.82	1505.83
621.16	1497.84
621.51	1489.57
621.85	1481.40
622.20	1472.35
622.55	1463.18
622.89	1454.67
623.24	1446.28
623.59	1438.27
623.93	1430.18
624.28	1422.28
624.62	1414.26
624.97	1406.39
625.32	1398.76
625.66	1391.27
626.01	1383.57
626.35	1375.78
626.70	1367.32
627.04	1359.06
627.39	1350.54
627.73	1342.57
628.08	1335.17
628.43	1327.44
628.77	1319.75
629.12	1311.77
629.46	1303.90
629.81	1295.73
630.15	1287.87
630.50	1280.03
630.84	1271.49
631.19	1262.79
631.53	1254.66
631.88	1246.48
632.22	1238.38
632.57	1230.63
632.91	1222.53
633.26	1214.58
633.60	1206.45
633.95	1198.77
634.29	1191.18
634.64	1183.95
634.98	1175.97
635.32	1168.29
635.67	1161.11
636.01	1153.87
636.36	1146.55
636.70	1139.57
637.05	1132.59
637.39	1125.55
637.73	1118.63
638.08	1112.22
638.42	1105.97
638.77	1099.17
639.11	1092.24
639.45	1085.42
639.80	1078.40
640.14	1071.62
640.49	1064.63
640.83	1057.89
641.17	1051.27
641.52	1044.53
641.86	1037.65
642.20	1031.48
642.55	1024.51
642.89	1017.63
643.23	1010.57
643.58	1004.34
643.92	997.73
644.26	991.47
644.61	984.99
644.95	978.53
645.29	971.54
645.64	964.36
645.98	957.49
646.32	951.02
646.66	944.53
647.01	938.24
647.35	932.19
647.69	925.86
648.04	919.95
648.38	913.84
648.72	907.55
649.06	901.20
649.41	894.79
649.75	888.61
650.09	882.30
650.43	876.13
650.78	869.55
651.12	863.17
651.46	856.95
651.80	851.03
652.14	845.32
652.49	839.65
652.83	834.12
653.17	828.28
653.51	822.22
653.85	816.47
654.20	810.60
654.54	804.23
654.88	798.08
655.22	791.87
655.56	785.69
655.90	779.80
656.25	774.14
656.59	768.46
656.93	762.96
657.27	757.48
657.61	751.70
657.95	746.28
658.29	740.90
658.64	735.24
658.98	729.47
659.32	723.52
659.66	717.96
660.00	712.31
660.34	706.95
660.68	701.75
661.02	696.45
661.36	691.44
661.70	686.67
662.05	682.06
662.39	677.43
662.73	672.81
663.07	668.14
663.41	663.47
663.75	658.73
664.09	653.96
664.43	649.22
664.77	644.93
665.11	640.46
665.45	636.12
665.79	631.91
666.13	627.56
666.47	623.28
666.81	618.91
667.15	614.55
667.49	610.34
667.83	606.22
668.17	601.96
668.51	597.64
668.85	593.31
669.19	589.17
669.53	585.13
669.87	581.03
670.21	577.12
670.55	573.17
670.89	569.52
671.23	565.87
671.57	562.13
671.91	558.35
672.25	554.59
672.58	550.82
672.92	547.08
673.26	543.63
673.60	540.22
673.94	536.88
674.28	533.76
674.62	530.67
674.96	527.45
675.30	524.38
675.64	521.25
675.97	518.29
676.31	515.23
676.65	512.11
676.99	509.16
677.33	506.06
677.67	503.06
678.01	499.83
678.34	496.68
678.68	493.63
679.02	490.54
679.36	487.59
679.70	484.66
680.04	481.75
680.37	478.84
680.71	475.86
681.05	472.99
681.39	470.08
681.73	467.17
682.06	464.45
682.40	461.72
682.74	459.01
683.08	456.26
683.42	453.51
683.75	450.76
684.09	448.02
684.43	445.35
684.77	442.78
685.10	440.27
685.44	437.78
685.78	435.27
686.12	432.83
686.45	430.36
686.79	427.87
687.13	425.53
687.46	423.13
687.80	420.77
688.14	418.38
688.48	416.17
688.81	413.84
689.15	411.51
689.49	409.18
689.82	406.91
690.16	404.64
690.50	402.53
690.83	400.52
691.17	398.40
691.51	396.36
691.84	394.33
692.18	392.24
692.52	390.16
692.85	388.10
693.19	386.13
693.52	384.19
693.86	382.28
694.20	380.31
694.53	378.40
694.87	376.45
695.21	374.58
695.54	372.56
695.88	370.70
696.21	368.86
696.55	367.06
696.88	365.22
697.22	363.42
697.56	361.62
697.89	359.82
698.23	358.12
698.56	356.44
698.90	354.82
699.23	353.13
699.57	351.48
699.90	349.84
700.24	348.17
700.58	346.51
700.91	344.91
701.25	343.42
701.58	341.97
701.92	340.54
702.25	339.03
702.59	337.62
702.92	336.21
703.26	334.80
703.59	333.48
703.93	332.27
704.26	331.00
704.60	329.67
704.93	328.34
705.26	326.96
705.60	325.66
705.93	324.36
706.27	323.24
706.60	322.12
706.94	320.96
707.27	319.78
707.61	318.64
707.94	317.55
708.27	316.39
708.61	315.20
708.94	314.10
709.28	313.06
709.61	312.06
709.94	311.02
710.28	309.99
710.61	308.90
710.95	307.74
711.28	306.75
711.61	305.76
711.95	304.76
712.28	303.79
712.61	302.74
712.95	301.69
713.28	300.68
713.61	299.68
713.95	298.71
714.28	297.81
714.61	296.89
714.95	295.95
715.28	295.03
715.61	294.11
715.95	293.18
716.28	292.31
716.61	291.39
716.95	290.50
717.28	289.65
717.61	288.87
717.94	288.05
718.28	287.21
718.61	286.42
718.94	285.64
719.27	284.92
719.61	284.23
719.94	283.53
720.27	282.76
720.60	282.04
720.94	281.38
721.27	280.71
721.60	280.05
721.93	279.45
722.27	278.83
722.60	278.27
722.93	277.68
723.26	277.08
723.59	276.46
723.93	275.88
724.26	275.27
724.59	274.61
724.92	274.05
725.25	273.46
725.59	272.89
725.92	272.36
726.25	271.79
726.58	271.25
726.91	270.73
727.24	270.24
727.57	269.71
727.91	269.14
728.24	268.62
728.57	268.11
728.90	267.59
729.23	267.04
729.56	266.54
729.89	265.97
730.22	265.40
730.55	264.90
730.89	264.39
731.22	263.91
731.55	263.48
731.88	263.03
732.21	262.60
732.54	262.13
732.87	261.66
733.20	261.21
733.53	260.76
733.86	260.33
734.19	259.89
734.52	259.50
734.85	259.16
735.18	258.71
735.51	258.35
735.84	257.92
736.17	257.54
736.50	257.06
736.83	256.85
737.16	256.53
737.49	256.19
737.82	255.86
738.15	255.50
738.48	255.12
738.81	254.76
739.14	254.39
739.47	254.03
739.80	253.68
740.13	253.36
740.46	253.01
740.79	252.64
741.12	252.30
741.45	251.94
741.78	251.61
742.11	251.29
742.44	250.92
742.77	250.62
743.10	250.34
743.43	250.08
743.75	249.66
744.08	249.47
744.41	249.14
744.74	248.87
745.07	248.58
745.40	248.30
745.73	248.06
746.06	247.76
746.39	247.50
746.71	247.25
747.04	246.96
747.37	246.71
747.70	246.48
748.03	246.24
748.36	246.02
748.68	245.76
749.01	245.53
749.34	245.31
749.67	245.09
750.00	244.85
750.33	244.71
750.65	244.47
750.98	244.11
751.31	243.92
751.64	243.67
751.97	243.52
752.29	243.31
752.62	243.02
752.95	242.81
753.28	242.59
753.60	242.35
753.93	242.19
754.26	241.96
754.59	241.73
754.91	241.47
755.24	241.26
755.57	241.06
755.90	240.86
756.22	240.64
756.55	240.41
756.88	240.18
757.20	239.90
757.53	239.71
757.86	239.59
758.19	239.37
758.51	239.18
758.84	238.95
759.17	238.73
759.49	238.57
759.82	238.45
760.15	238.29
760.47	238.15
760.80	237.91
761.13	237.81
761.45	237.64
761.78	237.53
762.11	237.35
762.43	237.17
762.76	236.98
763.08	236.85
763.41	236.71
763.74	236.55
764.06	236.40
764.39	236.27
764.71	236.06
765.04	235.91
765.37	235.81
765.69	235.67
766.02	235.56
766.34	235.42
766.67	235.21
767.00	235.08
767.32	235.02
767.65	234.99
767.97	234.83
768.30	234.72
768.62	234.57
768.95	234.43
769.27	234.33
769.60	234.22
769.92	234.04
770.25	233.92
770.57	233.79
770.90	233.65
771.22	233.52
771.55	233.43
771.87	233.33
772.20	233.18
772.52	233.13
772.85	233.09
773.17	233.01
773.50	232.90
773.82	232.78
774.15	232.63
774.47	232.45
774.80	232.36
775.12	232.25
775.45	232.17
775.77	232.11
776.09	232.03
776.42	231.98
776.74	231.98
777.07	231.92
777.39	231.88
777.72	231.78
778.04	231.73
778.36	231.64
778.69	231.56
779.01	231.50
779.33	231.36
779.66	231.23
779.98	231.16
780.31	231.12
780.63	231.13
780.95	231.06
781.28	231.04
781.60	230.96
781.92	230.90
782.25	230.85
782.57	230.77
782.89	230.74
783.22	230.66
783.54	230.55
783.86	230.49
784.19	230.41
784.51	230.40
784.83	230.34
785.16	230.26
785.48	230.25
785.80	230.17
786.12	230.11
786.45	230.05
786.77	230.00
787.09	229.93
787.42	229.84
787.74	229.79
788.06	229.70
788.38	229.65
788.71	229.62
789.03	229.60
789.35	229.59
789.67	229.52
789.99	229.47
790.32	229.43
790.64	229.40
790.96	229.44
791.28	229.39
791.61	229.33
791.93	229.29
792.25	229.25
792.57	229.29
792.89	229.27
793.21	229.24
793.54	229.18
793.86	229.13
794.18	229.08
794.50	229.05
794.82	229.00
795.14	228.97
795.47	228.90
795.79	228.84
796.11	228.77
796.43	228.73
796.75	228.70
797.07	228.68
797.39	228.61
797.71	228.50
798.04	228.44
798.36	228.43
798.68	228.41
799.00	228.34
799.32	228.28
799.64	228.26
799.96	228.20
800.28	228.24
800.60	228.22
800.92	228.20
801.24	228.15
801.56	228.13
801.89	228.08
802.21	228.10
802.53	228.06
802.85	228.05
803.17	228.08
803.49	228.03
803.81	227.97
804.13	227.92
804.45	227.90
804.77	227.89
805.09	227.86
805.41	227.81
805.73	227.80
806.05	227.72
806.37	227.67
806.69	227.64
807.01	227.57
807.33	227.54
807.65	227.47
807.97	227.49
808.28	227.45
808.60	227.44
808.92	227.35
809.24	227.36
809.56	227.28
809.88	227.19
810.20	227.14
810.52	227.18
810.84	227.17
811.16	227.11
811.48	227.06
811.80	227.07
812.12	227.07
812.43	227.04
812.75	227.05
813.07	227.01
813.39	226.99
813.71	226.96
814.03	226.95
814.35	226.93
814.67	226.90
814.98	226.88
815.30	226.86
815.62	226.82
815.94	226.74
816.26	226.79
816.58	226.77
816.89	226.79
817.21	226.72
817.53	226.69
817.85	226.70
818.17	226.70
818.48	226.65
818.80	226.64
819.12	226.63
819.44	226.59
819.76	226.59
820.07	226.57
820.39	226.54
820.71	226.52
821.03	226.52
821.34	226.48
821.66	226.47
821.98	226.46
822.30	226.51
822.61	226.57
822.93	226.52
823.25	226.48
823.57	226.46
823.88	226.49
824.20	226.48
824.52	226.48
824.83	226.47
825.15	226.43
825.47	226.41
825.79	226.40
826.10	226.39
826.42	226.37
826.74	226.39
827.05	226.38
827.37	226.36
827.69	226.34
828.00	226.34
828.32	226.35
828.64	226.32
828.95	226.33
829.27	226.28
829.58	226.28
829.90	226.26
830.22	226.28
830.53	226.23
830.85	226.21
831.17	226.15
831.48	226.13
831.80	226.11
832.11	226.06
832.43	226.02
832.75	226.02
833.06	226.02
833.38	225.94
833.69	225.90
834.01	225.89
834.32	225.89
834.64	225.87
834.96	225.84
835.27	225.83
835.59	225.83
835.90	225.81
836.22	225.78
836.53	225.78
836.85	225.74
837.16	225.79
837.48	225.78
837.79	225.80
838.11	225.80
838.42	225.78
838.74	225.80
839.05	225.79
839.37	225.81
839.68	225.75
840.00	225.78
840.31	225.79
840.63	225.75
840.94	225.69
841.26	225.65
841.57	225.63
841.88	225.60
842.20	225.55
842.51	225.54
842.83	225.51
843.14	225.57
843.46	225.55
843.77	225.50
844.08	225.51
844.40	225.46
844.71	225.45
845.03	225.45
845.34	225.44
845.65	225.44
845.97	225.37
846.28	225.40
846.60	225.38
846.91	225.41
847.22	225.43
847.54	225.46
847.85	225.45
848.16	225.44
848.48	225.41
848.79	225.42
849.10	225.43
849.42	225.42
849.73	225.37
850.04	225.40
850.36	225.35
850.67	225.36
850.98	225.37
851.30	225.40
851.61	225.42
851.92	225.43
852.23	225.47
852.55	225.50
852.86	225.48
853.17	225.50
853.49	225.51
853.80	225.52
854.11	225.55
854.42	225.60
854.74	225.56
855.05	225.58
855.36	225.54
855.67	225.51
855.99	225.52
856.30	225.63
856.61	225.59
856.92	225.59
857.23	225.61
857.55	225.61
857.86	225.58
858.17	225.58
858.48	225.54
858.79	225.51
859.11	225.51
859.42	225.55
859.73	225.55
860.04	225.53
860.35	225.52
860.66	225.50
860.98	225.49
861.29	225.53
861.60	225.58
861.91	225.59
862.22	225.59
862.53	225.59
862.84	225.48
863.16	225.51
863.47	225.50
863.78	225.49
864.09	225.51
864.40	225.53
864.71	225.52
865.02	225.54
865.33	225.51
865.64	225.51
865.95	225.49
866.27	225.54
866.58	225.53
866.89	225.52
867.20	225.49
867.51	225.49
867.82	225.49
868.13	225.50
868.44	225.48
868.75	225.50
869.06	225.47
869.37	225.48
869.68	225.47
869.99	225.50
870.30	225.51
870.61	225.50
870.92	225.47
871.23	225.44
871.54	225.46
871.85	225.49
872.16	225.47
872.47	225.48
872.78	225.42
873.09	225.42
873.40	225.38
873.71	225.39
874.02	225.36
874.33	225.33
874.64	225.30
874.95	225.33
875.26	225.30
875.56	225.30
875.87	225.28
876.18	225.25
876.49	225.33
876.80	225.32
877.11	225.26
877.42	225.27
877.73	225.29
878.04	225.25
878.35	225.23
878.66	225.24
878.96	225.18
879.27	225.14
879.58	225.14
879.89	225.15
880.20	225.18
880.51	225.17
880.82	225.17
881.12	225.16
881.43	225.15
881.74	225.13
882.05	225.14
882.36	225.11
882.67	225.10
882.97	224.99
883.28	224.94
883.59	224.93
883.90	224.94
884.21	224.97
884.51	224.97
884.82	224.96
885.13	224.95
885.44	224.95
885.74	224.99
886.05	224.96
886.36	224.96
886.67	224.90
886.98	224.95
887.28	224.95
887.59	224.93
887.90	224.91
888.20	224.92
888.51	224.91
888.82	224.91
889.13	224.91
889.43	224.98
889.74	224.99
890.05	225.00
890.35	224.95
890.66	224.90
890.97	224.91
891.28	224.90
891.58	224.90
891.89	224.90
892.20	224.88
892.50	224.89
892.81	224.89
893.12	224.88
893.42	224.81
893.73	224.79
894.04	224.81
894.34	224.83
894.65	224.82
894.95	224.81
895.26	224.80
895.57	224.87
895.87	224.77
896.18	224.78
896.48	224.82
896.79	224.84
897.10	224.85
897.40	224.81
897.71	224.85
898.01	224.81
898.32	224.82
898.63	224.81
898.93	224.83
899.24	224.83
899.54	224.86
899.85	224.90
900.15	224.91
900.46	224.88
900.76	224.88
901.07	224.90
901.38	224.93
901.68	224.98
901.99	224.93
902.29	224.96
902.60	224.95
902.90	224.93
903.21	224.93
903.51	224.95
903.82	225.00
904.12	225.00
904.43	225.04
904.73	225.04
905.03	225.09
905.34	225.16
905.64	225.14
905.95	225.14
906.25	225.11
906.56	225.10
906.86	225.13
907.17	225.13
907.47	225.13
907.77	225.13
908.08	225.08
908.38	225.06
908.69	225.08
908.99	225.14
909.30	225.13
909.60	225.14
909.90	225.14
910.21	225.11
910.51	225.08
910.81	225.09
911.12	225.11
911.42	225.09
911.73	224.98
912.03	225.03
912.33	225.04
912.64	225.06
912.94	225.07
913.24	225.03
913.55	225.02
913.85	225.03
914.15	225.00
914.46	225.04
914.76	225.00
915.06	225.01
915.37	224.98
915.67	224.99
915.97	225.01
916.27	224.97
916.58	224.96
916.88	224.92
917.18	224.93
917.49	224.97
917.79	224.93
918.09	224.96
918.39	224.97
918.70	224.95
919.00	224.91
919.30	224.95
919.60	224.95
919.91	224.94
920.21	224.92
920.51	224.92
920.81	224.90
921.12	224.96
921.42	224.94
921.72	224.96
922.02	224.94
922.32	224.92
922.63	224.96
922.93	225.02
923.23	225.05
923.53	225.03
923.83	224.97
924.13	225.00
924.44	224.97
924.74	224.98
925.04	225.01
925.34	225.02
925.64	224.97
925.94	224.98
926.24	225.03
926.55	225.01
926.85	225.01
927.15	225.03
927.45	225.03
927.75	225.01
928.05	224.98
928.35	225.00
928.65	225.00
928.95	224.98
929.26	224.93
929.56	224.95
929.86	224.93
930.16	224.93
930.46	224.89
930.76	224.94
931.06	224.87
931.36	224.80
931.66	224.80
931.96	224.81
932.26	224.81
932.56	224.79
932.86	224.82
933.16	224.84
933.46	224.83
933.76	224.82
934.06	224.86
934.36	224.91
934.66	224.87
934.96	224.85
935.26	224.87
935.56	224.89
935.86	224.86
936.16	224.85
936.46	224.83
936.76	224.88
937.06	224.82
937.36	224.84
937.66	224.88
937.96	224.90
938.26	224.87
938.56	224.86
938.86	224.84
939.16	224.86
939.46	224.86
939.76	224.85
940.06	224.82
940.35	224.77
940.65	224.71
940.95	224.73
941.25	224.71
941.55	224.68
941.85	224.69
942.15	224.73
942.45	224.77
942.75	224.76
943.04	224.73
943.34	224.77
943.64	224.77
943.94	224.78
944.24	224.76
944.54	224.74
944.84	224.74
945.13	224.72
945.43	224.71
945.73	224.71
946.03	224.66
946.33	224.66
946.62	224.67
946.92	224.65
947.22	224.67
947.52	224.68
947.82	224.67
948.11	224.65
948.41	224.61
948.71	224.57
949.01	224.59
949.31	224.58
949.60	224.58
949.90	224.62
950.20	224.60
950.50	224.62
950.79	224.65
951.09	224.65
951.39	224.68
951.69	224.64
951.98	224.65
952.28	224.67
952.58	224.67
952.87	224.67
953.17	224.67
953.47	224.66
953.76	224.65
954.06	224.65
954.36	224.65
954.66	224.62
954.95	224.63
955.25	224.61
955.55	224.62
955.84	224.60
956.14	224.55
956.44	224.52
956.73	224.49
957.03	224.50
957.32	224.54
957.62	224.52
957.92	224.53
958.21	224.52
958.51	224.62
958.81	224.66
959.10	224.66
959.40	224.69
959.69	224.68
959.99	224.68
960.29	224.70
960.58	224.71
960.88	224.78
961.17	224.78
961.47	224.82
961.76	224.81
962.06	224.82
962.36	224.83
962.65	224.87
962.95	224.84
963.24	224.83
963.54	224.81
963.83	224.82
964.13	224.83
964.42	224.81
964.72	224.75
965.01	224.72
965.31	224.71
965.60	224.70
965.90	224.74
966.19	224.73
966.49	224.73
966.78	224.71
967.08	224.70
967.37	224.72
967.67	224.70
967.96	224.72
968.26	224.75
968.55	224.76
968.85	224.74
969.14	224.77
969.43	224.75
969.73	224.74
970.02	224.76
970.32	224.73
970.61	224.70
970.91	224.68
971.20	224.71
971.49	224.70
971.79	224.71
972.08	224.68
972.38	224.69
972.67	224.67
972.96	224.66
973.26	224.67
973.55	224.68
973.85	224.67
974.14	224.65
974.43	224.62
974.73	224.59
975.02	224.61
975.31	224.62
975.61	224.65
975.90	224.64
976.19	224.59
976.49	224.63
976.78	224.65
977.07	224.66
977.37	224.61
977.66	224.62
977.95	224.61
978.24	224.62
978.54	224.64
978.83	224.65
979.12	224.67
979.42	224.63
979.71	224.61
980.00	224.57
980.29	224.58
980.59	224.56
980.88	224.58
981.17	224.56
981.46	224.54
981.76	224.54
982.05	224.58
982.34	224.62
982.63	224.59
982.93	224.61
983.22	224.63
983.51	224.66
983.80	224.66
984.09	224.68
984.39	224.68
984.68	224.66
984.97	224.66
985.26	224.60
985.55	224.59
985.85	224.53
986.14	224.58
986.43	224.58
986.72	224.60
987.01	224.56
987.30	224.54
987.59	224.51
987.89	224.48
988.18	224.44
988.47	224.41
988.76	224.42
989.05	224.41
989.34	224.36
989.63	224.37
989.92	224.37
990.22	224.34
990.51	224.31
990.80	224.32
991.09	224.31
991.38	224.35
991.67	224.34
991.96	224.37
992.25	224.36
992.54	224.34
992.83	224.31
993.12	224.33
993.41	224.33
993.70	224.39
993.99	224.42
994.28	224.43
994.58	224.48
994.87	224.44
995.16	224.42
995.45	224.45
995.74	224.38
996.03	224.43
996.32	224.44
996.61	224.45
996.90	224.45
997.19	224.45
997.48	224.46
997.77	224.44
998.06	224.48
998.34	224.47
998.63	224.45
998.92	224.46
999.21	224.46
999.50	224.51
999.79	224.48
1000.08	224.47
1000.37	224.49
1000.66	224.45
1000.95	224.50
1001.24	224.51
1001.53	224.53
1001.82	224.56
1002.11	224.50
1002.40	224.53
1002.68	224.56
1002.97	224.62
1003.26	224.61
1003.55	224.60
1003.84	224.65
1004.13	224.65
1004.42	224.65
1004.71	224.67
1004.99	224.65
1005.28	224.69
1005.57	224.66
1005.86	224.66
1006.15	224.64
1006.44	224.65
1006.72	224.67
1007.01	224.65
1007.30	224.68
1007.59	224.66
1007.88	224.65
1008.17	224.65
1008.45	224.64
1008.74	224.61
1009.03	224.56
1009.32	224.56
1009.60	224.52
1009.89	224.50
1010.18	224.45
1010.47	224.45
1010.76	224.43
1011.04	224.46
1011.33	224.52
1011.62	224.53
1011.91	224.52
1012.19	224.54
1012.48	224.52
1012.77	224.49
1013.05	224.52
1013.34	224.47
1013.63	224.48
1013.92	224.51
1014.20	224.50
1014.49	224.50
1014.78	224.50
1015.06	224.46
1015.35	224.50
1015.64	224.54
1015.92	224.56
1016.21	224.57
1016.50	224.57
1016.78	224.62
1017.07	224.61
1017.36	224.50
1017.64	224.50
1017.93	224.50
1018.22	224.46
1018.50	224.47
1018.79	224.48
1019.08	224.44
1019.36	224.46
1019.65	224.44
1019.93	224.46
1020.22	224.50
1020.51	224.54
1020.79	224.53
1021.08	224.18
1021.36	224.49
1021.65	224.51
1021.94	224.36
1022.22	224.58
1022.51	224.22
1022.79	225.10
1023.08	225.02
1023.36	225.79
1023.65	224.25
>>>>>End Processed Spectral Data<<<<<
