SpectraSuite Data File
++++++++++++++++++++++++++++++++++++
Date: Fri Feb 01 14:49:40 EST 2013
User: group
Dark Spectrum Present: No
Reference Spectrum Present: No
Number of Sampled Component Spectra: 1
Spectrometers: USB2E7196
Integration Time (usec): 35000 (USB2E7196)
Spectra Averaged: 100 (USB2E7196)
Boxcar Smoothing: 10 (USB2E7196)
Correct for Electrical Dark: No (USB2E7196)
Strobe/Lamp Enabled: No (USB2E7196)
Correct for Detector Non-linearity: No (USB2E7196)
Correct for Stray Light: No (USB2E7196)
Number of Pixels in Processed Spectrum: 2048
>>>>>Begin Processed Spectral Data<<<<<
339.09	0.00
339.48	215.86
339.86	217.25
340.24	218.81
340.63	220.17
341.01	222.83
341.39	222.39
341.78	223.81
342.16	225.38
342.54	225.54
342.93	214.06
343.31	224.91
343.69	225.44
344.07	225.91
344.46	226.32
344.84	226.69
345.22	226.94
345.60	227.22
345.99	227.43
346.37	227.57
346.75	227.68
347.13	227.77
347.52	227.83
347.90	227.93
348.28	227.97
348.66	227.99
349.05	227.96
349.43	228.00
349.81	228.08
350.19	228.14
350.57	228.17
350.96	228.25
351.34	228.35
351.72	228.45
352.10	228.53
352.48	228.60
352.87	228.66
353.25	228.72
353.63	228.74
354.01	228.80
354.39	228.88
354.77	228.94
355.15	229.01
355.54	229.07
355.92	229.07
356.30	229.15
356.68	229.28
357.06	229.37
357.44	229.40
357.82	229.42
358.20	229.49
358.58	229.56
358.97	229.63
359.35	229.66
359.73	229.72
360.11	229.77
360.49	229.83
360.87	229.86
361.25	229.90
361.63	229.99
362.01	230.04
362.39	230.05
362.77	230.09
363.15	230.10
363.53	230.09
363.91	230.11
364.29	230.09
364.67	230.03
365.05	230.01
365.43	230.01
365.81	230.04
366.19	230.04
366.57	230.06
366.95	230.02
367.33	229.96
367.71	229.91
368.09	229.88
368.47	229.83
368.85	229.80
369.23	229.79
369.61	229.69
369.99	229.66
370.37	229.64
370.75	229.65
371.13	229.58
371.51	229.55
371.89	229.52
372.27	229.46
372.65	229.40
373.03	229.33
373.41	229.26
373.78	229.19
374.16	229.09
374.54	228.98
374.92	228.89
375.30	228.82
375.68	228.74
376.06	228.67
376.44	228.62
376.82	228.55
377.19	228.41
377.57	228.37
377.95	228.28
378.33	228.17
378.71	228.01
379.09	227.96
379.47	227.90
379.84	227.78
380.22	227.70
380.60	227.60
380.98	227.53
381.36	227.48
381.73	227.38
382.11	227.32
382.49	227.26
382.87	227.19
383.25	227.14
383.62	227.19
384.00	227.15
384.38	227.05
384.76	227.00
385.13	227.04
385.51	226.97
385.89	226.92
386.27	226.91
386.64	226.86
387.02	226.81
387.40	226.76
387.78	226.76
388.15	226.71
388.53	226.68
388.91	226.65
389.29	226.61
389.66	226.61
390.04	226.60
390.42	226.62
390.79	226.62
391.17	226.63
391.55	226.53
391.92	226.53
392.30	226.58
392.68	226.61
393.05	226.61
393.43	226.68
393.81	226.70
394.18	226.70
394.56	226.74
394.94	226.80
395.31	226.84
395.69	226.92
396.06	227.00
396.44	227.07
396.82	227.13
397.19	227.25
397.57	227.33
397.95	227.40
398.32	227.43
398.70	227.52
399.07	227.61
399.45	227.70
399.82	227.78
400.20	227.84
400.58	227.92
400.95	227.97
401.33	228.06
401.70	228.23
402.08	228.34
402.45	228.48
402.83	228.62
403.20	228.73
403.58	228.82
403.95	229.01
404.33	229.13
404.71	229.27
405.08	229.50
405.46	229.63
405.83	229.81
406.21	230.02
406.58	230.25
406.96	230.40
407.33	230.59
407.70	230.76
408.08	231.05
408.45	231.30
408.83	231.54
409.20	231.75
409.58	231.94
409.95	232.21
410.33	232.47
410.70	232.72
411.08	233.05
411.45	233.39
411.82	233.70
412.20	234.07
412.57	234.49
412.95	234.74
413.32	235.13
413.69	235.54
414.07	235.93
414.44	236.38
414.82	236.84
415.19	237.37
415.56	237.92
415.94	238.43
416.31	239.01
416.68	239.63
417.06	240.30
417.43	240.98
417.81	241.71
418.18	242.48
418.55	243.30
418.93	244.17
419.30	245.01
419.67	245.89
420.04	246.86
420.42	247.82
420.79	248.98
421.16	250.12
421.54	251.25
421.91	252.46
422.28	253.66
422.66	254.97
423.03	256.28
423.40	257.60
423.77	258.98
424.15	260.39
424.52	261.87
424.89	263.50
425.26	265.07
425.64	266.50
426.01	268.06
426.38	269.68
426.75	271.30
427.13	273.04
427.50	274.84
427.87	276.66
428.24	278.51
428.61	280.21
428.99	282.18
429.36	284.25
429.73	286.27
430.10	288.32
430.47	290.38
430.85	292.50
431.22	294.75
431.59	297.19
431.96	299.41
432.33	301.85
432.70	304.23
433.08	307.00
433.45	309.65
433.82	312.23
434.19	315.14
434.56	317.96
434.93	320.59
435.30	323.19
435.68	326.09
436.05	328.92
436.42	331.74
436.79	334.20
437.16	336.95
437.53	339.80
437.90	342.60
438.27	345.32
438.64	348.12
439.01	350.72
439.38	352.91
439.75	355.13
440.13	357.65
440.50	359.95
440.87	361.81
441.24	363.77
441.61	365.96
441.98	367.40
442.35	369.26
442.72	371.11
443.09	372.93
443.46	373.91
443.83	374.49
444.20	375.00
444.57	375.89
444.94	376.16
445.31	376.50
445.68	376.86
446.05	376.98
446.42	376.61
446.79	376.20
447.16	375.77
447.53	375.42
447.90	374.26
448.27	373.08
448.64	371.47
449.01	370.33
449.37	368.36
449.74	366.49
450.11	364.21
450.48	361.78
450.85	359.26
451.22	357.13
451.59	355.12
451.96	353.20
452.33	350.56
452.70	348.23
453.07	345.46
453.43	342.57
453.80	339.76
454.17	337.07
454.54	334.53
454.91	331.82
455.28	329.18
455.65	326.70
456.02	324.32
456.38	322.22
456.75	319.55
457.12	317.33
457.49	315.14
457.86	312.97
458.23	311.10
458.59	309.05
458.96	307.01
459.33	305.14
459.70	303.27
460.07	301.77
460.43	300.03
460.80	298.37
461.17	296.94
461.54	295.47
461.91	294.11
462.27	292.66
462.64	291.40
463.01	290.04
463.38	288.74
463.74	287.35
464.11	286.16
464.48	285.13
464.85	284.01
465.21	283.11
465.58	282.19
465.95	281.08
466.32	280.16
466.68	279.19
467.05	278.34
467.42	277.44
467.78	276.54
468.15	275.65
468.52	274.96
468.88	274.09
469.25	273.30
469.62	272.60
469.98	271.93
470.35	271.27
470.72	270.66
471.08	270.01
471.45	269.46
471.82	268.90
472.18	268.31
472.55	267.87
472.92	267.31
473.28	266.81
473.65	266.34
474.02	265.89
474.38	265.56
474.75	265.21
475.11	264.86
475.48	264.56
475.85	264.36
476.21	264.09
476.58	263.84
476.94	263.69
477.31	263.51
477.67	263.29
478.04	263.17
478.41	263.11
478.77	263.14
479.14	263.03
479.50	263.01
479.87	263.06
480.23	263.10
480.60	263.19
480.96	263.27
481.33	263.52
481.69	263.71
482.06	263.88
482.42	264.08
482.79	264.34
483.15	264.66
483.52	264.99
483.88	265.32
484.25	265.74
484.61	266.18
484.98	266.63
485.34	267.22
485.71	267.80
486.07	268.38
486.44	268.94
486.80	269.67
487.17	270.39
487.53	271.20
487.90	272.07
488.26	272.98
488.62	273.96
488.99	274.89
489.35	275.94
489.72	277.03
490.08	278.20
490.44	279.42
490.81	280.68
491.17	282.04
491.54	283.55
491.90	285.08
492.26	286.71
492.63	288.40
492.99	290.15
493.36	292.03
493.72	294.06
494.08	296.15
494.45	298.34
494.81	300.71
495.17	303.14
495.54	305.68
495.90	308.33
496.26	311.09
496.63	314.07
496.99	317.16
497.35	320.41
497.72	323.79
498.08	327.27
498.44	330.93
498.80	334.82
499.17	338.79
499.53	342.86
499.89	347.13
500.26	351.62
500.62	356.27
500.98	361.18
501.34	366.20
501.71	371.48
502.07	376.93
502.43	382.48
502.79	388.21
503.16	394.23
503.52	400.43
503.88	406.83
504.24	413.36
504.60	420.17
504.97	427.22
505.33	434.47
505.69	442.11
506.05	449.87
506.41	457.67
506.78	465.88
507.14	474.26
507.50	483.00
507.86	491.91
508.22	501.07
508.59	510.20
508.95	519.75
509.31	529.48
509.67	539.48
510.03	549.76
510.39	560.26
510.75	570.99
511.12	581.92
511.48	593.17
511.84	604.56
512.20	616.08
512.56	628.01
512.92	640.17
513.28	652.43
513.64	664.81
514.00	677.57
514.37	690.38
514.73	703.38
515.09	716.44
515.45	729.77
515.81	743.34
516.17	757.35
516.53	771.43
516.89	785.57
517.25	799.73
517.61	814.13
517.97	828.53
518.33	842.94
518.69	857.76
519.05	872.67
519.41	887.89
519.77	903.44
520.13	918.92
520.49	934.26
520.85	949.75
521.21	965.55
521.57	981.70
521.93	997.59
522.29	1014.10
522.65	1030.28
523.01	1046.58
523.37	1062.62
523.73	1078.82
524.09	1095.00
524.45	1111.38
524.81	1128.07
525.17	1144.96
525.53	1161.93
525.89	1178.90
526.25	1195.68
526.61	1212.18
526.97	1229.03
527.33	1245.55
527.68	1262.18
528.04	1278.78
528.40	1295.42
528.76	1312.45
529.12	1329.07
529.48	1346.02
529.84	1362.10
530.20	1378.77
530.56	1395.71
530.91	1413.14
531.27	1429.93
531.63	1446.44
531.99	1463.15
532.35	1479.30
532.71	1495.20
533.07	1511.46
533.42	1527.36
533.78	1543.41
534.14	1559.66
534.50	1574.90
534.86	1590.80
535.21	1606.04
535.57	1621.94
535.93	1637.41
536.29	1652.36
536.65	1667.58
537.00	1682.43
537.36	1697.89
537.72	1712.56
538.08	1727.11
538.44	1741.04
538.79	1754.97
539.15	1768.82
539.51	1782.68
539.87	1797.02
540.22	1810.74
540.58	1824.55
540.94	1837.81
541.29	1850.73
541.65	1863.55
542.01	1876.87
542.37	1889.26
542.72	1901.60
543.08	1913.50
543.44	1925.98
543.79	1937.26
544.15	1948.29
544.51	1959.82
544.87	1970.70
545.22	1981.50
545.58	1991.79
545.94	2001.61
546.29	2011.66
546.65	2021.26
547.01	2030.39
547.36	2039.12
547.72	2047.63
548.07	2055.58
548.43	2063.81
548.79	2071.83
549.14	2079.44
549.50	2086.84
549.86	2094.55
550.21	2101.85
550.57	2108.92
550.92	2115.48
551.28	2122.63
551.64	2129.56
551.99	2135.94
552.35	2142.08
552.70	2148.19
553.06	2153.95
553.41	2160.06
553.77	2165.88
554.13	2171.96
554.48	2177.83
554.84	2183.17
555.19	2188.39
555.55	2193.22
555.90	2197.66
556.26	2202.47
556.61	2206.95
556.97	2210.96
557.32	2214.95
557.68	2219.01
558.03	2223.05
558.39	2226.66
558.74	2230.96
559.10	2234.72
559.45	2238.26
559.81	2242.38
560.16	2245.88
560.52	2249.02
560.87	2252.41
561.23	2254.90
561.58	2257.65
561.94	2260.22
562.29	2262.41
562.64	2264.99
563.00	2267.64
563.35	2271.04
563.71	2274.01
564.06	2277.02
564.42	2279.88
564.77	2282.15
565.12	2284.23
565.48	2286.07
565.83	2287.58
566.19	2288.59
566.54	2289.30
566.89	2290.35
567.25	2290.59
567.60	2291.73
567.96	2293.16
568.31	2293.71
568.66	2294.58
569.02	2294.98
569.37	2294.95
569.72	2295.47
570.08	2295.43
570.43	2295.14
570.78	2294.12
571.14	2292.28
571.49	2290.77
571.84	2290.10
572.20	2288.70
572.55	2287.34
572.90	2285.45
573.26	2283.74
573.61	2281.77
573.96	2279.71
574.31	2276.32
574.67	2273.08
575.02	2269.22
575.37	2265.57
575.72	2261.43
576.08	2257.81
576.43	2254.26
576.78	2250.41
577.13	2247.10
577.49	2243.75
577.84	2240.09
578.19	2236.23
578.54	2232.36
578.90	2227.94
579.25	2222.21
579.60	2217.01
579.95	2211.69
580.30	2206.44
580.66	2201.10
581.01	2196.05
581.36	2191.07
581.71	2186.86
582.06	2182.34
582.42	2177.84
582.77	2172.44
583.12	2167.84
583.47	2162.95
583.82	2157.67
584.17	2152.34
584.53	2146.59
584.88	2140.67
585.23	2134.66
585.58	2129.04
585.93	2123.44
586.28	2118.45
586.63	2113.14
586.98	2107.86
587.34	2103.23
587.69	2098.22
588.04	2093.01
588.39	2087.15
588.74	2080.34
589.09	2073.92
589.44	2066.96
589.79	2060.54
590.14	2054.69
590.49	2047.84
590.84	2041.15
591.19	2035.07
591.54	2028.38
591.89	2020.86
592.25	2013.86
592.60	2006.62
592.95	1998.77
593.30	1991.25
593.65	1983.42
594.00	1976.26
594.35	1968.92
594.70	1960.62
595.05	1953.33
595.40	1945.92
595.75	1938.24
596.10	1932.01
596.45	1925.15
596.80	1918.93
597.15	1912.38
597.50	1905.37
597.85	1898.94
598.19	1892.32
598.54	1885.18
598.89	1878.64
599.24	1872.62
599.59	1865.92
599.94	1859.66
600.29	1853.44
600.64	1846.79
600.99	1839.28
601.34	1832.49
601.69	1825.50
602.04	1818.66
602.39	1811.22
602.74	1804.38
603.08	1797.88
603.43	1791.25
603.78	1783.98
604.13	1776.64
604.48	1769.35
604.83	1762.36
605.18	1755.41
605.53	1747.47
605.87	1739.56
606.22	1732.27
606.57	1724.42
606.92	1717.17
607.27	1710.08
607.62	1703.20
607.96	1696.17
608.31	1689.78
608.66	1682.23
609.01	1674.71
609.36	1667.26
609.70	1659.52
610.05	1651.63
610.40	1643.98
610.75	1635.64
611.10	1628.06
611.44	1619.88
611.79	1611.87
612.14	1603.43
612.49	1594.36
612.83	1586.03
613.18	1577.90
613.53	1569.87
613.88	1561.41
614.22	1553.35
614.57	1544.81
614.92	1537.00
615.27	1529.54
615.61	1521.36
615.96	1513.34
616.31	1505.89
616.65	1498.58
617.00	1491.09
617.35	1483.43
617.70	1475.14
618.04	1466.70
618.39	1458.64
618.74	1451.21
619.08	1443.19
619.43	1435.67
619.78	1428.86
620.12	1421.90
620.47	1414.59
620.82	1406.48
621.16	1399.25
621.51	1391.64
621.85	1384.18
622.20	1375.82
622.55	1367.43
622.89	1359.67
623.24	1352.37
623.59	1345.11
623.93	1337.86
624.28	1330.72
624.62	1323.36
624.97	1316.24
625.32	1309.55
625.66	1302.56
626.01	1295.36
626.35	1288.06
626.70	1280.37
627.04	1272.84
627.39	1265.13
627.73	1257.77
628.08	1251.03
628.43	1243.83
628.77	1236.62
629.12	1229.16
629.46	1221.98
629.81	1214.84
630.15	1207.84
630.50	1200.46
630.84	1192.31
631.19	1184.48
631.53	1177.11
631.88	1169.67
632.22	1162.17
632.57	1155.00
632.91	1147.65
633.26	1140.34
633.60	1132.95
633.95	1126.06
634.29	1119.06
634.64	1112.51
634.98	1105.24
635.32	1098.21
635.67	1091.73
636.01	1085.18
636.36	1078.38
636.70	1071.94
637.05	1065.38
637.39	1058.92
637.73	1052.42
638.08	1046.71
638.42	1040.76
638.77	1034.39
639.11	1027.95
639.45	1021.70
639.80	1015.19
640.14	1008.81
640.49	1002.38
640.83	996.28
641.17	990.15
641.52	983.94
641.86	977.57
642.20	971.95
642.55	965.75
642.89	959.32
643.23	952.86
643.58	947.26
643.92	941.15
644.26	935.23
644.61	929.27
644.95	923.39
645.29	916.84
645.64	910.13
645.98	903.80
646.32	898.00
646.66	892.05
647.01	886.45
647.35	880.93
647.69	875.23
648.04	869.76
648.38	864.08
648.72	858.23
649.06	852.28
649.41	846.36
649.75	840.47
650.09	834.62
650.43	828.88
650.78	822.74
651.12	816.81
651.46	811.22
651.80	805.51
652.14	800.16
652.49	794.92
652.83	789.87
653.17	784.33
653.51	778.58
653.85	773.19
654.20	767.53
654.54	761.52
654.88	755.82
655.22	750.05
655.56	744.37
655.90	738.96
656.25	733.74
656.59	728.41
656.93	723.46
657.27	718.36
657.61	712.98
657.95	707.99
658.29	703.02
658.64	697.77
658.98	692.57
659.32	687.28
659.66	682.13
660.00	676.87
660.34	671.93
660.68	667.15
661.02	662.25
661.36	657.57
661.70	653.21
662.05	648.91
662.39	644.54
662.73	640.13
663.07	635.70
663.41	631.34
663.75	626.91
664.09	622.31
664.43	618.07
664.77	614.00
665.11	609.80
665.45	605.73
665.79	601.73
666.13	597.69
666.47	593.56
666.81	589.46
667.15	585.45
667.49	581.69
667.83	577.91
668.17	574.00
668.51	570.04
668.85	566.05
669.19	562.24
669.53	558.53
669.87	554.73
670.21	551.14
670.55	547.57
670.89	544.22
671.23	540.80
671.57	537.31
671.91	533.89
672.25	530.43
672.58	526.94
672.92	523.61
673.26	520.52
673.60	517.46
673.94	514.40
674.28	511.52
674.62	508.55
674.96	505.54
675.30	502.65
675.64	499.79
675.97	497.03
676.31	494.24
676.65	491.35
676.99	488.69
677.33	485.84
677.67	483.03
678.01	480.04
678.34	477.16
678.68	474.31
679.02	471.55
679.36	468.85
679.70	466.22
680.04	463.44
680.37	460.58
680.71	457.85
681.05	455.28
681.39	452.63
681.73	450.06
682.06	447.54
682.40	445.05
682.74	442.50
683.08	439.98
683.42	437.41
683.75	434.95
684.09	432.43
684.43	430.08
684.77	427.71
685.10	425.43
685.44	423.16
685.78	420.99
686.12	418.78
686.45	416.57
686.79	414.32
687.13	412.21
687.46	410.11
687.80	407.96
688.14	405.77
688.48	403.74
688.81	401.55
689.15	399.44
689.49	397.37
689.82	395.39
690.16	393.37
690.50	391.48
690.83	389.57
691.17	387.65
691.51	385.71
691.84	383.88
692.18	381.98
692.52	380.04
692.85	378.07
693.19	376.16
693.52	374.33
693.86	372.52
694.20	370.78
694.53	368.97
694.87	367.16
695.21	365.41
695.54	363.62
695.88	361.97
696.21	360.25
696.55	358.62
696.88	356.96
697.22	355.34
697.56	353.72
697.89	352.05
698.23	350.44
698.56	348.85
698.90	347.27
699.23	345.61
699.57	344.06
699.90	342.56
700.24	341.07
700.58	339.53
700.91	338.05
701.25	336.59
701.58	335.25
701.92	333.89
702.25	332.51
702.59	331.16
702.92	329.79
703.26	328.52
703.59	327.24
703.93	326.06
704.26	324.84
704.60	323.55
704.93	322.33
705.26	321.12
705.60	320.01
705.93	318.86
706.27	317.85
706.60	316.82
706.94	315.70
707.27	314.56
707.61	313.58
707.94	312.60
708.27	311.53
708.61	310.43
708.94	309.46
709.28	308.49
709.61	307.54
709.94	306.58
710.28	305.55
710.61	304.53
710.95	303.45
711.28	302.51
711.61	301.59
711.95	300.68
712.28	299.75
712.61	298.72
712.95	297.77
713.28	296.92
713.61	296.04
713.95	295.23
714.28	294.42
714.61	293.53
714.95	292.64
715.28	291.80
715.61	290.97
715.95	290.10
716.28	289.27
716.61	288.42
716.95	287.64
717.28	286.95
717.61	286.24
717.94	285.51
718.28	284.76
718.61	284.05
718.94	283.40
719.27	282.76
719.61	282.18
719.94	281.58
720.27	280.84
720.60	280.22
720.94	279.57
721.27	278.99
721.60	278.44
721.93	277.88
722.27	277.33
722.60	276.79
722.93	276.26
723.26	275.76
723.59	275.26
723.93	274.74
724.26	274.20
724.59	273.67
724.92	273.16
725.25	272.67
725.59	272.15
725.92	271.65
726.25	271.11
726.58	270.59
726.91	270.09
727.24	269.62
727.57	269.16
727.91	268.67
728.24	268.22
728.57	267.76
728.90	267.32
729.23	266.86
729.56	266.46
729.89	266.00
730.22	265.50
730.55	265.03
730.89	264.59
731.22	264.12
731.55	263.72
731.88	263.30
732.21	262.84
732.54	262.41
732.87	261.96
733.20	261.64
733.53	261.29
733.86	260.92
734.19	260.58
734.52	260.21
734.85	259.92
735.18	259.50
735.51	259.13
735.84	258.74
736.17	258.40
736.50	258.00
736.83	257.75
737.16	257.43
737.49	257.09
737.82	256.72
738.15	256.42
738.48	256.06
738.81	255.72
739.14	255.43
739.47	255.12
739.80	254.81
740.13	254.49
740.46	254.20
740.79	253.87
741.12	253.52
741.45	253.16
741.78	252.78
742.11	252.50
742.44	252.17
742.77	251.90
743.10	251.54
743.43	251.23
743.75	250.85
744.08	250.67
744.41	250.40
744.74	250.14
745.07	249.84
745.40	249.62
745.73	249.42
746.06	249.13
746.39	248.87
746.71	248.59
747.04	248.31
747.37	247.99
747.70	247.72
748.03	247.50
748.36	247.31
748.68	247.08
749.01	246.83
749.34	246.60
749.67	246.37
750.00	246.17
750.33	246.00
750.65	245.75
750.98	245.41
751.31	245.18
751.64	244.97
751.97	244.79
752.29	244.57
752.62	244.29
752.95	244.09
753.28	243.89
753.60	243.68
753.93	243.53
754.26	243.33
754.59	243.11
754.91	242.88
755.24	242.66
755.57	242.46
755.90	242.28
756.22	242.08
756.55	241.90
756.88	241.66
757.20	241.44
757.53	241.30
757.86	241.11
758.19	240.96
758.51	240.78
758.84	240.60
759.17	240.40
759.49	240.24
759.82	240.12
760.15	239.96
760.47	239.81
760.80	239.61
761.13	239.49
761.45	239.37
761.78	239.24
762.11	239.10
762.43	238.96
762.76	238.80
763.08	238.69
763.41	238.57
763.74	238.51
764.06	238.34
764.39	238.23
764.71	238.12
765.04	238.00
765.37	237.86
765.69	237.73
766.02	237.63
766.34	237.49
766.67	237.34
767.00	237.23
767.32	237.18
767.65	237.10
767.97	236.98
768.30	236.86
768.62	236.73
768.95	236.61
769.27	236.52
769.60	236.46
769.92	236.34
770.25	236.23
770.57	236.07
770.90	236.01
771.22	235.88
771.55	235.83
771.87	235.72
772.20	235.66
772.52	235.68
772.85	235.69
773.17	235.64
773.50	235.56
773.82	235.46
774.15	235.34
774.47	235.25
774.80	235.18
775.12	235.10
775.45	235.05
775.77	235.00
776.09	234.92
776.42	234.82
776.74	234.81
777.07	234.70
777.39	234.69
777.72	234.64
778.04	234.58
778.36	234.49
778.69	234.44
779.01	234.39
779.33	234.22
779.66	234.07
779.98	233.99
780.31	233.94
780.63	233.93
780.95	233.86
781.28	233.75
781.60	233.66
781.92	233.62
782.25	233.58
782.57	233.49
782.89	233.43
783.22	233.37
783.54	233.25
783.86	233.24
784.19	233.14
784.51	233.07
784.83	233.01
785.16	232.94
785.48	232.89
785.80	232.82
786.12	232.78
786.45	232.69
786.77	232.66
787.09	232.62
787.42	232.54
787.74	232.51
788.06	232.51
788.38	232.46
788.71	232.41
789.03	232.36
789.35	232.36
789.67	232.30
789.99	232.25
790.32	232.23
790.64	232.14
790.96	232.19
791.28	232.13
791.61	232.06
791.93	232.00
792.25	231.95
792.57	231.97
792.89	231.88
793.21	231.87
793.54	231.81
793.86	231.74
794.18	231.70
794.50	231.65
794.82	231.57
795.14	231.53
795.47	231.48
795.79	231.46
796.11	231.38
796.43	231.35
796.75	231.32
797.07	231.27
797.39	231.27
797.71	231.15
798.04	231.12
798.36	231.12
798.68	231.10
799.00	231.08
799.32	230.99
799.64	231.01
799.96	230.97
800.28	230.93
800.60	230.87
800.92	230.83
801.24	230.80
801.56	230.80
801.89	230.76
802.21	230.77
802.53	230.70
802.85	230.71
803.17	230.71
803.49	230.67
803.81	230.66
804.13	230.64
804.45	230.59
804.77	230.56
805.09	230.54
805.41	230.52
805.73	230.50
806.05	230.45
806.37	230.40
806.69	230.34
807.01	230.34
807.33	230.40
807.65	230.35
807.97	230.35
808.28	230.33
808.60	230.32
808.92	230.28
809.24	230.31
809.56	230.26
809.88	230.23
810.20	230.21
810.52	230.20
810.84	230.17
811.16	230.15
811.48	230.12
811.80	230.11
812.12	230.07
812.43	230.05
812.75	230.04
813.07	230.03
813.39	230.07
813.71	230.01
814.03	229.95
814.35	229.94
814.67	229.89
814.98	229.88
815.30	229.84
815.62	229.80
815.94	229.70
816.26	229.72
816.58	229.68
816.89	229.68
817.21	229.63
817.53	229.57
817.85	229.57
818.17	229.58
818.48	229.51
818.80	229.51
819.12	229.44
819.44	229.41
819.76	229.39
820.07	229.35
820.39	229.38
820.71	229.35
821.03	229.34
821.34	229.33
821.66	229.32
821.98	229.35
822.30	229.31
822.61	229.40
822.93	229.34
823.25	229.34
823.57	229.35
823.88	229.37
824.20	229.35
824.52	229.35
824.83	229.33
825.15	229.31
825.47	229.30
825.79	229.34
826.10	229.31
826.42	229.29
826.74	229.28
827.05	229.24
827.37	229.26
827.69	229.23
828.00	229.18
828.32	229.16
828.64	229.11
828.95	229.18
829.27	229.14
829.58	229.13
829.90	229.05
830.22	229.05
830.53	228.99
830.85	229.00
831.17	228.96
831.48	228.93
831.80	228.94
832.11	228.92
832.43	228.88
832.75	228.87
833.06	228.94
833.38	228.89
833.69	228.86
834.01	228.82
834.32	228.84
834.64	228.86
834.96	228.86
835.27	228.85
835.59	228.81
835.90	228.77
836.22	228.78
836.53	228.79
836.85	228.75
837.16	228.84
837.48	228.86
837.79	228.91
838.11	228.93
838.42	228.91
838.74	228.94
839.05	228.95
839.37	228.95
839.68	228.86
840.00	228.88
840.31	228.87
840.63	228.90
840.94	228.88
841.26	228.84
841.57	228.86
841.88	228.87
842.20	228.81
842.51	228.79
842.83	228.77
843.14	228.84
843.46	228.81
843.77	228.78
844.08	228.75
844.40	228.69
844.71	228.65
845.03	228.66
845.34	228.63
845.65	228.59
845.97	228.59
846.28	228.56
846.60	228.56
846.91	228.56
847.22	228.52
847.54	228.53
847.85	228.52
848.16	228.47
848.48	228.42
848.79	228.50
849.10	228.49
849.42	228.49
849.73	228.42
850.04	228.43
850.36	228.37
850.67	228.37
850.98	228.36
851.30	228.38
851.61	228.35
851.92	228.35
852.23	228.38
852.55	228.35
852.86	228.37
853.17	228.36
853.49	228.40
853.80	228.43
854.11	228.42
854.42	228.46
854.74	228.46
855.05	228.46
855.36	228.40
855.67	228.42
855.99	228.40
856.30	228.52
856.61	228.49
856.92	228.48
857.23	228.44
857.55	228.49
857.86	228.45
858.17	228.47
858.48	228.43
858.79	228.41
859.11	228.44
859.42	228.42
859.73	228.42
860.04	228.35
860.35	228.31
860.66	228.29
860.98	228.25
861.29	228.25
861.60	228.24
861.91	228.24
862.22	228.25
862.53	228.26
862.84	228.14
863.16	228.18
863.47	228.15
863.78	228.17
864.09	228.13
864.40	228.17
864.71	228.16
865.02	228.16
865.33	228.14
865.64	228.11
865.95	228.11
866.27	228.17
866.58	228.17
866.89	228.17
867.20	228.16
867.51	228.15
867.82	228.17
868.13	228.20
868.44	228.19
868.75	228.19
869.06	228.18
869.37	228.23
869.68	228.20
869.99	228.23
870.30	228.23
870.61	228.25
870.92	228.22
871.23	228.22
871.54	228.29
871.85	228.30
872.16	228.33
872.47	228.35
872.78	228.29
873.09	228.32
873.40	228.32
873.71	228.32
874.02	228.32
874.33	228.28
874.64	228.28
874.95	228.29
875.26	228.26
875.56	228.23
875.87	228.18
876.18	228.18
876.49	228.25
876.80	228.24
877.11	228.22
877.42	228.21
877.73	228.22
878.04	228.17
878.35	228.17
878.66	228.15
878.96	228.11
879.27	228.13
879.58	228.13
879.89	228.11
880.20	228.13
880.51	228.13
880.82	228.14
881.12	228.13
881.43	228.10
881.74	228.08
882.05	228.09
882.36	228.08
882.67	228.11
882.97	228.00
883.28	228.00
883.59	227.97
883.90	227.97
884.21	227.97
884.51	227.98
884.82	227.96
885.13	227.96
885.44	227.96
885.74	227.93
886.05	227.93
886.36	227.93
886.67	227.89
886.98	227.93
887.28	227.95
887.59	227.92
887.90	227.94
888.20	227.95
888.51	227.98
888.82	227.98
889.13	227.94
889.43	228.03
889.74	228.01
890.05	228.03
890.35	228.03
890.66	228.03
890.97	227.98
891.28	227.95
891.58	227.93
891.89	227.92
892.20	227.93
892.50	227.92
892.81	227.89
893.12	227.88
893.42	227.84
893.73	227.82
894.04	227.84
894.34	227.85
894.65	227.81
894.95	227.79
895.26	227.80
895.57	227.88
895.87	227.78
896.18	227.82
896.48	227.81
896.79	227.81
897.10	227.82
897.40	227.82
897.71	227.86
898.01	227.89
898.32	227.91
898.63	227.89
898.93	227.88
899.24	227.90
899.54	227.93
899.85	227.91
900.15	227.92
900.46	227.89
900.76	227.89
901.07	227.90
901.38	227.90
901.68	227.89
901.99	227.82
902.29	227.82
902.60	227.79
902.90	227.78
903.21	227.77
903.51	227.73
903.82	227.75
904.12	227.75
904.43	227.71
904.73	227.71
905.03	227.71
905.34	227.78
905.64	227.77
905.95	227.75
906.25	227.76
906.56	227.77
906.86	227.79
907.17	227.79
907.47	227.82
907.77	227.81
908.08	227.80
908.38	227.81
908.69	227.82
908.99	227.86
909.30	227.88
909.60	227.88
909.90	227.89
910.21	227.87
910.51	227.84
910.81	227.87
911.12	227.86
911.42	227.86
911.73	227.79
912.03	227.80
912.33	227.81
912.64	227.82
912.94	227.77
913.24	227.75
913.55	227.74
913.85	227.73
914.15	227.77
914.46	227.79
914.76	227.79
915.06	227.79
915.37	227.75
915.67	227.71
915.97	227.72
916.27	227.75
916.58	227.78
916.88	227.79
917.18	227.78
917.49	227.85
917.79	227.87
918.09	227.87
918.39	227.88
918.70	227.90
919.00	227.89
919.30	227.98
919.60	228.00
919.91	227.98
920.21	227.99
920.51	227.95
920.81	227.91
921.12	227.94
921.42	227.95
921.72	227.94
922.02	227.97
922.32	227.99
922.63	227.94
922.93	227.94
923.23	227.96
923.53	227.97
923.83	227.92
924.13	227.94
924.44	227.92
924.74	227.95
925.04	227.97
925.34	227.97
925.64	227.90
925.94	227.90
926.24	227.96
926.55	227.95
926.85	227.97
927.15	227.99
927.45	227.96
927.75	227.95
928.05	227.96
928.35	227.96
928.65	227.97
928.95	228.01
929.26	228.02
929.56	228.02
929.86	227.99
930.16	227.95
930.46	227.94
930.76	227.97
931.06	227.91
931.36	227.86
931.66	227.89
931.96	227.89
932.26	227.87
932.56	227.81
932.86	227.79
933.16	227.79
933.46	227.80
933.76	227.80
934.06	227.83
934.36	227.88
934.66	227.85
934.96	227.83
935.26	227.79
935.56	227.81
935.86	227.78
936.16	227.80
936.46	227.78
936.76	227.74
937.06	227.72
937.36	227.77
937.66	227.76
937.96	227.77
938.26	227.77
938.56	227.74
938.86	227.76
939.16	227.78
939.46	227.76
939.76	227.72
940.06	227.70
940.35	227.65
940.65	227.58
940.95	227.58
941.25	227.54
941.55	227.55
941.85	227.50
942.15	227.52
942.45	227.55
942.75	227.53
943.04	227.54
943.34	227.57
943.64	227.55
943.94	227.53
944.24	227.48
944.54	227.49
944.84	227.51
945.13	227.48
945.43	227.45
945.73	227.46
946.03	227.45
946.33	227.46
946.62	227.47
946.92	227.50
947.22	227.55
947.52	227.56
947.82	227.54
948.11	227.52
948.41	227.50
948.71	227.46
949.01	227.49
949.31	227.49
949.60	227.47
949.90	227.47
950.20	227.51
950.50	227.53
950.79	227.52
951.09	227.55
951.39	227.56
951.69	227.57
951.98	227.59
952.28	227.61
952.58	227.62
952.87	227.62
953.17	227.65
953.47	227.64
953.76	227.66
954.06	227.70
954.36	227.72
954.66	227.74
954.95	227.75
955.25	227.79
955.55	227.78
955.84	227.78
956.14	227.76
956.44	227.78
956.73	227.75
957.03	227.76
957.32	227.76
957.62	227.73
957.92	227.79
958.21	227.80
958.51	227.90
958.81	227.89
959.10	227.89
959.40	227.92
959.69	227.93
959.99	227.94
960.29	227.93
960.58	227.91
960.88	227.92
961.17	227.90
961.47	227.91
961.76	227.94
962.06	227.97
962.36	227.98
962.65	227.98
962.95	228.03
963.24	228.03
963.54	228.04
963.83	228.08
964.13	228.04
964.42	228.02
964.72	227.94
965.01	227.97
965.31	227.97
965.60	227.88
965.90	227.93
966.19	227.88
966.49	227.89
966.78	227.94
967.08	227.92
967.37	227.93
967.67	227.89
967.96	227.89
968.26	227.88
968.55	227.91
968.85	227.90
969.14	227.89
969.43	227.89
969.73	227.85
970.02	227.82
970.32	227.80
970.61	227.78
970.91	227.77
971.20	227.75
971.49	227.76
971.79	227.79
972.08	227.73
972.38	227.78
972.67	227.79
972.96	227.77
973.26	227.76
973.55	227.77
973.85	227.78
974.14	227.77
974.43	227.78
974.73	227.75
975.02	227.75
975.31	227.73
975.61	227.72
975.90	227.71
976.19	227.76
976.49	227.79
976.78	227.80
977.07	227.81
977.37	227.81
977.66	227.81
977.95	227.79
978.24	227.78
978.54	227.78
978.83	227.75
979.12	227.75
979.42	227.72
979.71	227.71
980.00	227.70
980.29	227.69
980.59	227.67
980.88	227.69
981.17	227.66
981.46	227.67
981.76	227.64
982.05	227.69
982.34	227.69
982.63	227.68
982.93	227.69
983.22	227.67
983.51	227.68
983.80	227.68
984.09	227.70
984.39	227.64
984.68	227.63
984.97	227.64
985.26	227.63
985.55	227.67
985.85	227.65
986.14	227.64
986.43	227.64
986.72	227.60
987.01	227.56
987.30	227.58
987.59	227.54
987.89	227.58
988.18	227.52
988.47	227.52
988.76	227.47
989.05	227.45
989.34	227.45
989.63	227.47
989.92	227.43
990.22	227.42
990.51	227.48
990.80	227.46
991.09	227.45
991.38	227.46
991.67	227.45
991.96	227.45
992.25	227.46
992.54	227.44
992.83	227.49
993.12	227.50
993.41	227.50
993.70	227.53
993.99	227.52
994.28	227.54
994.58	227.54
994.87	227.55
995.16	227.53
995.45	227.50
995.74	227.47
996.03	227.51
996.32	227.54
996.61	227.57
996.90	227.56
997.19	227.58
997.48	227.59
997.77	227.59
998.06	227.61
998.34	227.61
998.63	227.60
998.92	227.58
999.21	227.57
999.50	227.57
999.79	227.60
1000.08	227.59
1000.37	227.59
1000.66	227.58
1000.95	227.61
1001.24	227.65
1001.53	227.69
1001.82	227.70
1002.11	227.69
1002.40	227.67
1002.68	227.69
1002.97	227.78
1003.26	227.74
1003.55	227.74
1003.84	227.75
1004.13	227.76
1004.42	227.75
1004.71	227.75
1004.99	227.75
1005.28	227.75
1005.57	227.76
1005.86	227.72
1006.15	227.73
1006.44	227.72
1006.72	227.73
1007.01	227.73
1007.30	227.72
1007.59	227.69
1007.88	227.71
1008.17	227.69
1008.45	227.69
1008.74	227.62
1009.03	227.55
1009.32	227.55
1009.60	227.55
1009.89	227.51
1010.18	227.45
1010.47	227.45
1010.76	227.44
1011.04	227.44
1011.33	227.50
1011.62	227.47
1011.91	227.44
1012.19	227.41
1012.48	227.43
1012.77	227.45
1013.05	227.47
1013.34	227.45
1013.63	227.44
1013.92	227.40
1014.20	227.40
1014.49	227.38
1014.78	227.42
1015.06	227.40
1015.35	227.40
1015.64	227.38
1015.92	227.40
1016.21	227.42
1016.50	227.41
1016.78	227.43
1017.07	227.41
1017.36	227.35
1017.64	227.38
1017.93	227.40
1018.22	227.40
1018.50	227.41
1018.79	227.40
1019.08	227.37
1019.36	227.41
1019.65	227.43
1019.93	227.44
1020.22	227.44
1020.51	227.51
1020.79	227.47
1021.08	227.12
1021.36	227.78
1021.65	227.90
1021.94	227.60
1022.22	228.08
1022.51	227.42
1022.79	227.22
1023.08	227.62
1023.36	228.55
1023.65	227.39
>>>>>End Processed Spectral Data<<<<<
