SpectraSuite Data File
++++++++++++++++++++++++++++++++++++
Date: Fri Feb 01 17:22:29 EST 2013
User: group
Dark Spectrum Present: No
Reference Spectrum Present: No
Number of Sampled Component Spectra: 1
Spectrometers: USB2E7196
Integration Time (usec): 35000 (USB2E7196)
Spectra Averaged: 100 (USB2E7196)
Boxcar Smoothing: 10 (USB2E7196)
Correct for Electrical Dark: No (USB2E7196)
Strobe/Lamp Enabled: No (USB2E7196)
Correct for Detector Non-linearity: No (USB2E7196)
Correct for Stray Light: No (USB2E7196)
Number of Pixels in Processed Spectrum: 2048
>>>>>Begin Processed Spectral Data<<<<<
339.09	0.00
339.48	213.19
339.86	213.82
340.24	216.01
340.63	217.22
341.01	220.14
341.39	220.42
341.78	220.67
342.16	222.01
342.54	222.93
342.93	211.37
343.31	222.05
343.69	222.58
344.07	223.09
344.46	223.49
344.84	223.87
345.22	224.12
345.60	224.31
345.99	224.52
346.37	224.65
346.75	224.73
347.13	224.81
347.52	224.86
347.90	224.92
348.28	224.93
348.66	224.97
349.05	224.95
349.43	224.98
349.81	225.00
350.19	225.02
350.57	225.07
350.96	225.15
351.34	225.21
351.72	225.29
352.10	225.35
352.48	225.41
352.87	225.44
353.25	225.51
353.63	225.60
354.01	225.67
354.39	225.76
354.77	225.86
355.15	225.95
355.54	226.03
355.92	226.07
356.30	226.13
356.68	226.24
357.06	226.32
357.44	226.36
357.82	226.43
358.20	226.53
358.58	226.60
358.97	226.68
359.35	226.78
359.73	226.84
360.11	226.91
360.49	227.00
360.87	227.06
361.25	227.09
361.63	227.16
362.01	227.20
362.39	227.24
362.77	227.28
363.15	227.30
363.53	227.34
363.91	227.41
364.29	227.45
364.67	227.36
365.05	227.37
365.43	227.42
365.81	227.42
366.19	227.47
366.57	227.50
366.95	227.50
367.33	227.46
367.71	227.47
368.09	227.45
368.47	227.44
368.85	227.40
369.23	227.40
369.61	227.36
369.99	227.33
370.37	227.31
370.75	227.32
371.13	227.28
371.51	227.22
371.89	227.14
372.27	227.04
372.65	227.01
373.03	226.97
373.41	226.92
373.78	226.87
374.16	226.76
374.54	226.70
374.92	226.63
375.30	226.60
375.68	226.53
376.06	226.46
376.44	226.39
376.82	226.36
377.19	226.33
377.57	226.21
377.95	226.15
378.33	226.07
378.71	225.94
379.09	225.86
379.47	225.80
379.84	225.75
380.22	225.70
380.60	225.63
380.98	225.57
381.36	225.49
381.73	225.42
382.11	225.37
382.49	225.30
382.87	225.23
383.25	225.15
383.62	225.19
384.00	225.14
384.38	225.07
384.76	225.03
385.13	224.98
385.51	225.02
385.89	224.99
386.27	224.94
386.64	224.92
387.02	224.90
387.40	224.85
387.78	224.82
388.15	224.80
388.53	224.75
388.91	224.69
389.29	224.64
389.66	224.64
390.04	224.61
390.42	224.60
390.79	224.57
391.17	224.57
391.55	224.45
391.92	224.46
392.30	224.48
392.68	224.46
393.05	224.44
393.43	224.41
393.81	224.37
394.18	224.38
394.56	224.37
394.94	224.39
395.31	224.40
395.69	224.48
396.06	224.50
396.44	224.59
396.82	224.64
397.19	224.74
397.57	224.79
397.95	224.80
398.32	224.82
398.70	224.89
399.07	224.96
399.45	225.03
399.82	225.07
400.20	225.14
400.58	225.19
400.95	225.20
401.33	225.29
401.70	225.45
402.08	225.51
402.45	225.62
402.83	225.74
403.20	225.85
403.58	225.90
403.95	226.02
404.33	226.12
404.71	226.24
405.08	226.37
405.46	226.51
405.83	226.71
406.21	226.87
406.58	227.03
406.96	227.20
407.33	227.36
407.70	227.54
408.08	227.80
408.45	228.06
408.83	228.34
409.20	228.54
409.58	228.75
409.95	229.06
410.33	229.35
410.70	229.62
411.08	229.91
411.45	230.28
411.82	230.61
412.20	230.99
412.57	231.42
412.95	231.76
413.32	232.16
413.69	232.58
414.07	233.04
414.44	233.54
414.82	233.99
415.19	234.57
415.56	235.14
415.94	235.67
416.31	236.35
416.68	236.99
417.06	237.77
417.43	238.46
417.81	239.21
418.18	240.03
418.55	240.89
418.93	241.80
419.30	242.69
419.67	243.67
420.04	244.60
420.42	245.61
420.79	246.82
421.16	247.99
421.54	249.21
421.91	250.47
422.28	251.74
422.66	253.15
423.03	254.50
423.40	255.91
423.77	257.40
424.15	258.85
424.52	260.37
424.89	262.03
425.26	263.63
425.64	265.13
426.01	266.76
426.38	268.46
426.75	270.19
427.13	271.95
427.50	273.80
427.87	275.80
428.24	277.76
428.61	279.57
428.99	281.57
429.36	283.72
429.73	285.85
430.10	287.95
430.47	290.06
430.85	292.23
431.22	294.55
431.59	297.01
431.96	299.30
432.33	301.86
432.70	304.31
433.08	307.20
433.45	309.92
433.82	312.64
434.19	315.65
434.56	318.56
434.93	321.32
435.30	324.02
435.68	326.94
436.05	329.84
436.42	332.69
436.79	335.27
437.16	338.08
437.53	340.97
437.90	343.90
438.27	346.75
438.64	349.70
439.01	352.32
439.38	354.62
439.75	356.87
440.13	359.46
440.50	361.83
440.87	363.80
441.24	365.84
441.61	368.05
441.98	369.53
442.35	371.40
442.72	373.31
443.09	375.15
443.46	376.27
443.83	376.90
444.20	377.48
444.57	378.39
444.94	378.69
445.31	379.11
445.68	379.42
446.05	379.53
446.42	379.14
446.79	378.77
447.16	378.34
447.53	378.00
447.90	376.84
448.27	375.65
448.64	373.99
449.01	372.83
449.37	370.77
449.74	368.89
450.11	366.59
450.48	364.07
450.85	361.50
451.22	359.26
451.59	357.21
451.96	355.22
452.33	352.55
452.70	350.10
453.07	347.21
453.43	344.26
453.80	341.40
454.17	338.62
454.54	336.01
454.91	333.18
455.28	330.47
455.65	327.88
456.02	325.39
456.38	323.16
456.75	320.41
457.12	318.10
457.49	315.79
457.86	313.51
458.23	311.63
458.59	309.54
458.96	307.41
459.33	305.49
459.70	303.60
460.07	302.08
460.43	300.33
460.80	298.66
461.17	297.21
461.54	295.67
461.91	294.21
462.27	292.64
462.64	291.40
463.01	290.00
463.38	288.67
463.74	287.27
464.11	286.08
464.48	285.05
464.85	283.92
465.21	283.03
465.58	282.12
465.95	280.95
466.32	279.99
466.68	279.03
467.05	278.07
467.42	277.08
467.78	276.05
468.15	275.15
468.52	274.43
468.88	273.54
469.25	272.74
469.62	272.12
469.98	271.52
470.35	270.84
470.72	270.23
471.08	269.54
471.45	268.98
471.82	268.40
472.18	267.75
472.55	267.34
472.92	266.78
473.28	266.28
473.65	265.84
474.02	265.38
474.38	265.01
474.75	264.71
475.11	264.38
475.48	264.14
475.85	263.90
476.21	263.68
476.58	263.49
476.94	263.34
477.31	263.12
477.67	262.97
478.04	262.85
478.41	262.79
478.77	262.84
479.14	262.79
479.50	262.80
479.87	262.91
480.23	262.95
480.60	262.98
480.96	263.12
481.33	263.32
481.69	263.54
482.06	263.71
482.42	263.88
482.79	264.11
483.15	264.42
483.52	264.80
483.88	265.13
484.25	265.50
484.61	265.91
484.98	266.40
485.34	266.96
485.71	267.50
486.07	268.07
486.44	268.62
486.80	269.30
487.17	270.05
487.53	270.81
487.90	271.65
488.26	272.65
488.62	273.59
488.99	274.54
489.35	275.55
489.72	276.71
490.08	277.93
490.44	279.19
490.81	280.52
491.17	281.86
491.54	283.30
491.90	284.80
492.26	286.41
492.63	288.12
492.99	289.86
493.36	291.76
493.72	293.80
494.08	295.90
494.45	298.14
494.81	300.44
495.17	302.85
495.54	305.40
495.90	308.05
496.26	310.81
496.63	313.73
496.99	316.86
497.35	320.05
497.72	323.42
498.08	326.91
498.44	330.54
498.80	334.44
499.17	338.48
499.53	342.68
499.89	347.03
500.26	351.47
500.62	356.09
500.98	361.01
501.34	365.96
501.71	371.26
502.07	376.62
502.43	382.20
502.79	387.95
503.16	393.93
503.52	400.15
503.88	406.51
504.24	413.10
504.60	419.84
504.97	426.94
505.33	434.15
505.69	441.78
506.05	449.47
506.41	457.25
506.78	465.24
507.14	473.53
507.50	482.05
507.86	490.91
508.22	499.96
508.59	509.04
508.95	518.53
509.31	528.14
509.67	538.07
510.03	548.23
510.39	558.60
510.75	569.22
511.12	579.93
511.48	591.08
511.84	602.30
512.20	613.56
512.56	625.25
512.92	637.11
513.28	649.15
513.64	661.33
514.00	673.78
514.37	686.46
514.73	699.30
515.09	712.12
515.45	725.17
515.81	738.52
516.17	752.22
516.53	766.08
516.89	779.96
517.25	793.81
517.61	807.85
517.97	822.01
518.33	836.15
518.69	850.56
519.05	865.07
519.41	879.84
519.77	895.07
520.13	910.11
520.49	925.22
520.85	940.32
521.21	955.64
521.57	971.41
521.93	986.80
522.29	1002.70
522.65	1018.55
523.01	1034.33
523.37	1049.91
523.73	1065.60
524.09	1081.19
524.45	1097.13
524.81	1113.33
525.17	1129.70
525.53	1146.11
525.89	1162.53
526.25	1179.02
526.61	1195.08
526.97	1211.46
527.33	1227.56
527.68	1243.74
528.04	1259.90
528.40	1275.90
528.76	1292.59
529.12	1308.82
529.48	1325.39
529.84	1341.08
530.20	1357.27
530.56	1373.90
530.91	1390.85
531.27	1407.29
531.63	1423.54
531.99	1439.70
532.35	1455.45
532.71	1471.11
533.07	1487.11
533.42	1502.73
533.78	1518.47
534.14	1534.38
534.50	1549.46
534.86	1565.00
535.21	1579.97
535.57	1595.45
535.93	1610.94
536.29	1625.50
536.65	1640.39
537.00	1654.76
537.36	1669.91
537.72	1684.19
538.08	1698.38
538.44	1712.04
538.79	1725.78
539.15	1739.19
539.51	1752.72
539.87	1766.73
540.22	1780.13
540.58	1793.67
540.94	1806.72
541.29	1819.34
541.65	1831.88
542.01	1844.94
542.37	1857.16
542.72	1869.33
543.08	1881.25
543.44	1893.53
543.79	1904.74
544.15	1915.65
544.51	1927.30
544.87	1938.06
545.22	1948.98
545.58	1959.32
545.94	1969.14
546.29	1978.98
546.65	1988.86
547.01	1998.20
547.36	2006.96
547.72	2015.66
548.07	2023.72
548.43	2032.07
548.79	2040.10
549.14	2047.88
549.50	2055.17
549.86	2062.89
550.21	2070.45
550.57	2077.74
550.92	2084.32
551.28	2091.49
551.64	2098.69
551.99	2105.27
552.35	2111.73
552.70	2118.00
553.06	2124.12
553.41	2130.74
553.77	2136.94
554.13	2143.21
554.48	2149.49
554.84	2155.43
555.19	2160.86
555.55	2166.20
555.90	2170.93
556.26	2176.37
556.61	2181.30
556.97	2186.22
557.32	2190.78
557.68	2195.20
558.03	2199.57
558.39	2203.60
558.74	2208.58
559.10	2212.82
559.45	2216.79
559.81	2221.17
560.16	2225.48
560.52	2229.14
560.87	2232.77
561.23	2235.78
561.58	2238.96
561.94	2242.02
562.29	2244.53
562.64	2247.76
563.00	2250.64
563.35	2254.35
563.71	2257.70
564.06	2261.20
564.42	2264.42
564.77	2267.30
565.12	2270.14
565.48	2272.62
565.83	2274.96
566.19	2276.59
566.54	2277.70
566.89	2279.27
567.25	2280.45
567.60	2281.91
567.96	2284.00
568.31	2285.15
568.66	2286.76
569.02	2287.85
569.37	2288.49
569.72	2289.78
570.08	2290.19
570.43	2290.57
570.78	2290.44
571.14	2289.31
571.49	2288.18
571.84	2288.09
572.20	2287.36
572.55	2286.54
572.90	2285.27
573.26	2284.20
573.61	2282.73
573.96	2281.58
574.31	2279.11
574.67	2276.53
575.02	2273.30
575.37	2270.08
575.72	2266.76
576.08	2263.59
576.43	2260.37
576.78	2257.22
577.13	2254.43
577.49	2251.51
577.84	2248.51
578.19	2245.12
578.54	2241.80
578.90	2238.23
579.25	2232.99
579.60	2228.45
579.95	2223.82
580.30	2219.02
580.66	2214.17
581.01	2209.55
581.36	2204.79
581.71	2200.93
582.06	2196.79
582.42	2192.66
582.77	2187.94
583.12	2183.69
583.47	2179.45
583.82	2174.95
584.17	2169.81
584.53	2164.56
584.88	2159.37
585.23	2153.95
585.58	2148.74
585.93	2143.69
586.28	2138.91
586.63	2134.07
586.98	2129.03
587.34	2124.51
587.69	2119.65
588.04	2114.86
588.39	2109.61
588.74	2103.35
589.09	2097.42
589.44	2090.92
589.79	2085.03
590.14	2079.47
590.49	2072.98
590.84	2066.64
591.19	2060.90
591.54	2054.71
591.89	2047.58
592.25	2041.10
592.60	2034.09
592.95	2026.78
593.30	2019.53
593.65	2012.16
594.00	2005.23
594.35	1998.25
594.70	1990.33
595.05	1983.59
595.40	1976.23
595.75	1968.77
596.10	1962.95
596.45	1956.36
596.80	1950.23
597.15	1943.69
597.50	1936.89
597.85	1930.64
598.19	1924.25
598.54	1917.29
598.89	1910.73
599.24	1904.88
599.59	1898.44
599.94	1892.15
600.29	1885.84
600.64	1879.32
600.99	1872.03
601.34	1865.44
601.69	1858.48
602.04	1851.91
602.39	1844.56
602.74	1837.89
603.08	1831.26
603.43	1824.42
603.78	1817.10
604.13	1809.91
604.48	1802.90
604.83	1795.92
605.18	1789.12
605.53	1781.20
605.87	1773.11
606.22	1765.71
606.57	1757.79
606.92	1750.01
607.27	1743.04
607.62	1736.30
607.96	1729.17
608.31	1722.76
608.66	1715.16
609.01	1707.75
609.36	1700.03
609.70	1692.05
610.05	1683.95
610.40	1676.28
610.75	1667.99
611.10	1660.43
611.44	1651.93
611.79	1643.82
612.14	1635.20
612.49	1625.97
612.83	1617.43
613.18	1609.16
613.53	1601.24
613.88	1592.67
614.22	1584.42
614.57	1575.57
614.92	1567.40
615.27	1559.80
615.61	1551.35
615.96	1543.14
616.31	1535.32
616.65	1527.99
617.00	1520.43
617.35	1512.73
617.70	1504.42
618.04	1495.82
618.39	1487.29
618.74	1479.67
619.08	1471.27
619.43	1463.51
619.78	1456.34
620.12	1449.10
620.47	1441.52
620.82	1433.06
621.16	1425.47
621.51	1417.82
621.85	1410.11
622.20	1401.45
622.55	1392.79
622.89	1384.74
623.24	1376.97
623.59	1369.44
623.93	1361.65
624.28	1354.27
624.62	1346.73
624.97	1339.27
625.32	1332.45
625.66	1325.45
626.01	1318.26
626.35	1310.96
626.70	1303.18
627.04	1295.42
627.39	1287.52
627.73	1280.06
628.08	1273.14
628.43	1265.97
628.77	1258.59
629.12	1251.04
629.46	1243.86
629.81	1236.30
630.15	1229.00
630.50	1221.60
630.84	1213.35
631.19	1205.28
631.53	1197.62
631.88	1189.84
632.22	1182.25
632.57	1174.73
632.91	1167.04
633.26	1159.55
633.60	1151.90
633.95	1144.64
634.29	1137.49
634.64	1130.72
634.98	1123.38
635.32	1116.07
635.67	1109.23
636.01	1102.40
636.36	1095.55
636.70	1088.86
637.05	1082.38
637.39	1075.83
637.73	1069.29
638.08	1063.26
638.42	1057.20
638.77	1050.75
639.11	1044.20
639.45	1037.69
639.80	1031.05
640.14	1024.55
640.49	1017.94
640.83	1011.61
641.17	1005.47
641.52	999.15
641.86	992.62
642.20	986.72
642.55	980.32
642.89	973.90
643.23	967.25
643.58	961.35
643.92	955.19
644.26	949.08
644.61	942.96
644.95	936.94
645.29	930.45
645.64	923.74
645.98	917.32
646.32	911.26
646.66	905.17
647.01	899.30
647.35	893.59
647.69	887.67
648.04	882.09
648.38	876.19
648.72	870.20
649.06	864.26
649.41	858.29
649.75	852.42
650.09	846.40
650.43	840.78
650.78	834.65
651.12	828.63
651.46	822.86
651.80	817.22
652.14	811.70
652.49	806.30
652.83	801.10
653.17	795.51
653.51	789.94
653.85	784.47
654.20	778.87
654.54	772.91
654.88	767.12
655.22	761.12
655.56	755.35
655.90	749.86
656.25	744.54
656.59	739.12
656.93	734.00
657.27	728.87
657.61	723.32
657.95	718.20
658.29	713.11
658.64	707.81
658.98	702.31
659.32	696.89
659.66	691.74
660.00	686.43
660.34	681.42
660.68	676.44
661.02	671.44
661.36	666.71
661.70	662.20
662.05	657.91
662.39	653.59
662.73	649.08
663.07	644.64
663.41	640.13
663.75	635.71
664.09	631.06
664.43	626.64
664.77	622.60
665.11	618.34
665.45	614.16
665.79	610.11
666.13	606.12
666.47	601.98
666.81	597.76
667.15	593.60
667.49	589.70
667.83	585.77
668.17	581.83
668.51	577.68
668.85	573.58
669.19	569.59
669.53	565.81
669.87	561.97
670.21	558.25
670.55	554.63
670.89	551.13
671.23	547.74
671.57	544.19
671.91	540.54
672.25	536.95
672.58	533.41
672.92	529.95
673.26	526.65
673.60	523.42
673.94	520.27
674.28	517.31
674.62	514.27
674.96	511.24
675.30	508.31
675.64	505.39
675.97	502.60
676.31	499.74
676.65	496.79
676.99	494.02
677.33	491.16
677.67	488.24
678.01	485.23
678.34	482.20
678.68	479.30
679.02	476.48
679.36	473.61
679.70	470.86
680.04	468.03
680.37	465.15
680.71	462.36
681.05	459.69
681.39	456.95
681.73	454.25
682.06	451.65
682.40	449.04
682.74	446.45
683.08	443.87
683.42	441.26
683.75	438.72
684.09	436.09
684.43	433.52
684.77	431.01
685.10	428.58
685.44	426.25
685.78	423.89
686.12	421.61
686.45	419.39
686.79	417.12
687.13	414.94
687.46	412.79
687.80	410.61
688.14	408.35
688.48	406.26
688.81	404.03
689.15	401.87
689.49	399.72
689.82	397.64
690.16	395.48
690.50	393.45
690.83	391.50
691.17	389.56
691.51	387.65
691.84	385.84
692.18	383.89
692.52	381.95
692.85	380.02
693.19	378.14
693.52	376.23
693.86	374.35
694.20	372.50
694.53	370.67
694.87	368.80
695.21	366.99
695.54	365.14
695.88	363.34
696.21	361.57
696.55	359.87
696.88	358.14
697.22	356.44
697.56	354.84
697.89	353.16
698.23	351.50
698.56	349.87
698.90	348.29
699.23	346.65
699.57	345.03
699.90	343.49
700.24	341.90
700.58	340.42
700.91	338.90
701.25	337.50
701.58	336.10
701.92	334.74
702.25	333.37
702.59	331.98
702.92	330.68
703.26	329.33
703.59	328.05
703.93	326.83
704.26	325.67
704.60	324.39
704.93	323.07
705.26	321.83
705.60	320.63
705.93	319.42
706.27	318.36
706.60	317.33
706.94	316.20
707.27	315.04
707.61	313.92
707.94	312.89
708.27	311.72
708.61	310.58
708.94	309.50
709.28	308.48
709.61	307.53
709.94	306.60
710.28	305.61
710.61	304.55
710.95	303.49
711.28	302.51
711.61	301.50
711.95	300.61
712.28	299.63
712.61	298.63
712.95	297.70
713.28	296.77
713.61	295.81
713.95	294.89
714.28	294.06
714.61	293.16
714.95	292.32
715.28	291.45
715.61	290.58
715.95	289.74
716.28	288.89
716.61	288.03
716.95	287.13
717.28	286.34
717.61	285.58
717.94	284.81
718.28	283.96
718.61	283.21
718.94	282.48
719.27	281.81
719.61	281.17
719.94	280.49
720.27	279.75
720.60	279.08
720.94	278.41
721.27	277.83
721.60	277.23
721.93	276.61
722.27	276.03
722.60	275.50
722.93	274.89
723.26	274.35
723.59	273.77
723.93	273.21
724.26	272.64
724.59	272.04
724.92	271.51
725.25	270.99
725.59	270.44
725.92	269.90
726.25	269.36
726.58	268.84
726.91	268.33
727.24	267.87
727.57	267.37
727.91	266.88
728.24	266.35
728.57	265.87
728.90	265.39
729.23	264.91
729.56	264.41
729.89	263.92
730.22	263.40
730.55	262.93
730.89	262.49
731.22	262.05
731.55	261.59
731.88	261.15
732.21	260.76
732.54	260.34
732.87	259.91
733.20	259.51
733.53	259.11
733.86	258.75
734.19	258.34
734.52	257.96
734.85	257.63
735.18	257.25
735.51	256.87
735.84	256.52
736.17	256.14
736.50	255.75
736.83	255.54
737.16	255.19
737.49	254.81
737.82	254.46
738.15	254.14
738.48	253.84
738.81	253.51
739.14	253.17
739.47	252.81
739.80	252.50
740.13	252.22
740.46	251.88
740.79	251.53
741.12	251.22
741.45	250.94
741.78	250.63
742.11	250.33
742.44	249.99
742.77	249.66
743.10	249.39
743.43	249.12
743.75	248.75
744.08	248.62
744.41	248.39
744.74	248.10
745.07	247.78
745.40	247.54
745.73	247.29
746.06	247.00
746.39	246.76
746.71	246.48
747.04	246.18
747.37	245.91
747.70	245.71
748.03	245.44
748.36	245.17
748.68	244.92
749.01	244.67
749.34	244.45
749.67	244.24
750.00	243.99
750.33	243.83
750.65	243.59
750.98	243.23
751.31	243.02
751.64	242.79
751.97	242.63
752.29	242.38
752.62	242.13
752.95	241.92
753.28	241.73
753.60	241.51
753.93	241.33
754.26	241.12
754.59	240.84
754.91	240.61
755.24	240.41
755.57	240.22
755.90	240.00
756.22	239.79
756.55	239.59
756.88	239.38
757.20	239.16
757.53	238.93
757.86	238.78
758.19	238.57
758.51	238.40
758.84	238.22
759.17	238.09
759.49	237.93
759.82	237.78
760.15	237.60
760.47	237.46
760.80	237.27
761.13	237.14
761.45	237.00
761.78	236.87
762.11	236.70
762.43	236.52
762.76	236.40
763.08	236.23
763.41	236.08
763.74	235.95
764.06	235.79
764.39	235.66
764.71	235.48
765.04	235.34
765.37	235.18
765.69	235.02
766.02	234.86
766.34	234.71
766.67	234.58
767.00	234.46
767.32	234.41
767.65	234.33
767.97	234.21
768.30	234.11
768.62	233.99
768.95	233.88
769.27	233.76
769.60	233.66
769.92	233.55
770.25	233.44
770.57	233.31
770.90	233.19
771.22	233.07
771.55	233.00
771.87	232.91
772.20	232.83
772.52	232.82
772.85	232.81
773.17	232.72
773.50	232.61
773.82	232.51
774.15	232.38
774.47	232.27
774.80	232.15
775.12	232.09
775.45	231.99
775.77	231.94
776.09	231.87
776.42	231.74
776.74	231.72
777.07	231.64
777.39	231.59
777.72	231.49
778.04	231.47
778.36	231.36
778.69	231.31
779.01	231.27
779.33	231.14
779.66	230.98
779.98	230.92
780.31	230.81
780.63	230.81
780.95	230.72
781.28	230.65
781.60	230.62
781.92	230.52
782.25	230.49
782.57	230.43
782.89	230.36
783.22	230.34
783.54	230.27
783.86	230.25
784.19	230.19
784.51	230.19
784.83	230.12
785.16	230.11
785.48	230.06
785.80	230.01
786.12	229.97
786.45	229.94
786.77	229.92
787.09	229.96
787.42	229.89
787.74	229.87
788.06	229.81
788.38	229.79
788.71	229.77
789.03	229.74
789.35	229.68
789.67	229.63
789.99	229.61
790.32	229.54
790.64	229.52
790.96	229.58
791.28	229.54
791.61	229.53
791.93	229.51
792.25	229.47
792.57	229.52
792.89	229.48
793.21	229.40
793.54	229.36
793.86	229.28
794.18	229.26
794.50	229.22
794.82	229.20
795.14	229.15
795.47	229.14
795.79	229.12
796.11	229.08
796.43	229.02
796.75	228.99
797.07	228.97
797.39	228.88
797.71	228.78
798.04	228.71
798.36	228.63
798.68	228.58
799.00	228.51
799.32	228.38
799.64	228.37
799.96	228.37
800.28	228.30
800.60	228.26
800.92	228.18
801.24	228.12
801.56	228.06
801.89	228.00
802.21	227.92
802.53	227.85
802.85	227.84
803.17	227.86
803.49	227.77
803.81	227.70
804.13	227.68
804.45	227.60
804.77	227.59
805.09	227.56
805.41	227.54
805.73	227.51
806.05	227.45
806.37	227.38
806.69	227.32
807.01	227.33
807.33	227.30
807.65	227.26
807.97	227.27
808.28	227.24
808.60	227.25
808.92	227.24
809.24	227.27
809.56	227.24
809.88	227.19
810.20	227.22
810.52	227.22
810.84	227.16
811.16	227.12
811.48	227.10
811.80	227.11
812.12	227.06
812.43	227.05
812.75	227.04
813.07	227.03
813.39	227.01
813.71	226.96
814.03	226.91
814.35	226.89
814.67	226.85
814.98	226.80
815.30	226.77
815.62	226.74
815.94	226.65
816.26	226.66
816.58	226.60
816.89	226.56
817.21	226.55
817.53	226.57
817.85	226.58
818.17	226.52
818.48	226.48
818.80	226.45
819.12	226.39
819.44	226.37
819.76	226.35
820.07	226.35
820.39	226.32
820.71	226.34
821.03	226.33
821.34	226.30
821.66	226.32
821.98	226.29
822.30	226.29
822.61	226.35
822.93	226.29
823.25	226.30
823.57	226.33
823.88	226.33
824.20	226.30
824.52	226.32
824.83	226.35
825.15	226.31
825.47	226.34
825.79	226.38
826.10	226.38
826.42	226.36
826.74	226.36
827.05	226.35
827.37	226.33
827.69	226.34
828.00	226.35
828.32	226.34
828.64	226.34
828.95	226.38
829.27	226.37
829.58	226.38
829.90	226.39
830.22	226.37
830.53	226.31
830.85	226.30
831.17	226.28
831.48	226.27
831.80	226.25
832.11	226.25
832.43	226.24
832.75	226.21
833.06	226.28
833.38	226.22
833.69	226.24
834.01	226.24
834.32	226.17
834.64	226.12
834.96	226.12
835.27	226.11
835.59	226.05
835.90	226.01
836.22	225.99
836.53	225.97
836.85	225.93
837.16	226.06
837.48	226.06
837.79	226.06
838.11	226.06
838.42	226.06
838.74	226.05
839.05	226.02
839.37	226.04
839.68	225.96
840.00	226.01
840.31	226.00
840.63	226.01
840.94	226.05
841.26	226.05
841.57	226.01
841.88	225.98
842.20	225.94
842.51	225.89
842.83	225.88
843.14	225.93
843.46	225.90
843.77	225.82
844.08	225.80
844.40	225.75
844.71	225.71
845.03	225.70
845.34	225.65
845.65	225.63
845.97	225.59
846.28	225.59
846.60	225.56
846.91	225.55
847.22	225.51
847.54	225.51
847.85	225.52
848.16	225.53
848.48	225.54
848.79	225.56
849.10	225.59
849.42	225.59
849.73	225.49
850.04	225.52
850.36	225.49
850.67	225.51
850.98	225.51
851.30	225.52
851.61	225.51
851.92	225.55
852.23	225.60
852.55	225.62
852.86	225.63
853.17	225.63
853.49	225.65
853.80	225.66
854.11	225.63
854.42	225.63
854.74	225.63
855.05	225.60
855.36	225.56
855.67	225.55
855.99	225.54
856.30	225.63
856.61	225.62
856.92	225.56
857.23	225.54
857.55	225.53
857.86	225.55
858.17	225.55
858.48	225.51
858.79	225.46
859.11	225.46
859.42	225.41
859.73	225.39
860.04	225.39
860.35	225.37
860.66	225.36
860.98	225.37
861.29	225.39
861.60	225.40
861.91	225.42
862.22	225.40
862.53	225.39
862.84	225.33
863.16	225.37
863.47	225.39
863.78	225.36
864.09	225.37
864.40	225.35
864.71	225.36
865.02	225.36
865.33	225.38
865.64	225.36
865.95	225.38
866.27	225.44
866.58	225.41
866.89	225.43
867.20	225.44
867.51	225.44
867.82	225.40
868.13	225.41
868.44	225.40
868.75	225.46
869.06	225.49
869.37	225.49
869.68	225.41
869.99	225.44
870.30	225.49
870.61	225.50
870.92	225.50
871.23	225.47
871.54	225.51
871.85	225.51
872.16	225.50
872.47	225.48
872.78	225.40
873.09	225.41
873.40	225.37
873.71	225.35
874.02	225.35
874.33	225.32
874.64	225.31
874.95	225.32
875.26	225.24
875.56	225.22
875.87	225.20
876.18	225.24
876.49	225.31
876.80	225.28
877.11	225.27
877.42	225.25
877.73	225.24
878.04	225.21
878.35	225.21
878.66	225.23
878.96	225.24
879.27	225.22
879.58	225.22
879.89	225.20
880.20	225.24
880.51	225.19
880.82	225.20
881.12	225.15
881.43	225.12
881.74	225.12
882.05	225.08
882.36	225.07
882.67	225.03
882.97	224.95
883.28	224.93
883.59	224.89
883.90	224.92
884.21	224.90
884.51	224.89
884.82	224.87
885.13	224.84
885.44	224.83
885.74	224.85
886.05	224.81
886.36	224.82
886.67	224.77
886.98	224.82
887.28	224.84
887.59	224.88
887.90	224.88
888.20	224.87
888.51	224.91
888.82	224.92
889.13	224.93
889.43	225.00
889.74	224.98
890.05	224.98
890.35	224.97
890.66	224.96
890.97	224.95
891.28	224.94
891.58	224.97
891.89	224.95
892.20	224.94
892.50	224.95
892.81	224.95
893.12	224.99
893.42	224.98
893.73	224.96
894.04	224.95
894.34	224.98
894.65	224.98
894.95	224.97
895.26	224.96
895.57	224.99
895.87	224.87
896.18	224.93
896.48	224.93
896.79	224.94
897.10	224.98
897.40	225.01
897.71	225.01
898.01	225.02
898.32	225.07
898.63	225.09
898.93	225.09
899.24	225.09
899.54	225.08
899.85	225.05
900.15	225.07
900.46	225.08
900.76	225.11
901.07	225.13
901.38	225.14
901.68	225.17
901.99	225.14
902.29	225.18
902.60	225.18
902.90	225.19
903.21	225.16
903.51	225.17
903.82	225.19
904.12	225.20
904.43	225.19
904.73	225.16
905.03	225.16
905.34	225.24
905.64	225.24
905.95	225.25
906.25	225.26
906.56	225.27
906.86	225.29
907.17	225.23
907.47	225.22
907.77	225.20
908.08	225.15
908.38	225.14
908.69	225.17
908.99	225.17
909.30	225.17
909.60	225.21
909.90	225.21
910.21	225.17
910.51	225.16
910.81	225.16
911.12	225.16
911.42	225.19
911.73	225.11
912.03	225.09
912.33	225.12
912.64	225.12
912.94	225.09
913.24	225.07
913.55	225.06
913.85	225.07
914.15	225.09
914.46	225.13
914.76	225.13
915.06	225.11
915.37	225.08
915.67	225.07
915.97	225.04
916.27	225.02
916.58	225.04
916.88	225.00
917.18	225.03
917.49	225.09
917.79	225.04
918.09	225.03
918.39	225.07
918.70	225.04
919.00	225.01
919.30	225.06
919.60	225.02
919.91	225.04
920.21	225.03
920.51	224.99
920.81	224.99
921.12	225.04
921.42	225.00
921.72	225.01
922.02	225.00
922.32	225.03
922.63	225.02
922.93	225.08
923.23	225.08
923.53	225.00
923.83	224.94
924.13	224.97
924.44	224.96
924.74	224.97
925.04	225.00
925.34	225.03
925.64	224.98
925.94	225.02
926.24	225.06
926.55	225.04
926.85	225.03
927.15	225.01
927.45	224.99
927.75	224.98
928.05	224.95
928.35	224.94
928.65	224.96
928.95	224.97
929.26	224.91
929.56	224.95
929.86	224.97
930.16	224.97
930.46	224.94
930.76	224.99
931.06	224.95
931.36	224.88
931.66	224.87
931.96	224.90
932.26	224.87
932.56	224.83
932.86	224.84
933.16	224.85
933.46	224.85
933.76	224.86
934.06	224.89
934.36	224.90
934.66	224.91
934.96	224.87
935.26	224.86
935.56	224.87
935.86	224.84
936.16	224.86
936.46	224.85
936.76	224.88
937.06	224.87
937.36	224.90
937.66	224.93
937.96	224.95
938.26	224.90
938.56	224.90
938.86	224.92
939.16	224.95
939.46	224.98
939.76	225.02
940.06	225.01
940.35	225.01
940.65	225.01
940.95	225.02
941.25	225.04
941.55	225.01
941.85	224.98
942.15	225.00
942.45	225.01
942.75	225.00
943.04	224.99
943.34	224.99
943.64	225.00
943.94	225.00
944.24	224.99
944.54	225.02
944.84	225.04
945.13	225.04
945.43	225.02
945.73	225.00
946.03	224.98
946.33	224.97
946.62	224.97
946.92	224.98
947.22	225.00
947.52	224.98
947.82	225.00
948.11	225.02
948.41	225.01
948.71	224.98
949.01	225.02
949.31	225.00
949.60	225.01
949.90	225.02
950.20	225.02
950.50	225.02
950.79	225.04
951.09	225.05
951.39	225.08
951.69	225.07
951.98	225.10
952.28	225.09
952.58	225.11
952.87	225.11
953.17	225.07
953.47	225.06
953.76	225.06
954.06	225.04
954.36	225.05
954.66	225.05
954.95	225.08
955.25	225.09
955.55	225.12
955.84	225.10
956.14	225.08
956.44	225.09
956.73	225.06
957.03	225.06
957.32	225.05
957.62	224.99
957.92	224.99
958.21	224.95
958.51	225.08
958.81	225.07
959.10	225.07
959.40	225.12
959.69	225.13
959.99	225.16
960.29	225.16
960.58	225.09
960.88	225.14
961.17	225.12
961.47	225.10
961.76	225.07
962.06	225.05
962.36	225.02
962.65	224.96
962.95	224.98
963.24	224.97
963.54	224.98
963.83	224.99
964.13	225.00
964.42	224.97
964.72	224.88
965.01	224.89
965.31	224.88
965.60	224.86
965.90	224.92
966.19	224.89
966.49	224.91
966.78	224.95
967.08	224.93
967.37	224.94
967.67	224.96
967.96	224.96
968.26	224.97
968.55	224.99
968.85	225.05
969.14	225.03
969.43	225.03
969.73	224.99
970.02	224.99
970.32	224.97
970.61	224.98
970.91	224.95
971.20	224.91
971.49	224.87
971.79	224.89
972.08	224.82
972.38	224.79
972.67	224.79
972.96	224.81
973.26	224.78
973.55	224.82
973.85	224.77
974.14	224.79
974.43	224.79
974.73	224.82
975.02	224.80
975.31	224.83
975.61	224.81
975.90	224.81
976.19	224.81
976.49	224.81
976.78	224.81
977.07	224.82
977.37	224.86
977.66	224.91
977.95	224.90
978.24	224.88
978.54	224.94
978.83	224.92
979.12	224.91
979.42	224.92
979.71	224.89
980.00	224.93
980.29	224.95
980.59	224.94
980.88	224.93
981.17	224.94
981.46	224.91
981.76	224.92
982.05	224.96
982.34	224.97
982.63	225.00
982.93	225.02
983.22	225.02
983.51	225.03
983.80	225.05
984.09	225.05
984.39	225.05
984.68	225.01
984.97	225.03
985.26	225.02
985.55	225.04
985.85	225.01
986.14	225.01
986.43	225.00
986.72	225.01
987.01	224.96
987.30	224.99
987.59	225.03
987.89	225.02
988.18	225.02
988.47	225.01
988.76	224.98
989.05	225.00
989.34	224.99
989.63	225.00
989.92	224.98
990.22	224.95
990.51	224.96
990.80	224.98
991.09	224.99
991.38	224.99
991.67	224.95
991.96	224.96
992.25	224.95
992.54	224.95
992.83	224.94
993.12	224.95
993.41	224.89
993.70	224.92
993.99	224.94
994.28	224.93
994.58	224.95
994.87	224.95
995.16	224.95
995.45	224.93
995.74	224.89
996.03	224.88
996.32	224.89
996.61	224.90
996.90	224.87
997.19	224.86
997.48	224.86
997.77	224.85
998.06	224.82
998.34	224.78
998.63	224.75
998.92	224.73
999.21	224.74
999.50	224.73
999.79	224.67
1000.08	224.66
1000.37	224.64
1000.66	224.61
1000.95	224.60
1001.24	224.55
1001.53	224.56
1001.82	224.58
1002.11	224.56
1002.40	224.57
1002.68	224.61
1002.97	224.67
1003.26	224.67
1003.55	224.65
1003.84	224.66
1004.13	224.71
1004.42	224.73
1004.71	224.72
1004.99	224.73
1005.28	224.73
1005.57	224.75
1005.86	224.75
1006.15	224.71
1006.44	224.70
1006.72	224.72
1007.01	224.71
1007.30	224.74
1007.59	224.72
1007.88	224.67
1008.17	224.70
1008.45	224.69
1008.74	224.61
1009.03	224.58
1009.32	224.57
1009.60	224.60
1009.89	224.59
1010.18	224.53
1010.47	224.54
1010.76	224.54
1011.04	224.54
1011.33	224.54
1011.62	224.56
1011.91	224.55
1012.19	224.58
1012.48	224.59
1012.77	224.55
1013.05	224.57
1013.34	224.56
1013.63	224.58
1013.92	224.61
1014.20	224.57
1014.49	224.59
1014.78	224.62
1015.06	224.58
1015.35	224.59
1015.64	224.59
1015.92	224.58
1016.21	224.62
1016.50	224.64
1016.78	224.66
1017.07	224.68
1017.36	224.68
1017.64	224.70
1017.93	224.72
1018.22	224.72
1018.50	224.70
1018.79	224.71
1019.08	224.69
1019.36	224.75
1019.65	224.77
1019.93	224.80
1020.22	224.84
1020.51	224.90
1020.79	224.86
1021.08	224.63
1021.36	224.09
1021.65	224.34
1021.94	224.36
1022.22	225.58
1022.51	225.34
1022.79	225.34
1023.08	225.12
1023.36	226.31
1023.65	224.17
>>>>>End Processed Spectral Data<<<<<
