SpectraSuite Data File
++++++++++++++++++++++++++++++++++++
Date: Fri Feb 01 15:12:04 EST 2013
User: group
Dark Spectrum Present: No
Reference Spectrum Present: No
Number of Sampled Component Spectra: 1
Spectrometers: USB2E7196
Integration Time (usec): 35000 (USB2E7196)
Spectra Averaged: 100 (USB2E7196)
Boxcar Smoothing: 10 (USB2E7196)
Correct for Electrical Dark: No (USB2E7196)
Strobe/Lamp Enabled: No (USB2E7196)
Correct for Detector Non-linearity: No (USB2E7196)
Correct for Stray Light: No (USB2E7196)
Number of Pixels in Processed Spectrum: 2048
>>>>>Begin Processed Spectral Data<<<<<
339.09	0.00
339.48	215.49
339.86	216.53
340.24	218.51
340.63	219.66
341.01	222.58
341.39	222.68
341.78	223.44
342.16	225.57
342.54	225.21
342.93	213.64
343.31	224.42
343.69	224.94
344.07	225.43
344.46	225.83
344.84	226.22
345.22	226.45
345.60	226.67
345.99	226.85
346.37	226.94
346.75	227.06
347.13	227.09
347.52	227.11
347.90	227.16
348.28	227.19
348.66	227.25
349.05	227.28
349.43	227.31
349.81	227.37
350.19	227.40
350.57	227.50
350.96	227.55
351.34	227.65
351.72	227.73
352.10	227.78
352.48	227.86
352.87	227.90
353.25	227.92
353.63	227.97
354.01	228.02
354.39	228.11
354.77	228.17
355.15	228.29
355.54	228.37
355.92	228.40
356.30	228.50
356.68	228.62
357.06	228.69
357.44	228.71
357.82	228.74
358.20	228.81
358.58	228.86
358.97	228.95
359.35	229.01
359.73	229.07
360.11	229.14
360.49	229.16
360.87	229.23
361.25	229.32
361.63	229.39
362.01	229.44
362.39	229.43
362.77	229.45
363.15	229.47
363.53	229.49
363.91	229.54
364.29	229.53
364.67	229.46
365.05	229.46
365.43	229.50
365.81	229.52
366.19	229.58
366.57	229.62
366.95	229.60
367.33	229.58
367.71	229.57
368.09	229.55
368.47	229.56
368.85	229.50
369.23	229.48
369.61	229.42
369.99	229.45
370.37	229.44
370.75	229.44
371.13	229.38
371.51	229.33
371.89	229.25
372.27	229.25
372.65	229.23
373.03	229.17
373.41	229.11
373.78	229.03
374.16	228.89
374.54	228.79
374.92	228.70
375.30	228.62
375.68	228.54
376.06	228.49
376.44	228.40
376.82	228.34
377.19	228.28
377.57	228.23
377.95	228.09
378.33	227.99
378.71	227.87
379.09	227.82
379.47	227.78
379.84	227.68
380.22	227.54
380.60	227.45
380.98	227.37
381.36	227.28
381.73	227.25
382.11	227.17
382.49	227.12
382.87	227.03
383.25	226.97
383.62	227.03
384.00	226.94
384.38	226.84
384.76	226.83
385.13	226.78
385.51	226.70
385.89	226.66
386.27	226.63
386.64	226.58
387.02	226.52
387.40	226.44
387.78	226.44
388.15	226.43
388.53	226.41
388.91	226.38
389.29	226.36
389.66	226.33
390.04	226.34
390.42	226.31
390.79	226.32
391.17	226.33
391.55	226.23
391.92	226.23
392.30	226.25
392.68	226.22
393.05	226.22
393.43	226.24
393.81	226.23
394.18	226.26
394.56	226.27
394.94	226.32
395.31	226.33
395.69	226.41
396.06	226.46
396.44	226.50
396.82	226.53
397.19	226.62
397.57	226.67
397.95	226.73
398.32	226.77
398.70	226.83
399.07	226.91
399.45	226.97
399.82	227.06
400.20	227.17
400.58	227.25
400.95	227.28
401.33	227.37
401.70	227.56
402.08	227.67
402.45	227.79
402.83	227.91
403.20	228.04
403.58	228.14
403.95	228.28
404.33	228.42
404.71	228.53
405.08	228.72
405.46	228.88
405.83	229.01
406.21	229.17
406.58	229.32
406.96	229.47
407.33	229.63
407.70	229.82
408.08	230.09
408.45	230.29
408.83	230.53
409.20	230.76
409.58	230.91
409.95	231.16
410.33	231.44
410.70	231.72
411.08	232.02
411.45	232.31
411.82	232.60
412.20	232.93
412.57	233.37
412.95	233.65
413.32	234.02
413.69	234.43
414.07	234.87
414.44	235.37
414.82	235.84
415.19	236.39
415.56	236.92
415.94	237.46
416.31	238.08
416.68	238.74
417.06	239.45
417.43	240.16
417.81	240.90
418.18	241.63
418.55	242.42
418.93	243.31
419.30	244.19
419.67	245.15
420.04	246.12
420.42	247.13
420.79	248.32
421.16	249.49
421.54	250.73
421.91	251.94
422.28	253.18
422.66	254.51
423.03	255.79
423.40	257.15
423.77	258.57
424.15	260.03
424.52	261.50
424.89	263.12
425.26	264.68
425.64	266.15
426.01	267.79
426.38	269.45
426.75	271.12
427.13	272.89
427.50	274.71
427.87	276.60
428.24	278.47
428.61	280.20
428.99	282.14
429.36	284.22
429.73	286.32
430.10	288.37
430.47	290.50
430.85	292.66
431.22	294.92
431.59	297.29
431.96	299.57
432.33	302.05
432.70	304.41
433.08	307.23
433.45	309.89
433.82	312.48
434.19	315.42
434.56	318.24
434.93	320.88
435.30	323.50
435.68	326.38
436.05	329.23
436.42	332.09
436.79	334.66
437.16	337.44
437.53	340.27
437.90	343.07
438.27	345.77
438.64	348.62
439.01	351.19
439.38	353.48
439.75	355.66
440.13	358.18
440.50	360.58
440.87	362.50
441.24	364.47
441.61	366.69
441.98	368.19
442.35	370.02
442.72	371.86
443.09	373.70
443.46	374.73
443.83	375.32
444.20	375.84
444.57	376.66
444.94	376.86
445.31	377.19
445.68	377.56
446.05	377.64
446.42	377.27
446.79	376.90
447.16	376.44
447.53	376.13
447.90	375.02
448.27	373.84
448.64	372.23
449.01	371.09
449.37	369.10
449.74	367.16
450.11	364.87
450.48	362.39
450.85	359.84
451.22	357.69
451.59	355.63
451.96	353.67
452.33	351.01
452.70	348.67
453.07	345.85
453.43	342.96
453.80	340.21
454.17	337.46
454.54	334.83
454.91	332.06
455.28	329.36
455.65	326.82
456.02	324.35
456.38	322.16
456.75	319.48
457.12	317.20
457.49	314.99
457.86	312.83
458.23	310.99
458.59	308.92
458.96	306.80
459.33	304.94
459.70	303.04
460.07	301.54
460.43	299.84
460.80	298.21
461.17	296.76
461.54	295.23
461.91	293.83
462.27	292.44
462.64	291.19
463.01	289.78
463.38	288.47
463.74	287.07
464.11	285.89
464.48	284.84
464.85	283.76
465.21	282.90
465.58	281.97
465.95	280.85
466.32	279.90
466.68	279.00
467.05	278.10
467.42	277.19
467.78	276.26
468.15	275.35
468.52	274.69
468.88	273.77
469.25	272.98
469.62	272.35
469.98	271.66
470.35	271.01
470.72	270.45
471.08	269.77
471.45	269.26
471.82	268.71
472.18	268.11
472.55	267.63
472.92	267.07
473.28	266.61
473.65	266.18
474.02	265.77
474.38	265.39
474.75	265.02
475.11	264.66
475.48	264.42
475.85	264.20
476.21	263.95
476.58	263.76
476.94	263.61
477.31	263.41
477.67	263.22
478.04	263.10
478.41	263.03
478.77	263.09
479.14	263.02
479.50	262.98
479.87	263.06
480.23	263.14
480.60	263.22
480.96	263.35
481.33	263.54
481.69	263.74
482.06	263.93
482.42	264.15
482.79	264.44
483.15	264.72
483.52	265.05
483.88	265.39
484.25	265.78
484.61	266.23
484.98	266.72
485.34	267.35
485.71	267.94
486.07	268.54
486.44	269.12
486.80	269.80
487.17	270.58
487.53	271.40
487.90	272.25
488.26	273.19
488.62	274.13
488.99	275.10
489.35	276.13
489.72	277.29
490.08	278.50
490.44	279.75
490.81	281.08
491.17	282.44
491.54	283.90
491.90	285.45
492.26	287.07
492.63	288.78
492.99	290.53
493.36	292.43
493.72	294.45
494.08	296.54
494.45	298.77
494.81	301.09
495.17	303.47
495.54	306.06
495.90	308.70
496.26	311.43
496.63	314.39
496.99	317.54
497.35	320.79
497.72	324.17
498.08	327.62
498.44	331.27
498.80	335.21
499.17	339.24
499.53	343.43
499.89	347.83
500.26	352.35
500.62	357.00
500.98	361.97
501.34	366.98
501.71	372.30
502.07	377.76
502.43	383.36
502.79	389.17
503.16	395.16
503.52	401.43
503.88	407.87
504.24	414.44
504.60	421.23
504.97	428.34
505.33	435.67
505.69	443.39
506.05	451.15
506.41	459.04
506.78	467.18
507.14	475.57
507.50	484.20
507.86	493.16
508.22	502.36
508.59	511.57
508.95	521.17
509.31	530.97
509.67	541.03
510.03	551.30
510.39	561.85
510.75	572.73
511.12	583.67
511.48	594.98
511.84	606.40
512.20	617.94
512.56	629.89
512.92	642.05
513.28	654.41
513.64	666.89
514.00	679.58
514.37	692.58
514.73	705.58
515.09	718.68
515.45	732.01
515.81	745.59
516.17	759.56
516.53	773.73
516.89	787.98
517.25	802.24
517.61	816.69
517.97	831.18
518.33	845.54
518.69	860.34
519.05	875.31
519.41	890.53
519.77	906.20
520.13	921.62
520.49	936.97
520.85	952.37
521.21	968.13
521.57	984.43
521.93	1000.27
522.29	1016.74
522.65	1033.03
523.01	1049.24
523.37	1065.37
523.73	1081.48
524.09	1097.54
524.45	1113.82
524.81	1130.42
525.17	1147.42
525.53	1164.44
525.89	1181.41
526.25	1198.25
526.61	1214.73
526.97	1231.53
527.33	1248.04
527.68	1264.81
528.04	1281.45
528.40	1298.28
528.76	1315.41
529.12	1332.00
529.48	1348.93
529.84	1365.19
530.20	1381.98
530.56	1399.17
530.91	1416.62
531.27	1433.57
531.63	1450.20
531.99	1466.83
532.35	1482.99
532.71	1498.93
533.07	1515.26
533.42	1531.27
533.78	1547.44
534.14	1563.81
534.50	1579.28
534.86	1595.24
535.21	1610.33
535.57	1626.32
535.93	1641.76
536.29	1656.66
536.65	1671.94
537.00	1686.87
537.36	1702.11
537.72	1716.74
538.08	1731.30
538.44	1745.21
538.79	1759.25
539.15	1773.09
539.51	1787.01
539.87	1801.44
540.22	1815.19
540.58	1829.09
540.94	1842.53
541.29	1855.61
541.65	1868.49
542.01	1881.82
542.37	1894.13
542.72	1906.80
543.08	1918.63
543.44	1931.14
543.79	1942.46
544.15	1953.43
544.51	1964.95
544.87	1976.05
545.22	1986.84
545.58	1997.04
545.94	2006.77
546.29	2016.69
546.65	2026.42
547.01	2035.64
547.36	2044.31
547.72	2052.90
548.07	2060.64
548.43	2068.82
548.79	2076.83
549.14	2084.24
549.50	2091.70
549.86	2099.62
550.21	2106.96
550.57	2114.13
550.92	2120.76
551.28	2127.84
551.64	2135.01
551.99	2141.54
552.35	2147.66
552.70	2153.74
553.06	2159.64
553.41	2166.00
553.77	2171.97
554.13	2178.07
554.48	2184.22
554.84	2189.52
555.19	2194.80
555.55	2200.08
555.90	2204.56
556.26	2209.26
556.61	2213.96
556.97	2218.03
557.32	2222.12
557.68	2226.33
558.03	2230.71
558.39	2234.34
558.74	2238.92
559.10	2242.65
559.45	2246.32
559.81	2250.67
560.16	2254.50
560.52	2257.76
560.87	2261.22
561.23	2263.86
561.58	2266.87
561.94	2269.40
562.29	2271.99
562.64	2274.63
563.00	2277.18
563.35	2280.69
563.71	2283.93
564.06	2287.09
564.42	2289.91
564.77	2292.21
565.12	2294.34
565.48	2295.97
565.83	2297.69
566.19	2299.02
566.54	2299.89
566.89	2300.90
567.25	2301.41
567.60	2302.71
567.96	2304.26
568.31	2304.92
568.66	2305.90
569.02	2306.39
569.37	2306.58
569.72	2307.30
570.08	2307.34
570.43	2307.12
570.78	2306.29
571.14	2304.56
571.49	2303.18
571.84	2302.79
572.20	2301.50
572.55	2300.37
572.90	2298.77
573.26	2297.26
573.61	2295.41
573.96	2293.48
574.31	2290.50
574.67	2287.14
575.02	2283.42
575.37	2279.98
575.72	2276.08
576.08	2272.72
576.43	2269.25
576.78	2265.53
577.13	2262.32
577.49	2259.15
577.84	2255.79
578.19	2251.97
578.54	2248.32
578.90	2243.89
579.25	2238.31
579.60	2233.25
579.95	2228.14
580.30	2223.09
580.66	2217.94
581.01	2212.89
581.36	2207.99
581.71	2203.55
582.06	2199.07
582.42	2194.56
582.77	2189.25
583.12	2184.70
583.47	2179.67
583.82	2174.60
584.17	2169.19
584.53	2163.52
584.88	2157.64
585.23	2151.45
585.58	2145.93
585.93	2140.32
586.28	2135.62
586.63	2130.43
586.98	2125.27
587.34	2120.41
587.69	2115.48
588.04	2110.04
588.39	2104.32
588.74	2097.66
589.09	2091.45
589.44	2084.67
589.79	2078.48
590.14	2072.71
590.49	2066.05
590.84	2059.70
591.19	2053.51
591.54	2046.96
591.89	2039.40
592.25	2032.60
592.60	2025.37
592.95	2017.67
593.30	2010.31
593.65	2002.53
594.00	1995.46
594.35	1988.15
594.70	1979.95
595.05	1972.52
595.40	1965.24
595.75	1957.50
596.10	1951.20
596.45	1944.33
596.80	1938.16
597.15	1931.42
597.50	1924.15
597.85	1917.67
598.19	1910.97
598.54	1903.86
598.89	1897.18
599.24	1891.22
599.59	1884.41
599.94	1878.21
600.29	1871.89
600.64	1865.14
600.99	1857.69
601.34	1850.76
601.69	1843.74
602.04	1836.72
602.39	1829.42
602.74	1822.55
603.08	1815.84
603.43	1809.08
603.78	1801.85
604.13	1794.44
604.48	1787.08
604.83	1780.30
605.18	1773.15
605.53	1765.13
605.87	1757.10
606.22	1749.85
606.57	1741.85
606.92	1734.52
607.27	1727.24
607.62	1720.21
607.96	1712.92
608.31	1706.23
608.66	1698.49
609.01	1690.84
609.36	1683.38
609.70	1675.35
610.05	1667.23
610.40	1659.60
610.75	1651.29
611.10	1643.67
611.44	1635.34
611.79	1627.37
612.14	1618.73
612.49	1609.75
612.83	1601.36
613.18	1593.23
613.53	1585.14
613.88	1576.69
614.22	1568.49
614.57	1560.07
614.92	1552.09
615.27	1544.63
615.61	1536.23
615.96	1528.23
616.31	1520.69
616.65	1513.27
617.00	1505.78
617.35	1498.16
617.70	1489.73
618.04	1481.23
618.39	1473.02
618.74	1465.40
619.08	1457.07
619.43	1449.50
619.78	1442.55
620.12	1435.44
620.47	1427.92
620.82	1419.84
621.16	1412.49
621.51	1404.92
621.85	1397.26
622.20	1388.75
622.55	1380.41
622.89	1372.61
623.24	1365.17
623.59	1357.84
623.93	1350.42
624.28	1343.21
624.62	1335.69
624.97	1328.61
625.32	1322.01
625.66	1314.92
626.01	1307.76
626.35	1300.32
626.70	1292.57
627.04	1284.82
627.39	1277.00
627.73	1269.62
628.08	1262.70
628.43	1255.34
628.77	1247.99
629.12	1240.40
629.46	1233.29
629.81	1225.95
630.15	1218.86
630.50	1211.43
630.84	1203.26
631.19	1195.38
631.53	1188.02
631.88	1180.49
632.22	1172.83
632.57	1165.42
632.91	1157.94
633.26	1150.51
633.60	1143.21
633.95	1136.15
634.29	1129.14
634.64	1122.54
634.98	1115.16
635.32	1108.00
635.67	1101.46
636.01	1094.79
636.36	1087.98
636.70	1081.49
637.05	1074.88
637.39	1068.39
637.73	1061.88
638.08	1056.05
638.42	1050.10
638.77	1043.47
639.11	1036.86
639.45	1030.58
639.80	1023.84
640.14	1017.36
640.49	1010.92
640.83	1004.59
641.17	998.30
641.52	991.98
641.86	985.53
642.20	979.70
642.55	973.39
642.89	966.95
643.23	960.40
643.58	954.64
643.92	948.32
644.26	942.20
644.61	936.25
644.95	930.25
645.29	923.58
645.64	916.77
645.98	910.47
646.32	904.59
646.66	898.49
647.01	892.76
647.35	887.16
647.69	881.29
648.04	875.79
648.38	870.02
648.72	863.95
649.06	857.90
649.41	852.00
649.75	846.01
650.09	840.02
650.43	834.21
650.78	828.09
651.12	822.25
651.46	816.49
651.80	810.62
652.14	805.14
652.49	799.74
652.83	794.58
653.17	788.92
653.51	783.30
653.85	777.95
654.20	772.32
654.54	766.26
654.88	760.55
655.22	754.69
655.56	749.08
655.90	743.65
656.25	738.41
656.59	733.10
656.93	728.04
657.27	722.95
657.61	717.55
657.95	712.48
658.29	707.34
658.64	702.11
658.98	696.95
659.32	691.50
659.66	686.37
660.00	681.09
660.34	676.22
660.68	671.36
661.02	666.34
661.36	661.67
661.70	657.32
662.05	653.04
662.39	648.75
662.73	644.31
663.07	640.01
663.41	635.58
663.75	631.13
664.09	626.61
664.43	622.23
664.77	618.11
665.11	613.94
665.45	609.87
665.79	605.82
666.13	601.60
666.47	597.58
666.81	593.46
667.15	589.35
667.49	585.42
667.83	581.60
668.17	577.69
668.51	573.63
668.85	569.52
669.19	565.68
669.53	561.82
669.87	557.94
670.21	554.21
670.55	550.60
670.89	547.17
671.23	543.70
671.57	540.20
671.91	536.73
672.25	533.22
672.58	529.76
672.92	526.42
673.26	523.32
673.60	520.22
673.94	517.07
674.28	514.24
674.62	511.32
674.96	508.20
675.30	505.29
675.64	502.38
675.97	499.66
676.31	496.73
676.65	493.82
676.99	491.14
677.33	488.33
677.67	485.46
678.01	482.41
678.34	479.48
678.68	476.57
679.02	473.75
679.36	470.98
679.70	468.22
680.04	465.50
680.37	462.60
680.71	459.75
681.05	457.13
681.39	454.36
681.73	451.71
682.06	449.14
682.40	446.61
682.74	444.06
683.08	441.55
683.42	439.01
683.75	436.51
684.09	433.98
684.43	431.53
684.77	429.09
685.10	426.76
685.44	424.46
685.78	422.22
686.12	420.02
686.45	417.77
686.79	415.51
687.13	413.31
687.46	411.20
687.80	409.07
688.14	406.90
688.48	404.82
688.81	402.56
689.15	400.43
689.49	398.29
689.82	396.19
690.16	394.07
690.50	392.11
690.83	390.17
691.17	388.19
691.51	386.30
691.84	384.48
692.18	382.57
692.52	380.62
692.85	378.73
693.19	376.84
693.52	375.01
693.86	373.21
694.20	371.43
694.53	369.61
694.87	367.83
695.21	366.04
695.54	364.28
695.88	362.60
696.21	360.88
696.55	359.24
696.88	357.62
697.22	356.02
697.56	354.44
697.89	352.76
698.23	351.14
698.56	349.47
698.90	347.87
699.23	346.22
699.57	344.63
699.90	343.08
700.24	341.52
700.58	340.00
700.91	338.50
701.25	337.04
701.58	335.68
701.92	334.35
702.25	332.99
702.59	331.64
702.92	330.27
703.26	329.02
703.59	327.73
703.93	326.54
704.26	325.31
704.60	324.01
704.93	322.78
705.26	321.51
705.60	320.43
705.93	319.30
706.27	318.28
706.60	317.26
706.94	316.20
707.27	315.07
707.61	314.04
707.94	313.03
708.27	311.92
708.61	310.86
708.94	309.83
709.28	308.86
709.61	307.89
709.94	306.99
710.28	305.94
710.61	304.97
710.95	303.92
711.28	303.01
711.61	302.06
711.95	301.16
712.28	300.22
712.61	299.22
712.95	298.30
713.28	297.45
713.61	296.57
713.95	295.67
714.28	294.86
714.61	293.98
714.95	293.15
715.28	292.33
715.61	291.45
715.95	290.59
716.28	289.74
716.61	288.91
716.95	288.08
717.28	287.37
717.61	286.61
717.94	285.84
718.28	285.03
718.61	284.33
718.94	283.62
719.27	282.99
719.61	282.34
719.94	281.66
720.27	280.91
720.60	280.22
720.94	279.61
721.27	279.03
721.60	278.43
721.93	277.78
722.27	277.23
722.60	276.69
722.93	276.12
723.26	275.57
723.59	274.99
723.93	274.45
724.26	273.89
724.59	273.34
724.92	272.82
725.25	272.33
725.59	271.80
725.92	271.29
726.25	270.77
726.58	270.24
726.91	269.74
727.24	269.27
727.57	268.79
727.91	268.26
728.24	267.78
728.57	267.29
728.90	266.90
729.23	266.40
729.56	265.99
729.89	265.54
730.22	265.06
730.55	264.61
730.89	264.15
731.22	263.69
731.55	263.24
731.88	262.79
732.21	262.32
732.54	261.84
732.87	261.39
733.20	260.98
733.53	260.60
733.86	260.20
734.19	259.78
734.52	259.43
734.85	259.12
735.18	258.68
735.51	258.35
735.84	257.92
736.17	257.60
736.50	257.19
736.83	256.92
737.16	256.58
737.49	256.24
737.82	255.90
738.15	255.58
738.48	255.25
738.81	254.94
739.14	254.60
739.47	254.32
739.80	254.04
740.13	253.74
740.46	253.44
740.79	253.12
741.12	252.83
741.45	252.47
741.78	252.16
742.11	251.84
742.44	251.49
742.77	251.22
743.10	250.87
743.43	250.56
743.75	250.20
744.08	250.06
744.41	249.81
744.74	249.57
745.07	249.26
745.40	249.04
745.73	248.82
746.06	248.58
746.39	248.31
746.71	248.02
747.04	247.74
747.37	247.49
747.70	247.28
748.03	247.01
748.36	246.80
748.68	246.57
749.01	246.34
749.34	246.13
749.67	245.91
750.00	245.71
750.33	245.56
750.65	245.32
750.98	245.01
751.31	244.79
751.64	244.55
751.97	244.41
752.29	244.20
752.62	243.92
752.95	243.73
753.28	243.55
753.60	243.37
753.93	243.19
754.26	242.98
754.59	242.74
754.91	242.54
755.24	242.38
755.57	242.19
755.90	242.00
756.22	241.80
756.55	241.61
756.88	241.40
757.20	241.17
757.53	240.96
757.86	240.77
758.19	240.62
758.51	240.46
758.84	240.27
759.17	240.12
759.49	239.97
759.82	239.85
760.15	239.70
760.47	239.55
760.80	239.40
761.13	239.27
761.45	239.09
761.78	238.97
762.11	238.81
762.43	238.65
762.76	238.53
763.08	238.40
763.41	238.27
763.74	238.18
764.06	238.04
764.39	237.93
764.71	237.81
765.04	237.69
765.37	237.55
765.69	237.43
766.02	237.30
766.34	237.19
766.67	237.03
767.00	236.92
767.32	236.85
767.65	236.80
767.97	236.68
768.30	236.61
768.62	236.49
768.95	236.37
769.27	236.27
769.60	236.16
769.92	236.01
770.25	235.89
770.57	235.75
770.90	235.64
771.22	235.53
771.55	235.42
771.87	235.27
772.20	235.18
772.52	235.12
772.85	235.12
773.17	235.03
773.50	234.92
773.82	234.79
774.15	234.63
774.47	234.44
774.80	234.34
775.12	234.25
775.45	234.18
775.77	234.09
776.09	234.00
776.42	233.93
776.74	233.88
777.07	233.77
777.39	233.71
777.72	233.63
778.04	233.57
778.36	233.50
778.69	233.45
779.01	233.37
779.33	233.24
779.66	233.09
779.98	232.99
780.31	232.91
780.63	232.91
780.95	232.90
781.28	232.87
781.60	232.82
781.92	232.76
782.25	232.71
782.57	232.63
782.89	232.58
783.22	232.52
783.54	232.46
783.86	232.43
784.19	232.38
784.51	232.35
784.83	232.26
785.16	232.22
785.48	232.18
785.80	232.13
786.12	232.10
786.45	232.01
786.77	231.98
787.09	231.95
787.42	231.88
787.74	231.84
788.06	231.81
788.38	231.79
788.71	231.71
789.03	231.65
789.35	231.66
789.67	231.63
789.99	231.58
790.32	231.54
790.64	231.51
790.96	231.53
791.28	231.48
791.61	231.48
791.93	231.46
792.25	231.41
792.57	231.43
792.89	231.38
793.21	231.37
793.54	231.33
793.86	231.27
794.18	231.23
794.50	231.15
794.82	231.12
795.14	231.03
795.47	231.04
795.79	231.01
796.11	230.95
796.43	230.88
796.75	230.85
797.07	230.80
797.39	230.77
797.71	230.68
798.04	230.64
798.36	230.60
798.68	230.55
799.00	230.54
799.32	230.48
799.64	230.48
799.96	230.47
800.28	230.47
800.60	230.44
800.92	230.41
801.24	230.37
801.56	230.35
801.89	230.36
802.21	230.31
802.53	230.26
802.85	230.26
803.17	230.28
803.49	230.24
803.81	230.20
804.13	230.18
804.45	230.13
804.77	230.11
805.09	230.08
805.41	230.07
805.73	229.99
806.05	229.90
806.37	229.86
806.69	229.80
807.01	229.70
807.33	229.67
807.65	229.62
807.97	229.64
808.28	229.59
808.60	229.56
808.92	229.52
809.24	229.55
809.56	229.52
809.88	229.46
810.20	229.47
810.52	229.48
810.84	229.43
811.16	229.36
811.48	229.33
811.80	229.33
812.12	229.26
812.43	229.24
812.75	229.25
813.07	229.23
813.39	229.25
813.71	229.26
814.03	229.26
814.35	229.24
814.67	229.18
814.98	229.17
815.30	229.12
815.62	229.13
815.94	229.05
816.26	229.05
816.58	229.01
816.89	228.98
817.21	228.94
817.53	228.92
817.85	228.93
818.17	228.92
818.48	228.84
818.80	228.86
819.12	228.86
819.44	228.80
819.76	228.73
820.07	228.68
820.39	228.67
820.71	228.65
821.03	228.67
821.34	228.68
821.66	228.68
821.98	228.69
822.30	228.65
822.61	228.70
822.93	228.64
823.25	228.66
823.57	228.63
823.88	228.64
824.20	228.64
824.52	228.67
824.83	228.68
825.15	228.69
825.47	228.68
825.79	228.69
826.10	228.70
826.42	228.68
826.74	228.68
827.05	228.66
827.37	228.64
827.69	228.59
828.00	228.56
828.32	228.54
828.64	228.51
828.95	228.58
829.27	228.53
829.58	228.51
829.90	228.48
830.22	228.49
830.53	228.47
830.85	228.45
831.17	228.39
831.48	228.35
831.80	228.36
832.11	228.34
832.43	228.31
832.75	228.31
833.06	228.35
833.38	228.34
833.69	228.34
834.01	228.34
834.32	228.35
834.64	228.32
834.96	228.30
835.27	228.28
835.59	228.23
835.90	228.20
836.22	228.22
836.53	228.19
836.85	228.15
837.16	228.25
837.48	228.25
837.79	228.31
838.11	228.33
838.42	228.28
838.74	228.27
839.05	228.26
839.37	228.25
839.68	228.19
840.00	228.17
840.31	228.17
840.63	228.13
840.94	228.10
841.26	228.09
841.57	228.09
841.88	228.09
842.20	228.05
842.51	228.05
842.83	228.01
843.14	228.09
843.46	228.11
843.77	228.00
844.08	227.98
844.40	227.91
844.71	227.88
845.03	227.88
845.34	227.86
845.65	227.81
845.97	227.81
846.28	227.82
846.60	227.83
846.91	227.78
847.22	227.78
847.54	227.78
847.85	227.80
848.16	227.79
848.48	227.78
848.79	227.83
849.10	227.85
849.42	227.85
849.73	227.78
850.04	227.75
850.36	227.75
850.67	227.78
850.98	227.75
851.30	227.77
851.61	227.78
851.92	227.79
852.23	227.85
852.55	227.85
852.86	227.85
853.17	227.80
853.49	227.85
853.80	227.86
854.11	227.88
854.42	227.90
854.74	227.85
855.05	227.84
855.36	227.79
855.67	227.77
855.99	227.77
856.30	227.84
856.61	227.83
856.92	227.85
857.23	227.84
857.55	227.87
857.86	227.86
858.17	227.86
858.48	227.88
858.79	227.85
859.11	227.84
859.42	227.83
859.73	227.84
860.04	227.80
860.35	227.78
860.66	227.74
860.98	227.76
861.29	227.76
861.60	227.75
861.91	227.77
862.22	227.75
862.53	227.74
862.84	227.64
863.16	227.66
863.47	227.61
863.78	227.59
864.09	227.59
864.40	227.60
864.71	227.58
865.02	227.57
865.33	227.53
865.64	227.54
865.95	227.55
866.27	227.64
866.58	227.64
866.89	227.65
867.20	227.68
867.51	227.63
867.82	227.67
868.13	227.69
868.44	227.67
868.75	227.71
869.06	227.73
869.37	227.74
869.68	227.71
869.99	227.74
870.30	227.74
870.61	227.73
870.92	227.71
871.23	227.69
871.54	227.70
871.85	227.72
872.16	227.73
872.47	227.71
872.78	227.64
873.09	227.66
873.40	227.64
873.71	227.63
874.02	227.61
874.33	227.56
874.64	227.54
874.95	227.56
875.26	227.52
875.56	227.49
875.87	227.47
876.18	227.46
876.49	227.54
876.80	227.52
877.11	227.53
877.42	227.51
877.73	227.51
878.04	227.49
878.35	227.49
878.66	227.50
878.96	227.50
879.27	227.48
879.58	227.47
879.89	227.46
880.20	227.49
880.51	227.50
880.82	227.52
881.12	227.53
881.43	227.53
881.74	227.50
882.05	227.49
882.36	227.51
882.67	227.55
882.97	227.43
883.28	227.44
883.59	227.40
883.90	227.41
884.21	227.44
884.51	227.42
884.82	227.40
885.13	227.39
885.44	227.36
885.74	227.39
886.05	227.39
886.36	227.36
886.67	227.33
886.98	227.36
887.28	227.38
887.59	227.38
887.90	227.35
888.20	227.36
888.51	227.36
888.82	227.36
889.13	227.37
889.43	227.45
889.74	227.41
890.05	227.42
890.35	227.41
890.66	227.39
890.97	227.39
891.28	227.39
891.58	227.38
891.89	227.41
892.20	227.39
892.50	227.34
892.81	227.35
893.12	227.35
893.42	227.33
893.73	227.28
894.04	227.29
894.34	227.28
894.65	227.24
894.95	227.21
895.26	227.20
895.57	227.21
895.87	227.13
896.18	227.18
896.48	227.19
896.79	227.16
897.10	227.17
897.40	227.17
897.71	227.20
898.01	227.20
898.32	227.22
898.63	227.22
898.93	227.25
899.24	227.27
899.54	227.26
899.85	227.23
900.15	227.25
900.46	227.22
900.76	227.27
901.07	227.33
901.38	227.38
901.68	227.41
901.99	227.40
902.29	227.40
902.60	227.40
902.90	227.39
903.21	227.39
903.51	227.39
903.82	227.41
904.12	227.41
904.43	227.41
904.73	227.39
905.03	227.40
905.34	227.48
905.64	227.49
905.95	227.49
906.25	227.50
906.56	227.49
906.86	227.50
907.17	227.47
907.47	227.44
907.77	227.43
908.08	227.40
908.38	227.40
908.69	227.40
908.99	227.40
909.30	227.42
909.60	227.41
909.90	227.42
910.21	227.37
910.51	227.35
910.81	227.33
911.12	227.35
911.42	227.36
911.73	227.29
912.03	227.29
912.33	227.30
912.64	227.30
912.94	227.31
913.24	227.30
913.55	227.31
913.85	227.30
914.15	227.32
914.46	227.29
914.76	227.28
915.06	227.26
915.37	227.26
915.67	227.21
915.97	227.26
916.27	227.22
916.58	227.24
916.88	227.21
917.18	227.22
917.49	227.24
917.79	227.21
918.09	227.19
918.39	227.19
918.70	227.19
919.00	227.20
919.30	227.23
919.60	227.22
919.91	227.18
920.21	227.20
920.51	227.14
920.81	227.16
921.12	227.13
921.42	227.14
921.72	227.14
922.02	227.17
922.32	227.15
922.63	227.17
922.93	227.22
923.23	227.21
923.53	227.20
923.83	227.17
924.13	227.21
924.44	227.20
924.74	227.24
925.04	227.24
925.34	227.24
925.64	227.22
925.94	227.23
926.24	227.29
926.55	227.30
926.85	227.35
927.15	227.35
927.45	227.39
927.75	227.37
928.05	227.36
928.35	227.37
928.65	227.37
928.95	227.37
929.26	227.34
929.56	227.38
929.86	227.40
930.16	227.37
930.46	227.35
930.76	227.36
931.06	227.32
931.36	227.33
931.66	227.34
931.96	227.34
932.26	227.32
932.56	227.26
932.86	227.27
933.16	227.24
933.46	227.24
933.76	227.20
934.06	227.25
934.36	227.31
934.66	227.29
934.96	227.28
935.26	227.33
935.56	227.34
935.86	227.31
936.16	227.32
936.46	227.34
936.76	227.34
937.06	227.32
937.36	227.32
937.66	227.33
937.96	227.35
938.26	227.32
938.56	227.33
938.86	227.35
939.16	227.38
939.46	227.40
939.76	227.42
940.06	227.44
940.35	227.43
940.65	227.36
940.95	227.36
941.25	227.35
941.55	227.32
941.85	227.33
942.15	227.38
942.45	227.39
942.75	227.38
943.04	227.39
943.34	227.43
943.64	227.43
943.94	227.41
944.24	227.38
944.54	227.39
944.84	227.41
945.13	227.36
945.43	227.32
945.73	227.35
946.03	227.31
946.33	227.27
946.62	227.28
946.92	227.29
947.22	227.33
947.52	227.33
947.82	227.33
948.11	227.27
948.41	227.21
948.71	227.15
949.01	227.15
949.31	227.12
949.60	227.11
949.90	227.11
950.20	227.08
950.50	227.07
950.79	227.05
951.09	227.06
951.39	227.06
951.69	227.03
951.98	227.02
952.28	227.02
952.58	227.02
952.87	226.99
953.17	227.00
953.47	226.92
953.76	226.90
954.06	226.89
954.36	226.91
954.66	226.92
954.95	226.97
955.25	226.98
955.55	227.00
955.84	226.99
956.14	227.00
956.44	227.01
956.73	226.99
957.03	226.97
957.32	226.97
957.62	226.96
957.92	227.00
958.21	226.96
958.51	227.07
958.81	227.09
959.10	227.10
959.40	227.09
959.69	227.13
959.99	227.17
960.29	227.17
960.58	227.18
960.88	227.21
961.17	227.17
961.47	227.19
961.76	227.18
962.06	227.19
962.36	227.17
962.65	227.18
962.95	227.21
963.24	227.23
963.54	227.23
963.83	227.27
964.13	227.27
964.42	227.27
964.72	227.23
965.01	227.23
965.31	227.21
965.60	227.26
965.90	227.30
966.19	227.26
966.49	227.29
966.78	227.28
967.08	227.30
967.37	227.34
967.67	227.31
967.96	227.31
968.26	227.32
968.55	227.30
968.85	227.29
969.14	227.27
969.43	227.26
969.73	227.25
970.02	227.26
970.32	227.27
970.61	227.27
970.91	227.23
971.20	227.24
971.49	227.23
971.79	227.19
972.08	227.13
972.38	227.17
972.67	227.21
972.96	227.21
973.26	227.17
973.55	227.19
973.85	227.20
974.14	227.21
974.43	227.19
974.73	227.20
975.02	227.18
975.31	227.23
975.61	227.24
975.90	227.24
976.19	227.21
976.49	227.21
976.78	227.23
977.07	227.23
977.37	227.23
977.66	227.26
977.95	227.28
978.24	227.33
978.54	227.30
978.83	227.24
979.12	227.24
979.42	227.24
979.71	227.20
980.00	227.18
980.29	227.16
980.59	227.16
980.88	227.20
981.17	227.20
981.46	227.17
981.76	227.18
982.05	227.23
982.34	227.25
982.63	227.25
982.93	227.23
983.22	227.26
983.51	227.25
983.80	227.26
984.09	227.27
984.39	227.22
984.68	227.23
984.97	227.26
985.26	227.25
985.55	227.25
985.85	227.24
986.14	227.27
986.43	227.30
986.72	227.28
987.01	227.26
987.30	227.27
987.59	227.26
987.89	227.27
988.18	227.24
988.47	227.23
988.76	227.20
989.05	227.21
989.34	227.20
989.63	227.22
989.92	227.20
990.22	227.16
990.51	227.15
990.80	227.12
991.09	227.11
991.38	227.13
991.67	227.10
991.96	227.10
992.25	227.07
992.54	227.02
992.83	227.01
993.12	227.00
993.41	227.04
993.70	227.07
993.99	227.03
994.28	227.00
994.58	227.01
994.87	227.01
995.16	226.99
995.45	226.93
995.74	226.90
996.03	226.88
996.32	226.91
996.61	226.94
996.90	226.93
997.19	226.96
997.48	226.95
997.77	226.98
998.06	226.98
998.34	227.01
998.63	227.02
998.92	227.05
999.21	227.04
999.50	227.03
999.79	227.00
1000.08	227.00
1000.37	227.03
1000.66	227.01
1000.95	227.01
1001.24	227.01
1001.53	227.06
1001.82	227.04
1002.11	227.04
1002.40	227.02
1002.68	227.05
1002.97	227.14
1003.26	227.09
1003.55	227.08
1003.84	227.05
1004.13	227.07
1004.42	227.03
1004.71	227.03
1004.99	227.01
1005.28	227.05
1005.57	227.06
1005.86	227.07
1006.15	227.11
1006.44	227.06
1006.72	227.05
1007.01	227.07
1007.30	227.09
1007.59	227.09
1007.88	227.12
1008.17	227.12
1008.45	227.13
1008.74	227.08
1009.03	227.03
1009.32	227.03
1009.60	227.05
1009.89	227.06
1010.18	227.03
1010.47	227.06
1010.76	227.03
1011.04	227.03
1011.33	227.02
1011.62	226.98
1011.91	226.97
1012.19	226.98
1012.48	227.01
1012.77	227.05
1013.05	227.10
1013.34	227.10
1013.63	227.09
1013.92	227.11
1014.20	227.14
1014.49	227.14
1014.78	227.13
1015.06	227.09
1015.35	227.12
1015.64	227.11
1015.92	227.11
1016.21	227.14
1016.50	227.11
1016.78	227.11
1017.07	227.17
1017.36	227.16
1017.64	227.18
1017.93	227.19
1018.22	227.18
1018.50	227.17
1018.79	227.15
1019.08	227.09
1019.36	227.10
1019.65	227.10
1019.93	227.12
1020.22	227.15
1020.51	227.18
1020.79	227.18
1021.08	227.25
1021.36	226.78
1021.65	227.00
1021.94	227.22
1022.22	227.57
1022.51	226.90
1022.79	227.89
1023.08	227.85
1023.36	228.03
1023.65	226.71
>>>>>End Processed Spectral Data<<<<<
