SpectraSuite Data File
++++++++++++++++++++++++++++++++++++
Date: Fri Feb 01 15:41:37 EST 2013
User: group
Dark Spectrum Present: No
Reference Spectrum Present: No
Number of Sampled Component Spectra: 1
Spectrometers: USB2E7196
Integration Time (usec): 35000 (USB2E7196)
Spectra Averaged: 100 (USB2E7196)
Boxcar Smoothing: 10 (USB2E7196)
Correct for Electrical Dark: No (USB2E7196)
Strobe/Lamp Enabled: No (USB2E7196)
Correct for Detector Non-linearity: No (USB2E7196)
Correct for Stray Light: No (USB2E7196)
Number of Pixels in Processed Spectrum: 2048
>>>>>Begin Processed Spectral Data<<<<<
339.09	0.00
339.48	214.42
339.86	216.13
340.24	217.37
340.63	219.35
341.01	221.97
341.39	221.23
341.78	223.12
342.16	224.22
342.54	225.02
342.93	213.25
343.31	224.03
343.69	224.57
344.07	225.04
344.46	225.49
344.84	225.87
345.22	226.07
345.60	226.38
345.99	226.56
346.37	226.71
346.75	226.79
347.13	226.89
347.52	226.93
347.90	226.96
348.28	226.97
348.66	227.04
349.05	227.02
349.43	227.06
349.81	227.13
350.19	227.19
350.57	227.23
350.96	227.33
351.34	227.42
351.72	227.55
352.10	227.66
352.48	227.73
352.87	227.80
353.25	227.91
353.63	227.94
354.01	228.02
354.39	228.09
354.77	228.18
355.15	228.29
355.54	228.36
355.92	228.38
356.30	228.44
356.68	228.56
357.06	228.68
357.44	228.70
357.82	228.74
358.20	228.83
358.58	228.88
358.97	228.89
359.35	228.99
359.73	229.05
360.11	229.10
360.49	229.21
360.87	229.25
361.25	229.29
361.63	229.35
362.01	229.38
362.39	229.41
362.77	229.43
363.15	229.42
363.53	229.44
363.91	229.48
364.29	229.51
364.67	229.42
365.05	229.38
365.43	229.43
365.81	229.46
366.19	229.48
366.57	229.52
366.95	229.56
367.33	229.51
367.71	229.48
368.09	229.45
368.47	229.40
368.85	229.34
369.23	229.36
369.61	229.33
369.99	229.34
370.37	229.32
370.75	229.33
371.13	229.29
371.51	229.22
371.89	229.18
372.27	229.11
372.65	229.06
373.03	229.04
373.41	229.00
373.78	228.90
374.16	228.79
374.54	228.67
374.92	228.56
375.30	228.47
375.68	228.41
376.06	228.34
376.44	228.23
376.82	228.19
377.19	228.11
377.57	228.02
377.95	227.91
378.33	227.82
378.71	227.71
379.09	227.62
379.47	227.59
379.84	227.49
380.22	227.38
380.60	227.32
380.98	227.25
381.36	227.11
381.73	227.07
382.11	227.00
382.49	226.96
382.87	226.91
383.25	226.86
383.62	226.90
384.00	226.84
384.38	226.80
384.76	226.75
385.13	226.74
385.51	226.68
385.89	226.63
386.27	226.57
386.64	226.56
387.02	226.52
387.40	226.46
387.78	226.44
388.15	226.47
388.53	226.45
388.91	226.39
389.29	226.40
389.66	226.38
390.04	226.36
390.42	226.37
390.79	226.37
391.17	226.31
391.55	226.20
391.92	226.17
392.30	226.19
392.68	226.16
393.05	226.16
393.43	226.16
393.81	226.17
394.18	226.18
394.56	226.18
394.94	226.23
395.31	226.26
395.69	226.32
396.06	226.33
396.44	226.37
396.82	226.39
397.19	226.50
397.57	226.55
397.95	226.60
398.32	226.59
398.70	226.68
399.07	226.77
399.45	226.84
399.82	226.92
400.20	226.95
400.58	227.04
400.95	227.07
401.33	227.21
401.70	227.39
402.08	227.52
402.45	227.58
402.83	227.72
403.20	227.82
403.58	227.93
403.95	228.05
404.33	228.19
404.71	228.37
405.08	228.54
405.46	228.70
405.83	228.88
406.21	229.07
406.58	229.22
406.96	229.38
407.33	229.57
407.70	229.80
408.08	230.09
408.45	230.30
408.83	230.54
409.20	230.72
409.58	230.88
409.95	231.13
410.33	231.46
410.70	231.68
411.08	231.97
411.45	232.26
411.82	232.64
412.20	232.96
412.57	233.35
412.95	233.61
413.32	234.00
413.69	234.42
414.07	234.85
414.44	235.30
414.82	235.78
415.19	236.28
415.56	236.82
415.94	237.38
416.31	238.01
416.68	238.59
417.06	239.33
417.43	240.02
417.81	240.77
418.18	241.51
418.55	242.37
418.93	243.25
419.30	244.15
419.67	245.02
420.04	245.98
420.42	246.98
420.79	248.17
421.16	249.33
421.54	250.53
421.91	251.75
422.28	253.00
422.66	254.34
423.03	255.65
423.40	257.01
423.77	258.39
424.15	259.81
424.52	261.35
424.89	262.95
425.26	264.53
425.64	265.96
426.01	267.55
426.38	269.20
426.75	270.90
427.13	272.64
427.50	274.46
427.87	276.37
428.24	278.20
428.61	279.95
428.99	281.88
429.36	283.95
429.73	286.02
430.10	288.06
430.47	290.14
430.85	292.26
431.22	294.48
431.59	296.86
431.96	299.17
432.33	301.62
432.70	303.97
433.08	306.74
433.45	309.42
433.82	312.07
434.19	314.96
434.56	317.69
434.93	320.31
435.30	322.95
435.68	325.82
436.05	328.65
436.42	331.43
436.79	333.97
437.16	336.68
437.53	339.50
437.90	342.29
438.27	345.05
438.64	347.90
439.01	350.51
439.38	352.74
439.75	354.87
440.13	357.40
440.50	359.75
440.87	361.68
441.24	363.62
441.61	365.75
441.98	367.26
442.35	369.10
442.72	371.04
443.09	372.87
443.46	373.88
443.83	374.52
444.20	375.05
444.57	375.89
444.94	376.17
445.31	376.54
445.68	376.91
446.05	376.97
446.42	376.62
446.79	376.18
447.16	375.70
447.53	375.43
447.90	374.25
448.27	373.10
448.64	371.48
449.01	370.31
449.37	368.37
449.74	366.40
450.11	364.21
450.48	361.69
450.85	359.13
451.22	356.98
451.59	354.94
451.96	353.03
452.33	350.43
452.70	348.08
453.07	345.24
453.43	342.37
453.80	339.60
454.17	336.92
454.54	334.38
454.91	331.70
455.28	329.00
455.65	326.57
456.02	324.14
456.38	322.00
456.75	319.31
457.12	317.05
457.49	314.86
457.86	312.66
458.23	310.79
458.59	308.75
458.96	306.68
459.33	304.78
459.70	302.89
460.07	301.39
460.43	299.67
460.80	298.04
461.17	296.59
461.54	295.08
461.91	293.63
462.27	292.19
462.64	290.93
463.01	289.55
463.38	288.20
463.74	286.81
464.11	285.66
464.48	284.66
464.85	283.56
465.21	282.70
465.58	281.78
465.95	280.72
466.32	279.81
466.68	278.91
467.05	278.04
467.42	277.12
467.78	276.18
468.15	275.32
468.52	274.61
468.88	273.75
469.25	272.96
469.62	272.32
469.98	271.64
470.35	271.02
470.72	270.40
471.08	269.72
471.45	269.15
471.82	268.55
472.18	267.95
472.55	267.46
472.92	266.94
473.28	266.49
473.65	265.99
474.02	265.54
474.38	265.14
474.75	264.82
475.11	264.49
475.48	264.21
475.85	263.96
476.21	263.71
476.58	263.54
476.94	263.39
477.31	263.22
477.67	263.06
478.04	262.93
478.41	262.88
478.77	262.95
479.14	262.90
479.50	262.91
479.87	262.95
480.23	263.04
480.60	263.13
480.96	263.18
481.33	263.41
481.69	263.59
482.06	263.81
482.42	264.00
482.79	264.27
483.15	264.57
483.52	264.94
483.88	265.33
484.25	265.73
484.61	266.15
484.98	266.61
485.34	267.18
485.71	267.72
486.07	268.34
486.44	268.92
486.80	269.64
487.17	270.38
487.53	271.22
487.90	272.05
488.26	272.97
488.62	273.97
488.99	274.92
489.35	276.00
489.72	277.13
490.08	278.34
490.44	279.59
490.81	280.97
491.17	282.29
491.54	283.76
491.90	285.26
492.26	286.94
492.63	288.68
492.99	290.49
493.36	292.44
493.72	294.50
494.08	296.60
494.45	298.86
494.81	301.23
495.17	303.69
495.54	306.27
495.90	308.97
496.26	311.81
496.63	314.79
496.99	317.92
497.35	321.21
497.72	324.60
498.08	328.08
498.44	331.75
498.80	335.73
499.17	339.77
499.53	343.94
499.89	348.30
500.26	352.80
500.62	357.47
500.98	362.45
501.34	367.49
501.71	372.77
502.07	378.23
502.43	383.83
502.79	389.66
503.16	395.75
503.52	402.04
503.88	408.44
504.24	415.09
504.60	421.91
504.97	429.02
505.33	436.31
505.69	444.04
506.05	451.80
506.41	459.69
506.78	467.86
507.14	476.32
507.50	485.06
507.86	494.08
508.22	503.27
508.59	512.49
508.95	522.12
509.31	531.97
509.67	542.00
510.03	552.33
510.39	562.84
510.75	573.64
511.12	584.55
511.48	595.84
511.84	607.28
512.20	618.84
512.56	630.78
512.92	643.04
513.28	655.39
513.64	667.87
514.00	680.58
514.37	693.51
514.73	706.55
515.09	719.61
515.45	732.98
515.81	746.53
516.17	760.51
516.53	774.59
516.89	788.80
517.25	803.01
517.61	817.37
517.97	831.90
518.33	846.42
518.69	861.25
519.05	876.13
519.41	891.29
519.77	906.86
520.13	922.30
520.49	937.66
520.85	953.18
521.21	968.90
521.57	985.03
521.93	1000.85
522.29	1017.29
522.65	1033.53
523.01	1049.64
523.37	1065.66
523.73	1081.77
524.09	1097.90
524.45	1114.19
524.81	1130.82
525.17	1147.73
525.53	1164.60
525.89	1181.31
526.25	1198.17
526.61	1214.61
526.97	1231.38
527.33	1247.78
527.68	1264.35
528.04	1280.92
528.40	1297.43
528.76	1314.49
529.12	1331.22
529.48	1348.13
529.84	1364.09
530.20	1380.76
530.56	1397.92
530.91	1415.48
531.27	1432.23
531.63	1448.76
531.99	1465.38
532.35	1481.38
532.71	1497.24
533.07	1513.50
533.42	1529.46
533.78	1545.41
534.14	1561.74
534.50	1577.13
534.86	1593.02
535.21	1608.27
535.57	1624.06
535.93	1639.59
536.29	1654.48
536.65	1669.39
537.00	1684.25
537.36	1699.63
537.72	1714.13
538.08	1728.45
538.44	1742.16
538.79	1756.07
539.15	1769.73
539.51	1783.50
539.87	1797.86
540.22	1811.64
540.58	1825.45
540.94	1838.79
541.29	1851.78
541.65	1864.49
542.01	1877.75
542.37	1890.16
542.72	1902.70
543.08	1914.64
543.44	1927.00
543.79	1938.17
544.15	1949.14
544.51	1960.62
544.87	1971.65
545.22	1982.31
545.58	1992.42
545.94	2002.17
546.29	2012.07
546.65	2021.78
547.01	2030.99
547.36	2039.63
547.72	2048.01
548.07	2055.74
548.43	2063.80
548.79	2071.78
549.14	2079.25
549.50	2086.44
549.86	2094.19
550.21	2101.52
550.57	2108.59
550.92	2115.11
551.28	2122.11
551.64	2129.30
551.99	2135.85
552.35	2142.07
552.70	2148.35
553.06	2154.40
553.41	2160.75
553.77	2166.78
554.13	2173.02
554.48	2179.11
554.84	2184.70
555.19	2190.09
555.55	2195.39
555.90	2199.94
556.26	2204.88
556.61	2209.77
556.97	2214.09
557.32	2218.14
557.68	2222.16
558.03	2226.51
558.39	2230.29
558.74	2235.03
559.10	2238.96
559.45	2242.54
559.81	2246.72
560.16	2250.50
560.52	2253.80
560.87	2257.13
561.23	2259.90
561.58	2262.82
561.94	2265.42
562.29	2267.75
562.64	2270.21
563.00	2272.76
563.35	2276.32
563.71	2279.21
564.06	2282.32
564.42	2285.19
564.77	2287.65
565.12	2289.88
565.48	2291.69
565.83	2293.51
566.19	2294.79
566.54	2295.58
566.89	2296.64
567.25	2297.26
567.60	2298.59
567.96	2300.13
568.31	2301.13
568.66	2302.07
569.02	2302.58
569.37	2302.86
569.72	2303.73
570.08	2303.95
570.43	2303.92
570.78	2303.31
571.14	2301.88
571.49	2300.47
571.84	2300.17
572.20	2298.94
572.55	2298.01
572.90	2296.58
573.26	2295.13
573.61	2293.28
573.96	2291.49
574.31	2288.68
574.67	2285.65
575.02	2281.90
575.37	2278.55
575.72	2274.60
576.08	2271.31
576.43	2268.06
576.78	2264.33
577.13	2261.08
577.49	2258.08
577.84	2254.59
578.19	2250.89
578.54	2247.21
578.90	2243.01
579.25	2237.47
579.60	2232.48
579.95	2227.26
580.30	2222.06
580.66	2216.97
581.01	2212.03
581.36	2207.20
581.71	2202.74
582.06	2198.14
582.42	2193.77
582.77	2188.59
583.12	2183.93
583.47	2179.07
583.82	2173.99
584.17	2168.68
584.53	2163.21
584.88	2157.48
585.23	2151.61
585.58	2146.07
585.93	2140.60
586.28	2135.80
586.63	2130.56
586.98	2125.56
587.34	2120.85
587.69	2115.92
588.04	2110.58
588.39	2104.90
588.74	2098.15
589.09	2092.06
589.44	2085.27
589.79	2079.24
590.14	2073.65
590.49	2067.21
590.84	2060.97
591.19	2054.89
591.54	2048.46
591.89	2040.95
592.25	2034.12
592.60	2027.03
592.95	2019.39
593.30	2012.07
593.65	2004.43
594.00	1997.43
594.35	1990.09
594.70	1982.14
595.05	1974.97
595.40	1967.72
595.75	1960.15
596.10	1953.97
596.45	1947.22
596.80	1941.03
597.15	1934.27
597.50	1927.02
597.85	1920.60
598.19	1913.80
598.54	1906.56
598.89	1899.89
599.24	1894.16
599.59	1887.33
599.94	1881.17
600.29	1874.82
600.64	1868.30
600.99	1860.84
601.34	1853.89
601.69	1846.92
602.04	1839.90
602.39	1832.44
602.74	1825.55
603.08	1818.87
603.43	1812.17
603.78	1804.93
604.13	1797.68
604.48	1790.37
604.83	1783.53
605.18	1776.33
605.53	1768.34
605.87	1760.35
606.22	1753.11
606.57	1745.05
606.92	1737.80
607.27	1730.52
607.62	1723.65
607.96	1716.27
608.31	1709.61
608.66	1702.07
609.01	1694.54
609.36	1687.02
609.70	1679.06
610.05	1670.97
610.40	1663.23
610.75	1654.82
611.10	1647.08
611.44	1638.73
611.79	1630.77
612.14	1622.10
612.49	1613.01
612.83	1604.66
613.18	1596.61
613.53	1588.54
613.88	1579.95
614.22	1571.73
614.57	1563.00
614.92	1554.87
615.27	1547.17
615.61	1538.85
615.96	1530.77
616.31	1523.20
616.65	1515.78
617.00	1508.27
617.35	1500.60
617.70	1492.28
618.04	1483.87
618.39	1475.68
618.74	1468.09
619.08	1459.89
619.43	1452.34
619.78	1445.52
620.12	1438.31
620.47	1430.75
620.82	1422.60
621.16	1415.33
621.51	1407.75
621.85	1400.25
622.20	1391.72
622.55	1383.46
622.89	1375.64
623.24	1368.15
623.59	1360.70
623.93	1353.24
624.28	1345.96
624.62	1338.39
624.97	1331.28
625.32	1324.54
625.66	1317.50
626.01	1310.27
626.35	1302.77
626.70	1294.88
627.04	1287.03
627.39	1279.31
627.73	1271.94
628.08	1264.99
628.43	1257.52
628.77	1250.04
629.12	1242.42
629.46	1235.28
629.81	1227.86
630.15	1220.66
630.50	1213.16
630.84	1205.01
631.19	1197.03
631.53	1189.58
631.88	1182.05
632.22	1174.51
632.57	1167.23
632.91	1159.69
633.26	1152.19
633.60	1144.90
633.95	1137.93
634.29	1130.96
634.64	1124.31
634.98	1116.93
635.32	1109.72
635.67	1103.23
636.01	1096.65
636.36	1089.92
636.70	1083.41
637.05	1076.76
637.39	1070.27
637.73	1063.82
638.08	1057.96
638.42	1052.05
638.77	1045.57
639.11	1039.01
639.45	1032.51
639.80	1025.80
640.14	1019.40
640.49	1012.93
640.83	1006.52
641.17	1000.29
641.52	993.99
641.86	987.53
642.20	981.57
642.55	975.38
642.89	968.89
643.23	962.34
643.58	956.54
643.92	950.30
644.26	944.34
644.61	938.31
644.95	932.19
645.29	925.52
645.64	918.63
645.98	912.33
646.32	906.51
646.66	900.50
647.01	894.76
647.35	888.99
647.69	883.28
648.04	877.74
648.38	871.97
648.72	865.82
649.06	859.80
649.41	854.09
649.75	848.08
650.09	842.08
650.43	836.25
650.78	830.07
651.12	824.18
651.46	818.43
651.80	812.65
652.14	807.24
652.49	801.96
652.83	796.92
653.17	791.17
653.51	785.43
653.85	780.06
654.20	774.33
654.54	768.38
654.88	762.58
655.22	756.73
655.56	750.97
655.90	745.65
656.25	740.37
656.59	734.96
656.93	729.82
657.27	724.67
657.61	719.30
657.95	714.18
658.29	709.11
658.64	703.93
658.98	698.69
659.32	693.28
659.66	687.93
660.00	682.56
660.34	677.69
660.68	672.71
661.02	667.71
661.36	663.08
661.70	658.59
662.05	654.21
662.39	649.88
662.73	645.49
663.07	641.11
663.41	636.57
663.75	632.13
664.09	627.60
664.43	623.28
664.77	619.20
665.11	615.01
665.45	610.88
665.79	606.72
666.13	602.56
666.47	598.52
666.81	594.47
667.15	590.46
667.49	586.53
667.83	582.78
668.17	578.82
668.51	574.75
668.85	570.77
669.19	566.93
669.53	563.12
669.87	559.20
670.21	555.51
670.55	551.88
670.89	548.42
671.23	545.02
671.57	541.52
671.91	537.93
672.25	534.37
672.58	530.81
672.92	527.45
673.26	524.29
673.60	521.08
673.94	517.94
674.28	514.96
674.62	512.04
674.96	508.88
675.30	505.98
675.64	502.99
675.97	500.21
676.31	497.33
676.65	494.29
676.99	491.60
677.33	488.71
677.67	485.92
678.01	482.91
678.34	479.85
678.68	476.95
679.02	474.13
679.36	471.41
679.70	468.74
680.04	465.97
680.37	463.12
680.71	460.38
681.05	457.82
681.39	455.10
681.73	452.44
682.06	449.92
682.40	447.36
682.74	444.83
683.08	442.27
683.42	439.71
683.75	437.32
684.09	434.77
684.43	432.27
684.77	429.81
685.10	427.44
685.44	425.20
685.78	422.86
686.12	420.62
686.45	418.32
686.79	415.98
687.13	413.79
687.46	411.59
687.80	409.39
688.14	407.17
688.48	405.09
688.81	402.78
689.15	400.63
689.49	398.48
689.82	396.45
690.16	394.36
690.50	392.39
690.83	390.38
691.17	388.40
691.51	386.53
691.84	384.66
692.18	382.71
692.52	380.69
692.85	378.76
693.19	376.88
693.52	375.08
693.86	373.29
694.20	371.54
694.53	369.73
694.87	367.89
695.21	366.10
695.54	364.26
695.88	362.57
696.21	360.87
696.55	359.17
696.88	357.47
697.22	355.80
697.56	354.17
697.89	352.55
698.23	350.94
698.56	349.32
698.90	347.71
699.23	346.07
699.57	344.52
699.90	343.02
700.24	341.48
700.58	339.90
700.91	338.41
701.25	336.97
701.58	335.64
701.92	334.32
702.25	332.92
702.59	331.56
702.92	330.26
703.26	328.97
703.59	327.72
703.93	326.50
704.26	325.30
704.60	324.02
704.93	322.75
705.26	321.50
705.60	320.36
705.93	319.25
706.27	318.21
706.60	317.17
706.94	316.07
707.27	314.94
707.61	313.91
707.94	312.87
708.27	311.75
708.61	310.67
708.94	309.68
709.28	308.73
709.61	307.84
709.94	306.92
710.28	305.90
710.61	304.91
710.95	303.91
711.28	302.99
711.61	302.00
711.95	301.09
712.28	300.18
712.61	299.20
712.95	298.24
713.28	297.40
713.61	296.50
713.95	295.66
714.28	294.82
714.61	293.99
714.95	293.18
715.28	292.31
715.61	291.44
715.95	290.55
716.28	289.71
716.61	288.83
716.95	287.98
717.28	287.20
717.61	286.43
717.94	285.67
718.28	284.84
718.61	284.17
718.94	283.50
719.27	282.81
719.61	282.15
719.94	281.52
720.27	280.77
720.60	280.11
720.94	279.44
721.27	278.87
721.60	278.29
721.93	277.69
722.27	277.17
722.60	276.59
722.93	276.05
723.26	275.50
723.59	274.97
723.93	274.41
724.26	273.88
724.59	273.31
724.92	272.78
725.25	272.28
725.59	271.70
725.92	271.17
726.25	270.67
726.58	270.16
726.91	269.66
727.24	269.18
727.57	268.69
727.91	268.19
728.24	267.65
728.57	267.17
728.90	266.69
729.23	266.20
729.56	265.78
729.89	265.29
730.22	264.79
730.55	264.30
730.89	263.86
731.22	263.40
731.55	262.97
731.88	262.53
732.21	262.08
732.54	261.69
732.87	261.24
733.20	260.85
733.53	260.45
733.86	260.06
734.19	259.68
734.52	259.30
734.85	258.98
735.18	258.62
735.51	258.25
735.84	257.86
736.17	257.48
736.50	257.06
736.83	256.83
737.16	256.49
737.49	256.15
737.82	255.80
738.15	255.47
738.48	255.14
738.81	254.80
739.14	254.53
739.47	254.23
739.80	253.95
740.13	253.62
740.46	253.28
740.79	252.93
741.12	252.64
741.45	252.34
741.78	252.02
742.11	251.74
742.44	251.40
742.77	251.13
743.10	250.86
743.43	250.61
743.75	250.20
744.08	250.08
744.41	249.81
744.74	249.56
745.07	249.28
745.40	249.06
745.73	248.85
746.06	248.57
746.39	248.31
746.71	248.05
747.04	247.76
747.37	247.53
747.70	247.32
748.03	247.08
748.36	246.87
748.68	246.66
749.01	246.40
749.34	246.21
749.67	245.95
750.00	245.74
750.33	245.54
750.65	245.36
750.98	245.02
751.31	244.77
751.64	244.59
751.97	244.45
752.29	244.22
752.62	243.99
752.95	243.76
753.28	243.54
753.60	243.32
753.93	243.19
754.26	243.03
754.59	242.80
754.91	242.56
755.24	242.35
755.57	242.14
755.90	241.97
756.22	241.76
756.55	241.59
756.88	241.36
757.20	241.14
757.53	240.96
757.86	240.80
758.19	240.65
758.51	240.45
758.84	240.25
759.17	240.08
759.49	239.91
759.82	239.79
760.15	239.63
760.47	239.49
760.80	239.33
761.13	239.14
761.45	238.99
761.78	238.88
762.11	238.74
762.43	238.61
762.76	238.45
763.08	238.36
763.41	238.25
763.74	238.14
764.06	237.98
764.39	237.82
764.71	237.68
765.04	237.53
765.37	237.39
765.69	237.24
766.02	237.11
766.34	237.00
766.67	236.86
767.00	236.75
767.32	236.68
767.65	236.62
767.97	236.49
768.30	236.36
768.62	236.22
768.95	236.07
769.27	235.92
769.60	235.83
769.92	235.70
770.25	235.51
770.57	235.40
770.90	235.28
771.22	235.14
771.55	235.04
771.87	234.92
772.20	234.84
772.52	234.83
772.85	234.83
773.17	234.71
773.50	234.60
773.82	234.53
774.15	234.38
774.47	234.18
774.80	234.08
775.12	234.00
775.45	233.93
775.77	233.86
776.09	233.81
776.42	233.73
776.74	233.65
777.07	233.60
777.39	233.51
777.72	233.46
778.04	233.39
778.36	233.31
778.69	233.27
779.01	233.20
779.33	233.05
779.66	232.87
779.98	232.82
780.31	232.76
780.63	232.70
780.95	232.67
781.28	232.63
781.60	232.58
781.92	232.52
782.25	232.47
782.57	232.38
782.89	232.27
783.22	232.20
783.54	232.13
783.86	232.08
784.19	232.02
784.51	232.00
784.83	231.95
785.16	231.89
785.48	231.85
785.80	231.78
786.12	231.76
786.45	231.73
786.77	231.71
787.09	231.68
787.42	231.63
787.74	231.57
788.06	231.54
788.38	231.52
788.71	231.52
789.03	231.50
789.35	231.51
789.67	231.49
789.99	231.46
790.32	231.45
790.64	231.43
790.96	231.47
791.28	231.43
791.61	231.40
791.93	231.41
792.25	231.39
792.57	231.44
792.89	231.39
793.21	231.36
793.54	231.30
793.86	231.26
794.18	231.24
794.50	231.24
794.82	231.24
795.14	231.22
795.47	231.20
795.79	231.13
796.11	231.10
796.43	231.06
796.75	231.03
797.07	230.97
797.39	230.96
797.71	230.90
798.04	230.86
798.36	230.84
798.68	230.80
799.00	230.79
799.32	230.72
799.64	230.69
799.96	230.65
800.28	230.62
800.60	230.58
800.92	230.54
801.24	230.48
801.56	230.42
801.89	230.37
802.21	230.35
802.53	230.31
802.85	230.28
803.17	230.30
803.49	230.29
803.81	230.26
804.13	230.21
804.45	230.13
804.77	230.09
805.09	230.04
805.41	229.95
805.73	229.88
806.05	229.81
806.37	229.78
806.69	229.73
807.01	229.69
807.33	229.66
807.65	229.57
807.97	229.59
808.28	229.52
808.60	229.47
808.92	229.36
809.24	229.37
809.56	229.30
809.88	229.24
810.20	229.18
810.52	229.16
810.84	229.10
811.16	229.04
811.48	228.99
811.80	229.03
812.12	229.00
812.43	229.00
812.75	228.98
813.07	228.94
813.39	228.91
813.71	228.83
814.03	228.78
814.35	228.76
814.67	228.67
814.98	228.65
815.30	228.62
815.62	228.61
815.94	228.50
816.26	228.51
816.58	228.46
816.89	228.46
817.21	228.44
817.53	228.44
817.85	228.46
818.17	228.44
818.48	228.35
818.80	228.37
819.12	228.32
819.44	228.31
819.76	228.29
820.07	228.27
820.39	228.29
820.71	228.30
821.03	228.30
821.34	228.28
821.66	228.27
821.98	228.26
822.30	228.29
822.61	228.37
822.93	228.31
823.25	228.27
823.57	228.22
823.88	228.22
824.20	228.20
824.52	228.19
824.83	228.20
825.15	228.18
825.47	228.15
825.79	228.16
826.10	228.16
826.42	228.13
826.74	228.15
827.05	228.14
827.37	228.14
827.69	228.11
828.00	228.11
828.32	228.13
828.64	228.12
828.95	228.14
829.27	228.12
829.58	228.15
829.90	228.22
830.22	228.25
830.53	228.17
830.85	228.17
831.17	228.14
831.48	228.13
831.80	228.14
832.11	228.13
832.43	228.11
832.75	228.10
833.06	228.19
833.38	228.15
833.69	228.16
834.01	228.16
834.32	228.15
834.64	228.17
834.96	228.14
835.27	228.14
835.59	228.11
835.90	228.10
836.22	228.09
836.53	228.04
836.85	228.00
837.16	228.13
837.48	228.10
837.79	228.13
838.11	228.16
838.42	228.14
838.74	228.15
839.05	228.11
839.37	228.11
839.68	228.05
840.00	228.03
840.31	228.04
840.63	228.05
840.94	228.06
841.26	228.04
841.57	228.06
841.88	228.05
842.20	228.05
842.51	228.03
842.83	228.03
843.14	228.08
843.46	228.11
843.77	228.04
844.08	228.05
844.40	228.02
844.71	227.99
845.03	227.98
845.34	227.97
845.65	227.96
845.97	227.94
846.28	227.91
846.60	227.93
846.91	227.90
847.22	227.85
847.54	227.86
847.85	227.86
848.16	227.84
848.48	227.82
848.79	227.82
849.10	227.81
849.42	227.81
849.73	227.73
850.04	227.67
850.36	227.61
850.67	227.59
850.98	227.59
851.30	227.59
851.61	227.58
851.92	227.56
852.23	227.60
852.55	227.61
852.86	227.58
853.17	227.55
853.49	227.55
853.80	227.56
854.11	227.54
854.42	227.54
854.74	227.50
855.05	227.50
855.36	227.45
855.67	227.41
855.99	227.41
856.30	227.47
856.61	227.50
856.92	227.52
857.23	227.53
857.55	227.49
857.86	227.48
858.17	227.48
858.48	227.47
858.79	227.44
859.11	227.41
859.42	227.42
859.73	227.38
860.04	227.34
860.35	227.29
860.66	227.23
860.98	227.24
861.29	227.23
861.60	227.18
861.91	227.18
862.22	227.19
862.53	227.16
862.84	227.07
863.16	227.07
863.47	227.05
863.78	227.05
864.09	227.06
864.40	227.06
864.71	227.04
865.02	227.05
865.33	227.05
865.64	227.06
865.95	227.06
866.27	227.14
866.58	227.17
866.89	227.22
867.20	227.23
867.51	227.19
867.82	227.20
868.13	227.28
868.44	227.26
868.75	227.29
869.06	227.29
869.37	227.33
869.68	227.31
869.99	227.33
870.30	227.32
870.61	227.33
870.92	227.31
871.23	227.35
871.54	227.38
871.85	227.43
872.16	227.43
872.47	227.46
872.78	227.43
873.09	227.46
873.40	227.47
873.71	227.51
874.02	227.56
874.33	227.57
874.64	227.55
874.95	227.63
875.26	227.61
875.56	227.59
875.87	227.57
876.18	227.55
876.49	227.64
876.80	227.66
877.11	227.68
877.42	227.68
877.73	227.65
878.04	227.65
878.35	227.63
878.66	227.66
878.96	227.62
879.27	227.60
879.58	227.58
879.89	227.58
880.20	227.59
880.51	227.56
880.82	227.58
881.12	227.58
881.43	227.52
881.74	227.50
882.05	227.54
882.36	227.56
882.67	227.62
882.97	227.53
883.28	227.50
883.59	227.47
883.90	227.49
884.21	227.51
884.51	227.49
884.82	227.46
885.13	227.44
885.44	227.43
885.74	227.42
886.05	227.41
886.36	227.39
886.67	227.37
886.98	227.40
887.28	227.41
887.59	227.41
887.90	227.41
888.20	227.42
888.51	227.43
888.82	227.40
889.13	227.39
889.43	227.46
889.74	227.41
890.05	227.38
890.35	227.40
890.66	227.37
890.97	227.32
891.28	227.32
891.58	227.30
891.89	227.31
892.20	227.31
892.50	227.33
892.81	227.31
893.12	227.31
893.42	227.28
893.73	227.24
894.04	227.22
894.34	227.23
894.65	227.19
894.95	227.17
895.26	227.18
895.57	227.21
895.87	227.10
896.18	227.13
896.48	227.16
896.79	227.13
897.10	227.14
897.40	227.15
897.71	227.12
898.01	227.09
898.32	227.10
898.63	227.10
898.93	227.04
899.24	227.05
899.54	227.05
899.85	227.04
900.15	227.02
900.46	227.01
900.76	226.98
901.07	226.95
901.38	226.92
901.68	226.93
901.99	226.88
902.29	226.87
902.60	226.87
902.90	226.83
903.21	226.82
903.51	226.78
903.82	226.82
904.12	226.82
904.43	226.86
904.73	226.86
905.03	226.86
905.34	226.93
905.64	226.91
905.95	226.89
906.25	226.87
906.56	226.89
906.86	226.88
907.17	226.91
907.47	226.93
907.77	226.95
908.08	226.88
908.38	226.89
908.69	226.91
908.99	226.96
909.30	226.98
909.60	226.99
909.90	227.05
910.21	227.01
910.51	227.01
910.81	226.98
911.12	226.98
911.42	227.01
911.73	226.96
912.03	227.00
912.33	227.02
912.64	227.03
912.94	227.01
913.24	227.01
913.55	227.02
913.85	227.03
914.15	227.05
914.46	227.11
914.76	227.09
915.06	227.07
915.37	227.03
915.67	227.05
915.97	227.07
916.27	227.03
916.58	227.06
916.88	227.05
917.18	227.05
917.49	227.12
917.79	227.12
918.09	227.11
918.39	227.12
918.70	227.14
919.00	227.14
919.30	227.20
919.60	227.20
919.91	227.18
920.21	227.18
920.51	227.17
920.81	227.13
921.12	227.15
921.42	227.16
921.72	227.15
922.02	227.13
922.32	227.12
922.63	227.15
922.93	227.17
923.23	227.21
923.53	227.19
923.83	227.13
924.13	227.11
924.44	227.12
924.74	227.11
925.04	227.13
925.34	227.12
925.64	227.07
925.94	227.05
926.24	227.10
926.55	227.10
926.85	227.11
927.15	227.13
927.45	227.13
927.75	227.13
928.05	227.17
928.35	227.18
928.65	227.20
928.95	227.17
929.26	227.15
929.56	227.17
929.86	227.16
930.16	227.14
930.46	227.15
930.76	227.16
931.06	227.12
931.36	227.11
931.66	227.10
931.96	227.10
932.26	227.13
932.56	227.09
932.86	227.11
933.16	227.08
933.46	227.08
933.76	227.06
934.06	227.07
934.36	227.11
934.66	227.11
934.96	227.08
935.26	227.10
935.56	227.11
935.86	227.08
936.16	227.09
936.46	227.10
936.76	227.09
937.06	227.08
937.36	227.09
937.66	227.05
937.96	227.08
938.26	227.07
938.56	227.06
938.86	227.08
939.16	227.10
939.46	227.14
939.76	227.15
940.06	227.16
940.35	227.13
940.65	227.08
940.95	227.07
941.25	227.09
941.55	227.06
941.85	227.01
942.15	226.99
942.45	227.03
942.75	227.05
943.04	227.02
943.34	227.02
943.64	227.00
943.94	227.03
944.24	226.97
944.54	226.99
944.84	226.98
945.13	226.94
945.43	226.94
945.73	226.90
946.03	226.87
946.33	226.86
946.62	226.87
946.92	226.87
947.22	226.87
947.52	226.86
947.82	226.90
948.11	226.92
948.41	226.91
948.71	226.87
949.01	226.84
949.31	226.86
949.60	226.85
949.90	226.86
950.20	226.85
950.50	226.88
950.79	226.85
951.09	226.87
951.39	226.88
951.69	226.82
951.98	226.84
952.28	226.86
952.58	226.86
952.87	226.86
953.17	226.83
953.47	226.81
953.76	226.80
954.06	226.74
954.36	226.71
954.66	226.70
954.95	226.70
955.25	226.74
955.55	226.74
955.84	226.70
956.14	226.74
956.44	226.72
956.73	226.70
957.03	226.70
957.32	226.70
957.62	226.69
957.92	226.70
958.21	226.69
958.51	226.81
958.81	226.78
959.10	226.79
959.40	226.81
959.69	226.83
959.99	226.85
960.29	226.88
960.58	226.91
960.88	226.97
961.17	227.00
961.47	227.01
961.76	227.01
962.06	227.04
962.36	227.01
962.65	227.02
962.95	227.01
963.24	227.00
963.54	227.01
963.83	227.00
964.13	227.03
964.42	227.03
964.72	226.93
965.01	226.97
965.31	226.94
965.60	226.91
965.90	226.97
966.19	226.97
966.49	226.99
966.78	226.96
967.08	226.92
967.37	226.92
967.67	226.90
967.96	226.91
968.26	226.94
968.55	226.95
968.85	226.95
969.14	226.97
969.43	226.97
969.73	226.95
970.02	226.95
970.32	226.95
970.61	226.94
970.91	226.91
971.20	226.92
971.49	226.90
971.79	226.94
972.08	226.86
972.38	226.86
972.67	226.86
972.96	226.89
973.26	226.91
973.55	226.88
973.85	226.85
974.14	226.83
974.43	226.81
974.73	226.80
975.02	226.79
975.31	226.80
975.61	226.81
975.90	226.81
976.19	226.81
976.49	226.78
976.78	226.81
977.07	226.84
977.37	226.80
977.66	226.81
977.95	226.79
978.24	226.82
978.54	226.82
978.83	226.81
979.12	226.80
979.42	226.78
979.71	226.81
980.00	226.79
980.29	226.78
980.59	226.75
980.88	226.75
981.17	226.75
981.46	226.72
981.76	226.72
982.05	226.80
982.34	226.80
982.63	226.82
982.93	226.80
983.22	226.84
983.51	226.87
983.80	226.88
984.09	226.91
984.39	226.91
984.68	226.89
984.97	226.87
985.26	226.86
985.55	226.88
985.85	226.87
986.14	226.91
986.43	226.94
986.72	226.94
987.01	226.94
987.30	226.92
987.59	226.91
987.89	226.91
988.18	226.81
988.47	226.82
988.76	226.78
989.05	226.79
989.34	226.72
989.63	226.72
989.92	226.75
990.22	226.69
990.51	226.68
990.80	226.69
991.09	226.71
991.38	226.74
991.67	226.71
991.96	226.69
992.25	226.71
992.54	226.70
992.83	226.68
993.12	226.67
993.41	226.70
993.70	226.74
993.99	226.77
994.28	226.82
994.58	226.78
994.87	226.80
995.16	226.80
995.45	226.80
995.74	226.81
996.03	226.80
996.32	226.82
996.61	226.84
996.90	226.83
997.19	226.82
997.48	226.83
997.77	226.84
998.06	226.85
998.34	226.82
998.63	226.83
998.92	226.85
999.21	226.87
999.50	226.89
999.79	226.88
1000.08	226.86
1000.37	226.85
1000.66	226.86
1000.95	226.87
1001.24	226.86
1001.53	226.90
1001.82	226.86
1002.11	226.85
1002.40	226.88
1002.68	226.86
1002.97	226.94
1003.26	226.94
1003.55	226.90
1003.84	226.89
1004.13	226.92
1004.42	226.94
1004.71	226.93
1004.99	226.91
1005.28	226.94
1005.57	226.93
1005.86	226.90
1006.15	226.89
1006.44	226.86
1006.72	226.88
1007.01	226.85
1007.30	226.82
1007.59	226.78
1007.88	226.80
1008.17	226.80
1008.45	226.77
1008.74	226.77
1009.03	226.70
1009.32	226.70
1009.60	226.67
1009.89	226.65
1010.18	226.59
1010.47	226.56
1010.76	226.52
1011.04	226.53
1011.33	226.52
1011.62	226.49
1011.91	226.49
1012.19	226.51
1012.48	226.51
1012.77	226.53
1013.05	226.60
1013.34	226.64
1013.63	226.64
1013.92	226.63
1014.20	226.63
1014.49	226.62
1014.78	226.61
1015.06	226.59
1015.35	226.59
1015.64	226.61
1015.92	226.64
1016.21	226.65
1016.50	226.66
1016.78	226.68
1017.07	226.71
1017.36	226.65
1017.64	226.67
1017.93	226.70
1018.22	226.67
1018.50	226.68
1018.79	226.65
1019.08	226.60
1019.36	226.60
1019.65	226.62
1019.93	226.66
1020.22	226.66
1020.51	226.69
1020.79	226.68
1021.08	226.39
1021.36	226.47
1021.65	226.67
1021.94	226.66
1022.22	227.18
1022.51	226.90
1022.79	227.20
1023.08	226.53
1023.36	227.43
1023.65	226.42
>>>>>End Processed Spectral Data<<<<<
