SpectraSuite Data File
++++++++++++++++++++++++++++++++++++
Date: Fri Feb 01 15:46:13 EST 2013
User: group
Dark Spectrum Present: No
Reference Spectrum Present: No
Number of Sampled Component Spectra: 1
Spectrometers: USB2E7196
Integration Time (usec): 35000 (USB2E7196)
Spectra Averaged: 100 (USB2E7196)
Boxcar Smoothing: 10 (USB2E7196)
Correct for Electrical Dark: No (USB2E7196)
Strobe/Lamp Enabled: No (USB2E7196)
Correct for Detector Non-linearity: No (USB2E7196)
Correct for Stray Light: No (USB2E7196)
Number of Pixels in Processed Spectrum: 2048
>>>>>Begin Processed Spectral Data<<<<<
339.09	0.00
339.48	215.23
339.86	216.22
340.24	218.41
340.63	219.29
341.01	221.98
341.39	221.67
341.78	223.12
342.16	224.19
342.54	224.87
342.93	213.32
343.31	224.10
343.69	224.63
344.07	225.10
344.46	225.48
344.84	225.85
345.22	226.08
345.60	226.30
345.99	226.48
346.37	226.61
346.75	226.69
347.13	226.69
347.52	226.73
347.90	226.81
348.28	226.82
348.66	226.86
349.05	226.82
349.43	226.85
349.81	226.90
350.19	226.94
350.57	226.98
350.96	227.05
351.34	227.10
351.72	227.17
352.10	227.23
352.48	227.29
352.87	227.35
353.25	227.39
353.63	227.47
354.01	227.55
354.39	227.63
354.77	227.72
355.15	227.85
355.54	227.89
355.92	227.93
356.30	227.98
356.68	228.07
357.06	228.17
357.44	228.18
357.82	228.24
358.20	228.31
358.58	228.36
358.97	228.42
359.35	228.51
359.73	228.58
360.11	228.62
360.49	228.70
360.87	228.74
361.25	228.82
361.63	228.92
362.01	228.95
362.39	228.96
362.77	229.00
363.15	229.03
363.53	229.10
363.91	229.13
364.29	229.19
364.67	229.13
365.05	229.16
365.43	229.24
365.81	229.29
366.19	229.33
366.57	229.35
366.95	229.33
367.33	229.33
367.71	229.31
368.09	229.34
368.47	229.35
368.85	229.31
369.23	229.33
369.61	229.26
369.99	229.26
370.37	229.25
370.75	229.23
371.13	229.19
371.51	229.14
371.89	229.12
372.27	229.04
372.65	229.04
373.03	229.00
373.41	228.90
373.78	228.78
374.16	228.70
374.54	228.61
374.92	228.56
375.30	228.50
375.68	228.44
376.06	228.37
376.44	228.30
376.82	228.25
377.19	228.14
377.57	228.06
377.95	227.98
378.33	227.89
378.71	227.76
379.09	227.70
379.47	227.63
379.84	227.54
380.22	227.49
380.60	227.38
380.98	227.28
381.36	227.24
381.73	227.20
382.11	227.15
382.49	227.11
382.87	227.02
383.25	226.92
383.62	226.96
384.00	226.90
384.38	226.85
384.76	226.82
385.13	226.81
385.51	226.77
385.89	226.72
386.27	226.72
386.64	226.72
387.02	226.68
387.40	226.66
387.78	226.60
388.15	226.58
388.53	226.53
388.91	226.51
389.29	226.48
389.66	226.46
390.04	226.41
390.42	226.40
390.79	226.41
391.17	226.41
391.55	226.30
391.92	226.28
392.30	226.27
392.68	226.23
393.05	226.25
393.43	226.27
393.81	226.28
394.18	226.23
394.56	226.23
394.94	226.29
395.31	226.27
395.69	226.34
396.06	226.35
396.44	226.41
396.82	226.45
397.19	226.54
397.57	226.56
397.95	226.61
398.32	226.62
398.70	226.69
399.07	226.78
399.45	226.84
399.82	226.91
400.20	226.95
400.58	227.03
400.95	227.04
401.33	227.12
401.70	227.25
402.08	227.38
402.45	227.51
402.83	227.58
403.20	227.71
403.58	227.82
403.95	227.96
404.33	228.07
404.71	228.19
405.08	228.37
405.46	228.52
405.83	228.67
406.21	228.86
406.58	229.00
406.96	229.12
407.33	229.28
407.70	229.48
408.08	229.81
408.45	230.03
408.83	230.29
409.20	230.50
409.58	230.71
409.95	230.99
410.33	231.24
410.70	231.52
411.08	231.84
411.45	232.10
411.82	232.39
412.20	232.73
412.57	233.14
412.95	233.43
413.32	233.85
413.69	234.25
414.07	234.65
414.44	235.12
414.82	235.63
415.19	236.19
415.56	236.73
415.94	237.26
416.31	237.90
416.68	238.53
417.06	239.25
417.43	239.94
417.81	240.67
418.18	241.48
418.55	242.29
418.93	243.14
419.30	244.04
419.67	245.01
420.04	245.98
420.42	246.96
420.79	248.14
421.16	249.29
421.54	250.50
421.91	251.73
422.28	252.96
422.66	254.28
423.03	255.61
423.40	256.96
423.77	258.35
424.15	259.77
424.52	261.26
424.89	262.84
425.26	264.38
425.64	265.81
426.01	267.36
426.38	269.07
426.75	270.72
427.13	272.47
427.50	274.27
427.87	276.15
428.24	278.03
428.61	279.76
428.99	281.71
429.36	283.82
429.73	285.85
430.10	287.97
430.47	290.05
430.85	292.11
431.22	294.34
431.59	296.74
431.96	298.99
432.33	301.47
432.70	303.90
433.08	306.73
433.45	309.38
433.82	312.01
434.19	314.86
434.56	317.70
434.93	320.37
435.30	323.02
435.68	325.89
436.05	328.74
436.42	331.55
436.79	334.04
437.16	336.75
437.53	339.64
437.90	342.41
438.27	345.15
438.64	348.00
439.01	350.60
439.38	352.83
439.75	355.04
440.13	357.54
440.50	359.77
440.87	361.61
441.24	363.58
441.61	365.73
441.98	367.21
442.35	368.97
442.72	370.80
443.09	372.59
443.46	373.58
443.83	374.16
444.20	374.68
444.57	375.54
444.94	375.83
445.31	376.12
445.68	376.48
446.05	376.53
446.42	376.15
446.79	375.70
447.16	375.21
447.53	374.82
447.90	373.65
448.27	372.56
448.64	370.97
449.01	369.77
449.37	367.81
449.74	365.92
450.11	363.67
450.48	361.20
450.85	358.65
451.22	356.47
451.59	354.42
451.96	352.47
452.33	349.81
452.70	347.44
453.07	344.56
453.43	341.63
453.80	338.83
454.17	336.13
454.54	333.57
454.91	330.87
455.28	328.20
455.65	325.66
456.02	323.21
456.38	321.04
456.75	318.38
457.12	316.10
457.49	313.89
457.86	311.72
458.23	309.86
458.59	307.80
458.96	305.73
459.33	303.85
459.70	301.96
460.07	300.47
460.43	298.72
460.80	297.13
461.17	295.73
461.54	294.28
461.91	292.89
462.27	291.44
462.64	290.20
463.01	288.83
463.38	287.58
463.74	286.20
464.11	285.06
464.48	284.02
464.85	282.95
465.21	282.09
465.58	281.20
465.95	280.11
466.32	279.21
466.68	278.35
467.05	277.50
467.42	276.61
467.78	275.67
468.15	274.80
468.52	274.17
468.88	273.33
469.25	272.56
469.62	271.94
469.98	271.31
470.35	270.65
470.72	270.11
471.08	269.45
471.45	268.94
471.82	268.38
472.18	267.83
472.55	267.36
472.92	266.86
473.28	266.37
473.65	265.92
474.02	265.51
474.38	265.14
474.75	264.85
475.11	264.53
475.48	264.31
475.85	264.13
476.21	263.90
476.58	263.70
476.94	263.56
477.31	263.38
477.67	263.28
478.04	263.21
478.41	263.13
478.77	263.18
479.14	263.15
479.50	263.18
479.87	263.27
480.23	263.37
480.60	263.42
480.96	263.54
481.33	263.76
481.69	263.98
482.06	264.20
482.42	264.37
482.79	264.62
483.15	264.94
483.52	265.31
483.88	265.62
484.25	266.01
484.61	266.45
484.98	266.94
485.34	267.45
485.71	268.04
486.07	268.63
486.44	269.21
486.80	269.85
487.17	270.56
487.53	271.36
487.90	272.21
488.26	273.15
488.62	274.15
488.99	275.13
489.35	276.15
489.72	277.25
490.08	278.45
490.44	279.73
490.81	281.03
491.17	282.39
491.54	283.88
491.90	285.42
492.26	287.09
492.63	288.83
492.99	290.61
493.36	292.52
493.72	294.58
494.08	296.66
494.45	298.94
494.81	301.31
495.17	303.71
495.54	306.27
495.90	308.96
496.26	311.74
496.63	314.73
496.99	317.82
497.35	321.07
497.72	324.48
498.08	327.95
498.44	331.62
498.80	335.52
499.17	339.55
499.53	343.76
499.89	348.10
500.26	352.57
500.62	357.26
500.98	362.18
501.34	367.27
501.71	372.59
502.07	378.03
502.43	383.69
502.79	389.53
503.16	395.62
503.52	401.89
503.88	408.31
504.24	414.91
504.60	421.80
504.97	428.95
505.33	436.30
505.69	444.02
506.05	451.83
506.41	459.71
506.78	467.89
507.14	476.32
507.50	485.07
507.86	494.10
508.22	503.29
508.59	512.55
508.95	522.10
509.31	531.91
509.67	541.91
510.03	552.18
510.39	562.73
510.75	573.47
511.12	584.37
511.48	595.62
511.84	607.08
512.20	618.66
512.56	630.57
512.92	642.73
513.28	655.07
513.64	667.58
514.00	680.26
514.37	693.16
514.73	706.20
515.09	719.23
515.45	732.52
515.81	746.13
516.17	760.06
516.53	774.25
516.89	788.45
517.25	802.69
517.61	817.01
517.97	831.50
518.33	845.96
518.69	860.75
519.05	875.76
519.41	890.91
519.77	906.45
520.13	922.04
520.49	937.43
520.85	952.87
521.21	968.54
521.57	984.81
521.93	1000.64
522.29	1017.01
522.65	1033.25
523.01	1049.46
523.37	1065.55
523.73	1081.68
524.09	1097.65
524.45	1114.00
524.81	1130.72
525.17	1147.67
525.53	1164.52
525.89	1181.38
526.25	1198.16
526.61	1214.68
526.97	1231.56
527.33	1248.02
527.68	1264.58
528.04	1281.16
528.40	1297.88
528.76	1314.95
529.12	1331.47
529.48	1348.36
529.84	1364.41
530.20	1381.07
530.56	1398.11
530.91	1415.46
531.27	1432.35
531.63	1448.92
531.99	1465.50
532.35	1481.40
532.71	1497.19
533.07	1513.51
533.42	1529.46
533.78	1545.49
534.14	1561.72
534.50	1576.91
534.86	1592.70
535.21	1607.93
535.57	1623.77
535.93	1639.15
536.29	1654.01
536.65	1669.07
537.00	1683.76
537.36	1699.05
537.72	1713.59
538.08	1728.04
538.44	1741.77
538.79	1755.62
539.15	1769.32
539.51	1782.95
539.87	1797.29
540.22	1811.11
540.58	1824.91
540.94	1838.30
541.29	1851.25
541.65	1864.00
542.01	1877.29
542.37	1889.70
542.72	1902.13
543.08	1913.94
543.44	1926.37
543.79	1937.67
544.15	1948.71
544.51	1960.38
544.87	1971.41
545.22	1982.20
545.58	1992.39
545.94	2002.27
546.29	2012.06
546.65	2021.93
547.01	2031.26
547.36	2040.00
547.72	2048.46
548.07	2056.18
548.43	2064.34
548.79	2072.55
549.14	2079.97
549.50	2087.34
549.86	2094.95
550.21	2102.16
550.57	2109.25
550.92	2115.69
551.28	2122.59
551.64	2129.72
551.99	2136.32
552.35	2142.46
552.70	2148.67
553.06	2154.55
553.41	2160.87
553.77	2167.05
554.13	2173.10
554.48	2179.37
554.84	2184.74
555.19	2190.04
555.55	2195.25
555.90	2199.63
556.26	2204.41
556.61	2209.21
556.97	2213.49
557.32	2217.54
557.68	2221.68
558.03	2226.03
558.39	2229.75
558.74	2234.41
559.10	2238.20
559.45	2241.73
559.81	2246.12
560.16	2249.88
560.52	2253.38
560.87	2256.77
561.23	2259.35
561.58	2262.34
561.94	2264.81
562.29	2267.26
562.64	2270.00
563.00	2272.57
563.35	2276.11
563.71	2279.24
564.06	2282.38
564.42	2285.09
564.77	2287.79
565.12	2289.98
565.48	2291.85
565.83	2293.96
566.19	2295.15
566.54	2296.05
566.89	2297.22
567.25	2297.76
567.60	2299.02
567.96	2300.47
568.31	2301.29
568.66	2302.38
569.02	2302.92
569.37	2303.17
569.72	2304.02
570.08	2304.00
570.43	2304.07
570.78	2303.42
571.14	2301.77
571.49	2300.40
571.84	2300.09
572.20	2298.89
572.55	2298.03
572.90	2296.43
573.26	2294.98
573.61	2293.51
573.96	2291.76
574.31	2288.75
574.67	2285.56
575.02	2282.02
575.37	2278.61
575.72	2274.87
576.08	2271.55
576.43	2268.14
576.78	2264.37
577.13	2261.20
577.49	2258.17
577.84	2254.59
578.19	2250.82
578.54	2247.06
578.90	2242.76
579.25	2237.21
579.60	2232.27
579.95	2227.06
580.30	2222.14
580.66	2216.87
581.01	2211.76
581.36	2206.83
581.71	2202.71
582.06	2198.25
582.42	2193.69
582.77	2188.37
583.12	2183.61
583.47	2178.82
583.82	2173.91
584.17	2168.74
584.53	2163.32
584.88	2157.52
585.23	2151.79
585.58	2146.43
585.93	2141.11
586.28	2136.41
586.63	2131.44
586.98	2126.32
587.34	2121.69
587.69	2116.79
588.04	2111.50
588.39	2105.85
588.74	2099.37
589.09	2093.25
589.44	2086.55
589.79	2080.61
590.14	2075.15
590.49	2068.59
590.84	2062.14
591.19	2056.03
591.54	2049.47
591.89	2042.01
592.25	2035.40
592.60	2028.19
592.95	2020.58
593.30	2013.09
593.65	2005.39
594.00	1998.20
594.35	1990.87
594.70	1982.88
595.05	1975.59
595.40	1968.29
595.75	1960.75
596.10	1954.56
596.45	1947.72
596.80	1941.66
597.15	1935.01
597.50	1927.94
597.85	1921.63
598.19	1915.07
598.54	1908.00
598.89	1901.56
599.24	1895.67
599.59	1888.77
599.94	1882.59
600.29	1876.26
600.64	1869.80
600.99	1862.41
601.34	1855.68
601.69	1848.91
602.04	1841.99
602.39	1834.73
602.74	1827.97
603.08	1821.26
603.43	1814.51
603.78	1807.12
604.13	1799.69
604.48	1792.37
604.83	1785.36
605.18	1778.23
605.53	1770.21
605.87	1762.13
606.22	1754.75
606.57	1746.82
606.92	1739.74
607.27	1732.46
607.62	1725.54
607.96	1718.28
608.31	1711.55
608.66	1703.86
609.01	1696.11
609.36	1688.40
609.70	1680.16
610.05	1671.97
610.40	1664.26
610.75	1655.78
611.10	1648.11
611.44	1639.76
611.79	1631.87
612.14	1623.12
612.49	1614.00
612.83	1605.62
613.18	1597.49
613.53	1589.35
613.88	1580.65
614.22	1572.14
614.57	1563.62
614.92	1555.47
615.27	1547.79
615.61	1539.47
615.96	1531.54
616.31	1523.94
616.65	1516.59
617.00	1509.17
617.35	1501.44
617.70	1493.09
618.04	1484.67
618.39	1476.40
618.74	1468.76
619.08	1460.29
619.43	1452.74
619.78	1445.84
620.12	1438.57
620.47	1430.99
620.82	1422.82
621.16	1415.49
621.51	1407.95
621.85	1400.28
622.20	1391.68
622.55	1383.41
622.89	1375.54
623.24	1367.88
623.59	1360.55
623.93	1353.09
624.28	1345.79
624.62	1338.26
624.97	1331.06
625.32	1324.46
625.66	1317.53
626.01	1310.34
626.35	1302.85
626.70	1295.15
627.04	1287.45
627.39	1279.76
627.73	1272.41
628.08	1265.56
628.43	1258.19
628.77	1250.76
629.12	1243.22
629.46	1236.10
629.81	1228.71
630.15	1221.51
630.50	1214.07
630.84	1205.75
631.19	1197.82
631.53	1190.26
631.88	1182.73
632.22	1175.14
632.57	1167.57
632.91	1159.97
633.26	1152.53
633.60	1145.30
633.95	1138.20
634.29	1131.18
634.64	1124.45
634.98	1117.02
635.32	1109.79
635.67	1103.37
636.01	1096.69
636.36	1089.92
636.70	1083.48
637.05	1076.84
637.39	1070.36
637.73	1063.85
638.08	1058.05
638.42	1052.09
638.77	1045.67
639.11	1039.10
639.45	1032.69
639.80	1026.11
640.14	1019.76
640.49	1013.32
640.83	1006.88
641.17	1000.55
641.52	994.13
641.86	987.68
642.20	981.85
642.55	975.65
642.89	969.02
643.23	962.62
643.58	956.74
643.92	950.56
644.26	944.50
644.61	938.59
644.95	932.52
645.29	925.86
645.64	919.07
645.98	912.79
646.32	907.03
646.66	901.03
647.01	895.23
647.35	889.50
647.69	883.65
648.04	878.12
648.38	872.36
648.72	866.36
649.06	860.37
649.41	854.56
649.75	848.52
650.09	842.61
650.43	836.83
650.78	830.63
651.12	824.62
651.46	818.93
651.80	813.16
652.14	807.82
652.49	802.48
652.83	797.33
653.17	791.60
653.51	785.78
653.85	780.43
654.20	774.80
654.54	768.77
654.88	763.08
655.22	757.16
655.56	751.57
655.90	746.15
656.25	740.91
656.59	735.47
656.93	730.41
657.27	725.23
657.61	719.79
657.95	714.77
658.29	709.76
658.64	704.47
658.98	699.11
659.32	693.58
659.66	688.43
660.00	683.07
660.34	678.15
660.68	673.27
661.02	668.19
661.36	663.47
661.70	658.94
662.05	654.50
662.39	650.21
662.73	645.75
663.07	641.37
663.41	636.81
663.75	632.26
664.09	627.66
664.43	623.24
664.77	619.07
665.11	614.77
665.45	610.62
665.79	606.53
666.13	602.45
666.47	598.40
666.81	594.14
667.15	589.98
667.49	586.02
667.83	582.20
668.17	578.27
668.51	574.19
668.85	570.20
669.19	566.37
669.53	562.50
669.87	558.54
670.21	554.84
670.55	551.28
670.89	547.87
671.23	544.45
671.57	540.94
671.91	537.39
672.25	533.90
672.58	530.35
672.92	526.91
673.26	523.71
673.60	520.57
673.94	517.50
674.28	514.61
674.62	511.65
674.96	508.51
675.30	505.56
675.64	502.64
675.97	499.88
676.31	496.96
676.65	494.02
676.99	491.36
677.33	488.48
677.67	485.59
678.01	482.61
678.34	479.63
678.68	476.80
679.02	473.98
679.36	471.27
679.70	468.62
680.04	465.93
680.37	463.07
680.71	460.27
681.05	457.61
681.39	454.87
681.73	452.26
682.06	449.79
682.40	447.25
682.74	444.76
683.08	442.21
683.42	439.62
683.75	437.19
684.09	434.66
684.43	432.20
684.77	429.80
685.10	427.48
685.44	425.19
685.78	422.89
686.12	420.68
686.45	418.41
686.79	416.04
687.13	413.86
687.46	411.72
687.80	409.59
688.14	407.46
688.48	405.48
688.81	403.21
689.15	401.05
689.49	398.94
689.82	396.87
690.16	394.75
690.50	392.85
690.83	390.89
691.17	388.93
691.51	387.05
691.84	385.18
692.18	383.27
692.52	381.25
692.85	379.30
693.19	377.42
693.52	375.61
693.86	373.85
694.20	372.05
694.53	370.25
694.87	368.39
695.21	366.63
695.54	364.80
695.88	363.13
696.21	361.45
696.55	359.73
696.88	358.00
697.22	356.40
697.56	354.76
697.89	353.09
698.23	351.48
698.56	349.88
698.90	348.29
699.23	346.59
699.57	345.06
699.90	343.54
700.24	342.00
700.58	340.46
700.91	338.97
701.25	337.52
701.58	336.17
701.92	334.74
702.25	333.31
702.59	331.94
702.92	330.59
703.26	329.21
703.59	327.93
703.93	326.77
704.26	325.50
704.60	324.17
704.93	322.90
705.26	321.64
705.60	320.44
705.93	319.28
706.27	318.25
706.60	317.18
706.94	316.11
707.27	314.96
707.61	313.83
707.94	312.81
708.27	311.69
708.61	310.58
708.94	309.64
709.28	308.66
709.61	307.70
709.94	306.70
710.28	305.70
710.61	304.72
710.95	303.64
711.28	302.72
711.61	301.79
711.95	300.86
712.28	299.87
712.61	298.86
712.95	297.91
713.28	297.05
713.61	296.12
713.95	295.22
714.28	294.37
714.61	293.49
714.95	292.62
715.28	291.74
715.61	290.90
715.95	290.00
716.28	289.16
716.61	288.30
716.95	287.52
717.28	286.81
717.61	286.07
717.94	285.32
718.28	284.49
718.61	283.80
718.94	283.14
719.27	282.50
719.61	281.92
719.94	281.25
720.27	280.57
720.60	279.93
720.94	279.31
721.27	278.74
721.60	278.16
721.93	277.54
722.27	277.01
722.60	276.45
722.93	275.89
723.26	275.37
723.59	274.80
723.93	274.24
724.26	273.63
724.59	273.07
724.92	272.59
725.25	272.11
725.59	271.59
725.92	271.06
726.25	270.56
726.58	270.03
726.91	269.58
727.24	269.10
727.57	268.67
727.91	268.17
728.24	267.69
728.57	267.23
728.90	266.82
729.23	266.33
729.56	265.91
729.89	265.44
730.22	264.97
730.55	264.53
730.89	264.11
731.22	263.70
731.55	263.25
731.88	262.81
732.21	262.39
732.54	261.94
732.87	261.51
733.20	261.12
733.53	260.75
733.86	260.37
734.19	259.95
734.52	259.56
734.85	259.30
735.18	258.92
735.51	258.57
735.84	258.19
736.17	257.85
736.50	257.43
736.83	257.20
737.16	256.84
737.49	256.53
737.82	256.16
738.15	255.82
738.48	255.49
738.81	255.16
739.14	254.84
739.47	254.55
739.80	254.21
740.13	253.90
740.46	253.58
740.79	253.22
741.12	252.90
741.45	252.56
741.78	252.19
742.11	251.88
742.44	251.54
742.77	251.22
743.10	250.91
743.43	250.64
743.75	250.27
744.08	250.13
744.41	249.83
744.74	249.56
745.07	249.28
745.40	249.02
745.73	248.79
746.06	248.51
746.39	248.22
746.71	247.95
747.04	247.68
747.37	247.39
747.70	247.17
748.03	246.90
748.36	246.66
748.68	246.41
749.01	246.15
749.34	245.94
749.67	245.70
750.00	245.48
750.33	245.29
750.65	245.09
750.98	244.73
751.31	244.48
751.64	244.27
751.97	244.10
752.29	243.89
752.62	243.62
752.95	243.41
753.28	243.20
753.60	242.98
753.93	242.77
754.26	242.60
754.59	242.34
754.91	242.13
755.24	241.91
755.57	241.70
755.90	241.53
756.22	241.34
756.55	241.15
756.88	240.95
757.20	240.70
757.53	240.48
757.86	240.33
758.19	240.19
758.51	240.04
758.84	239.80
759.17	239.66
759.49	239.52
759.82	239.38
760.15	239.27
760.47	239.16
760.80	239.02
761.13	238.91
761.45	238.79
761.78	238.67
762.11	238.58
762.43	238.44
762.76	238.30
763.08	238.16
763.41	238.03
763.74	237.93
764.06	237.82
764.39	237.71
764.71	237.55
765.04	237.44
765.37	237.32
765.69	237.25
766.02	237.12
766.34	236.99
766.67	236.88
767.00	236.75
767.32	236.68
767.65	236.61
767.97	236.46
768.30	236.34
768.62	236.26
768.95	236.14
769.27	236.03
769.60	235.92
769.92	235.81
770.25	235.72
770.57	235.56
770.90	235.45
771.22	235.36
771.55	235.28
771.87	235.19
772.20	235.08
772.52	235.04
772.85	235.04
773.17	234.97
773.50	234.86
773.82	234.79
774.15	234.68
774.47	234.53
774.80	234.46
775.12	234.42
775.45	234.32
775.77	234.25
776.09	234.19
776.42	234.12
776.74	234.04
777.07	233.96
777.39	233.89
777.72	233.81
778.04	233.75
778.36	233.70
778.69	233.65
779.01	233.57
779.33	233.41
779.66	233.24
779.98	233.15
780.31	233.05
780.63	233.01
780.95	232.93
781.28	232.87
781.60	232.79
781.92	232.69
782.25	232.62
782.57	232.54
782.89	232.45
783.22	232.37
783.54	232.31
783.86	232.23
784.19	232.17
784.51	232.14
784.83	232.08
785.16	231.99
785.48	231.90
785.80	231.83
786.12	231.83
786.45	231.76
786.77	231.72
787.09	231.67
787.42	231.57
787.74	231.49
788.06	231.42
788.38	231.36
788.71	231.30
789.03	231.27
789.35	231.24
789.67	231.21
789.99	231.18
790.32	231.14
790.64	231.14
790.96	231.16
791.28	231.10
791.61	231.06
791.93	231.04
792.25	230.97
792.57	231.01
792.89	230.92
793.21	230.92
793.54	230.87
793.86	230.82
794.18	230.76
794.50	230.74
794.82	230.72
795.14	230.68
795.47	230.63
795.79	230.56
796.11	230.48
796.43	230.43
796.75	230.38
797.07	230.33
797.39	230.26
797.71	230.21
798.04	230.14
798.36	230.10
798.68	230.05
799.00	230.02
799.32	229.96
799.64	229.95
799.96	229.90
800.28	229.87
800.60	229.87
800.92	229.87
801.24	229.81
801.56	229.81
801.89	229.79
802.21	229.81
802.53	229.77
802.85	229.79
803.17	229.80
803.49	229.74
803.81	229.73
804.13	229.71
804.45	229.65
804.77	229.64
805.09	229.61
805.41	229.58
805.73	229.54
806.05	229.50
806.37	229.45
806.69	229.42
807.01	229.42
807.33	229.39
807.65	229.33
807.97	229.41
808.28	229.36
808.60	229.35
808.92	229.30
809.24	229.35
809.56	229.30
809.88	229.25
810.20	229.24
810.52	229.25
810.84	229.22
811.16	229.18
811.48	229.17
811.80	229.18
812.12	229.17
812.43	229.20
812.75	229.20
813.07	229.17
813.39	229.14
813.71	229.09
814.03	229.08
814.35	229.06
814.67	228.99
814.98	228.98
815.30	228.96
815.62	228.95
815.94	228.89
816.26	228.94
816.58	228.89
816.89	228.90
817.21	228.83
817.53	228.83
817.85	228.86
818.17	228.87
818.48	228.83
818.80	228.83
819.12	228.80
819.44	228.77
819.76	228.75
820.07	228.77
820.39	228.72
820.71	228.73
821.03	228.72
821.34	228.69
821.66	228.67
821.98	228.67
822.30	228.66
822.61	228.70
822.93	228.62
823.25	228.64
823.57	228.62
823.88	228.62
824.20	228.59
824.52	228.59
824.83	228.53
825.15	228.51
825.47	228.48
825.79	228.45
826.10	228.40
826.42	228.40
826.74	228.37
827.05	228.40
827.37	228.38
827.69	228.35
828.00	228.35
828.32	228.36
828.64	228.30
828.95	228.30
829.27	228.23
829.58	228.23
829.90	228.18
830.22	228.18
830.53	228.16
830.85	228.12
831.17	228.05
831.48	228.06
831.80	228.03
832.11	227.97
832.43	227.97
832.75	227.95
833.06	227.98
833.38	227.94
833.69	227.88
834.01	227.88
834.32	227.88
834.64	227.85
834.96	227.82
835.27	227.81
835.59	227.80
835.90	227.81
836.22	227.79
836.53	227.79
836.85	227.75
837.16	227.84
837.48	227.85
837.79	227.86
838.11	227.86
838.42	227.87
838.74	227.92
839.05	227.88
839.37	227.88
839.68	227.83
840.00	227.84
840.31	227.87
840.63	227.84
840.94	227.82
841.26	227.82
841.57	227.79
841.88	227.81
842.20	227.73
842.51	227.70
842.83	227.70
843.14	227.76
843.46	227.78
843.77	227.77
844.08	227.75
844.40	227.71
844.71	227.66
845.03	227.65
845.34	227.64
845.65	227.64
845.97	227.67
846.28	227.66
846.60	227.67
846.91	227.66
847.22	227.65
847.54	227.66
847.85	227.65
848.16	227.66
848.48	227.60
848.79	227.66
849.10	227.67
849.42	227.64
849.73	227.54
850.04	227.55
850.36	227.51
850.67	227.52
850.98	227.56
851.30	227.58
851.61	227.56
851.92	227.54
852.23	227.57
852.55	227.55
852.86	227.54
853.17	227.53
853.49	227.55
853.80	227.58
854.11	227.59
854.42	227.62
854.74	227.62
855.05	227.68
855.36	227.65
855.67	227.64
855.99	227.65
856.30	227.77
856.61	227.75
856.92	227.69
857.23	227.66
857.55	227.62
857.86	227.63
858.17	227.64
858.48	227.65
858.79	227.61
859.11	227.62
859.42	227.61
859.73	227.58
860.04	227.56
860.35	227.52
860.66	227.49
860.98	227.44
861.29	227.43
861.60	227.37
861.91	227.39
862.22	227.39
862.53	227.37
862.84	227.25
863.16	227.26
863.47	227.25
863.78	227.27
864.09	227.31
864.40	227.30
864.71	227.31
865.02	227.28
865.33	227.26
865.64	227.24
865.95	227.23
866.27	227.28
866.58	227.27
866.89	227.27
867.20	227.25
867.51	227.26
867.82	227.25
868.13	227.26
868.44	227.23
868.75	227.20
869.06	227.21
869.37	227.20
869.68	227.18
869.99	227.20
870.30	227.18
870.61	227.14
870.92	227.13
871.23	227.10
871.54	227.12
871.85	227.14
872.16	227.15
872.47	227.19
872.78	227.12
873.09	227.11
873.40	227.08
873.71	227.10
874.02	227.08
874.33	227.08
874.64	227.10
874.95	227.12
875.26	227.13
875.56	227.14
875.87	227.14
876.18	227.13
876.49	227.21
876.80	227.20
877.11	227.21
877.42	227.21
877.73	227.24
878.04	227.20
878.35	227.20
878.66	227.19
878.96	227.19
879.27	227.17
879.58	227.17
879.89	227.17
880.20	227.20
880.51	227.20
880.82	227.20
881.12	227.16
881.43	227.15
881.74	227.14
882.05	227.13
882.36	227.14
882.67	227.17
882.97	227.08
883.28	227.08
883.59	227.08
883.90	227.08
884.21	227.06
884.51	227.06
884.82	227.06
885.13	227.07
885.44	227.05
885.74	227.08
886.05	227.08
886.36	227.10
886.67	227.04
886.98	227.11
887.28	227.13
887.59	227.14
887.90	227.14
888.20	227.13
888.51	227.17
888.82	227.16
889.13	227.15
889.43	227.20
889.74	227.17
890.05	227.16
890.35	227.14
890.66	227.18
890.97	227.15
891.28	227.12
891.58	227.13
891.89	227.15
892.20	227.13
892.50	227.11
892.81	227.13
893.12	227.16
893.42	227.07
893.73	227.07
894.04	227.08
894.34	227.10
894.65	227.08
894.95	227.02
895.26	227.05
895.57	227.06
895.87	226.98
896.18	227.01
896.48	227.01
896.79	227.01
897.10	227.02
897.40	227.06
897.71	227.07
898.01	227.04
898.32	227.00
898.63	227.02
898.93	227.03
899.24	227.01
899.54	226.97
899.85	226.99
900.15	226.98
900.46	226.98
900.76	226.95
901.07	226.96
901.38	226.96
901.68	226.93
901.99	226.88
902.29	226.87
902.60	226.88
902.90	226.87
903.21	226.87
903.51	226.81
903.82	226.82
904.12	226.81
904.43	226.82
904.73	226.80
905.03	226.77
905.34	226.85
905.64	226.85
905.95	226.85
906.25	226.85
906.56	226.87
906.86	226.84
907.17	226.83
907.47	226.84
907.77	226.84
908.08	226.82
908.38	226.85
908.69	226.88
908.99	226.88
909.30	226.88
909.60	226.88
909.90	226.94
910.21	226.91
910.51	226.90
910.81	226.89
911.12	226.93
911.42	226.96
911.73	226.84
912.03	226.84
912.33	226.87
912.64	226.87
912.94	226.83
913.24	226.86
913.55	226.85
913.85	226.86
914.15	226.88
914.46	226.90
914.76	226.89
915.06	226.89
915.37	226.86
915.67	226.85
915.97	226.85
916.27	226.79
916.58	226.82
916.88	226.84
917.18	226.83
917.49	226.89
917.79	226.90
918.09	226.95
918.39	226.99
918.70	226.96
919.00	226.98
919.30	227.03
919.60	227.03
919.91	227.02
920.21	226.99
920.51	226.99
920.81	226.99
921.12	227.02
921.42	226.98
921.72	227.02
922.02	227.04
922.32	227.05
922.63	227.06
922.93	227.10
923.23	227.11
923.53	227.13
923.83	227.06
924.13	227.06
924.44	227.04
924.74	227.07
925.04	227.09
925.34	227.06
925.64	227.05
925.94	227.04
926.24	227.12
926.55	227.14
926.85	227.14
927.15	227.13
927.45	227.12
927.75	227.18
928.05	227.16
928.35	227.17
928.65	227.21
928.95	227.22
929.26	227.16
929.56	227.17
929.86	227.19
930.16	227.21
930.46	227.19
930.76	227.20
931.06	227.11
931.36	227.07
931.66	227.11
931.96	227.08
932.26	227.10
932.56	227.04
932.86	227.03
933.16	227.02
933.46	227.03
933.76	227.01
934.06	227.03
934.36	227.09
934.66	227.06
934.96	227.01
935.26	227.04
935.56	227.05
935.86	227.02
936.16	226.99
936.46	226.94
936.76	226.96
937.06	226.96
937.36	226.98
937.66	227.02
937.96	226.99
938.26	226.98
938.56	226.97
938.86	226.98
939.16	227.01
939.46	227.04
939.76	227.03
940.06	227.02
940.35	226.97
940.65	226.92
940.95	226.93
941.25	226.93
941.55	226.89
941.85	226.88
942.15	226.89
942.45	226.92
942.75	226.94
943.04	226.93
943.34	226.93
943.64	226.90
943.94	226.88
944.24	226.92
944.54	226.92
944.84	226.90
945.13	226.86
945.43	226.85
945.73	226.84
946.03	226.83
946.33	226.81
946.62	226.81
946.92	226.81
947.22	226.80
947.52	226.80
947.82	226.83
948.11	226.84
948.41	226.83
948.71	226.81
949.01	226.79
949.31	226.79
949.60	226.80
949.90	226.85
950.20	226.85
950.50	226.82
950.79	226.83
951.09	226.82
951.39	226.85
951.69	226.83
951.98	226.82
952.28	226.84
952.58	226.86
952.87	226.83
953.17	226.86
953.47	226.88
953.76	226.89
954.06	226.86
954.36	226.85
954.66	226.85
954.95	226.85
955.25	226.89
955.55	226.89
955.84	226.85
956.14	226.87
956.44	226.86
956.73	226.84
957.03	226.88
957.32	226.93
957.62	226.94
957.92	226.95
958.21	226.98
958.51	227.10
958.81	227.11
959.10	227.15
959.40	227.14
959.69	227.11
959.99	227.12
960.29	227.14
960.58	227.13
960.88	227.17
961.17	227.14
961.47	227.15
961.76	227.17
962.06	227.19
962.36	227.13
962.65	227.16
962.95	227.18
963.24	227.14
963.54	227.12
963.83	227.10
964.13	227.11
964.42	227.08
964.72	226.98
965.01	226.97
965.31	226.96
965.60	226.97
965.90	227.06
966.19	227.05
966.49	227.04
966.78	227.06
967.08	227.02
967.37	227.03
967.67	227.05
967.96	227.08
968.26	227.06
968.55	227.09
968.85	227.09
969.14	227.07
969.43	227.10
969.73	227.08
970.02	227.08
970.32	227.09
970.61	227.08
970.91	227.07
971.20	227.04
971.49	227.04
971.79	227.03
972.08	226.95
972.38	226.92
972.67	226.89
972.96	226.87
973.26	226.86
973.55	226.91
973.85	226.86
974.14	226.79
974.43	226.81
974.73	226.76
975.02	226.73
975.31	226.71
975.61	226.65
975.90	226.67
976.19	226.64
976.49	226.61
976.78	226.61
977.07	226.59
977.37	226.60
977.66	226.59
977.95	226.58
978.24	226.59
978.54	226.62
978.83	226.65
979.12	226.66
979.42	226.66
979.71	226.61
980.00	226.62
980.29	226.64
980.59	226.61
980.88	226.66
981.17	226.64
981.46	226.66
981.76	226.68
982.05	226.66
982.34	226.69
982.63	226.72
982.93	226.72
983.22	226.77
983.51	226.78
983.80	226.79
984.09	226.80
984.39	226.78
984.68	226.75
984.97	226.74
985.26	226.73
985.55	226.72
985.85	226.71
986.14	226.72
986.43	226.73
986.72	226.76
987.01	226.70
987.30	226.74
987.59	226.74
987.89	226.75
988.18	226.74
988.47	226.73
988.76	226.72
989.05	226.72
989.34	226.68
989.63	226.71
989.92	226.66
990.22	226.67
990.51	226.67
990.80	226.68
991.09	226.65
991.38	226.68
991.67	226.66
991.96	226.63
992.25	226.63
992.54	226.60
992.83	226.61
993.12	226.64
993.41	226.65
993.70	226.65
993.99	226.65
994.28	226.68
994.58	226.67
994.87	226.64
995.16	226.63
995.45	226.63
995.74	226.64
996.03	226.66
996.32	226.64
996.61	226.64
996.90	226.64
997.19	226.66
997.48	226.66
997.77	226.66
998.06	226.71
998.34	226.68
998.63	226.68
998.92	226.65
999.21	226.68
999.50	226.64
999.79	226.65
1000.08	226.66
1000.37	226.66
1000.66	226.63
1000.95	226.69
1001.24	226.71
1001.53	226.71
1001.82	226.67
1002.11	226.67
1002.40	226.68
1002.68	226.71
1002.97	226.78
1003.26	226.77
1003.55	226.77
1003.84	226.81
1004.13	226.84
1004.42	226.87
1004.71	226.87
1004.99	226.90
1005.28	226.91
1005.57	226.92
1005.86	226.91
1006.15	226.90
1006.44	226.89
1006.72	226.95
1007.01	226.91
1007.30	226.89
1007.59	226.90
1007.88	226.87
1008.17	226.89
1008.45	226.85
1008.74	226.81
1009.03	226.76
1009.32	226.74
1009.60	226.71
1009.89	226.69
1010.18	226.63
1010.47	226.63
1010.76	226.67
1011.04	226.66
1011.33	226.65
1011.62	226.65
1011.91	226.64
1012.19	226.68
1012.48	226.66
1012.77	226.62
1013.05	226.66
1013.34	226.62
1013.63	226.64
1013.92	226.67
1014.20	226.62
1014.49	226.68
1014.78	226.67
1015.06	226.62
1015.35	226.62
1015.64	226.66
1015.92	226.68
1016.21	226.68
1016.50	226.67
1016.78	226.64
1017.07	226.61
1017.36	226.60
1017.64	226.61
1017.93	226.61
1018.22	226.56
1018.50	226.58
1018.79	226.59
1019.08	226.53
1019.36	226.60
1019.65	226.57
1019.93	226.59
1020.22	226.63
1020.51	226.64
1020.79	226.63
1021.08	226.28
1021.36	226.82
1021.65	226.51
1021.94	226.53
1022.22	226.87
1022.51	226.86
1022.79	227.06
1023.08	226.68
1023.36	227.31
1023.65	226.28
>>>>>End Processed Spectral Data<<<<<
