SpectraSuite Data File
++++++++++++++++++++++++++++++++++++
Date: Fri Feb 01 15:25:47 EST 2013
User: group
Dark Spectrum Present: No
Reference Spectrum Present: No
Number of Sampled Component Spectra: 1
Spectrometers: USB2E7196
Integration Time (usec): 35000 (USB2E7196)
Spectra Averaged: 100 (USB2E7196)
Boxcar Smoothing: 10 (USB2E7196)
Correct for Electrical Dark: No (USB2E7196)
Strobe/Lamp Enabled: No (USB2E7196)
Correct for Detector Non-linearity: No (USB2E7196)
Correct for Stray Light: No (USB2E7196)
Number of Pixels in Processed Spectrum: 2048
>>>>>Begin Processed Spectral Data<<<<<
339.09	0.00
339.48	215.16
339.86	216.12
340.24	218.03
340.63	219.12
341.01	222.12
341.39	222.00
341.78	223.34
342.16	224.24
342.54	225.08
342.93	213.41
343.31	224.18
343.69	224.70
344.07	225.19
344.46	225.63
344.84	226.00
345.22	226.23
345.60	226.45
345.99	226.62
346.37	226.78
346.75	226.85
347.13	226.91
347.52	226.98
347.90	227.03
348.28	227.02
348.66	227.08
349.05	227.05
349.43	227.11
349.81	227.14
350.19	227.20
350.57	227.21
350.96	227.26
351.34	227.36
351.72	227.46
352.10	227.55
352.48	227.64
352.87	227.71
353.25	227.80
353.63	227.88
354.01	227.95
354.39	228.00
354.77	228.12
355.15	228.26
355.54	228.31
355.92	228.38
356.30	228.49
356.68	228.61
357.06	228.69
357.44	228.74
357.82	228.81
358.20	228.89
358.58	228.98
358.97	229.11
359.35	229.19
359.73	229.29
360.11	229.37
360.49	229.37
360.87	229.43
361.25	229.48
361.63	229.56
362.01	229.60
362.39	229.69
362.77	229.71
363.15	229.71
363.53	229.72
363.91	229.74
364.29	229.74
364.67	229.67
365.05	229.68
365.43	229.71
365.81	229.75
366.19	229.78
366.57	229.80
366.95	229.79
367.33	229.73
367.71	229.69
368.09	229.69
368.47	229.69
368.85	229.65
369.23	229.63
369.61	229.58
369.99	229.59
370.37	229.55
370.75	229.54
371.13	229.49
371.51	229.45
371.89	229.38
372.27	229.32
372.65	229.28
373.03	229.24
373.41	229.17
373.78	229.09
374.16	228.95
374.54	228.85
374.92	228.77
375.30	228.72
375.68	228.64
376.06	228.55
376.44	228.45
376.82	228.38
377.19	228.32
377.57	228.26
377.95	228.15
378.33	228.05
378.71	227.92
379.09	227.82
379.47	227.75
379.84	227.68
380.22	227.61
380.60	227.50
380.98	227.40
381.36	227.34
381.73	227.25
382.11	227.25
382.49	227.16
382.87	227.07
383.25	227.00
383.62	227.05
384.00	226.96
384.38	226.93
384.76	226.90
385.13	226.85
385.51	226.79
385.89	226.74
386.27	226.69
386.64	226.66
387.02	226.61
387.40	226.51
387.78	226.49
388.15	226.44
388.53	226.43
388.91	226.39
389.29	226.31
389.66	226.30
390.04	226.22
390.42	226.19
390.79	226.16
391.17	226.14
391.55	226.02
391.92	226.00
392.30	225.96
392.68	225.92
393.05	225.94
393.43	225.93
393.81	225.95
394.18	225.94
394.56	225.93
394.94	225.98
395.31	226.07
395.69	226.13
396.06	226.16
396.44	226.20
396.82	226.26
397.19	226.39
397.57	226.45
397.95	226.56
398.32	226.60
398.70	226.70
399.07	226.77
399.45	226.86
399.82	226.95
400.20	227.03
400.58	227.12
400.95	227.16
401.33	227.27
401.70	227.43
402.08	227.54
402.45	227.66
402.83	227.77
403.20	227.86
403.58	227.98
403.95	228.15
404.33	228.31
404.71	228.45
405.08	228.61
405.46	228.77
405.83	228.91
406.21	229.12
406.58	229.31
406.96	229.47
407.33	229.65
407.70	229.85
408.08	230.14
408.45	230.37
408.83	230.65
409.20	230.88
409.58	231.07
409.95	231.35
410.33	231.63
410.70	231.92
411.08	232.23
411.45	232.55
411.82	232.85
412.20	233.17
412.57	233.57
412.95	233.88
413.32	234.28
413.69	234.72
414.07	235.12
414.44	235.58
414.82	236.06
415.19	236.62
415.56	237.18
415.94	237.72
416.31	238.37
416.68	238.98
417.06	239.72
417.43	240.38
417.81	241.15
418.18	241.95
418.55	242.80
418.93	243.66
419.30	244.52
419.67	245.44
420.04	246.39
420.42	247.36
420.79	248.54
421.16	249.69
421.54	250.85
421.91	252.10
422.28	253.37
422.66	254.68
423.03	255.99
423.40	257.30
423.77	258.71
424.15	260.15
424.52	261.67
424.89	263.23
425.26	264.83
425.64	266.29
426.01	267.87
426.38	269.50
426.75	271.18
427.13	272.89
427.50	274.69
427.87	276.59
428.24	278.47
428.61	280.22
428.99	282.16
429.36	284.23
429.73	286.27
430.10	288.26
430.47	290.36
430.85	292.50
431.22	294.71
431.59	297.11
431.96	299.35
432.33	301.77
432.70	304.17
433.08	306.93
433.45	309.54
433.82	312.12
434.19	315.02
434.56	317.81
434.93	320.49
435.30	323.10
435.68	325.96
436.05	328.81
436.42	331.62
436.79	334.14
437.16	336.87
437.53	339.70
437.90	342.51
438.27	345.29
438.64	348.07
439.01	350.69
439.38	352.91
439.75	355.05
440.13	357.54
440.50	359.88
440.87	361.75
441.24	363.72
441.61	365.93
441.98	367.41
442.35	369.19
442.72	371.05
443.09	372.87
443.46	373.89
443.83	374.44
444.20	374.94
444.57	375.74
444.94	376.00
445.31	376.31
445.68	376.64
446.05	376.68
446.42	376.25
446.79	375.85
447.16	375.38
447.53	375.08
447.90	373.92
448.27	372.74
448.64	371.17
449.01	369.97
449.37	367.97
449.74	366.02
450.11	363.81
450.48	361.32
450.85	358.82
451.22	356.69
451.59	354.71
451.96	352.77
452.33	350.19
452.70	347.83
453.07	345.00
453.43	342.11
453.80	339.33
454.17	336.70
454.54	334.14
454.91	331.44
455.28	328.75
455.65	326.24
456.02	323.78
456.38	321.63
456.75	318.95
457.12	316.70
457.49	314.57
457.86	312.41
458.23	310.54
458.59	308.47
458.96	306.38
459.33	304.49
459.70	302.61
460.07	301.09
460.43	299.40
460.80	297.83
461.17	296.40
461.54	294.87
461.91	293.44
462.27	291.98
462.64	290.70
463.01	289.34
463.38	288.05
463.74	286.71
464.11	285.53
464.48	284.55
464.85	283.43
465.21	282.50
465.58	281.61
465.95	280.55
466.32	279.66
466.68	278.70
467.05	277.79
467.42	276.93
467.78	276.02
468.15	275.13
468.52	274.43
468.88	273.56
469.25	272.83
469.62	272.20
469.98	271.53
470.35	270.90
470.72	270.26
471.08	269.62
471.45	269.05
471.82	268.52
472.18	267.87
472.55	267.44
472.92	266.92
473.28	266.38
473.65	265.90
474.02	265.44
474.38	265.05
474.75	264.74
475.11	264.36
475.48	264.06
475.85	263.84
476.21	263.61
476.58	263.40
476.94	263.23
477.31	263.06
477.67	262.90
478.04	262.81
478.41	262.79
478.77	262.79
479.14	262.76
479.50	262.74
479.87	262.84
480.23	262.90
480.60	262.97
480.96	263.09
481.33	263.26
481.69	263.47
482.06	263.70
482.42	263.87
482.79	264.10
483.15	264.42
483.52	264.78
483.88	265.14
484.25	265.52
484.61	265.98
484.98	266.46
485.34	267.04
485.71	267.61
486.07	268.18
486.44	268.76
486.80	269.44
487.17	270.18
487.53	270.97
487.90	271.83
488.26	272.76
488.62	273.75
488.99	274.69
489.35	275.74
489.72	276.89
490.08	278.13
490.44	279.39
490.81	280.72
491.17	282.06
491.54	283.55
491.90	285.11
492.26	286.70
492.63	288.42
492.99	290.20
493.36	292.08
493.72	294.15
494.08	296.32
494.45	298.57
494.81	300.92
495.17	303.37
495.54	305.91
495.90	308.58
496.26	311.36
496.63	314.36
496.99	317.45
497.35	320.72
497.72	324.11
498.08	327.62
498.44	331.29
498.80	335.23
499.17	339.25
499.53	343.41
499.89	347.77
500.26	352.23
500.62	356.89
500.98	361.86
501.34	366.92
501.71	372.24
502.07	377.70
502.43	383.32
502.79	389.13
503.16	395.20
503.52	401.49
503.88	407.95
504.24	414.62
504.60	421.52
504.97	428.62
505.33	435.94
505.69	443.66
506.05	451.46
506.41	459.28
506.78	467.41
507.14	475.93
507.50	484.64
507.86	493.65
508.22	502.83
508.59	512.08
508.95	521.67
509.31	531.42
509.67	541.51
510.03	551.83
510.39	562.43
510.75	573.24
511.12	584.13
511.48	595.42
511.84	606.84
512.20	618.41
512.56	630.38
512.92	642.50
513.28	654.89
513.64	667.35
514.00	680.15
514.37	693.09
514.73	706.12
515.09	719.22
515.45	732.48
515.81	746.10
516.17	760.03
516.53	774.18
516.89	788.37
517.25	802.56
517.61	816.96
517.97	831.40
518.33	845.86
518.69	860.72
519.05	875.80
519.41	890.94
519.77	906.50
520.13	922.06
520.49	937.48
520.85	952.89
521.21	968.74
521.57	984.92
521.93	1000.82
522.29	1017.31
522.65	1033.56
523.01	1049.96
523.37	1066.07
523.73	1082.35
524.09	1098.41
524.45	1114.86
524.81	1131.58
525.17	1148.50
525.53	1165.53
525.89	1182.43
526.25	1199.27
526.61	1215.65
526.97	1232.43
527.33	1248.94
527.68	1265.51
528.04	1282.17
528.40	1298.97
528.76	1315.97
529.12	1332.74
529.48	1349.65
529.84	1365.73
530.20	1382.49
530.56	1399.53
530.91	1416.93
531.27	1433.70
531.63	1450.23
531.99	1466.89
532.35	1482.96
532.71	1498.82
533.07	1515.17
533.42	1531.11
533.78	1547.14
534.14	1563.60
534.50	1579.00
534.86	1594.96
535.21	1610.15
535.57	1625.93
535.93	1641.31
536.29	1656.26
536.65	1671.46
537.00	1686.19
537.36	1701.41
537.72	1716.03
538.08	1730.62
538.44	1744.45
538.79	1758.48
539.15	1772.36
539.51	1786.09
539.87	1800.56
540.22	1814.36
540.58	1828.00
540.94	1841.63
541.29	1854.78
541.65	1867.30
542.01	1880.70
542.37	1892.99
542.72	1905.63
543.08	1917.57
543.44	1930.08
543.79	1941.45
544.15	1952.41
544.51	1964.16
544.87	1975.37
545.22	1986.09
545.58	1996.21
545.94	2006.06
546.29	2015.86
546.65	2025.70
547.01	2035.02
547.36	2043.77
547.72	2052.28
548.07	2060.19
548.43	2068.23
548.79	2076.29
549.14	2083.98
549.50	2091.45
549.86	2099.25
550.21	2106.37
550.57	2113.76
550.92	2120.31
551.28	2127.17
551.64	2134.29
551.99	2140.82
552.35	2146.90
552.70	2153.07
553.06	2158.96
553.41	2165.41
553.77	2171.51
554.13	2177.67
554.48	2183.75
554.84	2189.12
555.19	2194.48
555.55	2199.76
555.90	2204.20
556.26	2209.00
556.61	2213.66
556.97	2217.78
557.32	2221.94
557.68	2226.22
558.03	2230.51
558.39	2234.41
558.74	2239.19
559.10	2243.06
559.45	2246.62
559.81	2251.04
560.16	2254.91
560.52	2258.37
560.87	2261.73
561.23	2264.44
561.58	2267.36
561.94	2269.81
562.29	2272.33
562.64	2275.01
563.00	2277.64
563.35	2281.26
563.71	2284.43
564.06	2287.68
564.42	2290.50
564.77	2292.97
565.12	2295.13
565.48	2296.86
565.83	2298.46
566.19	2299.61
566.54	2300.48
566.89	2301.69
567.25	2302.10
567.60	2303.58
567.96	2305.07
568.31	2305.83
568.66	2306.67
569.02	2307.13
569.37	2307.45
569.72	2308.25
570.08	2308.11
570.43	2307.95
570.78	2307.23
571.14	2305.56
571.49	2304.15
571.84	2303.83
572.20	2302.58
572.55	2301.54
572.90	2299.90
573.26	2298.51
573.61	2296.81
573.96	2294.94
574.31	2291.76
574.67	2288.61
575.02	2284.76
575.37	2281.28
575.72	2277.41
576.08	2274.22
576.43	2270.90
576.78	2267.21
577.13	2263.90
577.49	2260.99
577.84	2257.47
578.19	2253.61
578.54	2249.76
578.90	2245.49
579.25	2239.91
579.60	2234.84
579.95	2229.69
580.30	2224.63
580.66	2219.43
581.01	2214.45
581.36	2209.38
581.71	2205.23
582.06	2200.95
582.42	2196.38
582.77	2191.03
583.12	2186.35
583.47	2181.40
583.82	2176.16
584.17	2170.69
584.53	2164.95
584.88	2159.18
585.23	2153.28
585.58	2147.68
585.93	2142.38
586.28	2137.48
586.63	2132.15
586.98	2126.96
587.34	2122.23
587.69	2117.27
588.04	2111.95
588.39	2106.14
588.74	2099.54
589.09	2093.33
589.44	2086.29
589.79	2080.27
590.14	2074.61
590.49	2067.97
590.84	2061.73
591.19	2055.70
591.54	2049.28
591.89	2041.84
592.25	2034.97
592.60	2027.82
592.95	2020.31
593.30	2012.79
593.65	2005.17
594.00	1998.20
594.35	1990.98
594.70	1982.88
595.05	1975.40
595.40	1967.99
595.75	1960.40
596.10	1954.22
596.45	1947.40
596.80	1941.31
597.15	1934.51
597.50	1927.41
597.85	1921.01
598.19	1914.24
598.54	1907.16
598.89	1900.49
599.24	1894.65
599.59	1887.87
599.94	1881.51
600.29	1875.11
600.64	1868.56
600.99	1860.99
601.34	1854.14
601.69	1847.18
602.04	1840.23
602.39	1833.07
602.74	1826.26
603.08	1819.58
603.43	1812.81
603.78	1805.46
604.13	1798.14
604.48	1790.77
604.83	1783.84
605.18	1776.74
605.53	1768.57
605.87	1760.50
606.22	1753.27
606.57	1745.19
606.92	1737.88
607.27	1730.64
607.62	1723.62
607.96	1716.21
608.31	1709.43
608.66	1701.63
609.01	1693.85
609.36	1686.27
609.70	1678.15
610.05	1669.98
610.40	1662.14
610.75	1653.81
611.10	1646.19
611.44	1637.77
611.79	1629.84
612.14	1621.16
612.49	1612.13
612.83	1603.82
613.18	1595.63
613.53	1587.60
613.88	1579.05
614.22	1570.75
614.57	1562.22
614.92	1554.03
615.27	1546.42
615.61	1538.19
615.96	1530.27
616.31	1522.80
616.65	1515.44
617.00	1507.81
617.35	1500.21
617.70	1491.82
618.04	1483.21
618.39	1474.88
618.74	1467.21
619.08	1458.91
619.43	1451.24
619.78	1444.30
620.12	1437.07
620.47	1429.53
620.82	1421.22
621.16	1413.84
621.51	1406.19
621.85	1398.58
622.20	1390.25
622.55	1381.99
622.89	1374.14
623.24	1366.59
623.59	1359.20
623.93	1351.68
624.28	1344.46
624.62	1336.94
624.97	1329.82
625.32	1323.16
625.66	1316.19
626.01	1309.00
626.35	1301.50
626.70	1293.87
627.04	1286.02
627.39	1278.25
627.73	1270.80
628.08	1263.86
628.43	1256.48
628.77	1249.10
629.12	1241.45
629.46	1234.20
629.81	1226.75
630.15	1219.56
630.50	1212.16
630.84	1203.97
631.19	1196.13
631.53	1188.75
631.88	1181.16
632.22	1173.55
632.57	1166.26
632.91	1158.68
633.26	1151.28
633.60	1144.01
633.95	1136.91
634.29	1130.02
634.64	1123.41
634.98	1116.03
635.32	1108.94
635.67	1102.55
636.01	1096.02
636.36	1089.35
636.70	1082.89
637.05	1076.39
637.39	1070.09
637.73	1063.55
638.08	1057.81
638.42	1051.77
638.77	1045.34
639.11	1038.76
639.45	1032.45
639.80	1025.83
640.14	1019.41
640.49	1012.87
640.83	1006.52
641.17	1000.30
641.52	993.89
641.86	987.42
642.20	981.60
642.55	975.34
642.89	968.73
643.23	962.08
643.58	956.30
643.92	950.04
644.26	943.90
644.61	937.74
644.95	931.69
645.29	924.95
645.64	918.19
645.98	911.82
646.32	905.97
646.66	899.89
647.01	894.09
647.35	888.35
647.69	882.50
648.04	877.04
648.38	871.21
648.72	865.19
649.06	859.12
649.41	853.32
649.75	847.30
650.09	841.45
650.43	835.73
650.78	829.55
651.12	823.63
651.46	817.93
651.80	812.15
652.14	806.76
652.49	801.33
652.83	796.20
653.17	790.42
653.51	784.66
653.85	779.29
654.20	773.63
654.54	767.60
654.88	761.92
655.22	756.04
655.56	750.33
655.90	744.86
656.25	739.66
656.59	734.28
656.93	729.19
657.27	723.95
657.61	718.46
657.95	713.30
658.29	708.22
658.64	702.97
658.98	697.73
659.32	692.22
659.66	687.07
660.00	681.74
660.34	676.82
660.68	671.93
661.02	666.88
661.36	662.10
661.70	657.65
662.05	653.27
662.39	648.89
662.73	644.50
663.07	640.18
663.41	635.75
663.75	631.24
664.09	626.66
664.43	622.32
664.77	618.19
665.11	614.00
665.45	609.96
665.79	605.86
666.13	601.72
666.47	597.65
666.81	593.44
667.15	589.37
667.49	585.53
667.83	581.81
668.17	577.84
668.51	573.79
668.85	569.70
669.19	565.88
669.53	561.99
669.87	558.09
670.21	554.35
670.55	550.63
670.89	547.25
671.23	543.87
671.57	540.43
671.91	536.93
672.25	533.44
672.58	529.84
672.92	526.49
673.26	523.36
673.60	520.28
673.94	517.24
674.28	514.29
674.62	511.32
674.96	508.14
675.30	505.26
675.64	502.41
675.97	499.71
676.31	496.85
676.65	493.97
676.99	491.20
677.33	488.40
677.67	485.64
678.01	482.61
678.34	479.61
678.68	476.71
679.02	473.87
679.36	471.10
679.70	468.42
680.04	465.71
680.37	462.83
680.71	460.01
681.05	457.43
681.39	454.67
681.73	452.06
682.06	449.60
682.40	447.02
682.74	444.48
683.08	441.97
683.42	439.38
683.75	436.95
684.09	434.51
684.43	432.03
684.77	429.58
685.10	427.26
685.44	424.98
685.78	422.69
686.12	420.52
686.45	418.29
686.79	416.01
687.13	413.75
687.46	411.64
687.80	409.50
688.14	407.28
688.48	405.28
688.81	403.03
689.15	400.86
689.49	398.80
689.82	396.73
690.16	394.58
690.50	392.60
690.83	390.61
691.17	388.59
691.51	386.70
691.84	384.86
692.18	382.91
692.52	380.94
692.85	379.03
693.19	377.13
693.52	375.28
693.86	373.45
694.20	371.73
694.53	369.88
694.87	367.99
695.21	366.18
695.54	364.35
695.88	362.63
696.21	360.90
696.55	359.20
696.88	357.50
697.22	355.94
697.56	354.37
697.89	352.73
698.23	351.12
698.56	349.50
698.90	347.87
699.23	346.22
699.57	344.66
699.90	343.12
700.24	341.57
700.58	340.01
700.91	338.54
701.25	337.09
701.58	335.74
701.92	334.42
702.25	333.01
702.59	331.63
702.92	330.31
703.26	329.01
703.59	327.72
703.93	326.52
704.26	325.22
704.60	323.88
704.93	322.55
705.26	321.33
705.60	320.16
705.93	319.01
706.27	318.01
706.60	316.94
706.94	315.83
707.27	314.70
707.61	313.66
707.94	312.61
708.27	311.52
708.61	310.43
708.94	309.46
709.28	308.54
709.61	307.59
709.94	306.63
710.28	305.62
710.61	304.67
710.95	303.64
711.28	302.73
711.61	301.79
711.95	300.95
712.28	300.01
712.61	299.01
712.95	298.09
713.28	297.22
713.61	296.31
713.95	295.42
714.28	294.61
714.61	293.75
714.95	292.93
715.28	292.05
715.61	291.18
715.95	290.33
716.28	289.46
716.61	288.66
716.95	287.83
717.28	287.11
717.61	286.34
717.94	285.60
718.28	284.81
718.61	284.11
718.94	283.37
719.27	282.69
719.61	282.05
719.94	281.42
720.27	280.68
720.60	280.06
720.94	279.46
721.27	278.84
721.60	278.28
721.93	277.68
722.27	277.14
722.60	276.63
722.93	276.06
723.26	275.56
723.59	275.00
723.93	274.47
724.26	273.94
724.59	273.38
724.92	272.87
725.25	272.43
725.59	271.93
725.92	271.45
726.25	271.00
726.58	270.53
726.91	270.00
727.24	269.54
727.57	269.01
727.91	268.52
728.24	268.07
728.57	267.57
728.90	267.12
729.23	266.65
729.56	266.22
729.89	265.76
730.22	265.22
730.55	264.75
730.89	264.28
731.22	263.82
731.55	263.43
731.88	262.96
732.21	262.51
732.54	262.05
732.87	261.59
733.20	261.16
733.53	260.79
733.86	260.46
734.19	260.06
734.52	259.74
734.85	259.40
735.18	258.98
735.51	258.63
735.84	258.24
736.17	257.91
736.50	257.48
736.83	257.22
737.16	256.93
737.49	256.58
737.82	256.26
738.15	255.95
738.48	255.56
738.81	255.26
739.14	254.93
739.47	254.62
739.80	254.33
740.13	253.99
740.46	253.66
740.79	253.31
741.12	253.00
741.45	252.67
741.78	252.33
742.11	252.03
742.44	251.68
742.77	251.39
743.10	251.07
743.43	250.78
743.75	250.41
744.08	250.24
744.41	249.95
744.74	249.63
745.07	249.30
745.40	249.05
745.73	248.82
746.06	248.50
746.39	248.23
746.71	247.97
747.04	247.71
747.37	247.42
747.70	247.19
748.03	246.94
748.36	246.68
748.68	246.46
749.01	246.20
749.34	245.97
749.67	245.73
750.00	245.47
750.33	245.26
750.65	245.01
750.98	244.65
751.31	244.47
751.64	244.28
751.97	244.13
752.29	243.93
752.62	243.64
752.95	243.46
753.28	243.25
753.60	243.05
753.93	242.88
754.26	242.70
754.59	242.47
754.91	242.23
755.24	242.03
755.57	241.83
755.90	241.66
756.22	241.46
756.55	241.27
756.88	241.10
757.20	240.87
757.53	240.70
757.86	240.53
758.19	240.37
758.51	240.22
758.84	240.00
759.17	239.81
759.49	239.66
759.82	239.53
760.15	239.36
760.47	239.21
760.80	239.04
761.13	238.91
761.45	238.77
761.78	238.62
762.11	238.46
762.43	238.32
762.76	238.18
763.08	238.04
763.41	237.88
763.74	237.75
764.06	237.63
764.39	237.48
764.71	237.36
765.04	237.20
765.37	237.06
765.69	236.94
766.02	236.83
766.34	236.71
766.67	236.56
767.00	236.49
767.32	236.41
767.65	236.36
767.97	236.24
768.30	236.10
768.62	236.03
768.95	235.90
769.27	235.81
769.60	235.70
769.92	235.61
770.25	235.54
770.57	235.44
770.90	235.36
771.22	235.30
771.55	235.21
771.87	235.12
772.20	235.02
772.52	235.01
772.85	235.03
773.17	234.97
773.50	234.91
773.82	234.81
774.15	234.68
774.47	234.53
774.80	234.45
775.12	234.39
775.45	234.32
775.77	234.28
776.09	234.19
776.42	234.14
776.74	234.06
777.07	233.99
777.39	233.93
777.72	233.86
778.04	233.77
778.36	233.70
778.69	233.63
779.01	233.57
779.33	233.45
779.66	233.28
779.98	233.19
780.31	233.14
780.63	233.12
780.95	233.09
781.28	233.03
781.60	232.95
781.92	232.89
782.25	232.83
782.57	232.77
782.89	232.68
783.22	232.60
783.54	232.56
783.86	232.53
784.19	232.46
784.51	232.41
784.83	232.36
785.16	232.32
785.48	232.26
785.80	232.22
786.12	232.15
786.45	232.09
786.77	232.05
787.09	231.96
787.42	231.84
787.74	231.79
788.06	231.75
788.38	231.69
788.71	231.61
789.03	231.56
789.35	231.58
789.67	231.51
789.99	231.51
790.32	231.43
790.64	231.36
790.96	231.39
791.28	231.33
791.61	231.29
791.93	231.24
792.25	231.21
792.57	231.23
792.89	231.16
793.21	231.15
793.54	231.13
793.86	231.10
794.18	231.07
794.50	230.99
794.82	230.97
795.14	230.94
795.47	230.92
795.79	230.89
796.11	230.81
796.43	230.80
796.75	230.75
797.07	230.73
797.39	230.68
797.71	230.56
798.04	230.53
798.36	230.51
798.68	230.48
799.00	230.45
799.32	230.40
799.64	230.38
799.96	230.35
800.28	230.29
800.60	230.28
800.92	230.24
801.24	230.23
801.56	230.18
801.89	230.14
802.21	230.14
802.53	230.06
802.85	230.04
803.17	230.06
803.49	230.01
803.81	229.97
804.13	229.96
804.45	229.92
804.77	229.92
805.09	229.89
805.41	229.81
805.73	229.75
806.05	229.70
806.37	229.70
806.69	229.68
807.01	229.69
807.33	229.66
807.65	229.62
807.97	229.66
808.28	229.60
808.60	229.58
808.92	229.52
809.24	229.61
809.56	229.57
809.88	229.53
810.20	229.55
810.52	229.56
810.84	229.51
811.16	229.49
811.48	229.47
811.80	229.47
812.12	229.48
812.43	229.49
812.75	229.47
813.07	229.44
813.39	229.41
813.71	229.38
814.03	229.31
814.35	229.29
814.67	229.23
814.98	229.24
815.30	229.23
815.62	229.24
815.94	229.14
816.26	229.16
816.58	229.12
816.89	229.09
817.21	229.03
817.53	229.04
817.85	229.06
818.17	229.03
818.48	228.97
818.80	228.97
819.12	228.92
819.44	228.87
819.76	228.84
820.07	228.81
820.39	228.78
820.71	228.80
821.03	228.77
821.34	228.74
821.66	228.74
821.98	228.75
822.30	228.71
822.61	228.75
822.93	228.68
823.25	228.64
823.57	228.61
823.88	228.65
824.20	228.61
824.52	228.58
824.83	228.52
825.15	228.50
825.47	228.48
825.79	228.50
826.10	228.51
826.42	228.46
826.74	228.47
827.05	228.41
827.37	228.40
827.69	228.39
828.00	228.36
828.32	228.30
828.64	228.27
828.95	228.32
829.27	228.25
829.58	228.24
829.90	228.26
830.22	228.26
830.53	228.21
830.85	228.18
831.17	228.15
831.48	228.18
831.80	228.17
832.11	228.13
832.43	228.09
832.75	228.07
833.06	228.11
833.38	228.06
833.69	228.10
834.01	228.09
834.32	228.10
834.64	228.06
834.96	228.07
835.27	228.03
835.59	227.93
835.90	227.95
836.22	227.94
836.53	227.91
836.85	227.89
837.16	227.95
837.48	227.93
837.79	227.94
838.11	227.94
838.42	227.93
838.74	227.94
839.05	227.93
839.37	227.91
839.68	227.87
840.00	227.87
840.31	227.87
840.63	227.83
840.94	227.82
841.26	227.83
841.57	227.85
841.88	227.90
842.20	227.91
842.51	227.87
842.83	227.89
843.14	227.98
843.46	227.97
843.77	227.94
844.08	227.95
844.40	227.89
844.71	227.86
845.03	227.83
845.34	227.83
845.65	227.84
845.97	227.84
846.28	227.87
846.60	227.87
846.91	227.83
847.22	227.86
847.54	227.86
847.85	227.87
848.16	227.84
848.48	227.78
848.79	227.83
849.10	227.84
849.42	227.79
849.73	227.71
850.04	227.70
850.36	227.66
850.67	227.66
850.98	227.71
851.30	227.74
851.61	227.76
851.92	227.76
852.23	227.76
852.55	227.77
852.86	227.78
853.17	227.78
853.49	227.81
853.80	227.86
854.11	227.87
854.42	227.90
854.74	227.89
855.05	227.92
855.36	227.86
855.67	227.87
855.99	227.88
856.30	227.96
856.61	228.00
856.92	227.98
857.23	227.99
857.55	227.96
857.86	227.93
858.17	227.95
858.48	227.93
858.79	227.93
859.11	227.91
859.42	227.90
859.73	227.86
860.04	227.87
860.35	227.81
860.66	227.77
860.98	227.76
861.29	227.77
861.60	227.76
861.91	227.81
862.22	227.80
862.53	227.77
862.84	227.67
863.16	227.68
863.47	227.68
863.78	227.68
864.09	227.70
864.40	227.70
864.71	227.67
865.02	227.69
865.33	227.68
865.64	227.67
865.95	227.65
866.27	227.74
866.58	227.72
866.89	227.71
867.20	227.69
867.51	227.66
867.82	227.67
868.13	227.69
868.44	227.66
868.75	227.66
869.06	227.67
869.37	227.64
869.68	227.63
869.99	227.63
870.30	227.63
870.61	227.64
870.92	227.63
871.23	227.64
871.54	227.64
871.85	227.63
872.16	227.64
872.47	227.62
872.78	227.55
873.09	227.53
873.40	227.55
873.71	227.57
874.02	227.56
874.33	227.52
874.64	227.47
874.95	227.49
875.26	227.45
875.56	227.47
875.87	227.48
876.18	227.43
876.49	227.51
876.80	227.49
877.11	227.45
877.42	227.41
877.73	227.39
878.04	227.36
878.35	227.35
878.66	227.36
878.96	227.37
879.27	227.34
879.58	227.33
879.89	227.32
880.20	227.36
880.51	227.37
880.82	227.39
881.12	227.37
881.43	227.37
881.74	227.37
882.05	227.35
882.36	227.38
882.67	227.41
882.97	227.30
883.28	227.29
883.59	227.29
883.90	227.33
884.21	227.36
884.51	227.33
884.82	227.32
885.13	227.31
885.44	227.29
885.74	227.31
886.05	227.31
886.36	227.27
886.67	227.24
886.98	227.29
887.28	227.28
887.59	227.31
887.90	227.27
888.20	227.31
888.51	227.34
888.82	227.32
889.13	227.35
889.43	227.42
889.74	227.42
890.05	227.43
890.35	227.40
890.66	227.38
890.97	227.41
891.28	227.38
891.58	227.40
891.89	227.47
892.20	227.47
892.50	227.48
892.81	227.48
893.12	227.44
893.42	227.38
893.73	227.38
894.04	227.36
894.34	227.39
894.65	227.37
894.95	227.31
895.26	227.30
895.57	227.33
895.87	227.25
896.18	227.28
896.48	227.26
896.79	227.26
897.10	227.28
897.40	227.28
897.71	227.29
898.01	227.28
898.32	227.21
898.63	227.19
898.93	227.20
899.24	227.21
899.54	227.20
899.85	227.19
900.15	227.20
900.46	227.22
900.76	227.18
901.07	227.18
901.38	227.18
901.68	227.20
901.99	227.16
902.29	227.17
902.60	227.13
902.90	227.15
903.21	227.14
903.51	227.12
903.82	227.11
904.12	227.14
904.43	227.12
904.73	227.16
905.03	227.16
905.34	227.22
905.64	227.21
905.95	227.25
906.25	227.24
906.56	227.23
906.86	227.19
907.17	227.23
907.47	227.22
907.77	227.25
908.08	227.21
908.38	227.21
908.69	227.18
908.99	227.21
909.30	227.22
909.60	227.22
909.90	227.22
910.21	227.20
910.51	227.17
910.81	227.19
911.12	227.15
911.42	227.17
911.73	227.07
912.03	227.09
912.33	227.06
912.64	227.06
912.94	227.06
913.24	227.04
913.55	227.04
913.85	227.02
914.15	227.01
914.46	227.02
914.76	226.97
915.06	226.99
915.37	226.94
915.67	226.93
915.97	226.91
916.27	226.89
916.58	226.92
916.88	226.91
917.18	226.89
917.49	226.97
917.79	226.94
918.09	226.98
918.39	227.01
918.70	227.02
919.00	227.04
919.30	227.07
919.60	227.07
919.91	227.05
920.21	227.06
920.51	227.06
920.81	227.06
921.12	227.09
921.42	227.11
921.72	227.14
922.02	227.13
922.32	227.16
922.63	227.20
922.93	227.23
923.23	227.25
923.53	227.26
923.83	227.16
924.13	227.19
924.44	227.17
924.74	227.21
925.04	227.22
925.34	227.22
925.64	227.18
925.94	227.17
926.24	227.22
926.55	227.21
926.85	227.22
927.15	227.22
927.45	227.21
927.75	227.18
928.05	227.16
928.35	227.17
928.65	227.18
928.95	227.18
929.26	227.15
929.56	227.14
929.86	227.15
930.16	227.17
930.46	227.14
930.76	227.16
931.06	227.08
931.36	227.05
931.66	227.07
931.96	227.09
932.26	227.13
932.56	227.09
932.86	227.12
933.16	227.11
933.46	227.09
933.76	227.10
934.06	227.14
934.36	227.18
934.66	227.14
934.96	227.14
935.26	227.14
935.56	227.15
935.86	227.15
936.16	227.13
936.46	227.16
936.76	227.15
937.06	227.13
937.36	227.15
937.66	227.19
937.96	227.21
938.26	227.20
938.56	227.18
938.86	227.19
939.16	227.20
939.46	227.21
939.76	227.21
940.06	227.18
940.35	227.16
940.65	227.12
940.95	227.16
941.25	227.14
941.55	227.13
941.85	227.14
942.15	227.14
942.45	227.15
942.75	227.14
943.04	227.17
943.34	227.21
943.64	227.20
943.94	227.14
944.24	227.11
944.54	227.11
944.84	227.12
945.13	227.12
945.43	227.08
945.73	227.07
946.03	227.08
946.33	227.11
946.62	227.12
946.92	227.11
947.22	227.11
947.52	227.08
947.82	227.09
948.11	227.09
948.41	227.10
948.71	227.09
949.01	227.07
949.31	227.07
949.60	227.04
949.90	227.03
950.20	227.06
950.50	227.06
950.79	227.06
951.09	227.07
951.39	227.04
951.69	227.04
951.98	227.04
952.28	227.03
952.58	227.02
952.87	226.98
953.17	226.97
953.47	226.98
953.76	227.00
954.06	226.97
954.36	226.95
954.66	226.90
954.95	226.92
955.25	226.95
955.55	226.96
955.84	226.95
956.14	226.95
956.44	226.95
956.73	226.91
957.03	226.91
957.32	226.90
957.62	226.92
957.92	226.93
958.21	226.95
958.51	227.06
958.81	227.09
959.10	227.12
959.40	227.19
959.69	227.18
959.99	227.19
960.29	227.22
960.58	227.24
960.88	227.30
961.17	227.28
961.47	227.28
961.76	227.29
962.06	227.30
962.36	227.31
962.65	227.29
962.95	227.31
963.24	227.33
963.54	227.34
963.83	227.35
964.13	227.37
964.42	227.33
964.72	227.26
965.01	227.24
965.31	227.22
965.60	227.16
965.90	227.23
966.19	227.21
966.49	227.20
966.78	227.14
967.08	227.16
967.37	227.15
967.67	227.15
967.96	227.16
968.26	227.14
968.55	227.13
968.85	227.16
969.14	227.16
969.43	227.14
969.73	227.12
970.02	227.13
970.32	227.09
970.61	227.09
970.91	227.07
971.20	227.07
971.49	227.05
971.79	227.07
972.08	226.99
972.38	227.02
972.67	227.01
972.96	227.07
973.26	227.03
973.55	227.06
973.85	227.05
974.14	227.02
974.43	227.04
974.73	227.03
975.02	227.01
975.31	227.02
975.61	227.01
975.90	227.01
976.19	227.01
976.49	227.03
976.78	227.04
977.07	227.04
977.37	227.05
977.66	227.09
977.95	227.08
978.24	227.10
978.54	227.09
978.83	227.09
979.12	227.02
979.42	227.01
979.71	226.99
980.00	226.99
980.29	226.98
980.59	226.96
980.88	226.98
981.17	226.95
981.46	226.92
981.76	226.95
982.05	226.97
982.34	226.94
982.63	226.95
982.93	226.95
983.22	226.97
983.51	226.96
983.80	226.94
984.09	226.98
984.39	226.97
984.68	226.96
984.97	226.96
985.26	226.99
985.55	227.03
985.85	227.01
986.14	226.99
986.43	226.98
986.72	226.96
987.01	226.94
987.30	226.94
987.59	226.94
987.89	226.93
988.18	226.89
988.47	226.89
988.76	226.87
989.05	226.85
989.34	226.81
989.63	226.83
989.92	226.84
990.22	226.81
990.51	226.78
990.80	226.78
991.09	226.79
991.38	226.82
991.67	226.79
991.96	226.80
992.25	226.83
992.54	226.83
992.83	226.84
993.12	226.83
993.41	226.87
993.70	226.92
993.99	226.93
994.28	226.95
994.58	226.96
994.87	226.93
995.16	226.95
995.45	226.93
995.74	226.91
996.03	226.92
996.32	226.93
996.61	226.95
996.90	226.93
997.19	226.94
997.48	226.94
997.77	226.92
998.06	226.94
998.34	226.92
998.63	226.93
998.92	226.94
999.21	226.93
999.50	226.92
999.79	226.87
1000.08	226.86
1000.37	226.87
1000.66	226.87
1000.95	226.90
1001.24	226.91
1001.53	226.94
1001.82	226.94
1002.11	226.93
1002.40	226.95
1002.68	226.97
1002.97	227.05
1003.26	227.05
1003.55	226.99
1003.84	227.01
1004.13	227.02
1004.42	227.02
1004.71	227.01
1004.99	226.97
1005.28	226.98
1005.57	226.98
1005.86	226.97
1006.15	226.98
1006.44	226.96
1006.72	226.97
1007.01	226.98
1007.30	226.96
1007.59	226.96
1007.88	226.97
1008.17	227.00
1008.45	226.98
1008.74	226.96
1009.03	226.90
1009.32	226.90
1009.60	226.93
1009.89	226.92
1010.18	226.86
1010.47	226.85
1010.76	226.86
1011.04	226.87
1011.33	226.91
1011.62	226.94
1011.91	226.94
1012.19	226.95
1012.48	226.97
1012.77	226.96
1013.05	227.00
1013.34	227.01
1013.63	227.00
1013.92	226.97
1014.20	226.92
1014.49	226.90
1014.78	226.90
1015.06	226.88
1015.35	226.89
1015.64	226.89
1015.92	226.91
1016.21	226.95
1016.50	226.97
1016.78	226.97
1017.07	226.99
1017.36	226.94
1017.64	226.95
1017.93	226.95
1018.22	226.94
1018.50	226.90
1018.79	226.89
1019.08	226.84
1019.36	226.83
1019.65	226.85
1019.93	226.88
1020.22	226.91
1020.51	226.97
1020.79	226.94
1021.08	226.91
1021.36	226.36
1021.65	226.34
1021.94	227.16
1022.22	226.90
1022.51	226.98
1022.79	227.30
1023.08	227.10
1023.36	227.94
1023.65	226.42
>>>>>End Processed Spectral Data<<<<<
