SpectraSuite Data File
++++++++++++++++++++++++++++++++++++
Date: Fri Feb 01 17:31:17 EST 2013
User: group
Dark Spectrum Present: No
Reference Spectrum Present: No
Number of Sampled Component Spectra: 1
Spectrometers: USB2E7196
Integration Time (usec): 35000 (USB2E7196)
Spectra Averaged: 100 (USB2E7196)
Boxcar Smoothing: 10 (USB2E7196)
Correct for Electrical Dark: No (USB2E7196)
Strobe/Lamp Enabled: No (USB2E7196)
Correct for Detector Non-linearity: No (USB2E7196)
Correct for Stray Light: No (USB2E7196)
Number of Pixels in Processed Spectrum: 2048
>>>>>Begin Processed Spectral Data<<<<<
339.09	0.00
339.48	213.01
339.86	214.38
340.24	215.22
340.63	217.04
341.01	219.73
341.39	219.81
341.78	221.64
342.16	222.75
342.54	222.84
342.93	211.26
343.31	221.95
343.69	222.49
344.07	222.97
344.46	223.42
344.84	223.79
345.22	224.03
345.60	224.27
345.99	224.42
346.37	224.53
346.75	224.62
347.13	224.69
347.52	224.76
347.90	224.81
348.28	224.82
348.66	224.86
349.05	224.88
349.43	224.91
349.81	224.96
350.19	225.02
350.57	225.06
350.96	225.12
351.34	225.18
351.72	225.24
352.10	225.31
352.48	225.37
352.87	225.41
353.25	225.45
353.63	225.49
354.01	225.55
354.39	225.66
354.77	225.72
355.15	225.82
355.54	225.83
355.92	225.89
356.30	225.96
356.68	226.10
357.06	226.16
357.44	226.23
357.82	226.27
358.20	226.32
358.58	226.39
358.97	226.44
359.35	226.49
359.73	226.58
360.11	226.63
360.49	226.67
360.87	226.73
361.25	226.81
361.63	226.92
362.01	226.99
362.39	226.98
362.77	227.05
363.15	227.05
363.53	227.11
363.91	227.12
364.29	227.15
364.67	227.12
365.05	227.14
365.43	227.18
365.81	227.22
366.19	227.29
366.57	227.31
366.95	227.35
367.33	227.36
367.71	227.35
368.09	227.36
368.47	227.39
368.85	227.39
369.23	227.42
369.61	227.36
369.99	227.36
370.37	227.35
370.75	227.35
371.13	227.32
371.51	227.29
371.89	227.28
372.27	227.23
372.65	227.14
373.03	227.10
373.41	227.06
373.78	227.00
374.16	226.90
374.54	226.83
374.92	226.77
375.30	226.74
375.68	226.69
376.06	226.63
376.44	226.57
376.82	226.50
377.19	226.42
377.57	226.35
377.95	226.26
378.33	226.23
378.71	226.12
379.09	226.05
379.47	225.98
379.84	225.88
380.22	225.82
380.60	225.77
380.98	225.73
381.36	225.66
381.73	225.59
382.11	225.56
382.49	225.51
382.87	225.45
383.25	225.37
383.62	225.40
384.00	225.34
384.38	225.26
384.76	225.23
385.13	225.20
385.51	225.14
385.89	225.08
386.27	225.03
386.64	224.99
387.02	224.97
387.40	224.93
387.78	224.90
388.15	224.90
388.53	224.82
388.91	224.76
389.29	224.74
389.66	224.72
390.04	224.66
390.42	224.63
390.79	224.62
391.17	224.60
391.55	224.48
391.92	224.49
392.30	224.49
392.68	224.48
393.05	224.47
393.43	224.51
393.81	224.50
394.18	224.49
394.56	224.48
394.94	224.49
395.31	224.49
395.69	224.56
396.06	224.55
396.44	224.61
396.82	224.62
397.19	224.68
397.57	224.72
397.95	224.78
398.32	224.81
398.70	224.83
399.07	224.90
399.45	224.95
399.82	224.98
400.20	225.01
400.58	225.07
400.95	225.10
401.33	225.18
401.70	225.33
402.08	225.39
402.45	225.50
402.83	225.61
403.20	225.71
403.58	225.78
403.95	225.91
404.33	226.06
404.71	226.21
405.08	226.40
405.46	226.52
405.83	226.67
406.21	226.81
406.58	226.98
406.96	227.14
407.33	227.30
407.70	227.50
408.08	227.81
408.45	228.02
408.83	228.26
409.20	228.44
409.58	228.61
409.95	228.93
410.33	229.20
410.70	229.46
411.08	229.82
411.45	230.11
411.82	230.41
412.20	230.76
412.57	231.18
412.95	231.48
413.32	231.90
413.69	232.30
414.07	232.77
414.44	233.27
414.82	233.79
415.19	234.41
415.56	234.99
415.94	235.50
416.31	236.19
416.68	236.84
417.06	237.64
417.43	238.35
417.81	239.10
418.18	239.90
418.55	240.76
418.93	241.64
419.30	242.61
419.67	243.60
420.04	244.59
420.42	245.62
420.79	246.89
421.16	248.10
421.54	249.38
421.91	250.62
422.28	251.94
422.66	253.29
423.03	254.66
423.40	256.05
423.77	257.52
424.15	259.01
424.52	260.56
424.89	262.24
425.26	263.87
425.64	265.39
426.01	267.04
426.38	268.77
426.75	270.49
427.13	272.28
427.50	274.15
427.87	276.12
428.24	278.08
428.61	279.84
428.99	281.86
429.36	284.07
429.73	286.23
430.10	288.31
430.47	290.47
430.85	292.64
431.22	295.01
431.59	297.50
431.96	299.84
432.33	302.43
432.70	304.90
433.08	307.86
433.45	310.62
433.82	313.35
434.19	316.32
434.56	319.25
434.93	322.01
435.30	324.72
435.68	327.75
436.05	330.69
436.42	333.61
436.79	336.23
437.16	338.97
437.53	341.91
437.90	344.83
438.27	347.72
438.64	350.66
439.01	353.36
439.38	355.72
439.75	357.96
440.13	360.54
440.50	362.94
440.87	364.83
441.24	366.88
441.61	369.12
441.98	370.67
442.35	372.60
442.72	374.55
443.09	376.50
443.46	377.48
443.83	378.11
444.20	378.68
444.57	379.54
444.94	379.88
445.31	380.28
445.68	380.67
446.05	380.76
446.42	380.39
446.79	379.94
447.16	379.48
447.53	379.19
447.90	378.02
448.27	376.83
448.64	375.22
449.01	374.04
449.37	372.05
449.74	370.13
450.11	367.77
450.48	365.20
450.85	362.58
451.22	360.39
451.59	358.30
451.96	356.28
452.33	353.62
452.70	351.17
453.07	348.21
453.43	345.26
453.80	342.34
454.17	339.55
454.54	336.91
454.91	334.11
455.28	331.31
455.65	328.72
456.02	326.16
456.38	323.94
456.75	321.14
457.12	318.81
457.49	316.52
457.86	314.27
458.23	312.36
458.59	310.23
458.96	308.06
459.33	306.11
459.70	304.15
460.07	302.57
460.43	300.77
460.80	299.08
461.17	297.53
461.54	295.99
461.91	294.53
462.27	293.00
462.64	291.71
463.01	290.27
463.38	288.92
463.74	287.53
464.11	286.30
464.48	285.25
464.85	284.05
465.21	283.11
465.58	282.12
465.95	280.95
466.32	279.98
466.68	279.06
467.05	278.11
467.42	277.19
467.78	276.24
468.15	275.32
468.52	274.59
468.88	273.74
469.25	272.95
469.62	272.28
469.98	271.58
470.35	270.88
470.72	270.23
471.08	269.56
471.45	269.00
471.82	268.41
472.18	267.77
472.55	267.33
472.92	266.82
473.28	266.37
473.65	265.91
474.02	265.47
474.38	265.10
474.75	264.81
475.11	264.44
475.48	264.13
475.85	263.91
476.21	263.68
476.58	263.50
476.94	263.31
477.31	263.13
477.67	262.97
478.04	262.86
478.41	262.79
478.77	262.82
479.14	262.73
479.50	262.74
479.87	262.83
480.23	262.89
480.60	262.93
480.96	263.02
481.33	263.23
481.69	263.40
482.06	263.57
482.42	263.74
482.79	264.01
483.15	264.32
483.52	264.73
483.88	265.09
484.25	265.42
484.61	265.92
484.98	266.36
485.34	266.92
485.71	267.53
486.07	268.16
486.44	268.74
486.80	269.47
487.17	270.23
487.53	271.03
487.90	271.86
488.26	272.81
488.62	273.81
488.99	274.77
489.35	275.79
489.72	276.88
490.08	278.08
490.44	279.31
490.81	280.67
491.17	281.98
491.54	283.53
491.90	285.09
492.26	286.69
492.63	288.44
492.99	290.20
493.36	292.08
493.72	294.12
494.08	296.23
494.45	298.45
494.81	300.78
495.17	303.21
495.54	305.79
495.90	308.43
496.26	311.16
496.63	314.10
496.99	317.20
497.35	320.42
497.72	323.79
498.08	327.27
498.44	330.89
498.80	334.76
499.17	338.71
499.53	342.81
499.89	347.11
500.26	351.56
500.62	356.23
500.98	361.12
501.34	366.12
501.71	371.38
502.07	376.74
502.43	382.26
502.79	387.98
503.16	394.02
503.52	400.20
503.88	406.51
504.24	413.02
504.60	419.85
504.97	426.93
505.33	434.13
505.69	441.71
506.05	449.32
506.41	457.10
506.78	465.10
507.14	473.34
507.50	481.86
507.86	490.65
508.22	499.65
508.59	508.65
508.95	518.01
509.31	527.53
509.67	537.38
510.03	547.47
510.39	557.81
510.75	568.25
511.12	578.95
511.48	590.00
511.84	601.24
512.20	612.46
512.56	624.11
512.92	635.99
513.28	648.04
513.64	660.32
514.00	672.68
514.37	685.29
514.73	698.10
515.09	710.85
515.45	723.78
515.81	736.94
516.17	750.55
516.53	764.28
516.89	778.14
517.25	791.99
517.61	805.96
517.97	820.05
518.33	834.10
518.69	848.46
519.05	862.94
519.41	877.62
519.77	892.61
520.13	907.49
520.49	922.43
520.85	937.30
521.21	952.42
521.57	968.16
521.93	983.47
522.29	999.25
522.65	1015.05
523.01	1030.74
523.37	1046.35
523.73	1061.96
524.09	1077.55
524.45	1093.28
524.81	1109.33
525.17	1125.55
525.53	1141.79
525.89	1158.07
526.25	1174.38
526.61	1190.31
526.97	1206.61
527.33	1222.62
527.68	1238.73
528.04	1254.76
528.40	1270.91
528.76	1287.49
529.12	1303.59
529.48	1319.99
529.84	1335.63
530.20	1351.73
530.56	1368.22
530.91	1385.19
531.27	1401.71
531.63	1417.71
531.99	1433.86
532.35	1449.56
532.71	1465.11
533.07	1480.94
533.42	1496.60
533.78	1512.30
534.14	1528.24
534.50	1543.09
534.86	1558.61
535.21	1573.50
535.57	1589.09
535.93	1604.25
536.29	1618.72
536.65	1633.45
537.00	1647.89
537.36	1662.92
537.72	1677.12
538.08	1691.46
538.44	1704.88
538.79	1718.45
539.15	1731.85
539.51	1745.45
539.87	1759.48
540.22	1773.05
540.58	1786.71
540.94	1799.70
541.29	1812.27
541.65	1824.77
542.01	1838.02
542.37	1850.30
542.72	1862.50
543.08	1874.19
543.44	1886.48
543.79	1897.63
544.15	1908.55
544.51	1920.03
544.87	1930.88
545.22	1941.81
545.58	1951.91
545.94	1961.65
546.29	1971.49
546.65	1981.59
547.01	1990.80
547.36	1999.57
547.72	2008.15
548.07	2016.15
548.43	2024.50
548.79	2032.63
549.14	2040.38
549.50	2047.60
549.86	2055.34
550.21	2062.95
550.57	2070.20
550.92	2077.00
551.28	2084.25
551.64	2091.62
551.99	2098.40
552.35	2104.84
552.70	2111.23
553.06	2117.51
553.41	2124.19
553.77	2130.34
554.13	2136.56
554.48	2143.08
554.84	2149.00
555.19	2154.47
555.55	2159.94
555.90	2164.74
556.26	2170.13
556.61	2175.14
556.97	2180.08
557.32	2184.70
557.68	2189.17
558.03	2193.80
558.39	2197.66
558.74	2202.69
559.10	2206.88
559.45	2210.73
559.81	2215.40
560.16	2219.53
560.52	2223.07
560.87	2226.81
561.23	2229.91
561.58	2233.13
561.94	2235.99
562.29	2238.57
562.64	2241.85
563.00	2244.75
563.35	2248.61
563.71	2251.99
564.06	2255.54
564.42	2258.78
564.77	2261.75
565.12	2264.55
565.48	2266.99
565.83	2269.51
566.19	2271.35
566.54	2272.61
566.89	2274.57
567.25	2275.74
567.60	2277.37
567.96	2279.64
568.31	2281.01
568.66	2282.69
569.02	2283.75
569.37	2284.52
569.72	2285.84
570.08	2286.33
570.43	2286.72
570.78	2286.63
571.14	2285.50
571.49	2284.56
571.84	2284.54
572.20	2283.69
572.55	2282.90
572.90	2281.63
573.26	2280.70
573.61	2279.17
573.96	2277.90
574.31	2275.14
574.67	2272.51
575.02	2269.32
575.37	2266.31
575.72	2262.99
576.08	2259.89
576.43	2256.91
576.78	2253.68
577.13	2250.70
577.49	2247.91
577.84	2245.01
578.19	2241.60
578.54	2238.44
578.90	2234.66
579.25	2229.36
579.60	2224.68
579.95	2220.17
580.30	2215.48
580.66	2210.59
581.01	2206.09
581.36	2201.54
581.71	2197.77
582.06	2193.63
582.42	2189.63
582.77	2184.71
583.12	2180.49
583.47	2176.22
583.82	2171.66
584.17	2166.73
584.53	2161.58
584.88	2156.41
585.23	2150.90
585.58	2145.73
585.93	2140.63
586.28	2136.05
586.63	2131.39
586.98	2126.73
587.34	2122.10
587.69	2117.49
588.04	2112.66
588.39	2107.37
588.74	2101.07
589.09	2095.24
589.44	2088.89
589.79	2082.93
590.14	2077.44
590.49	2070.84
590.84	2064.61
591.19	2058.79
591.54	2052.58
591.89	2045.74
592.25	2039.08
592.60	2032.04
592.95	2024.81
593.30	2017.65
593.65	2010.42
594.00	2003.57
594.35	1996.45
594.70	1988.70
595.05	1981.89
595.40	1974.63
595.75	1967.26
596.10	1961.40
596.45	1954.81
596.80	1948.69
597.15	1942.25
597.50	1935.48
597.85	1929.36
598.19	1922.97
598.54	1916.10
598.89	1909.53
599.24	1903.65
599.59	1897.16
599.94	1891.09
600.29	1884.78
600.64	1878.11
600.99	1870.69
601.34	1864.03
601.69	1857.18
602.04	1850.48
602.39	1843.07
602.74	1836.38
603.08	1829.75
603.43	1822.94
603.78	1815.64
604.13	1808.48
604.48	1801.40
604.83	1794.62
605.18	1787.80
605.53	1779.80
605.87	1771.80
606.22	1764.59
606.57	1756.61
606.92	1749.21
607.27	1742.07
607.62	1735.20
607.96	1728.23
608.31	1721.87
608.66	1714.27
609.01	1706.95
609.36	1699.34
609.70	1691.37
610.05	1683.26
610.40	1675.55
610.75	1667.28
611.10	1659.59
611.44	1651.00
611.79	1643.02
612.14	1634.37
612.49	1625.09
612.83	1616.62
613.18	1608.46
613.53	1600.29
613.88	1591.79
614.22	1583.47
614.57	1574.86
614.92	1566.77
615.27	1559.28
615.61	1550.75
615.96	1542.58
616.31	1534.56
616.65	1527.08
617.00	1519.47
617.35	1511.70
617.70	1503.32
618.04	1494.72
618.39	1486.51
618.74	1478.91
619.08	1470.39
619.43	1462.58
619.78	1455.51
620.12	1448.32
620.47	1440.77
620.82	1432.54
621.16	1424.94
621.51	1417.20
621.85	1409.33
622.20	1400.84
622.55	1392.19
622.89	1384.23
623.24	1376.53
623.59	1369.04
623.93	1361.52
624.28	1354.15
624.62	1346.58
624.97	1339.28
625.32	1332.29
625.66	1325.06
626.01	1317.87
626.35	1310.45
626.70	1302.64
627.04	1294.89
627.39	1286.95
627.73	1279.39
628.08	1272.38
628.43	1265.19
628.77	1257.88
629.12	1250.34
629.46	1243.04
629.81	1235.46
630.15	1228.23
630.50	1220.75
630.84	1212.60
631.19	1204.52
631.53	1196.92
631.88	1189.33
632.22	1181.73
632.57	1174.37
632.91	1166.75
633.26	1159.19
633.60	1151.64
633.95	1144.29
634.29	1137.16
634.64	1130.43
634.98	1122.96
635.32	1115.84
635.67	1109.09
636.01	1102.32
636.36	1095.52
636.70	1088.83
637.05	1082.19
637.39	1075.55
637.73	1069.06
638.08	1063.14
638.42	1057.09
638.77	1050.68
639.11	1044.11
639.45	1037.51
639.80	1030.81
640.14	1024.36
640.49	1017.84
640.83	1011.56
641.17	1005.43
641.52	999.09
641.86	992.58
642.20	986.74
642.55	980.20
642.89	973.62
643.23	966.99
643.58	961.12
643.92	955.01
644.26	949.03
644.61	942.91
644.95	936.73
645.29	930.18
645.64	923.36
645.98	916.90
646.32	910.87
646.66	904.92
647.01	899.12
647.35	893.45
647.69	887.54
648.04	882.01
648.38	876.18
648.72	870.23
649.06	864.21
649.41	858.19
649.75	852.31
650.09	846.38
650.43	840.63
650.78	834.49
651.12	828.38
651.46	822.56
651.80	816.89
652.14	811.49
652.49	806.06
652.83	800.88
653.17	795.31
653.51	789.63
653.85	784.10
654.20	778.53
654.54	772.36
654.88	766.58
655.22	760.52
655.56	754.73
655.90	749.12
656.25	743.89
656.59	738.54
656.93	733.42
657.27	728.26
657.61	722.77
657.95	717.68
658.29	712.59
658.64	707.31
658.98	701.95
659.32	696.58
659.66	691.30
660.00	686.00
660.34	680.90
660.68	675.94
661.02	670.92
661.36	666.20
661.70	661.73
662.05	657.33
662.39	653.00
662.73	648.60
663.07	644.22
663.41	639.74
663.75	635.26
664.09	630.70
664.43	626.25
664.77	622.15
665.11	617.88
665.45	613.72
665.79	609.60
666.13	605.49
666.47	601.29
666.81	597.17
667.15	593.04
667.49	589.15
667.83	585.27
668.17	581.30
668.51	577.21
668.85	573.23
669.19	569.35
669.53	565.53
669.87	561.68
670.21	557.97
670.55	554.27
670.89	550.83
671.23	547.36
671.57	543.85
671.91	540.32
672.25	536.78
672.58	533.22
672.92	529.81
673.26	526.54
673.60	523.38
673.94	520.25
674.28	517.28
674.62	514.36
674.96	511.28
675.30	508.38
675.64	505.41
675.97	502.54
676.31	499.69
676.65	496.78
676.99	494.03
677.33	491.08
677.67	488.26
678.01	485.27
678.34	482.33
678.68	479.41
679.02	476.48
679.36	473.65
679.70	470.93
680.04	468.16
680.37	465.29
680.71	462.47
681.05	459.82
681.39	457.07
681.73	454.35
682.06	451.80
682.40	449.24
682.74	446.67
683.08	444.08
683.42	441.43
683.75	438.93
684.09	436.30
684.43	433.87
684.77	431.37
685.10	428.91
685.44	426.53
685.78	424.22
686.12	421.97
686.45	419.67
686.79	417.35
687.13	415.15
687.46	412.99
687.80	410.80
688.14	408.50
688.48	406.50
688.81	404.30
689.15	402.12
689.49	399.89
689.82	397.71
690.16	395.65
690.50	393.65
690.83	391.64
691.17	389.64
691.51	387.70
691.84	385.83
692.18	383.94
692.52	381.96
692.85	379.95
693.19	378.08
693.52	376.23
693.86	374.40
694.20	372.56
694.53	370.75
694.87	368.86
695.21	367.02
695.54	365.10
695.88	363.27
696.21	361.52
696.55	359.88
696.88	358.24
697.22	356.52
697.56	354.89
697.89	353.20
698.23	351.60
698.56	349.95
698.90	348.31
699.23	346.67
699.57	345.08
699.90	343.53
700.24	341.91
700.58	340.32
700.91	338.81
701.25	337.32
701.58	335.94
701.92	334.58
702.25	333.21
702.59	331.85
702.92	330.50
703.26	329.15
703.59	327.85
703.93	326.66
704.26	325.41
704.60	324.09
704.93	322.81
705.26	321.53
705.60	320.31
705.93	319.16
706.27	318.06
706.60	317.02
706.94	315.96
707.27	314.80
707.61	313.72
707.94	312.68
708.27	311.61
708.61	310.45
708.94	309.44
709.28	308.44
709.61	307.49
709.94	306.55
710.28	305.52
710.61	304.47
710.95	303.35
711.28	302.45
711.61	301.51
711.95	300.62
712.28	299.66
712.61	298.73
712.95	297.78
713.28	296.86
713.61	295.94
713.95	295.02
714.28	294.23
714.61	293.35
714.95	292.48
715.28	291.62
715.61	290.79
715.95	289.88
716.28	289.02
716.61	288.16
716.95	287.32
717.28	286.60
717.61	285.83
717.94	285.12
718.28	284.25
718.61	283.52
718.94	282.77
719.27	282.14
719.61	281.47
719.94	280.81
720.27	280.09
720.60	279.41
720.94	278.78
721.27	278.16
721.60	277.62
721.93	276.98
722.27	276.41
722.60	275.81
722.93	275.27
723.26	274.72
723.59	274.17
723.93	273.60
724.26	273.02
724.59	272.43
724.92	271.89
725.25	271.40
725.59	270.87
725.92	270.39
726.25	269.83
726.58	269.31
726.91	268.80
727.24	268.35
727.57	267.89
727.91	267.39
728.24	266.90
728.57	266.38
728.90	265.93
729.23	265.44
729.56	265.02
729.89	264.51
730.22	264.01
730.55	263.46
730.89	263.03
731.22	262.55
731.55	262.12
731.88	261.69
732.21	261.23
732.54	260.77
732.87	260.31
733.20	259.87
733.53	259.49
733.86	259.09
734.19	258.66
734.52	258.20
734.85	257.88
735.18	257.44
735.51	257.02
735.84	256.66
736.17	256.27
736.50	255.82
736.83	255.58
737.16	255.21
737.49	254.90
737.82	254.54
738.15	254.24
738.48	253.89
738.81	253.53
739.14	253.21
739.47	252.90
739.80	252.58
740.13	252.29
740.46	251.93
740.79	251.58
741.12	251.27
741.45	250.96
741.78	250.59
742.11	250.33
742.44	250.03
742.77	249.72
743.10	249.41
743.43	249.15
743.75	248.76
744.08	248.66
744.41	248.35
744.74	248.06
745.07	247.77
745.40	247.52
745.73	247.28
746.06	246.99
746.39	246.74
746.71	246.47
747.04	246.18
747.37	245.91
747.70	245.69
748.03	245.48
748.36	245.22
748.68	244.97
749.01	244.71
749.34	244.51
749.67	244.25
750.00	244.05
750.33	243.89
750.65	243.68
750.98	243.30
751.31	243.09
751.64	242.87
751.97	242.71
752.29	242.51
752.62	242.26
752.95	242.11
753.28	241.88
753.60	241.65
753.93	241.48
754.26	241.29
754.59	241.06
754.91	240.87
755.24	240.70
755.57	240.48
755.90	240.28
756.22	240.11
756.55	239.96
756.88	239.76
757.20	239.53
757.53	239.33
757.86	239.20
758.19	239.04
758.51	238.89
758.84	238.65
759.17	238.48
759.49	238.30
759.82	238.18
760.15	237.99
760.47	237.87
760.80	237.68
761.13	237.55
761.45	237.42
761.78	237.22
762.11	237.06
762.43	236.94
762.76	236.78
763.08	236.62
763.41	236.45
763.74	236.29
764.06	236.15
764.39	236.03
764.71	235.84
765.04	235.71
765.37	235.57
765.69	235.44
766.02	235.29
766.34	235.18
766.67	234.98
767.00	234.94
767.32	234.85
767.65	234.82
767.97	234.69
768.30	234.58
768.62	234.50
768.95	234.37
769.27	234.24
769.60	234.16
769.92	234.00
770.25	233.88
770.57	233.78
770.90	233.66
771.22	233.50
771.55	233.42
771.87	233.29
772.20	233.18
772.52	233.17
772.85	233.16
773.17	233.05
773.50	232.94
773.82	232.81
774.15	232.67
774.47	232.51
774.80	232.41
775.12	232.28
775.45	232.13
775.77	232.07
776.09	231.99
776.42	231.89
776.74	231.86
777.07	231.76
777.39	231.67
777.72	231.56
778.04	231.52
778.36	231.44
778.69	231.39
779.01	231.32
779.33	231.12
779.66	230.96
779.98	230.89
780.31	230.85
780.63	230.79
780.95	230.72
781.28	230.63
781.60	230.56
781.92	230.52
782.25	230.50
782.57	230.41
782.89	230.35
783.22	230.29
783.54	230.18
783.86	230.16
784.19	230.11
784.51	230.12
784.83	230.06
785.16	229.99
785.48	229.93
785.80	229.88
786.12	229.83
786.45	229.82
786.77	229.75
787.09	229.68
787.42	229.61
787.74	229.53
788.06	229.52
788.38	229.51
788.71	229.44
789.03	229.39
789.35	229.38
789.67	229.31
789.99	229.28
790.32	229.25
790.64	229.23
790.96	229.25
791.28	229.15
791.61	229.12
791.93	229.12
792.25	229.09
792.57	229.12
792.89	229.11
793.21	229.07
793.54	229.02
793.86	229.00
794.18	229.00
794.50	228.97
794.82	228.89
795.14	228.81
795.47	228.81
795.79	228.75
796.11	228.67
796.43	228.63
796.75	228.58
797.07	228.54
797.39	228.50
797.71	228.40
798.04	228.36
798.36	228.31
798.68	228.24
799.00	228.20
799.32	228.12
799.64	228.12
799.96	228.06
800.28	228.07
800.60	228.01
800.92	227.95
801.24	227.93
801.56	227.92
801.89	227.91
802.21	227.84
802.53	227.83
802.85	227.84
803.17	227.88
803.49	227.82
803.81	227.77
804.13	227.73
804.45	227.68
804.77	227.68
805.09	227.66
805.41	227.63
805.73	227.61
806.05	227.55
806.37	227.47
806.69	227.44
807.01	227.42
807.33	227.41
807.65	227.34
807.97	227.36
808.28	227.33
808.60	227.32
808.92	227.32
809.24	227.33
809.56	227.29
809.88	227.23
810.20	227.22
810.52	227.22
810.84	227.16
811.16	227.16
811.48	227.11
811.80	227.12
812.12	227.11
812.43	227.06
812.75	227.05
813.07	227.02
813.39	227.03
813.71	226.97
814.03	226.93
814.35	226.91
814.67	226.86
814.98	226.80
815.30	226.76
815.62	226.73
815.94	226.65
816.26	226.68
816.58	226.65
816.89	226.64
817.21	226.59
817.53	226.61
817.85	226.56
818.17	226.55
818.48	226.50
818.80	226.52
819.12	226.48
819.44	226.47
819.76	226.45
820.07	226.41
820.39	226.40
820.71	226.41
821.03	226.42
821.34	226.38
821.66	226.41
821.98	226.43
822.30	226.41
822.61	226.45
822.93	226.37
823.25	226.35
823.57	226.31
823.88	226.35
824.20	226.32
824.52	226.38
824.83	226.37
825.15	226.35
825.47	226.31
825.79	226.34
826.10	226.31
826.42	226.29
826.74	226.28
827.05	226.25
827.37	226.27
827.69	226.25
828.00	226.26
828.32	226.24
828.64	226.20
828.95	226.23
829.27	226.20
829.58	226.22
829.90	226.26
830.22	226.28
830.53	226.23
830.85	226.21
831.17	226.14
831.48	226.14
831.80	226.11
832.11	226.10
832.43	226.05
832.75	226.04
833.06	226.09
833.38	226.07
833.69	226.09
834.01	226.05
834.32	226.02
834.64	226.00
834.96	225.93
835.27	225.91
835.59	225.84
835.90	225.80
836.22	225.78
836.53	225.72
836.85	225.67
837.16	225.77
837.48	225.77
837.79	225.78
838.11	225.75
838.42	225.77
838.74	225.74
839.05	225.74
839.37	225.73
839.68	225.65
840.00	225.63
840.31	225.60
840.63	225.59
840.94	225.56
841.26	225.54
841.57	225.56
841.88	225.56
842.20	225.56
842.51	225.57
842.83	225.55
843.14	225.63
843.46	225.67
843.77	225.58
844.08	225.57
844.40	225.58
844.71	225.57
845.03	225.54
845.34	225.53
845.65	225.53
845.97	225.53
846.28	225.54
846.60	225.55
846.91	225.52
847.22	225.53
847.54	225.57
847.85	225.57
848.16	225.61
848.48	225.57
848.79	225.63
849.10	225.64
849.42	225.62
849.73	225.53
850.04	225.50
850.36	225.49
850.67	225.49
850.98	225.47
851.30	225.49
851.61	225.48
851.92	225.51
852.23	225.53
852.55	225.51
852.86	225.55
853.17	225.56
853.49	225.58
853.80	225.57
854.11	225.58
854.42	225.59
854.74	225.56
855.05	225.60
855.36	225.52
855.67	225.51
855.99	225.54
856.30	225.65
856.61	225.64
856.92	225.67
857.23	225.66
857.55	225.66
857.86	225.65
858.17	225.67
858.48	225.64
858.79	225.63
859.11	225.66
859.42	225.65
859.73	225.63
860.04	225.64
860.35	225.66
860.66	225.64
860.98	225.64
861.29	225.64
861.60	225.63
861.91	225.64
862.22	225.64
862.53	225.63
862.84	225.51
863.16	225.53
863.47	225.50
863.78	225.52
864.09	225.51
864.40	225.51
864.71	225.50
865.02	225.54
865.33	225.53
865.64	225.52
865.95	225.49
866.27	225.56
866.58	225.54
866.89	225.54
867.20	225.48
867.51	225.46
867.82	225.43
868.13	225.46
868.44	225.44
868.75	225.45
869.06	225.43
869.37	225.46
869.68	225.44
869.99	225.43
870.30	225.43
870.61	225.40
870.92	225.37
871.23	225.37
871.54	225.37
871.85	225.40
872.16	225.37
872.47	225.39
872.78	225.32
873.09	225.34
873.40	225.31
873.71	225.35
874.02	225.38
874.33	225.37
874.64	225.35
874.95	225.36
875.26	225.33
875.56	225.33
875.87	225.29
876.18	225.32
876.49	225.39
876.80	225.37
877.11	225.44
877.42	225.45
877.73	225.42
878.04	225.40
878.35	225.38
878.66	225.41
878.96	225.38
879.27	225.39
879.58	225.34
879.89	225.36
880.20	225.37
880.51	225.31
880.82	225.34
881.12	225.33
881.43	225.32
881.74	225.28
882.05	225.25
882.36	225.25
882.67	225.20
882.97	225.11
883.28	225.10
883.59	225.04
883.90	225.04
884.21	225.05
884.51	225.03
884.82	224.99
885.13	224.97
885.44	224.98
885.74	224.96
886.05	224.98
886.36	224.95
886.67	224.93
886.98	225.01
887.28	224.99
887.59	224.99
887.90	224.97
888.20	224.97
888.51	224.98
888.82	224.98
889.13	225.01
889.43	225.09
889.74	225.09
890.05	225.07
890.35	225.05
890.66	225.08
890.97	225.07
891.28	225.05
891.58	225.07
891.89	225.07
892.20	225.05
892.50	225.06
892.81	225.06
893.12	225.06
893.42	225.01
893.73	225.02
894.04	225.03
894.34	225.03
894.65	225.06
894.95	225.08
895.26	225.10
895.57	225.14
895.87	225.04
896.18	225.05
896.48	225.09
896.79	225.14
897.10	225.12
897.40	225.16
897.71	225.17
898.01	225.15
898.32	225.16
898.63	225.17
898.93	225.14
899.24	225.17
899.54	225.17
899.85	225.18
900.15	225.17
900.46	225.19
900.76	225.22
901.07	225.20
901.38	225.19
901.68	225.20
901.99	225.14
902.29	225.15
902.60	225.16
902.90	225.17
903.21	225.15
903.51	225.13
903.82	225.13
904.12	225.14
904.43	225.13
904.73	225.14
905.03	225.14
905.34	225.25
905.64	225.24
905.95	225.23
906.25	225.22
906.56	225.22
906.86	225.20
907.17	225.20
907.47	225.21
907.77	225.18
908.08	225.16
908.38	225.17
908.69	225.18
908.99	225.17
909.30	225.17
909.60	225.15
909.90	225.18
910.21	225.15
910.51	225.14
910.81	225.15
911.12	225.16
911.42	225.16
911.73	225.05
912.03	225.03
912.33	225.03
912.64	225.04
912.94	225.02
913.24	225.03
913.55	225.02
913.85	225.01
914.15	225.09
914.46	225.09
914.76	225.08
915.06	225.07
915.37	225.06
915.67	225.01
915.97	225.03
916.27	224.99
916.58	225.01
916.88	224.99
917.18	224.99
917.49	225.04
917.79	225.05
918.09	225.05
918.39	225.10
918.70	225.08
919.00	225.06
919.30	225.10
919.60	225.08
919.91	225.07
920.21	225.08
920.51	225.00
920.81	225.00
921.12	225.04
921.42	225.02
921.72	224.99
922.02	225.03
922.32	225.03
922.63	225.05
922.93	225.05
923.23	225.03
923.53	225.00
923.83	224.92
924.13	224.90
924.44	224.89
924.74	224.86
925.04	224.92
925.34	224.93
925.64	224.91
925.94	224.89
926.24	224.90
926.55	224.89
926.85	224.91
927.15	224.92
927.45	224.89
927.75	224.90
928.05	224.90
928.35	224.87
928.65	224.86
928.95	224.83
929.26	224.80
929.56	224.86
929.86	224.87
930.16	224.88
930.46	224.87
930.76	224.91
931.06	224.91
931.36	224.89
931.66	224.90
931.96	224.91
932.26	224.89
932.56	224.87
932.86	224.90
933.16	224.90
933.46	224.85
933.76	224.84
934.06	224.84
934.36	224.92
934.66	224.95
934.96	224.93
935.26	224.97
935.56	225.00
935.86	224.96
936.16	224.95
936.46	224.95
936.76	224.94
937.06	224.91
937.36	224.91
937.66	224.90
937.96	224.88
938.26	224.86
938.56	224.88
938.86	224.90
939.16	224.90
939.46	224.94
939.76	224.96
940.06	224.97
940.35	224.96
940.65	224.87
940.95	224.88
941.25	224.90
941.55	224.88
941.85	224.89
942.15	224.91
942.45	224.94
942.75	224.91
943.04	224.91
943.34	224.94
943.64	224.95
943.94	224.93
944.24	224.97
944.54	224.97
944.84	224.97
945.13	224.95
945.43	224.93
945.73	224.91
946.03	224.91
946.33	224.92
946.62	224.92
946.92	224.92
947.22	224.93
947.52	224.92
947.82	224.95
948.11	224.93
948.41	224.94
948.71	224.92
949.01	224.94
949.31	224.98
949.60	224.94
949.90	224.94
950.20	224.95
950.50	224.91
950.79	224.90
951.09	224.92
951.39	224.92
951.69	224.92
951.98	224.94
952.28	224.96
952.58	224.92
952.87	224.92
953.17	224.94
953.47	224.93
953.76	224.95
954.06	224.91
954.36	224.87
954.66	224.88
954.95	224.91
955.25	224.89
955.55	224.88
955.84	224.88
956.14	224.90
956.44	224.87
956.73	224.89
957.03	224.92
957.32	224.92
957.62	224.93
957.92	224.92
958.21	224.89
958.51	224.99
958.81	225.01
959.10	225.03
959.40	225.04
959.69	225.05
959.99	225.04
960.29	225.07
960.58	225.09
960.88	225.11
961.17	225.09
961.47	225.11
961.76	225.08
962.06	225.13
962.36	225.09
962.65	225.11
962.95	225.09
963.24	225.07
963.54	225.04
963.83	225.05
964.13	225.08
964.42	225.06
964.72	224.96
965.01	224.96
965.31	224.98
965.60	224.97
965.90	225.01
966.19	224.94
966.49	224.95
966.78	224.95
967.08	224.94
967.37	224.96
967.67	224.96
967.96	224.98
968.26	224.94
968.55	224.97
968.85	224.96
969.14	224.97
969.43	224.93
969.73	224.92
970.02	224.92
970.32	224.92
970.61	224.94
970.91	224.88
971.20	224.86
971.49	224.82
971.79	224.79
972.08	224.72
972.38	224.76
972.67	224.73
972.96	224.71
973.26	224.67
973.55	224.70
973.85	224.65
974.14	224.65
974.43	224.67
974.73	224.65
975.02	224.67
975.31	224.67
975.61	224.69
975.90	224.71
976.19	224.68
976.49	224.66
976.78	224.64
977.07	224.67
977.37	224.70
977.66	224.73
977.95	224.75
978.24	224.75
978.54	224.78
978.83	224.78
979.12	224.80
979.42	224.83
979.71	224.76
980.00	224.78
980.29	224.76
980.59	224.71
980.88	224.75
981.17	224.69
981.46	224.69
981.76	224.68
982.05	224.68
982.34	224.69
982.63	224.69
982.93	224.73
983.22	224.77
983.51	224.77
983.80	224.74
984.09	224.74
984.39	224.72
984.68	224.69
984.97	224.69
985.26	224.68
985.55	224.65
985.85	224.66
986.14	224.64
986.43	224.67
986.72	224.71
987.01	224.62
987.30	224.64
987.59	224.63
987.89	224.64
988.18	224.61
988.47	224.58
988.76	224.55
989.05	224.50
989.34	224.48
989.63	224.50
989.92	224.51
990.22	224.48
990.51	224.49
990.80	224.48
991.09	224.49
991.38	224.51
991.67	224.53
991.96	224.56
992.25	224.60
992.54	224.58
992.83	224.57
993.12	224.60
993.41	224.60
993.70	224.63
993.99	224.63
994.28	224.63
994.58	224.65
994.87	224.65
995.16	224.66
995.45	224.65
995.74	224.59
996.03	224.61
996.32	224.62
996.61	224.66
996.90	224.68
997.19	224.67
997.48	224.65
997.77	224.64
998.06	224.62
998.34	224.64
998.63	224.63
998.92	224.63
999.21	224.63
999.50	224.65
999.79	224.61
1000.08	224.61
1000.37	224.62
1000.66	224.62
1000.95	224.65
1001.24	224.65
1001.53	224.65
1001.82	224.65
1002.11	224.62
1002.40	224.63
1002.68	224.63
1002.97	224.73
1003.26	224.72
1003.55	224.71
1003.84	224.69
1004.13	224.71
1004.42	224.68
1004.71	224.72
1004.99	224.70
1005.28	224.73
1005.57	224.73
1005.86	224.75
1006.15	224.77
1006.44	224.77
1006.72	224.79
1007.01	224.76
1007.30	224.80
1007.59	224.82
1007.88	224.80
1008.17	224.82
1008.45	224.84
1008.74	224.81
1009.03	224.75
1009.32	224.76
1009.60	224.79
1009.89	224.79
1010.18	224.72
1010.47	224.73
1010.76	224.72
1011.04	224.72
1011.33	224.73
1011.62	224.73
1011.91	224.72
1012.19	224.74
1012.48	224.75
1012.77	224.76
1013.05	224.79
1013.34	224.78
1013.63	224.77
1013.92	224.79
1014.20	224.76
1014.49	224.73
1014.78	224.74
1015.06	224.69
1015.35	224.71
1015.64	224.71
1015.92	224.71
1016.21	224.75
1016.50	224.76
1016.78	224.78
1017.07	224.78
1017.36	224.75
1017.64	224.73
1017.93	224.73
1018.22	224.69
1018.50	224.69
1018.79	224.67
1019.08	224.64
1019.36	224.63
1019.65	224.64
1019.93	224.66
1020.22	224.69
1020.51	224.77
1020.79	224.76
1021.08	224.41
1021.36	224.54
1021.65	224.65
1021.94	224.54
1022.22	224.66
1022.51	224.97
1022.79	224.89
1023.08	224.90
1023.36	226.01
1023.65	224.68
>>>>>End Processed Spectral Data<<<<<
