SpectraSuite Data File
++++++++++++++++++++++++++++++++++++
Date: Fri Feb 01 17:37:28 EST 2013
User: group
Dark Spectrum Present: No
Reference Spectrum Present: No
Number of Sampled Component Spectra: 1
Spectrometers: USB2E7196
Integration Time (usec): 35000 (USB2E7196)
Spectra Averaged: 100 (USB2E7196)
Boxcar Smoothing: 10 (USB2E7196)
Correct for Electrical Dark: No (USB2E7196)
Strobe/Lamp Enabled: No (USB2E7196)
Correct for Detector Non-linearity: No (USB2E7196)
Correct for Stray Light: No (USB2E7196)
Number of Pixels in Processed Spectrum: 2048
>>>>>Begin Processed Spectral Data<<<<<
339.09	0.00
339.48	212.66
339.86	214.34
340.24	215.47
340.63	217.18
341.01	219.96
341.39	219.55
341.78	221.22
342.16	222.68
342.54	222.91
342.93	211.29
343.31	221.94
343.69	222.46
344.07	222.93
344.46	223.36
344.84	223.75
345.22	224.02
345.60	224.27
345.99	224.45
346.37	224.56
346.75	224.66
347.13	224.72
347.52	224.81
347.90	224.89
348.28	224.92
348.66	225.00
349.05	224.97
349.43	225.00
349.81	225.03
350.19	225.08
350.57	225.14
350.96	225.19
351.34	225.30
351.72	225.41
352.10	225.50
352.48	225.58
352.87	225.61
353.25	225.65
353.63	225.75
354.01	225.86
354.39	225.92
354.77	225.99
355.15	226.10
355.54	226.16
355.92	226.18
356.30	226.28
356.68	226.34
357.06	226.41
357.44	226.47
357.82	226.53
358.20	226.61
358.58	226.63
358.97	226.73
359.35	226.80
359.73	226.89
360.11	226.94
360.49	227.01
360.87	227.06
361.25	227.12
361.63	227.16
362.01	227.17
362.39	227.22
362.77	227.30
363.15	227.33
363.53	227.33
363.91	227.37
364.29	227.36
364.67	227.31
365.05	227.37
365.43	227.39
365.81	227.42
366.19	227.46
366.57	227.50
366.95	227.51
367.33	227.46
367.71	227.45
368.09	227.47
368.47	227.43
368.85	227.41
369.23	227.41
369.61	227.33
369.99	227.32
370.37	227.27
370.75	227.28
371.13	227.21
371.51	227.18
371.89	227.13
372.27	227.12
372.65	227.10
373.03	227.04
373.41	226.98
373.78	226.89
374.16	226.83
374.54	226.74
374.92	226.66
375.30	226.63
375.68	226.56
376.06	226.49
376.44	226.45
376.82	226.38
377.19	226.31
377.57	226.26
377.95	226.20
378.33	226.17
378.71	226.04
379.09	226.04
379.47	225.98
379.84	225.90
380.22	225.81
380.60	225.73
380.98	225.66
381.36	225.64
381.73	225.61
382.11	225.52
382.49	225.44
382.87	225.38
383.25	225.29
383.62	225.35
384.00	225.28
384.38	225.22
384.76	225.19
385.13	225.22
385.51	225.17
385.89	225.06
386.27	225.01
386.64	224.97
387.02	224.89
387.40	224.83
387.78	224.83
388.15	224.80
388.53	224.78
388.91	224.75
389.29	224.68
389.66	224.66
390.04	224.61
390.42	224.61
390.79	224.64
391.17	224.63
391.55	224.49
391.92	224.47
392.30	224.46
392.68	224.42
393.05	224.35
393.43	224.34
393.81	224.42
394.18	224.40
394.56	224.37
394.94	224.38
395.31	224.39
395.69	224.43
396.06	224.48
396.44	224.50
396.82	224.54
397.19	224.62
397.57	224.63
397.95	224.68
398.32	224.72
398.70	224.77
399.07	224.85
399.45	224.92
399.82	224.96
400.20	224.99
400.58	225.07
400.95	225.13
401.33	225.18
401.70	225.28
402.08	225.37
402.45	225.49
402.83	225.58
403.20	225.68
403.58	225.76
403.95	225.85
404.33	225.97
404.71	226.05
405.08	226.22
405.46	226.37
405.83	226.54
406.21	226.66
406.58	226.79
406.96	226.96
407.33	227.10
407.70	227.31
408.08	227.61
408.45	227.82
408.83	228.07
409.20	228.32
409.58	228.51
409.95	228.76
410.33	229.04
410.70	229.29
411.08	229.59
411.45	229.91
411.82	230.22
412.20	230.59
412.57	231.05
412.95	231.37
413.32	231.80
413.69	232.23
414.07	232.69
414.44	233.17
414.82	233.66
415.19	234.24
415.56	234.81
415.94	235.38
416.31	236.03
416.68	236.62
417.06	237.35
417.43	238.12
417.81	238.91
418.18	239.72
418.55	240.58
418.93	241.51
419.30	242.48
419.67	243.47
420.04	244.49
420.42	245.49
420.79	246.74
421.16	247.94
421.54	249.17
421.91	250.47
422.28	251.81
422.66	253.17
423.03	254.57
423.40	255.99
423.77	257.46
424.15	259.01
424.52	260.63
424.89	262.31
425.26	263.91
425.64	265.44
426.01	267.11
426.38	268.87
426.75	270.61
427.13	272.41
427.50	274.31
427.87	276.28
428.24	278.27
428.61	280.04
428.99	282.06
429.36	284.25
429.73	286.40
430.10	288.55
430.47	290.74
430.85	292.96
431.22	295.29
431.59	297.73
431.96	300.06
432.33	302.64
432.70	305.10
433.08	308.02
433.45	310.78
433.82	313.48
434.19	316.46
434.56	319.41
434.93	322.18
435.30	324.90
435.68	327.88
436.05	330.81
436.42	333.75
436.79	336.38
437.16	339.19
437.53	342.13
437.90	345.03
438.27	347.86
438.64	350.81
439.01	353.53
439.38	355.88
439.75	358.11
440.13	360.71
440.50	363.17
440.87	365.09
441.24	367.12
441.61	369.40
441.98	371.00
442.35	372.90
442.72	374.83
443.09	376.72
443.46	377.78
443.83	378.43
444.20	379.00
444.57	379.88
444.94	380.15
445.31	380.53
445.68	380.91
446.05	381.04
446.42	380.65
446.79	380.17
447.16	379.75
447.53	379.47
447.90	378.30
448.27	377.09
448.64	375.45
449.01	374.29
449.37	372.22
449.74	370.24
450.11	367.89
450.48	365.36
450.85	362.78
451.22	360.55
451.59	358.42
451.96	356.34
452.33	353.61
452.70	351.19
453.07	348.25
453.43	345.23
453.80	342.34
454.17	339.53
454.54	336.91
454.91	334.06
455.28	331.25
455.65	328.61
456.02	326.08
456.38	323.85
456.75	321.04
457.12	318.70
457.49	316.36
457.86	314.09
458.23	312.12
458.59	309.92
458.96	307.74
459.33	305.81
459.70	303.90
460.07	302.40
460.43	300.59
460.80	298.89
461.17	297.38
461.54	295.83
461.91	294.38
462.27	292.88
462.64	291.58
463.01	290.15
463.38	288.85
463.74	287.37
464.11	286.14
464.48	285.09
464.85	283.92
465.21	283.03
465.58	282.10
465.95	280.96
466.32	280.02
466.68	279.08
467.05	278.15
467.42	277.22
467.78	276.22
468.15	275.30
468.52	274.62
468.88	273.74
469.25	272.94
469.62	272.23
469.98	271.46
470.35	270.84
470.72	270.24
471.08	269.52
471.45	269.02
471.82	268.48
472.18	267.85
472.55	267.43
472.92	266.91
473.28	266.41
473.65	265.94
474.02	265.53
474.38	265.17
474.75	264.86
475.11	264.55
475.48	264.28
475.85	264.07
476.21	263.81
476.58	263.58
476.94	263.43
477.31	263.30
477.67	263.18
478.04	263.06
478.41	262.98
478.77	263.04
479.14	262.97
479.50	262.98
479.87	263.08
480.23	263.18
480.60	263.22
480.96	263.32
481.33	263.53
481.69	263.72
482.06	263.87
482.42	264.03
482.79	264.26
483.15	264.54
483.52	264.94
483.88	265.30
484.25	265.72
484.61	266.11
484.98	266.53
485.34	267.10
485.71	267.68
486.07	268.29
486.44	268.84
486.80	269.52
487.17	270.27
487.53	271.06
487.90	271.89
488.26	272.81
488.62	273.80
488.99	274.76
489.35	275.76
489.72	276.90
490.08	278.10
490.44	279.33
490.81	280.67
491.17	281.99
491.54	283.47
491.90	284.96
492.26	286.59
492.63	288.32
492.99	290.10
493.36	291.98
493.72	294.03
494.08	296.10
494.45	298.31
494.81	300.63
495.17	303.07
495.54	305.61
495.90	308.27
496.26	311.00
496.63	313.92
496.99	317.01
497.35	320.23
497.72	323.59
498.08	327.06
498.44	330.71
498.80	334.58
499.17	338.55
499.53	342.66
499.89	346.99
500.26	351.45
500.62	356.03
500.98	360.91
501.34	365.86
501.71	371.09
502.07	376.48
502.43	381.99
502.79	387.72
503.16	393.66
503.52	399.84
503.88	406.17
504.24	412.64
504.60	419.38
504.97	426.40
505.33	433.58
505.69	441.18
506.05	448.78
506.41	456.52
506.78	464.51
507.14	472.81
507.50	481.31
507.86	490.16
508.22	499.16
508.59	508.13
508.95	517.51
509.31	527.09
509.67	536.97
510.03	547.00
510.39	557.29
510.75	567.85
511.12	578.46
511.48	589.43
511.84	600.67
512.20	611.86
512.56	623.46
512.92	635.37
513.28	647.37
513.64	659.48
514.00	671.86
514.37	684.40
514.73	697.13
515.09	709.71
515.45	722.69
515.81	735.93
516.17	749.60
516.53	763.29
516.89	777.12
517.25	790.92
517.61	805.03
517.97	819.06
518.33	833.01
518.69	847.42
519.05	861.97
519.41	876.63
519.77	891.65
520.13	906.61
520.49	921.56
520.85	936.33
521.21	951.51
521.57	967.23
521.93	982.54
522.29	998.31
522.65	1014.21
523.01	1029.79
523.37	1045.21
523.73	1060.79
524.09	1076.44
524.45	1092.19
524.81	1108.19
525.17	1124.31
525.53	1140.57
525.89	1156.85
526.25	1173.15
526.61	1188.91
526.97	1205.18
527.33	1221.19
527.68	1237.29
528.04	1253.08
528.40	1269.17
528.76	1285.71
529.12	1301.77
529.48	1318.20
529.84	1333.80
530.20	1349.92
530.56	1366.33
530.91	1383.20
531.27	1399.42
531.63	1415.35
531.99	1431.42
532.35	1446.94
532.71	1462.43
533.07	1478.36
533.42	1493.89
533.78	1509.51
534.14	1525.41
534.50	1540.32
534.86	1555.85
535.21	1570.59
535.57	1586.16
535.93	1601.29
536.29	1615.68
536.65	1630.30
537.00	1644.64
537.36	1659.65
537.72	1673.79
538.08	1688.08
538.44	1701.73
538.79	1715.51
539.15	1728.84
539.51	1742.28
539.87	1756.40
540.22	1769.81
540.58	1783.16
540.94	1796.14
541.29	1808.58
541.65	1821.03
542.01	1834.05
542.37	1846.22
542.72	1858.42
543.08	1870.08
543.44	1882.35
543.79	1893.63
544.15	1904.49
544.51	1916.01
544.87	1926.74
545.22	1937.43
545.58	1947.50
545.94	1957.28
546.29	1967.03
546.65	1976.94
547.01	1986.31
547.36	1995.13
547.72	2003.75
548.07	2012.02
548.43	2020.12
548.79	2028.30
549.14	2036.18
549.50	2043.50
549.86	2051.15
550.21	2058.59
550.57	2065.94
550.92	2072.83
551.28	2080.07
551.64	2087.41
551.99	2094.02
552.35	2100.66
552.70	2107.10
553.06	2113.38
553.41	2119.94
553.77	2126.17
554.13	2132.59
554.48	2138.86
554.84	2144.83
555.19	2150.24
555.55	2155.55
555.90	2160.65
556.26	2166.15
556.61	2171.03
556.97	2175.86
557.32	2180.40
557.68	2185.05
558.03	2189.56
558.39	2193.53
558.74	2198.41
559.10	2202.73
559.45	2206.77
559.81	2211.10
560.16	2215.45
560.52	2219.14
560.87	2222.85
561.23	2226.04
561.58	2229.10
561.94	2232.13
562.29	2234.57
562.64	2238.08
563.00	2240.88
563.35	2244.71
563.71	2248.08
564.06	2251.61
564.42	2254.93
564.77	2258.00
565.12	2260.95
565.48	2263.56
565.83	2265.97
566.19	2268.05
566.54	2269.29
566.89	2271.09
567.25	2272.35
567.60	2273.89
567.96	2276.07
568.31	2277.42
568.66	2278.89
569.02	2280.04
569.37	2280.87
569.72	2282.24
570.08	2282.76
570.43	2283.36
570.78	2283.45
571.14	2282.41
571.49	2281.56
571.84	2281.48
572.20	2280.81
572.55	2280.11
572.90	2278.73
573.26	2277.73
573.61	2276.12
573.96	2275.05
574.31	2272.37
574.67	2269.90
575.02	2266.71
575.37	2263.53
575.72	2260.24
576.08	2257.12
576.43	2254.04
576.78	2250.99
577.13	2248.11
577.49	2245.05
577.84	2241.94
578.19	2238.35
578.54	2235.08
578.90	2231.46
579.25	2226.31
579.60	2221.78
579.95	2217.05
580.30	2212.51
580.66	2207.74
581.01	2203.09
581.36	2198.34
581.71	2194.65
582.06	2190.65
582.42	2186.67
582.77	2181.92
583.12	2177.67
583.47	2173.66
583.82	2169.35
584.17	2164.34
584.53	2159.30
584.88	2154.19
585.23	2148.96
585.58	2143.78
585.93	2138.70
586.28	2134.09
586.63	2129.49
586.98	2124.63
587.34	2120.24
587.69	2115.65
588.04	2110.70
588.39	2105.41
588.74	2099.29
589.09	2093.37
589.44	2086.82
589.79	2080.81
590.14	2075.34
590.49	2069.00
590.84	2062.73
591.19	2056.82
591.54	2050.62
591.89	2043.68
592.25	2037.30
592.60	2030.26
592.95	2023.13
593.30	2016.04
593.65	2008.49
594.00	2001.65
594.35	1994.64
594.70	1986.63
595.05	1979.76
595.40	1972.64
595.75	1965.39
596.10	1959.49
596.45	1953.16
596.80	1947.11
597.15	1940.82
597.50	1934.14
597.85	1927.69
598.19	1921.24
598.54	1914.49
598.89	1908.01
599.24	1902.06
599.59	1895.70
599.94	1889.49
600.29	1883.21
600.64	1876.56
600.99	1869.45
601.34	1862.68
601.69	1855.61
602.04	1848.95
602.39	1841.66
602.74	1835.03
603.08	1828.38
603.43	1821.40
603.78	1813.95
604.13	1806.80
604.48	1799.68
604.83	1792.81
605.18	1786.41
605.53	1778.45
605.87	1770.41
606.22	1763.09
606.57	1755.25
606.92	1747.48
607.27	1740.53
607.62	1733.72
607.96	1726.76
608.31	1720.43
608.66	1713.00
609.01	1705.76
609.36	1698.36
609.70	1690.31
610.05	1682.23
610.40	1674.55
610.75	1666.54
611.10	1658.95
611.44	1650.53
611.79	1642.40
612.14	1633.77
612.49	1624.29
612.83	1615.73
613.18	1607.47
613.53	1599.29
613.88	1590.82
614.22	1582.60
614.57	1573.91
614.92	1565.77
615.27	1558.28
615.61	1549.73
615.96	1541.55
616.31	1533.70
616.65	1526.22
617.00	1518.76
617.35	1511.01
617.70	1502.69
618.04	1494.27
618.39	1485.88
618.74	1478.19
619.08	1469.91
619.43	1462.19
619.78	1455.20
620.12	1448.14
620.47	1440.63
620.82	1432.35
621.16	1424.65
621.51	1416.95
621.85	1409.09
622.20	1400.53
622.55	1391.84
622.89	1383.88
623.24	1376.17
623.59	1368.54
623.93	1360.81
624.28	1353.33
624.62	1345.86
624.97	1338.53
625.32	1331.41
625.66	1324.27
626.01	1317.04
626.35	1309.67
626.70	1301.68
627.04	1294.05
627.39	1286.14
627.73	1278.67
628.08	1271.72
628.43	1264.51
628.77	1257.23
629.12	1249.80
629.46	1242.58
629.81	1235.02
630.15	1227.63
630.50	1220.19
630.84	1211.98
631.19	1204.00
631.53	1196.43
631.88	1188.65
632.22	1180.96
632.57	1173.50
632.91	1165.87
633.26	1158.42
633.60	1150.87
633.95	1143.64
634.29	1136.32
634.64	1129.55
634.98	1122.18
635.32	1115.09
635.67	1108.33
636.01	1101.55
636.36	1094.74
636.70	1088.11
637.05	1081.49
637.39	1075.07
637.73	1068.54
638.08	1062.67
638.42	1056.64
638.77	1050.16
639.11	1043.60
639.45	1037.15
639.80	1030.59
640.14	1024.29
640.49	1017.76
640.83	1011.35
641.17	1005.19
641.52	998.93
641.86	992.46
642.20	986.41
642.55	979.85
642.89	973.32
643.23	966.60
643.58	960.68
643.92	954.57
644.26	948.60
644.61	942.40
644.95	936.31
645.29	929.76
645.64	923.05
645.98	916.65
646.32	910.60
646.66	904.54
647.01	898.63
647.35	892.83
647.69	886.87
648.04	881.33
648.38	875.54
648.72	869.52
649.06	863.56
649.41	857.59
649.75	851.74
650.09	845.78
650.43	839.99
650.78	833.85
651.12	827.78
651.46	821.98
651.80	816.38
652.14	810.89
652.49	805.50
652.83	800.31
653.17	794.71
653.51	789.12
653.85	783.73
654.20	778.16
654.54	772.19
654.88	766.41
655.22	760.47
655.56	754.65
655.90	749.04
656.25	743.67
656.59	738.39
656.93	733.23
657.27	728.14
657.61	722.70
657.95	717.51
658.29	712.41
658.64	707.03
658.98	701.60
659.32	696.17
659.66	690.89
660.00	685.61
660.34	680.61
660.68	675.65
661.02	670.56
661.36	665.75
661.70	661.23
662.05	656.90
662.39	652.64
662.73	648.21
663.07	643.87
663.41	639.45
663.75	634.89
664.09	630.32
664.43	625.89
664.77	621.88
665.11	617.67
665.45	613.53
665.79	609.50
666.13	605.42
666.47	601.29
666.81	597.17
667.15	592.93
667.49	588.91
667.83	585.00
668.17	581.04
668.51	577.01
668.85	572.90
669.19	568.98
669.53	565.09
669.87	561.25
670.21	557.52
670.55	553.78
670.89	550.36
671.23	546.94
671.57	543.32
671.91	539.75
672.25	536.15
672.58	532.59
672.92	529.14
673.26	525.89
673.60	522.73
673.94	519.63
674.28	516.69
674.62	513.80
674.96	510.74
675.30	507.81
675.64	504.85
675.97	502.04
676.31	499.19
676.65	496.24
676.99	493.51
677.33	490.62
677.67	487.85
678.01	484.86
678.34	481.92
678.68	479.13
679.02	476.32
679.36	473.58
679.70	470.84
680.04	468.14
680.37	465.30
680.71	462.49
681.05	459.77
681.39	457.07
681.73	454.36
682.06	451.89
682.40	449.37
682.74	446.82
683.08	444.21
683.42	441.56
683.75	439.07
684.09	436.48
684.43	433.98
684.77	431.50
685.10	429.12
685.44	426.71
685.78	424.31
686.12	421.99
686.45	419.62
686.79	417.31
687.13	415.01
687.46	412.83
687.80	410.66
688.14	408.42
688.48	406.32
688.81	404.08
689.15	401.83
689.49	399.60
689.82	397.49
690.16	395.37
690.50	393.37
690.83	391.37
691.17	389.35
691.51	387.44
691.84	385.54
692.18	383.57
692.52	381.64
692.85	379.71
693.19	377.83
693.52	376.00
693.86	374.12
694.20	372.33
694.53	370.51
694.87	368.61
695.21	366.82
695.54	364.94
695.88	363.19
696.21	361.48
696.55	359.83
696.88	358.15
697.22	356.47
697.56	354.80
697.89	353.11
698.23	351.50
698.56	349.87
698.90	348.22
699.23	346.58
699.57	344.99
699.90	343.42
700.24	341.80
700.58	340.27
700.91	338.84
701.25	337.37
701.58	335.97
701.92	334.61
702.25	333.19
702.59	331.87
702.92	330.52
703.26	329.14
703.59	327.82
703.93	326.59
704.26	325.37
704.60	324.05
704.93	322.78
705.26	321.51
705.60	320.30
705.93	319.15
706.27	318.09
706.60	317.04
706.94	315.95
707.27	314.85
707.61	313.77
707.94	312.69
708.27	311.58
708.61	310.45
708.94	309.45
709.28	308.48
709.61	307.49
709.94	306.56
710.28	305.55
710.61	304.53
710.95	303.46
711.28	302.53
711.61	301.60
711.95	300.67
712.28	299.76
712.61	298.77
712.95	297.81
713.28	296.92
713.61	296.00
713.95	295.09
714.28	294.24
714.61	293.35
714.95	292.48
715.28	291.69
715.61	290.80
715.95	289.90
716.28	289.05
716.61	288.20
716.95	287.34
717.28	286.59
717.61	285.83
717.94	285.06
718.28	284.23
718.61	283.49
718.94	282.78
719.27	282.10
719.61	281.44
719.94	280.79
720.27	280.02
720.60	279.31
720.94	278.69
721.27	278.07
721.60	277.45
721.93	276.88
722.27	276.27
722.60	275.73
722.93	275.17
723.26	274.61
723.59	274.02
723.93	273.44
724.26	272.84
724.59	272.24
724.92	271.70
725.25	271.18
725.59	270.68
725.92	270.15
726.25	269.62
726.58	269.11
726.91	268.60
727.24	268.15
727.57	267.69
727.91	267.18
728.24	266.68
728.57	266.19
728.90	265.66
729.23	265.15
729.56	264.71
729.89	264.25
730.22	263.76
730.55	263.30
730.89	262.84
731.22	262.39
731.55	261.97
731.88	261.53
732.21	261.10
732.54	260.64
732.87	260.20
733.20	259.77
733.53	259.41
733.86	259.02
734.19	258.66
734.52	258.30
734.85	257.96
735.18	257.57
735.51	257.18
735.84	256.85
736.17	256.55
736.50	256.16
736.83	255.90
737.16	255.54
737.49	255.22
737.82	254.88
738.15	254.57
738.48	254.25
738.81	253.92
739.14	253.59
739.47	253.24
739.80	252.94
740.13	252.62
740.46	252.25
740.79	251.94
741.12	251.64
741.45	251.27
741.78	250.96
742.11	250.68
742.44	250.40
742.77	250.09
743.10	249.77
743.43	249.45
743.75	249.09
744.08	248.96
744.41	248.68
744.74	248.43
745.07	248.15
745.40	247.88
745.73	247.65
746.06	247.35
746.39	247.15
746.71	246.84
747.04	246.57
747.37	246.32
747.70	246.06
748.03	245.75
748.36	245.55
748.68	245.31
749.01	245.04
749.34	244.82
749.67	244.58
750.00	244.34
750.33	244.15
750.65	243.91
750.98	243.56
751.31	243.33
751.64	243.07
751.97	242.88
752.29	242.67
752.62	242.42
752.95	242.21
753.28	241.96
753.60	241.79
753.93	241.61
754.26	241.40
754.59	241.14
754.91	240.93
755.24	240.69
755.57	240.43
755.90	240.22
756.22	239.97
756.55	239.76
756.88	239.58
757.20	239.34
757.53	239.14
757.86	238.95
758.19	238.79
758.51	238.61
758.84	238.39
759.17	238.20
759.49	238.04
759.82	237.91
760.15	237.75
760.47	237.55
760.80	237.33
761.13	237.22
761.45	237.09
761.78	236.97
762.11	236.82
762.43	236.69
762.76	236.55
763.08	236.44
763.41	236.30
763.74	236.14
764.06	236.01
764.39	235.86
764.71	235.73
765.04	235.58
765.37	235.46
765.69	235.29
766.02	235.15
766.34	235.02
766.67	234.89
767.00	234.82
767.32	234.77
767.65	234.74
767.97	234.61
768.30	234.48
768.62	234.33
768.95	234.20
769.27	234.10
769.60	234.01
769.92	233.88
770.25	233.74
770.57	233.60
770.90	233.52
771.22	233.40
771.55	233.29
771.87	233.17
772.20	233.06
772.52	233.07
772.85	233.09
773.17	232.99
773.50	232.90
773.82	232.75
774.15	232.60
774.47	232.45
774.80	232.37
775.12	232.29
775.45	232.24
775.77	232.18
776.09	232.07
776.42	231.99
776.74	231.91
777.07	231.85
777.39	231.79
777.72	231.68
778.04	231.62
778.36	231.56
778.69	231.52
779.01	231.46
779.33	231.33
779.66	231.16
779.98	231.09
780.31	231.00
780.63	230.98
780.95	230.95
781.28	230.90
781.60	230.81
781.92	230.74
782.25	230.67
782.57	230.58
782.89	230.53
783.22	230.43
783.54	230.36
783.86	230.30
784.19	230.23
784.51	230.20
784.83	230.16
785.16	230.08
785.48	230.02
785.80	230.00
786.12	229.94
786.45	229.88
786.77	229.84
787.09	229.79
787.42	229.72
787.74	229.67
788.06	229.62
788.38	229.56
788.71	229.51
789.03	229.47
789.35	229.47
789.67	229.42
789.99	229.41
790.32	229.37
790.64	229.36
790.96	229.39
791.28	229.33
791.61	229.26
791.93	229.23
792.25	229.21
792.57	229.22
792.89	229.14
793.21	229.13
793.54	229.09
793.86	229.05
794.18	229.02
794.50	228.95
794.82	228.94
795.14	228.90
795.47	228.88
795.79	228.84
796.11	228.76
796.43	228.72
796.75	228.70
797.07	228.70
797.39	228.67
797.71	228.57
798.04	228.50
798.36	228.46
798.68	228.46
799.00	228.42
799.32	228.35
799.64	228.35
799.96	228.27
800.28	228.23
800.60	228.19
800.92	228.15
801.24	228.10
801.56	228.06
801.89	228.06
802.21	228.01
802.53	227.94
802.85	227.90
803.17	227.90
803.49	227.83
803.81	227.75
804.13	227.70
804.45	227.68
804.77	227.67
805.09	227.66
805.41	227.59
805.73	227.52
806.05	227.46
806.37	227.44
806.69	227.41
807.01	227.37
807.33	227.35
807.65	227.27
807.97	227.32
808.28	227.26
808.60	227.19
808.92	227.16
809.24	227.18
809.56	227.14
809.88	227.08
810.20	227.08
810.52	227.09
810.84	227.03
811.16	226.95
811.48	226.91
811.80	226.88
812.12	226.85
812.43	226.81
812.75	226.77
813.07	226.70
813.39	226.67
813.71	226.67
814.03	226.61
814.35	226.59
814.67	226.51
814.98	226.50
815.30	226.49
815.62	226.48
815.94	226.45
816.26	226.48
816.58	226.43
816.89	226.40
817.21	226.34
817.53	226.33
817.85	226.32
818.17	226.30
818.48	226.25
818.80	226.24
819.12	226.25
819.44	226.21
819.76	226.17
820.07	226.15
820.39	226.11
820.71	226.13
821.03	226.13
821.34	226.12
821.66	226.11
821.98	226.10
822.30	226.09
822.61	226.14
822.93	226.08
823.25	226.08
823.57	226.06
823.88	226.08
824.20	226.09
824.52	226.12
824.83	226.11
825.15	226.11
825.47	226.11
825.79	226.10
826.10	226.10
826.42	226.12
826.74	226.13
827.05	226.13
827.37	226.15
827.69	226.14
828.00	226.17
828.32	226.12
828.64	226.12
828.95	226.15
829.27	226.11
829.58	226.14
829.90	226.15
830.22	226.20
830.53	226.17
830.85	226.16
831.17	226.14
831.48	226.13
831.80	226.14
832.11	226.16
832.43	226.13
832.75	226.15
833.06	226.22
833.38	226.22
833.69	226.21
834.01	226.23
834.32	226.22
834.64	226.17
834.96	226.20
835.27	226.24
835.59	226.19
835.90	226.16
836.22	226.14
836.53	226.14
836.85	226.13
837.16	226.23
837.48	226.22
837.79	226.24
838.11	226.27
838.42	226.26
838.74	226.24
839.05	226.25
839.37	226.24
839.68	226.15
840.00	226.14
840.31	226.17
840.63	226.12
840.94	226.10
841.26	226.10
841.57	226.08
841.88	226.04
842.20	226.03
842.51	226.04
842.83	226.04
843.14	226.12
843.46	226.11
843.77	226.06
844.08	226.03
844.40	225.99
844.71	225.97
845.03	225.96
845.34	225.94
845.65	225.92
845.97	225.92
846.28	225.93
846.60	225.93
846.91	225.90
847.22	225.91
847.54	225.92
847.85	225.93
848.16	225.91
848.48	225.91
848.79	225.91
849.10	225.89
849.42	225.87
849.73	225.76
850.04	225.70
850.36	225.64
850.67	225.62
850.98	225.66
851.30	225.64
851.61	225.60
851.92	225.59
852.23	225.62
852.55	225.60
852.86	225.56
853.17	225.55
853.49	225.55
853.80	225.55
854.11	225.57
854.42	225.57
854.74	225.57
855.05	225.53
855.36	225.48
855.67	225.48
855.99	225.47
856.30	225.55
856.61	225.57
856.92	225.53
857.23	225.56
857.55	225.48
857.86	225.49
858.17	225.55
858.48	225.53
858.79	225.51
859.11	225.52
859.42	225.52
859.73	225.50
860.04	225.48
860.35	225.41
860.66	225.37
860.98	225.35
861.29	225.37
861.60	225.38
861.91	225.40
862.22	225.38
862.53	225.35
862.84	225.25
863.16	225.31
863.47	225.29
863.78	225.24
864.09	225.27
864.40	225.27
864.71	225.24
865.02	225.23
865.33	225.21
865.64	225.17
865.95	225.19
866.27	225.28
866.58	225.29
866.89	225.33
867.20	225.34
867.51	225.32
867.82	225.31
868.13	225.35
868.44	225.33
868.75	225.35
869.06	225.38
869.37	225.40
869.68	225.33
869.99	225.38
870.30	225.39
870.61	225.40
870.92	225.40
871.23	225.39
871.54	225.42
871.85	225.43
872.16	225.47
872.47	225.46
872.78	225.36
873.09	225.36
873.40	225.38
873.71	225.38
874.02	225.38
874.33	225.38
874.64	225.34
874.95	225.37
875.26	225.34
875.56	225.33
875.87	225.33
876.18	225.33
876.49	225.43
876.80	225.47
877.11	225.45
877.42	225.48
877.73	225.50
878.04	225.50
878.35	225.52
878.66	225.52
878.96	225.52
879.27	225.53
879.58	225.54
879.89	225.49
880.20	225.52
880.51	225.55
880.82	225.52
881.12	225.52
881.43	225.49
881.74	225.49
882.05	225.49
882.36	225.49
882.67	225.49
882.97	225.37
883.28	225.34
883.59	225.36
883.90	225.31
884.21	225.30
884.51	225.28
884.82	225.26
885.13	225.25
885.44	225.22
885.74	225.22
886.05	225.17
886.36	225.19
886.67	225.14
886.98	225.19
887.28	225.17
887.59	225.16
887.90	225.18
888.20	225.15
888.51	225.16
888.82	225.11
889.13	225.10
889.43	225.16
889.74	225.14
890.05	225.13
890.35	225.14
890.66	225.09
890.97	225.09
891.28	225.06
891.58	225.05
891.89	225.05
892.20	225.02
892.50	225.03
892.81	225.00
893.12	225.01
893.42	224.93
893.73	224.97
894.04	224.98
894.34	224.97
894.65	224.96
894.95	224.95
895.26	225.01
895.57	225.07
895.87	225.00
896.18	225.01
896.48	224.98
896.79	224.96
897.10	225.00
897.40	224.98
897.71	225.00
898.01	225.01
898.32	225.01
898.63	225.04
898.93	225.05
899.24	225.07
899.54	225.04
899.85	225.04
900.15	225.00
900.46	225.00
900.76	225.02
901.07	224.99
901.38	224.99
901.68	224.98
901.99	224.91
902.29	224.89
902.60	224.91
902.90	224.93
903.21	224.97
903.51	224.97
903.82	225.02
904.12	225.00
904.43	225.00
904.73	225.04
905.03	225.04
905.34	225.15
905.64	225.14
905.95	225.17
906.25	225.17
906.56	225.18
906.86	225.17
907.17	225.15
907.47	225.17
907.77	225.15
908.08	225.15
908.38	225.15
908.69	225.20
908.99	225.20
909.30	225.18
909.60	225.15
909.90	225.15
910.21	225.10
910.51	225.11
910.81	225.10
911.12	225.08
911.42	225.10
911.73	224.99
912.03	225.01
912.33	225.03
912.64	225.03
912.94	225.03
913.24	225.04
913.55	225.07
913.85	225.08
914.15	225.11
914.46	225.13
914.76	225.13
915.06	225.12
915.37	225.11
915.67	225.14
915.97	225.14
916.27	225.09
916.58	225.12
916.88	225.13
917.18	225.14
917.49	225.22
917.79	225.18
918.09	225.20
918.39	225.24
918.70	225.22
919.00	225.23
919.30	225.27
919.60	225.26
919.91	225.23
920.21	225.22
920.51	225.21
920.81	225.16
921.12	225.19
921.42	225.16
921.72	225.14
922.02	225.12
922.32	225.14
922.63	225.18
922.93	225.24
923.23	225.22
923.53	225.20
923.83	225.12
924.13	225.15
924.44	225.15
924.74	225.15
925.04	225.17
925.34	225.15
925.64	225.12
925.94	225.13
926.24	225.18
926.55	225.18
926.85	225.20
927.15	225.23
927.45	225.19
927.75	225.18
928.05	225.23
928.35	225.24
928.65	225.27
928.95	225.27
929.26	225.20
929.56	225.20
929.86	225.21
930.16	225.19
930.46	225.15
930.76	225.14
931.06	225.10
931.36	225.03
931.66	225.06
931.96	225.06
932.26	225.06
932.56	224.98
932.86	224.99
933.16	224.97
933.46	224.96
933.76	224.95
934.06	224.99
934.36	224.99
934.66	224.94
934.96	224.92
935.26	224.95
935.56	224.98
935.86	225.00
936.16	224.98
936.46	224.96
936.76	224.99
937.06	224.94
937.36	224.92
937.66	224.95
937.96	224.93
938.26	224.90
938.56	224.85
938.86	224.90
939.16	224.88
939.46	224.89
939.76	224.86
940.06	224.82
940.35	224.79
940.65	224.74
940.95	224.75
941.25	224.71
941.55	224.66
941.85	224.64
942.15	224.62
942.45	224.68
942.75	224.70
943.04	224.67
943.34	224.72
943.64	224.73
943.94	224.72
944.24	224.71
944.54	224.72
944.84	224.74
945.13	224.70
945.43	224.70
945.73	224.68
946.03	224.68
946.33	224.71
946.62	224.71
946.92	224.71
947.22	224.71
947.52	224.72
947.82	224.73
948.11	224.73
948.41	224.72
948.71	224.66
949.01	224.67
949.31	224.65
949.60	224.64
949.90	224.64
950.20	224.64
950.50	224.63
950.79	224.61
951.09	224.64
951.39	224.66
951.69	224.66
951.98	224.72
952.28	224.73
952.58	224.77
952.87	224.80
953.17	224.84
953.47	224.84
953.76	224.82
954.06	224.80
954.36	224.76
954.66	224.75
954.95	224.77
955.25	224.79
955.55	224.83
955.84	224.81
956.14	224.83
956.44	224.85
956.73	224.86
957.03	224.90
957.32	224.90
957.62	224.88
957.92	224.94
958.21	224.96
958.51	225.06
958.81	225.04
959.10	225.01
959.40	225.03
959.69	225.02
959.99	225.08
960.29	225.08
960.58	225.08
960.88	225.12
961.17	225.12
961.47	225.10
961.76	225.09
962.06	225.10
962.36	225.07
962.65	225.06
962.95	225.05
963.24	225.04
963.54	225.04
963.83	225.05
964.13	225.04
964.42	224.97
964.72	224.90
965.01	224.90
965.31	224.91
965.60	224.85
965.90	224.92
966.19	224.91
966.49	224.91
966.78	224.94
967.08	224.95
967.37	224.98
967.67	224.98
967.96	224.97
968.26	225.01
968.55	225.04
968.85	225.05
969.14	225.08
969.43	225.06
969.73	225.06
970.02	225.05
970.32	225.02
970.61	225.04
970.91	224.99
971.20	225.01
971.49	225.00
971.79	225.03
972.08	224.97
972.38	224.97
972.67	224.97
972.96	224.97
973.26	224.93
973.55	224.95
973.85	224.94
974.14	224.96
974.43	224.92
974.73	224.90
975.02	224.85
975.31	224.85
975.61	224.86
975.90	224.83
976.19	224.84
976.49	224.87
976.78	224.86
977.07	224.88
977.37	224.89
977.66	224.91
977.95	224.87
978.24	224.84
978.54	224.85
978.83	224.83
979.12	224.85
979.42	224.84
979.71	224.81
980.00	224.79
980.29	224.79
980.59	224.81
980.88	224.84
981.17	224.84
981.46	224.84
981.76	224.87
982.05	224.87
982.34	224.86
982.63	224.84
982.93	224.82
983.22	224.84
983.51	224.82
983.80	224.81
984.09	224.88
984.39	224.90
984.68	224.88
984.97	224.91
985.26	224.88
985.55	224.90
985.85	224.86
986.14	224.88
986.43	224.89
986.72	224.87
987.01	224.82
987.30	224.84
987.59	224.85
987.89	224.84
988.18	224.83
988.47	224.82
988.76	224.83
989.05	224.85
989.34	224.82
989.63	224.83
989.92	224.82
990.22	224.81
990.51	224.79
990.80	224.76
991.09	224.77
991.38	224.80
991.67	224.78
991.96	224.81
992.25	224.81
992.54	224.79
992.83	224.78
993.12	224.83
993.41	224.84
993.70	224.84
993.99	224.87
994.28	224.89
994.58	224.91
994.87	224.90
995.16	224.88
995.45	224.88
995.74	224.84
996.03	224.88
996.32	224.87
996.61	224.90
996.90	224.95
997.19	224.92
997.48	224.90
997.77	224.90
998.06	224.86
998.34	224.87
998.63	224.85
998.92	224.88
999.21	224.86
999.50	224.85
999.79	224.84
1000.08	224.82
1000.37	224.85
1000.66	224.84
1000.95	224.89
1001.24	224.95
1001.53	224.98
1001.82	225.01
1002.11	224.99
1002.40	225.01
1002.68	225.05
1002.97	225.10
1003.26	225.13
1003.55	225.12
1003.84	225.10
1004.13	225.16
1004.42	225.16
1004.71	225.17
1004.99	225.17
1005.28	225.20
1005.57	225.19
1005.86	225.18
1006.15	225.16
1006.44	225.12
1006.72	225.12
1007.01	225.11
1007.30	225.07
1007.59	225.04
1007.88	225.04
1008.17	225.01
1008.45	225.01
1008.74	224.96
1009.03	224.91
1009.32	224.90
1009.60	224.92
1009.89	224.94
1010.18	224.91
1010.47	224.88
1010.76	224.89
1011.04	224.91
1011.33	224.92
1011.62	224.94
1011.91	224.93
1012.19	224.94
1012.48	224.96
1012.77	224.97
1013.05	224.98
1013.34	224.96
1013.63	224.96
1013.92	224.93
1014.20	224.94
1014.49	224.92
1014.78	224.92
1015.06	224.89
1015.35	224.90
1015.64	224.90
1015.92	224.93
1016.21	224.94
1016.50	224.96
1016.78	224.94
1017.07	224.89
1017.36	224.87
1017.64	224.84
1017.93	224.88
1018.22	224.88
1018.50	224.87
1018.79	224.84
1019.08	224.80
1019.36	224.82
1019.65	224.78
1019.93	224.82
1020.22	224.83
1020.51	224.87
1020.79	224.85
1021.08	225.15
1021.36	224.66
1021.65	224.69
1021.94	224.61
1022.22	224.83
1022.51	224.13
1022.79	225.02
1023.08	224.86
1023.36	225.85
1023.65	224.47
>>>>>End Processed Spectral Data<<<<<
