SpectraSuite Data File
++++++++++++++++++++++++++++++++++++
Date: Fri Feb 01 15:52:27 EST 2013
User: group
Dark Spectrum Present: No
Reference Spectrum Present: No
Number of Sampled Component Spectra: 1
Spectrometers: USB2E7196
Integration Time (usec): 35000 (USB2E7196)
Spectra Averaged: 100 (USB2E7196)
Boxcar Smoothing: 10 (USB2E7196)
Correct for Electrical Dark: No (USB2E7196)
Strobe/Lamp Enabled: No (USB2E7196)
Correct for Detector Non-linearity: No (USB2E7196)
Correct for Stray Light: No (USB2E7196)
Number of Pixels in Processed Spectrum: 2048
>>>>>Begin Processed Spectral Data<<<<<
339.09	0.00
339.48	215.00
339.86	216.63
340.24	218.17
340.63	218.79
341.01	221.99
341.39	221.89
341.78	222.70
342.16	224.63
342.54	224.33
342.93	213.31
343.31	224.08
343.69	224.63
344.07	225.06
344.46	225.51
344.84	225.91
345.22	226.15
345.60	226.36
345.99	226.56
346.37	226.68
346.75	226.82
347.13	226.87
347.52	226.89
347.90	226.95
348.28	227.00
348.66	227.04
349.05	227.07
349.43	227.05
349.81	227.12
350.19	227.14
350.57	227.23
350.96	227.31
351.34	227.38
351.72	227.45
352.10	227.57
352.48	227.60
352.87	227.66
353.25	227.74
353.63	227.83
354.01	227.90
354.39	227.98
354.77	228.04
355.15	228.14
355.54	228.22
355.92	228.29
356.30	228.35
356.68	228.47
357.06	228.51
357.44	228.60
357.82	228.63
358.20	228.71
358.58	228.77
358.97	228.85
359.35	228.94
359.73	229.01
360.11	229.09
360.49	229.12
360.87	229.16
361.25	229.19
361.63	229.27
362.01	229.31
362.39	229.31
362.77	229.37
363.15	229.38
363.53	229.37
363.91	229.37
364.29	229.39
364.67	229.32
365.05	229.29
365.43	229.28
365.81	229.29
366.19	229.34
366.57	229.35
366.95	229.33
367.33	229.29
367.71	229.26
368.09	229.23
368.47	229.23
368.85	229.20
369.23	229.17
369.61	229.10
369.99	229.09
370.37	229.08
370.75	229.05
371.13	228.97
371.51	228.91
371.89	228.88
372.27	228.80
372.65	228.78
373.03	228.77
373.41	228.71
373.78	228.63
374.16	228.50
374.54	228.44
374.92	228.35
375.30	228.33
375.68	228.27
376.06	228.21
376.44	228.17
376.82	228.07
377.19	228.03
377.57	227.95
377.95	227.85
378.33	227.81
378.71	227.71
379.09	227.67
379.47	227.63
379.84	227.54
380.22	227.48
380.60	227.39
380.98	227.33
381.36	227.29
381.73	227.22
382.11	227.21
382.49	227.15
382.87	227.10
383.25	226.99
383.62	227.03
384.00	226.95
384.38	226.85
384.76	226.82
385.13	226.79
385.51	226.78
385.89	226.73
386.27	226.64
386.64	226.63
387.02	226.60
387.40	226.56
387.78	226.53
388.15	226.51
388.53	226.48
388.91	226.43
389.29	226.37
389.66	226.38
390.04	226.32
390.42	226.29
390.79	226.29
391.17	226.28
391.55	226.15
391.92	226.15
392.30	226.18
392.68	226.15
393.05	226.16
393.43	226.18
393.81	226.19
394.18	226.23
394.56	226.24
394.94	226.26
395.31	226.30
395.69	226.37
396.06	226.43
396.44	226.51
396.82	226.55
397.19	226.65
397.57	226.67
397.95	226.72
398.32	226.75
398.70	226.80
399.07	226.93
399.45	227.01
399.82	227.12
400.20	227.19
400.58	227.28
400.95	227.32
401.33	227.37
401.70	227.55
402.08	227.62
402.45	227.69
402.83	227.81
403.20	227.90
403.58	227.99
403.95	228.10
404.33	228.23
404.71	228.35
405.08	228.53
405.46	228.67
405.83	228.82
406.21	228.98
406.58	229.14
406.96	229.25
407.33	229.43
407.70	229.60
408.08	229.87
408.45	230.11
408.83	230.34
409.20	230.57
409.58	230.75
409.95	231.04
410.33	231.33
410.70	231.56
411.08	231.87
411.45	232.17
411.82	232.46
412.20	232.78
412.57	233.22
412.95	233.49
413.32	233.90
413.69	234.35
414.07	234.79
414.44	235.25
414.82	235.72
415.19	236.25
415.56	236.79
415.94	237.32
416.31	237.92
416.68	238.54
417.06	239.25
417.43	239.88
417.81	240.61
418.18	241.35
418.55	242.21
418.93	243.05
419.30	243.96
419.67	244.92
420.04	245.86
420.42	246.81
420.79	248.03
421.16	249.17
421.54	250.34
421.91	251.56
422.28	252.78
422.66	254.12
423.03	255.42
423.40	256.74
423.77	258.18
424.15	259.63
424.52	261.13
424.89	262.72
425.26	264.29
425.64	265.76
426.01	267.39
426.38	269.03
426.75	270.71
427.13	272.44
427.50	274.19
427.87	276.08
428.24	277.90
428.61	279.61
428.99	281.55
429.36	283.65
429.73	285.72
430.10	287.76
430.47	289.82
430.85	291.98
431.22	294.22
431.59	296.56
431.96	298.77
432.33	301.24
432.70	303.66
433.08	306.47
433.45	309.12
433.82	311.70
434.19	314.58
434.56	317.36
434.93	320.00
435.30	322.65
435.68	325.56
436.05	328.43
436.42	331.22
436.79	333.77
437.16	336.49
437.53	339.25
437.90	342.08
438.27	344.83
438.64	347.62
439.01	350.23
439.38	352.44
439.75	354.61
440.13	357.11
440.50	359.38
440.87	361.24
441.24	363.14
441.61	365.33
441.98	366.79
442.35	368.67
442.72	370.54
443.09	372.37
443.46	373.34
443.83	373.91
444.20	374.44
444.57	375.24
444.94	375.50
445.31	375.91
445.68	376.26
446.05	376.32
446.42	375.96
446.79	375.50
447.16	375.09
447.53	374.81
447.90	373.65
448.27	372.53
448.64	370.96
449.01	369.85
449.37	367.82
449.74	365.95
450.11	363.67
450.48	361.17
450.85	358.60
451.22	356.46
451.59	354.43
451.96	352.46
452.33	349.86
452.70	347.50
453.07	344.64
453.43	341.75
453.80	338.96
454.17	336.26
454.54	333.74
454.91	331.03
455.28	328.33
455.65	325.81
456.02	323.36
456.38	321.20
456.75	318.54
457.12	316.34
457.49	314.15
457.86	311.98
458.23	310.15
458.59	308.10
458.96	306.00
459.33	304.20
459.70	302.34
460.07	300.84
460.43	299.13
460.80	297.54
461.17	296.09
461.54	294.62
461.91	293.20
462.27	291.78
462.64	290.53
463.01	289.19
463.38	287.95
463.74	286.60
464.11	285.46
464.48	284.46
464.85	283.35
465.21	282.47
465.58	281.53
465.95	280.44
466.32	279.56
466.68	278.70
467.05	277.78
467.42	276.92
467.78	275.98
468.15	275.11
468.52	274.41
468.88	273.53
469.25	272.78
469.62	272.15
469.98	271.44
470.35	270.82
470.72	270.23
471.08	269.57
471.45	269.01
471.82	268.44
472.18	267.81
472.55	267.39
472.92	266.90
473.28	266.44
473.65	265.98
474.02	265.54
474.38	265.15
474.75	264.86
475.11	264.53
475.48	264.29
475.85	264.06
476.21	263.85
476.58	263.67
476.94	263.50
477.31	263.34
477.67	263.21
478.04	263.09
478.41	263.01
478.77	263.08
479.14	263.02
479.50	263.05
479.87	263.11
480.23	263.16
480.60	263.20
480.96	263.30
481.33	263.53
481.69	263.72
482.06	263.89
482.42	264.04
482.79	264.28
483.15	264.58
483.52	264.93
483.88	265.30
484.25	265.73
484.61	266.21
484.98	266.67
485.34	267.25
485.71	267.79
486.07	268.40
486.44	268.93
486.80	269.65
487.17	270.40
487.53	271.21
487.90	272.04
488.26	272.96
488.62	273.96
488.99	274.91
489.35	275.95
489.72	277.10
490.08	278.31
490.44	279.55
490.81	280.88
491.17	282.24
491.54	283.68
491.90	285.21
492.26	286.83
492.63	288.55
492.99	290.31
493.36	292.26
493.72	294.31
494.08	296.39
494.45	298.59
494.81	300.91
495.17	303.35
495.54	305.99
495.90	308.68
496.26	311.46
496.63	314.41
496.99	317.55
497.35	320.78
497.72	324.21
498.08	327.74
498.44	331.40
498.80	335.36
499.17	339.45
499.53	343.63
499.89	347.96
500.26	352.48
500.62	357.14
500.98	362.09
501.34	367.15
501.71	372.54
502.07	378.02
502.43	383.64
502.79	389.43
503.16	395.53
503.52	401.78
503.88	408.21
504.24	414.83
504.60	421.72
504.97	428.87
505.33	436.21
505.69	443.93
506.05	451.68
506.41	459.50
506.78	467.69
507.14	476.09
507.50	484.87
507.86	493.90
508.22	503.10
508.59	512.29
508.95	521.88
509.31	531.67
509.67	541.74
510.03	552.04
510.39	562.62
510.75	573.37
511.12	584.35
511.48	595.65
511.84	607.14
512.20	618.62
512.56	630.60
512.92	642.73
513.28	655.03
513.64	667.58
514.00	680.34
514.37	693.25
514.73	706.36
515.09	719.33
515.45	732.63
515.81	746.21
516.17	760.22
516.53	774.31
516.89	788.47
517.25	802.62
517.61	817.11
517.97	831.55
518.33	845.97
518.69	860.75
519.05	875.75
519.41	890.92
519.77	906.46
520.13	921.85
520.49	937.26
520.85	952.70
521.21	968.45
521.57	984.64
521.93	1000.35
522.29	1016.78
522.65	1033.03
523.01	1049.26
523.37	1065.30
523.73	1081.58
524.09	1097.68
524.45	1114.04
524.81	1130.70
525.17	1147.51
525.53	1164.47
525.89	1181.38
526.25	1198.17
526.61	1214.52
526.97	1231.22
527.33	1247.77
527.68	1264.43
528.04	1280.99
528.40	1297.63
528.76	1314.55
529.12	1331.20
529.48	1348.03
529.84	1363.92
530.20	1380.66
530.56	1397.67
530.91	1415.03
531.27	1431.66
531.63	1448.28
531.99	1464.81
532.35	1480.70
532.71	1496.47
533.07	1512.55
533.42	1528.53
533.78	1544.49
534.14	1560.76
534.50	1576.12
534.86	1591.90
535.21	1606.98
535.57	1622.80
535.93	1638.17
536.29	1652.99
536.65	1668.01
537.00	1682.83
537.36	1698.13
537.72	1712.60
538.08	1726.89
538.44	1740.70
538.79	1754.56
539.15	1768.11
539.51	1781.86
539.87	1796.21
540.22	1809.97
540.58	1823.86
540.94	1837.14
541.29	1850.08
541.65	1862.60
542.01	1875.76
542.37	1888.05
542.72	1900.46
543.08	1912.11
543.44	1924.55
543.79	1935.64
544.15	1946.56
544.51	1957.97
544.87	1968.93
545.22	1979.70
545.58	1989.84
545.94	1999.59
546.29	2009.59
546.65	2019.36
547.01	2028.60
547.36	2037.31
547.72	2045.77
548.07	2053.52
548.43	2061.55
548.79	2069.65
549.14	2077.16
549.50	2084.54
549.86	2092.10
550.21	2099.44
550.57	2106.71
550.92	2113.30
551.28	2120.52
551.64	2127.56
551.99	2134.18
552.35	2140.33
552.70	2146.56
553.06	2152.69
553.41	2159.01
553.77	2164.80
554.13	2170.95
554.48	2177.12
554.84	2182.52
555.19	2187.80
555.55	2192.93
555.90	2197.45
556.26	2202.20
556.61	2207.20
556.97	2211.30
557.32	2215.56
557.68	2219.62
558.03	2223.85
558.39	2227.60
558.74	2232.09
559.10	2235.88
559.45	2239.60
559.81	2243.94
560.16	2247.76
560.52	2250.94
560.87	2254.34
561.23	2257.13
561.58	2260.08
561.94	2262.49
562.29	2264.94
562.64	2267.60
563.00	2270.26
563.35	2273.78
563.71	2276.89
564.06	2280.06
564.42	2283.14
564.77	2285.63
565.12	2287.96
565.48	2290.03
565.83	2291.87
566.19	2293.24
566.54	2294.24
566.89	2295.27
567.25	2295.80
567.60	2296.98
567.96	2298.63
568.31	2299.56
568.66	2300.71
569.02	2301.20
569.37	2301.60
569.72	2302.38
570.08	2302.58
570.43	2302.57
570.78	2301.92
571.14	2300.39
571.49	2299.04
571.84	2298.71
572.20	2297.49
572.55	2296.36
572.90	2294.81
573.26	2293.45
573.61	2291.79
573.96	2290.01
574.31	2287.11
574.67	2284.05
575.02	2280.43
575.37	2277.03
575.72	2273.14
576.08	2269.79
576.43	2266.37
576.78	2262.61
577.13	2259.58
577.49	2256.43
577.84	2252.86
578.19	2249.27
578.54	2245.61
578.90	2241.32
579.25	2235.75
579.60	2230.85
579.95	2225.88
580.30	2220.79
580.66	2215.46
581.01	2210.49
581.36	2205.54
581.71	2201.27
582.06	2196.78
582.42	2192.26
582.77	2187.03
583.12	2182.40
583.47	2177.53
583.82	2172.51
584.17	2167.32
584.53	2161.70
584.88	2156.04
585.23	2150.31
585.58	2144.74
585.93	2139.34
586.28	2134.57
586.63	2129.34
586.98	2124.21
587.34	2119.53
587.69	2114.60
588.04	2109.23
588.39	2103.46
588.74	2097.10
589.09	2091.01
589.44	2084.32
589.79	2078.46
590.14	2072.88
590.49	2066.45
590.84	2060.14
591.19	2054.26
591.54	2047.70
591.89	2040.35
592.25	2033.55
592.60	2026.40
592.95	2018.80
593.30	2011.42
593.65	2003.77
594.00	1996.81
594.35	1989.63
594.70	1981.66
595.05	1974.38
595.40	1967.23
595.75	1959.81
596.10	1953.49
596.45	1946.80
596.80	1940.71
597.15	1933.95
597.50	1926.79
597.85	1920.31
598.19	1913.64
598.54	1906.38
598.89	1899.84
599.24	1893.96
599.59	1887.18
599.94	1880.94
600.29	1874.54
600.64	1868.07
600.99	1860.85
601.34	1854.02
601.69	1847.12
602.04	1840.24
602.39	1832.92
602.74	1826.13
603.08	1819.39
603.43	1812.62
603.78	1805.29
604.13	1797.89
604.48	1790.57
604.83	1783.70
605.18	1776.57
605.53	1768.46
605.87	1760.69
606.22	1753.37
606.57	1745.47
606.92	1738.38
607.27	1731.23
607.62	1724.26
607.96	1716.80
608.31	1709.92
608.66	1702.39
609.01	1694.65
609.36	1687.06
609.70	1679.03
610.05	1670.87
610.40	1663.11
610.75	1654.77
611.10	1647.07
611.44	1638.82
611.79	1630.92
612.14	1622.24
612.49	1613.25
612.83	1604.98
613.18	1596.79
613.53	1588.78
613.88	1580.19
614.22	1571.85
614.57	1563.21
614.92	1555.25
615.27	1547.73
615.61	1539.46
615.96	1531.39
616.31	1523.95
616.65	1516.49
617.00	1509.02
617.35	1501.45
617.70	1493.18
618.04	1484.72
618.39	1476.52
618.74	1468.75
619.08	1460.43
619.43	1452.88
619.78	1445.91
620.12	1438.59
620.47	1431.06
620.82	1422.80
621.16	1415.47
621.51	1407.80
621.85	1400.19
622.20	1391.61
622.55	1383.22
622.89	1375.34
623.24	1367.73
623.59	1360.33
623.93	1352.88
624.28	1345.64
624.62	1338.09
624.97	1330.96
625.32	1324.24
625.66	1317.25
626.01	1310.13
626.35	1302.65
626.70	1294.91
627.04	1287.08
627.39	1279.43
627.73	1272.02
628.08	1265.15
628.43	1257.81
628.77	1250.45
629.12	1242.82
629.46	1235.73
629.81	1228.40
630.15	1221.13
630.50	1213.78
630.84	1205.49
631.19	1197.57
631.53	1189.98
631.88	1182.36
632.22	1174.77
632.57	1167.43
632.91	1159.88
633.26	1152.48
633.60	1145.18
633.95	1138.16
634.29	1131.26
634.64	1124.61
634.98	1117.24
635.32	1110.04
635.67	1103.38
636.01	1096.72
636.36	1090.00
636.70	1083.52
637.05	1076.94
637.39	1070.65
637.73	1064.02
638.08	1058.17
638.42	1052.14
638.77	1045.80
639.11	1039.26
639.45	1032.82
639.80	1026.14
640.14	1019.70
640.49	1013.23
640.83	1006.85
641.17	1000.62
641.52	994.25
641.86	987.84
642.20	981.93
642.55	975.66
642.89	969.21
643.23	962.65
643.58	956.91
643.92	950.72
644.26	944.68
644.61	938.63
644.95	932.58
645.29	926.00
645.64	919.29
645.98	912.95
646.32	907.19
646.66	901.12
647.01	895.42
647.35	889.70
647.69	883.81
648.04	878.33
648.38	872.43
648.72	866.38
649.06	860.26
649.41	854.42
649.75	848.49
650.09	842.54
650.43	836.77
650.78	830.57
651.12	824.64
651.46	818.92
651.80	813.11
652.14	807.69
652.49	802.25
652.83	797.13
653.17	791.42
653.51	785.64
653.85	780.26
654.20	774.58
654.54	768.53
654.88	762.80
655.22	756.88
655.56	751.28
655.90	745.91
656.25	740.72
656.59	735.30
656.93	730.17
657.27	725.00
657.61	719.60
657.95	714.51
658.29	709.40
658.64	704.10
658.98	698.84
659.32	693.43
659.66	688.26
660.00	682.87
660.34	677.90
660.68	672.99
661.02	667.95
661.36	663.19
661.70	658.71
662.05	654.44
662.39	650.12
662.73	645.66
663.07	641.21
663.41	636.77
663.75	632.30
664.09	627.71
664.43	623.29
664.77	619.15
665.11	614.90
665.45	610.73
665.79	606.65
666.13	602.50
666.47	598.43
666.81	594.26
667.15	590.12
667.49	586.25
667.83	582.46
668.17	578.57
668.51	574.50
668.85	570.46
669.19	566.59
669.53	562.75
669.87	558.86
670.21	555.17
670.55	551.44
670.89	548.05
671.23	544.71
671.57	541.27
671.91	537.69
672.25	534.19
672.58	530.65
672.92	527.29
673.26	524.07
673.60	520.93
673.94	517.83
674.28	514.94
674.62	511.91
674.96	508.80
675.30	505.87
675.64	502.95
675.97	500.23
676.31	497.31
676.65	494.37
676.99	491.66
677.33	488.85
677.67	486.07
678.01	482.99
678.34	479.96
678.68	477.01
679.02	474.21
679.36	471.45
679.70	468.74
680.04	465.95
680.37	463.11
680.71	460.28
681.05	457.65
681.39	454.95
681.73	452.32
682.06	449.77
682.40	447.20
682.74	444.71
683.08	442.16
683.42	439.58
683.75	437.09
684.09	434.51
684.43	431.99
684.77	429.48
685.10	427.16
685.44	424.85
685.78	422.60
686.12	420.38
686.45	418.13
686.79	415.83
687.13	413.66
687.46	411.51
687.80	409.37
688.14	407.19
688.48	405.11
688.81	402.85
689.15	400.70
689.49	398.56
689.82	396.49
690.16	394.39
690.50	392.50
690.83	390.56
691.17	388.60
691.51	386.72
691.84	384.89
692.18	382.97
692.52	380.96
692.85	379.08
693.19	377.18
693.52	375.33
693.86	373.52
694.20	371.77
694.53	369.98
694.87	368.09
695.21	366.29
695.54	364.53
695.88	362.85
696.21	361.10
696.55	359.45
696.88	357.76
697.22	356.08
697.56	354.42
697.89	352.76
698.23	351.18
698.56	349.56
698.90	347.99
699.23	346.35
699.57	344.86
699.90	343.28
700.24	341.75
700.58	340.14
700.91	338.67
701.25	337.18
701.58	335.81
701.92	334.49
702.25	333.12
702.59	331.70
702.92	330.39
703.26	329.09
703.59	327.81
703.93	326.60
704.26	325.39
704.60	324.06
704.93	322.80
705.26	321.53
705.60	320.39
705.93	319.21
706.27	318.17
706.60	317.09
706.94	316.03
707.27	314.90
707.61	313.89
707.94	312.83
708.27	311.75
708.61	310.67
708.94	309.66
709.28	308.69
709.61	307.75
709.94	306.79
710.28	305.82
710.61	304.86
710.95	303.80
711.28	302.86
711.61	301.97
711.95	301.04
712.28	300.11
712.61	299.11
712.95	298.19
713.28	297.32
713.61	296.46
713.95	295.56
714.28	294.72
714.61	293.86
714.95	293.00
715.28	292.12
715.61	291.25
715.95	290.37
716.28	289.52
716.61	288.69
716.95	287.89
717.28	287.13
717.61	286.34
717.94	285.60
718.28	284.84
718.61	284.08
718.94	283.36
719.27	282.68
719.61	282.05
719.94	281.41
720.27	280.65
720.60	279.96
720.94	279.37
721.27	278.80
721.60	278.23
721.93	277.67
722.27	277.14
722.60	276.53
722.93	275.96
723.26	275.42
723.59	274.84
723.93	274.29
724.26	273.72
724.59	273.17
724.92	272.62
725.25	272.09
725.59	271.57
725.92	271.05
726.25	270.51
726.58	270.01
726.91	269.46
727.24	269.01
727.57	268.55
727.91	268.02
728.24	267.52
728.57	267.04
728.90	266.57
729.23	266.06
729.56	265.67
729.89	265.20
730.22	264.72
730.55	264.25
730.89	263.74
731.22	263.28
731.55	262.85
731.88	262.42
732.21	262.02
732.54	261.58
732.87	261.16
733.20	260.77
733.53	260.39
733.86	260.02
734.19	259.64
734.52	259.23
734.85	258.90
735.18	258.47
735.51	258.13
735.84	257.77
736.17	257.45
736.50	257.03
736.83	256.83
737.16	256.47
737.49	256.16
737.82	255.86
738.15	255.53
738.48	255.21
738.81	254.92
739.14	254.57
739.47	254.25
739.80	253.98
740.13	253.71
740.46	253.36
740.79	253.04
741.12	252.72
741.45	252.41
741.78	252.08
742.11	251.80
742.44	251.46
742.77	251.16
743.10	250.87
743.43	250.56
743.75	250.16
744.08	250.04
744.41	249.78
744.74	249.48
745.07	249.20
745.40	248.93
745.73	248.68
746.06	248.40
746.39	248.18
746.71	247.90
747.04	247.60
747.37	247.34
747.70	247.09
748.03	246.85
748.36	246.63
748.68	246.37
749.01	246.14
749.34	245.91
749.67	245.67
750.00	245.46
750.33	245.32
750.65	245.08
750.98	244.74
751.31	244.50
751.64	244.33
751.97	244.19
752.29	243.97
752.62	243.71
752.95	243.54
753.28	243.26
753.60	243.06
753.93	242.88
754.26	242.71
754.59	242.48
754.91	242.25
755.24	242.07
755.57	241.89
755.90	241.67
756.22	241.46
756.55	241.25
756.88	241.03
757.20	240.81
757.53	240.63
757.86	240.45
758.19	240.30
758.51	240.12
758.84	239.88
759.17	239.71
759.49	239.57
759.82	239.44
760.15	239.33
760.47	239.18
760.80	239.01
761.13	238.90
761.45	238.77
761.78	238.63
762.11	238.49
762.43	238.36
762.76	238.24
763.08	238.13
763.41	238.03
763.74	237.91
764.06	237.75
764.39	237.61
764.71	237.48
765.04	237.34
765.37	237.18
765.69	237.04
766.02	236.90
766.34	236.77
766.67	236.59
767.00	236.46
767.32	236.37
767.65	236.30
767.97	236.14
768.30	236.04
768.62	235.94
768.95	235.82
769.27	235.67
769.60	235.57
769.92	235.43
770.25	235.32
770.57	235.18
770.90	235.06
771.22	234.97
771.55	234.88
771.87	234.79
772.20	234.71
772.52	234.75
772.85	234.78
773.17	234.68
773.50	234.58
773.82	234.50
774.15	234.38
774.47	234.27
774.80	234.18
775.12	234.07
775.45	233.99
775.77	233.91
776.09	233.86
776.42	233.79
776.74	233.73
777.07	233.64
777.39	233.59
777.72	233.53
778.04	233.50
778.36	233.39
778.69	233.33
779.01	233.25
779.33	233.11
779.66	232.96
779.98	232.89
780.31	232.86
780.63	232.81
780.95	232.78
781.28	232.71
781.60	232.61
781.92	232.56
782.25	232.51
782.57	232.45
782.89	232.35
783.22	232.30
783.54	232.22
783.86	232.19
784.19	232.13
784.51	232.09
784.83	231.98
785.16	231.95
785.48	231.91
785.80	231.88
786.12	231.79
786.45	231.75
786.77	231.72
787.09	231.65
787.42	231.57
787.74	231.51
788.06	231.47
788.38	231.44
788.71	231.42
789.03	231.39
789.35	231.35
789.67	231.32
789.99	231.27
790.32	231.23
790.64	231.20
790.96	231.22
791.28	231.16
791.61	231.14
791.93	231.13
792.25	231.08
792.57	231.10
792.89	231.06
793.21	231.00
793.54	230.97
793.86	230.94
794.18	230.91
794.50	230.85
794.82	230.83
795.14	230.80
795.47	230.75
795.79	230.69
796.11	230.65
796.43	230.60
796.75	230.56
797.07	230.52
797.39	230.47
797.71	230.38
798.04	230.34
798.36	230.29
798.68	230.23
799.00	230.19
799.32	230.08
799.64	230.07
799.96	230.02
800.28	230.03
800.60	229.98
800.92	229.96
801.24	229.92
801.56	229.89
801.89	229.86
802.21	229.86
802.53	229.81
802.85	229.81
803.17	229.85
803.49	229.80
803.81	229.77
804.13	229.71
804.45	229.65
804.77	229.65
805.09	229.61
805.41	229.61
805.73	229.55
806.05	229.49
806.37	229.47
806.69	229.44
807.01	229.38
807.33	229.35
807.65	229.32
807.97	229.33
808.28	229.27
808.60	229.24
808.92	229.17
809.24	229.23
809.56	229.18
809.88	229.09
810.20	229.09
810.52	229.08
810.84	229.07
811.16	229.05
811.48	228.99
811.80	229.03
812.12	228.98
812.43	228.98
812.75	228.98
813.07	228.94
813.39	228.90
813.71	228.88
814.03	228.83
814.35	228.83
814.67	228.77
814.98	228.74
815.30	228.69
815.62	228.65
815.94	228.53
816.26	228.54
816.58	228.55
816.89	228.54
817.21	228.48
817.53	228.46
817.85	228.44
818.17	228.42
818.48	228.36
818.80	228.35
819.12	228.34
819.44	228.33
819.76	228.32
820.07	228.30
820.39	228.27
820.71	228.29
821.03	228.23
821.34	228.21
821.66	228.20
821.98	228.21
822.30	228.21
822.61	228.29
822.93	228.24
823.25	228.18
823.57	228.15
823.88	228.16
824.20	228.12
824.52	228.13
824.83	228.12
825.15	228.09
825.47	228.08
825.79	228.07
826.10	228.04
826.42	228.02
826.74	228.02
827.05	227.99
827.37	227.96
827.69	227.95
828.00	227.94
828.32	227.93
828.64	227.93
828.95	227.94
829.27	227.91
829.58	227.92
829.90	227.90
830.22	227.92
830.53	227.92
830.85	227.92
831.17	227.91
831.48	227.88
831.80	227.89
832.11	227.87
832.43	227.83
832.75	227.83
833.06	227.87
833.38	227.84
833.69	227.83
834.01	227.85
834.32	227.83
834.64	227.82
834.96	227.84
835.27	227.85
835.59	227.83
835.90	227.79
836.22	227.78
836.53	227.77
836.85	227.75
837.16	227.84
837.48	227.85
837.79	227.86
838.11	227.88
838.42	227.84
838.74	227.88
839.05	227.91
839.37	227.92
839.68	227.85
840.00	227.87
840.31	227.89
840.63	227.89
840.94	227.96
841.26	227.94
841.57	227.94
841.88	227.93
842.20	227.94
842.51	227.92
842.83	227.91
843.14	228.04
843.46	228.05
843.77	227.96
844.08	227.93
844.40	227.91
844.71	227.88
845.03	227.91
845.34	227.88
845.65	227.86
845.97	227.83
846.28	227.88
846.60	227.88
846.91	227.89
847.22	227.90
847.54	227.86
847.85	227.91
848.16	227.87
848.48	227.84
848.79	227.89
849.10	227.96
849.42	227.96
849.73	227.88
850.04	227.86
850.36	227.86
850.67	227.91
850.98	227.92
851.30	227.93
851.61	227.92
851.92	227.92
852.23	227.96
852.55	227.99
852.86	227.98
853.17	228.00
853.49	228.02
853.80	227.99
854.11	228.01
854.42	227.98
854.74	227.99
855.05	227.98
855.36	227.90
855.67	227.84
855.99	227.82
856.30	227.90
856.61	227.90
856.92	227.89
857.23	227.85
857.55	227.83
857.86	227.84
858.17	227.81
858.48	227.79
858.79	227.75
859.11	227.73
859.42	227.67
859.73	227.63
860.04	227.59
860.35	227.56
860.66	227.49
860.98	227.46
861.29	227.43
861.60	227.43
861.91	227.46
862.22	227.47
862.53	227.46
862.84	227.34
863.16	227.34
863.47	227.29
863.78	227.31
864.09	227.30
864.40	227.30
864.71	227.32
865.02	227.31
865.33	227.30
865.64	227.28
865.95	227.30
866.27	227.34
866.58	227.31
866.89	227.32
867.20	227.35
867.51	227.34
867.82	227.37
868.13	227.39
868.44	227.35
868.75	227.34
869.06	227.34
869.37	227.33
869.68	227.31
869.99	227.34
870.30	227.30
870.61	227.29
870.92	227.26
871.23	227.23
871.54	227.21
871.85	227.22
872.16	227.25
872.47	227.24
872.78	227.21
873.09	227.24
873.40	227.24
873.71	227.26
874.02	227.27
874.33	227.26
874.64	227.22
874.95	227.24
875.26	227.21
875.56	227.20
875.87	227.20
876.18	227.17
876.49	227.28
876.80	227.32
877.11	227.31
877.42	227.32
877.73	227.32
878.04	227.31
878.35	227.32
878.66	227.33
878.96	227.34
879.27	227.33
879.58	227.33
879.89	227.34
880.20	227.35
880.51	227.36
880.82	227.35
881.12	227.36
881.43	227.33
881.74	227.32
882.05	227.33
882.36	227.36
882.67	227.39
882.97	227.27
883.28	227.28
883.59	227.29
883.90	227.28
884.21	227.34
884.51	227.38
884.82	227.37
885.13	227.37
885.44	227.39
885.74	227.37
886.05	227.36
886.36	227.37
886.67	227.33
886.98	227.41
887.28	227.40
887.59	227.44
887.90	227.47
888.20	227.52
888.51	227.55
888.82	227.53
889.13	227.55
889.43	227.63
889.74	227.62
890.05	227.60
890.35	227.64
890.66	227.59
890.97	227.61
891.28	227.64
891.58	227.62
891.89	227.62
892.20	227.61
892.50	227.59
892.81	227.56
893.12	227.57
893.42	227.49
893.73	227.52
894.04	227.52
894.34	227.53
894.65	227.50
894.95	227.47
895.26	227.48
895.57	227.49
895.87	227.40
896.18	227.38
896.48	227.38
896.79	227.33
897.10	227.35
897.40	227.31
897.71	227.26
898.01	227.25
898.32	227.20
898.63	227.20
898.93	227.18
899.24	227.17
899.54	227.12
899.85	227.10
900.15	227.07
900.46	227.03
900.76	226.97
901.07	226.91
901.38	226.91
901.68	226.90
901.99	226.85
902.29	226.83
902.60	226.81
902.90	226.79
903.21	226.79
903.51	226.74
903.82	226.73
904.12	226.71
904.43	226.68
904.73	226.68
905.03	226.66
905.34	226.77
905.64	226.73
905.95	226.71
906.25	226.72
906.56	226.69
906.86	226.68
907.17	226.68
907.47	226.72
907.77	226.69
908.08	226.68
908.38	226.66
908.69	226.65
908.99	226.69
909.30	226.70
909.60	226.66
909.90	226.64
910.21	226.60
910.51	226.62
910.81	226.64
911.12	226.68
911.42	226.69
911.73	226.57
912.03	226.61
912.33	226.65
912.64	226.63
912.94	226.65
913.24	226.64
913.55	226.65
913.85	226.65
914.15	226.67
914.46	226.68
914.76	226.67
915.06	226.69
915.37	226.65
915.67	226.64
915.97	226.70
916.27	226.71
916.58	226.75
916.88	226.76
917.18	226.77
917.49	226.81
917.79	226.83
918.09	226.86
918.39	226.90
918.70	226.89
919.00	226.93
919.30	226.98
919.60	226.98
919.91	226.98
920.21	226.97
920.51	226.96
920.81	226.95
921.12	226.98
921.42	227.01
921.72	227.04
922.02	227.05
922.32	227.07
922.63	227.09
922.93	227.14
923.23	227.12
923.53	227.09
923.83	227.03
924.13	227.04
924.44	227.03
924.74	227.05
925.04	227.12
925.34	227.08
925.64	227.03
925.94	227.05
926.24	227.12
926.55	227.13
926.85	227.16
927.15	227.18
927.45	227.16
927.75	227.14
928.05	227.13
928.35	227.14
928.65	227.14
928.95	227.13
929.26	227.10
929.56	227.09
929.86	227.12
930.16	227.10
930.46	227.11
930.76	227.11
931.06	227.04
931.36	227.00
931.66	227.01
931.96	227.01
932.26	226.97
932.56	226.92
932.86	226.94
933.16	226.94
933.46	226.90
933.76	226.87
934.06	226.91
934.36	226.91
934.66	226.91
934.96	226.88
935.26	226.89
935.56	226.89
935.86	226.90
936.16	226.87
936.46	226.86
936.76	226.81
937.06	226.82
937.36	226.82
937.66	226.80
937.96	226.78
938.26	226.78
938.56	226.82
938.86	226.79
939.16	226.76
939.46	226.74
939.76	226.74
940.06	226.75
940.35	226.68
940.65	226.64
940.95	226.66
941.25	226.61
941.55	226.59
941.85	226.59
942.15	226.63
942.45	226.64
942.75	226.65
943.04	226.67
943.34	226.65
943.64	226.66
943.94	226.63
944.24	226.65
944.54	226.63
944.84	226.63
945.13	226.61
945.43	226.64
945.73	226.62
946.03	226.64
946.33	226.65
946.62	226.66
946.92	226.67
947.22	226.65
947.52	226.69
947.82	226.72
948.11	226.72
948.41	226.67
948.71	226.65
949.01	226.64
949.31	226.63
949.60	226.65
949.90	226.67
950.20	226.71
950.50	226.70
950.79	226.72
951.09	226.73
951.39	226.74
951.69	226.73
951.98	226.77
952.28	226.76
952.58	226.78
952.87	226.80
953.17	226.80
953.47	226.84
953.76	226.80
954.06	226.77
954.36	226.76
954.66	226.77
954.95	226.83
955.25	226.87
955.55	226.87
955.84	226.88
956.14	226.88
956.44	226.89
956.73	226.88
957.03	226.89
957.32	226.90
957.62	226.91
957.92	226.94
958.21	226.94
958.51	227.02
958.81	227.04
959.10	227.08
959.40	227.15
959.69	227.16
959.99	227.20
960.29	227.22
960.58	227.22
960.88	227.26
961.17	227.23
961.47	227.23
961.76	227.24
962.06	227.21
962.36	227.22
962.65	227.22
962.95	227.27
963.24	227.23
963.54	227.24
963.83	227.24
964.13	227.23
964.42	227.21
964.72	227.16
965.01	227.14
965.31	227.10
965.60	227.05
965.90	227.06
966.19	227.02
966.49	227.01
966.78	227.02
967.08	226.99
967.37	227.00
967.67	227.02
967.96	227.00
968.26	227.03
968.55	227.01
968.85	226.99
969.14	226.95
969.43	226.98
969.73	226.97
970.02	226.97
970.32	226.95
970.61	226.97
970.91	226.93
971.20	226.90
971.49	226.89
971.79	226.90
972.08	226.82
972.38	226.85
972.67	226.85
972.96	226.82
973.26	226.80
973.55	226.81
973.85	226.77
974.14	226.77
974.43	226.77
974.73	226.76
975.02	226.75
975.31	226.76
975.61	226.74
975.90	226.70
976.19	226.70
976.49	226.69
976.78	226.64
977.07	226.65
977.37	226.67
977.66	226.65
977.95	226.60
978.24	226.61
978.54	226.62
978.83	226.59
979.12	226.59
979.42	226.59
979.71	226.58
980.00	226.58
980.29	226.55
980.59	226.48
980.88	226.49
981.17	226.48
981.46	226.43
981.76	226.41
982.05	226.43
982.34	226.43
982.63	226.43
982.93	226.44
983.22	226.44
983.51	226.40
983.80	226.44
984.09	226.44
984.39	226.43
984.68	226.40
984.97	226.45
985.26	226.42
985.55	226.40
985.85	226.36
986.14	226.36
986.43	226.39
986.72	226.39
987.01	226.34
987.30	226.37
987.59	226.38
987.89	226.37
988.18	226.33
988.47	226.31
988.76	226.31
989.05	226.33
989.34	226.32
989.63	226.34
989.92	226.35
990.22	226.37
990.51	226.35
990.80	226.33
991.09	226.34
991.38	226.38
991.67	226.41
991.96	226.40
992.25	226.41
992.54	226.38
992.83	226.41
993.12	226.44
993.41	226.42
993.70	226.44
993.99	226.49
994.28	226.52
994.58	226.55
994.87	226.54
995.16	226.50
995.45	226.53
995.74	226.50
996.03	226.48
996.32	226.51
996.61	226.56
996.90	226.59
997.19	226.61
997.48	226.61
997.77	226.60
998.06	226.62
998.34	226.64
998.63	226.67
998.92	226.66
999.21	226.70
999.50	226.72
999.79	226.71
1000.08	226.74
1000.37	226.73
1000.66	226.70
1000.95	226.74
1001.24	226.74
1001.53	226.72
1001.82	226.76
1002.11	226.77
1002.40	226.81
1002.68	226.84
1002.97	226.91
1003.26	226.87
1003.55	226.86
1003.84	226.88
1004.13	226.91
1004.42	226.91
1004.71	226.90
1004.99	226.92
1005.28	226.92
1005.57	226.92
1005.86	226.90
1006.15	226.88
1006.44	226.89
1006.72	226.92
1007.01	226.91
1007.30	226.95
1007.59	226.94
1007.88	226.94
1008.17	226.92
1008.45	226.85
1008.74	226.81
1009.03	226.75
1009.32	226.75
1009.60	226.75
1009.89	226.75
1010.18	226.69
1010.47	226.66
1010.76	226.64
1011.04	226.64
1011.33	226.64
1011.62	226.64
1011.91	226.66
1012.19	226.64
1012.48	226.64
1012.77	226.59
1013.05	226.64
1013.34	226.61
1013.63	226.64
1013.92	226.64
1014.20	226.63
1014.49	226.64
1014.78	226.64
1015.06	226.58
1015.35	226.60
1015.64	226.60
1015.92	226.59
1016.21	226.59
1016.50	226.61
1016.78	226.60
1017.07	226.56
1017.36	226.54
1017.64	226.52
1017.93	226.51
1018.22	226.51
1018.50	226.52
1018.79	226.52
1019.08	226.46
1019.36	226.49
1019.65	226.45
1019.93	226.46
1020.22	226.49
1020.51	226.54
1020.79	226.49
1021.08	226.41
1021.36	226.68
1021.65	226.13
1021.94	226.37
1022.22	227.17
1022.51	226.20
1022.79	226.87
1023.08	226.89
1023.36	227.64
1023.65	225.89
>>>>>End Processed Spectral Data<<<<<
