SpectraSuite Data File
++++++++++++++++++++++++++++++++++++
Date: Fri Feb 01 15:02:43 EST 2013
User: group
Dark Spectrum Present: No
Reference Spectrum Present: No
Number of Sampled Component Spectra: 1
Spectrometers: USB2E7196
Integration Time (usec): 35000 (USB2E7196)
Spectra Averaged: 100 (USB2E7196)
Boxcar Smoothing: 10 (USB2E7196)
Correct for Electrical Dark: No (USB2E7196)
Strobe/Lamp Enabled: No (USB2E7196)
Correct for Detector Non-linearity: No (USB2E7196)
Correct for Stray Light: No (USB2E7196)
Number of Pixels in Processed Spectrum: 2048
>>>>>Begin Processed Spectral Data<<<<<
339.09	0.00
339.48	214.82
339.86	216.48
340.24	217.43
340.63	219.00
341.01	221.83
341.39	221.39
341.78	223.04
342.16	224.51
342.54	224.71
342.93	213.09
343.31	223.85
343.69	224.38
344.07	224.87
344.46	225.33
344.84	225.72
345.22	225.97
345.60	226.26
345.99	226.45
346.37	226.58
346.75	226.71
347.13	226.78
347.52	226.84
347.90	226.92
348.28	226.96
348.66	227.04
349.05	227.04
349.43	227.12
349.81	227.17
350.19	227.23
350.57	227.28
350.96	227.36
351.34	227.46
351.72	227.59
352.10	227.67
352.48	227.76
352.87	227.82
353.25	227.89
353.63	227.96
354.01	228.04
354.39	228.13
354.77	228.22
355.15	228.31
355.54	228.40
355.92	228.43
356.30	228.53
356.68	228.67
357.06	228.76
357.44	228.78
357.82	228.87
358.20	228.97
358.58	229.06
358.97	229.11
359.35	229.20
359.73	229.27
360.11	229.32
360.49	229.34
360.87	229.39
361.25	229.46
361.63	229.48
362.01	229.52
362.39	229.53
362.77	229.55
363.15	229.58
363.53	229.60
363.91	229.64
364.29	229.64
364.67	229.53
365.05	229.56
365.43	229.56
365.81	229.57
366.19	229.58
366.57	229.57
366.95	229.61
367.33	229.57
367.71	229.52
368.09	229.49
368.47	229.45
368.85	229.41
369.23	229.36
369.61	229.31
369.99	229.31
370.37	229.31
370.75	229.32
371.13	229.26
371.51	229.20
371.89	229.15
372.27	229.08
372.65	229.07
373.03	228.99
373.41	228.93
373.78	228.87
374.16	228.72
374.54	228.61
374.92	228.49
375.30	228.39
375.68	228.31
376.06	228.27
376.44	228.18
376.82	228.11
377.19	228.02
377.57	227.92
377.95	227.78
378.33	227.67
378.71	227.54
379.09	227.47
379.47	227.41
379.84	227.31
380.22	227.23
380.60	227.09
380.98	226.97
381.36	226.91
381.73	226.79
382.11	226.77
382.49	226.70
382.87	226.63
383.25	226.58
383.62	226.61
384.00	226.50
384.38	226.43
384.76	226.40
385.13	226.39
385.51	226.38
385.89	226.33
386.27	226.24
386.64	226.18
387.02	226.13
387.40	226.06
387.78	226.03
388.15	225.99
388.53	225.98
388.91	226.00
389.29	225.96
389.66	225.97
390.04	225.94
390.42	225.95
390.79	225.96
391.17	225.97
391.55	225.88
391.92	225.90
392.30	225.94
392.68	225.92
393.05	225.92
393.43	225.91
393.81	225.95
394.18	226.00
394.56	226.02
394.94	226.11
395.31	226.12
395.69	226.18
396.06	226.25
396.44	226.33
396.82	226.36
397.19	226.48
397.57	226.54
397.95	226.59
398.32	226.64
398.70	226.71
399.07	226.79
399.45	226.86
399.82	226.93
400.20	227.01
400.58	227.11
400.95	227.19
401.33	227.32
401.70	227.48
402.08	227.58
402.45	227.69
402.83	227.79
403.20	227.96
403.58	228.08
403.95	228.22
404.33	228.30
404.71	228.48
405.08	228.65
405.46	228.77
405.83	228.96
406.21	229.13
406.58	229.30
406.96	229.47
407.33	229.68
407.70	229.88
408.08	230.14
408.45	230.38
408.83	230.60
409.20	230.82
409.58	230.99
409.95	231.30
410.33	231.60
410.70	231.85
411.08	232.14
411.45	232.44
411.82	232.73
412.20	233.13
412.57	233.50
412.95	233.78
413.32	234.20
413.69	234.59
414.07	235.01
414.44	235.46
414.82	235.94
415.19	236.50
415.56	237.07
415.94	237.57
416.31	238.20
416.68	238.83
417.06	239.56
417.43	240.24
417.81	240.97
418.18	241.75
418.55	242.59
418.93	243.45
419.30	244.36
419.67	245.34
420.04	246.29
420.42	247.23
420.79	248.41
421.16	249.56
421.54	250.79
421.91	251.96
422.28	253.19
422.66	254.51
423.03	255.77
423.40	257.08
423.77	258.50
424.15	259.92
424.52	261.41
424.89	262.97
425.26	264.51
425.64	265.94
426.01	267.52
426.38	269.17
426.75	270.84
427.13	272.56
427.50	274.35
427.87	276.23
428.24	278.14
428.61	279.86
428.99	281.75
429.36	283.81
429.73	285.92
430.10	287.97
430.47	290.02
430.85	292.18
431.22	294.43
431.59	296.84
431.96	299.06
432.33	301.52
432.70	303.95
433.08	306.75
433.45	309.40
433.82	311.99
434.19	314.90
434.56	317.72
434.93	320.34
435.30	322.95
435.68	325.83
436.05	328.69
436.42	331.52
436.79	334.08
437.16	336.81
437.53	339.64
437.90	342.48
438.27	345.22
438.64	348.05
439.01	350.67
439.38	352.90
439.75	355.12
440.13	357.61
440.50	359.98
440.87	361.84
441.24	363.80
441.61	365.99
441.98	367.46
442.35	369.29
442.72	371.22
443.09	373.01
443.46	374.01
443.83	374.62
444.20	375.13
444.57	375.99
444.94	376.29
445.31	376.62
445.68	376.99
446.05	377.08
446.42	376.72
446.79	376.28
447.16	375.84
447.53	375.50
447.90	374.34
448.27	373.14
448.64	371.55
449.01	370.43
449.37	368.46
449.74	366.63
450.11	364.34
450.48	361.83
450.85	359.32
451.22	357.18
451.59	355.12
451.96	353.13
452.33	350.50
452.70	348.15
453.07	345.36
453.43	342.40
453.80	339.65
454.17	336.97
454.54	334.44
454.91	331.72
455.28	329.04
455.65	326.57
456.02	324.16
456.38	322.04
456.75	319.37
457.12	317.12
457.49	314.84
457.86	312.68
458.23	310.86
458.59	308.81
458.96	306.70
459.33	304.87
459.70	303.06
460.07	301.58
460.43	299.83
460.80	298.20
461.17	296.78
461.54	295.25
461.91	293.80
462.27	292.35
462.64	291.07
463.01	289.71
463.38	288.41
463.74	287.00
464.11	285.81
464.48	284.78
464.85	283.64
465.21	282.75
465.58	281.79
465.95	280.67
466.32	279.77
466.68	278.88
467.05	277.93
467.42	277.02
467.78	276.05
468.15	275.19
468.52	274.51
468.88	273.65
469.25	272.89
469.62	272.25
469.98	271.56
470.35	270.94
470.72	270.34
471.08	269.69
471.45	269.13
471.82	268.57
472.18	267.98
472.55	267.55
472.92	267.02
473.28	266.55
473.65	266.12
474.02	265.62
474.38	265.24
474.75	264.93
475.11	264.56
475.48	264.29
475.85	264.01
476.21	263.75
476.58	263.53
476.94	263.35
477.31	263.16
477.67	263.02
478.04	262.84
478.41	262.75
478.77	262.79
479.14	262.72
479.50	262.75
479.87	262.80
480.23	262.85
480.60	262.90
480.96	262.99
481.33	263.15
481.69	263.36
482.06	263.52
482.42	263.74
482.79	264.01
483.15	264.31
483.52	264.69
483.88	265.03
484.25	265.40
484.61	265.84
484.98	266.30
485.34	266.84
485.71	267.45
486.07	268.06
486.44	268.61
486.80	269.28
487.17	269.97
487.53	270.74
487.90	271.60
488.26	272.55
488.62	273.52
488.99	274.45
489.35	275.50
489.72	276.64
490.08	277.81
490.44	279.01
490.81	280.38
491.17	281.72
491.54	283.22
491.90	284.73
492.26	286.40
492.63	288.10
492.99	289.85
493.36	291.72
493.72	293.73
494.08	295.81
494.45	298.04
494.81	300.39
495.17	302.79
495.54	305.34
495.90	308.00
496.26	310.81
496.63	313.77
496.99	316.83
497.35	320.06
497.72	323.45
498.08	326.97
498.44	330.57
498.80	334.47
499.17	338.46
499.53	342.62
499.89	346.94
500.26	351.47
500.62	356.12
500.98	361.11
501.34	366.17
501.71	371.45
502.07	376.94
502.43	382.58
502.79	388.40
503.16	394.44
503.52	400.69
503.88	407.04
504.24	413.70
504.60	420.58
504.97	427.68
505.33	434.95
505.69	442.62
506.05	450.39
506.41	458.25
506.78	466.43
507.14	474.90
507.50	483.61
507.86	492.61
508.22	501.79
508.59	510.89
508.95	520.49
509.31	530.32
509.67	540.37
510.03	550.55
510.39	561.13
510.75	571.88
511.12	582.84
511.48	594.15
511.84	605.55
512.20	617.06
512.56	629.00
512.92	641.21
513.28	653.51
513.64	666.09
514.00	678.80
514.37	691.73
514.73	704.71
515.09	717.76
515.45	731.09
515.81	744.69
516.17	758.79
516.53	772.85
516.89	787.03
517.25	801.22
517.61	815.78
517.97	830.19
518.33	844.73
518.69	859.48
519.05	874.55
519.41	889.68
519.77	905.27
520.13	920.80
520.49	936.24
520.85	951.79
521.21	967.55
521.57	983.83
521.93	999.66
522.29	1016.11
522.65	1032.47
523.01	1048.78
523.37	1064.91
523.73	1081.11
524.09	1097.29
524.45	1113.68
524.81	1130.38
525.17	1147.27
525.53	1164.27
525.89	1181.17
526.25	1198.16
526.61	1214.65
526.97	1231.57
527.33	1248.14
527.68	1264.77
528.04	1281.36
528.40	1298.10
528.76	1315.16
529.12	1331.75
529.48	1348.74
529.84	1364.94
530.20	1381.57
530.56	1398.69
530.91	1416.17
531.27	1432.93
531.63	1449.53
531.99	1466.31
532.35	1482.35
532.71	1498.20
533.07	1514.53
533.42	1530.56
533.78	1546.54
534.14	1562.75
534.50	1578.06
534.86	1594.02
535.21	1609.25
535.57	1625.33
535.93	1640.81
536.29	1655.80
536.65	1671.08
537.00	1685.95
537.36	1701.29
537.72	1715.90
538.08	1730.31
538.44	1744.22
538.79	1758.32
539.15	1772.20
539.51	1785.96
539.87	1800.38
540.22	1814.45
540.58	1828.32
540.94	1841.78
541.29	1855.07
541.65	1867.92
542.01	1881.34
542.37	1893.75
542.72	1906.34
543.08	1918.09
543.44	1930.43
543.79	1941.61
544.15	1952.59
544.51	1964.19
544.87	1975.26
545.22	1986.11
545.58	1996.37
545.94	2006.16
546.29	2016.02
546.65	2025.70
547.01	2035.01
547.36	2043.74
547.72	2051.99
548.07	2059.92
548.43	2068.11
548.79	2075.95
549.14	2083.53
549.50	2090.88
549.86	2098.60
550.21	2105.84
550.57	2113.14
550.92	2119.88
551.28	2127.04
551.64	2134.15
551.99	2140.63
552.35	2146.69
552.70	2152.83
553.06	2158.76
553.41	2165.08
553.77	2171.18
554.13	2177.30
554.48	2183.28
554.84	2188.66
555.19	2194.01
555.55	2199.07
555.90	2203.48
556.26	2208.27
556.61	2212.98
556.97	2216.92
557.32	2220.96
557.68	2225.13
558.03	2229.30
558.39	2233.05
558.74	2237.64
559.10	2241.41
559.45	2245.07
559.81	2249.39
560.16	2253.21
560.52	2256.51
560.87	2259.80
561.23	2262.21
561.58	2265.02
561.94	2267.56
562.29	2270.05
562.64	2272.70
563.00	2275.27
563.35	2278.79
563.71	2281.94
564.06	2284.99
564.42	2287.98
564.77	2290.33
565.12	2292.52
565.48	2294.40
565.83	2295.94
566.19	2297.02
566.54	2297.95
566.89	2298.93
567.25	2299.30
567.60	2300.61
567.96	2302.18
568.31	2303.07
568.66	2304.18
569.02	2304.70
569.37	2304.96
569.72	2305.55
570.08	2305.63
570.43	2305.46
570.78	2304.54
571.14	2302.87
571.49	2301.51
571.84	2301.08
572.20	2299.76
572.55	2298.57
572.90	2296.87
573.26	2295.47
573.61	2293.59
573.96	2291.59
574.31	2288.49
574.67	2285.31
575.02	2281.39
575.37	2277.85
575.72	2273.78
576.08	2270.44
576.43	2267.11
576.78	2263.24
577.13	2260.08
577.49	2256.69
577.84	2253.06
578.19	2249.40
578.54	2245.45
578.90	2240.96
579.25	2235.34
579.60	2230.34
579.95	2225.23
580.30	2219.86
580.66	2214.56
581.01	2209.64
581.36	2204.57
581.71	2200.24
582.06	2195.92
582.42	2191.27
582.77	2185.73
583.12	2181.04
583.47	2175.89
583.82	2170.63
584.17	2165.30
584.53	2159.55
584.88	2153.92
585.23	2148.08
585.58	2142.53
585.93	2137.07
586.28	2132.19
586.63	2127.03
586.98	2121.81
587.34	2116.92
587.69	2112.07
588.04	2106.65
588.39	2100.76
588.74	2094.24
589.09	2088.09
589.44	2081.10
589.79	2075.09
590.14	2069.50
590.49	2062.89
590.84	2056.62
591.19	2050.46
591.54	2043.99
591.89	2036.39
592.25	2029.45
592.60	2022.17
592.95	2014.32
593.30	2006.94
593.65	1999.18
594.00	1991.96
594.35	1984.62
594.70	1976.63
595.05	1969.20
595.40	1961.90
595.75	1954.31
596.10	1947.87
596.45	1940.84
596.80	1934.59
597.15	1927.75
597.50	1920.52
597.85	1913.98
598.19	1907.18
598.54	1900.05
598.89	1893.27
599.24	1887.45
599.59	1880.57
599.94	1874.23
600.29	1867.88
600.64	1861.20
600.99	1853.88
601.34	1846.99
601.69	1839.97
602.04	1832.95
602.39	1825.51
602.74	1818.58
603.08	1811.81
603.43	1805.20
603.78	1797.94
604.13	1790.57
604.48	1783.33
604.83	1776.43
605.18	1769.33
605.53	1761.23
605.87	1753.23
606.22	1745.98
606.57	1738.04
606.92	1730.75
607.27	1723.56
607.62	1716.56
607.96	1709.24
608.31	1702.50
608.66	1694.92
609.01	1687.40
609.36	1679.75
609.70	1671.80
610.05	1663.75
610.40	1656.03
610.75	1647.67
611.10	1640.07
611.44	1631.72
611.79	1623.76
612.14	1615.17
612.49	1606.24
612.83	1598.01
613.18	1589.89
613.53	1581.70
613.88	1573.14
614.22	1564.96
614.57	1556.39
614.92	1548.37
615.27	1540.78
615.61	1532.45
615.96	1524.51
616.31	1516.91
616.65	1509.68
617.00	1502.14
617.35	1494.52
617.70	1486.22
618.04	1477.77
618.39	1469.53
618.74	1461.94
619.08	1453.62
619.43	1445.99
619.78	1438.97
620.12	1431.73
620.47	1424.33
620.82	1416.29
621.16	1408.96
621.51	1401.29
621.85	1393.80
622.20	1385.35
622.55	1377.06
622.89	1369.32
623.24	1361.72
623.59	1354.44
623.93	1346.88
624.28	1339.72
624.62	1332.22
624.97	1325.08
625.32	1318.39
625.66	1311.43
626.01	1304.33
626.35	1296.83
626.70	1289.13
627.04	1281.43
627.39	1273.80
627.73	1266.33
628.08	1259.43
628.43	1252.10
628.77	1244.83
629.12	1237.26
629.46	1230.09
629.81	1222.79
630.15	1215.61
630.50	1208.21
630.84	1200.01
631.19	1192.19
631.53	1184.78
631.88	1177.30
632.22	1169.73
632.57	1162.43
632.91	1154.90
633.26	1147.51
633.60	1140.39
633.95	1133.37
634.29	1126.40
634.64	1119.72
634.98	1112.42
635.32	1105.37
635.67	1098.95
636.01	1092.41
636.36	1085.64
636.70	1079.24
637.05	1072.70
637.39	1066.27
637.73	1059.82
638.08	1054.01
638.42	1048.13
638.77	1041.68
639.11	1035.07
639.45	1028.76
639.80	1022.08
640.14	1015.70
640.49	1009.18
640.83	1002.86
641.17	996.67
641.52	990.36
641.86	983.90
642.20	978.09
642.55	971.82
642.89	965.24
643.23	958.63
643.58	952.83
643.92	946.68
644.26	940.53
644.61	934.52
644.95	928.48
645.29	921.80
645.64	915.02
645.98	908.69
646.32	902.91
646.66	896.88
647.01	891.11
647.35	885.38
647.69	879.67
648.04	874.16
648.38	868.30
648.72	862.37
649.06	856.35
649.41	850.41
649.75	844.30
650.09	838.39
650.43	832.61
650.78	826.43
651.12	820.46
651.46	814.81
651.80	809.05
652.14	803.64
652.49	798.44
652.83	793.28
653.17	787.65
653.51	781.89
653.85	776.55
654.20	770.90
654.54	764.98
654.88	759.20
655.22	753.28
655.56	747.68
655.90	742.20
656.25	736.92
656.59	731.63
656.93	726.61
657.27	721.47
657.61	716.11
657.95	711.14
658.29	706.03
658.64	700.85
658.98	695.66
659.32	690.24
659.66	685.04
660.00	679.71
660.34	674.85
660.68	670.01
661.02	664.99
661.36	660.38
661.70	655.89
662.05	651.55
662.39	647.26
662.73	642.78
663.07	638.49
663.41	634.07
663.75	629.59
664.09	625.06
664.43	620.73
664.77	616.63
665.11	612.37
665.45	608.31
665.79	604.22
666.13	600.13
666.47	596.12
666.81	591.91
667.15	587.82
667.49	583.91
667.83	580.12
668.17	576.23
668.51	572.18
668.85	568.22
669.19	564.33
669.53	560.58
669.87	556.75
670.21	553.04
670.55	549.44
670.89	546.11
671.23	542.73
671.57	539.30
671.91	535.78
672.25	532.38
672.58	528.88
672.92	525.57
673.26	522.40
673.60	519.21
673.94	516.18
674.28	513.38
674.62	510.42
674.96	507.34
675.30	504.39
675.64	501.49
675.97	498.76
676.31	496.03
676.65	493.10
676.99	490.41
677.33	487.51
677.67	484.74
678.01	481.65
678.34	478.67
678.68	475.82
679.02	473.01
679.36	470.21
679.70	467.53
680.04	464.71
680.37	461.81
680.71	459.05
681.05	456.47
681.39	453.70
681.73	451.11
682.06	448.62
682.40	446.10
682.74	443.60
683.08	441.06
683.42	438.45
683.75	435.99
684.09	433.48
684.43	431.10
684.77	428.65
685.10	426.39
685.44	424.15
685.78	421.85
686.12	419.61
686.45	417.35
686.79	415.00
687.13	412.79
687.46	410.68
687.80	408.50
688.14	406.28
688.48	404.21
688.81	401.91
689.15	399.75
689.49	397.63
689.82	395.55
690.16	393.47
690.50	391.53
690.83	389.59
691.17	387.63
691.51	385.67
691.84	383.79
692.18	381.81
692.52	379.80
692.85	377.91
693.19	376.04
693.52	374.24
693.86	372.51
694.20	370.80
694.53	368.97
694.87	367.16
695.21	365.38
695.54	363.63
695.88	361.94
696.21	360.23
696.55	358.57
696.88	356.91
697.22	355.22
697.56	353.61
697.89	351.95
698.23	350.33
698.56	348.74
698.90	347.15
699.23	345.53
699.57	344.01
699.90	342.44
700.24	340.92
700.58	339.38
700.91	337.88
701.25	336.41
701.58	335.10
701.92	333.79
702.25	332.39
702.59	330.97
702.92	329.66
703.26	328.32
703.59	327.06
703.93	325.86
704.26	324.66
704.60	323.36
704.93	322.07
705.26	320.83
705.60	319.71
705.93	318.58
706.27	317.59
706.60	316.54
706.94	315.45
707.27	314.31
707.61	313.29
707.94	312.25
708.27	311.18
708.61	310.09
708.94	309.11
709.28	308.15
709.61	307.26
709.94	306.33
710.28	305.33
710.61	304.35
710.95	303.30
711.28	302.44
711.61	301.53
711.95	300.64
712.28	299.72
712.61	298.75
712.95	297.82
713.28	296.93
713.61	296.03
713.95	295.17
714.28	294.37
714.61	293.51
714.95	292.70
715.28	291.88
715.61	291.03
715.95	290.17
716.28	289.37
716.61	288.53
716.95	287.75
717.28	287.05
717.61	286.32
717.94	285.59
718.28	284.77
718.61	284.02
718.94	283.37
719.27	282.70
719.61	282.06
719.94	281.44
720.27	280.74
720.60	280.11
720.94	279.49
721.27	278.88
721.60	278.32
721.93	277.74
722.27	277.19
722.60	276.68
722.93	276.11
723.26	275.56
723.59	274.97
723.93	274.40
724.26	273.83
724.59	273.26
724.92	272.70
725.25	272.23
725.59	271.71
725.92	271.20
726.25	270.71
726.58	270.21
726.91	269.71
727.24	269.24
727.57	268.78
727.91	268.24
728.24	267.77
728.57	267.26
728.90	266.79
729.23	266.30
729.56	265.84
729.89	265.36
730.22	264.88
730.55	264.43
730.89	263.98
731.22	263.55
731.55	263.12
731.88	262.71
732.21	262.26
732.54	261.84
732.87	261.42
733.20	261.00
733.53	260.63
733.86	260.23
734.19	259.80
734.52	259.39
734.85	259.10
735.18	258.68
735.51	258.31
735.84	257.94
736.17	257.61
736.50	257.17
736.83	256.95
737.16	256.61
737.49	256.28
737.82	255.93
738.15	255.56
738.48	255.24
738.81	254.93
739.14	254.58
739.47	254.26
739.80	253.93
740.13	253.60
740.46	253.23
740.79	252.89
741.12	252.61
741.45	252.31
741.78	251.96
742.11	251.69
742.44	251.35
742.77	251.07
743.10	250.74
743.43	250.44
743.75	250.06
744.08	249.90
744.41	249.63
744.74	249.39
745.07	249.12
745.40	248.86
745.73	248.63
746.06	248.38
746.39	248.12
746.71	247.90
747.04	247.65
747.37	247.41
747.70	247.20
748.03	246.94
748.36	246.73
748.68	246.51
749.01	246.27
749.34	246.04
749.67	245.78
750.00	245.56
750.33	245.43
750.65	245.23
750.98	244.88
751.31	244.63
751.64	244.41
751.97	244.26
752.29	244.04
752.62	243.78
752.95	243.56
753.28	243.39
753.60	243.18
753.93	243.03
754.26	242.85
754.59	242.63
754.91	242.45
755.24	242.25
755.57	242.07
755.90	241.88
756.22	241.74
756.55	241.57
756.88	241.41
757.20	241.17
757.53	240.98
757.86	240.85
758.19	240.71
758.51	240.55
758.84	240.37
759.17	240.21
759.49	240.07
759.82	239.99
760.15	239.83
760.47	239.71
760.80	239.53
761.13	239.44
761.45	239.27
761.78	239.11
762.11	238.98
762.43	238.83
762.76	238.70
763.08	238.58
763.41	238.44
763.74	238.32
764.06	238.19
764.39	238.05
764.71	237.91
765.04	237.76
765.37	237.62
765.69	237.49
766.02	237.37
766.34	237.22
766.67	237.08
767.00	236.99
767.32	236.87
767.65	236.79
767.97	236.60
768.30	236.45
768.62	236.36
768.95	236.22
769.27	236.06
769.60	235.95
769.92	235.81
770.25	235.69
770.57	235.54
770.90	235.42
771.22	235.29
771.55	235.19
771.87	235.13
772.20	235.04
772.52	234.98
772.85	234.98
773.17	234.89
773.50	234.77
773.82	234.64
774.15	234.51
774.47	234.34
774.80	234.24
775.12	234.18
775.45	234.09
775.77	233.99
776.09	233.96
776.42	233.86
776.74	233.77
777.07	233.69
777.39	233.63
777.72	233.58
778.04	233.54
778.36	233.45
778.69	233.34
779.01	233.28
779.33	233.14
779.66	232.98
779.98	232.93
780.31	232.85
780.63	232.82
780.95	232.75
781.28	232.69
781.60	232.65
781.92	232.61
782.25	232.55
782.57	232.52
782.89	232.42
783.22	232.38
783.54	232.35
783.86	232.28
784.19	232.20
784.51	232.16
784.83	232.08
785.16	232.03
785.48	232.00
785.80	231.92
786.12	231.92
786.45	231.86
786.77	231.82
787.09	231.79
787.42	231.72
787.74	231.72
788.06	231.70
788.38	231.65
788.71	231.60
789.03	231.56
789.35	231.53
789.67	231.48
789.99	231.44
790.32	231.38
790.64	231.37
790.96	231.43
791.28	231.34
791.61	231.33
791.93	231.27
792.25	231.21
792.57	231.24
792.89	231.18
793.21	231.12
793.54	231.03
793.86	230.96
794.18	230.88
794.50	230.80
794.82	230.76
795.14	230.73
795.47	230.71
795.79	230.67
796.11	230.61
796.43	230.58
796.75	230.53
797.07	230.53
797.39	230.50
797.71	230.40
798.04	230.40
798.36	230.34
798.68	230.33
799.00	230.32
799.32	230.25
799.64	230.24
799.96	230.21
800.28	230.23
800.60	230.22
800.92	230.21
801.24	230.17
801.56	230.16
801.89	230.13
802.21	230.09
802.53	230.03
802.85	230.02
803.17	230.04
803.49	229.99
803.81	229.93
804.13	229.92
804.45	229.87
804.77	229.86
805.09	229.85
805.41	229.83
805.73	229.80
806.05	229.80
806.37	229.74
806.69	229.71
807.01	229.68
807.33	229.65
807.65	229.61
807.97	229.65
808.28	229.61
808.60	229.57
808.92	229.53
809.24	229.59
809.56	229.55
809.88	229.49
810.20	229.50
810.52	229.48
810.84	229.40
811.16	229.36
811.48	229.31
811.80	229.30
812.12	229.28
812.43	229.25
812.75	229.18
813.07	229.16
813.39	229.15
813.71	229.09
814.03	229.07
814.35	229.04
814.67	228.96
814.98	228.91
815.30	228.90
815.62	228.86
815.94	228.75
816.26	228.78
816.58	228.74
816.89	228.71
817.21	228.67
817.53	228.67
817.85	228.66
818.17	228.63
818.48	228.60
818.80	228.58
819.12	228.54
819.44	228.52
819.76	228.47
820.07	228.48
820.39	228.45
820.71	228.42
821.03	228.43
821.34	228.43
821.66	228.45
821.98	228.48
822.30	228.48
822.61	228.53
822.93	228.45
823.25	228.46
823.57	228.40
823.88	228.44
824.20	228.42
824.52	228.40
824.83	228.37
825.15	228.35
825.47	228.32
825.79	228.33
826.10	228.29
826.42	228.29
826.74	228.26
827.05	228.26
827.37	228.24
827.69	228.20
828.00	228.15
828.32	228.15
828.64	228.09
828.95	228.11
829.27	228.10
829.58	228.12
829.90	228.12
830.22	228.17
830.53	228.10
830.85	228.09
831.17	228.07
831.48	228.08
831.80	228.06
832.11	228.04
832.43	228.04
832.75	228.05
833.06	228.10
833.38	228.06
833.69	228.07
834.01	228.08
834.32	228.07
834.64	228.08
834.96	228.08
835.27	228.07
835.59	228.05
835.90	228.00
836.22	227.98
836.53	227.94
836.85	227.93
837.16	228.00
837.48	227.99
837.79	228.05
838.11	228.06
838.42	228.07
838.74	228.11
839.05	228.10
839.37	228.10
839.68	228.03
840.00	228.02
840.31	228.03
840.63	228.02
840.94	228.02
841.26	228.00
841.57	227.94
841.88	227.96
842.20	227.95
842.51	227.95
842.83	227.91
843.14	228.01
843.46	227.97
843.77	227.96
844.08	227.96
844.40	227.89
844.71	227.86
845.03	227.84
845.34	227.80
845.65	227.78
845.97	227.76
846.28	227.77
846.60	227.80
846.91	227.76
847.22	227.73
847.54	227.77
847.85	227.79
848.16	227.79
848.48	227.76
848.79	227.77
849.10	227.80
849.42	227.82
849.73	227.73
850.04	227.75
850.36	227.67
850.67	227.67
850.98	227.72
851.30	227.75
851.61	227.73
851.92	227.72
852.23	227.71
852.55	227.74
852.86	227.76
853.17	227.74
853.49	227.76
853.80	227.79
854.11	227.76
854.42	227.75
854.74	227.76
855.05	227.77
855.36	227.73
855.67	227.69
855.99	227.65
856.30	227.74
856.61	227.73
856.92	227.74
857.23	227.71
857.55	227.66
857.86	227.61
858.17	227.63
858.48	227.61
858.79	227.60
859.11	227.57
859.42	227.53
859.73	227.48
860.04	227.45
860.35	227.44
860.66	227.37
860.98	227.37
861.29	227.35
861.60	227.28
861.91	227.30
862.22	227.30
862.53	227.29
862.84	227.18
863.16	227.19
863.47	227.14
863.78	227.14
864.09	227.15
864.40	227.16
864.71	227.15
865.02	227.15
865.33	227.14
865.64	227.12
865.95	227.11
866.27	227.21
866.58	227.18
866.89	227.15
867.20	227.18
867.51	227.15
867.82	227.16
868.13	227.24
868.44	227.19
868.75	227.20
869.06	227.22
869.37	227.23
869.68	227.20
869.99	227.24
870.30	227.25
870.61	227.26
870.92	227.30
871.23	227.28
871.54	227.32
871.85	227.34
872.16	227.35
872.47	227.34
872.78	227.28
873.09	227.35
873.40	227.38
873.71	227.37
874.02	227.40
874.33	227.41
874.64	227.36
874.95	227.39
875.26	227.38
875.56	227.41
875.87	227.39
876.18	227.40
876.49	227.49
876.80	227.48
877.11	227.47
877.42	227.42
877.73	227.44
878.04	227.42
878.35	227.43
878.66	227.45
878.96	227.47
879.27	227.47
879.58	227.42
879.89	227.40
880.20	227.46
880.51	227.45
880.82	227.46
881.12	227.51
881.43	227.50
881.74	227.48
882.05	227.46
882.36	227.46
882.67	227.49
882.97	227.43
883.28	227.42
883.59	227.42
883.90	227.46
884.21	227.47
884.51	227.45
884.82	227.42
885.13	227.41
885.44	227.41
885.74	227.43
886.05	227.43
886.36	227.45
886.67	227.41
886.98	227.46
887.28	227.47
887.59	227.44
887.90	227.43
888.20	227.44
888.51	227.43
888.82	227.40
889.13	227.38
889.43	227.43
889.74	227.45
890.05	227.43
890.35	227.42
890.66	227.42
890.97	227.42
891.28	227.43
891.58	227.45
891.89	227.45
892.20	227.41
892.50	227.39
892.81	227.38
893.12	227.35
893.42	227.30
893.73	227.26
894.04	227.25
894.34	227.26
894.65	227.27
894.95	227.28
895.26	227.30
895.57	227.31
895.87	227.23
896.18	227.22
896.48	227.22
896.79	227.19
897.10	227.17
897.40	227.17
897.71	227.19
898.01	227.14
898.32	227.15
898.63	227.15
898.93	227.17
899.24	227.17
899.54	227.18
899.85	227.18
900.15	227.20
900.46	227.19
900.76	227.18
901.07	227.15
901.38	227.13
901.68	227.15
901.99	227.09
902.29	227.09
902.60	227.06
902.90	227.08
903.21	227.11
903.51	227.10
903.82	227.10
904.12	227.09
904.43	227.10
904.73	227.06
905.03	227.06
905.34	227.16
905.64	227.16
905.95	227.18
906.25	227.16
906.56	227.16
906.86	227.16
907.17	227.13
907.47	227.16
907.77	227.14
908.08	227.10
908.38	227.13
908.69	227.13
908.99	227.16
909.30	227.14
909.60	227.11
909.90	227.13
910.21	227.10
910.51	227.08
910.81	227.08
911.12	227.10
911.42	227.10
911.73	226.97
912.03	226.98
912.33	227.00
912.64	227.00
912.94	226.98
913.24	226.97
913.55	226.97
913.85	226.96
914.15	227.01
914.46	227.05
914.76	227.02
915.06	227.01
915.37	226.97
915.67	227.00
915.97	227.02
916.27	227.00
916.58	227.03
916.88	227.03
917.18	227.06
917.49	227.13
917.79	227.17
918.09	227.20
918.39	227.23
918.70	227.22
919.00	227.22
919.30	227.28
919.60	227.29
919.91	227.30
920.21	227.31
920.51	227.29
920.81	227.26
921.12	227.28
921.42	227.29
921.72	227.32
922.02	227.29
922.32	227.33
922.63	227.33
922.93	227.36
923.23	227.38
923.53	227.33
923.83	227.24
924.13	227.23
924.44	227.23
924.74	227.21
925.04	227.22
925.34	227.21
925.64	227.17
925.94	227.15
926.24	227.23
926.55	227.22
926.85	227.24
927.15	227.21
927.45	227.21
927.75	227.21
928.05	227.22
928.35	227.22
928.65	227.22
928.95	227.25
929.26	227.22
929.56	227.22
929.86	227.24
930.16	227.30
930.46	227.27
930.76	227.28
931.06	227.23
931.36	227.22
931.66	227.28
931.96	227.29
932.26	227.34
932.56	227.27
932.86	227.28
933.16	227.32
933.46	227.36
933.76	227.34
934.06	227.37
934.36	227.40
934.66	227.39
934.96	227.39
935.26	227.36
935.56	227.35
935.86	227.33
936.16	227.33
936.46	227.30
936.76	227.32
937.06	227.30
937.36	227.33
937.66	227.34
937.96	227.28
938.26	227.25
938.56	227.22
938.86	227.22
939.16	227.22
939.46	227.20
939.76	227.17
940.06	227.19
940.35	227.15
940.65	227.10
940.95	227.09
941.25	227.03
941.55	227.02
941.85	227.03
942.15	227.03
942.45	227.03
942.75	227.02
943.04	227.00
943.34	227.04
943.64	226.99
943.94	227.00
944.24	227.02
944.54	227.04
944.84	227.03
945.13	226.99
945.43	226.95
945.73	226.94
946.03	226.92
946.33	226.89
946.62	226.90
946.92	226.88
947.22	226.88
947.52	226.91
947.82	226.92
948.11	226.89
948.41	226.88
948.71	226.85
949.01	226.86
949.31	226.85
949.60	226.85
949.90	226.86
950.20	226.81
950.50	226.81
950.79	226.79
951.09	226.79
951.39	226.82
951.69	226.83
951.98	226.84
952.28	226.86
952.58	226.84
952.87	226.84
953.17	226.88
953.47	226.90
953.76	226.89
954.06	226.89
954.36	226.89
954.66	226.90
954.95	226.96
955.25	226.98
955.55	227.00
955.84	226.95
956.14	226.95
956.44	226.99
956.73	226.95
957.03	226.94
957.32	226.98
957.62	226.96
957.92	226.97
958.21	226.98
958.51	227.07
958.81	227.11
959.10	227.08
959.40	227.07
959.69	227.06
959.99	227.09
960.29	227.08
960.58	227.06
960.88	227.08
961.17	227.04
961.47	227.02
961.76	227.03
962.06	227.09
962.36	227.10
962.65	227.12
962.95	227.14
963.24	227.15
963.54	227.14
963.83	227.16
964.13	227.15
964.42	227.13
964.72	227.09
965.01	227.07
965.31	227.09
965.60	227.07
965.90	227.14
966.19	227.13
966.49	227.11
966.78	227.11
967.08	227.11
967.37	227.11
967.67	227.12
967.96	227.10
968.26	227.08
968.55	227.10
968.85	227.07
969.14	227.04
969.43	227.06
969.73	227.03
970.02	227.05
970.32	227.06
970.61	227.03
970.91	227.02
971.20	227.00
971.49	227.01
971.79	227.05
972.08	226.98
972.38	226.99
972.67	226.98
972.96	226.98
973.26	226.97
973.55	227.00
973.85	226.98
974.14	226.93
974.43	226.94
974.73	226.90
975.02	226.92
975.31	226.92
975.61	226.88
975.90	226.88
976.19	226.85
976.49	226.86
976.78	226.86
977.07	226.85
977.37	226.85
977.66	226.87
977.95	226.82
978.24	226.83
978.54	226.83
978.83	226.83
979.12	226.81
979.42	226.82
979.71	226.79
980.00	226.83
980.29	226.84
980.59	226.79
980.88	226.80
981.17	226.78
981.46	226.81
981.76	226.86
982.05	226.86
982.34	226.88
982.63	226.86
982.93	226.91
983.22	226.95
983.51	226.95
983.80	226.90
984.09	226.95
984.39	226.94
984.68	226.93
984.97	226.97
985.26	226.99
985.55	226.95
985.85	226.93
986.14	226.90
986.43	226.96
986.72	226.97
987.01	226.99
987.30	226.97
987.59	226.92
987.89	226.93
988.18	226.92
988.47	226.91
988.76	226.89
989.05	226.84
989.34	226.81
989.63	226.82
989.92	226.85
990.22	226.81
990.51	226.81
990.80	226.81
991.09	226.81
991.38	226.82
991.67	226.84
991.96	226.85
992.25	226.85
992.54	226.82
992.83	226.82
993.12	226.81
993.41	226.85
993.70	226.90
993.99	226.88
994.28	226.89
994.58	226.90
994.87	226.94
995.16	226.95
995.45	226.94
995.74	226.94
996.03	226.94
996.32	226.95
996.61	227.00
996.90	226.99
997.19	226.99
997.48	226.99
997.77	226.98
998.06	227.00
998.34	226.99
998.63	226.98
998.92	226.99
999.21	227.00
999.50	227.02
999.79	227.02
1000.08	227.01
1000.37	227.03
1000.66	227.05
1000.95	227.03
1001.24	227.05
1001.53	227.08
1001.82	227.12
1002.11	227.13
1002.40	227.14
1002.68	227.14
1002.97	227.22
1003.26	227.17
1003.55	227.16
1003.84	227.18
1004.13	227.18
1004.42	227.23
1004.71	227.23
1004.99	227.24
1005.28	227.24
1005.57	227.21
1005.86	227.17
1006.15	227.21
1006.44	227.18
1006.72	227.17
1007.01	227.13
1007.30	227.12
1007.59	227.11
1007.88	227.08
1008.17	227.06
1008.45	227.03
1008.74	226.98
1009.03	226.92
1009.32	226.95
1009.60	226.95
1009.89	226.92
1010.18	226.90
1010.47	226.85
1010.76	226.86
1011.04	226.85
1011.33	226.86
1011.62	226.88
1011.91	226.88
1012.19	226.86
1012.48	226.84
1012.77	226.83
1013.05	226.89
1013.34	226.89
1013.63	226.85
1013.92	226.87
1014.20	226.87
1014.49	226.87
1014.78	226.86
1015.06	226.83
1015.35	226.82
1015.64	226.82
1015.92	226.84
1016.21	226.83
1016.50	226.82
1016.78	226.80
1017.07	226.78
1017.36	226.76
1017.64	226.73
1017.93	226.74
1018.22	226.72
1018.50	226.73
1018.79	226.73
1019.08	226.67
1019.36	226.65
1019.65	226.69
1019.93	226.69
1020.22	226.71
1020.51	226.77
1020.79	226.73
1021.08	226.60
1021.36	226.89
1021.65	226.65
1021.94	226.34
1022.22	226.56
1022.51	227.01
1022.79	227.39
1023.08	227.19
1023.36	228.07
1023.65	225.74
>>>>>End Processed Spectral Data<<<<<
