SpectraSuite Data File
++++++++++++++++++++++++++++++++++++
Date: Fri Feb 01 15:55:36 EST 2013
User: group
Dark Spectrum Present: No
Reference Spectrum Present: No
Number of Sampled Component Spectra: 1
Spectrometers: USB2E7196
Integration Time (usec): 35000 (USB2E7196)
Spectra Averaged: 100 (USB2E7196)
Boxcar Smoothing: 10 (USB2E7196)
Correct for Electrical Dark: No (USB2E7196)
Strobe/Lamp Enabled: No (USB2E7196)
Correct for Detector Non-linearity: No (USB2E7196)
Correct for Stray Light: No (USB2E7196)
Number of Pixels in Processed Spectrum: 2048
>>>>>Begin Processed Spectral Data<<<<<
339.09	0.00
339.48	215.10
339.86	216.23
340.24	217.31
340.63	218.83
341.01	222.25
341.39	221.43
341.78	222.97
342.16	223.51
342.54	224.90
342.93	213.05
343.31	223.80
343.69	224.35
344.07	224.79
344.46	225.22
344.84	225.61
345.22	225.82
345.60	226.07
345.99	226.25
346.37	226.43
346.75	226.51
347.13	226.63
347.52	226.74
347.90	226.79
348.28	226.84
348.66	226.88
349.05	226.85
349.43	226.93
349.81	226.94
350.19	226.98
350.57	227.03
350.96	227.09
351.34	227.19
351.72	227.28
352.10	227.42
352.48	227.50
352.87	227.55
353.25	227.62
353.63	227.69
354.01	227.77
354.39	227.83
354.77	227.90
355.15	227.96
355.54	227.97
355.92	228.00
356.30	228.07
356.68	228.22
357.06	228.29
357.44	228.37
357.82	228.43
358.20	228.50
358.58	228.54
358.97	228.64
359.35	228.72
359.73	228.74
360.11	228.78
360.49	228.85
360.87	228.90
361.25	228.97
361.63	229.03
362.01	229.05
362.39	229.10
362.77	229.15
363.15	229.19
363.53	229.22
363.91	229.27
364.29	229.30
364.67	229.19
365.05	229.23
365.43	229.20
365.81	229.22
366.19	229.24
366.57	229.30
366.95	229.28
367.33	229.21
367.71	229.22
368.09	229.24
368.47	229.18
368.85	229.16
369.23	229.16
369.61	229.10
369.99	229.15
370.37	229.10
370.75	229.12
371.13	229.05
371.51	229.00
371.89	228.99
372.27	228.92
372.65	228.89
373.03	228.81
373.41	228.77
373.78	228.73
374.16	228.64
374.54	228.56
374.92	228.49
375.30	228.44
375.68	228.36
376.06	228.27
376.44	228.20
376.82	228.13
377.19	228.05
377.57	227.99
377.95	227.89
378.33	227.79
378.71	227.69
379.09	227.63
379.47	227.63
379.84	227.52
380.22	227.48
380.60	227.40
380.98	227.33
381.36	227.25
381.73	227.17
382.11	227.13
382.49	227.05
382.87	227.00
383.25	226.97
383.62	227.00
384.00	226.93
384.38	226.89
384.76	226.85
385.13	226.80
385.51	226.72
385.89	226.66
386.27	226.66
386.64	226.60
387.02	226.57
387.40	226.49
387.78	226.48
388.15	226.42
388.53	226.36
388.91	226.33
389.29	226.30
389.66	226.27
390.04	226.24
390.42	226.22
390.79	226.16
391.17	226.16
391.55	226.03
391.92	226.04
392.30	226.04
392.68	226.04
393.05	226.05
393.43	226.08
393.81	226.09
394.18	226.06
394.56	226.08
394.94	226.09
395.31	226.11
395.69	226.12
396.06	226.16
396.44	226.19
396.82	226.23
397.19	226.32
397.57	226.34
397.95	226.38
398.32	226.41
398.70	226.52
399.07	226.58
399.45	226.65
399.82	226.71
400.20	226.80
400.58	226.86
400.95	226.87
401.33	226.98
401.70	227.12
402.08	227.26
402.45	227.33
402.83	227.45
403.20	227.56
403.58	227.69
403.95	227.82
404.33	227.96
404.71	228.13
405.08	228.27
405.46	228.41
405.83	228.60
406.21	228.79
406.58	228.95
406.96	229.06
407.33	229.26
407.70	229.44
408.08	229.68
408.45	229.90
408.83	230.14
409.20	230.36
409.58	230.53
409.95	230.78
410.33	231.02
410.70	231.28
411.08	231.55
411.45	231.84
411.82	232.15
412.20	232.52
412.57	232.90
412.95	233.21
413.32	233.62
413.69	233.99
414.07	234.43
414.44	234.90
414.82	235.43
415.19	235.98
415.56	236.56
415.94	237.11
416.31	237.76
416.68	238.40
417.06	239.09
417.43	239.78
417.81	240.54
418.18	241.36
418.55	242.20
418.93	243.08
419.30	243.99
419.67	244.98
420.04	245.93
420.42	246.92
420.79	248.13
421.16	249.29
421.54	250.49
421.91	251.67
422.28	252.91
422.66	254.21
423.03	255.47
423.40	256.78
423.77	258.17
424.15	259.56
424.52	261.05
424.89	262.65
425.26	264.17
425.64	265.64
426.01	267.22
426.38	268.87
426.75	270.54
427.13	272.26
427.50	274.04
427.87	275.92
428.24	277.77
428.61	279.52
428.99	281.41
429.36	283.53
429.73	285.57
430.10	287.62
430.47	289.71
430.85	291.85
431.22	294.10
431.59	296.47
431.96	298.72
432.33	301.21
432.70	303.61
433.08	306.50
433.45	309.09
433.82	311.69
434.19	314.58
434.56	317.40
434.93	320.01
435.30	322.61
435.68	325.48
436.05	328.34
436.42	331.09
436.79	333.65
437.16	336.30
437.53	339.13
437.90	341.88
438.27	344.55
438.64	347.38
439.01	349.99
439.38	352.21
439.75	354.34
440.13	356.82
440.50	359.10
440.87	360.91
441.24	362.89
441.61	365.06
441.98	366.53
442.35	368.29
442.72	370.16
443.09	371.98
443.46	373.02
443.83	373.57
444.20	374.12
444.57	374.96
444.94	375.25
445.31	375.56
445.68	375.95
446.05	376.08
446.42	375.65
446.79	375.21
447.16	374.78
447.53	374.49
447.90	373.37
448.27	372.23
448.64	370.65
449.01	369.49
449.37	367.51
449.74	365.61
450.11	363.41
450.48	360.95
450.85	358.40
451.22	356.22
451.59	354.21
451.96	352.23
452.33	349.63
452.70	347.27
453.07	344.45
453.43	341.53
453.80	338.73
454.17	336.08
454.54	333.54
454.91	330.82
455.28	328.13
455.65	325.60
456.02	323.17
456.38	320.98
456.75	318.29
457.12	316.05
457.49	313.86
457.86	311.68
458.23	309.82
458.59	307.81
458.96	305.73
459.33	303.85
459.70	302.01
460.07	300.50
460.43	298.77
460.80	297.17
461.17	295.75
461.54	294.29
461.91	292.88
462.27	291.42
462.64	290.22
463.01	288.87
463.38	287.58
463.74	286.23
464.11	285.10
464.48	284.08
464.85	283.02
465.21	282.13
465.58	281.20
465.95	280.14
466.32	279.26
466.68	278.36
467.05	277.50
467.42	276.62
467.78	275.70
468.15	274.87
468.52	274.19
468.88	273.33
469.25	272.58
469.62	271.97
469.98	271.29
470.35	270.65
470.72	270.08
471.08	269.45
471.45	268.92
471.82	268.35
472.18	267.77
472.55	267.32
472.92	266.79
473.28	266.34
473.65	265.87
474.02	265.42
474.38	265.07
474.75	264.73
475.11	264.38
475.48	264.15
475.85	263.92
476.21	263.73
476.58	263.59
476.94	263.46
477.31	263.28
477.67	263.14
478.04	263.03
478.41	262.95
478.77	263.00
479.14	262.96
479.50	262.98
479.87	263.05
480.23	263.13
480.60	263.22
480.96	263.30
481.33	263.50
481.69	263.68
482.06	263.88
482.42	264.08
482.79	264.33
483.15	264.65
483.52	265.03
483.88	265.35
484.25	265.73
484.61	266.14
484.98	266.63
485.34	267.21
485.71	267.81
486.07	268.41
486.44	268.96
486.80	269.61
487.17	270.33
487.53	271.15
487.90	272.01
488.26	272.94
488.62	273.92
488.99	274.88
489.35	275.91
489.72	277.02
490.08	278.21
490.44	279.41
490.81	280.74
491.17	282.12
491.54	283.60
491.90	285.12
492.26	286.76
492.63	288.44
492.99	290.17
493.36	292.06
493.72	294.14
494.08	296.23
494.45	298.49
494.81	300.86
495.17	303.31
495.54	305.84
495.90	308.55
496.26	311.36
496.63	314.33
496.99	317.45
497.35	320.68
497.72	324.08
498.08	327.61
498.44	331.23
498.80	335.10
499.17	339.13
499.53	343.30
499.89	347.65
500.26	352.18
500.62	356.88
500.98	361.87
501.34	366.91
501.71	372.29
502.07	377.73
502.43	383.33
502.79	389.14
503.16	395.24
503.52	401.50
503.88	407.93
504.24	414.61
504.60	421.53
504.97	428.65
505.33	436.04
505.69	443.71
506.05	451.49
506.41	459.43
506.78	467.62
507.14	476.09
507.50	484.81
507.86	493.88
508.22	503.15
508.59	512.32
508.95	521.91
509.31	531.73
509.67	541.87
510.03	552.19
510.39	562.71
510.75	573.52
511.12	584.44
511.48	595.74
511.84	607.20
512.20	618.75
512.56	630.78
512.92	642.91
513.28	655.31
513.64	667.80
514.00	680.53
514.37	693.45
514.73	706.51
515.09	719.58
515.45	732.86
515.81	746.35
516.17	760.34
516.53	774.51
516.89	788.62
517.25	802.71
517.61	817.06
517.97	831.62
518.33	845.99
518.69	860.76
519.05	875.72
519.41	890.90
519.77	906.37
520.13	921.73
520.49	937.12
520.85	952.48
521.21	968.23
521.57	984.45
521.93	1000.16
522.29	1016.43
522.65	1032.62
523.01	1048.78
523.37	1064.86
523.73	1080.96
524.09	1097.00
524.45	1113.39
524.81	1130.10
525.17	1147.01
525.53	1163.88
525.89	1180.86
526.25	1197.69
526.61	1214.10
526.97	1230.76
527.33	1247.23
527.68	1263.83
528.04	1280.23
528.40	1296.85
528.76	1313.94
529.12	1330.45
529.48	1347.29
529.84	1363.44
530.20	1380.07
530.56	1397.15
530.91	1414.54
531.27	1431.35
531.63	1447.75
531.99	1464.24
532.35	1480.09
532.71	1495.93
533.07	1512.15
533.42	1527.94
533.78	1543.88
534.14	1560.08
534.50	1575.47
534.86	1591.28
535.21	1606.34
535.57	1622.29
535.93	1637.70
536.29	1652.40
536.65	1667.47
537.00	1682.26
537.36	1697.51
537.72	1711.97
538.08	1726.13
538.44	1739.84
538.79	1753.63
539.15	1767.24
539.51	1780.92
539.87	1795.30
540.22	1809.02
540.58	1822.67
540.94	1835.95
541.29	1848.92
541.65	1861.44
542.01	1874.53
542.37	1886.85
542.72	1899.47
543.08	1911.34
543.44	1923.72
543.79	1934.87
544.15	1945.82
544.51	1957.46
544.87	1968.35
545.22	1979.16
545.58	1989.50
545.94	1999.27
546.29	2009.07
546.65	2018.95
547.01	2028.27
547.36	2036.88
547.72	2045.13
548.07	2052.95
548.43	2061.13
548.79	2069.15
549.14	2076.81
549.50	2084.19
549.86	2091.89
550.21	2099.10
550.57	2106.08
550.92	2112.70
551.28	2119.73
551.64	2126.71
551.99	2133.10
552.35	2139.21
552.70	2145.30
553.06	2151.24
553.41	2157.56
553.77	2163.71
554.13	2169.79
554.48	2175.91
554.84	2181.44
555.19	2187.09
555.55	2192.18
555.90	2196.59
556.26	2201.40
556.61	2206.13
556.97	2210.35
557.32	2214.46
557.68	2218.54
558.03	2222.86
558.39	2226.71
558.74	2231.33
559.10	2235.25
559.45	2238.86
559.81	2243.27
560.16	2247.17
560.52	2250.39
560.87	2253.70
561.23	2256.25
561.58	2259.31
561.94	2261.89
562.29	2264.34
562.64	2266.85
563.00	2269.53
563.35	2273.09
563.71	2276.21
564.06	2279.51
564.42	2282.25
564.77	2284.73
565.12	2286.99
565.48	2288.91
565.83	2290.55
566.19	2291.91
566.54	2292.73
566.89	2293.97
567.25	2294.57
567.60	2295.80
567.96	2297.51
568.31	2298.52
568.66	2299.64
569.02	2299.96
569.37	2300.21
569.72	2300.98
570.08	2301.12
570.43	2301.23
570.78	2300.59
571.14	2299.04
571.49	2297.68
571.84	2297.57
572.20	2296.52
572.55	2295.52
572.90	2293.97
573.26	2292.68
573.61	2290.96
573.96	2289.29
574.31	2286.24
574.67	2283.15
575.02	2279.58
575.37	2276.20
575.72	2272.35
576.08	2269.03
576.43	2265.89
576.78	2262.16
577.13	2259.03
577.49	2255.96
577.84	2252.41
578.19	2248.78
578.54	2245.21
578.90	2240.99
579.25	2235.38
579.60	2230.38
579.95	2225.39
580.30	2220.44
580.66	2215.16
581.01	2210.30
581.36	2205.54
581.71	2201.40
582.06	2196.93
582.42	2192.43
582.77	2187.21
583.12	2182.73
583.47	2178.03
583.82	2173.00
584.17	2167.81
584.53	2162.43
584.88	2156.73
585.23	2150.96
585.58	2145.45
585.93	2139.95
586.28	2135.18
586.63	2130.13
586.98	2125.18
587.34	2120.36
587.69	2115.44
588.04	2110.13
588.39	2104.40
588.74	2097.76
589.09	2091.72
589.44	2085.02
589.79	2079.08
590.14	2073.44
590.49	2066.79
590.84	2060.41
591.19	2054.36
591.54	2047.86
591.89	2040.39
592.25	2033.59
592.60	2026.31
592.95	2018.59
593.30	2011.31
593.65	2003.68
594.00	1996.47
594.35	1989.20
594.70	1981.23
595.05	1974.05
595.40	1966.94
595.75	1959.47
596.10	1953.22
596.45	1946.42
596.80	1940.17
597.15	1933.51
597.50	1926.57
597.85	1920.17
598.19	1913.48
598.54	1906.39
598.89	1899.84
599.24	1893.93
599.59	1887.20
599.94	1881.08
600.29	1874.92
600.64	1868.30
600.99	1860.74
601.34	1854.02
601.69	1847.01
602.04	1840.22
602.39	1832.71
602.74	1825.85
603.08	1819.07
603.43	1812.44
603.78	1805.09
604.13	1797.94
604.48	1790.61
604.83	1783.75
605.18	1776.72
605.53	1768.64
605.87	1760.60
606.22	1753.29
606.57	1745.30
606.92	1738.06
607.27	1730.86
607.62	1723.81
607.96	1716.52
608.31	1709.98
608.66	1702.36
609.01	1694.79
609.36	1687.09
609.70	1679.25
610.05	1671.22
610.40	1663.50
610.75	1655.06
611.10	1647.41
611.44	1639.04
611.79	1631.18
612.14	1622.38
612.49	1613.29
612.83	1605.02
613.18	1596.85
613.53	1588.86
613.88	1580.17
614.22	1571.80
614.57	1563.17
614.92	1555.22
615.27	1547.72
615.61	1539.39
615.96	1531.45
616.31	1523.90
616.65	1516.60
617.00	1508.95
617.35	1501.31
617.70	1492.99
618.04	1484.58
618.39	1476.30
618.74	1468.54
619.08	1460.08
619.43	1452.51
619.78	1445.64
620.12	1438.41
620.47	1430.86
620.82	1422.65
621.16	1415.47
621.51	1407.89
621.85	1400.23
622.20	1391.64
622.55	1383.17
622.89	1375.33
623.24	1367.67
623.59	1360.21
623.93	1352.61
624.28	1345.37
624.62	1337.73
624.97	1330.62
625.32	1323.88
625.66	1316.83
626.01	1309.76
626.35	1302.41
626.70	1294.67
627.04	1286.82
627.39	1279.03
627.73	1271.74
628.08	1264.76
628.43	1257.34
628.77	1249.95
629.12	1242.48
629.46	1235.43
629.81	1228.08
630.15	1220.81
630.50	1213.33
630.84	1205.18
631.19	1197.29
631.53	1189.83
631.88	1182.35
632.22	1174.67
632.57	1167.35
632.91	1159.93
633.26	1152.47
633.60	1145.09
633.95	1138.04
634.29	1130.99
634.64	1124.41
634.98	1117.03
635.32	1109.85
635.67	1103.38
636.01	1096.82
636.36	1089.97
636.70	1083.37
637.05	1076.76
637.39	1070.33
637.73	1063.88
638.08	1058.02
638.42	1052.01
638.77	1045.54
639.11	1038.95
639.45	1032.53
639.80	1025.79
640.14	1019.35
640.49	1012.84
640.83	1006.49
641.17	1000.22
641.52	993.88
641.86	987.41
642.20	981.53
642.55	975.28
642.89	968.74
643.23	962.17
643.58	956.42
643.92	950.37
644.26	944.32
644.61	938.31
644.95	932.26
645.29	925.55
645.64	918.83
645.98	912.54
646.32	906.66
646.66	900.75
647.01	895.09
647.35	889.38
647.69	883.56
648.04	878.08
648.38	872.29
648.72	866.28
649.06	860.22
649.41	854.35
649.75	848.34
650.09	842.49
650.43	836.69
650.78	830.49
651.12	824.50
651.46	818.75
651.80	813.00
652.14	807.69
652.49	802.37
652.83	797.18
653.17	791.42
653.51	785.71
653.85	780.27
654.20	774.55
654.54	768.56
654.88	762.73
655.22	756.82
655.56	751.09
655.90	745.73
656.25	740.49
656.59	735.15
656.93	730.08
657.27	724.86
657.61	719.46
657.95	714.44
658.29	709.34
658.64	704.12
658.98	698.79
659.32	693.23
659.66	688.01
660.00	682.66
660.34	677.76
660.68	672.84
661.02	667.78
661.36	663.10
661.70	658.48
662.05	654.21
662.39	649.88
662.73	645.43
663.07	641.04
663.41	636.61
663.75	632.16
664.09	627.61
664.43	623.13
664.77	618.98
665.11	614.68
665.45	610.54
665.79	606.45
666.13	602.33
666.47	598.27
666.81	594.11
667.15	590.05
667.49	586.16
667.83	582.33
668.17	578.41
668.51	574.25
668.85	570.33
669.19	566.52
669.53	562.62
669.87	558.73
670.21	555.00
670.55	551.33
670.89	547.84
671.23	544.42
671.57	540.98
671.91	537.48
672.25	533.98
672.58	530.39
672.92	526.96
673.26	523.77
673.60	520.63
673.94	517.53
674.28	514.61
674.62	511.62
674.96	508.55
675.30	505.64
675.64	502.77
675.97	500.00
676.31	497.11
676.65	494.24
676.99	491.49
677.33	488.62
677.67	485.83
678.01	482.77
678.34	479.79
678.68	476.91
679.02	474.05
679.36	471.34
679.70	468.65
680.04	465.93
680.37	463.06
680.71	460.26
681.05	457.65
681.39	454.96
681.73	452.30
682.06	449.74
682.40	447.21
682.74	444.65
683.08	442.10
683.42	439.47
683.75	437.01
684.09	434.49
684.43	432.02
684.77	429.57
685.10	427.27
685.44	424.97
685.78	422.64
686.12	420.39
686.45	418.08
686.79	415.78
687.13	413.62
687.46	411.51
687.80	409.37
688.14	407.14
688.48	405.03
688.81	402.79
689.15	400.69
689.49	398.54
689.82	396.51
690.16	394.46
690.50	392.54
690.83	390.57
691.17	388.60
691.51	386.74
691.84	384.88
692.18	382.92
692.52	380.95
692.85	379.08
693.19	377.26
693.52	375.46
693.86	373.64
694.20	371.81
694.53	369.96
694.87	368.17
695.21	366.37
695.54	364.61
695.88	362.91
696.21	361.15
696.55	359.48
696.88	357.77
697.22	356.12
697.56	354.52
697.89	352.85
698.23	351.24
698.56	349.58
698.90	347.99
699.23	346.37
699.57	344.85
699.90	343.32
700.24	341.75
700.58	340.18
700.91	338.69
701.25	337.30
701.58	335.92
701.92	334.54
702.25	333.17
702.59	331.78
702.92	330.45
703.26	329.16
703.59	327.89
703.93	326.66
704.26	325.41
704.60	324.09
704.93	322.76
705.26	321.51
705.60	320.36
705.93	319.17
706.27	318.11
706.60	317.01
706.94	315.92
707.27	314.80
707.61	313.72
707.94	312.69
708.27	311.55
708.61	310.45
708.94	309.43
709.28	308.49
709.61	307.54
709.94	306.58
710.28	305.56
710.61	304.53
710.95	303.47
711.28	302.51
711.61	301.53
711.95	300.68
712.28	299.72
712.61	298.74
712.95	297.84
713.28	296.93
713.61	296.00
713.95	295.10
714.28	294.24
714.61	293.38
714.95	292.53
715.28	291.67
715.61	290.85
715.95	289.96
716.28	289.08
716.61	288.25
716.95	287.43
717.28	286.66
717.61	285.95
717.94	285.22
718.28	284.44
718.61	283.70
718.94	282.97
719.27	282.32
719.61	281.67
719.94	281.00
720.27	280.33
720.60	279.68
720.94	279.02
721.27	278.43
721.60	277.87
721.93	277.29
722.27	276.73
722.60	276.16
722.93	275.57
723.26	275.04
723.59	274.47
723.93	273.95
724.26	273.42
724.59	272.81
724.92	272.29
725.25	271.81
725.59	271.36
725.92	270.89
726.25	270.42
726.58	269.91
726.91	269.39
727.24	268.90
727.57	268.44
727.91	267.94
728.24	267.48
728.57	266.98
728.90	266.52
729.23	266.05
729.56	265.62
729.89	265.19
730.22	264.68
730.55	264.25
730.89	263.79
731.22	263.35
731.55	262.93
731.88	262.53
732.21	262.13
732.54	261.68
732.87	261.24
733.20	260.85
733.53	260.50
733.86	260.16
734.19	259.76
734.52	259.43
734.85	259.14
735.18	258.72
735.51	258.38
735.84	258.03
736.17	257.67
736.50	257.28
736.83	257.04
737.16	256.72
737.49	256.36
737.82	256.00
738.15	255.68
738.48	255.36
738.81	255.00
739.14	254.63
739.47	254.30
739.80	254.00
740.13	253.68
740.46	253.33
740.79	252.97
741.12	252.66
741.45	252.31
741.78	251.95
742.11	251.63
742.44	251.32
742.77	251.01
743.10	250.69
743.43	250.39
743.75	250.02
744.08	249.88
744.41	249.63
744.74	249.39
745.07	249.08
745.40	248.84
745.73	248.59
746.06	248.31
746.39	248.04
746.71	247.75
747.04	247.48
747.37	247.23
747.70	247.02
748.03	246.78
748.36	246.55
748.68	246.31
749.01	246.08
749.34	245.84
749.67	245.60
750.00	245.40
750.33	245.24
750.65	245.02
750.98	244.67
751.31	244.43
751.64	244.17
751.97	244.00
752.29	243.78
752.62	243.52
752.95	243.32
753.28	243.11
753.60	242.94
753.93	242.74
754.26	242.49
754.59	242.25
754.91	242.02
755.24	241.84
755.57	241.66
755.90	241.47
756.22	241.27
756.55	241.05
756.88	240.85
757.20	240.64
757.53	240.42
757.86	240.24
758.19	240.09
758.51	239.96
758.84	239.76
759.17	239.58
759.49	239.43
759.82	239.33
760.15	239.21
760.47	239.04
760.80	238.89
761.13	238.81
761.45	238.70
761.78	238.57
762.11	238.44
762.43	238.29
762.76	238.20
763.08	238.09
763.41	238.02
763.74	237.92
764.06	237.79
764.39	237.69
764.71	237.57
765.04	237.41
765.37	237.26
765.69	237.12
766.02	236.98
766.34	236.86
766.67	236.68
767.00	236.56
767.32	236.51
767.65	236.43
767.97	236.30
768.30	236.16
768.62	236.07
768.95	235.89
769.27	235.80
769.60	235.71
769.92	235.59
770.25	235.45
770.57	235.35
770.90	235.23
771.22	235.13
771.55	235.03
771.87	234.94
772.20	234.84
772.52	234.84
772.85	234.89
773.17	234.81
773.50	234.73
773.82	234.63
774.15	234.46
774.47	234.33
774.80	234.22
775.12	234.13
775.45	234.03
775.77	233.98
776.09	233.85
776.42	233.75
776.74	233.69
777.07	233.60
777.39	233.50
777.72	233.43
778.04	233.35
778.36	233.25
778.69	233.20
779.01	233.17
779.33	233.04
779.66	232.83
779.98	232.77
780.31	232.70
780.63	232.65
780.95	232.62
781.28	232.50
781.60	232.43
781.92	232.39
782.25	232.32
782.57	232.24
782.89	232.17
783.22	232.08
783.54	231.99
783.86	231.95
784.19	231.89
784.51	231.82
784.83	231.77
785.16	231.70
785.48	231.66
785.80	231.59
786.12	231.54
786.45	231.52
786.77	231.47
787.09	231.44
787.42	231.38
787.74	231.35
788.06	231.36
788.38	231.29
788.71	231.26
789.03	231.21
789.35	231.19
789.67	231.14
789.99	231.11
790.32	231.07
790.64	231.04
790.96	231.08
791.28	231.03
791.61	230.97
791.93	230.94
792.25	230.86
792.57	230.90
792.89	230.85
793.21	230.80
793.54	230.75
793.86	230.69
794.18	230.63
794.50	230.59
794.82	230.55
795.14	230.55
795.47	230.51
795.79	230.49
796.11	230.44
796.43	230.44
796.75	230.39
797.07	230.35
797.39	230.29
797.71	230.21
798.04	230.16
798.36	230.13
798.68	230.13
799.00	230.10
799.32	230.00
799.64	229.96
799.96	229.92
800.28	229.90
800.60	229.87
800.92	229.88
801.24	229.82
801.56	229.82
801.89	229.80
802.21	229.76
802.53	229.73
802.85	229.70
803.17	229.73
803.49	229.67
803.81	229.65
804.13	229.67
804.45	229.61
804.77	229.62
805.09	229.56
805.41	229.52
805.73	229.51
806.05	229.48
806.37	229.46
806.69	229.41
807.01	229.36
807.33	229.36
807.65	229.30
807.97	229.32
808.28	229.26
808.60	229.21
808.92	229.17
809.24	229.19
809.56	229.17
809.88	229.10
810.20	229.10
810.52	229.09
810.84	229.00
811.16	228.98
811.48	228.93
811.80	228.98
812.12	228.95
812.43	228.92
812.75	228.88
813.07	228.86
813.39	228.86
813.71	228.82
814.03	228.78
814.35	228.72
814.67	228.66
814.98	228.64
815.30	228.65
815.62	228.62
815.94	228.54
816.26	228.56
816.58	228.53
816.89	228.51
817.21	228.45
817.53	228.46
817.85	228.45
818.17	228.42
818.48	228.35
818.80	228.35
819.12	228.33
819.44	228.31
819.76	228.26
820.07	228.22
820.39	228.20
820.71	228.20
821.03	228.21
821.34	228.19
821.66	228.19
821.98	228.15
822.30	228.14
822.61	228.17
822.93	228.10
823.25	228.08
823.57	228.05
823.88	228.10
824.20	228.06
824.52	228.09
824.83	228.07
825.15	228.05
825.47	228.06
825.79	228.09
826.10	228.05
826.42	228.04
826.74	228.06
827.05	228.07
827.37	228.08
827.69	228.06
828.00	228.04
828.32	228.03
828.64	228.03
828.95	228.07
829.27	228.06
829.58	228.06
829.90	228.09
830.22	228.12
830.53	228.04
830.85	228.01
831.17	227.96
831.48	227.94
831.80	227.95
832.11	227.92
832.43	227.86
832.75	227.87
833.06	227.95
833.38	227.90
833.69	227.86
834.01	227.84
834.32	227.84
834.64	227.83
834.96	227.81
835.27	227.79
835.59	227.75
835.90	227.72
836.22	227.68
836.53	227.63
836.85	227.59
837.16	227.71
837.48	227.69
837.79	227.71
838.11	227.69
838.42	227.69
838.74	227.70
839.05	227.72
839.37	227.72
839.68	227.64
840.00	227.67
840.31	227.69
840.63	227.67
840.94	227.65
841.26	227.63
841.57	227.65
841.88	227.67
842.20	227.65
842.51	227.65
842.83	227.67
843.14	227.74
843.46	227.71
843.77	227.63
844.08	227.66
844.40	227.64
844.71	227.64
845.03	227.63
845.34	227.62
845.65	227.61
845.97	227.59
846.28	227.62
846.60	227.60
846.91	227.59
847.22	227.57
847.54	227.58
847.85	227.58
848.16	227.53
848.48	227.51
848.79	227.53
849.10	227.54
849.42	227.52
849.73	227.43
850.04	227.44
850.36	227.41
850.67	227.39
850.98	227.37
851.30	227.38
851.61	227.38
851.92	227.35
852.23	227.36
852.55	227.33
852.86	227.31
853.17	227.30
853.49	227.29
853.80	227.33
854.11	227.34
854.42	227.34
854.74	227.32
855.05	227.30
855.36	227.25
855.67	227.23
855.99	227.26
856.30	227.37
856.61	227.37
856.92	227.35
857.23	227.36
857.55	227.34
857.86	227.32
858.17	227.32
858.48	227.29
858.79	227.26
859.11	227.27
859.42	227.25
859.73	227.22
860.04	227.20
860.35	227.16
860.66	227.09
860.98	227.07
861.29	227.08
861.60	227.09
861.91	227.13
862.22	227.15
862.53	227.10
862.84	226.99
863.16	227.03
863.47	227.02
863.78	227.03
864.09	227.06
864.40	227.05
864.71	227.02
865.02	227.05
865.33	227.03
865.64	227.02
865.95	227.03
866.27	227.09
866.58	227.08
866.89	227.09
867.20	227.11
867.51	227.11
867.82	227.14
868.13	227.14
868.44	227.10
868.75	227.07
869.06	227.07
869.37	227.07
869.68	227.04
869.99	227.07
870.30	227.05
870.61	227.06
870.92	227.03
871.23	227.05
871.54	227.06
871.85	227.11
872.16	227.13
872.47	227.12
872.78	227.07
873.09	227.09
873.40	227.09
873.71	227.10
874.02	227.10
874.33	227.04
874.64	227.03
874.95	227.04
875.26	227.01
875.56	227.02
875.87	227.01
876.18	227.01
876.49	227.09
876.80	227.09
877.11	227.06
877.42	227.10
877.73	227.10
878.04	227.06
878.35	227.05
878.66	227.03
878.96	227.03
879.27	227.05
879.58	227.09
879.89	227.08
880.20	227.09
880.51	227.09
880.82	227.11
881.12	227.11
881.43	227.09
881.74	227.10
882.05	227.12
882.36	227.15
882.67	227.13
882.97	227.04
883.28	227.05
883.59	227.03
883.90	227.07
884.21	227.09
884.51	227.09
884.82	227.07
885.13	227.08
885.44	227.12
885.74	227.07
886.05	227.03
886.36	227.05
886.67	227.02
886.98	227.10
887.28	227.08
887.59	227.07
887.90	227.09
888.20	227.07
888.51	227.08
888.82	227.06
889.13	227.06
889.43	227.15
889.74	227.11
890.05	227.11
890.35	227.11
890.66	227.07
890.97	227.06
891.28	227.05
891.58	227.05
891.89	227.01
892.20	227.01
892.50	227.00
892.81	226.96
893.12	226.95
893.42	226.88
893.73	226.91
894.04	226.93
894.34	226.95
894.65	226.95
894.95	226.89
895.26	226.90
895.57	226.95
895.87	226.86
896.18	226.90
896.48	226.89
896.79	226.85
897.10	226.88
897.40	226.89
897.71	226.90
898.01	226.88
898.32	226.89
898.63	226.91
898.93	226.90
899.24	226.92
899.54	226.91
899.85	226.91
900.15	226.88
900.46	226.86
900.76	226.82
901.07	226.84
901.38	226.87
901.68	226.86
901.99	226.79
902.29	226.79
902.60	226.74
902.90	226.76
903.21	226.76
903.51	226.73
903.82	226.76
904.12	226.77
904.43	226.77
904.73	226.77
905.03	226.76
905.34	226.85
905.64	226.84
905.95	226.85
906.25	226.89
906.56	226.89
906.86	226.91
907.17	226.95
907.47	226.94
907.77	226.93
908.08	226.93
908.38	226.97
908.69	226.97
908.99	227.01
909.30	227.02
909.60	227.02
909.90	227.03
910.21	227.00
910.51	226.98
910.81	227.01
911.12	227.02
911.42	227.02
911.73	226.94
912.03	226.94
912.33	227.00
912.64	226.95
912.94	226.98
913.24	226.96
913.55	226.92
913.85	226.93
914.15	226.94
914.46	226.93
914.76	226.91
915.06	226.92
915.37	226.87
915.67	226.86
915.97	226.87
916.27	226.84
916.58	226.86
916.88	226.86
917.18	226.83
917.49	226.90
917.79	226.92
918.09	226.92
918.39	226.94
918.70	226.91
919.00	226.94
919.30	226.97
919.60	226.98
919.91	226.99
920.21	227.00
920.51	226.98
920.81	227.00
921.12	227.04
921.42	227.01
921.72	227.05
922.02	227.03
922.32	227.04
922.63	227.05
922.93	227.07
923.23	227.09
923.53	227.10
923.83	227.02
924.13	227.03
924.44	227.04
924.74	227.06
925.04	227.08
925.34	227.04
925.64	226.99
925.94	226.99
926.24	227.01
926.55	226.98
926.85	227.00
927.15	227.01
927.45	226.96
927.75	226.98
928.05	226.97
928.35	226.94
928.65	226.90
928.95	226.90
929.26	226.85
929.56	226.88
929.86	226.90
930.16	226.90
930.46	226.91
930.76	226.87
931.06	226.83
931.36	226.79
931.66	226.79
931.96	226.81
932.26	226.78
932.56	226.75
932.86	226.78
933.16	226.75
933.46	226.71
933.76	226.72
934.06	226.76
934.36	226.78
934.66	226.80
934.96	226.80
935.26	226.81
935.56	226.83
935.86	226.81
936.16	226.78
936.46	226.76
936.76	226.71
937.06	226.72
937.36	226.72
937.66	226.74
937.96	226.74
938.26	226.68
938.56	226.68
938.86	226.72
939.16	226.72
939.46	226.76
939.76	226.75
940.06	226.74
940.35	226.67
940.65	226.63
940.95	226.62
941.25	226.63
941.55	226.61
941.85	226.60
942.15	226.61
942.45	226.63
942.75	226.63
943.04	226.66
943.34	226.63
943.64	226.66
943.94	226.60
944.24	226.62
944.54	226.67
944.84	226.65
945.13	226.62
945.43	226.61
945.73	226.63
946.03	226.66
946.33	226.66
946.62	226.68
946.92	226.70
947.22	226.74
947.52	226.75
947.82	226.80
948.11	226.80
948.41	226.83
948.71	226.79
949.01	226.80
949.31	226.82
949.60	226.86
949.90	226.86
950.20	226.90
950.50	226.90
950.79	226.90
951.09	226.95
951.39	226.95
951.69	226.96
951.98	226.97
952.28	226.97
952.58	226.95
952.87	226.95
953.17	226.95
953.47	226.95
953.76	226.93
954.06	226.90
954.36	226.89
954.66	226.86
954.95	226.90
955.25	226.91
955.55	226.87
955.84	226.83
956.14	226.83
956.44	226.81
956.73	226.80
957.03	226.77
957.32	226.76
957.62	226.75
957.92	226.78
958.21	226.78
958.51	226.87
958.81	226.94
959.10	226.98
959.40	227.02
959.69	227.00
959.99	227.06
960.29	227.07
960.58	227.06
960.88	227.09
961.17	227.11
961.47	227.08
961.76	227.10
962.06	227.14
962.36	227.10
962.65	227.12
962.95	227.14
963.24	227.15
963.54	227.14
963.83	227.15
964.13	227.12
964.42	227.06
964.72	226.99
965.01	226.98
965.31	226.93
965.60	226.91
965.90	226.98
966.19	226.94
966.49	226.94
966.78	226.96
967.08	226.94
967.37	226.91
967.67	226.92
967.96	226.92
968.26	226.92
968.55	226.96
968.85	226.95
969.14	226.96
969.43	226.97
969.73	226.96
970.02	226.94
970.32	226.94
970.61	226.94
970.91	226.92
971.20	226.89
971.49	226.88
971.79	226.89
972.08	226.80
972.38	226.81
972.67	226.79
972.96	226.79
973.26	226.78
973.55	226.82
973.85	226.81
974.14	226.85
974.43	226.84
974.73	226.82
975.02	226.81
975.31	226.79
975.61	226.79
975.90	226.80
976.19	226.85
976.49	226.84
976.78	226.83
977.07	226.80
977.37	226.79
977.66	226.83
977.95	226.80
978.24	226.82
978.54	226.81
978.83	226.77
979.12	226.75
979.42	226.77
979.71	226.72
980.00	226.72
980.29	226.70
980.59	226.67
980.88	226.67
981.17	226.69
981.46	226.67
981.76	226.65
982.05	226.65
982.34	226.60
982.63	226.59
982.93	226.59
983.22	226.63
983.51	226.63
983.80	226.60
984.09	226.61
984.39	226.59
984.68	226.58
984.97	226.57
985.26	226.55
985.55	226.54
985.85	226.54
986.14	226.56
986.43	226.55
986.72	226.55
987.01	226.51
987.30	226.48
987.59	226.47
987.89	226.50
988.18	226.48
988.47	226.52
988.76	226.52
989.05	226.53
989.34	226.51
989.63	226.52
989.92	226.53
990.22	226.53
990.51	226.52
990.80	226.50
991.09	226.52
991.38	226.55
991.67	226.54
991.96	226.50
992.25	226.48
992.54	226.47
992.83	226.49
993.12	226.50
993.41	226.50
993.70	226.53
993.99	226.50
994.28	226.52
994.58	226.50
994.87	226.48
995.16	226.45
995.45	226.42
995.74	226.41
996.03	226.42
996.32	226.43
996.61	226.45
996.90	226.46
997.19	226.44
997.48	226.43
997.77	226.40
998.06	226.41
998.34	226.39
998.63	226.38
998.92	226.38
999.21	226.39
999.50	226.41
999.79	226.34
1000.08	226.36
1000.37	226.37
1000.66	226.35
1000.95	226.38
1001.24	226.39
1001.53	226.39
1001.82	226.38
1002.11	226.35
1002.40	226.34
1002.68	226.38
1002.97	226.46
1003.26	226.46
1003.55	226.48
1003.84	226.51
1004.13	226.57
1004.42	226.56
1004.71	226.59
1004.99	226.56
1005.28	226.61
1005.57	226.61
1005.86	226.65
1006.15	226.63
1006.44	226.61
1006.72	226.62
1007.01	226.62
1007.30	226.64
1007.59	226.66
1007.88	226.67
1008.17	226.67
1008.45	226.66
1008.74	226.61
1009.03	226.54
1009.32	226.56
1009.60	226.53
1009.89	226.53
1010.18	226.48
1010.47	226.46
1010.76	226.43
1011.04	226.43
1011.33	226.42
1011.62	226.44
1011.91	226.46
1012.19	226.49
1012.48	226.50
1012.77	226.53
1013.05	226.57
1013.34	226.55
1013.63	226.53
1013.92	226.55
1014.20	226.54
1014.49	226.58
1014.78	226.61
1015.06	226.62
1015.35	226.63
1015.64	226.65
1015.92	226.66
1016.21	226.69
1016.50	226.73
1016.78	226.77
1017.07	226.81
1017.36	226.80
1017.64	226.80
1017.93	226.78
1018.22	226.74
1018.50	226.73
1018.79	226.72
1019.08	226.68
1019.36	226.73
1019.65	226.72
1019.93	226.74
1020.22	226.76
1020.51	226.77
1020.79	226.76
1021.08	226.26
1021.36	226.41
1021.65	226.77
1021.94	226.69
1022.22	227.13
1022.51	226.20
1022.79	227.34
1023.08	226.65
1023.36	227.54
1023.65	226.68
>>>>>End Processed Spectral Data<<<<<
