SpectraSuite Data File
++++++++++++++++++++++++++++++++++++
Date: Fri Feb 01 16:28:09 EST 2013
User: group
Dark Spectrum Present: No
Reference Spectrum Present: No
Number of Sampled Component Spectra: 1
Spectrometers: USB2E7196
Integration Time (usec): 35000 (USB2E7196)
Spectra Averaged: 100 (USB2E7196)
Boxcar Smoothing: 10 (USB2E7196)
Correct for Electrical Dark: No (USB2E7196)
Strobe/Lamp Enabled: No (USB2E7196)
Correct for Detector Non-linearity: No (USB2E7196)
Correct for Stray Light: No (USB2E7196)
Number of Pixels in Processed Spectrum: 2048
>>>>>Begin Processed Spectral Data<<<<<
339.09	0.00
339.48	214.47
339.86	215.90
340.24	217.01
340.63	217.96
341.01	221.06
341.39	221.20
341.78	222.48
342.16	223.10
342.54	223.93
342.93	212.51
343.31	223.26
343.69	223.78
344.07	224.23
344.46	224.65
344.84	225.04
345.22	225.27
345.60	225.52
345.99	225.72
346.37	225.87
346.75	225.97
347.13	226.04
347.52	226.09
347.90	226.12
348.28	226.14
348.66	226.16
349.05	226.19
349.43	226.23
349.81	226.25
350.19	226.30
350.57	226.30
350.96	226.40
351.34	226.46
351.72	226.53
352.10	226.62
352.48	226.69
352.87	226.75
353.25	226.81
353.63	226.86
354.01	226.89
354.39	226.95
354.77	227.05
355.15	227.15
355.54	227.20
355.92	227.23
356.30	227.29
356.68	227.43
357.06	227.45
357.44	227.51
357.82	227.58
358.20	227.62
358.58	227.72
358.97	227.79
359.35	227.85
359.73	227.94
360.11	227.99
360.49	228.04
360.87	228.03
361.25	228.07
361.63	228.13
362.01	228.15
362.39	228.14
362.77	228.16
363.15	228.15
363.53	228.15
363.91	228.18
364.29	228.23
364.67	228.16
365.05	228.16
365.43	228.17
365.81	228.18
366.19	228.23
366.57	228.25
366.95	228.22
367.33	228.19
367.71	228.15
368.09	228.14
368.47	228.12
368.85	228.16
369.23	228.19
369.61	228.13
369.99	228.16
370.37	228.16
370.75	228.14
371.13	228.14
371.51	228.15
371.89	228.13
372.27	228.05
372.65	228.01
373.03	228.00
373.41	227.97
373.78	227.90
374.16	227.81
374.54	227.73
374.92	227.68
375.30	227.62
375.68	227.57
376.06	227.54
376.44	227.45
376.82	227.38
377.19	227.30
377.57	227.25
377.95	227.15
378.33	227.12
378.71	227.01
379.09	226.93
379.47	226.88
379.84	226.78
380.22	226.73
380.60	226.65
380.98	226.58
381.36	226.49
381.73	226.43
382.11	226.41
382.49	226.38
382.87	226.29
383.25	226.24
383.62	226.28
384.00	226.22
384.38	226.18
384.76	226.14
385.13	226.13
385.51	226.09
385.89	226.02
386.27	225.97
386.64	225.96
387.02	225.91
387.40	225.84
387.78	225.86
388.15	225.85
388.53	225.82
388.91	225.77
389.29	225.76
389.66	225.75
390.04	225.70
390.42	225.69
390.79	225.72
391.17	225.70
391.55	225.58
391.92	225.59
392.30	225.61
392.68	225.55
393.05	225.53
393.43	225.52
393.81	225.54
394.18	225.53
394.56	225.58
394.94	225.60
395.31	225.63
395.69	225.67
396.06	225.65
396.44	225.68
396.82	225.73
397.19	225.80
397.57	225.81
397.95	225.85
398.32	225.87
398.70	225.96
399.07	226.04
399.45	226.08
399.82	226.14
400.20	226.20
400.58	226.33
400.95	226.35
401.33	226.48
401.70	226.61
402.08	226.69
402.45	226.78
402.83	226.89
403.20	227.00
403.58	227.11
403.95	227.26
404.33	227.35
404.71	227.46
405.08	227.61
405.46	227.72
405.83	227.86
406.21	227.99
406.58	228.13
406.96	228.28
407.33	228.47
407.70	228.62
408.08	228.88
408.45	229.09
408.83	229.31
409.20	229.50
409.58	229.72
409.95	230.01
410.33	230.26
410.70	230.48
411.08	230.73
411.45	231.02
411.82	231.30
412.20	231.70
412.57	232.14
412.95	232.42
413.32	232.88
413.69	233.33
414.07	233.78
414.44	234.21
414.82	234.69
415.19	235.24
415.56	235.82
415.94	236.34
416.31	236.97
416.68	237.62
417.06	238.31
417.43	238.97
417.81	239.71
418.18	240.49
418.55	241.34
418.93	242.23
419.30	243.13
419.67	244.06
420.04	245.01
420.42	245.96
420.79	247.15
421.16	248.28
421.54	249.43
421.91	250.63
422.28	251.89
422.66	253.22
423.03	254.52
423.40	255.85
423.77	257.25
424.15	258.67
424.52	260.15
424.89	261.78
425.26	263.36
425.64	264.83
426.01	266.38
426.38	268.05
426.75	269.72
427.13	271.41
427.50	273.22
427.87	275.09
428.24	276.98
428.61	278.72
428.99	280.66
429.36	282.74
429.73	284.79
430.10	286.81
430.47	288.84
430.85	290.94
431.22	293.15
431.59	295.52
431.96	297.73
432.33	300.20
432.70	302.52
433.08	305.31
433.45	307.92
433.82	310.47
434.19	313.35
434.56	316.15
434.93	318.82
435.30	321.40
435.68	324.29
436.05	327.06
436.42	329.84
436.79	332.33
437.16	335.08
437.53	337.86
437.90	340.68
438.27	343.39
438.64	346.21
439.01	348.79
439.38	350.99
439.75	353.14
440.13	355.66
440.50	358.03
440.87	359.85
441.24	361.79
441.61	364.01
441.98	365.46
442.35	367.26
442.72	369.13
443.09	370.93
443.46	371.88
443.83	372.51
444.20	372.98
444.57	373.80
444.94	374.09
445.31	374.46
445.68	374.81
446.05	374.93
446.42	374.55
446.79	374.15
447.16	373.70
447.53	373.40
447.90	372.20
448.27	371.01
448.64	369.44
449.01	368.29
449.37	366.31
449.74	364.42
450.11	362.15
450.48	359.65
450.85	357.12
451.22	355.02
451.59	352.99
451.96	351.10
452.33	348.53
452.70	346.14
453.07	343.28
453.43	340.37
453.80	337.60
454.17	334.91
454.54	332.41
454.91	329.76
455.28	327.09
455.65	324.61
456.02	322.17
456.38	320.04
456.75	317.41
457.12	315.17
457.49	312.98
457.86	310.83
458.23	309.03
458.59	307.01
458.96	304.92
459.33	303.07
459.70	301.21
460.07	299.73
460.43	298.02
460.80	296.47
461.17	295.04
461.54	293.57
461.91	292.20
462.27	290.73
462.64	289.47
463.01	288.17
463.38	286.90
463.74	285.54
464.11	284.38
464.48	283.39
464.85	282.30
465.21	281.45
465.58	280.54
465.95	279.43
466.32	278.54
466.68	277.65
467.05	276.77
467.42	275.89
467.78	274.94
468.15	274.05
468.52	273.40
468.88	272.56
469.25	271.77
469.62	271.15
469.98	270.50
470.35	269.87
470.72	269.27
471.08	268.63
471.45	268.12
471.82	267.61
472.18	266.99
472.55	266.58
472.92	266.05
473.28	265.60
473.65	265.18
474.02	264.72
474.38	264.35
474.75	264.06
475.11	263.74
475.48	263.52
475.85	263.33
476.21	263.11
476.58	262.93
476.94	262.81
477.31	262.64
477.67	262.50
478.04	262.40
478.41	262.32
478.77	262.36
479.14	262.28
479.50	262.26
479.87	262.32
480.23	262.41
480.60	262.47
480.96	262.54
481.33	262.78
481.69	263.01
482.06	263.24
482.42	263.42
482.79	263.67
483.15	264.01
483.52	264.39
483.88	264.72
484.25	265.12
484.61	265.55
484.98	266.03
485.34	266.60
485.71	267.19
486.07	267.84
486.44	268.42
486.80	269.16
487.17	269.92
487.53	270.77
487.90	271.65
488.26	272.61
488.62	273.59
488.99	274.53
489.35	275.56
489.72	276.68
490.08	277.89
490.44	279.12
490.81	280.44
491.17	281.81
491.54	283.28
491.90	284.84
492.26	286.45
492.63	288.19
492.99	289.96
493.36	291.87
493.72	293.88
494.08	296.00
494.45	298.22
494.81	300.60
495.17	303.02
495.54	305.58
495.90	308.24
496.26	311.05
496.63	313.99
496.99	317.13
497.35	320.41
497.72	323.82
498.08	327.36
498.44	331.04
498.80	334.95
499.17	339.04
499.53	343.21
499.89	347.65
500.26	352.17
500.62	356.82
500.98	361.81
501.34	366.91
501.71	372.22
502.07	377.62
502.43	383.22
502.79	389.06
503.16	395.14
503.52	401.42
503.88	407.87
504.24	414.49
504.60	421.35
504.97	428.45
505.33	435.80
505.69	443.54
506.05	451.30
506.41	459.13
506.78	467.20
507.14	475.72
507.50	484.39
507.86	493.39
508.22	502.58
508.59	511.76
508.95	521.31
509.31	531.13
509.67	541.30
510.03	551.62
510.39	562.17
510.75	572.90
511.12	583.81
511.48	595.10
511.84	606.54
512.20	618.06
512.56	630.01
512.92	642.13
513.28	654.41
513.64	666.90
514.00	679.65
514.37	692.66
514.73	705.68
515.09	718.68
515.45	731.90
515.81	745.43
516.17	759.41
516.53	773.54
516.89	787.77
517.25	801.96
517.61	816.30
517.97	830.65
518.33	845.10
518.69	859.80
519.05	874.73
519.41	889.94
519.77	905.49
520.13	920.98
520.49	936.29
520.85	951.66
521.21	967.30
521.57	983.46
521.93	999.10
522.29	1015.37
522.65	1031.55
523.01	1047.82
523.37	1063.83
523.73	1079.93
524.09	1095.91
524.45	1112.04
524.81	1128.51
525.17	1145.28
525.53	1162.24
525.89	1179.10
526.25	1195.84
526.61	1212.24
526.97	1228.79
527.33	1245.10
527.68	1261.51
528.04	1278.00
528.40	1294.49
528.76	1311.53
529.12	1328.03
529.48	1344.85
529.84	1360.83
530.20	1377.39
530.56	1394.21
530.91	1411.46
531.27	1428.05
531.63	1444.41
531.99	1461.00
532.35	1476.85
532.71	1492.55
533.07	1508.67
533.42	1524.31
533.78	1540.31
534.14	1556.48
534.50	1571.82
534.86	1587.61
535.21	1602.64
535.57	1618.31
535.93	1633.74
536.29	1648.40
536.65	1663.24
537.00	1677.85
537.36	1693.06
537.72	1707.54
538.08	1721.97
538.44	1735.75
538.79	1749.54
539.15	1763.16
539.51	1776.72
539.87	1791.02
540.22	1804.72
540.58	1818.45
540.94	1831.73
541.29	1844.58
541.65	1857.05
542.01	1870.10
542.37	1882.38
542.72	1894.73
543.08	1906.53
543.44	1918.79
543.79	1929.90
544.15	1940.90
544.51	1952.44
544.87	1963.33
545.22	1973.93
545.58	1983.97
545.94	1993.54
546.29	2003.25
546.65	2013.12
547.01	2022.37
547.36	2031.07
547.72	2039.50
548.07	2047.07
548.43	2055.26
548.79	2063.28
549.14	2070.69
549.50	2078.05
549.86	2085.55
550.21	2092.92
550.57	2100.03
550.92	2106.52
551.28	2113.47
551.64	2120.46
551.99	2126.94
552.35	2132.88
552.70	2139.17
553.06	2145.16
553.41	2151.51
553.77	2157.60
554.13	2163.60
554.48	2169.61
554.84	2175.08
555.19	2180.36
555.55	2185.52
555.90	2189.92
556.26	2194.74
556.61	2199.59
556.97	2203.84
557.32	2208.10
557.68	2212.23
558.03	2216.58
558.39	2220.40
558.74	2225.06
559.10	2229.08
559.45	2232.68
559.81	2236.99
560.16	2240.84
560.52	2244.20
560.87	2247.69
561.23	2250.43
561.58	2253.36
561.94	2255.91
562.29	2258.15
562.64	2260.77
563.00	2263.45
563.35	2266.99
563.71	2270.07
564.06	2273.24
564.42	2276.06
564.77	2278.68
565.12	2280.88
565.48	2282.65
565.83	2284.46
566.19	2285.82
566.54	2286.66
566.89	2287.83
567.25	2288.51
567.60	2289.61
567.96	2291.21
568.31	2291.89
568.66	2293.15
569.02	2293.76
569.37	2294.16
569.72	2295.18
570.08	2295.36
570.43	2295.58
570.78	2295.07
571.14	2293.69
571.49	2292.49
571.84	2292.25
572.20	2291.09
572.55	2290.11
572.90	2288.77
573.26	2287.51
573.61	2285.83
573.96	2284.31
574.31	2281.40
574.67	2278.59
575.02	2275.06
575.37	2271.81
575.72	2268.17
576.08	2264.82
576.43	2261.55
576.78	2257.96
577.13	2254.76
577.49	2251.73
577.84	2248.29
578.19	2244.56
578.54	2240.88
578.90	2236.65
579.25	2231.10
579.60	2226.31
579.95	2221.49
580.30	2216.49
580.66	2211.38
581.01	2206.57
581.36	2201.59
581.71	2197.60
582.06	2193.21
582.42	2188.91
582.77	2183.72
583.12	2179.37
583.47	2174.67
583.82	2169.84
584.17	2164.69
584.53	2159.28
584.88	2153.84
585.23	2148.17
585.58	2142.72
585.93	2137.37
586.28	2132.57
586.63	2127.55
586.98	2122.49
587.34	2117.76
587.69	2112.89
588.04	2107.77
588.39	2102.07
588.74	2095.72
589.09	2089.63
589.44	2082.86
589.79	2077.00
590.14	2071.50
590.49	2064.96
590.84	2058.61
591.19	2052.59
591.54	2046.20
591.89	2039.01
592.25	2032.21
592.60	2025.04
592.95	2017.69
593.30	2010.42
593.65	2003.02
594.00	1996.01
594.35	1988.71
594.70	1980.88
595.05	1973.85
595.40	1966.63
595.75	1959.31
596.10	1953.14
596.45	1946.54
596.80	1940.49
597.15	1933.83
597.50	1926.72
597.85	1920.28
598.19	1913.77
598.54	1906.69
598.89	1900.07
599.24	1894.12
599.59	1887.41
599.94	1881.10
600.29	1874.68
600.64	1868.19
600.99	1860.84
601.34	1854.21
601.69	1847.26
602.04	1840.28
602.39	1832.97
602.74	1825.99
603.08	1819.16
603.43	1812.35
603.78	1804.96
604.13	1797.80
604.48	1790.60
604.83	1783.64
605.18	1776.84
605.53	1768.80
605.87	1760.79
606.22	1753.65
606.57	1745.79
606.92	1738.61
607.27	1731.57
607.62	1724.75
607.96	1717.46
608.31	1710.88
608.66	1703.24
609.01	1695.75
609.36	1688.32
609.70	1680.24
610.05	1672.31
610.40	1664.75
610.75	1656.41
611.10	1648.69
611.44	1640.17
611.79	1632.21
612.14	1623.62
612.49	1614.28
612.83	1605.94
613.18	1597.92
613.53	1589.75
613.88	1581.18
614.22	1572.86
614.57	1564.21
614.92	1556.13
615.27	1548.51
615.61	1540.09
615.96	1531.99
616.31	1524.40
616.65	1516.89
617.00	1509.28
617.35	1501.52
617.70	1493.18
618.04	1484.80
618.39	1476.54
618.74	1468.96
619.08	1460.52
619.43	1452.86
619.78	1446.04
620.12	1438.85
620.47	1431.21
620.82	1423.07
621.16	1415.64
621.51	1408.01
621.85	1400.40
622.20	1391.97
622.55	1383.60
622.89	1375.83
623.24	1368.29
623.59	1360.84
623.93	1353.40
624.28	1346.22
624.62	1338.73
624.97	1331.51
625.32	1324.77
625.66	1317.89
626.01	1310.77
626.35	1303.29
626.70	1295.57
627.04	1287.78
627.39	1280.03
627.73	1272.74
628.08	1265.66
628.43	1258.35
628.77	1250.97
629.12	1243.38
629.46	1236.14
629.81	1228.77
630.15	1221.50
630.50	1214.03
630.84	1205.85
631.19	1197.93
631.53	1190.43
631.88	1182.89
632.22	1175.23
632.57	1167.77
632.91	1160.15
633.26	1152.62
633.60	1145.29
633.95	1138.26
634.29	1131.17
634.64	1124.39
634.98	1116.94
635.32	1109.73
635.67	1103.10
636.01	1096.45
636.36	1089.65
636.70	1083.09
637.05	1076.42
637.39	1069.90
637.73	1063.41
638.08	1057.62
638.42	1051.62
638.77	1045.14
639.11	1038.54
639.45	1032.27
639.80	1025.72
640.14	1019.38
640.49	1012.85
640.83	1006.53
641.17	1000.27
641.52	993.95
641.86	987.40
642.20	981.52
642.55	975.35
642.89	968.86
643.23	962.28
643.58	956.54
643.92	950.31
644.26	944.32
644.61	938.35
644.95	932.36
645.29	925.66
645.64	918.90
645.98	912.59
646.32	906.73
646.66	900.55
647.01	894.78
647.35	888.95
647.69	883.10
648.04	877.62
648.38	871.83
648.72	865.91
649.06	859.94
649.41	854.00
649.75	848.06
650.09	842.21
650.43	836.42
650.78	830.31
651.12	824.45
651.46	818.74
651.80	812.90
652.14	807.42
652.49	802.04
652.83	796.87
653.17	791.17
653.51	785.45
653.85	780.17
654.20	774.45
654.54	768.50
654.88	762.79
655.22	756.85
655.56	751.18
655.90	745.73
656.25	740.57
656.59	735.30
656.93	730.25
657.27	724.99
657.61	719.57
657.95	714.37
658.29	709.27
658.64	704.06
658.98	698.80
659.32	693.37
659.66	688.21
660.00	682.85
660.34	677.93
660.68	673.04
661.02	668.02
661.36	663.32
661.70	658.88
662.05	654.51
662.39	650.17
662.73	645.67
663.07	641.26
663.41	636.77
663.75	632.19
664.09	627.56
664.43	623.19
664.77	619.11
665.11	614.90
665.45	610.82
665.79	606.66
666.13	602.59
666.47	598.52
666.81	594.43
667.15	590.32
667.49	586.38
667.83	582.55
668.17	578.55
668.51	574.40
668.85	570.34
669.19	566.54
669.53	562.77
669.87	558.91
670.21	555.23
670.55	551.58
670.89	548.20
671.23	544.78
671.57	541.27
671.91	537.66
672.25	534.14
672.58	530.53
672.92	527.15
673.26	523.92
673.60	520.71
673.94	517.52
674.28	514.60
674.62	511.66
674.96	508.55
675.30	505.65
675.64	502.75
675.97	499.93
676.31	496.99
676.65	493.99
676.99	491.23
677.33	488.35
677.67	485.56
678.01	482.52
678.34	479.55
678.68	476.67
679.02	473.88
679.36	471.05
679.70	468.38
680.04	465.61
680.37	462.76
680.71	459.95
681.05	457.32
681.39	454.58
681.73	451.91
682.06	449.41
682.40	446.82
682.74	444.31
683.08	441.77
683.42	439.21
683.75	436.75
684.09	434.24
684.43	431.75
684.77	429.25
685.10	426.90
685.44	424.62
685.78	422.25
686.12	419.98
686.45	417.69
686.79	415.38
687.13	413.17
687.46	411.00
687.80	408.87
688.14	406.68
688.48	404.60
688.81	402.38
689.15	400.18
689.49	398.08
689.82	396.02
690.16	393.92
690.50	391.94
690.83	390.00
691.17	388.00
691.51	386.11
691.84	384.21
692.18	382.24
692.52	380.18
692.85	378.33
693.19	376.44
693.52	374.70
693.86	372.91
694.20	371.08
694.53	369.29
694.87	367.43
695.21	365.63
695.54	363.81
695.88	362.05
696.21	360.31
696.55	358.61
696.88	356.92
697.22	355.28
697.56	353.65
697.89	352.00
698.23	350.41
698.56	348.80
698.90	347.26
699.23	345.66
699.57	344.15
699.90	342.62
700.24	341.11
700.58	339.56
700.91	338.03
701.25	336.62
701.58	335.24
701.92	333.89
702.25	332.52
702.59	331.17
702.92	329.84
703.26	328.56
703.59	327.27
703.93	326.07
704.26	324.85
704.60	323.53
704.93	322.20
705.26	320.94
705.60	319.77
705.93	318.61
706.27	317.56
706.60	316.52
706.94	315.43
707.27	314.32
707.61	313.20
707.94	312.17
708.27	311.07
708.61	309.97
708.94	308.96
709.28	307.98
709.61	307.00
709.94	306.06
710.28	305.03
710.61	304.04
710.95	302.92
711.28	301.99
711.61	301.07
711.95	300.23
712.28	299.28
712.61	298.26
712.95	297.32
713.28	296.46
713.61	295.56
713.95	294.64
714.28	293.75
714.61	292.91
714.95	292.09
715.28	291.27
715.61	290.37
715.95	289.52
716.28	288.69
716.61	287.88
716.95	287.05
717.28	286.34
717.61	285.57
717.94	284.84
718.28	284.02
718.61	283.29
718.94	282.57
719.27	281.91
719.61	281.29
719.94	280.64
720.27	279.91
720.60	279.24
720.94	278.62
721.27	278.03
721.60	277.44
721.93	276.83
722.27	276.24
722.60	275.70
722.93	275.15
723.26	274.61
723.59	274.03
723.93	273.47
724.26	272.87
724.59	272.34
724.92	271.81
725.25	271.34
725.59	270.82
725.92	270.32
726.25	269.86
726.58	269.34
726.91	268.85
727.24	268.34
727.57	267.85
727.91	267.33
728.24	266.89
728.57	266.41
728.90	265.91
729.23	265.44
729.56	265.03
729.89	264.53
730.22	264.00
730.55	263.55
730.89	263.12
731.22	262.70
731.55	262.24
731.88	261.84
732.21	261.40
732.54	260.95
732.87	260.50
733.20	260.04
733.53	259.66
733.86	259.27
734.19	258.88
734.52	258.56
734.85	258.25
735.18	257.84
735.51	257.46
735.84	257.10
736.17	256.69
736.50	256.23
736.83	256.00
737.16	255.70
737.49	255.33
737.82	254.99
738.15	254.69
738.48	254.37
738.81	254.05
739.14	253.68
739.47	253.38
739.80	253.08
740.13	252.80
740.46	252.48
740.79	252.15
741.12	251.90
741.45	251.54
741.78	251.21
742.11	250.91
742.44	250.57
742.77	250.35
743.10	250.08
743.43	249.82
743.75	249.43
744.08	249.29
744.41	249.05
744.74	248.77
745.07	248.43
745.40	248.23
745.73	248.00
746.06	247.76
746.39	247.51
746.71	247.23
747.04	246.96
747.37	246.72
747.70	246.46
748.03	246.20
748.36	245.99
748.68	245.75
749.01	245.48
749.34	245.27
749.67	245.01
750.00	244.78
750.33	244.64
750.65	244.44
750.98	244.08
751.31	243.85
751.64	243.66
751.97	243.52
752.29	243.24
752.62	243.01
752.95	242.82
753.28	242.56
753.60	242.35
753.93	242.21
754.26	242.00
754.59	241.77
754.91	241.56
755.24	241.35
755.57	241.15
755.90	240.98
756.22	240.81
756.55	240.60
756.88	240.40
757.20	240.16
757.53	239.98
757.86	239.80
758.19	239.64
758.51	239.48
758.84	239.24
759.17	239.08
759.49	238.90
759.82	238.76
760.15	238.62
760.47	238.47
760.80	238.27
761.13	238.12
761.45	237.98
761.78	237.80
762.11	237.65
762.43	237.49
762.76	237.34
763.08	237.22
763.41	237.11
763.74	236.97
764.06	236.81
764.39	236.66
764.71	236.51
765.04	236.37
765.37	236.17
765.69	236.03
766.02	235.90
766.34	235.78
766.67	235.63
767.00	235.51
767.32	235.46
767.65	235.41
767.97	235.30
768.30	235.22
768.62	235.11
768.95	234.97
769.27	234.88
769.60	234.80
769.92	234.66
770.25	234.53
770.57	234.46
770.90	234.38
771.22	234.29
771.55	234.19
771.87	234.10
772.20	234.07
772.52	234.09
772.85	234.11
773.17	234.03
773.50	233.93
773.82	233.84
774.15	233.72
774.47	233.57
774.80	233.46
775.12	233.38
775.45	233.31
775.77	233.26
776.09	233.20
776.42	233.11
776.74	233.03
777.07	232.94
777.39	232.82
777.72	232.74
778.04	232.67
778.36	232.62
778.69	232.58
779.01	232.52
779.33	232.36
779.66	232.18
779.98	232.11
780.31	232.05
780.63	232.04
780.95	231.98
781.28	231.88
781.60	231.84
781.92	231.74
782.25	231.64
782.57	231.58
782.89	231.48
783.22	231.41
783.54	231.35
783.86	231.30
784.19	231.25
784.51	231.19
784.83	231.11
785.16	231.04
785.48	230.93
785.80	230.86
786.12	230.83
786.45	230.78
786.77	230.72
787.09	230.67
787.42	230.57
787.74	230.50
788.06	230.50
788.38	230.44
788.71	230.41
789.03	230.40
789.35	230.35
789.67	230.33
789.99	230.30
790.32	230.21
790.64	230.20
790.96	230.23
791.28	230.17
791.61	230.13
791.93	230.09
792.25	230.06
792.57	230.11
792.89	230.03
793.21	230.01
793.54	229.93
793.86	229.87
794.18	229.83
794.50	229.79
794.82	229.73
795.14	229.70
795.47	229.68
795.79	229.64
796.11	229.61
796.43	229.54
796.75	229.51
797.07	229.50
797.39	229.44
797.71	229.34
798.04	229.32
798.36	229.29
798.68	229.26
799.00	229.24
799.32	229.16
799.64	229.15
799.96	229.13
800.28	229.14
800.60	229.14
800.92	229.13
801.24	229.11
801.56	229.09
801.89	229.05
802.21	229.02
802.53	229.00
802.85	228.99
803.17	229.02
803.49	228.96
803.81	228.91
804.13	228.89
804.45	228.88
804.77	228.90
805.09	228.90
805.41	228.86
805.73	228.78
806.05	228.72
806.37	228.69
806.69	228.64
807.01	228.60
807.33	228.58
807.65	228.49
807.97	228.48
808.28	228.45
808.60	228.42
808.92	228.37
809.24	228.39
809.56	228.33
809.88	228.28
810.20	228.25
810.52	228.29
810.84	228.27
811.16	228.21
811.48	228.16
811.80	228.18
812.12	228.16
812.43	228.17
812.75	228.19
813.07	228.17
813.39	228.14
813.71	228.10
814.03	228.06
814.35	228.09
814.67	228.05
814.98	228.02
815.30	228.02
815.62	228.02
815.94	227.95
816.26	228.00
816.58	227.99
816.89	228.03
817.21	227.97
817.53	227.93
817.85	227.92
818.17	227.89
818.48	227.83
818.80	227.87
819.12	227.86
819.44	227.81
819.76	227.76
820.07	227.75
820.39	227.74
820.71	227.77
821.03	227.74
821.34	227.69
821.66	227.68
821.98	227.67
822.30	227.64
822.61	227.69
822.93	227.61
823.25	227.58
823.57	227.52
823.88	227.54
824.20	227.54
824.52	227.50
824.83	227.48
825.15	227.42
825.47	227.41
825.79	227.41
826.10	227.39
826.42	227.36
826.74	227.37
827.05	227.37
827.37	227.34
827.69	227.33
828.00	227.38
828.32	227.37
828.64	227.32
828.95	227.33
829.27	227.30
829.58	227.28
829.90	227.29
830.22	227.33
830.53	227.31
830.85	227.28
831.17	227.28
831.48	227.26
831.80	227.26
832.11	227.23
832.43	227.20
832.75	227.20
833.06	227.28
833.38	227.24
833.69	227.22
834.01	227.23
834.32	227.18
834.64	227.16
834.96	227.14
835.27	227.17
835.59	227.17
835.90	227.13
836.22	227.12
836.53	227.07
836.85	227.03
837.16	227.12
837.48	227.14
837.79	227.17
838.11	227.16
838.42	227.16
838.74	227.16
839.05	227.13
839.37	227.10
839.68	227.01
840.00	226.96
840.31	226.96
840.63	226.93
840.94	226.92
841.26	226.88
841.57	226.85
841.88	226.81
842.20	226.76
842.51	226.73
842.83	226.72
843.14	226.77
843.46	226.74
843.77	226.64
844.08	226.60
844.40	226.56
844.71	226.55
845.03	226.52
845.34	226.49
845.65	226.48
845.97	226.51
846.28	226.49
846.60	226.52
846.91	226.47
847.22	226.45
847.54	226.46
847.85	226.45
848.16	226.47
848.48	226.43
848.79	226.48
849.10	226.45
849.42	226.43
849.73	226.37
850.04	226.38
850.36	226.35
850.67	226.38
850.98	226.37
851.30	226.36
851.61	226.36
851.92	226.34
852.23	226.37
852.55	226.33
852.86	226.34
853.17	226.33
853.49	226.38
853.80	226.40
854.11	226.40
854.42	226.42
854.74	226.38
855.05	226.40
855.36	226.36
855.67	226.37
855.99	226.38
856.30	226.47
856.61	226.46
856.92	226.49
857.23	226.49
857.55	226.47
857.86	226.49
858.17	226.51
858.48	226.52
858.79	226.50
859.11	226.49
859.42	226.48
859.73	226.52
860.04	226.54
860.35	226.51
860.66	226.49
860.98	226.51
861.29	226.55
861.60	226.53
861.91	226.53
862.22	226.53
862.53	226.52
862.84	226.42
863.16	226.45
863.47	226.42
863.78	226.40
864.09	226.45
864.40	226.46
864.71	226.46
865.02	226.47
865.33	226.48
865.64	226.51
865.95	226.51
866.27	226.55
866.58	226.52
866.89	226.56
867.20	226.59
867.51	226.56
867.82	226.57
868.13	226.60
868.44	226.62
868.75	226.63
869.06	226.65
869.37	226.65
869.68	226.64
869.99	226.66
870.30	226.67
870.61	226.66
870.92	226.65
871.23	226.66
871.54	226.68
871.85	226.69
872.16	226.70
872.47	226.72
872.78	226.65
873.09	226.65
873.40	226.63
873.71	226.61
874.02	226.60
874.33	226.60
874.64	226.62
874.95	226.61
875.26	226.63
875.56	226.62
875.87	226.61
876.18	226.58
876.49	226.70
876.80	226.68
877.11	226.64
877.42	226.65
877.73	226.68
878.04	226.68
878.35	226.64
878.66	226.62
878.96	226.60
879.27	226.59
879.58	226.58
879.89	226.59
880.20	226.62
880.51	226.63
880.82	226.62
881.12	226.62
881.43	226.60
881.74	226.56
882.05	226.55
882.36	226.59
882.67	226.58
882.97	226.44
883.28	226.40
883.59	226.40
883.90	226.41
884.21	226.37
884.51	226.34
884.82	226.35
885.13	226.32
885.44	226.31
885.74	226.30
886.05	226.29
886.36	226.26
886.67	226.20
886.98	226.20
887.28	226.22
887.59	226.19
887.90	226.22
888.20	226.25
888.51	226.29
888.82	226.23
889.13	226.27
889.43	226.34
889.74	226.36
890.05	226.34
890.35	226.29
890.66	226.28
890.97	226.23
891.28	226.21
891.58	226.24
891.89	226.24
892.20	226.24
892.50	226.22
892.81	226.21
893.12	226.20
893.42	226.17
893.73	226.14
894.04	226.12
894.34	226.08
894.65	226.03
894.95	225.99
895.26	226.03
895.57	226.06
895.87	225.97
896.18	225.98
896.48	226.00
896.79	226.00
897.10	226.01
897.40	226.07
897.71	226.08
898.01	226.07
898.32	226.07
898.63	226.06
898.93	226.09
899.24	226.09
899.54	226.12
899.85	226.12
900.15	226.08
900.46	226.11
900.76	226.13
901.07	226.15
901.38	226.14
901.68	226.13
901.99	226.08
902.29	226.11
902.60	226.13
902.90	226.15
903.21	226.17
903.51	226.17
903.82	226.19
904.12	226.16
904.43	226.16
904.73	226.16
905.03	226.20
905.34	226.29
905.64	226.28
905.95	226.27
906.25	226.27
906.56	226.30
906.86	226.30
907.17	226.32
907.47	226.32
907.77	226.32
908.08	226.30
908.38	226.33
908.69	226.31
908.99	226.32
909.30	226.31
909.60	226.30
909.90	226.32
910.21	226.33
910.51	226.36
910.81	226.37
911.12	226.41
911.42	226.39
911.73	226.29
912.03	226.32
912.33	226.32
912.64	226.34
912.94	226.30
913.24	226.28
913.55	226.25
913.85	226.24
914.15	226.27
914.46	226.28
914.76	226.25
915.06	226.24
915.37	226.20
915.67	226.19
915.97	226.19
916.27	226.16
916.58	226.10
916.88	226.10
917.18	226.09
917.49	226.10
917.79	226.10
918.09	226.10
918.39	226.15
918.70	226.19
919.00	226.20
919.30	226.28
919.60	226.27
919.91	226.27
920.21	226.26
920.51	226.21
920.81	226.19
921.12	226.20
921.42	226.23
921.72	226.27
922.02	226.27
922.32	226.26
922.63	226.24
922.93	226.31
923.23	226.29
923.53	226.28
923.83	226.25
924.13	226.28
924.44	226.27
924.74	226.26
925.04	226.26
925.34	226.20
925.64	226.16
925.94	226.16
926.24	226.23
926.55	226.25
926.85	226.30
927.15	226.31
927.45	226.29
927.75	226.27
928.05	226.24
928.35	226.21
928.65	226.25
928.95	226.29
929.26	226.25
929.56	226.27
929.86	226.29
930.16	226.26
930.46	226.22
930.76	226.22
931.06	226.18
931.36	226.13
931.66	226.19
931.96	226.20
932.26	226.21
932.56	226.16
932.86	226.14
933.16	226.13
933.46	226.12
933.76	226.11
934.06	226.10
934.36	226.13
934.66	226.14
934.96	226.10
935.26	226.10
935.56	226.12
935.86	226.06
936.16	226.06
936.46	226.06
936.76	226.06
937.06	226.05
937.36	226.04
937.66	226.02
937.96	225.99
938.26	225.96
938.56	225.92
938.86	225.92
939.16	225.93
939.46	225.94
939.76	225.94
940.06	225.96
940.35	225.97
940.65	225.90
940.95	225.91
941.25	225.90
941.55	225.87
941.85	225.85
942.15	225.90
942.45	225.90
942.75	225.85
943.04	225.87
943.34	225.88
943.64	225.87
943.94	225.89
944.24	225.88
944.54	225.88
944.84	225.91
945.13	225.88
945.43	225.88
945.73	225.88
946.03	225.87
946.33	225.86
946.62	225.85
946.92	225.89
947.22	225.89
947.52	225.90
947.82	225.94
948.11	225.93
948.41	225.91
948.71	225.92
949.01	226.00
949.31	225.98
949.60	225.98
949.90	226.00
950.20	225.98
950.50	225.99
950.79	225.98
951.09	225.97
951.39	225.97
951.69	225.94
951.98	225.96
952.28	225.97
952.58	225.96
952.87	225.96
953.17	225.96
953.47	225.97
953.76	225.95
954.06	225.92
954.36	225.90
954.66	225.89
954.95	225.89
955.25	225.86
955.55	225.88
955.84	225.87
956.14	225.89
956.44	225.88
956.73	225.87
957.03	225.89
957.32	225.90
957.62	225.87
957.92	225.93
958.21	225.92
958.51	226.04
958.81	226.06
959.10	226.07
959.40	226.09
959.69	226.09
959.99	226.13
960.29	226.13
960.58	226.14
960.88	226.18
961.17	226.18
961.47	226.20
961.76	226.17
962.06	226.18
962.36	226.19
962.65	226.24
962.95	226.25
963.24	226.23
963.54	226.24
963.83	226.27
964.13	226.26
964.42	226.23
964.72	226.16
965.01	226.15
965.31	226.17
965.60	226.13
965.90	226.17
966.19	226.12
966.49	226.13
966.78	226.14
967.08	226.14
967.37	226.12
967.67	226.10
967.96	226.13
968.26	226.15
968.55	226.14
968.85	226.12
969.14	226.12
969.43	226.13
969.73	226.15
970.02	226.15
970.32	226.14
970.61	226.14
970.91	226.12
971.20	226.11
971.49	226.09
971.79	226.13
972.08	226.10
972.38	226.15
972.67	226.12
972.96	226.11
973.26	226.09
973.55	226.15
973.85	226.13
974.14	226.12
974.43	226.14
974.73	226.13
975.02	226.05
975.31	226.06
975.61	226.06
975.90	226.03
976.19	226.01
976.49	225.98
976.78	225.98
977.07	225.97
977.37	225.96
977.66	225.94
977.95	225.89
978.24	225.86
978.54	225.85
978.83	225.86
979.12	225.86
979.42	225.86
979.71	225.80
980.00	225.81
980.29	225.78
980.59	225.74
980.88	225.73
981.17	225.76
981.46	225.76
981.76	225.71
982.05	225.74
982.34	225.75
982.63	225.77
982.93	225.76
983.22	225.77
983.51	225.77
983.80	225.82
984.09	225.86
984.39	225.85
984.68	225.83
984.97	225.83
985.26	225.85
985.55	225.82
985.85	225.83
986.14	225.86
986.43	225.88
986.72	225.86
987.01	225.87
987.30	225.89
987.59	225.88
987.89	225.91
988.18	225.88
988.47	225.88
988.76	225.88
989.05	225.87
989.34	225.84
989.63	225.86
989.92	225.80
990.22	225.77
990.51	225.76
990.80	225.77
991.09	225.76
991.38	225.78
991.67	225.81
991.96	225.78
992.25	225.76
992.54	225.78
992.83	225.77
993.12	225.76
993.41	225.77
993.70	225.82
993.99	225.84
994.28	225.87
994.58	225.87
994.87	225.87
995.16	225.86
995.45	225.86
995.74	225.86
996.03	225.90
996.32	225.94
996.61	225.97
996.90	225.97
997.19	225.96
997.48	225.94
997.77	225.95
998.06	225.97
998.34	225.96
998.63	225.94
998.92	225.96
999.21	226.01
999.50	226.02
999.79	225.99
1000.08	225.97
1000.37	225.97
1000.66	225.96
1000.95	226.00
1001.24	226.01
1001.53	226.03
1001.82	226.03
1002.11	225.99
1002.40	226.00
1002.68	226.05
1002.97	226.10
1003.26	226.11
1003.55	226.11
1003.84	226.10
1004.13	226.12
1004.42	226.14
1004.71	226.15
1004.99	226.13
1005.28	226.14
1005.57	226.11
1005.86	226.09
1006.15	226.11
1006.44	226.08
1006.72	226.09
1007.01	226.08
1007.30	226.08
1007.59	226.06
1007.88	226.07
1008.17	226.08
1008.45	226.04
1008.74	225.96
1009.03	225.92
1009.32	225.92
1009.60	225.90
1009.89	225.90
1010.18	225.86
1010.47	225.85
1010.76	225.84
1011.04	225.85
1011.33	225.82
1011.62	225.84
1011.91	225.86
1012.19	225.83
1012.48	225.86
1012.77	225.83
1013.05	225.88
1013.34	225.89
1013.63	225.87
1013.92	225.86
1014.20	225.83
1014.49	225.82
1014.78	225.85
1015.06	225.81
1015.35	225.79
1015.64	225.82
1015.92	225.82
1016.21	225.82
1016.50	225.82
1016.78	225.83
1017.07	225.82
1017.36	225.81
1017.64	225.81
1017.93	225.77
1018.22	225.78
1018.50	225.77
1018.79	225.78
1019.08	225.73
1019.36	225.72
1019.65	225.72
1019.93	225.75
1020.22	225.81
1020.51	225.88
1020.79	225.84
1021.08	225.98
1021.36	225.27
1021.65	225.74
1021.94	226.02
1022.22	225.84
1022.51	225.53
1022.79	226.43
1023.08	226.50
1023.36	226.92
1023.65	225.08
>>>>>End Processed Spectral Data<<<<<
