SpectraSuite Data File
++++++++++++++++++++++++++++++++++++
Date: Fri Feb 01 16:29:21 EST 2013
User: group
Dark Spectrum Present: No
Reference Spectrum Present: No
Number of Sampled Component Spectra: 1
Spectrometers: USB2E7196
Integration Time (usec): 35000 (USB2E7196)
Spectra Averaged: 100 (USB2E7196)
Boxcar Smoothing: 10 (USB2E7196)
Correct for Electrical Dark: No (USB2E7196)
Strobe/Lamp Enabled: No (USB2E7196)
Correct for Detector Non-linearity: No (USB2E7196)
Correct for Stray Light: No (USB2E7196)
Number of Pixels in Processed Spectrum: 2048
>>>>>Begin Processed Spectral Data<<<<<
339.09	0.00
339.48	213.94
339.86	215.70
340.24	216.94
340.63	217.63
341.01	221.25
341.39	221.30
341.78	222.08
342.16	223.77
342.54	224.19
342.93	212.50
343.31	223.24
343.69	223.81
344.07	224.25
344.46	224.67
344.84	225.07
345.22	225.31
345.60	225.53
345.99	225.74
346.37	225.84
346.75	225.92
347.13	226.00
347.52	226.04
347.90	226.10
348.28	226.12
348.66	226.14
349.05	226.15
349.43	226.17
349.81	226.22
350.19	226.24
350.57	226.30
350.96	226.32
351.34	226.42
351.72	226.48
352.10	226.59
352.48	226.68
352.87	226.75
353.25	226.81
353.63	226.90
354.01	226.94
354.39	227.04
354.77	227.12
355.15	227.24
355.54	227.34
355.92	227.39
356.30	227.46
356.68	227.58
357.06	227.62
357.44	227.65
357.82	227.67
358.20	227.75
358.58	227.78
358.97	227.83
359.35	227.87
359.73	227.94
360.11	227.98
360.49	228.00
360.87	227.99
361.25	228.04
361.63	228.09
362.01	228.16
362.39	228.15
362.77	228.19
363.15	228.18
363.53	228.20
363.91	228.19
364.29	228.20
364.67	228.12
365.05	228.15
365.43	228.20
365.81	228.24
366.19	228.28
366.57	228.32
366.95	228.33
367.33	228.28
367.71	228.27
368.09	228.27
368.47	228.26
368.85	228.29
369.23	228.28
369.61	228.23
369.99	228.23
370.37	228.23
370.75	228.24
371.13	228.19
371.51	228.15
371.89	228.13
372.27	228.09
372.65	228.07
373.03	228.04
373.41	227.97
373.78	227.90
374.16	227.79
374.54	227.73
374.92	227.66
375.30	227.64
375.68	227.53
376.06	227.48
376.44	227.43
376.82	227.37
377.19	227.31
377.57	227.24
377.95	227.13
378.33	227.05
378.71	226.93
379.09	226.87
379.47	226.82
379.84	226.74
380.22	226.69
380.60	226.63
380.98	226.54
381.36	226.49
381.73	226.42
382.11	226.40
382.49	226.34
382.87	226.30
383.25	226.24
383.62	226.31
384.00	226.24
384.38	226.18
384.76	226.13
385.13	226.12
385.51	226.08
385.89	226.02
386.27	226.00
386.64	226.01
387.02	225.95
387.40	225.94
387.78	225.92
388.15	225.88
388.53	225.83
388.91	225.82
389.29	225.79
389.66	225.76
390.04	225.70
390.42	225.71
390.79	225.67
391.17	225.63
391.55	225.53
391.92	225.52
392.30	225.53
392.68	225.54
393.05	225.52
393.43	225.53
393.81	225.58
394.18	225.57
394.56	225.56
394.94	225.64
395.31	225.60
395.69	225.69
396.06	225.72
396.44	225.75
396.82	225.80
397.19	225.91
397.57	225.96
397.95	226.05
398.32	226.07
398.70	226.15
399.07	226.24
399.45	226.31
399.82	226.39
400.20	226.46
400.58	226.54
400.95	226.60
401.33	226.70
401.70	226.82
402.08	226.92
402.45	227.02
402.83	227.09
403.20	227.22
403.58	227.28
403.95	227.43
404.33	227.55
404.71	227.65
405.08	227.80
405.46	227.93
405.83	228.06
406.21	228.20
406.58	228.32
406.96	228.50
407.33	228.64
407.70	228.81
408.08	229.08
408.45	229.30
408.83	229.53
409.20	229.68
409.58	229.88
409.95	230.13
410.33	230.37
410.70	230.64
411.08	230.89
411.45	231.21
411.82	231.50
412.20	231.85
412.57	232.24
412.95	232.53
413.32	232.92
413.69	233.32
414.07	233.77
414.44	234.27
414.82	234.74
415.19	235.27
415.56	235.84
415.94	236.35
416.31	236.97
416.68	237.57
417.06	238.30
417.43	238.93
417.81	239.70
418.18	240.50
418.55	241.33
418.93	242.24
419.30	243.15
419.67	244.05
420.04	245.02
420.42	246.01
420.79	247.19
421.16	248.35
421.54	249.52
421.91	250.69
422.28	251.92
422.66	253.21
423.03	254.52
423.40	255.84
423.77	257.25
424.15	258.64
424.52	260.10
424.89	261.70
425.26	263.26
425.64	264.69
426.01	266.24
426.38	267.90
426.75	269.54
427.13	271.22
427.50	273.04
427.87	274.89
428.24	276.74
428.61	278.46
428.99	280.37
429.36	282.46
429.73	284.56
430.10	286.57
430.47	288.66
430.85	290.75
431.22	292.93
431.59	295.29
431.96	297.55
432.33	300.05
432.70	302.40
433.08	305.18
433.45	307.77
433.82	310.42
434.19	313.27
434.56	316.08
434.93	318.73
435.30	321.34
435.68	324.21
436.05	327.02
436.42	329.83
436.79	332.36
437.16	335.04
437.53	337.81
437.90	340.57
438.27	343.27
438.64	346.07
439.01	348.72
439.38	350.94
439.75	353.09
440.13	355.56
440.50	357.91
440.87	359.76
441.24	361.73
441.61	363.81
441.98	365.29
442.35	367.05
442.72	368.88
443.09	370.64
443.46	371.63
443.83	372.26
444.20	372.74
444.57	373.56
444.94	373.85
445.31	374.21
445.68	374.61
446.05	374.69
446.42	374.32
446.79	373.88
447.16	373.45
447.53	373.15
447.90	372.01
448.27	370.83
448.64	369.24
449.01	368.10
449.37	366.21
449.74	364.29
450.11	362.08
450.48	359.64
450.85	357.14
451.22	355.03
451.59	352.99
451.96	351.09
452.33	348.52
452.70	346.16
453.07	343.35
453.43	340.44
453.80	337.70
454.17	335.06
454.54	332.52
454.91	329.83
455.28	327.15
455.65	324.68
456.02	322.28
456.38	320.18
456.75	317.52
457.12	315.24
457.49	313.01
457.86	310.86
458.23	309.01
458.59	306.96
458.96	304.85
459.33	303.00
459.70	301.11
460.07	299.59
460.43	297.91
460.80	296.29
461.17	294.90
461.54	293.41
461.91	291.95
462.27	290.51
462.64	289.23
463.01	287.90
463.38	286.55
463.74	285.14
464.11	284.00
464.48	282.98
464.85	281.91
465.21	281.09
465.58	280.20
465.95	279.08
466.32	278.21
466.68	277.35
467.05	276.46
467.42	275.59
467.78	274.61
468.15	273.75
468.52	273.10
468.88	272.25
469.25	271.47
469.62	270.88
469.98	270.18
470.35	269.58
470.72	269.00
471.08	268.40
471.45	267.91
471.82	267.35
472.18	266.76
472.55	266.30
472.92	265.78
473.28	265.30
473.65	264.90
474.02	264.44
474.38	264.09
474.75	263.80
475.11	263.45
475.48	263.22
475.85	262.99
476.21	262.77
476.58	262.57
476.94	262.47
477.31	262.32
477.67	262.21
478.04	262.13
478.41	262.08
478.77	262.12
479.14	262.03
479.50	262.05
479.87	262.14
480.23	262.25
480.60	262.29
480.96	262.41
481.33	262.61
481.69	262.82
482.06	262.99
482.42	263.15
482.79	263.41
483.15	263.74
483.52	264.14
483.88	264.49
484.25	264.90
484.61	265.32
484.98	265.77
485.34	266.33
485.71	266.90
486.07	267.49
486.44	268.06
486.80	268.83
487.17	269.54
487.53	270.38
487.90	271.25
488.26	272.20
488.62	273.19
488.99	274.17
489.35	275.23
489.72	276.37
490.08	277.61
490.44	278.88
490.81	280.23
491.17	281.59
491.54	283.07
491.90	284.60
492.26	286.22
492.63	287.92
492.99	289.68
493.36	291.58
493.72	293.63
494.08	295.74
494.45	297.96
494.81	300.36
495.17	302.76
495.54	305.31
495.90	308.05
496.26	310.85
496.63	313.84
496.99	316.97
497.35	320.29
497.72	323.69
498.08	327.18
498.44	330.85
498.80	334.76
499.17	338.86
499.53	343.04
499.89	347.48
500.26	351.99
500.62	356.69
500.98	361.68
501.34	366.75
501.71	372.08
502.07	377.54
502.43	383.15
502.79	388.91
503.16	395.02
503.52	401.27
503.88	407.67
504.24	414.34
504.60	421.16
504.97	428.25
505.33	435.61
505.69	443.31
506.05	451.10
506.41	459.03
506.78	467.11
507.14	475.60
507.50	484.33
507.86	493.42
508.22	502.64
508.59	511.86
508.95	521.44
509.31	531.27
509.67	541.32
510.03	551.61
510.39	562.22
510.75	573.01
511.12	583.90
511.48	595.25
511.84	606.65
512.20	618.20
512.56	630.14
512.92	642.29
513.28	654.56
513.64	666.96
514.00	679.60
514.37	692.56
514.73	705.54
515.09	718.53
515.45	731.78
515.81	745.35
516.17	759.32
516.53	773.44
516.89	787.61
517.25	801.78
517.61	816.15
517.97	830.58
518.33	844.88
518.69	859.68
519.05	874.55
519.41	889.71
519.77	905.24
520.13	920.63
520.49	935.97
520.85	951.37
521.21	967.14
521.57	983.35
521.93	999.03
522.29	1015.45
522.65	1031.68
523.01	1047.89
523.37	1063.82
523.73	1079.86
524.09	1095.86
524.45	1112.00
524.81	1128.62
525.17	1145.33
525.53	1162.21
525.89	1179.10
526.25	1195.78
526.61	1212.15
526.97	1228.78
527.33	1245.14
527.68	1261.65
528.04	1278.08
528.40	1294.60
528.76	1311.52
529.12	1328.01
529.48	1344.82
529.84	1360.71
530.20	1377.35
530.56	1394.23
530.91	1411.58
531.27	1428.29
531.63	1444.67
531.99	1461.15
532.35	1477.05
532.71	1492.97
533.07	1509.06
533.42	1524.88
533.78	1540.92
534.14	1557.07
534.50	1572.38
534.86	1588.29
535.21	1603.39
535.57	1619.19
535.93	1634.68
536.29	1649.34
536.65	1664.32
537.00	1679.03
537.36	1694.22
537.72	1708.43
538.08	1722.73
538.44	1736.31
538.79	1750.01
539.15	1763.60
539.51	1777.35
539.87	1791.42
540.22	1804.89
540.58	1818.54
540.94	1831.81
541.29	1844.49
541.65	1856.96
542.01	1869.97
542.37	1882.10
542.72	1894.34
543.08	1905.99
543.44	1918.29
543.79	1929.43
544.15	1940.26
544.51	1951.78
544.87	1962.63
545.22	1973.46
545.58	1983.51
545.94	1993.32
546.29	2003.27
546.65	2013.01
547.01	2022.12
547.36	2030.72
547.72	2039.19
548.07	2047.01
548.43	2055.07
548.79	2063.13
549.14	2070.71
549.50	2078.02
549.86	2085.49
550.21	2092.86
550.57	2099.96
550.92	2106.35
551.28	2113.46
551.64	2120.60
551.99	2126.88
552.35	2133.02
552.70	2138.99
553.06	2144.97
553.41	2151.28
553.77	2157.24
554.13	2163.37
554.48	2169.57
554.84	2175.19
555.19	2180.45
555.55	2185.59
555.90	2190.00
556.26	2194.82
556.61	2199.62
556.97	2203.92
557.32	2208.11
557.68	2212.12
558.03	2216.57
558.39	2220.28
558.74	2224.73
559.10	2228.61
559.45	2232.39
559.81	2236.74
560.16	2240.70
560.52	2244.01
560.87	2247.35
561.23	2250.03
561.58	2252.93
561.94	2255.31
562.29	2257.67
562.64	2260.48
563.00	2262.89
563.35	2266.50
563.71	2269.63
564.06	2272.78
564.42	2275.75
564.77	2278.38
565.12	2280.77
565.48	2282.58
565.83	2284.62
566.19	2286.09
566.54	2286.95
566.89	2287.99
567.25	2288.48
567.60	2289.76
567.96	2291.56
568.31	2292.41
568.66	2293.43
569.02	2294.08
569.37	2294.55
569.72	2295.49
570.08	2295.55
570.43	2295.66
570.78	2295.20
571.14	2293.69
571.49	2292.51
571.84	2292.09
572.20	2291.00
572.55	2290.10
572.90	2288.61
573.26	2287.32
573.61	2285.74
573.96	2284.00
574.31	2281.37
574.67	2278.54
575.02	2275.10
575.37	2271.67
575.72	2267.99
576.08	2264.79
576.43	2261.48
576.78	2257.94
577.13	2254.81
577.49	2251.85
577.84	2248.55
578.19	2244.69
578.54	2241.28
578.90	2237.06
579.25	2231.60
579.60	2226.70
579.95	2221.66
580.30	2216.80
580.66	2211.69
581.01	2206.69
581.36	2201.88
581.71	2197.65
582.06	2193.19
582.42	2188.74
582.77	2183.71
583.12	2179.22
583.47	2174.61
583.82	2169.80
584.17	2164.58
584.53	2159.01
584.88	2153.40
585.23	2147.67
585.58	2142.44
585.93	2137.00
586.28	2132.29
586.63	2127.29
586.98	2122.26
587.34	2117.79
587.69	2112.83
588.04	2107.50
588.39	2101.99
588.74	2095.55
589.09	2089.51
589.44	2082.80
589.79	2076.98
590.14	2071.42
590.49	2064.84
590.84	2058.48
591.19	2052.36
591.54	2046.06
591.89	2038.90
592.25	2032.15
592.60	2025.12
592.95	2017.49
593.30	2010.19
593.65	2002.70
594.00	1995.79
594.35	1988.72
594.70	1980.60
595.05	1973.52
595.40	1966.27
595.75	1958.79
596.10	1952.72
596.45	1946.00
596.80	1939.99
597.15	1933.32
597.50	1926.19
597.85	1919.85
598.19	1913.25
598.54	1906.11
598.89	1899.44
599.24	1893.57
599.59	1886.94
599.94	1880.80
600.29	1874.48
600.64	1867.88
600.99	1860.40
601.34	1853.59
601.69	1846.48
602.04	1839.78
602.39	1832.38
602.74	1825.53
603.08	1818.78
603.43	1812.04
603.78	1804.75
604.13	1797.53
604.48	1790.22
604.83	1783.32
605.18	1776.32
605.53	1768.30
605.87	1760.46
606.22	1753.22
606.57	1745.19
606.92	1737.89
607.27	1730.75
607.62	1723.89
607.96	1716.66
608.31	1710.07
608.66	1702.54
609.01	1695.20
609.36	1687.54
609.70	1679.57
610.05	1671.61
610.40	1663.94
610.75	1655.61
611.10	1647.96
611.44	1639.54
611.79	1631.55
612.14	1622.90
612.49	1613.86
612.83	1605.52
613.18	1597.45
613.53	1589.49
613.88	1580.96
614.22	1572.70
614.57	1564.04
614.92	1556.02
615.27	1548.51
615.61	1540.24
615.96	1532.16
616.31	1524.39
616.65	1517.03
617.00	1509.51
617.35	1501.84
617.70	1493.53
618.04	1485.00
618.39	1476.89
618.74	1469.38
619.08	1461.11
619.43	1453.55
619.78	1446.51
620.12	1439.21
620.47	1431.61
620.82	1423.29
621.16	1415.97
621.51	1408.34
621.85	1400.76
622.20	1392.14
622.55	1383.76
622.89	1375.93
623.24	1368.31
623.59	1360.96
623.93	1353.39
624.28	1346.16
624.62	1338.68
624.97	1331.48
625.32	1324.70
625.66	1317.62
626.01	1310.34
626.35	1302.87
626.70	1295.09
627.04	1287.59
627.39	1279.96
627.73	1272.60
628.08	1265.73
628.43	1258.46
628.77	1251.10
629.12	1243.46
629.46	1236.39
629.81	1228.92
630.15	1221.57
630.50	1214.12
630.84	1205.94
631.19	1198.02
631.53	1190.47
631.88	1182.94
632.22	1175.38
632.57	1168.06
632.91	1160.46
633.26	1153.04
633.60	1145.68
633.95	1138.57
634.29	1131.48
634.64	1124.76
634.98	1117.47
635.32	1110.16
635.67	1103.55
636.01	1096.95
636.36	1090.17
636.70	1083.56
637.05	1076.99
637.39	1070.54
637.73	1064.01
638.08	1058.10
638.42	1052.11
638.77	1045.60
639.11	1038.99
639.45	1032.51
639.80	1025.90
640.14	1019.52
640.49	1012.96
640.83	1006.64
641.17	1000.40
641.52	994.03
641.86	987.54
642.20	981.57
642.55	975.47
642.89	968.93
643.23	962.27
643.58	956.50
643.92	950.34
644.26	944.20
644.61	938.21
644.95	932.23
645.29	925.70
645.64	918.92
645.98	912.67
646.32	906.80
646.66	900.79
647.01	894.96
647.35	889.15
647.69	883.32
648.04	877.81
648.38	871.99
648.72	865.95
649.06	859.86
649.41	853.96
649.75	847.91
650.09	842.02
650.43	836.34
650.78	830.22
651.12	824.32
651.46	818.67
651.80	812.88
652.14	807.47
652.49	802.02
652.83	796.88
653.17	791.18
653.51	785.42
653.85	780.04
654.20	774.41
654.54	768.44
654.88	762.71
655.22	756.77
655.56	751.12
655.90	745.68
656.25	740.54
656.59	735.16
656.93	730.06
657.27	724.86
657.61	719.38
657.95	714.20
658.29	709.04
658.64	703.78
658.98	698.55
659.32	693.05
659.66	687.88
660.00	682.53
660.34	677.57
660.68	672.66
661.02	667.67
661.36	662.94
661.70	658.49
662.05	654.12
662.39	649.83
662.73	645.32
663.07	640.87
663.41	636.40
663.75	631.88
664.09	627.30
664.43	622.95
664.77	618.85
665.11	614.61
665.45	610.51
665.79	606.45
666.13	602.28
666.47	598.22
666.81	594.04
667.15	589.94
667.49	586.03
667.83	582.24
668.17	578.28
668.51	574.26
668.85	570.14
669.19	566.32
669.53	562.46
669.87	558.64
670.21	555.03
670.55	551.36
670.89	547.98
671.23	544.55
671.57	541.03
671.91	537.48
672.25	533.96
672.58	530.46
672.92	527.00
673.26	523.77
673.60	520.56
673.94	517.41
674.28	514.47
674.62	511.47
674.96	508.32
675.30	505.41
675.64	502.40
675.97	499.65
676.31	496.75
676.65	493.81
676.99	491.06
677.33	488.15
677.67	485.31
678.01	482.29
678.34	479.30
678.68	476.40
679.02	473.57
679.36	470.86
679.70	468.09
680.04	465.35
680.37	462.51
680.71	459.76
681.05	457.17
681.39	454.47
681.73	451.84
682.06	449.28
682.40	446.71
682.74	444.23
683.08	441.69
683.42	439.12
683.75	436.66
684.09	434.10
684.43	431.59
684.77	429.12
685.10	426.74
685.44	424.44
685.78	422.18
686.12	419.87
686.45	417.57
686.79	415.27
687.13	413.10
687.46	410.94
687.80	408.75
688.14	406.54
688.48	404.49
688.81	402.25
689.15	400.14
689.49	398.01
689.82	395.97
690.16	393.89
690.50	391.90
690.83	389.91
691.17	387.91
691.51	386.03
691.84	384.18
692.18	382.25
692.52	380.24
692.85	378.29
693.19	376.47
693.52	374.62
693.86	372.86
694.20	371.08
694.53	369.29
694.87	367.46
695.21	365.64
695.54	363.78
695.88	362.09
696.21	360.38
696.55	358.73
696.88	356.98
697.22	355.32
697.56	353.71
697.89	352.08
698.23	350.51
698.56	348.93
698.90	347.35
699.23	345.71
699.57	344.19
699.90	342.64
700.24	341.08
700.58	339.55
700.91	338.05
701.25	336.54
701.58	335.13
701.92	333.76
702.25	332.38
702.59	331.04
702.92	329.73
703.26	328.39
703.59	327.12
703.93	325.95
704.26	324.70
704.60	323.37
704.93	322.13
705.26	320.86
705.60	319.65
705.93	318.51
706.27	317.45
706.60	316.39
706.94	315.29
707.27	314.13
707.61	313.09
707.94	312.00
708.27	310.97
708.61	309.87
708.94	308.87
709.28	307.86
709.61	306.89
709.94	305.90
710.28	304.88
710.61	303.80
710.95	302.72
711.28	301.77
711.61	300.83
711.95	299.86
712.28	298.91
712.61	297.91
712.95	296.94
713.28	296.07
713.61	295.14
713.95	294.26
714.28	293.44
714.61	292.54
714.95	291.73
715.28	290.84
715.61	290.01
715.95	289.13
716.28	288.28
716.61	287.44
716.95	286.60
717.28	285.84
717.61	285.11
717.94	284.37
718.28	283.58
718.61	282.86
718.94	282.17
719.27	281.52
719.61	280.94
719.94	280.31
720.27	279.54
720.60	278.90
720.94	278.28
721.27	277.69
721.60	277.18
721.93	276.56
722.27	276.03
722.60	275.49
722.93	274.89
723.26	274.39
723.59	273.82
723.93	273.29
724.26	272.72
724.59	272.17
724.92	271.64
725.25	271.17
725.59	270.65
725.92	270.15
726.25	269.60
726.58	269.09
726.91	268.57
727.24	268.14
727.57	267.70
727.91	267.18
728.24	266.73
728.57	266.23
728.90	265.77
729.23	265.28
729.56	264.85
729.89	264.41
730.22	263.90
730.55	263.44
730.89	263.03
731.22	262.64
731.55	262.22
731.88	261.80
732.21	261.34
732.54	260.92
732.87	260.50
733.20	260.12
733.53	259.75
733.86	259.41
734.19	259.02
734.52	258.67
734.85	258.37
735.18	257.96
735.51	257.56
735.84	257.18
736.17	256.82
736.50	256.39
736.83	256.20
737.16	255.87
737.49	255.57
737.82	255.20
738.15	254.81
738.48	254.49
738.81	254.15
739.14	253.82
739.47	253.51
739.80	253.19
740.13	252.89
740.46	252.54
740.79	252.17
741.12	251.83
741.45	251.49
741.78	251.15
742.11	250.84
742.44	250.57
742.77	250.31
743.10	250.04
743.43	249.76
743.75	249.39
744.08	249.25
744.41	248.95
744.74	248.65
745.07	248.42
745.40	248.17
745.73	247.95
746.06	247.70
746.39	247.42
746.71	247.17
747.04	246.91
747.37	246.62
747.70	246.40
748.03	246.16
748.36	245.93
748.68	245.68
749.01	245.46
749.34	245.20
749.67	244.98
750.00	244.73
750.33	244.57
750.65	244.30
750.98	243.96
751.31	243.75
751.64	243.58
751.97	243.41
752.29	243.18
752.62	242.93
752.95	242.71
753.28	242.52
753.60	242.29
753.93	242.10
754.26	241.87
754.59	241.66
754.91	241.47
755.24	241.27
755.57	241.08
755.90	240.87
756.22	240.66
756.55	240.42
756.88	240.21
757.20	239.97
757.53	239.77
757.86	239.59
758.19	239.41
758.51	239.21
758.84	238.98
759.17	238.82
759.49	238.65
759.82	238.54
760.15	238.37
760.47	238.20
760.80	238.03
761.13	237.93
761.45	237.74
761.78	237.58
762.11	237.41
762.43	237.28
762.76	237.12
763.08	236.98
763.41	236.85
763.74	236.74
764.06	236.58
764.39	236.44
764.71	236.29
765.04	236.16
765.37	236.03
765.69	235.90
766.02	235.76
766.34	235.64
766.67	235.48
767.00	235.38
767.32	235.33
767.65	235.25
767.97	235.13
768.30	235.02
768.62	234.90
768.95	234.80
769.27	234.69
769.60	234.61
769.92	234.50
770.25	234.38
770.57	234.26
770.90	234.16
771.22	234.06
771.55	233.94
771.87	233.89
772.20	233.77
772.52	233.76
772.85	233.80
773.17	233.71
773.50	233.63
773.82	233.52
774.15	233.38
774.47	233.25
774.80	233.16
775.12	233.08
775.45	232.99
775.77	232.95
776.09	232.87
776.42	232.79
776.74	232.77
777.07	232.71
777.39	232.64
777.72	232.57
778.04	232.53
778.36	232.50
778.69	232.42
779.01	232.37
779.33	232.22
779.66	232.04
779.98	231.93
780.31	231.90
780.63	231.90
780.95	231.86
781.28	231.80
781.60	231.74
781.92	231.68
782.25	231.63
782.57	231.54
782.89	231.47
783.22	231.43
783.54	231.35
783.86	231.32
784.19	231.25
784.51	231.24
784.83	231.21
785.16	231.12
785.48	231.06
785.80	231.06
786.12	231.04
786.45	230.99
786.77	231.01
787.09	230.93
787.42	230.84
787.74	230.79
788.06	230.79
788.38	230.78
788.71	230.75
789.03	230.71
789.35	230.68
789.67	230.66
789.99	230.60
790.32	230.55
790.64	230.48
790.96	230.54
791.28	230.47
791.61	230.39
791.93	230.40
792.25	230.37
792.57	230.34
792.89	230.31
793.21	230.28
793.54	230.19
793.86	230.16
794.18	230.12
794.50	230.08
794.82	229.98
795.14	229.92
795.47	229.88
795.79	229.85
796.11	229.82
796.43	229.79
796.75	229.76
797.07	229.71
797.39	229.70
797.71	229.58
798.04	229.51
798.36	229.53
798.68	229.47
799.00	229.40
799.32	229.32
799.64	229.27
799.96	229.26
800.28	229.24
800.60	229.20
800.92	229.16
801.24	229.10
801.56	229.10
801.89	229.08
802.21	229.02
802.53	228.96
802.85	228.93
803.17	228.90
803.49	228.84
803.81	228.82
804.13	228.78
804.45	228.73
804.77	228.75
805.09	228.70
805.41	228.63
805.73	228.62
806.05	228.55
806.37	228.52
806.69	228.43
807.01	228.41
807.33	228.40
807.65	228.36
807.97	228.38
808.28	228.34
808.60	228.27
808.92	228.26
809.24	228.30
809.56	228.26
809.88	228.19
810.20	228.19
810.52	228.16
810.84	228.11
811.16	228.09
811.48	228.02
811.80	228.01
812.12	228.01
812.43	227.99
812.75	227.98
813.07	227.96
813.39	227.99
813.71	227.94
814.03	227.90
814.35	227.88
814.67	227.84
814.98	227.78
815.30	227.81
815.62	227.79
815.94	227.72
816.26	227.72
816.58	227.69
816.89	227.67
817.21	227.63
817.53	227.64
817.85	227.63
818.17	227.64
818.48	227.57
818.80	227.57
819.12	227.54
819.44	227.52
819.76	227.52
820.07	227.49
820.39	227.51
820.71	227.50
821.03	227.50
821.34	227.48
821.66	227.51
821.98	227.48
822.30	227.45
822.61	227.48
822.93	227.43
823.25	227.44
823.57	227.42
823.88	227.46
824.20	227.45
824.52	227.45
824.83	227.43
825.15	227.45
825.47	227.43
825.79	227.41
826.10	227.38
826.42	227.35
826.74	227.38
827.05	227.37
827.37	227.34
827.69	227.30
828.00	227.27
828.32	227.27
828.64	227.26
828.95	227.32
829.27	227.32
829.58	227.30
829.90	227.32
830.22	227.32
830.53	227.28
830.85	227.24
831.17	227.21
831.48	227.22
831.80	227.19
832.11	227.18
832.43	227.19
832.75	227.20
833.06	227.26
833.38	227.22
833.69	227.19
834.01	227.22
834.32	227.23
834.64	227.21
834.96	227.16
835.27	227.13
835.59	227.08
835.90	227.06
836.22	227.06
836.53	227.01
836.85	226.98
837.16	227.08
837.48	227.08
837.79	227.12
838.11	227.09
838.42	227.09
838.74	227.12
839.05	227.09
839.37	227.06
839.68	226.98
840.00	226.95
840.31	226.95
840.63	226.86
840.94	226.84
841.26	226.86
841.57	226.89
841.88	226.89
842.20	226.88
842.51	226.83
842.83	226.81
843.14	226.90
843.46	226.89
843.77	226.82
844.08	226.79
844.40	226.76
844.71	226.75
845.03	226.75
845.34	226.71
845.65	226.67
845.97	226.71
846.28	226.69
846.60	226.66
846.91	226.62
847.22	226.66
847.54	226.66
847.85	226.63
848.16	226.58
848.48	226.57
848.79	226.59
849.10	226.59
849.42	226.60
849.73	226.51
850.04	226.50
850.36	226.45
850.67	226.48
850.98	226.45
851.30	226.47
851.61	226.44
851.92	226.43
852.23	226.46
852.55	226.43
852.86	226.45
853.17	226.47
853.49	226.52
853.80	226.53
854.11	226.52
854.42	226.53
854.74	226.55
855.05	226.51
855.36	226.47
855.67	226.46
855.99	226.44
856.30	226.53
856.61	226.52
856.92	226.53
857.23	226.49
857.55	226.50
857.86	226.47
858.17	226.48
858.48	226.46
858.79	226.43
859.11	226.43
859.42	226.36
859.73	226.35
860.04	226.31
860.35	226.28
860.66	226.26
860.98	226.24
861.29	226.25
861.60	226.27
861.91	226.26
862.22	226.26
862.53	226.22
862.84	226.14
863.16	226.16
863.47	226.15
863.78	226.18
864.09	226.17
864.40	226.21
864.71	226.22
865.02	226.23
865.33	226.26
865.64	226.26
865.95	226.28
866.27	226.37
866.58	226.35
866.89	226.38
867.20	226.38
867.51	226.38
867.82	226.35
868.13	226.39
868.44	226.43
868.75	226.45
869.06	226.47
869.37	226.46
869.68	226.41
869.99	226.45
870.30	226.47
870.61	226.48
870.92	226.46
871.23	226.44
871.54	226.44
871.85	226.44
872.16	226.44
872.47	226.47
872.78	226.39
873.09	226.41
873.40	226.40
873.71	226.42
874.02	226.41
874.33	226.46
874.64	226.45
874.95	226.43
875.26	226.42
875.56	226.41
875.87	226.42
876.18	226.44
876.49	226.49
876.80	226.44
877.11	226.44
877.42	226.41
877.73	226.45
878.04	226.41
878.35	226.39
878.66	226.40
878.96	226.40
879.27	226.41
879.58	226.38
879.89	226.39
880.20	226.39
880.51	226.39
880.82	226.36
881.12	226.39
881.43	226.37
881.74	226.36
882.05	226.37
882.36	226.36
882.67	226.39
882.97	226.28
883.28	226.29
883.59	226.29
883.90	226.30
884.21	226.27
884.51	226.27
884.82	226.30
885.13	226.28
885.44	226.27
885.74	226.27
886.05	226.29
886.36	226.32
886.67	226.27
886.98	226.31
887.28	226.33
887.59	226.31
887.90	226.30
888.20	226.30
888.51	226.32
888.82	226.32
889.13	226.29
889.43	226.40
889.74	226.39
890.05	226.37
890.35	226.38
890.66	226.39
890.97	226.37
891.28	226.34
891.58	226.34
891.89	226.34
892.20	226.32
892.50	226.30
892.81	226.26
893.12	226.28
893.42	226.22
893.73	226.20
894.04	226.18
894.34	226.21
894.65	226.19
894.95	226.19
895.26	226.15
895.57	226.18
895.87	226.06
896.18	226.11
896.48	226.11
896.79	226.10
897.10	226.09
897.40	226.12
897.71	226.14
898.01	226.14
898.32	226.12
898.63	226.11
898.93	226.14
899.24	226.15
899.54	226.15
899.85	226.15
900.15	226.14
900.46	226.15
900.76	226.13
901.07	226.14
901.38	226.13
901.68	226.15
901.99	226.10
902.29	226.11
902.60	226.05
902.90	226.05
903.21	226.05
903.51	226.05
903.82	226.07
904.12	226.08
904.43	226.07
904.73	226.07
905.03	226.12
905.34	226.17
905.64	226.15
905.95	226.14
906.25	226.15
906.56	226.15
906.86	226.15
907.17	226.15
907.47	226.14
907.77	226.13
908.08	226.11
908.38	226.14
908.69	226.13
908.99	226.17
909.30	226.17
909.60	226.15
909.90	226.15
910.21	226.08
910.51	226.06
910.81	226.07
911.12	226.08
911.42	226.06
911.73	225.98
912.03	225.99
912.33	226.01
912.64	226.01
912.94	226.01
913.24	225.97
913.55	226.00
913.85	225.98
914.15	226.00
914.46	226.04
914.76	226.03
915.06	226.08
915.37	226.04
915.67	226.02
915.97	226.06
916.27	226.07
916.58	226.12
916.88	226.11
917.18	226.11
917.49	226.22
917.79	226.20
918.09	226.21
918.39	226.24
918.70	226.25
919.00	226.28
919.30	226.32
919.60	226.35
919.91	226.31
920.21	226.37
920.51	226.36
920.81	226.36
921.12	226.36
921.42	226.34
921.72	226.38
922.02	226.39
922.32	226.42
922.63	226.42
922.93	226.48
923.23	226.47
923.53	226.47
923.83	226.38
924.13	226.41
924.44	226.41
924.74	226.44
925.04	226.45
925.34	226.44
925.64	226.39
925.94	226.40
926.24	226.45
926.55	226.44
926.85	226.43
927.15	226.42
927.45	226.43
927.75	226.43
928.05	226.42
928.35	226.41
928.65	226.39
928.95	226.40
929.26	226.35
929.56	226.36
929.86	226.38
930.16	226.37
930.46	226.33
930.76	226.35
931.06	226.30
931.36	226.26
931.66	226.24
931.96	226.26
932.26	226.24
932.56	226.19
932.86	226.16
933.16	226.17
933.46	226.14
933.76	226.11
934.06	226.10
934.36	226.11
934.66	226.10
934.96	226.06
935.26	226.06
935.56	226.03
935.86	226.02
936.16	225.98
936.46	225.94
936.76	225.89
937.06	225.82
937.36	225.82
937.66	225.80
937.96	225.78
938.26	225.73
938.56	225.72
938.86	225.70
939.16	225.71
939.46	225.70
939.76	225.70
940.06	225.71
940.35	225.70
940.65	225.63
940.95	225.61
941.25	225.58
941.55	225.56
941.85	225.57
942.15	225.57
942.45	225.56
942.75	225.57
943.04	225.59
943.34	225.63
943.64	225.61
943.94	225.58
944.24	225.59
944.54	225.58
944.84	225.56
945.13	225.54
945.43	225.53
945.73	225.52
946.03	225.47
946.33	225.46
946.62	225.43
946.92	225.44
947.22	225.45
947.52	225.46
947.82	225.49
948.11	225.49
948.41	225.51
948.71	225.52
949.01	225.53
949.31	225.55
949.60	225.55
949.90	225.55
950.20	225.56
950.50	225.55
950.79	225.56
951.09	225.61
951.39	225.64
951.69	225.65
951.98	225.68
952.28	225.71
952.58	225.69
952.87	225.73
953.17	225.74
953.47	225.76
953.76	225.78
954.06	225.76
954.36	225.72
954.66	225.69
954.95	225.71
955.25	225.73
955.55	225.73
955.84	225.72
956.14	225.76
956.44	225.77
956.73	225.80
957.03	225.81
957.32	225.83
957.62	225.85
957.92	225.87
958.21	225.87
958.51	226.02
958.81	226.05
959.10	226.06
959.40	226.11
959.69	226.14
959.99	226.17
960.29	226.21
960.58	226.23
960.88	226.28
961.17	226.30
961.47	226.28
961.76	226.27
962.06	226.31
962.36	226.27
962.65	226.30
962.95	226.31
963.24	226.33
963.54	226.35
963.83	226.33
964.13	226.31
964.42	226.30
964.72	226.21
965.01	226.22
965.31	226.19
965.60	226.18
965.90	226.20
966.19	226.17
966.49	226.17
966.78	226.16
967.08	226.12
967.37	226.10
967.67	226.09
967.96	226.10
968.26	226.06
968.55	226.05
968.85	226.06
969.14	226.05
969.43	226.05
969.73	226.01
970.02	226.00
970.32	225.98
970.61	225.97
970.91	225.94
971.20	225.90
971.49	225.93
971.79	225.91
972.08	225.84
972.38	225.83
972.67	225.78
972.96	225.80
973.26	225.79
973.55	225.83
973.85	225.84
974.14	225.83
974.43	225.82
974.73	225.83
975.02	225.78
975.31	225.75
975.61	225.73
975.90	225.72
976.19	225.71
976.49	225.72
976.78	225.70
977.07	225.73
977.37	225.73
977.66	225.72
977.95	225.69
978.24	225.71
978.54	225.75
978.83	225.75
979.12	225.73
979.42	225.75
979.71	225.72
980.00	225.72
980.29	225.69
980.59	225.71
980.88	225.77
981.17	225.77
981.46	225.76
981.76	225.74
982.05	225.75
982.34	225.76
982.63	225.74
982.93	225.76
983.22	225.74
983.51	225.72
983.80	225.72
984.09	225.74
984.39	225.73
984.68	225.71
984.97	225.71
985.26	225.71
985.55	225.71
985.85	225.68
986.14	225.67
986.43	225.74
986.72	225.75
987.01	225.69
987.30	225.69
987.59	225.71
987.89	225.72
988.18	225.70
988.47	225.69
988.76	225.71
989.05	225.70
989.34	225.69
989.63	225.73
989.92	225.74
990.22	225.75
990.51	225.75
990.80	225.71
991.09	225.74
991.38	225.74
991.67	225.73
991.96	225.74
992.25	225.77
992.54	225.75
992.83	225.74
993.12	225.78
993.41	225.82
993.70	225.84
993.99	225.86
994.28	225.90
994.58	225.94
994.87	225.91
995.16	225.90
995.45	225.90
995.74	225.88
996.03	225.89
996.32	225.89
996.61	225.93
996.90	225.96
997.19	225.96
997.48	225.99
997.77	225.99
998.06	225.98
998.34	225.96
998.63	225.96
998.92	225.95
999.21	225.96
999.50	225.93
999.79	225.91
1000.08	225.94
1000.37	225.91
1000.66	225.88
1000.95	225.92
1001.24	225.94
1001.53	225.95
1001.82	225.95
1002.11	225.93
1002.40	225.96
1002.68	225.96
1002.97	226.01
1003.26	225.98
1003.55	225.96
1003.84	225.97
1004.13	226.01
1004.42	226.04
1004.71	226.04
1004.99	226.06
1005.28	226.06
1005.57	226.05
1005.86	226.05
1006.15	226.02
1006.44	226.01
1006.72	226.01
1007.01	226.01
1007.30	226.01
1007.59	226.00
1007.88	225.97
1008.17	225.98
1008.45	225.96
1008.74	225.92
1009.03	225.88
1009.32	225.86
1009.60	225.86
1009.89	225.85
1010.18	225.79
1010.47	225.77
1010.76	225.77
1011.04	225.75
1011.33	225.75
1011.62	225.76
1011.91	225.78
1012.19	225.79
1012.48	225.80
1012.77	225.79
1013.05	225.80
1013.34	225.79
1013.63	225.77
1013.92	225.80
1014.20	225.80
1014.49	225.80
1014.78	225.81
1015.06	225.78
1015.35	225.77
1015.64	225.77
1015.92	225.79
1016.21	225.81
1016.50	225.80
1016.78	225.80
1017.07	225.82
1017.36	225.78
1017.64	225.76
1017.93	225.76
1018.22	225.76
1018.50	225.77
1018.79	225.79
1019.08	225.71
1019.36	225.72
1019.65	225.70
1019.93	225.72
1020.22	225.73
1020.51	225.76
1020.79	225.75
1021.08	225.86
1021.36	225.72
1021.65	226.05
1021.94	225.04
1022.22	225.61
1022.51	225.05
1022.79	226.11
1023.08	225.99
1023.36	226.87
1023.65	225.33
>>>>>End Processed Spectral Data<<<<<
