SpectraSuite Data File
++++++++++++++++++++++++++++++++++++
Date: Fri Feb 01 16:00:48 EST 2013
User: group
Dark Spectrum Present: No
Reference Spectrum Present: No
Number of Sampled Component Spectra: 1
Spectrometers: USB2E7196
Integration Time (usec): 35000 (USB2E7196)
Spectra Averaged: 100 (USB2E7196)
Boxcar Smoothing: 10 (USB2E7196)
Correct for Electrical Dark: No (USB2E7196)
Strobe/Lamp Enabled: No (USB2E7196)
Correct for Detector Non-linearity: No (USB2E7196)
Correct for Stray Light: No (USB2E7196)
Number of Pixels in Processed Spectrum: 2048
>>>>>Begin Processed Spectral Data<<<<<
339.09	0.00
339.48	215.18
339.86	216.08
340.24	217.79
340.63	219.34
341.01	222.16
341.39	221.53
341.78	223.29
342.16	224.35
342.54	224.71
342.93	213.23
343.31	224.02
343.69	224.55
344.07	225.06
344.46	225.50
344.84	225.87
345.22	226.10
345.60	226.37
345.99	226.54
346.37	226.67
346.75	226.78
347.13	226.83
347.52	226.89
347.90	226.97
348.28	227.02
348.66	227.07
349.05	227.06
349.43	227.13
349.81	227.15
350.19	227.21
350.57	227.24
350.96	227.29
351.34	227.33
351.72	227.41
352.10	227.47
352.48	227.50
352.87	227.52
353.25	227.57
353.63	227.60
354.01	227.67
354.39	227.74
354.77	227.79
355.15	227.91
355.54	227.95
355.92	228.00
356.30	228.05
356.68	228.16
357.06	228.19
357.44	228.22
357.82	228.27
358.20	228.33
358.58	228.40
358.97	228.43
359.35	228.52
359.73	228.58
360.11	228.65
360.49	228.70
360.87	228.75
361.25	228.82
361.63	228.90
362.01	228.93
362.39	228.94
362.77	228.97
363.15	228.94
363.53	228.94
363.91	228.97
364.29	228.99
364.67	228.87
365.05	228.90
365.43	228.96
365.81	228.96
366.19	228.99
366.57	229.02
366.95	229.06
367.33	229.01
367.71	229.00
368.09	228.97
368.47	228.97
368.85	228.96
369.23	228.93
369.61	228.88
369.99	228.86
370.37	228.86
370.75	228.86
371.13	228.82
371.51	228.79
371.89	228.77
372.27	228.72
372.65	228.68
373.03	228.60
373.41	228.50
373.78	228.45
374.16	228.34
374.54	228.28
374.92	228.17
375.30	228.12
375.68	228.04
376.06	227.96
376.44	227.88
376.82	227.84
377.19	227.80
377.57	227.70
377.95	227.65
378.33	227.58
378.71	227.46
379.09	227.40
379.47	227.36
379.84	227.25
380.22	227.16
380.60	227.13
380.98	227.09
381.36	227.06
381.73	226.98
382.11	226.93
382.49	226.87
382.87	226.84
383.25	226.75
383.62	226.81
384.00	226.75
384.38	226.71
384.76	226.65
385.13	226.62
385.51	226.62
385.89	226.54
386.27	226.47
386.64	226.47
387.02	226.44
387.40	226.38
387.78	226.37
388.15	226.38
388.53	226.31
388.91	226.30
389.29	226.26
389.66	226.26
390.04	226.21
390.42	226.21
390.79	226.21
391.17	226.23
391.55	226.11
391.92	226.11
392.30	226.13
392.68	226.09
393.05	226.08
393.43	226.02
393.81	226.04
394.18	226.07
394.56	226.07
394.94	226.07
395.31	226.08
395.69	226.14
396.06	226.16
396.44	226.23
396.82	226.26
397.19	226.34
397.57	226.36
397.95	226.45
398.32	226.44
398.70	226.47
399.07	226.54
399.45	226.59
399.82	226.62
400.20	226.68
400.58	226.75
400.95	226.80
401.33	226.93
401.70	227.04
402.08	227.11
402.45	227.20
402.83	227.35
403.20	227.47
403.58	227.51
403.95	227.62
404.33	227.77
404.71	227.86
405.08	228.03
405.46	228.18
405.83	228.34
406.21	228.50
406.58	228.66
406.96	228.81
407.33	229.00
407.70	229.21
408.08	229.47
408.45	229.72
408.83	229.92
409.20	230.13
409.58	230.33
409.95	230.60
410.33	230.85
410.70	231.07
411.08	231.35
411.45	231.68
411.82	231.98
412.20	232.33
412.57	232.74
412.95	233.00
413.32	233.37
413.69	233.74
414.07	234.16
414.44	234.65
414.82	235.12
415.19	235.65
415.56	236.20
415.94	236.70
416.31	237.31
416.68	237.96
417.06	238.67
417.43	239.35
417.81	240.12
418.18	240.91
418.55	241.75
418.93	242.63
419.30	243.57
419.67	244.53
420.04	245.48
420.42	246.48
420.79	247.68
421.16	248.89
421.54	250.11
421.91	251.38
422.28	252.61
422.66	253.96
423.03	255.29
423.40	256.63
423.77	258.11
424.15	259.54
424.52	261.02
424.89	262.64
425.26	264.20
425.64	265.62
426.01	267.24
426.38	268.86
426.75	270.55
427.13	272.26
427.50	274.04
427.87	275.89
428.24	277.79
428.61	279.55
428.99	281.45
429.36	283.57
429.73	285.58
430.10	287.59
430.47	289.66
430.85	291.77
431.22	294.01
431.59	296.34
431.96	298.60
432.33	301.09
432.70	303.49
433.08	306.30
433.45	308.96
433.82	311.57
434.19	314.53
434.56	317.35
434.93	319.98
435.30	322.63
435.68	325.55
436.05	328.35
436.42	331.20
436.79	333.73
437.16	336.41
437.53	339.29
437.90	342.14
438.27	344.90
438.64	347.73
439.01	350.37
439.38	352.64
439.75	354.82
440.13	357.33
440.50	359.69
440.87	361.54
441.24	363.49
441.61	365.63
441.98	367.11
442.35	368.90
442.72	370.79
443.09	372.60
443.46	373.64
443.83	374.20
444.20	374.71
444.57	375.58
444.94	375.88
445.31	376.17
445.68	376.52
446.05	376.58
446.42	376.17
446.79	375.69
447.16	375.22
447.53	374.91
447.90	373.70
448.27	372.46
448.64	370.92
449.01	369.76
449.37	367.81
449.74	365.86
450.11	363.60
450.48	361.12
450.85	358.59
451.22	356.38
451.59	354.37
451.96	352.39
452.33	349.78
452.70	347.42
453.07	344.58
453.43	341.65
453.80	338.86
454.17	336.20
454.54	333.67
454.91	330.95
455.28	328.22
455.65	325.76
456.02	323.31
456.38	321.13
456.75	318.46
457.12	316.17
457.49	313.98
457.86	311.81
458.23	309.92
458.59	307.86
458.96	305.78
459.33	303.92
459.70	302.06
460.07	300.52
460.43	298.78
460.80	297.18
461.17	295.75
461.54	294.26
461.91	292.85
462.27	291.37
462.64	290.14
463.01	288.80
463.38	287.53
463.74	286.16
464.11	284.99
464.48	284.00
464.85	282.88
465.21	282.00
465.58	281.07
465.95	279.97
466.32	279.06
466.68	278.16
467.05	277.26
467.42	276.36
467.78	275.43
468.15	274.57
468.52	273.94
468.88	273.08
469.25	272.33
469.62	271.69
469.98	271.06
470.35	270.41
470.72	269.84
471.08	269.20
471.45	268.68
471.82	268.12
472.18	267.53
472.55	267.11
472.92	266.60
473.28	266.14
473.65	265.74
474.02	265.29
474.38	264.95
474.75	264.66
475.11	264.32
475.48	264.04
475.85	263.81
476.21	263.53
476.58	263.37
476.94	263.22
477.31	263.02
477.67	262.89
478.04	262.78
478.41	262.71
478.77	262.73
479.14	262.67
479.50	262.72
479.87	262.83
480.23	262.92
480.60	263.00
480.96	263.11
481.33	263.30
481.69	263.52
482.06	263.72
482.42	263.89
482.79	264.13
483.15	264.49
483.52	264.86
483.88	265.26
484.25	265.65
484.61	266.09
484.98	266.58
485.34	267.14
485.71	267.74
486.07	268.36
486.44	268.95
486.80	269.68
487.17	270.39
487.53	271.18
487.90	272.02
488.26	272.98
488.62	273.96
488.99	274.94
489.35	276.01
489.72	277.15
490.08	278.35
490.44	279.63
490.81	280.94
491.17	282.30
491.54	283.80
491.90	285.32
492.26	287.00
492.63	288.75
492.99	290.53
493.36	292.45
493.72	294.49
494.08	296.61
494.45	298.86
494.81	301.25
495.17	303.68
495.54	306.23
495.90	308.89
496.26	311.73
496.63	314.66
496.99	317.76
497.35	321.00
497.72	324.44
498.08	327.95
498.44	331.60
498.80	335.52
499.17	339.54
499.53	343.69
499.89	348.05
500.26	352.60
500.62	357.27
500.98	362.22
501.34	367.27
501.71	372.60
502.07	378.07
502.43	383.71
502.79	389.52
503.16	395.60
503.52	401.94
503.88	408.36
504.24	415.00
504.60	421.97
504.97	429.11
505.33	436.44
505.69	444.15
506.05	451.93
506.41	459.87
506.78	468.03
507.14	476.57
507.50	485.30
507.86	494.26
508.22	503.50
508.59	512.73
508.95	522.34
509.31	532.17
509.67	542.27
510.03	552.60
510.39	563.19
510.75	574.02
511.12	584.88
511.48	596.22
511.84	607.71
512.20	619.16
512.56	631.17
512.92	643.33
513.28	655.75
513.64	668.27
514.00	680.94
514.37	693.95
514.73	706.92
515.09	719.96
515.45	733.29
515.81	746.83
516.17	760.87
516.53	775.01
516.89	789.12
517.25	803.25
517.61	817.58
517.97	831.99
518.33	846.44
518.69	861.28
519.05	876.18
519.41	891.34
519.77	906.86
520.13	922.18
520.49	937.63
520.85	953.01
521.21	968.68
521.57	984.95
521.93	1000.60
522.29	1017.07
522.65	1033.34
523.01	1049.59
523.37	1065.65
523.73	1081.71
524.09	1097.73
524.45	1114.02
524.81	1130.63
525.17	1147.47
525.53	1164.45
525.89	1181.26
526.25	1197.96
526.61	1214.32
526.97	1231.07
527.33	1247.49
527.68	1264.15
528.04	1280.50
528.40	1297.00
528.76	1314.05
529.12	1330.65
529.48	1347.51
529.84	1363.49
530.20	1380.10
530.56	1396.96
530.91	1414.29
531.27	1430.95
531.63	1447.39
531.99	1463.93
532.35	1479.92
532.71	1495.76
533.07	1511.87
533.42	1527.60
533.78	1543.63
534.14	1559.87
534.50	1575.14
534.86	1591.06
535.21	1606.18
535.57	1622.06
535.93	1637.55
536.29	1652.21
536.65	1667.10
537.00	1681.84
537.36	1697.05
537.72	1711.41
538.08	1725.77
538.44	1739.52
538.79	1753.47
539.15	1767.11
539.51	1780.82
539.87	1795.12
540.22	1808.81
540.58	1822.57
540.94	1835.97
541.29	1848.87
541.65	1861.43
542.01	1874.60
542.37	1886.80
542.72	1899.12
543.08	1910.97
543.44	1923.38
543.79	1934.64
544.15	1945.57
544.51	1957.19
544.87	1968.06
545.22	1978.95
545.58	1989.23
545.94	1998.97
546.29	2008.76
546.65	2018.58
547.01	2027.86
547.36	2036.51
547.72	2044.93
548.07	2052.63
548.43	2060.77
548.79	2068.84
549.14	2076.40
549.50	2083.72
549.86	2091.38
550.21	2098.76
550.57	2105.91
550.92	2112.32
551.28	2119.44
551.64	2126.52
551.99	2132.92
552.35	2139.18
552.70	2145.34
553.06	2151.30
553.41	2157.68
553.77	2163.73
554.13	2169.81
554.48	2175.87
554.84	2181.23
555.19	2186.56
555.55	2191.85
555.90	2196.28
556.26	2201.02
556.61	2205.79
556.97	2210.08
557.32	2214.19
557.68	2218.36
558.03	2222.69
558.39	2226.43
558.74	2231.02
559.10	2234.96
559.45	2238.86
559.81	2243.16
560.16	2246.93
560.52	2250.07
560.87	2253.52
561.23	2256.20
561.58	2259.36
561.94	2262.01
562.29	2264.42
562.64	2267.00
563.00	2269.53
563.35	2273.01
563.71	2276.13
564.06	2279.43
564.42	2282.28
564.77	2284.78
565.12	2287.00
565.48	2288.77
565.83	2290.84
566.19	2292.17
566.54	2293.18
566.89	2294.13
567.25	2294.74
567.60	2296.01
567.96	2297.72
568.31	2298.44
568.66	2299.49
569.02	2299.89
569.37	2300.11
569.72	2301.04
570.08	2301.32
570.43	2301.37
570.78	2300.88
571.14	2299.41
571.49	2298.08
571.84	2297.84
572.20	2296.71
572.55	2295.70
572.90	2294.26
573.26	2292.82
573.61	2291.26
573.96	2289.30
574.31	2286.52
574.67	2283.45
575.02	2279.84
575.37	2276.56
575.72	2272.87
576.08	2269.56
576.43	2266.20
576.78	2262.46
577.13	2259.25
577.49	2256.13
577.84	2252.67
578.19	2249.01
578.54	2245.39
578.90	2241.09
579.25	2235.59
579.60	2230.62
579.95	2225.65
580.30	2220.65
580.66	2215.42
581.01	2210.25
581.36	2205.49
581.71	2201.18
582.06	2196.75
582.42	2192.40
582.77	2187.16
583.12	2182.65
583.47	2177.92
583.82	2172.94
584.17	2167.83
584.53	2162.38
584.88	2156.76
585.23	2151.00
585.58	2145.50
585.93	2140.04
586.28	2135.31
586.63	2130.14
586.98	2125.13
587.34	2120.35
587.69	2115.40
588.04	2110.12
588.39	2104.57
588.74	2098.02
589.09	2091.91
589.44	2085.23
589.79	2079.20
590.14	2073.66
590.49	2067.03
590.84	2060.82
591.19	2054.88
591.54	2048.45
591.89	2041.17
592.25	2034.30
592.60	2027.02
592.95	2019.51
593.30	2012.20
593.65	2004.59
594.00	1997.62
594.35	1990.54
594.70	1982.60
595.05	1975.40
595.40	1968.15
595.75	1960.61
596.10	1954.36
596.45	1947.66
596.80	1941.33
597.15	1934.66
597.50	1927.58
597.85	1921.25
598.19	1914.47
598.54	1907.29
598.89	1900.57
599.24	1894.69
599.59	1888.05
599.94	1881.86
600.29	1875.55
600.64	1868.96
600.99	1861.52
601.34	1854.66
601.69	1847.75
602.04	1840.88
602.39	1833.50
602.74	1826.64
603.08	1819.86
603.43	1813.32
603.78	1805.91
604.13	1798.72
604.48	1791.36
604.83	1784.40
605.18	1777.24
605.53	1769.22
605.87	1761.22
606.22	1754.07
606.57	1746.14
606.92	1738.81
607.27	1731.76
607.62	1724.90
607.96	1717.64
608.31	1711.01
608.66	1703.46
609.01	1695.84
609.36	1688.19
609.70	1680.24
610.05	1672.21
610.40	1664.58
610.75	1656.13
611.10	1648.53
611.44	1640.09
611.79	1632.21
612.14	1623.49
612.49	1614.35
612.83	1605.91
613.18	1597.79
613.53	1589.64
613.88	1581.06
614.22	1572.79
614.57	1564.14
614.92	1555.93
615.27	1548.25
615.61	1539.85
615.96	1531.68
616.31	1523.99
616.65	1516.67
617.00	1509.13
617.35	1501.48
617.70	1493.09
618.04	1484.61
618.39	1476.36
618.74	1468.84
619.08	1460.51
619.43	1453.02
619.78	1446.15
620.12	1439.05
620.47	1431.53
620.82	1423.46
621.16	1416.08
621.51	1408.47
621.85	1400.85
622.20	1392.41
622.55	1384.23
622.89	1376.54
623.24	1369.00
623.59	1361.69
623.93	1354.10
624.28	1346.80
624.62	1339.16
624.97	1332.03
625.32	1325.32
625.66	1318.43
626.01	1311.15
626.35	1303.63
626.70	1295.91
627.04	1288.09
627.39	1280.33
627.73	1272.93
628.08	1265.97
628.43	1258.59
628.77	1251.19
629.12	1243.63
629.46	1236.46
629.81	1229.02
630.15	1221.69
630.50	1214.28
630.84	1206.04
631.19	1198.15
631.53	1190.69
631.88	1183.23
632.22	1175.62
632.57	1168.24
632.91	1160.60
633.26	1153.27
633.60	1145.99
633.95	1138.90
634.29	1131.93
634.64	1125.28
634.98	1117.94
635.32	1110.64
635.67	1104.11
636.01	1097.51
636.36	1090.71
636.70	1084.14
637.05	1077.59
637.39	1071.12
637.73	1064.69
638.08	1058.74
638.42	1052.84
638.77	1046.28
639.11	1039.70
639.45	1033.35
639.80	1026.72
640.14	1020.27
640.49	1013.67
640.83	1007.34
641.17	1000.97
641.52	994.64
641.86	988.12
642.20	982.25
642.55	976.03
642.89	969.51
643.23	962.96
643.58	957.15
643.92	951.00
644.26	944.84
644.61	938.86
644.95	932.74
645.29	926.18
645.64	919.34
645.98	913.12
646.32	907.30
646.66	901.27
647.01	895.48
647.35	889.76
647.69	884.01
648.04	878.46
648.38	872.70
648.72	866.63
649.06	860.51
649.41	854.61
649.75	848.65
650.09	842.73
650.43	836.96
650.78	830.76
651.12	824.77
651.46	819.04
651.80	813.27
652.14	807.83
652.49	802.47
652.83	797.28
653.17	791.59
653.51	785.77
653.85	780.38
654.20	774.68
654.54	768.63
654.88	762.86
655.22	756.88
655.56	751.22
655.90	745.88
656.25	740.71
656.59	735.36
656.93	730.30
657.27	725.13
657.61	719.61
657.95	714.58
658.29	709.41
658.64	704.20
658.98	698.85
659.32	693.39
659.66	688.15
660.00	682.78
660.34	677.75
660.68	672.90
661.02	667.81
661.36	663.13
661.70	658.68
662.05	654.33
662.39	650.05
662.73	645.53
663.07	641.14
663.41	636.68
663.75	632.16
664.09	627.58
664.43	623.16
664.77	619.11
665.11	614.79
665.45	610.73
665.79	606.61
666.13	602.53
666.47	598.48
666.81	594.28
667.15	590.21
667.49	586.37
667.83	582.58
668.17	578.63
668.51	574.49
668.85	570.49
669.19	566.67
669.53	562.87
669.87	559.00
670.21	555.28
670.55	551.67
670.89	548.25
671.23	544.78
671.57	541.25
671.91	537.65
672.25	534.19
672.58	530.66
672.92	527.28
673.26	524.08
673.60	520.91
673.94	517.83
674.28	514.96
674.62	511.99
674.96	508.82
675.30	505.95
675.64	503.06
675.97	500.28
676.31	497.38
676.65	494.41
676.99	491.77
677.33	488.92
677.67	486.06
678.01	483.06
678.34	480.13
678.68	477.27
679.02	474.52
679.36	471.77
679.70	469.06
680.04	466.30
680.37	463.44
680.71	460.63
681.05	457.99
681.39	455.21
681.73	452.52
682.06	449.97
682.40	447.39
682.74	444.88
683.08	442.30
683.42	439.70
683.75	437.19
684.09	434.62
684.43	432.09
684.77	429.74
685.10	427.38
685.44	425.02
685.78	422.75
686.12	420.47
686.45	418.16
686.79	415.85
687.13	413.62
687.46	411.48
687.80	409.38
688.14	407.15
688.48	405.08
688.81	402.84
689.15	400.71
689.49	398.61
689.82	396.52
690.16	394.44
690.50	392.52
690.83	390.58
691.17	388.62
691.51	386.72
691.84	384.77
692.18	382.83
692.52	380.87
692.85	378.89
693.19	377.04
693.52	375.24
693.86	373.47
694.20	371.72
694.53	369.89
694.87	368.03
695.21	366.28
695.54	364.52
695.88	362.79
696.21	361.05
696.55	359.35
696.88	357.68
697.22	356.03
697.56	354.34
697.89	352.71
698.23	351.08
698.56	349.49
698.90	347.90
699.23	346.29
699.57	344.73
699.90	343.22
700.24	341.67
700.58	340.17
700.91	338.65
701.25	337.18
701.58	335.85
701.92	334.47
702.25	333.06
702.59	331.68
702.92	330.40
703.26	329.09
703.59	327.81
703.93	326.63
704.26	325.41
704.60	324.11
704.93	322.85
705.26	321.59
705.60	320.40
705.93	319.24
706.27	318.17
706.60	317.12
706.94	316.03
707.27	314.87
707.61	313.77
707.94	312.75
708.27	311.66
708.61	310.55
708.94	309.52
709.28	308.56
709.61	307.59
709.94	306.63
710.28	305.61
710.61	304.61
710.95	303.52
711.28	302.61
711.61	301.66
711.95	300.71
712.28	299.75
712.61	298.80
712.95	297.84
713.28	296.99
713.61	296.10
713.95	295.18
714.28	294.39
714.61	293.50
714.95	292.65
715.28	291.78
715.61	290.89
715.95	290.04
716.28	289.16
716.61	288.36
716.95	287.49
717.28	286.76
717.61	286.00
717.94	285.27
718.28	284.43
718.61	283.75
718.94	283.08
719.27	282.43
719.61	281.80
719.94	281.16
720.27	280.42
720.60	279.76
720.94	279.16
721.27	278.53
721.60	277.96
721.93	277.37
722.27	276.84
722.60	276.33
722.93	275.77
723.26	275.25
723.59	274.66
723.93	274.17
724.26	273.62
724.59	273.09
724.92	272.57
725.25	272.10
725.59	271.56
725.92	271.03
726.25	270.57
726.58	270.06
726.91	269.56
727.24	269.11
727.57	268.64
727.91	268.13
728.24	267.66
728.57	267.21
728.90	266.75
729.23	266.24
729.56	265.84
729.89	265.35
730.22	264.86
730.55	264.41
730.89	263.96
731.22	263.56
731.55	263.11
731.88	262.68
732.21	262.20
732.54	261.77
732.87	261.41
733.20	260.97
733.53	260.58
733.86	260.24
734.19	259.87
734.52	259.48
734.85	259.18
735.18	258.76
735.51	258.38
735.84	258.01
736.17	257.69
736.50	257.25
736.83	257.05
737.16	256.73
737.49	256.37
737.82	255.99
738.15	255.62
738.48	255.27
738.81	254.95
739.14	254.68
739.47	254.35
739.80	254.00
740.13	253.67
740.46	253.34
740.79	253.01
741.12	252.67
741.45	252.37
741.78	252.00
742.11	251.72
742.44	251.39
742.77	251.10
743.10	250.76
743.43	250.48
743.75	250.08
744.08	249.91
744.41	249.60
744.74	249.33
745.07	249.05
745.40	248.81
745.73	248.57
746.06	248.28
746.39	248.05
746.71	247.73
747.04	247.47
747.37	247.23
747.70	246.98
748.03	246.73
748.36	246.49
748.68	246.28
749.01	246.03
749.34	245.80
749.67	245.58
750.00	245.38
750.33	245.22
750.65	245.01
750.98	244.69
751.31	244.50
751.64	244.32
751.97	244.17
752.29	243.94
752.62	243.69
752.95	243.49
753.28	243.22
753.60	243.07
753.93	242.90
754.26	242.67
754.59	242.45
754.91	242.24
755.24	242.02
755.57	241.81
755.90	241.62
756.22	241.43
756.55	241.23
756.88	240.99
757.20	240.74
757.53	240.54
757.86	240.39
758.19	240.21
758.51	240.03
758.84	239.79
759.17	239.63
759.49	239.46
759.82	239.34
760.15	239.22
760.47	239.05
760.80	238.87
761.13	238.74
761.45	238.55
761.78	238.40
762.11	238.30
762.43	238.15
762.76	238.00
763.08	237.90
763.41	237.77
763.74	237.65
764.06	237.51
764.39	237.40
764.71	237.24
765.04	237.14
765.37	236.99
765.69	236.90
766.02	236.79
766.34	236.66
766.67	236.51
767.00	236.43
767.32	236.37
767.65	236.32
767.97	236.23
768.30	236.17
768.62	236.11
768.95	235.99
769.27	235.87
769.60	235.83
769.92	235.73
770.25	235.62
770.57	235.52
770.90	235.44
771.22	235.36
771.55	235.27
771.87	235.18
772.20	235.07
772.52	235.07
772.85	235.09
773.17	235.03
773.50	234.94
773.82	234.81
774.15	234.67
774.47	234.50
774.80	234.39
775.12	234.29
775.45	234.18
775.77	234.07
776.09	234.01
776.42	233.88
776.74	233.83
777.07	233.73
777.39	233.66
777.72	233.56
778.04	233.49
778.36	233.43
778.69	233.38
779.01	233.33
779.33	233.16
779.66	233.00
779.98	232.89
780.31	232.82
780.63	232.82
780.95	232.78
781.28	232.75
781.60	232.68
781.92	232.61
782.25	232.53
782.57	232.49
782.89	232.44
783.22	232.35
783.54	232.26
783.86	232.22
784.19	232.14
784.51	232.11
784.83	232.01
785.16	231.92
785.48	231.85
785.80	231.82
786.12	231.79
786.45	231.72
786.77	231.69
787.09	231.63
787.42	231.53
787.74	231.48
788.06	231.42
788.38	231.36
788.71	231.34
789.03	231.31
789.35	231.23
789.67	231.15
789.99	231.14
790.32	231.05
790.64	231.01
790.96	231.06
791.28	231.00
791.61	230.95
791.93	230.93
792.25	230.83
792.57	230.82
792.89	230.74
793.21	230.70
793.54	230.63
793.86	230.54
794.18	230.49
794.50	230.43
794.82	230.36
795.14	230.32
795.47	230.27
795.79	230.22
796.11	230.18
796.43	230.17
796.75	230.15
797.07	230.14
797.39	230.08
797.71	229.96
798.04	229.91
798.36	229.93
798.68	229.86
799.00	229.90
799.32	229.83
799.64	229.83
799.96	229.76
800.28	229.78
800.60	229.76
800.92	229.75
801.24	229.70
801.56	229.70
801.89	229.67
802.21	229.65
802.53	229.61
802.85	229.60
803.17	229.60
803.49	229.59
803.81	229.54
804.13	229.52
804.45	229.54
804.77	229.53
805.09	229.48
805.41	229.47
805.73	229.41
806.05	229.40
806.37	229.36
806.69	229.35
807.01	229.32
807.33	229.32
807.65	229.29
807.97	229.33
808.28	229.30
808.60	229.29
808.92	229.28
809.24	229.36
809.56	229.33
809.88	229.29
810.20	229.26
810.52	229.29
810.84	229.26
811.16	229.18
811.48	229.20
811.80	229.22
812.12	229.21
812.43	229.20
812.75	229.18
813.07	229.16
813.39	229.15
813.71	229.13
814.03	229.14
814.35	229.10
814.67	229.04
814.98	229.04
815.30	229.02
815.62	228.98
815.94	228.86
816.26	228.89
816.58	228.87
816.89	228.85
817.21	228.81
817.53	228.82
817.85	228.83
818.17	228.79
818.48	228.71
818.80	228.73
819.12	228.73
819.44	228.68
819.76	228.65
820.07	228.63
820.39	228.61
820.71	228.61
821.03	228.58
821.34	228.59
821.66	228.57
821.98	228.59
822.30	228.56
822.61	228.62
822.93	228.59
823.25	228.55
823.57	228.56
823.88	228.57
824.20	228.56
824.52	228.58
824.83	228.57
825.15	228.57
825.47	228.54
825.79	228.51
826.10	228.52
826.42	228.50
826.74	228.51
827.05	228.46
827.37	228.39
827.69	228.38
828.00	228.36
828.32	228.33
828.64	228.27
828.95	228.34
829.27	228.30
829.58	228.22
829.90	228.21
830.22	228.16
830.53	228.09
830.85	228.04
831.17	227.97
831.48	227.95
831.80	227.88
832.11	227.87
832.43	227.86
832.75	227.85
833.06	227.93
833.38	227.84
833.69	227.85
834.01	227.86
834.32	227.84
834.64	227.82
834.96	227.84
835.27	227.84
835.59	227.76
835.90	227.72
836.22	227.72
836.53	227.68
836.85	227.69
837.16	227.77
837.48	227.74
837.79	227.78
838.11	227.76
838.42	227.78
838.74	227.77
839.05	227.74
839.37	227.71
839.68	227.59
840.00	227.61
840.31	227.59
840.63	227.56
840.94	227.56
841.26	227.55
841.57	227.52
841.88	227.52
842.20	227.49
842.51	227.47
842.83	227.46
843.14	227.55
843.46	227.51
843.77	227.44
844.08	227.48
844.40	227.44
844.71	227.41
845.03	227.40
845.34	227.40
845.65	227.38
845.97	227.35
846.28	227.37
846.60	227.35
846.91	227.36
847.22	227.35
847.54	227.39
847.85	227.37
848.16	227.34
848.48	227.31
848.79	227.36
849.10	227.41
849.42	227.42
849.73	227.34
850.04	227.31
850.36	227.27
850.67	227.28
850.98	227.29
851.30	227.33
851.61	227.32
851.92	227.30
852.23	227.32
852.55	227.34
852.86	227.35
853.17	227.35
853.49	227.36
853.80	227.39
854.11	227.35
854.42	227.37
854.74	227.37
855.05	227.39
855.36	227.33
855.67	227.30
855.99	227.29
856.30	227.41
856.61	227.44
856.92	227.46
857.23	227.42
857.55	227.43
857.86	227.42
858.17	227.43
858.48	227.41
858.79	227.41
859.11	227.42
859.42	227.41
859.73	227.41
860.04	227.38
860.35	227.37
860.66	227.37
860.98	227.35
861.29	227.39
861.60	227.37
861.91	227.41
862.22	227.41
862.53	227.41
862.84	227.31
863.16	227.33
863.47	227.32
863.78	227.34
864.09	227.35
864.40	227.32
864.71	227.33
865.02	227.35
865.33	227.34
865.64	227.32
865.95	227.32
866.27	227.36
866.58	227.38
866.89	227.39
867.20	227.40
867.51	227.40
867.82	227.35
868.13	227.38
868.44	227.33
868.75	227.34
869.06	227.34
869.37	227.33
869.68	227.27
869.99	227.25
870.30	227.22
870.61	227.23
870.92	227.25
871.23	227.21
871.54	227.26
871.85	227.29
872.16	227.30
872.47	227.26
872.78	227.23
873.09	227.24
873.40	227.20
873.71	227.19
874.02	227.19
874.33	227.20
874.64	227.16
874.95	227.16
875.26	227.14
875.56	227.13
875.87	227.13
876.18	227.13
876.49	227.25
876.80	227.24
877.11	227.18
877.42	227.15
877.73	227.17
878.04	227.09
878.35	227.08
878.66	227.04
878.96	227.05
879.27	227.03
879.58	226.99
879.89	226.96
880.20	226.99
880.51	226.96
880.82	226.97
881.12	226.96
881.43	226.95
881.74	226.89
882.05	226.86
882.36	226.85
882.67	226.88
882.97	226.74
883.28	226.68
883.59	226.67
883.90	226.67
884.21	226.69
884.51	226.68
884.82	226.66
885.13	226.67
885.44	226.64
885.74	226.65
886.05	226.64
886.36	226.69
886.67	226.64
886.98	226.69
887.28	226.67
887.59	226.68
887.90	226.71
888.20	226.72
888.51	226.76
888.82	226.75
889.13	226.75
889.43	226.85
889.74	226.90
890.05	226.95
890.35	226.97
890.66	226.92
890.97	226.94
891.28	226.93
891.58	226.97
891.89	227.02
892.20	226.99
892.50	227.00
892.81	226.96
893.12	226.96
893.42	226.91
893.73	226.93
894.04	226.94
894.34	226.97
894.65	226.98
894.95	226.95
895.26	226.96
895.57	227.01
895.87	226.96
896.18	227.00
896.48	227.00
896.79	227.01
897.10	227.05
897.40	227.10
897.71	227.12
898.01	227.11
898.32	227.12
898.63	227.16
898.93	227.18
899.24	227.22
899.54	227.26
899.85	227.28
900.15	227.30
900.46	227.32
900.76	227.32
901.07	227.35
901.38	227.38
901.68	227.39
901.99	227.36
902.29	227.34
902.60	227.32
902.90	227.31
903.21	227.30
903.51	227.32
903.82	227.28
904.12	227.29
904.43	227.31
904.73	227.29
905.03	227.30
905.34	227.39
905.64	227.37
905.95	227.37
906.25	227.37
906.56	227.38
906.86	227.36
907.17	227.32
907.47	227.31
907.77	227.30
908.08	227.26
908.38	227.25
908.69	227.27
908.99	227.28
909.30	227.30
909.60	227.27
909.90	227.24
910.21	227.25
910.51	227.18
910.81	227.16
911.12	227.20
911.42	227.19
911.73	227.07
912.03	227.10
912.33	227.10
912.64	227.10
912.94	227.05
913.24	227.03
913.55	227.03
913.85	227.01
914.15	227.02
914.46	227.05
914.76	226.99
915.06	226.95
915.37	226.90
915.67	226.86
915.97	226.89
916.27	226.87
916.58	226.84
916.88	226.88
917.18	226.86
917.49	226.88
917.79	226.85
918.09	226.85
918.39	226.85
918.70	226.83
919.00	226.81
919.30	226.83
919.60	226.80
919.91	226.76
920.21	226.76
920.51	226.74
920.81	226.69
921.12	226.74
921.42	226.76
921.72	226.73
922.02	226.74
922.32	226.71
922.63	226.67
922.93	226.72
923.23	226.71
923.53	226.70
923.83	226.61
924.13	226.60
924.44	226.59
924.74	226.60
925.04	226.59
925.34	226.59
925.64	226.57
925.94	226.55
926.24	226.61
926.55	226.61
926.85	226.58
927.15	226.54
927.45	226.52
927.75	226.50
928.05	226.52
928.35	226.51
928.65	226.54
928.95	226.59
929.26	226.53
929.56	226.52
929.86	226.54
930.16	226.56
930.46	226.58
930.76	226.56
931.06	226.52
931.36	226.52
931.66	226.51
931.96	226.52
932.26	226.59
932.56	226.55
932.86	226.56
933.16	226.59
933.46	226.65
933.76	226.66
934.06	226.70
934.36	226.75
934.66	226.74
934.96	226.74
935.26	226.74
935.56	226.78
935.86	226.75
936.16	226.76
936.46	226.79
936.76	226.80
937.06	226.83
937.36	226.86
937.66	226.85
937.96	226.86
938.26	226.84
938.56	226.84
938.86	226.88
939.16	226.88
939.46	226.90
939.76	226.91
940.06	226.94
940.35	226.95
940.65	226.90
940.95	226.95
941.25	226.91
941.55	226.91
941.85	226.90
942.15	226.98
942.45	227.00
942.75	226.95
943.04	226.93
943.34	226.94
943.64	226.95
943.94	226.97
944.24	226.99
944.54	227.03
944.84	227.00
945.13	226.96
945.43	226.98
945.73	227.00
946.03	226.99
946.33	226.95
946.62	226.92
946.92	226.92
947.22	226.91
947.52	226.93
947.82	226.97
948.11	226.94
948.41	226.90
948.71	226.90
949.01	226.93
949.31	226.94
949.60	226.93
949.90	226.92
950.20	226.88
950.50	226.89
950.79	226.87
951.09	226.88
951.39	226.90
951.69	226.87
951.98	226.86
952.28	226.88
952.58	226.89
952.87	226.87
953.17	226.87
953.47	226.86
953.76	226.86
954.06	226.80
954.36	226.81
954.66	226.82
954.95	226.77
955.25	226.75
955.55	226.74
955.84	226.67
956.14	226.66
956.44	226.64
956.73	226.57
957.03	226.55
957.32	226.55
957.62	226.51
957.92	226.54
958.21	226.52
958.51	226.57
958.81	226.56
959.10	226.56
959.40	226.58
959.69	226.58
959.99	226.54
960.29	226.53
960.58	226.49
960.88	226.50
961.17	226.50
961.47	226.53
961.76	226.52
962.06	226.55
962.36	226.57
962.65	226.58
962.95	226.63
963.24	226.63
963.54	226.65
963.83	226.64
964.13	226.61
964.42	226.59
964.72	226.51
965.01	226.53
965.31	226.53
965.60	226.50
965.90	226.56
966.19	226.62
966.49	226.64
966.78	226.65
967.08	226.66
967.37	226.64
967.67	226.62
967.96	226.65
968.26	226.67
968.55	226.64
968.85	226.66
969.14	226.61
969.43	226.62
969.73	226.59
970.02	226.59
970.32	226.60
970.61	226.63
970.91	226.60
971.20	226.60
971.49	226.60
971.79	226.63
972.08	226.60
972.38	226.57
972.67	226.55
972.96	226.61
973.26	226.60
973.55	226.66
973.85	226.65
974.14	226.65
974.43	226.64
974.73	226.65
975.02	226.63
975.31	226.64
975.61	226.66
975.90	226.69
976.19	226.70
976.49	226.73
976.78	226.72
977.07	226.72
977.37	226.74
977.66	226.76
977.95	226.75
978.24	226.71
978.54	226.76
978.83	226.78
979.12	226.75
979.42	226.76
979.71	226.73
980.00	226.74
980.29	226.73
980.59	226.70
980.88	226.71
981.17	226.73
981.46	226.76
981.76	226.71
982.05	226.72
982.34	226.72
982.63	226.69
982.93	226.67
983.22	226.70
983.51	226.71
983.80	226.71
984.09	226.70
984.39	226.72
984.68	226.66
984.97	226.65
985.26	226.63
985.55	226.63
985.85	226.62
986.14	226.64
986.43	226.68
986.72	226.69
987.01	226.70
987.30	226.68
987.59	226.65
987.89	226.68
988.18	226.66
988.47	226.66
988.76	226.64
989.05	226.65
989.34	226.62
989.63	226.62
989.92	226.59
990.22	226.59
990.51	226.56
990.80	226.58
991.09	226.59
991.38	226.62
991.67	226.65
991.96	226.64
992.25	226.62
992.54	226.58
992.83	226.59
993.12	226.58
993.41	226.61
993.70	226.65
993.99	226.65
994.28	226.64
994.58	226.66
994.87	226.65
995.16	226.65
995.45	226.64
995.74	226.62
996.03	226.63
996.32	226.64
996.61	226.65
996.90	226.64
997.19	226.64
997.48	226.61
997.77	226.56
998.06	226.57
998.34	226.55
998.63	226.49
998.92	226.47
999.21	226.48
999.50	226.48
999.79	226.42
1000.08	226.39
1000.37	226.42
1000.66	226.41
1000.95	226.42
1001.24	226.41
1001.53	226.44
1001.82	226.43
1002.11	226.44
1002.40	226.46
1002.68	226.48
1002.97	226.56
1003.26	226.53
1003.55	226.52
1003.84	226.50
1004.13	226.54
1004.42	226.55
1004.71	226.60
1004.99	226.61
1005.28	226.62
1005.57	226.60
1005.86	226.60
1006.15	226.63
1006.44	226.61
1006.72	226.61
1007.01	226.61
1007.30	226.64
1007.59	226.63
1007.88	226.62
1008.17	226.61
1008.45	226.60
1008.74	226.56
1009.03	226.53
1009.32	226.54
1009.60	226.55
1009.89	226.58
1010.18	226.55
1010.47	226.55
1010.76	226.55
1011.04	226.55
1011.33	226.55
1011.62	226.58
1011.91	226.60
1012.19	226.59
1012.48	226.57
1012.77	226.62
1013.05	226.67
1013.34	226.64
1013.63	226.66
1013.92	226.68
1014.20	226.69
1014.49	226.70
1014.78	226.72
1015.06	226.68
1015.35	226.68
1015.64	226.71
1015.92	226.73
1016.21	226.74
1016.50	226.73
1016.78	226.77
1017.07	226.78
1017.36	226.76
1017.64	226.76
1017.93	226.79
1018.22	226.79
1018.50	226.81
1018.79	226.78
1019.08	226.75
1019.36	226.78
1019.65	226.76
1019.93	226.77
1020.22	226.77
1020.51	226.79
1020.79	226.74
1021.08	226.40
1021.36	226.59
1021.65	226.65
1021.94	226.82
1022.22	226.97
1022.51	226.62
1022.79	227.10
1023.08	226.73
1023.36	227.50
1023.65	225.80
>>>>>End Processed Spectral Data<<<<<
