SpectraSuite Data File
++++++++++++++++++++++++++++++++++++
Date: Fri Feb 01 17:24:47 EST 2013
User: group
Dark Spectrum Present: No
Reference Spectrum Present: No
Number of Sampled Component Spectra: 1
Spectrometers: USB2E7196
Integration Time (usec): 35000 (USB2E7196)
Spectra Averaged: 100 (USB2E7196)
Boxcar Smoothing: 10 (USB2E7196)
Correct for Electrical Dark: No (USB2E7196)
Strobe/Lamp Enabled: No (USB2E7196)
Correct for Detector Non-linearity: No (USB2E7196)
Correct for Stray Light: No (USB2E7196)
Number of Pixels in Processed Spectrum: 2048
>>>>>Begin Processed Spectral Data<<<<<
339.09	0.00
339.48	213.12
339.86	214.17
340.24	215.99
340.63	217.40
341.01	220.16
341.39	219.45
341.78	221.32
342.16	221.87
342.54	222.84
342.93	211.28
343.31	221.97
343.69	222.51
344.07	222.99
344.46	223.39
344.84	223.76
345.22	223.99
345.60	224.29
345.99	224.47
346.37	224.61
346.75	224.69
347.13	224.78
347.52	224.89
347.90	224.97
348.28	225.02
348.66	225.08
349.05	225.09
349.43	225.09
349.81	225.15
350.19	225.19
350.57	225.25
350.96	225.27
351.34	225.32
351.72	225.39
352.10	225.51
352.48	225.59
352.87	225.64
353.25	225.71
353.63	225.73
354.01	225.81
354.39	225.89
354.77	225.99
355.15	226.07
355.54	226.11
355.92	226.14
356.30	226.21
356.68	226.34
357.06	226.39
357.44	226.47
357.82	226.49
358.20	226.55
358.58	226.62
358.97	226.68
359.35	226.79
359.73	226.86
360.11	226.89
360.49	226.95
360.87	226.99
361.25	227.05
361.63	227.13
362.01	227.18
362.39	227.21
362.77	227.24
363.15	227.25
363.53	227.30
363.91	227.31
364.29	227.34
364.67	227.28
365.05	227.32
365.43	227.32
365.81	227.37
366.19	227.42
366.57	227.45
366.95	227.47
367.33	227.45
367.71	227.42
368.09	227.45
368.47	227.43
368.85	227.40
369.23	227.39
369.61	227.33
369.99	227.32
370.37	227.31
370.75	227.32
371.13	227.29
371.51	227.26
371.89	227.24
372.27	227.21
372.65	227.16
373.03	227.07
373.41	227.04
373.78	226.94
374.16	226.86
374.54	226.77
374.92	226.70
375.30	226.66
375.68	226.58
376.06	226.50
376.44	226.42
376.82	226.40
377.19	226.33
377.57	226.28
377.95	226.19
378.33	226.12
378.71	226.02
379.09	225.98
379.47	225.92
379.84	225.87
380.22	225.81
380.60	225.75
380.98	225.74
381.36	225.66
381.73	225.59
382.11	225.54
382.49	225.49
382.87	225.42
383.25	225.31
383.62	225.39
384.00	225.30
384.38	225.27
384.76	225.20
385.13	225.16
385.51	225.09
385.89	225.00
386.27	224.96
386.64	224.90
387.02	224.85
387.40	224.80
387.78	224.76
388.15	224.69
388.53	224.64
388.91	224.61
389.29	224.59
389.66	224.59
390.04	224.54
390.42	224.56
390.79	224.55
391.17	224.55
391.55	224.45
391.92	224.43
392.30	224.44
392.68	224.43
393.05	224.43
393.43	224.44
393.81	224.45
394.18	224.43
394.56	224.47
394.94	224.50
395.31	224.50
395.69	224.54
396.06	224.58
396.44	224.62
396.82	224.62
397.19	224.69
397.57	224.71
397.95	224.75
398.32	224.75
398.70	224.80
399.07	224.87
399.45	224.87
399.82	224.95
400.20	225.01
400.58	225.07
400.95	225.10
401.33	225.24
401.70	225.39
402.08	225.50
402.45	225.56
402.83	225.69
403.20	225.79
403.58	225.88
403.95	226.01
404.33	226.12
404.71	226.23
405.08	226.40
405.46	226.52
405.83	226.67
406.21	226.79
406.58	226.96
406.96	227.11
407.33	227.31
407.70	227.51
408.08	227.76
408.45	228.00
408.83	228.27
409.20	228.44
409.58	228.61
409.95	228.86
410.33	229.15
410.70	229.38
411.08	229.68
411.45	229.96
411.82	230.23
412.20	230.59
412.57	231.04
412.95	231.33
413.32	231.76
413.69	232.18
414.07	232.65
414.44	233.14
414.82	233.63
415.19	234.20
415.56	234.74
415.94	235.28
416.31	235.94
416.68	236.55
417.06	237.31
417.43	238.02
417.81	238.85
418.18	239.65
418.55	240.51
418.93	241.44
419.30	242.40
419.67	243.40
420.04	244.37
420.42	245.36
420.79	246.62
421.16	247.84
421.54	249.07
421.91	250.34
422.28	251.65
422.66	253.06
423.03	254.43
423.40	255.82
423.77	257.30
424.15	258.74
424.52	260.28
424.89	261.98
425.26	263.60
425.64	265.08
426.01	266.72
426.38	268.47
426.75	270.20
427.13	271.99
427.50	273.85
427.87	275.85
428.24	277.79
428.61	279.59
428.99	281.58
429.36	283.76
429.73	285.88
430.10	287.92
430.47	290.04
430.85	292.21
431.22	294.54
431.59	297.05
431.96	299.39
432.33	301.98
432.70	304.44
433.08	307.34
433.45	310.07
433.82	312.80
434.19	315.80
434.56	318.71
434.93	321.44
435.30	324.17
435.68	327.14
436.05	330.08
436.42	332.97
436.79	335.62
437.16	338.40
437.53	341.34
437.90	344.31
438.27	347.15
438.64	350.12
439.01	352.83
439.38	355.13
439.75	357.38
440.13	359.94
440.50	362.33
440.87	364.26
441.24	366.25
441.61	368.44
441.98	370.00
442.35	371.84
442.72	373.78
443.09	375.67
443.46	376.67
443.83	377.31
444.20	377.84
444.57	378.69
444.94	379.01
445.31	379.40
445.68	379.76
446.05	379.82
446.42	379.39
446.79	379.00
447.16	378.55
447.53	378.26
447.90	377.11
448.27	375.90
448.64	374.27
449.01	373.11
449.37	371.09
449.74	369.14
450.11	366.84
450.48	364.32
450.85	361.66
451.22	359.48
451.59	357.39
451.96	355.36
452.33	352.66
452.70	350.22
453.07	347.27
453.43	344.25
453.80	341.42
454.17	338.68
454.54	335.98
454.91	333.16
455.28	330.38
455.65	327.76
456.02	325.26
456.38	323.01
456.75	320.31
457.12	318.00
457.49	315.68
457.86	313.45
458.23	311.48
458.59	309.39
458.96	307.23
459.33	305.32
459.70	303.40
460.07	301.85
460.43	300.08
460.80	298.39
461.17	296.91
461.54	295.36
461.91	293.86
462.27	292.37
462.64	291.07
463.01	289.61
463.38	288.31
463.74	286.88
464.11	285.70
464.48	284.61
464.85	283.43
465.21	282.53
465.58	281.56
465.95	280.45
466.32	279.50
466.68	278.58
467.05	277.66
467.42	276.74
467.78	275.75
468.15	274.86
468.52	274.17
468.88	273.29
469.25	272.51
469.62	271.86
469.98	271.17
470.35	270.54
470.72	269.95
471.08	269.24
471.45	268.71
471.82	268.13
472.18	267.51
472.55	267.08
472.92	266.55
473.28	266.06
473.65	265.60
474.02	265.19
474.38	264.79
474.75	264.45
475.11	264.09
475.48	263.82
475.85	263.58
476.21	263.37
476.58	263.16
476.94	262.99
477.31	262.83
477.67	262.67
478.04	262.53
478.41	262.48
478.77	262.52
479.14	262.47
479.50	262.49
479.87	262.56
480.23	262.63
480.60	262.70
480.96	262.81
481.33	263.05
481.69	263.25
482.06	263.45
482.42	263.63
482.79	263.91
483.15	264.23
483.52	264.61
483.88	264.97
484.25	265.40
484.61	265.80
484.98	266.25
485.34	266.78
485.71	267.39
486.07	267.98
486.44	268.49
486.80	269.18
487.17	269.89
487.53	270.70
487.90	271.58
488.26	272.49
488.62	273.45
488.99	274.38
489.35	275.39
489.72	276.51
490.08	277.72
490.44	278.97
490.81	280.28
491.17	281.56
491.54	283.03
491.90	284.52
492.26	286.15
492.63	287.87
492.99	289.68
493.36	291.54
493.72	293.52
494.08	295.64
494.45	297.83
494.81	300.18
495.17	302.54
495.54	305.07
495.90	307.75
496.26	310.51
496.63	313.45
496.99	316.56
497.35	319.78
497.72	323.11
498.08	326.54
498.44	330.17
498.80	334.08
499.17	338.05
499.53	342.15
499.89	346.50
500.26	350.94
500.62	355.50
500.98	360.39
501.34	365.50
501.71	370.78
502.07	376.21
502.43	381.77
502.79	387.55
503.16	393.53
503.52	399.71
503.88	406.06
504.24	412.65
504.60	419.42
504.97	426.43
505.33	433.67
505.69	441.28
506.05	448.93
506.41	456.77
506.78	464.83
507.14	473.23
507.50	481.79
507.86	490.65
508.22	499.79
508.59	508.86
508.95	518.23
509.31	527.84
509.67	537.75
510.03	547.87
510.39	558.25
510.75	568.81
511.12	579.51
511.48	590.58
511.84	601.76
512.20	613.03
512.56	624.70
512.92	636.62
513.28	648.74
513.64	661.00
514.00	673.37
514.37	686.06
514.73	698.83
515.09	711.61
515.45	724.57
515.81	737.79
516.17	751.42
516.53	765.29
516.89	779.21
517.25	793.05
517.61	807.13
517.97	821.23
518.33	835.37
518.69	849.84
519.05	864.44
519.41	879.20
519.77	894.33
520.13	909.40
520.49	924.45
520.85	939.47
521.21	954.73
521.57	970.56
521.93	985.92
522.29	1001.76
522.65	1017.55
523.01	1033.27
523.37	1048.95
523.73	1064.74
524.09	1080.27
524.45	1096.08
524.81	1112.20
525.17	1128.51
525.53	1144.88
525.89	1161.35
526.25	1177.76
526.61	1193.67
526.97	1210.02
527.33	1226.20
527.68	1242.36
528.04	1258.44
528.40	1274.50
528.76	1291.09
529.12	1307.23
529.48	1323.68
529.84	1339.36
530.20	1355.68
530.56	1372.29
530.91	1389.28
531.27	1405.74
531.63	1421.83
531.99	1438.16
532.35	1453.84
532.71	1469.49
533.07	1485.50
533.42	1501.11
533.78	1516.83
534.14	1532.81
534.50	1547.87
534.86	1563.25
535.21	1578.20
535.57	1593.64
535.93	1608.96
536.29	1623.58
536.65	1638.40
537.00	1652.81
537.36	1667.87
537.72	1682.07
538.08	1696.32
538.44	1709.87
538.79	1723.52
539.15	1736.98
539.51	1750.46
539.87	1764.65
540.22	1778.02
540.58	1791.40
540.94	1804.38
541.29	1816.90
541.65	1829.42
542.01	1842.35
542.37	1854.64
542.72	1866.88
543.08	1878.75
543.44	1890.95
543.79	1902.21
544.15	1913.20
544.51	1924.80
544.87	1935.69
545.22	1946.54
545.58	1956.79
545.94	1966.52
546.29	1976.42
546.65	1986.30
547.01	1995.71
547.36	2004.43
547.72	2013.05
548.07	2021.17
548.43	2029.51
548.79	2037.57
549.14	2045.33
549.50	2052.83
549.86	2060.61
550.21	2068.09
550.57	2075.41
550.92	2082.28
551.28	2089.40
551.64	2096.59
551.99	2103.42
552.35	2109.83
552.70	2116.24
553.06	2122.49
553.41	2129.05
553.77	2135.17
554.13	2141.49
554.48	2147.70
554.84	2153.61
555.19	2159.20
555.55	2164.70
555.90	2169.50
556.26	2175.04
556.61	2179.88
556.97	2184.73
557.32	2189.21
557.68	2193.81
558.03	2198.45
558.39	2202.42
558.74	2207.23
559.10	2211.42
559.45	2215.28
559.81	2219.68
560.16	2223.68
560.52	2227.18
560.87	2230.89
561.23	2233.91
561.58	2237.09
561.94	2240.08
562.29	2242.50
562.64	2245.57
563.00	2248.41
563.35	2252.26
563.71	2255.62
564.06	2259.22
564.42	2262.38
564.77	2265.37
565.12	2268.18
565.48	2270.29
565.83	2272.64
566.19	2274.59
566.54	2275.86
566.89	2277.39
567.25	2278.58
567.60	2280.31
567.96	2282.52
568.31	2283.77
568.66	2285.44
569.02	2286.60
569.37	2287.30
569.72	2288.72
570.08	2289.31
570.43	2289.83
570.78	2289.71
571.14	2288.53
571.49	2287.58
571.84	2287.46
572.20	2286.77
572.55	2285.96
572.90	2284.75
573.26	2283.86
573.61	2282.34
573.96	2281.12
574.31	2278.59
574.67	2276.08
575.02	2272.87
575.37	2269.77
575.72	2266.42
576.08	2263.14
576.43	2260.04
576.78	2256.79
577.13	2253.71
577.49	2250.73
577.84	2247.46
578.19	2243.86
578.54	2240.65
578.90	2236.99
579.25	2231.85
579.60	2227.17
579.95	2222.58
580.30	2217.99
580.66	2212.96
581.01	2208.40
581.36	2203.69
581.71	2199.94
582.06	2195.79
582.42	2191.75
582.77	2186.88
583.12	2182.78
583.47	2178.59
583.82	2173.92
584.17	2168.95
584.53	2163.89
584.88	2158.65
585.23	2153.45
585.58	2148.35
585.93	2143.23
586.28	2138.46
586.63	2133.71
586.98	2128.97
587.34	2124.42
587.69	2119.81
588.04	2114.99
588.39	2109.52
588.74	2103.29
589.09	2097.21
589.44	2090.67
589.79	2084.70
590.14	2079.25
590.49	2072.72
590.84	2066.47
591.19	2060.74
591.54	2054.45
591.89	2047.56
592.25	2041.11
592.60	2033.87
592.95	2026.59
593.30	2019.45
593.65	2012.07
594.00	2005.17
594.35	1997.91
594.70	1989.78
595.05	1982.93
595.40	1975.71
595.75	1968.44
596.10	1962.51
596.45	1956.02
596.80	1950.05
597.15	1943.61
597.50	1936.79
597.85	1930.48
598.19	1923.98
598.54	1917.24
598.89	1910.72
599.24	1904.71
599.59	1898.29
599.94	1892.13
600.29	1885.86
600.64	1879.29
600.99	1872.08
601.34	1865.41
601.69	1858.43
602.04	1851.86
602.39	1844.44
602.74	1837.67
603.08	1831.06
603.43	1824.27
603.78	1817.07
604.13	1809.91
604.48	1802.81
604.83	1795.95
605.18	1789.14
605.53	1781.34
605.87	1773.09
606.22	1765.82
606.57	1757.90
606.92	1750.28
607.27	1743.31
607.62	1736.52
607.96	1729.28
608.31	1722.78
608.66	1715.24
609.01	1707.89
609.36	1700.46
609.70	1692.44
610.05	1684.39
610.40	1676.77
610.75	1668.50
611.10	1660.83
611.44	1652.32
611.79	1644.11
612.14	1635.38
612.49	1626.14
612.83	1617.56
613.18	1609.36
613.53	1601.24
613.88	1592.70
614.22	1584.49
614.57	1575.64
614.92	1567.45
615.27	1559.94
615.61	1551.52
615.96	1543.37
616.31	1535.53
616.65	1528.03
617.00	1520.37
617.35	1512.60
617.70	1504.15
618.04	1495.52
618.39	1487.05
618.74	1479.28
619.08	1471.01
619.43	1463.32
619.78	1456.27
620.12	1449.06
620.47	1441.58
620.82	1433.28
621.16	1425.75
621.51	1417.92
621.85	1410.29
622.20	1401.78
622.55	1393.23
622.89	1385.21
623.24	1377.39
623.59	1369.82
623.93	1362.21
624.28	1354.89
624.62	1347.28
624.97	1340.01
625.32	1333.10
625.66	1326.06
626.01	1318.91
626.35	1311.48
626.70	1303.57
627.04	1295.92
627.39	1288.11
627.73	1280.55
628.08	1273.60
628.43	1266.31
628.77	1259.10
629.12	1251.43
629.46	1244.11
629.81	1236.48
630.15	1229.10
630.50	1221.69
630.84	1213.56
631.19	1205.45
631.53	1197.80
631.88	1190.08
632.22	1182.44
632.57	1175.13
632.91	1167.55
633.26	1160.04
633.60	1152.40
633.95	1145.11
634.29	1137.83
634.64	1130.96
634.98	1123.53
635.32	1116.32
635.67	1109.52
636.01	1102.70
636.36	1095.99
636.70	1089.31
637.05	1082.72
637.39	1076.24
637.73	1069.75
638.08	1063.80
638.42	1057.76
638.77	1051.29
639.11	1044.81
639.45	1038.16
639.80	1031.39
640.14	1025.01
640.49	1018.53
640.83	1012.26
641.17	1006.05
641.52	999.66
641.86	993.13
642.20	987.27
642.55	980.79
642.89	974.35
643.23	967.74
643.58	961.80
643.92	955.65
644.26	949.65
644.61	943.53
644.95	937.44
645.29	930.85
645.64	924.07
645.98	917.69
646.32	911.65
646.66	905.67
647.01	899.80
647.35	893.93
647.69	887.90
648.04	882.32
648.38	876.61
648.72	870.66
649.06	864.70
649.41	858.78
649.75	852.94
650.09	846.97
650.43	841.18
650.78	835.01
651.12	828.98
651.46	823.23
651.80	817.55
652.14	812.14
652.49	806.71
652.83	801.46
653.17	795.85
653.51	790.29
653.85	784.76
654.20	779.18
654.54	773.14
654.88	767.37
655.22	761.41
655.56	755.63
655.90	750.06
656.25	744.72
656.59	739.29
656.93	734.09
657.27	728.91
657.61	723.38
657.95	718.25
658.29	713.15
658.64	707.73
658.98	702.32
659.32	696.72
659.66	691.46
660.00	686.18
660.34	681.14
660.68	676.09
661.02	671.08
661.36	666.36
661.70	661.81
662.05	657.46
662.39	653.08
662.73	648.59
663.07	644.17
663.41	639.72
663.75	635.21
664.09	630.63
664.43	626.22
664.77	622.11
665.11	617.82
665.45	613.63
665.79	609.63
666.13	605.51
666.47	601.38
666.81	597.19
667.15	592.97
667.49	589.01
667.83	585.09
668.17	581.17
668.51	577.05
668.85	573.05
669.19	569.13
669.53	565.36
669.87	561.48
670.21	557.76
670.55	554.08
670.89	550.64
671.23	547.13
671.57	543.59
671.91	540.05
672.25	536.57
672.58	533.03
672.92	529.58
673.26	526.32
673.60	523.21
673.94	520.10
674.28	517.23
674.62	514.23
674.96	511.22
675.30	508.30
675.64	505.32
675.97	502.52
676.31	499.68
676.65	496.72
676.99	493.98
677.33	491.10
677.67	488.28
678.01	485.23
678.34	482.34
678.68	479.37
679.02	476.59
679.36	473.78
679.70	471.02
680.04	468.24
680.37	465.43
680.71	462.62
681.05	460.01
681.39	457.28
681.73	454.58
682.06	451.99
682.40	449.42
682.74	446.89
683.08	444.28
683.42	441.63
683.75	439.06
684.09	436.50
684.43	434.03
684.77	431.50
685.10	429.10
685.44	426.70
685.78	424.43
686.12	422.06
686.45	419.74
686.79	417.45
687.13	415.21
687.46	413.01
687.80	410.81
688.14	408.49
688.48	406.39
688.81	404.19
689.15	402.03
689.49	399.84
689.82	397.75
690.16	395.62
690.50	393.65
690.83	391.70
691.17	389.64
691.51	387.68
691.84	385.84
692.18	383.96
692.52	382.00
692.85	380.03
693.19	378.17
693.52	376.27
693.86	374.40
694.20	372.60
694.53	370.78
694.87	368.89
695.21	367.12
695.54	365.24
695.88	363.45
696.21	361.68
696.55	359.96
696.88	358.21
697.22	356.56
697.56	354.85
697.89	353.17
698.23	351.59
698.56	349.98
698.90	348.38
699.23	346.68
699.57	345.09
699.90	343.49
700.24	341.94
700.58	340.45
700.91	338.94
701.25	337.49
701.58	336.06
701.92	334.67
702.25	333.24
702.59	331.89
702.92	330.54
703.26	329.19
703.59	327.90
703.93	326.70
704.26	325.41
704.60	324.11
704.93	322.81
705.26	321.54
705.60	320.30
705.93	319.12
706.27	318.08
706.60	317.01
706.94	315.95
707.27	314.78
707.61	313.69
707.94	312.65
708.27	311.52
708.61	310.44
708.94	309.41
709.28	308.41
709.61	307.42
709.94	306.43
710.28	305.38
710.61	304.36
710.95	303.21
711.28	302.26
711.61	301.31
711.95	300.38
712.28	299.43
712.61	298.46
712.95	297.48
713.28	296.54
713.61	295.60
713.95	294.71
714.28	293.79
714.61	292.89
714.95	292.03
715.28	291.13
715.61	290.24
715.95	289.39
716.28	288.53
716.61	287.65
716.95	286.83
717.28	286.05
717.61	285.29
717.94	284.61
718.28	283.81
718.61	283.09
718.94	282.39
719.27	281.71
719.61	281.05
719.94	280.38
720.27	279.66
720.60	278.99
720.94	278.35
721.27	277.77
721.60	277.18
721.93	276.57
722.27	276.08
722.60	275.55
722.93	274.99
723.26	274.45
723.59	273.91
723.93	273.35
724.26	272.82
724.59	272.26
724.92	271.68
725.25	271.16
725.59	270.64
725.92	270.16
726.25	269.61
726.58	269.07
726.91	268.56
727.24	268.09
727.57	267.60
727.91	267.09
728.24	266.60
728.57	266.07
728.90	265.60
729.23	265.09
729.56	264.60
729.89	264.08
730.22	263.57
730.55	263.09
730.89	262.65
731.22	262.18
731.55	261.73
731.88	261.31
732.21	260.88
732.54	260.44
732.87	259.97
733.20	259.61
733.53	259.24
733.86	258.87
734.19	258.45
734.52	258.08
734.85	257.80
735.18	257.39
735.51	257.04
735.84	256.67
736.17	256.33
736.50	255.94
736.83	255.75
737.16	255.43
737.49	255.15
737.82	254.79
738.15	254.48
738.48	254.13
738.81	253.80
739.14	253.49
739.47	253.13
739.80	252.82
740.13	252.48
740.46	252.16
740.79	251.84
741.12	251.50
741.45	251.14
741.78	250.75
742.11	250.49
742.44	250.18
742.77	249.89
743.10	249.50
743.43	249.23
743.75	248.83
744.08	248.66
744.41	248.33
744.74	248.08
745.07	247.79
745.40	247.56
745.73	247.30
746.06	247.02
746.39	246.76
746.71	246.50
747.04	246.25
747.37	245.99
747.70	245.74
748.03	245.50
748.36	245.29
748.68	245.06
749.01	244.78
749.34	244.54
749.67	244.30
750.00	244.11
750.33	243.92
750.65	243.70
750.98	243.38
751.31	243.14
751.64	242.92
751.97	242.73
752.29	242.50
752.62	242.28
752.95	242.07
753.28	241.83
753.60	241.61
753.93	241.42
754.26	241.19
754.59	240.99
754.91	240.75
755.24	240.54
755.57	240.32
755.90	240.12
756.22	239.93
756.55	239.71
756.88	239.52
757.20	239.26
757.53	239.00
757.86	238.81
758.19	238.66
758.51	238.48
758.84	238.27
759.17	238.11
759.49	237.92
759.82	237.78
760.15	237.65
760.47	237.47
760.80	237.30
761.13	237.17
761.45	236.95
761.78	236.82
762.11	236.65
762.43	236.50
762.76	236.34
763.08	236.21
763.41	236.10
763.74	235.97
764.06	235.86
764.39	235.75
764.71	235.64
765.04	235.48
765.37	235.35
765.69	235.19
766.02	235.05
766.34	234.93
766.67	234.80
767.00	234.71
767.32	234.63
767.65	234.56
767.97	234.41
768.30	234.35
768.62	234.23
768.95	234.12
769.27	234.01
769.60	233.93
769.92	233.81
770.25	233.66
770.57	233.53
770.90	233.42
771.22	233.32
771.55	233.18
771.87	233.12
772.20	233.03
772.52	233.06
772.85	233.06
773.17	232.95
773.50	232.87
773.82	232.76
774.15	232.65
774.47	232.50
774.80	232.45
775.12	232.37
775.45	232.32
775.77	232.27
776.09	232.21
776.42	232.14
776.74	232.09
777.07	232.03
777.39	231.99
777.72	231.90
778.04	231.82
778.36	231.75
778.69	231.67
779.01	231.60
779.33	231.40
779.66	231.26
779.98	231.17
780.31	231.09
780.63	231.03
780.95	230.98
781.28	230.92
781.60	230.86
781.92	230.79
782.25	230.71
782.57	230.60
782.89	230.53
783.22	230.47
783.54	230.38
783.86	230.31
784.19	230.20
784.51	230.20
784.83	230.15
785.16	230.07
785.48	230.01
785.80	229.92
786.12	229.90
786.45	229.82
786.77	229.82
787.09	229.77
787.42	229.68
787.74	229.63
788.06	229.56
788.38	229.52
788.71	229.47
789.03	229.41
789.35	229.40
789.67	229.33
789.99	229.26
790.32	229.19
790.64	229.16
790.96	229.21
791.28	229.12
791.61	229.08
791.93	229.07
792.25	229.04
792.57	229.08
792.89	229.01
793.21	228.99
793.54	228.89
793.86	228.82
794.18	228.80
794.50	228.76
794.82	228.73
795.14	228.74
795.47	228.70
795.79	228.66
796.11	228.59
796.43	228.57
796.75	228.54
797.07	228.52
797.39	228.50
797.71	228.40
798.04	228.36
798.36	228.34
798.68	228.29
799.00	228.24
799.32	228.13
799.64	228.13
799.96	228.06
800.28	228.07
800.60	228.04
800.92	228.02
801.24	227.96
801.56	227.96
801.89	227.88
802.21	227.86
802.53	227.83
802.85	227.84
803.17	227.88
803.49	227.84
803.81	227.80
804.13	227.74
804.45	227.70
804.77	227.68
805.09	227.65
805.41	227.63
805.73	227.58
806.05	227.56
806.37	227.51
806.69	227.50
807.01	227.48
807.33	227.48
807.65	227.39
807.97	227.40
808.28	227.34
808.60	227.30
808.92	227.24
809.24	227.26
809.56	227.22
809.88	227.16
810.20	227.14
810.52	227.15
810.84	227.13
811.16	227.10
811.48	227.10
811.80	227.09
812.12	227.06
812.43	227.07
812.75	227.06
813.07	227.05
813.39	227.05
813.71	227.00
814.03	226.95
814.35	226.94
814.67	226.90
814.98	226.87
815.30	226.87
815.62	226.86
815.94	226.79
816.26	226.81
816.58	226.75
816.89	226.72
817.21	226.66
817.53	226.64
817.85	226.63
818.17	226.59
818.48	226.54
818.80	226.53
819.12	226.49
819.44	226.42
819.76	226.40
820.07	226.38
820.39	226.36
820.71	226.37
821.03	226.36
821.34	226.32
821.66	226.31
821.98	226.32
822.30	226.29
822.61	226.32
822.93	226.24
823.25	226.23
823.57	226.23
823.88	226.24
824.20	226.23
824.52	226.23
824.83	226.19
825.15	226.17
825.47	226.14
825.79	226.14
826.10	226.14
826.42	226.16
826.74	226.13
827.05	226.11
827.37	226.07
827.69	226.06
828.00	226.05
828.32	226.05
828.64	226.01
828.95	226.03
829.27	225.98
829.58	225.98
829.90	225.97
830.22	225.97
830.53	225.92
830.85	225.89
831.17	225.81
831.48	225.81
831.80	225.79
832.11	225.78
832.43	225.75
832.75	225.73
833.06	225.73
833.38	225.69
833.69	225.68
834.01	225.67
834.32	225.63
834.64	225.63
834.96	225.60
835.27	225.58
835.59	225.54
835.90	225.52
836.22	225.50
836.53	225.48
836.85	225.41
837.16	225.51
837.48	225.49
837.79	225.58
838.11	225.57
838.42	225.60
838.74	225.60
839.05	225.58
839.37	225.60
839.68	225.54
840.00	225.57
840.31	225.58
840.63	225.58
840.94	225.60
841.26	225.58
841.57	225.55
841.88	225.55
842.20	225.54
842.51	225.52
842.83	225.51
843.14	225.59
843.46	225.63
843.77	225.57
844.08	225.56
844.40	225.50
844.71	225.49
845.03	225.47
845.34	225.47
845.65	225.48
845.97	225.47
846.28	225.46
846.60	225.44
846.91	225.41
847.22	225.41
847.54	225.43
847.85	225.44
848.16	225.44
848.48	225.43
848.79	225.49
849.10	225.49
849.42	225.54
849.73	225.45
850.04	225.44
850.36	225.43
850.67	225.47
850.98	225.49
851.30	225.49
851.61	225.48
851.92	225.47
852.23	225.50
852.55	225.51
852.86	225.53
853.17	225.56
853.49	225.64
853.80	225.64
854.11	225.67
854.42	225.67
854.74	225.70
855.05	225.72
855.36	225.68
855.67	225.67
855.99	225.66
856.30	225.78
856.61	225.79
856.92	225.78
857.23	225.82
857.55	225.80
857.86	225.80
858.17	225.81
858.48	225.77
858.79	225.73
859.11	225.75
859.42	225.73
859.73	225.70
860.04	225.67
860.35	225.64
860.66	225.57
860.98	225.57
861.29	225.56
861.60	225.54
861.91	225.54
862.22	225.56
862.53	225.52
862.84	225.40
863.16	225.43
863.47	225.42
863.78	225.37
864.09	225.38
864.40	225.42
864.71	225.40
865.02	225.42
865.33	225.43
865.64	225.39
865.95	225.38
866.27	225.48
866.58	225.47
866.89	225.48
867.20	225.49
867.51	225.47
867.82	225.44
868.13	225.46
868.44	225.42
868.75	225.42
869.06	225.40
869.37	225.40
869.68	225.35
869.99	225.33
870.30	225.31
870.61	225.28
870.92	225.27
871.23	225.25
871.54	225.24
871.85	225.23
872.16	225.24
872.47	225.21
872.78	225.08
873.09	225.09
873.40	225.05
873.71	225.04
874.02	225.03
874.33	224.99
874.64	224.96
874.95	224.97
875.26	224.93
875.56	224.92
875.87	224.94
876.18	224.93
876.49	225.02
876.80	225.01
877.11	225.01
877.42	224.98
877.73	224.98
878.04	224.98
878.35	224.99
878.66	224.99
878.96	224.98
879.27	225.00
879.58	224.98
879.89	224.99
880.20	225.03
880.51	225.06
880.82	225.10
881.12	225.08
881.43	225.07
881.74	225.11
882.05	225.08
882.36	225.04
882.67	225.06
882.97	224.95
883.28	224.92
883.59	224.91
883.90	224.92
884.21	224.94
884.51	224.93
884.82	224.91
885.13	224.89
885.44	224.95
885.74	224.94
886.05	224.90
886.36	224.91
886.67	224.90
886.98	224.98
887.28	225.00
887.59	225.05
887.90	225.07
888.20	225.04
888.51	225.09
888.82	225.09
889.13	225.10
889.43	225.22
889.74	225.25
890.05	225.25
890.35	225.24
890.66	225.20
890.97	225.20
891.28	225.23
891.58	225.23
891.89	225.22
892.20	225.22
892.50	225.24
892.81	225.23
893.12	225.22
893.42	225.15
893.73	225.14
894.04	225.13
894.34	225.10
894.65	225.12
894.95	225.15
895.26	225.17
895.57	225.19
895.87	225.08
896.18	225.10
896.48	225.10
896.79	225.09
897.10	225.10
897.40	225.09
897.71	225.06
898.01	225.06
898.32	225.05
898.63	225.04
898.93	225.06
899.24	225.05
899.54	225.03
899.85	225.03
900.15	225.02
900.46	225.02
900.76	225.07
901.07	225.07
901.38	225.03
901.68	225.04
901.99	225.00
902.29	225.02
902.60	225.01
902.90	224.97
903.21	225.00
903.51	225.00
903.82	225.03
904.12	225.06
904.43	225.05
904.73	225.05
905.03	225.06
905.34	225.14
905.64	225.15
905.95	225.16
906.25	225.13
906.56	225.08
906.86	225.09
907.17	225.07
907.47	225.05
907.77	225.07
908.08	225.02
908.38	225.02
908.69	225.03
908.99	225.05
909.30	225.06
909.60	225.05
909.90	225.09
910.21	225.03
910.51	225.01
910.81	225.01
911.12	225.00
911.42	224.97
911.73	224.87
912.03	224.86
912.33	224.87
912.64	224.88
912.94	224.90
913.24	224.88
913.55	224.84
913.85	224.86
914.15	224.84
914.46	224.85
914.76	224.85
915.06	224.82
915.37	224.79
915.67	224.78
915.97	224.76
916.27	224.72
916.58	224.75
916.88	224.75
917.18	224.75
917.49	224.82
917.79	224.84
918.09	224.85
918.39	224.88
918.70	224.86
919.00	224.86
919.30	224.85
919.60	224.86
919.91	224.87
920.21	224.82
920.51	224.80
920.81	224.80
921.12	224.80
921.42	224.78
921.72	224.78
922.02	224.80
922.32	224.81
922.63	224.82
922.93	224.86
923.23	224.86
923.53	224.86
923.83	224.81
924.13	224.83
924.44	224.83
924.74	224.82
925.04	224.84
925.34	224.83
925.64	224.86
925.94	224.88
926.24	224.94
926.55	224.98
926.85	225.02
927.15	225.03
927.45	225.04
927.75	225.06
928.05	225.07
928.35	225.07
928.65	225.07
928.95	225.08
929.26	225.05
929.56	225.08
929.86	225.05
930.16	225.08
930.46	225.04
930.76	225.07
931.06	225.06
931.36	225.04
931.66	225.08
931.96	225.09
932.26	225.06
932.56	225.01
932.86	225.02
933.16	225.03
933.46	225.04
933.76	225.03
934.06	225.06
934.36	225.10
934.66	225.10
934.96	225.08
935.26	225.08
935.56	225.08
935.86	225.07
936.16	225.09
936.46	225.06
936.76	225.05
937.06	225.01
937.36	225.00
937.66	225.01
937.96	225.00
938.26	224.93
938.56	224.91
938.86	224.93
939.16	224.93
939.46	224.90
939.76	224.88
940.06	224.87
940.35	224.84
940.65	224.76
940.95	224.76
941.25	224.73
941.55	224.71
941.85	224.71
942.15	224.73
942.45	224.76
942.75	224.74
943.04	224.73
943.34	224.73
943.64	224.70
943.94	224.66
944.24	224.65
944.54	224.65
944.84	224.67
945.13	224.67
945.43	224.67
945.73	224.67
946.03	224.67
946.33	224.68
946.62	224.67
946.92	224.68
947.22	224.68
947.52	224.70
947.82	224.71
948.11	224.68
948.41	224.64
948.71	224.60
949.01	224.60
949.31	224.62
949.60	224.62
949.90	224.66
950.20	224.64
950.50	224.65
950.79	224.65
951.09	224.63
951.39	224.60
951.69	224.61
951.98	224.63
952.28	224.61
952.58	224.62
952.87	224.61
953.17	224.63
953.47	224.62
953.76	224.62
954.06	224.63
954.36	224.63
954.66	224.63
954.95	224.64
955.25	224.66
955.55	224.65
955.84	224.68
956.14	224.67
956.44	224.73
956.73	224.70
957.03	224.72
957.32	224.77
957.62	224.77
957.92	224.74
958.21	224.73
958.51	224.87
958.81	224.88
959.10	224.89
959.40	224.91
959.69	224.95
959.99	225.00
960.29	225.00
960.58	225.02
960.88	225.06
961.17	225.09
961.47	225.12
961.76	225.12
962.06	225.13
962.36	225.14
962.65	225.14
962.95	225.16
963.24	225.13
963.54	225.14
963.83	225.13
964.13	225.17
964.42	225.16
964.72	225.11
965.01	225.07
965.31	225.06
965.60	225.01
965.90	225.05
966.19	225.00
966.49	224.99
966.78	224.97
967.08	224.95
967.37	224.92
967.67	224.90
967.96	224.90
968.26	224.89
968.55	224.89
968.85	224.90
969.14	224.92
969.43	224.94
969.73	224.91
970.02	224.93
970.32	224.93
970.61	224.95
970.91	224.89
971.20	224.91
971.49	224.91
971.79	224.96
972.08	224.90
972.38	224.93
972.67	224.94
972.96	224.96
973.26	224.98
973.55	224.98
973.85	224.97
974.14	224.97
974.43	224.99
974.73	224.96
975.02	224.90
975.31	224.89
975.61	224.87
975.90	224.85
976.19	224.83
976.49	224.82
976.78	224.79
977.07	224.80
977.37	224.77
977.66	224.81
977.95	224.80
978.24	224.79
978.54	224.79
978.83	224.77
979.12	224.77
979.42	224.76
979.71	224.78
980.00	224.78
980.29	224.80
980.59	224.79
980.88	224.82
981.17	224.83
981.46	224.83
981.76	224.85
982.05	224.89
982.34	224.90
982.63	224.91
982.93	224.89
983.22	224.91
983.51	224.92
983.80	224.90
984.09	224.91
984.39	224.95
984.68	224.92
984.97	224.93
985.26	224.90
985.55	224.89
985.85	224.85
986.14	224.83
986.43	224.82
986.72	224.79
987.01	224.76
987.30	224.75
987.59	224.76
987.89	224.74
988.18	224.72
988.47	224.69
988.76	224.63
989.05	224.63
989.34	224.63
989.63	224.65
989.92	224.63
990.22	224.60
990.51	224.56
990.80	224.55
991.09	224.55
991.38	224.59
991.67	224.59
991.96	224.59
992.25	224.61
992.54	224.61
992.83	224.62
993.12	224.61
993.41	224.63
993.70	224.63
993.99	224.65
994.28	224.67
994.58	224.69
994.87	224.71
995.16	224.72
995.45	224.67
995.74	224.65
996.03	224.67
996.32	224.71
996.61	224.74
996.90	224.75
997.19	224.74
997.48	224.69
997.77	224.70
998.06	224.71
998.34	224.68
998.63	224.67
998.92	224.65
999.21	224.65
999.50	224.64
999.79	224.64
1000.08	224.64
1000.37	224.63
1000.66	224.59
1000.95	224.61
1001.24	224.62
1001.53	224.61
1001.82	224.59
1002.11	224.55
1002.40	224.54
1002.68	224.57
1002.97	224.63
1003.26	224.62
1003.55	224.63
1003.84	224.64
1004.13	224.68
1004.42	224.68
1004.71	224.71
1004.99	224.72
1005.28	224.76
1005.57	224.76
1005.86	224.75
1006.15	224.72
1006.44	224.72
1006.72	224.75
1007.01	224.72
1007.30	224.72
1007.59	224.73
1007.88	224.77
1008.17	224.78
1008.45	224.79
1008.74	224.71
1009.03	224.67
1009.32	224.66
1009.60	224.69
1009.89	224.63
1010.18	224.60
1010.47	224.59
1010.76	224.57
1011.04	224.58
1011.33	224.58
1011.62	224.62
1011.91	224.63
1012.19	224.65
1012.48	224.65
1012.77	224.65
1013.05	224.71
1013.34	224.72
1013.63	224.74
1013.92	224.74
1014.20	224.76
1014.49	224.75
1014.78	224.78
1015.06	224.73
1015.35	224.75
1015.64	224.77
1015.92	224.77
1016.21	224.77
1016.50	224.77
1016.78	224.78
1017.07	224.80
1017.36	224.77
1017.64	224.78
1017.93	224.80
1018.22	224.81
1018.50	224.78
1018.79	224.77
1019.08	224.72
1019.36	224.73
1019.65	224.70
1019.93	224.73
1020.22	224.71
1020.51	224.77
1020.79	224.74
1021.08	224.84
1021.36	224.22
1021.65	224.48
1021.94	224.35
1022.22	224.98
1022.51	224.22
1022.79	225.43
1023.08	224.38
1023.36	226.24
1023.65	224.21
>>>>>End Processed Spectral Data<<<<<
