SpectraSuite Data File
++++++++++++++++++++++++++++++++++++
Date: Fri Feb 01 15:01:56 EST 2013
User: group
Dark Spectrum Present: No
Reference Spectrum Present: No
Number of Sampled Component Spectra: 1
Spectrometers: USB2E7196
Integration Time (usec): 35000 (USB2E7196)
Spectra Averaged: 100 (USB2E7196)
Boxcar Smoothing: 10 (USB2E7196)
Correct for Electrical Dark: No (USB2E7196)
Strobe/Lamp Enabled: No (USB2E7196)
Correct for Detector Non-linearity: No (USB2E7196)
Correct for Stray Light: No (USB2E7196)
Number of Pixels in Processed Spectrum: 2048
>>>>>Begin Processed Spectral Data<<<<<
339.09	0.00
339.48	215.99
339.86	217.39
340.24	218.05
340.63	219.42
341.01	222.76
341.39	222.38
341.78	223.57
342.16	224.85
342.54	225.25
342.93	213.71
343.31	224.53
343.69	225.05
344.07	225.49
344.46	225.90
344.84	226.29
345.22	226.52
345.60	226.76
345.99	226.92
346.37	227.04
346.75	227.13
347.13	227.18
347.52	227.25
347.90	227.29
348.28	227.34
348.66	227.39
349.05	227.37
349.43	227.38
349.81	227.41
350.19	227.44
350.57	227.51
350.96	227.53
351.34	227.59
351.72	227.64
352.10	227.70
352.48	227.78
352.87	227.80
353.25	227.84
353.63	227.87
354.01	227.93
354.39	227.99
354.77	228.03
355.15	228.14
355.54	228.19
355.92	228.24
356.30	228.30
356.68	228.41
357.06	228.48
357.44	228.54
357.82	228.59
358.20	228.68
358.58	228.75
358.97	228.83
359.35	228.87
359.73	228.96
360.11	229.01
360.49	229.07
360.87	229.13
361.25	229.18
361.63	229.28
362.01	229.34
362.39	229.39
362.77	229.44
363.15	229.44
363.53	229.46
363.91	229.51
364.29	229.50
364.67	229.44
365.05	229.47
365.43	229.50
365.81	229.54
366.19	229.55
366.57	229.54
366.95	229.49
367.33	229.50
367.71	229.49
368.09	229.47
368.47	229.43
368.85	229.40
369.23	229.40
369.61	229.33
369.99	229.33
370.37	229.29
370.75	229.33
371.13	229.30
371.51	229.24
371.89	229.18
372.27	229.14
372.65	229.07
373.03	229.01
373.41	228.93
373.78	228.83
374.16	228.73
374.54	228.66
374.92	228.60
375.30	228.53
375.68	228.42
376.06	228.38
376.44	228.33
376.82	228.27
377.19	228.20
377.57	228.11
377.95	227.98
378.33	227.90
378.71	227.72
379.09	227.67
379.47	227.61
379.84	227.53
380.22	227.47
380.60	227.40
380.98	227.30
381.36	227.25
381.73	227.17
382.11	227.10
382.49	227.05
382.87	226.99
383.25	226.91
383.62	226.94
384.00	226.84
384.38	226.75
384.76	226.69
385.13	226.65
385.51	226.58
385.89	226.54
386.27	226.49
386.64	226.48
387.02	226.40
387.40	226.33
387.78	226.30
388.15	226.25
388.53	226.20
388.91	226.18
389.29	226.14
389.66	226.14
390.04	226.11
390.42	226.12
390.79	226.10
391.17	226.06
391.55	225.99
391.92	225.98
392.30	226.01
392.68	226.03
393.05	226.03
393.43	226.06
393.81	226.04
394.18	226.04
394.56	226.06
394.94	226.12
395.31	226.15
395.69	226.21
396.06	226.29
396.44	226.34
396.82	226.40
397.19	226.50
397.57	226.53
397.95	226.59
398.32	226.59
398.70	226.66
399.07	226.75
399.45	226.80
399.82	226.92
400.20	226.97
400.58	227.05
400.95	227.09
401.33	227.23
401.70	227.42
402.08	227.53
402.45	227.65
402.83	227.76
403.20	227.89
403.58	227.97
403.95	228.06
404.33	228.20
404.71	228.34
405.08	228.54
405.46	228.67
405.83	228.85
406.21	228.99
406.58	229.19
406.96	229.37
407.33	229.55
407.70	229.73
408.08	230.01
408.45	230.23
408.83	230.48
409.20	230.68
409.58	230.87
409.95	231.16
410.33	231.41
410.70	231.69
411.08	231.97
411.45	232.30
411.82	232.63
412.20	232.99
412.57	233.40
412.95	233.66
413.32	234.05
413.69	234.49
414.07	234.97
414.44	235.42
414.82	235.92
415.19	236.47
415.56	237.02
415.94	237.57
416.31	238.19
416.68	238.81
417.06	239.53
417.43	240.24
417.81	241.00
418.18	241.81
418.55	242.63
418.93	243.53
419.30	244.43
419.67	245.36
420.04	246.32
420.42	247.31
420.79	248.51
421.16	249.71
421.54	250.89
421.91	252.07
422.28	253.33
422.66	254.61
423.03	255.91
423.40	257.23
423.77	258.61
424.15	260.07
424.52	261.61
424.89	263.19
425.26	264.70
425.64	266.14
426.01	267.69
426.38	269.34
426.75	271.02
427.13	272.72
427.50	274.53
427.87	276.40
428.24	278.24
428.61	279.95
428.99	281.94
429.36	284.04
429.73	286.12
430.10	288.15
430.47	290.25
430.85	292.39
431.22	294.65
431.59	297.05
431.96	299.25
432.33	301.70
432.70	304.12
433.08	306.99
433.45	309.63
433.82	312.25
434.19	315.18
434.56	317.95
434.93	320.66
435.30	323.31
435.68	326.23
436.05	329.08
436.42	331.91
436.79	334.38
437.16	337.08
437.53	339.88
437.90	342.72
438.27	345.51
438.64	348.37
439.01	350.97
439.38	353.19
439.75	355.42
440.13	357.89
440.50	360.22
440.87	362.04
441.24	364.01
441.61	366.19
441.98	367.67
442.35	369.51
442.72	371.36
443.09	373.16
443.46	374.16
443.83	374.74
444.20	375.27
444.57	376.14
444.94	376.43
445.31	376.77
445.68	377.10
446.05	377.16
446.42	376.77
446.79	376.32
447.16	375.92
447.53	375.61
447.90	374.47
448.27	373.29
448.64	371.72
449.01	370.55
449.37	368.62
449.74	366.72
450.11	364.45
450.48	361.98
450.85	359.44
451.22	357.28
451.59	355.28
451.96	353.36
452.33	350.72
452.70	348.35
453.07	345.54
453.43	342.66
453.80	339.88
454.17	337.18
454.54	334.69
454.91	331.92
455.28	329.18
455.65	326.71
456.02	324.25
456.38	322.09
456.75	319.45
457.12	317.16
457.49	314.91
457.86	312.77
458.23	310.88
458.59	308.81
458.96	306.71
459.33	304.85
459.70	302.91
460.07	301.37
460.43	299.64
460.80	298.02
461.17	296.55
461.54	295.07
461.91	293.63
462.27	292.14
462.64	290.90
463.01	289.58
463.38	288.22
463.74	286.85
464.11	285.66
464.48	284.64
464.85	283.51
465.21	282.62
465.58	281.63
465.95	280.54
466.32	279.61
466.68	278.69
467.05	277.80
467.42	276.95
467.78	276.00
468.15	275.13
468.52	274.48
468.88	273.62
469.25	272.79
469.62	272.14
469.98	271.47
470.35	270.83
470.72	270.20
471.08	269.54
471.45	269.01
471.82	268.46
472.18	267.82
472.55	267.38
472.92	266.85
473.28	266.40
473.65	265.91
474.02	265.50
474.38	265.12
474.75	264.77
475.11	264.39
475.48	264.13
475.85	263.88
476.21	263.60
476.58	263.41
476.94	263.25
477.31	263.05
477.67	262.90
478.04	262.77
478.41	262.71
478.77	262.74
479.14	262.68
479.50	262.70
479.87	262.75
480.23	262.81
480.60	262.92
480.96	263.00
481.33	263.22
481.69	263.40
482.06	263.56
482.42	263.71
482.79	263.98
483.15	264.30
483.52	264.67
483.88	265.01
484.25	265.41
484.61	265.86
484.98	266.32
485.34	266.89
485.71	267.50
486.07	268.06
486.44	268.64
486.80	269.32
487.17	270.05
487.53	270.84
487.90	271.72
488.26	272.62
488.62	273.62
488.99	274.60
489.35	275.62
489.72	276.78
490.08	278.00
490.44	279.22
490.81	280.54
491.17	281.89
491.54	283.36
491.90	284.86
492.26	286.47
492.63	288.24
492.99	289.93
493.36	291.79
493.72	293.89
494.08	295.95
494.45	298.18
494.81	300.54
495.17	303.00
495.54	305.55
495.90	308.23
496.26	311.03
496.63	313.98
496.99	317.09
497.35	320.33
497.72	323.73
498.08	327.20
498.44	330.88
498.80	334.80
499.17	338.84
499.53	343.00
499.89	347.37
500.26	351.85
500.62	356.60
500.98	361.59
501.34	366.59
501.71	371.94
502.07	377.36
502.43	382.93
502.79	388.71
503.16	394.79
503.52	401.04
503.88	407.44
504.24	414.04
504.60	420.95
504.97	428.05
505.33	435.38
505.69	443.07
506.05	450.87
506.41	458.80
506.78	466.95
507.14	475.37
507.50	484.06
507.86	492.97
508.22	502.06
508.59	511.20
508.95	520.74
509.31	530.51
509.67	540.59
510.03	550.80
510.39	561.35
510.75	572.06
511.12	582.94
511.48	594.17
511.84	605.60
512.20	617.03
512.56	629.01
512.92	641.21
513.28	653.60
513.64	665.98
514.00	678.63
514.37	691.54
514.73	704.63
515.09	717.71
515.45	731.02
515.81	744.62
516.17	758.61
516.53	772.84
516.89	786.95
517.25	801.17
517.61	815.64
517.97	830.13
518.33	844.62
518.69	859.49
519.05	874.54
519.41	889.75
519.77	905.35
520.13	920.81
520.49	936.08
520.85	951.46
521.21	967.24
521.57	983.55
521.93	999.35
522.29	1015.75
522.65	1031.96
523.01	1048.28
523.37	1064.42
523.73	1080.69
524.09	1096.82
524.45	1113.41
524.81	1130.05
525.17	1147.00
525.53	1163.86
525.89	1180.79
526.25	1197.59
526.61	1214.06
526.97	1230.90
527.33	1247.47
527.68	1264.23
528.04	1280.93
528.40	1297.69
528.76	1314.92
529.12	1331.60
529.48	1348.58
529.84	1364.70
530.20	1381.49
530.56	1398.72
530.91	1416.24
531.27	1433.06
531.63	1449.53
531.99	1466.03
532.35	1482.14
532.71	1498.11
533.07	1514.49
533.42	1530.44
533.78	1546.54
534.14	1562.86
534.50	1578.27
534.86	1594.20
535.21	1609.39
535.57	1625.44
535.93	1641.02
536.29	1655.81
536.65	1670.94
537.00	1685.87
537.36	1701.36
537.72	1715.91
538.08	1730.34
538.44	1744.20
538.79	1758.21
539.15	1772.27
539.51	1786.23
539.87	1800.68
540.22	1814.41
540.58	1828.40
540.94	1841.84
541.29	1855.01
541.65	1867.87
542.01	1881.15
542.37	1893.60
542.72	1906.22
543.08	1917.98
543.44	1930.45
543.79	1941.78
544.15	1952.78
544.51	1964.33
544.87	1975.29
545.22	1986.14
545.58	1996.47
545.94	2006.30
546.29	2016.21
546.65	2025.89
547.01	2035.00
547.36	2043.70
547.72	2052.18
548.07	2059.91
548.43	2068.27
548.79	2076.16
549.14	2083.63
549.50	2091.04
549.86	2098.86
550.21	2106.04
550.57	2113.23
550.92	2119.83
551.28	2126.90
551.64	2134.13
551.99	2140.76
552.35	2146.85
552.70	2153.04
553.06	2158.90
553.41	2165.29
553.77	2171.41
554.13	2177.34
554.48	2183.31
554.84	2188.72
555.19	2194.26
555.55	2199.42
555.90	2203.65
556.26	2208.57
556.61	2213.34
556.97	2217.50
557.32	2221.50
557.68	2225.74
558.03	2229.97
558.39	2233.69
558.74	2238.29
559.10	2241.97
559.45	2245.40
559.81	2249.72
560.16	2253.53
560.52	2256.71
560.87	2260.00
561.23	2262.45
561.58	2265.49
561.94	2268.18
562.29	2270.67
562.64	2273.08
563.00	2275.79
563.35	2279.47
563.71	2282.47
564.06	2285.66
564.42	2288.36
564.77	2290.77
565.12	2292.80
565.48	2294.38
565.83	2296.04
566.19	2297.33
566.54	2298.18
566.89	2299.33
567.25	2299.74
567.60	2301.01
567.96	2302.55
568.31	2303.16
568.66	2304.17
569.02	2304.56
569.37	2304.78
569.72	2305.40
570.08	2305.44
570.43	2305.00
570.78	2304.03
571.14	2302.46
571.49	2300.93
571.84	2300.58
572.20	2299.23
572.55	2297.93
572.90	2296.44
573.26	2294.77
573.61	2292.78
573.96	2290.76
574.31	2287.61
574.67	2284.44
575.02	2280.49
575.37	2276.93
575.72	2273.06
576.08	2269.52
576.43	2266.16
576.78	2262.31
577.13	2258.83
577.49	2255.64
577.84	2252.19
578.19	2248.42
578.54	2244.52
578.90	2240.15
579.25	2234.61
579.60	2229.47
579.95	2224.44
580.30	2219.26
580.66	2214.15
581.01	2209.07
581.36	2204.13
581.71	2199.82
582.06	2195.28
582.42	2190.86
582.77	2185.47
583.12	2180.73
583.47	2175.86
583.82	2170.62
584.17	2165.19
584.53	2159.75
584.88	2154.05
585.23	2148.08
585.58	2142.37
585.93	2136.89
586.28	2131.99
586.63	2126.61
586.98	2121.50
587.34	2116.68
587.69	2111.69
588.04	2106.16
588.39	2100.35
588.74	2093.73
589.09	2087.45
589.44	2080.57
589.79	2074.38
590.14	2068.71
590.49	2062.04
590.84	2055.55
591.19	2049.33
591.54	2042.75
591.89	2035.13
592.25	2028.09
592.60	2020.86
592.95	2013.33
593.30	2005.80
593.65	1998.12
594.00	1990.95
594.35	1983.56
594.70	1975.50
595.05	1968.19
595.40	1960.90
595.75	1953.35
596.10	1947.00
596.45	1940.10
596.80	1933.76
597.15	1927.02
597.50	1919.74
597.85	1913.26
598.19	1906.49
598.54	1899.39
598.89	1892.81
599.24	1887.06
599.59	1880.23
599.94	1874.04
600.29	1867.56
600.64	1860.92
600.99	1853.35
601.34	1846.38
601.69	1839.35
602.04	1832.40
602.39	1824.99
602.74	1818.13
603.08	1811.47
603.43	1804.81
603.78	1797.49
604.13	1790.22
604.48	1782.81
604.83	1776.11
605.18	1769.12
605.53	1761.20
605.87	1753.23
606.22	1746.02
606.57	1737.93
606.92	1730.75
607.27	1723.40
607.62	1716.50
607.96	1709.23
608.31	1702.59
608.66	1695.07
609.01	1687.51
609.36	1680.00
609.70	1671.87
610.05	1663.77
610.40	1656.00
610.75	1647.62
611.10	1639.98
611.44	1631.65
611.79	1623.78
612.14	1615.00
612.49	1605.93
612.83	1597.55
613.18	1589.49
613.53	1581.44
613.88	1572.86
614.22	1564.62
614.57	1556.08
614.92	1548.09
615.27	1540.51
615.61	1532.19
615.96	1524.27
616.31	1516.71
616.65	1509.24
617.00	1501.83
617.35	1494.17
617.70	1485.74
618.04	1477.21
618.39	1469.02
618.74	1461.47
619.08	1453.11
619.43	1445.65
619.78	1438.76
620.12	1431.62
620.47	1424.06
620.82	1415.79
621.16	1408.46
621.51	1400.79
621.85	1393.27
622.20	1384.74
622.55	1376.48
622.89	1368.72
623.24	1361.17
623.59	1353.87
623.93	1346.44
624.28	1339.24
624.62	1331.75
624.97	1324.68
625.32	1318.00
625.66	1311.04
626.01	1303.82
626.35	1296.40
626.70	1288.56
627.04	1280.77
627.39	1273.13
627.73	1265.74
628.08	1258.87
628.43	1251.68
628.77	1244.31
629.12	1236.73
629.46	1229.53
629.81	1222.28
630.15	1215.03
630.50	1207.70
630.84	1199.50
631.19	1191.60
631.53	1184.22
631.88	1176.86
632.22	1169.30
632.57	1162.04
632.91	1154.54
633.26	1147.22
633.60	1140.02
633.95	1133.09
634.29	1126.18
634.64	1119.35
634.98	1111.93
635.32	1104.86
635.67	1098.28
636.01	1091.77
636.36	1084.99
636.70	1078.64
637.05	1072.01
637.39	1065.66
637.73	1059.16
638.08	1053.35
638.42	1047.42
638.77	1041.02
639.11	1034.38
639.45	1028.06
639.80	1021.42
640.14	1015.08
640.49	1008.65
640.83	1002.36
641.17	996.11
641.52	989.73
641.86	983.53
642.20	977.84
642.55	971.62
642.89	965.20
643.23	958.77
643.58	953.05
643.92	946.82
644.26	940.71
644.61	934.70
644.95	928.62
645.29	922.06
645.64	915.33
645.98	908.99
646.32	903.20
646.66	897.19
647.01	891.57
647.35	885.88
647.69	880.03
648.04	874.50
648.38	868.73
648.72	862.77
649.06	856.65
649.41	850.84
649.75	844.78
650.09	838.77
650.43	832.97
650.78	826.83
651.12	820.85
651.46	815.17
651.80	809.40
652.14	804.04
652.49	798.61
652.83	793.42
653.17	787.71
653.51	781.95
653.85	776.58
654.20	770.84
654.54	764.80
654.88	759.12
655.22	753.22
655.56	747.58
655.90	742.18
656.25	736.97
656.59	731.55
656.93	726.53
657.27	721.41
657.61	715.93
657.95	710.92
658.29	705.94
658.64	700.79
658.98	695.59
659.32	690.19
659.66	685.07
660.00	679.78
660.34	674.91
660.68	670.00
661.02	664.95
661.36	660.28
661.70	655.82
662.05	651.51
662.39	647.15
662.73	642.69
663.07	638.33
663.41	633.83
663.75	629.39
664.09	624.83
664.43	620.42
664.77	616.35
665.11	612.08
665.45	608.00
665.79	603.95
666.13	599.85
666.47	595.74
666.81	591.64
667.15	587.57
667.49	583.70
667.83	579.98
668.17	576.08
668.51	572.05
668.85	568.09
669.19	564.24
669.53	560.50
669.87	556.63
670.21	552.90
670.55	549.33
670.89	545.93
671.23	542.57
671.57	539.12
671.91	535.58
672.25	532.15
672.58	528.65
672.92	525.23
673.26	522.14
673.60	519.06
673.94	515.91
674.28	513.02
674.62	510.10
674.96	507.01
675.30	504.13
675.64	501.26
675.97	498.52
676.31	495.67
676.65	492.77
676.99	490.15
677.33	487.37
677.67	484.60
678.01	481.59
678.34	478.61
678.68	475.78
679.02	473.03
679.36	470.30
679.70	467.59
680.04	464.87
680.37	461.92
680.71	459.19
681.05	456.63
681.39	453.98
681.73	451.36
682.06	448.86
682.40	446.32
682.74	443.81
683.08	441.31
683.42	438.72
683.75	436.28
684.09	433.74
684.43	431.28
684.77	428.83
685.10	426.49
685.44	424.26
685.78	422.02
686.12	419.78
686.45	417.51
686.79	415.23
687.13	413.02
687.46	410.91
687.80	408.73
688.14	406.55
688.48	404.49
688.81	402.20
689.15	400.06
689.49	397.92
689.82	395.80
690.16	393.68
690.50	391.75
690.83	389.80
691.17	387.80
691.51	385.88
691.84	384.07
692.18	382.16
692.52	380.14
692.85	378.19
693.19	376.32
693.52	374.50
693.86	372.70
694.20	370.91
694.53	369.07
694.87	367.27
695.21	365.49
695.54	363.68
695.88	361.98
696.21	360.27
696.55	358.58
696.88	356.95
697.22	355.31
697.56	353.70
697.89	352.03
698.23	350.44
698.56	348.87
698.90	347.23
699.23	345.58
699.57	344.03
699.90	342.49
700.24	340.95
700.58	339.42
700.91	337.89
701.25	336.51
701.58	335.18
701.92	333.78
702.25	332.42
702.59	331.06
702.92	329.77
703.26	328.46
703.59	327.18
703.93	325.97
704.26	324.77
704.60	323.52
704.93	322.27
705.26	321.04
705.60	319.88
705.93	318.77
706.27	317.79
706.60	316.77
706.94	315.72
707.27	314.59
707.61	313.55
707.94	312.60
708.27	311.44
708.61	310.36
708.94	309.39
709.28	308.39
709.61	307.41
709.94	306.46
710.28	305.47
710.61	304.57
710.95	303.55
711.28	302.61
711.61	301.65
711.95	300.78
712.28	299.84
712.61	298.88
712.95	297.94
713.28	297.04
713.61	296.13
713.95	295.25
714.28	294.45
714.61	293.60
714.95	292.73
715.28	291.93
715.61	291.09
715.95	290.22
716.28	289.36
716.61	288.57
716.95	287.76
717.28	287.02
717.61	286.21
717.94	285.45
718.28	284.67
718.61	283.95
718.94	283.22
719.27	282.58
719.61	281.91
719.94	281.26
720.27	280.57
720.60	279.94
720.94	279.31
721.27	278.72
721.60	278.12
721.93	277.54
722.27	277.02
722.60	276.49
722.93	275.91
723.26	275.43
723.59	274.86
723.93	274.34
724.26	273.81
724.59	273.27
724.92	272.76
725.25	272.27
725.59	271.78
725.92	271.26
726.25	270.78
726.58	270.32
726.91	269.83
727.24	269.35
727.57	268.87
727.91	268.32
728.24	267.84
728.57	267.35
728.90	266.88
729.23	266.36
729.56	265.90
729.89	265.46
730.22	264.98
730.55	264.55
730.89	264.09
731.22	263.62
731.55	263.18
731.88	262.76
732.21	262.30
732.54	261.83
732.87	261.42
733.20	260.97
733.53	260.57
733.86	260.19
734.19	259.80
734.52	259.40
734.85	259.12
735.18	258.69
735.51	258.32
735.84	257.95
736.17	257.63
736.50	257.21
736.83	256.95
737.16	256.58
737.49	256.22
737.82	255.84
738.15	255.50
738.48	255.16
738.81	254.84
739.14	254.48
739.47	254.18
739.80	253.89
740.13	253.59
740.46	253.25
740.79	252.94
741.12	252.62
741.45	252.31
741.78	251.98
742.11	251.68
742.44	251.35
742.77	251.06
743.10	250.72
743.43	250.43
743.75	250.08
744.08	249.95
744.41	249.68
744.74	249.43
745.07	249.14
745.40	248.92
745.73	248.69
746.06	248.44
746.39	248.19
746.71	247.90
747.04	247.61
747.37	247.37
747.70	247.15
748.03	246.92
748.36	246.71
748.68	246.48
749.01	246.23
749.34	246.03
749.67	245.82
750.00	245.61
750.33	245.49
750.65	245.26
750.98	244.94
751.31	244.71
751.64	244.51
751.97	244.38
752.29	244.18
752.62	243.90
752.95	243.70
753.28	243.48
753.60	243.29
753.93	243.13
754.26	242.96
754.59	242.69
754.91	242.50
755.24	242.32
755.57	242.15
755.90	241.97
756.22	241.77
756.55	241.55
756.88	241.38
757.20	241.15
757.53	240.96
757.86	240.78
758.19	240.66
758.51	240.51
758.84	240.29
759.17	240.11
759.49	239.96
759.82	239.88
760.15	239.77
760.47	239.61
760.80	239.48
761.13	239.36
761.45	239.22
761.78	239.10
762.11	238.94
762.43	238.78
762.76	238.64
763.08	238.53
763.41	238.43
763.74	238.31
764.06	238.17
764.39	238.05
764.71	237.90
765.04	237.76
765.37	237.60
765.69	237.48
766.02	237.36
766.34	237.25
766.67	237.09
767.00	236.95
767.32	236.90
767.65	236.83
767.97	236.68
768.30	236.58
768.62	236.43
768.95	236.29
769.27	236.15
769.60	236.06
769.92	235.93
770.25	235.80
770.57	235.66
770.90	235.54
771.22	235.43
771.55	235.33
771.87	235.24
772.20	235.15
772.52	235.12
772.85	235.10
773.17	235.00
773.50	234.87
773.82	234.77
774.15	234.61
774.47	234.46
774.80	234.35
775.12	234.24
775.45	234.15
775.77	234.09
776.09	234.02
776.42	233.90
776.74	233.83
777.07	233.74
777.39	233.67
777.72	233.58
778.04	233.50
778.36	233.40
778.69	233.32
779.01	233.27
779.33	233.13
779.66	232.97
779.98	232.89
780.31	232.86
780.63	232.84
780.95	232.79
781.28	232.70
781.60	232.62
781.92	232.56
782.25	232.48
782.57	232.41
782.89	232.32
783.22	232.30
783.54	232.24
783.86	232.18
784.19	232.12
784.51	232.12
784.83	232.06
785.16	232.03
785.48	231.94
785.80	231.91
786.12	231.86
786.45	231.83
786.77	231.80
787.09	231.74
787.42	231.63
787.74	231.61
788.06	231.60
788.38	231.59
788.71	231.55
789.03	231.54
789.35	231.54
789.67	231.52
789.99	231.45
790.32	231.41
790.64	231.39
790.96	231.43
791.28	231.31
791.61	231.30
791.93	231.28
792.25	231.30
792.57	231.29
792.89	231.26
793.21	231.22
793.54	231.19
793.86	231.15
794.18	231.11
794.50	231.05
794.82	231.01
795.14	230.98
795.47	230.97
795.79	230.95
796.11	230.89
796.43	230.86
796.75	230.87
797.07	230.84
797.39	230.80
797.71	230.71
798.04	230.73
798.36	230.70
798.68	230.64
799.00	230.58
799.32	230.53
799.64	230.49
799.96	230.46
800.28	230.47
800.60	230.45
800.92	230.44
801.24	230.43
801.56	230.43
801.89	230.38
802.21	230.37
802.53	230.31
802.85	230.29
803.17	230.34
803.49	230.25
803.81	230.22
804.13	230.22
804.45	230.18
804.77	230.12
805.09	230.09
805.41	230.06
805.73	230.02
806.05	230.01
806.37	230.00
806.69	229.95
807.01	229.91
807.33	229.89
807.65	229.83
807.97	229.84
808.28	229.77
808.60	229.74
808.92	229.66
809.24	229.66
809.56	229.61
809.88	229.52
810.20	229.51
810.52	229.51
810.84	229.43
811.16	229.38
811.48	229.35
811.80	229.41
812.12	229.39
812.43	229.40
812.75	229.33
813.07	229.29
813.39	229.28
813.71	229.20
814.03	229.16
814.35	229.17
814.67	229.12
814.98	229.12
815.30	229.07
815.62	229.08
815.94	229.03
816.26	229.06
816.58	229.01
816.89	228.98
817.21	228.93
817.53	228.91
817.85	228.91
818.17	228.91
818.48	228.83
818.80	228.80
819.12	228.76
819.44	228.71
819.76	228.70
820.07	228.67
820.39	228.66
820.71	228.67
821.03	228.60
821.34	228.54
821.66	228.52
821.98	228.52
822.30	228.45
822.61	228.49
822.93	228.45
823.25	228.46
823.57	228.46
823.88	228.48
824.20	228.50
824.52	228.51
824.83	228.50
825.15	228.46
825.47	228.47
825.79	228.46
826.10	228.48
826.42	228.43
826.74	228.43
827.05	228.44
827.37	228.44
827.69	228.47
828.00	228.47
828.32	228.46
828.64	228.46
828.95	228.54
829.27	228.53
829.58	228.54
829.90	228.54
830.22	228.52
830.53	228.51
830.85	228.48
831.17	228.46
831.48	228.45
831.80	228.49
832.11	228.48
832.43	228.45
832.75	228.46
833.06	228.54
833.38	228.55
833.69	228.53
834.01	228.50
834.32	228.50
834.64	228.52
834.96	228.55
835.27	228.53
835.59	228.46
835.90	228.42
836.22	228.39
836.53	228.35
836.85	228.37
837.16	228.44
837.48	228.45
837.79	228.48
838.11	228.45
838.42	228.42
838.74	228.40
839.05	228.40
839.37	228.36
839.68	228.29
840.00	228.24
840.31	228.23
840.63	228.22
840.94	228.20
841.26	228.17
841.57	228.12
841.88	228.13
842.20	228.14
842.51	228.07
842.83	228.07
843.14	228.16
843.46	228.13
843.77	228.07
844.08	228.02
844.40	227.97
844.71	227.96
845.03	227.93
845.34	227.92
845.65	227.92
845.97	227.91
846.28	227.88
846.60	227.87
846.91	227.86
847.22	227.85
847.54	227.85
847.85	227.84
848.16	227.84
848.48	227.81
848.79	227.81
849.10	227.84
849.42	227.84
849.73	227.72
850.04	227.68
850.36	227.61
850.67	227.59
850.98	227.55
851.30	227.51
851.61	227.50
851.92	227.50
852.23	227.52
852.55	227.52
852.86	227.54
853.17	227.54
853.49	227.53
853.80	227.55
854.11	227.51
854.42	227.50
854.74	227.46
855.05	227.48
855.36	227.45
855.67	227.48
855.99	227.46
856.30	227.59
856.61	227.61
856.92	227.63
857.23	227.65
857.55	227.65
857.86	227.66
858.17	227.67
858.48	227.64
858.79	227.62
859.11	227.65
859.42	227.64
859.73	227.63
860.04	227.63
860.35	227.58
860.66	227.60
860.98	227.60
861.29	227.60
861.60	227.58
861.91	227.59
862.22	227.55
862.53	227.54
862.84	227.41
863.16	227.44
863.47	227.40
863.78	227.41
864.09	227.44
864.40	227.47
864.71	227.49
865.02	227.53
865.33	227.50
865.64	227.47
865.95	227.48
866.27	227.57
866.58	227.57
866.89	227.62
867.20	227.62
867.51	227.62
867.82	227.64
868.13	227.70
868.44	227.70
868.75	227.71
869.06	227.71
869.37	227.72
869.68	227.71
869.99	227.74
870.30	227.75
870.61	227.77
870.92	227.77
871.23	227.76
871.54	227.77
871.85	227.81
872.16	227.84
872.47	227.83
872.78	227.80
873.09	227.81
873.40	227.84
873.71	227.85
874.02	227.86
874.33	227.83
874.64	227.78
874.95	227.83
875.26	227.80
875.56	227.80
875.87	227.81
876.18	227.77
876.49	227.86
876.80	227.86
877.11	227.84
877.42	227.84
877.73	227.85
878.04	227.85
878.35	227.85
878.66	227.86
878.96	227.84
879.27	227.78
879.58	227.80
879.89	227.75
880.20	227.76
880.51	227.74
880.82	227.77
881.12	227.78
881.43	227.74
881.74	227.76
882.05	227.74
882.36	227.75
882.67	227.82
882.97	227.73
883.28	227.71
883.59	227.70
883.90	227.69
884.21	227.69
884.51	227.62
884.82	227.58
885.13	227.56
885.44	227.58
885.74	227.58
886.05	227.54
886.36	227.55
886.67	227.51
886.98	227.57
887.28	227.56
887.59	227.55
887.90	227.53
888.20	227.51
888.51	227.50
888.82	227.44
889.13	227.39
889.43	227.45
889.74	227.43
890.05	227.42
890.35	227.40
890.66	227.37
890.97	227.39
891.28	227.38
891.58	227.37
891.89	227.34
892.20	227.33
892.50	227.32
892.81	227.27
893.12	227.25
893.42	227.16
893.73	227.18
894.04	227.16
894.34	227.15
894.65	227.14
894.95	227.13
895.26	227.12
895.57	227.15
895.87	227.07
896.18	227.08
896.48	227.06
896.79	227.04
897.10	227.06
897.40	227.05
897.71	227.06
898.01	227.07
898.32	227.13
898.63	227.12
898.93	227.13
899.24	227.14
899.54	227.15
899.85	227.16
900.15	227.16
900.46	227.15
900.76	227.16
901.07	227.16
901.38	227.17
901.68	227.20
901.99	227.15
902.29	227.16
902.60	227.17
902.90	227.21
903.21	227.22
903.51	227.20
903.82	227.21
904.12	227.22
904.43	227.22
904.73	227.16
905.03	227.17
905.34	227.30
905.64	227.32
905.95	227.36
906.25	227.34
906.56	227.33
906.86	227.33
907.17	227.31
907.47	227.32
907.77	227.35
908.08	227.34
908.38	227.36
908.69	227.38
908.99	227.39
909.30	227.39
909.60	227.41
909.90	227.45
910.21	227.44
910.51	227.46
910.81	227.51
911.12	227.54
911.42	227.59
911.73	227.44
912.03	227.48
912.33	227.48
912.64	227.54
912.94	227.56
913.24	227.58
913.55	227.60
913.85	227.62
914.15	227.62
914.46	227.63
914.76	227.66
915.06	227.67
915.37	227.65
915.67	227.65
915.97	227.63
916.27	227.61
916.58	227.62
916.88	227.57
917.18	227.49
917.49	227.55
917.79	227.51
918.09	227.55
918.39	227.55
918.70	227.53
919.00	227.53
919.30	227.54
919.60	227.56
919.91	227.55
920.21	227.55
920.51	227.53
920.81	227.54
921.12	227.53
921.42	227.52
921.72	227.53
922.02	227.53
922.32	227.54
922.63	227.52
922.93	227.55
923.23	227.57
923.53	227.59
923.83	227.50
924.13	227.49
924.44	227.46
924.74	227.45
925.04	227.46
925.34	227.42
925.64	227.37
925.94	227.34
926.24	227.39
926.55	227.38
926.85	227.39
927.15	227.38
927.45	227.35
927.75	227.32
928.05	227.32
928.35	227.30
928.65	227.31
928.95	227.33
929.26	227.29
929.56	227.29
929.86	227.30
930.16	227.29
930.46	227.30
930.76	227.32
931.06	227.29
931.36	227.27
931.66	227.26
931.96	227.30
932.26	227.31
932.56	227.26
932.86	227.27
933.16	227.26
933.46	227.25
933.76	227.24
934.06	227.26
934.36	227.27
934.66	227.27
934.96	227.24
935.26	227.22
935.56	227.20
935.86	227.17
936.16	227.14
936.46	227.18
936.76	227.17
937.06	227.13
937.36	227.14
937.66	227.15
937.96	227.16
938.26	227.08
938.56	227.06
938.86	227.06
939.16	227.04
939.46	227.07
939.76	227.08
940.06	227.07
940.35	227.08
940.65	227.03
940.95	227.04
941.25	227.03
941.55	227.02
941.85	227.04
942.15	227.06
942.45	227.12
942.75	227.09
943.04	227.11
943.34	227.17
943.64	227.14
943.94	227.10
944.24	227.08
944.54	227.12
944.84	227.14
945.13	227.14
945.43	227.16
945.73	227.12
946.03	227.12
946.33	227.11
946.62	227.09
946.92	227.11
947.22	227.10
947.52	227.09
947.82	227.12
948.11	227.11
948.41	227.11
948.71	227.10
949.01	227.11
949.31	227.08
949.60	227.05
949.90	227.06
950.20	227.10
950.50	227.11
950.79	227.11
951.09	227.09
951.39	227.09
951.69	227.07
951.98	227.11
952.28	227.11
952.58	227.11
952.87	227.11
953.17	227.14
953.47	227.12
953.76	227.14
954.06	227.11
954.36	227.08
954.66	227.08
954.95	227.08
955.25	227.09
955.55	227.08
955.84	227.04
956.14	227.07
956.44	227.06
956.73	227.04
957.03	227.03
957.32	227.02
957.62	227.00
957.92	227.01
958.21	226.97
958.51	227.10
958.81	227.11
959.10	227.11
959.40	227.11
959.69	227.12
959.99	227.15
960.29	227.15
960.58	227.17
960.88	227.21
961.17	227.19
961.47	227.17
961.76	227.18
962.06	227.21
962.36	227.18
962.65	227.19
962.95	227.22
963.24	227.24
963.54	227.25
963.83	227.26
964.13	227.25
964.42	227.23
964.72	227.11
965.01	227.11
965.31	227.09
965.60	227.04
965.90	227.11
966.19	227.05
966.49	227.03
966.78	226.99
967.08	226.94
967.37	226.94
967.67	226.93
967.96	226.95
968.26	226.95
968.55	226.97
968.85	226.94
969.14	226.89
969.43	226.87
969.73	226.85
970.02	226.86
970.32	226.84
970.61	226.86
970.91	226.82
971.20	226.80
971.49	226.80
971.79	226.82
972.08	226.72
972.38	226.77
972.67	226.76
972.96	226.79
973.26	226.82
973.55	226.83
973.85	226.81
974.14	226.80
974.43	226.80
974.73	226.77
975.02	226.80
975.31	226.82
975.61	226.84
975.90	226.84
976.19	226.81
976.49	226.84
976.78	226.82
977.07	226.82
977.37	226.84
977.66	226.85
977.95	226.88
978.24	226.90
978.54	226.88
978.83	226.90
979.12	226.90
979.42	226.86
979.71	226.87
980.00	226.89
980.29	226.89
980.59	226.90
980.88	226.93
981.17	226.90
981.46	226.90
981.76	226.85
982.05	226.88
982.34	226.90
982.63	226.89
982.93	226.93
983.22	226.96
983.51	226.98
983.80	226.97
984.09	226.96
984.39	226.96
984.68	227.00
984.97	227.02
985.26	227.04
985.55	227.04
985.85	227.07
986.14	227.10
986.43	227.15
986.72	227.14
987.01	227.14
987.30	227.18
987.59	227.17
987.89	227.24
988.18	227.24
988.47	227.25
988.76	227.28
989.05	227.29
989.34	227.31
989.63	227.34
989.92	227.34
990.22	227.34
990.51	227.38
990.80	227.35
991.09	227.37
991.38	227.40
991.67	227.43
991.96	227.37
992.25	227.39
992.54	227.34
992.83	227.38
993.12	227.37
993.41	227.36
993.70	227.41
993.99	227.41
994.28	227.42
994.58	227.45
994.87	227.43
995.16	227.39
995.45	227.34
995.74	227.29
996.03	227.30
996.32	227.31
996.61	227.32
996.90	227.31
997.19	227.29
997.48	227.28
997.77	227.25
998.06	227.27
998.34	227.25
998.63	227.25
998.92	227.23
999.21	227.25
999.50	227.27
999.79	227.21
1000.08	227.20
1000.37	227.19
1000.66	227.14
1000.95	227.15
1001.24	227.19
1001.53	227.24
1001.82	227.23
1002.11	227.21
1002.40	227.22
1002.68	227.25
1002.97	227.28
1003.26	227.28
1003.55	227.26
1003.84	227.27
1004.13	227.27
1004.42	227.28
1004.71	227.29
1004.99	227.24
1005.28	227.26
1005.57	227.24
1005.86	227.23
1006.15	227.23
1006.44	227.19
1006.72	227.22
1007.01	227.22
1007.30	227.19
1007.59	227.15
1007.88	227.15
1008.17	227.14
1008.45	227.12
1008.74	227.03
1009.03	226.96
1009.32	226.91
1009.60	226.88
1009.89	226.88
1010.18	226.86
1010.47	226.80
1010.76	226.75
1011.04	226.77
1011.33	226.75
1011.62	226.75
1011.91	226.74
1012.19	226.72
1012.48	226.73
1012.77	226.72
1013.05	226.77
1013.34	226.76
1013.63	226.76
1013.92	226.75
1014.20	226.75
1014.49	226.75
1014.78	226.78
1015.06	226.79
1015.35	226.83
1015.64	226.86
1015.92	226.86
1016.21	226.88
1016.50	226.93
1016.78	226.98
1017.07	227.02
1017.36	227.00
1017.64	226.98
1017.93	227.03
1018.22	227.04
1018.50	227.06
1018.79	227.03
1019.08	226.99
1019.36	227.01
1019.65	227.01
1019.93	227.08
1020.22	227.10
1020.51	227.15
1020.79	227.17
1021.08	226.85
1021.36	227.17
1021.65	226.64
1021.94	227.38
1022.22	227.13
1022.51	226.90
1022.79	227.68
1023.08	227.31
1023.36	228.08
1023.65	227.32
>>>>>End Processed Spectral Data<<<<<
