SpectraSuite Data File
++++++++++++++++++++++++++++++++++++
Date: Fri Feb 01 17:24:31 EST 2013
User: group
Dark Spectrum Present: No
Reference Spectrum Present: No
Number of Sampled Component Spectra: 1
Spectrometers: USB2E7196
Integration Time (usec): 35000 (USB2E7196)
Spectra Averaged: 100 (USB2E7196)
Boxcar Smoothing: 10 (USB2E7196)
Correct for Electrical Dark: No (USB2E7196)
Strobe/Lamp Enabled: No (USB2E7196)
Correct for Detector Non-linearity: No (USB2E7196)
Correct for Stray Light: No (USB2E7196)
Number of Pixels in Processed Spectrum: 2048
>>>>>Begin Processed Spectral Data<<<<<
339.09	0.00
339.48	212.72
339.86	214.13
340.24	215.08
340.63	217.05
341.01	219.67
341.39	220.13
341.78	220.92
342.16	222.12
342.54	223.48
342.93	211.24
343.31	221.94
343.69	222.49
344.07	222.97
344.46	223.44
344.84	223.82
345.22	224.06
345.60	224.32
345.99	224.56
346.37	224.72
346.75	224.84
347.13	224.91
347.52	224.95
347.90	225.00
348.28	225.04
348.66	225.07
349.05	225.08
349.43	225.12
349.81	225.13
350.19	225.18
350.57	225.26
350.96	225.37
351.34	225.44
351.72	225.51
352.10	225.58
352.48	225.62
352.87	225.67
353.25	225.74
353.63	225.76
354.01	225.77
354.39	225.82
354.77	225.83
355.15	225.92
355.54	225.98
355.92	226.02
356.30	226.10
356.68	226.26
357.06	226.32
357.44	226.38
357.82	226.47
358.20	226.56
358.58	226.61
358.97	226.66
359.35	226.72
359.73	226.83
360.11	226.93
360.49	227.03
360.87	227.09
361.25	227.14
361.63	227.22
362.01	227.28
362.39	227.32
362.77	227.37
363.15	227.39
363.53	227.45
363.91	227.47
364.29	227.48
364.67	227.38
365.05	227.41
365.43	227.41
365.81	227.40
366.19	227.45
366.57	227.49
366.95	227.50
367.33	227.52
367.71	227.47
368.09	227.45
368.47	227.41
368.85	227.40
369.23	227.44
369.61	227.40
369.99	227.39
370.37	227.39
370.75	227.40
371.13	227.38
371.51	227.28
371.89	227.26
372.27	227.23
372.65	227.23
373.03	227.16
373.41	227.13
373.78	227.08
374.16	226.97
374.54	226.88
374.92	226.80
375.30	226.71
375.68	226.67
376.06	226.60
376.44	226.51
376.82	226.42
377.19	226.31
377.57	226.27
377.95	226.17
378.33	226.09
378.71	225.97
379.09	225.91
379.47	225.92
379.84	225.86
380.22	225.78
380.60	225.66
380.98	225.59
381.36	225.52
381.73	225.45
382.11	225.40
382.49	225.38
382.87	225.30
383.25	225.28
383.62	225.32
384.00	225.24
384.38	225.19
384.76	225.18
385.13	225.21
385.51	225.15
385.89	225.09
386.27	225.04
386.64	225.02
387.02	224.98
387.40	224.91
387.78	224.85
388.15	224.84
388.53	224.82
388.91	224.83
389.29	224.77
389.66	224.75
390.04	224.73
390.42	224.69
390.79	224.70
391.17	224.65
391.55	224.51
391.92	224.51
392.30	224.54
392.68	224.49
393.05	224.47
393.43	224.45
393.81	224.47
394.18	224.46
394.56	224.47
394.94	224.51
395.31	224.53
395.69	224.60
396.06	224.63
396.44	224.64
396.82	224.65
397.19	224.76
397.57	224.78
397.95	224.84
398.32	224.84
398.70	224.89
399.07	224.96
399.45	225.00
399.82	225.06
400.20	225.09
400.58	225.18
400.95	225.21
401.33	225.31
401.70	225.46
402.08	225.55
402.45	225.62
402.83	225.70
403.20	225.80
403.58	225.89
403.95	226.01
404.33	226.14
404.71	226.28
405.08	226.47
405.46	226.58
405.83	226.69
406.21	226.86
406.58	227.00
406.96	227.14
407.33	227.32
407.70	227.50
408.08	227.77
408.45	227.98
408.83	228.18
409.20	228.35
409.58	228.55
409.95	228.80
410.33	229.10
410.70	229.35
411.08	229.66
411.45	229.93
411.82	230.25
412.20	230.58
412.57	230.99
412.95	231.27
413.32	231.68
413.69	232.12
414.07	232.59
414.44	233.06
414.82	233.57
415.19	234.13
415.56	234.69
415.94	235.28
416.31	235.91
416.68	236.59
417.06	237.35
417.43	238.01
417.81	238.79
418.18	239.59
418.55	240.45
418.93	241.32
419.30	242.27
419.67	243.25
420.04	244.28
420.42	245.29
420.79	246.52
421.16	247.73
421.54	248.98
421.91	250.19
422.28	251.57
422.66	252.97
423.03	254.38
423.40	255.76
423.77	257.22
424.15	258.73
424.52	260.28
424.89	261.97
425.26	263.65
425.64	265.18
426.01	266.83
426.38	268.57
426.75	270.34
427.13	272.11
427.50	273.99
427.87	275.93
428.24	277.90
428.61	279.72
428.99	281.78
429.36	283.95
429.73	286.13
430.10	288.23
430.47	290.39
430.85	292.64
431.22	294.99
431.59	297.47
431.96	299.81
432.33	302.39
432.70	304.87
433.08	307.77
433.45	310.54
433.82	313.25
434.19	316.23
434.56	319.18
434.93	321.93
435.30	324.64
435.68	327.67
436.05	330.66
436.42	333.59
436.79	336.19
437.16	339.01
437.53	341.94
437.90	344.84
438.27	347.66
438.64	350.59
439.01	353.28
439.38	355.63
439.75	357.92
440.13	360.49
440.50	362.94
440.87	364.91
441.24	366.93
441.61	369.22
441.98	370.79
442.35	372.68
442.72	374.67
443.09	376.61
443.46	377.67
443.83	378.25
444.20	378.79
444.57	379.67
444.94	379.98
445.31	380.40
445.68	380.80
446.05	380.95
446.42	380.57
446.79	380.20
447.16	379.75
447.53	379.45
447.90	378.31
448.27	377.15
448.64	375.48
449.01	374.33
449.37	372.31
449.74	370.37
450.11	368.05
450.48	365.44
450.85	362.80
451.22	360.55
451.59	358.46
451.96	356.49
452.33	353.80
452.70	351.34
453.07	348.38
453.43	345.34
453.80	342.42
454.17	339.64
454.54	336.96
454.91	334.08
455.28	331.26
455.65	328.63
456.02	326.04
456.38	323.78
456.75	320.96
457.12	318.61
457.49	316.27
457.86	313.98
458.23	312.07
458.59	309.91
458.96	307.70
459.33	305.78
459.70	303.77
460.07	302.18
460.43	300.37
460.80	298.67
461.17	297.17
461.54	295.59
461.91	294.04
462.27	292.54
462.64	291.23
463.01	289.84
463.38	288.48
463.74	287.05
464.11	285.84
464.48	284.78
464.85	283.59
465.21	282.68
465.58	281.71
465.95	280.56
466.32	279.62
466.68	278.71
467.05	277.73
467.42	276.82
467.78	275.85
468.15	274.96
468.52	274.31
468.88	273.42
469.25	272.61
469.62	271.97
469.98	271.27
470.35	270.64
470.72	269.97
471.08	269.27
471.45	268.70
471.82	268.13
472.18	267.52
472.55	267.06
472.92	266.52
473.28	266.08
473.65	265.61
474.02	265.16
474.38	264.78
474.75	264.46
475.11	264.10
475.48	263.82
475.85	263.59
476.21	263.33
476.58	263.15
476.94	263.00
477.31	262.84
477.67	262.70
478.04	262.62
478.41	262.61
478.77	262.66
479.14	262.61
479.50	262.67
479.87	262.72
480.23	262.85
480.60	262.93
480.96	263.01
481.33	263.22
481.69	263.43
482.06	263.64
482.42	263.84
482.79	264.10
483.15	264.43
483.52	264.83
483.88	265.20
484.25	265.55
484.61	266.01
484.98	266.47
485.34	267.00
485.71	267.58
486.07	268.19
486.44	268.78
486.80	269.48
487.17	270.16
487.53	271.01
487.90	271.83
488.26	272.76
488.62	273.74
488.99	274.74
489.35	275.80
489.72	276.96
490.08	278.15
490.44	279.43
490.81	280.76
491.17	282.09
491.54	283.56
491.90	285.11
492.26	286.75
492.63	288.50
492.99	290.34
493.36	292.21
493.72	294.23
494.08	296.34
494.45	298.57
494.81	300.95
495.17	303.33
495.54	305.90
495.90	308.56
496.26	311.36
496.63	314.30
496.99	317.38
497.35	320.59
497.72	323.99
498.08	327.45
498.44	331.11
498.80	335.01
499.17	339.04
499.53	343.20
499.89	347.57
500.26	352.00
500.62	356.53
500.98	361.49
501.34	366.50
501.71	371.77
502.07	377.19
502.43	382.78
502.79	388.55
503.16	394.52
503.52	400.78
503.88	407.13
504.24	413.67
504.60	420.41
504.97	427.47
505.33	434.71
505.69	442.33
506.05	450.02
506.41	457.76
506.78	465.75
507.14	474.01
507.50	482.56
507.86	491.43
508.22	500.59
508.59	509.59
508.95	518.94
509.31	528.57
509.67	538.44
510.03	548.56
510.39	558.91
510.75	569.46
511.12	580.10
511.48	591.18
511.84	602.43
512.20	613.79
512.56	625.46
512.92	637.39
513.28	649.53
513.64	661.72
514.00	674.13
514.37	686.79
514.73	699.63
515.09	712.34
515.45	725.30
515.81	738.50
516.17	752.19
516.53	766.05
516.89	779.91
517.25	793.80
517.61	807.82
517.97	821.93
518.33	836.12
518.69	850.62
519.05	865.16
519.41	879.93
519.77	895.04
520.13	910.14
520.49	925.18
520.85	940.11
521.21	955.41
521.57	971.22
521.93	986.54
522.29	1002.38
522.65	1018.30
523.01	1034.10
523.37	1049.76
523.73	1065.45
524.09	1081.09
524.45	1096.87
524.81	1113.10
525.17	1129.38
525.53	1145.85
525.89	1162.18
526.25	1178.56
526.61	1194.59
526.97	1210.96
527.33	1227.15
527.68	1243.27
528.04	1259.31
528.40	1275.53
528.76	1292.12
529.12	1308.37
529.48	1324.97
529.84	1340.73
530.20	1356.81
530.56	1373.48
530.91	1390.49
531.27	1406.99
531.63	1423.03
531.99	1439.28
532.35	1454.95
532.71	1470.56
533.07	1486.60
533.42	1502.28
533.78	1518.02
534.14	1533.92
534.50	1548.96
534.86	1564.35
535.21	1579.25
535.57	1594.79
535.93	1609.95
536.29	1624.47
536.65	1639.30
537.00	1653.71
537.36	1668.77
537.72	1683.03
538.08	1697.21
538.44	1710.87
538.79	1724.55
539.15	1738.06
539.51	1751.59
539.87	1765.71
540.22	1779.19
540.58	1792.54
540.94	1805.49
541.29	1818.08
541.65	1830.66
542.01	1843.66
542.37	1855.98
542.72	1868.33
543.08	1880.21
543.44	1892.60
543.79	1904.02
544.15	1914.98
544.51	1926.62
544.87	1937.46
545.22	1948.39
545.58	1958.62
545.94	1968.47
546.29	1978.35
546.65	1988.30
547.01	1997.83
547.36	2006.55
547.72	2015.22
548.07	2023.36
548.43	2031.72
548.79	2039.79
549.14	2047.47
549.50	2055.01
549.86	2062.70
550.21	2070.19
550.57	2077.45
550.92	2084.17
551.28	2091.27
551.64	2098.49
551.99	2105.13
552.35	2111.58
552.70	2117.99
553.06	2124.25
553.41	2130.69
553.77	2136.97
554.13	2143.27
554.48	2149.51
554.84	2155.49
555.19	2160.86
555.55	2166.34
555.90	2171.16
556.26	2176.57
556.61	2181.63
556.97	2186.28
557.32	2190.86
557.68	2195.28
558.03	2199.75
558.39	2203.56
558.74	2208.56
559.10	2212.79
559.45	2216.54
559.81	2221.11
560.16	2225.09
560.52	2228.64
560.87	2232.28
561.23	2235.05
561.58	2238.23
561.94	2241.18
562.29	2243.63
562.64	2246.83
563.00	2249.56
563.35	2253.44
563.71	2256.82
564.06	2260.20
564.42	2263.54
564.77	2266.40
565.12	2269.26
565.48	2271.66
565.83	2274.11
566.19	2275.86
566.54	2277.01
566.89	2278.83
567.25	2279.91
567.60	2281.69
567.96	2283.89
568.31	2285.18
568.66	2286.82
569.02	2287.99
569.37	2288.55
569.72	2289.89
570.08	2290.55
570.43	2291.06
570.78	2290.97
571.14	2289.87
571.49	2288.93
571.84	2288.69
572.20	2287.97
572.55	2287.08
572.90	2285.67
573.26	2284.67
573.61	2283.12
573.96	2281.91
574.31	2279.28
574.67	2276.65
575.02	2273.51
575.37	2270.32
575.72	2266.93
576.08	2263.72
576.43	2260.48
576.78	2257.32
577.13	2254.22
577.49	2251.26
577.84	2248.10
578.19	2244.50
578.54	2241.18
578.90	2237.52
579.25	2232.49
579.60	2227.77
579.95	2223.24
580.30	2218.65
580.66	2213.77
581.01	2209.16
581.36	2204.49
581.71	2200.78
582.06	2196.68
582.42	2192.49
582.77	2187.64
583.12	2183.39
583.47	2179.30
583.82	2174.85
584.17	2169.98
584.53	2164.99
584.88	2159.71
585.23	2154.40
585.58	2149.34
585.93	2144.20
586.28	2139.50
586.63	2134.67
586.98	2129.92
587.34	2125.37
587.69	2120.70
588.04	2115.72
588.39	2110.42
588.74	2104.18
589.09	2098.19
589.44	2091.65
589.79	2085.64
590.14	2080.04
590.49	2073.59
590.84	2067.21
591.19	2061.22
591.54	2054.95
591.89	2047.96
592.25	2041.42
592.60	2034.27
592.95	2026.91
593.30	2019.69
593.65	2012.27
594.00	2005.30
594.35	1998.21
594.70	1990.12
595.05	1983.27
595.40	1976.08
595.75	1968.55
596.10	1962.59
596.45	1956.00
596.80	1950.05
597.15	1943.71
597.50	1937.07
597.85	1930.73
598.19	1924.31
598.54	1917.60
598.89	1911.00
599.24	1905.13
599.59	1898.80
599.94	1892.57
600.29	1886.18
600.64	1879.52
600.99	1872.22
601.34	1865.55
601.69	1858.64
602.04	1852.11
602.39	1844.75
602.74	1838.11
603.08	1831.57
603.43	1824.76
603.78	1817.62
604.13	1810.33
604.48	1803.22
604.83	1796.32
605.18	1789.53
605.53	1781.72
605.87	1773.52
606.22	1766.26
606.57	1758.24
606.92	1750.59
607.27	1743.66
607.62	1736.96
607.96	1729.89
608.31	1723.52
608.66	1716.05
609.01	1708.62
609.36	1701.10
609.70	1693.08
610.05	1685.08
610.40	1677.40
610.75	1669.18
611.10	1661.33
611.44	1652.85
611.79	1644.63
612.14	1635.88
612.49	1626.68
612.83	1618.17
613.18	1610.14
613.53	1601.97
613.88	1593.35
614.22	1585.06
614.57	1576.25
614.92	1568.17
615.27	1560.67
615.61	1552.17
615.96	1543.91
616.31	1536.06
616.65	1528.44
617.00	1520.86
617.35	1512.97
617.70	1504.64
618.04	1495.94
618.39	1487.56
618.74	1479.92
619.08	1471.55
619.43	1463.87
619.78	1456.79
620.12	1449.60
620.47	1441.83
620.82	1433.48
621.16	1425.94
621.51	1418.23
621.85	1410.55
622.20	1401.85
622.55	1393.31
622.89	1385.28
623.24	1377.57
623.59	1370.03
623.93	1362.40
624.28	1355.02
624.62	1347.44
624.97	1340.10
625.32	1333.21
625.66	1326.20
626.01	1318.90
626.35	1311.51
626.70	1303.53
627.04	1295.78
627.39	1287.75
627.73	1280.37
628.08	1273.36
628.43	1266.16
628.77	1258.78
629.12	1251.07
629.46	1243.81
629.81	1236.21
630.15	1228.93
630.50	1221.34
630.84	1213.08
631.19	1205.09
631.53	1197.38
631.88	1189.73
632.22	1181.96
632.57	1174.52
632.91	1166.77
633.26	1159.27
633.60	1151.65
633.95	1144.44
634.29	1137.18
634.64	1130.43
634.98	1123.04
635.32	1115.88
635.67	1109.03
636.01	1102.26
636.36	1095.54
636.70	1088.91
637.05	1082.31
637.39	1075.79
637.73	1069.42
638.08	1063.45
638.42	1057.42
638.77	1051.00
639.11	1044.41
639.45	1038.07
639.80	1031.50
640.14	1025.29
640.49	1018.76
640.83	1012.50
641.17	1006.38
641.52	1000.13
641.86	993.60
642.20	987.64
642.55	981.22
642.89	974.75
643.23	968.15
643.58	962.21
643.92	956.03
644.26	950.01
644.61	943.85
644.95	937.76
645.29	931.25
645.64	924.48
645.98	918.15
646.32	912.18
646.66	906.09
647.01	900.18
647.35	894.24
647.69	888.26
648.04	882.63
648.38	876.74
648.72	870.80
649.06	864.74
649.41	858.76
649.75	852.87
650.09	846.90
650.43	841.12
650.78	834.97
651.12	828.94
651.46	823.18
651.80	817.47
652.14	812.00
652.49	806.60
652.83	801.40
653.17	795.77
653.51	790.12
653.85	784.59
654.20	778.98
654.54	773.02
654.88	767.29
655.22	761.37
655.56	755.62
655.90	750.03
656.25	744.80
656.59	739.42
656.93	734.29
657.27	729.17
657.61	723.72
657.95	718.59
658.29	713.47
658.64	708.07
658.98	702.66
659.32	697.14
659.66	691.90
660.00	686.62
660.34	681.62
660.68	676.52
661.02	671.55
661.36	666.77
661.70	662.22
662.05	657.85
662.39	653.56
662.73	649.07
663.07	644.69
663.41	640.18
663.75	635.72
664.09	631.10
664.43	626.70
664.77	622.50
665.11	618.22
665.45	614.08
665.79	610.03
666.13	605.93
666.47	601.81
666.81	597.62
667.15	593.44
667.49	589.42
667.83	585.57
668.17	581.57
668.51	577.52
668.85	573.44
669.19	569.55
669.53	565.70
669.87	561.87
670.21	558.13
670.55	554.46
670.89	551.02
671.23	547.56
671.57	543.90
671.91	540.42
672.25	536.87
672.58	533.31
672.92	529.81
673.26	526.60
673.60	523.41
673.94	520.27
674.28	517.29
674.62	514.36
674.96	511.29
675.30	508.39
675.64	505.50
675.97	502.74
676.31	499.86
676.65	496.86
676.99	494.09
677.33	491.19
677.67	488.40
678.01	485.33
678.34	482.35
678.68	479.48
679.02	476.59
679.36	473.82
679.70	471.07
680.04	468.36
680.37	465.50
680.71	462.67
681.05	459.99
681.39	457.26
681.73	454.52
682.06	451.97
682.40	449.39
682.74	446.78
683.08	444.15
683.42	441.51
683.75	438.98
684.09	436.40
684.43	433.88
684.77	431.37
685.10	429.01
685.44	426.69
685.78	424.35
686.12	422.08
686.45	419.73
686.79	417.41
687.13	415.18
687.46	412.98
687.80	410.80
688.14	408.60
688.48	406.54
688.81	404.36
689.15	402.17
689.49	399.94
689.82	397.79
690.16	395.66
690.50	393.64
690.83	391.74
691.17	389.73
691.51	387.77
691.84	385.89
692.18	383.91
692.52	381.88
692.85	379.94
693.19	378.04
693.52	376.19
693.86	374.31
694.20	372.47
694.53	370.62
694.87	368.75
695.21	366.89
695.54	365.00
695.88	363.20
696.21	361.43
696.55	359.78
696.88	358.07
697.22	356.36
697.56	354.67
697.89	352.98
698.23	351.32
698.56	349.70
698.90	348.10
699.23	346.48
699.57	344.92
699.90	343.37
700.24	341.78
700.58	340.24
700.91	338.77
701.25	337.34
701.58	336.00
701.92	334.60
702.25	333.25
702.59	331.88
702.92	330.55
703.26	329.25
703.59	327.98
703.93	326.77
704.26	325.56
704.60	324.30
704.93	322.99
705.26	321.76
705.60	320.58
705.93	319.37
706.27	318.28
706.60	317.20
706.94	316.05
707.27	314.89
707.61	313.80
707.94	312.70
708.27	311.56
708.61	310.44
708.94	309.42
709.28	308.44
709.61	307.46
709.94	306.48
710.28	305.40
710.61	304.37
710.95	303.27
711.28	302.34
711.61	301.39
711.95	300.46
712.28	299.50
712.61	298.47
712.95	297.59
713.28	296.67
713.61	295.74
713.95	294.91
714.28	294.10
714.61	293.20
714.95	292.42
715.28	291.60
715.61	290.71
715.95	289.83
716.28	288.93
716.61	288.05
716.95	287.22
717.28	286.49
717.61	285.72
717.94	284.98
718.28	284.15
718.61	283.41
718.94	282.67
719.27	282.02
719.61	281.39
719.94	280.68
720.27	279.99
720.60	279.34
720.94	278.66
721.27	278.04
721.60	277.45
721.93	276.79
722.27	276.21
722.60	275.67
722.93	275.09
723.26	274.53
723.59	273.99
723.93	273.42
724.26	272.82
724.59	272.24
724.92	271.71
725.25	271.18
725.59	270.63
725.92	270.11
726.25	269.55
726.58	268.98
726.91	268.45
727.24	267.95
727.57	267.45
727.91	266.92
728.24	266.45
728.57	265.99
728.90	265.54
729.23	265.01
729.56	264.55
729.89	264.08
730.22	263.57
730.55	263.09
730.89	262.64
731.22	262.18
731.55	261.74
731.88	261.26
732.21	260.87
732.54	260.44
732.87	260.03
733.20	259.63
733.53	259.26
733.86	258.88
734.19	258.48
734.52	258.11
734.85	257.81
735.18	257.38
735.51	256.98
735.84	256.63
736.17	256.25
736.50	255.85
736.83	255.64
737.16	255.33
737.49	254.95
737.82	254.62
738.15	254.33
738.48	254.02
738.81	253.71
739.14	253.36
739.47	253.01
739.80	252.67
740.13	252.36
740.46	251.99
740.79	251.66
741.12	251.33
741.45	251.02
741.78	250.68
742.11	250.42
742.44	250.08
742.77	249.76
743.10	249.47
743.43	249.14
743.75	248.72
744.08	248.51
744.41	248.28
744.74	248.00
745.07	247.70
745.40	247.42
745.73	247.17
746.06	246.87
746.39	246.62
746.71	246.36
747.04	246.08
747.37	245.84
747.70	245.60
748.03	245.34
748.36	245.10
748.68	244.85
749.01	244.58
749.34	244.37
749.67	244.11
750.00	243.92
750.33	243.75
750.65	243.54
750.98	243.19
751.31	242.96
751.64	242.73
751.97	242.52
752.29	242.26
752.62	242.00
752.95	241.77
753.28	241.58
753.60	241.33
753.93	241.15
754.26	240.92
754.59	240.68
754.91	240.45
755.24	240.22
755.57	240.05
755.90	239.86
756.22	239.68
756.55	239.49
756.88	239.22
757.20	239.00
757.53	238.79
757.86	238.65
758.19	238.43
758.51	238.24
758.84	238.04
759.17	237.89
759.49	237.72
759.82	237.61
760.15	237.43
760.47	237.30
760.80	237.12
761.13	237.01
761.45	236.85
761.78	236.71
762.11	236.56
762.43	236.40
762.76	236.24
763.08	236.09
763.41	235.96
763.74	235.86
764.06	235.70
764.39	235.57
764.71	235.43
765.04	235.32
765.37	235.16
765.69	235.05
766.02	234.90
766.34	234.80
766.67	234.64
767.00	234.56
767.32	234.50
767.65	234.48
767.97	234.36
768.30	234.27
768.62	234.17
768.95	234.05
769.27	233.90
769.60	233.82
769.92	233.68
770.25	233.56
770.57	233.47
770.90	233.36
771.22	233.24
771.55	233.13
771.87	233.06
772.20	232.98
772.52	232.97
772.85	232.99
773.17	232.88
773.50	232.79
773.82	232.64
774.15	232.51
774.47	232.33
774.80	232.20
775.12	232.10
775.45	232.06
775.77	231.99
776.09	231.96
776.42	231.91
776.74	231.87
777.07	231.81
777.39	231.75
777.72	231.68
778.04	231.64
778.36	231.56
778.69	231.49
779.01	231.47
779.33	231.29
779.66	231.15
779.98	231.09
780.31	231.05
780.63	231.04
780.95	231.01
781.28	230.97
781.60	230.96
781.92	230.92
782.25	230.82
782.57	230.75
782.89	230.68
783.22	230.58
783.54	230.51
783.86	230.45
784.19	230.35
784.51	230.37
784.83	230.31
785.16	230.30
785.48	230.25
785.80	230.20
786.12	230.21
786.45	230.15
786.77	230.12
787.09	230.00
787.42	229.92
787.74	229.87
788.06	229.82
788.38	229.77
788.71	229.71
789.03	229.70
789.35	229.69
789.67	229.64
789.99	229.61
790.32	229.54
790.64	229.51
790.96	229.57
791.28	229.47
791.61	229.43
791.93	229.41
792.25	229.34
792.57	229.34
792.89	229.23
793.21	229.19
793.54	229.15
793.86	229.15
794.18	229.12
794.50	229.05
794.82	228.98
795.14	228.95
795.47	228.91
795.79	228.83
796.11	228.79
796.43	228.73
796.75	228.68
797.07	228.66
797.39	228.62
797.71	228.51
798.04	228.44
798.36	228.40
798.68	228.31
799.00	228.30
799.32	228.22
799.64	228.23
799.96	228.18
800.28	228.16
800.60	228.12
800.92	228.11
801.24	228.08
801.56	228.05
801.89	228.01
802.21	228.00
802.53	227.95
802.85	227.92
803.17	227.95
803.49	227.88
803.81	227.81
804.13	227.78
804.45	227.74
804.77	227.77
805.09	227.73
805.41	227.68
805.73	227.62
806.05	227.56
806.37	227.52
806.69	227.51
807.01	227.45
807.33	227.45
807.65	227.36
807.97	227.40
808.28	227.37
808.60	227.34
808.92	227.28
809.24	227.30
809.56	227.24
809.88	227.14
810.20	227.13
810.52	227.16
810.84	227.09
811.16	227.04
811.48	226.95
811.80	226.97
812.12	226.98
812.43	226.98
812.75	226.99
813.07	226.97
813.39	226.97
813.71	226.97
814.03	226.92
814.35	226.90
814.67	226.79
814.98	226.77
815.30	226.76
815.62	226.79
815.94	226.72
816.26	226.80
816.58	226.80
816.89	226.82
817.21	226.78
817.53	226.81
817.85	226.83
818.17	226.82
818.48	226.76
818.80	226.77
819.12	226.74
819.44	226.70
819.76	226.66
820.07	226.62
820.39	226.61
820.71	226.58
821.03	226.57
821.34	226.58
821.66	226.56
821.98	226.51
822.30	226.45
822.61	226.49
822.93	226.41
823.25	226.43
823.57	226.37
823.88	226.36
824.20	226.33
824.52	226.30
824.83	226.31
825.15	226.27
825.47	226.24
825.79	226.24
826.10	226.21
826.42	226.21
826.74	226.21
827.05	226.17
827.37	226.19
827.69	226.18
828.00	226.16
828.32	226.18
828.64	226.18
828.95	226.23
829.27	226.20
829.58	226.15
829.90	226.13
830.22	226.14
830.53	226.11
830.85	226.11
831.17	226.10
831.48	226.09
831.80	226.11
832.11	226.12
832.43	226.13
832.75	226.11
833.06	226.13
833.38	226.09
833.69	226.07
834.01	226.04
834.32	226.01
834.64	225.96
834.96	225.96
835.27	225.95
835.59	225.87
835.90	225.81
836.22	225.83
836.53	225.79
836.85	225.80
837.16	225.90
837.48	225.89
837.79	225.88
838.11	225.88
838.42	225.87
838.74	225.85
839.05	225.78
839.37	225.80
839.68	225.75
840.00	225.74
840.31	225.76
840.63	225.75
840.94	225.75
841.26	225.78
841.57	225.73
841.88	225.74
842.20	225.74
842.51	225.75
842.83	225.72
843.14	225.79
843.46	225.74
843.77	225.66
844.08	225.63
844.40	225.63
844.71	225.60
845.03	225.57
845.34	225.57
845.65	225.60
845.97	225.61
846.28	225.62
846.60	225.62
846.91	225.59
847.22	225.56
847.54	225.57
847.85	225.58
848.16	225.56
848.48	225.54
848.79	225.56
849.10	225.57
849.42	225.59
849.73	225.52
850.04	225.52
850.36	225.46
850.67	225.48
850.98	225.44
851.30	225.44
851.61	225.44
851.92	225.40
852.23	225.38
852.55	225.34
852.86	225.34
853.17	225.33
853.49	225.34
853.80	225.35
854.11	225.34
854.42	225.33
854.74	225.33
855.05	225.34
855.36	225.29
855.67	225.31
855.99	225.31
856.30	225.38
856.61	225.36
856.92	225.39
857.23	225.40
857.55	225.43
857.86	225.42
858.17	225.44
858.48	225.45
858.79	225.44
859.11	225.48
859.42	225.47
859.73	225.48
860.04	225.50
860.35	225.49
860.66	225.47
860.98	225.43
861.29	225.44
861.60	225.43
861.91	225.45
862.22	225.43
862.53	225.40
862.84	225.31
863.16	225.35
863.47	225.34
863.78	225.32
864.09	225.29
864.40	225.28
864.71	225.25
865.02	225.25
865.33	225.26
865.64	225.21
865.95	225.21
866.27	225.27
866.58	225.24
866.89	225.24
867.20	225.24
867.51	225.27
867.82	225.27
868.13	225.29
868.44	225.25
868.75	225.23
869.06	225.23
869.37	225.25
869.68	225.22
869.99	225.25
870.30	225.25
870.61	225.28
870.92	225.28
871.23	225.30
871.54	225.32
871.85	225.33
872.16	225.35
872.47	225.36
872.78	225.30
873.09	225.32
873.40	225.30
873.71	225.30
874.02	225.26
874.33	225.27
874.64	225.27
874.95	225.33
875.26	225.34
875.56	225.36
875.87	225.36
876.18	225.36
876.49	225.44
876.80	225.43
877.11	225.42
877.42	225.44
877.73	225.42
878.04	225.42
878.35	225.42
878.66	225.41
878.96	225.38
879.27	225.37
879.58	225.35
879.89	225.36
880.20	225.38
880.51	225.40
880.82	225.40
881.12	225.38
881.43	225.33
881.74	225.31
882.05	225.30
882.36	225.30
882.67	225.27
882.97	225.15
883.28	225.13
883.59	225.10
883.90	225.12
884.21	225.06
884.51	225.06
884.82	225.01
885.13	225.02
885.44	225.02
885.74	225.01
886.05	224.99
886.36	224.99
886.67	224.97
886.98	225.01
887.28	225.00
887.59	224.99
887.90	225.01
888.20	224.99
888.51	225.01
888.82	224.95
889.13	224.96
889.43	225.03
889.74	225.05
890.05	225.04
890.35	225.02
890.66	225.05
890.97	225.02
891.28	225.00
891.58	224.99
891.89	224.98
892.20	224.95
892.50	224.96
892.81	224.94
893.12	224.93
893.42	224.89
893.73	224.90
894.04	224.87
894.34	224.84
894.65	224.86
894.95	224.82
895.26	224.85
895.57	224.89
895.87	224.79
896.18	224.77
896.48	224.78
896.79	224.76
897.10	224.75
897.40	224.76
897.71	224.78
898.01	224.78
898.32	224.75
898.63	224.76
898.93	224.77
899.24	224.78
899.54	224.76
899.85	224.75
900.15	224.70
900.46	224.69
900.76	224.72
901.07	224.69
901.38	224.65
901.68	224.62
901.99	224.57
902.29	224.58
902.60	224.59
902.90	224.58
903.21	224.55
903.51	224.54
903.82	224.59
904.12	224.59
904.43	224.56
904.73	224.60
905.03	224.61
905.34	224.66
905.64	224.66
905.95	224.69
906.25	224.70
906.56	224.71
906.86	224.71
907.17	224.70
907.47	224.74
907.77	224.76
908.08	224.77
908.38	224.80
908.69	224.81
908.99	224.84
909.30	224.84
909.60	224.87
909.90	224.90
910.21	224.84
910.51	224.82
910.81	224.85
911.12	224.86
911.42	224.88
911.73	224.79
912.03	224.79
912.33	224.81
912.64	224.82
912.94	224.84
913.24	224.84
913.55	224.82
913.85	224.78
914.15	224.81
914.46	224.84
914.76	224.82
915.06	224.84
915.37	224.79
915.67	224.81
915.97	224.82
916.27	224.81
916.58	224.84
916.88	224.87
917.18	224.88
917.49	224.93
917.79	224.91
918.09	224.96
918.39	225.02
918.70	224.98
919.00	224.97
919.30	225.01
919.60	225.05
919.91	225.08
920.21	225.11
920.51	225.09
920.81	225.09
921.12	225.14
921.42	225.11
921.72	225.17
922.02	225.16
922.32	225.18
922.63	225.18
922.93	225.18
923.23	225.17
923.53	225.14
923.83	225.05
924.13	225.07
924.44	225.06
924.74	225.02
925.04	225.04
925.34	225.05
925.64	225.02
925.94	225.00
926.24	225.01
926.55	224.97
926.85	224.97
927.15	224.97
927.45	224.94
927.75	224.95
928.05	224.91
928.35	224.93
928.65	224.93
928.95	224.92
929.26	224.90
929.56	224.89
929.86	224.91
930.16	224.91
930.46	224.90
930.76	224.91
931.06	224.88
931.36	224.86
931.66	224.85
931.96	224.85
932.26	224.86
932.56	224.81
932.86	224.80
933.16	224.82
933.46	224.81
933.76	224.80
934.06	224.82
934.36	224.81
934.66	224.75
934.96	224.75
935.26	224.73
935.56	224.75
935.86	224.75
936.16	224.72
936.46	224.72
936.76	224.75
937.06	224.71
937.36	224.72
937.66	224.72
937.96	224.68
938.26	224.66
938.56	224.62
938.86	224.65
939.16	224.70
939.46	224.72
939.76	224.69
940.06	224.70
940.35	224.69
940.65	224.68
940.95	224.72
941.25	224.67
941.55	224.66
941.85	224.66
942.15	224.69
942.45	224.74
942.75	224.73
943.04	224.72
943.34	224.74
943.64	224.74
943.94	224.73
944.24	224.76
944.54	224.80
944.84	224.81
945.13	224.81
945.43	224.80
945.73	224.79
946.03	224.78
946.33	224.74
946.62	224.77
946.92	224.76
947.22	224.78
947.52	224.81
947.82	224.85
948.11	224.84
948.41	224.82
948.71	224.76
949.01	224.77
949.31	224.77
949.60	224.77
949.90	224.77
950.20	224.77
950.50	224.79
950.79	224.77
951.09	224.80
951.39	224.80
951.69	224.77
951.98	224.78
952.28	224.84
952.58	224.86
952.87	224.84
953.17	224.86
953.47	224.85
953.76	224.85
954.06	224.85
954.36	224.83
954.66	224.83
954.95	224.87
955.25	224.87
955.55	224.87
955.84	224.85
956.14	224.89
956.44	224.91
956.73	224.88
957.03	224.91
957.32	224.87
957.62	224.87
957.92	224.92
958.21	224.90
958.51	224.97
958.81	224.99
959.10	225.00
959.40	225.00
959.69	225.02
959.99	225.02
960.29	224.98
960.58	224.96
960.88	225.01
961.17	225.01
961.47	225.01
961.76	225.01
962.06	225.02
962.36	225.01
962.65	224.99
962.95	224.98
963.24	224.93
963.54	224.97
963.83	224.95
964.13	224.95
964.42	224.93
964.72	224.85
965.01	224.86
965.31	224.84
965.60	224.81
965.90	224.86
966.19	224.85
966.49	224.89
966.78	224.91
967.08	224.86
967.37	224.87
967.67	224.91
967.96	224.90
968.26	224.89
968.55	224.88
968.85	224.86
969.14	224.87
969.43	224.90
969.73	224.86
970.02	224.91
970.32	224.86
970.61	224.86
970.91	224.82
971.20	224.78
971.49	224.77
971.79	224.76
972.08	224.68
972.38	224.69
972.67	224.66
972.96	224.64
973.26	224.63
973.55	224.66
973.85	224.61
974.14	224.63
974.43	224.65
974.73	224.64
975.02	224.64
975.31	224.63
975.61	224.61
975.90	224.61
976.19	224.56
976.49	224.56
976.78	224.54
977.07	224.56
977.37	224.56
977.66	224.56
977.95	224.58
978.24	224.62
978.54	224.65
978.83	224.65
979.12	224.65
979.42	224.65
979.71	224.64
980.00	224.67
980.29	224.66
980.59	224.65
980.88	224.67
981.17	224.67
981.46	224.69
981.76	224.69
982.05	224.72
982.34	224.73
982.63	224.73
982.93	224.78
983.22	224.81
983.51	224.85
983.80	224.86
984.09	224.92
984.39	224.89
984.68	224.86
984.97	224.86
985.26	224.84
985.55	224.86
985.85	224.83
986.14	224.81
986.43	224.83
986.72	224.82
987.01	224.80
987.30	224.80
987.59	224.80
987.89	224.80
988.18	224.78
988.47	224.81
988.76	224.80
989.05	224.75
989.34	224.73
989.63	224.72
989.92	224.70
990.22	224.65
990.51	224.62
990.80	224.61
991.09	224.63
991.38	224.70
991.67	224.64
991.96	224.65
992.25	224.65
992.54	224.62
992.83	224.60
993.12	224.59
993.41	224.61
993.70	224.66
993.99	224.67
994.28	224.66
994.58	224.65
994.87	224.63
995.16	224.62
995.45	224.63
995.74	224.61
996.03	224.63
996.32	224.67
996.61	224.71
996.90	224.73
997.19	224.71
997.48	224.63
997.77	224.64
998.06	224.61
998.34	224.60
998.63	224.57
998.92	224.59
999.21	224.59
999.50	224.59
999.79	224.51
1000.08	224.54
1000.37	224.52
1000.66	224.53
1000.95	224.57
1001.24	224.60
1001.53	224.59
1001.82	224.58
1002.11	224.55
1002.40	224.52
1002.68	224.53
1002.97	224.57
1003.26	224.58
1003.55	224.61
1003.84	224.62
1004.13	224.66
1004.42	224.66
1004.71	224.67
1004.99	224.63
1005.28	224.68
1005.57	224.64
1005.86	224.65
1006.15	224.59
1006.44	224.60
1006.72	224.60
1007.01	224.61
1007.30	224.60
1007.59	224.59
1007.88	224.62
1008.17	224.62
1008.45	224.60
1008.74	224.57
1009.03	224.51
1009.32	224.52
1009.60	224.54
1009.89	224.56
1010.18	224.50
1010.47	224.52
1010.76	224.54
1011.04	224.59
1011.33	224.56
1011.62	224.57
1011.91	224.58
1012.19	224.62
1012.48	224.64
1012.77	224.63
1013.05	224.65
1013.34	224.66
1013.63	224.62
1013.92	224.60
1014.20	224.59
1014.49	224.60
1014.78	224.63
1015.06	224.61
1015.35	224.63
1015.64	224.61
1015.92	224.61
1016.21	224.66
1016.50	224.65
1016.78	224.65
1017.07	224.63
1017.36	224.62
1017.64	224.63
1017.93	224.62
1018.22	224.62
1018.50	224.62
1018.79	224.64
1019.08	224.61
1019.36	224.63
1019.65	224.67
1019.93	224.68
1020.22	224.72
1020.51	224.78
1020.79	224.75
1021.08	224.87
1021.36	224.58
1021.65	225.24
1021.94	224.83
1022.22	224.79
1022.51	224.81
1022.79	224.74
1023.08	224.88
1023.36	225.90
1023.65	224.41
>>>>>End Processed Spectral Data<<<<<
