SpectraSuite Data File
++++++++++++++++++++++++++++++++++++
Date: Fri Feb 01 15:48:13 EST 2013
User: group
Dark Spectrum Present: No
Reference Spectrum Present: No
Number of Sampled Component Spectra: 1
Spectrometers: USB2E7196
Integration Time (usec): 35000 (USB2E7196)
Spectra Averaged: 100 (USB2E7196)
Boxcar Smoothing: 10 (USB2E7196)
Correct for Electrical Dark: No (USB2E7196)
Strobe/Lamp Enabled: No (USB2E7196)
Correct for Detector Non-linearity: No (USB2E7196)
Correct for Stray Light: No (USB2E7196)
Number of Pixels in Processed Spectrum: 2048
>>>>>Begin Processed Spectral Data<<<<<
339.09	0.00
339.48	214.64
339.86	216.24
340.24	217.52
340.63	219.06
341.01	221.06
341.39	221.54
341.78	222.92
342.16	223.83
342.54	224.48
342.93	212.85
343.31	223.62
343.69	224.16
344.07	224.62
344.46	225.06
344.84	225.45
345.22	225.71
345.60	225.94
345.99	226.12
346.37	226.25
346.75	226.36
347.13	226.41
347.52	226.44
347.90	226.54
348.28	226.59
348.66	226.62
349.05	226.63
349.43	226.70
349.81	226.71
350.19	226.79
350.57	226.91
350.96	226.98
351.34	227.06
351.72	227.14
352.10	227.24
352.48	227.29
352.87	227.35
353.25	227.43
353.63	227.50
354.01	227.57
354.39	227.66
354.77	227.75
355.15	227.87
355.54	227.92
355.92	227.94
356.30	228.04
356.68	228.19
357.06	228.27
357.44	228.32
357.82	228.42
358.20	228.49
358.58	228.54
358.97	228.62
359.35	228.71
359.73	228.80
360.11	228.85
360.49	228.95
360.87	228.99
361.25	229.05
361.63	229.17
362.01	229.22
362.39	229.29
362.77	229.37
363.15	229.36
363.53	229.43
363.91	229.47
364.29	229.50
364.67	229.42
365.05	229.44
365.43	229.47
365.81	229.48
366.19	229.52
366.57	229.56
366.95	229.56
367.33	229.52
367.71	229.52
368.09	229.54
368.47	229.52
368.85	229.52
369.23	229.51
369.61	229.41
369.99	229.43
370.37	229.37
370.75	229.35
371.13	229.35
371.51	229.28
371.89	229.28
372.27	229.25
372.65	229.19
373.03	229.13
373.41	229.08
373.78	229.03
374.16	228.94
374.54	228.86
374.92	228.78
375.30	228.72
375.68	228.63
376.06	228.55
376.44	228.44
376.82	228.36
377.19	228.28
377.57	228.22
377.95	228.12
378.33	228.03
378.71	227.93
379.09	227.86
379.47	227.81
379.84	227.71
380.22	227.62
380.60	227.57
380.98	227.52
381.36	227.42
381.73	227.35
382.11	227.29
382.49	227.24
382.87	227.16
383.25	227.09
383.62	227.13
384.00	227.06
384.38	227.00
384.76	226.97
385.13	226.96
385.51	226.88
385.89	226.81
386.27	226.75
386.64	226.71
387.02	226.68
387.40	226.63
387.78	226.56
388.15	226.50
388.53	226.45
388.91	226.40
389.29	226.40
389.66	226.38
390.04	226.35
390.42	226.31
390.79	226.26
391.17	226.24
391.55	226.11
391.92	226.11
392.30	226.12
392.68	226.07
393.05	226.03
393.43	226.03
393.81	226.07
394.18	226.07
394.56	226.08
394.94	226.08
395.31	226.11
395.69	226.15
396.06	226.21
396.44	226.24
396.82	226.25
397.19	226.31
397.57	226.33
397.95	226.39
398.32	226.44
398.70	226.53
399.07	226.62
399.45	226.68
399.82	226.75
400.20	226.80
400.58	226.92
400.95	226.97
401.33	227.08
401.70	227.20
402.08	227.31
402.45	227.41
402.83	227.55
403.20	227.61
403.58	227.74
403.95	227.86
404.33	227.99
404.71	228.14
405.08	228.35
405.46	228.51
405.83	228.64
406.21	228.79
406.58	228.95
406.96	229.10
407.33	229.29
407.70	229.50
408.08	229.82
408.45	230.03
408.83	230.29
409.20	230.48
409.58	230.67
409.95	230.96
410.33	231.18
410.70	231.43
411.08	231.73
411.45	232.04
411.82	232.33
412.20	232.71
412.57	233.13
412.95	233.40
413.32	233.79
413.69	234.20
414.07	234.64
414.44	235.14
414.82	235.65
415.19	236.18
415.56	236.67
415.94	237.14
416.31	237.78
416.68	238.42
417.06	239.16
417.43	239.83
417.81	240.58
418.18	241.41
418.55	242.25
418.93	243.16
419.30	244.06
419.67	245.01
420.04	245.98
420.42	246.97
420.79	248.14
421.16	249.29
421.54	250.49
421.91	251.70
422.28	252.95
422.66	254.27
423.03	255.57
423.40	256.93
423.77	258.38
424.15	259.79
424.52	261.26
424.89	262.86
425.26	264.40
425.64	265.85
426.01	267.41
426.38	269.08
426.75	270.73
427.13	272.43
427.50	274.23
427.87	276.12
428.24	277.97
428.61	279.71
428.99	281.64
429.36	283.73
429.73	285.79
430.10	287.77
430.47	289.81
430.85	291.95
431.22	294.22
431.59	296.61
431.96	298.85
432.33	301.34
432.70	303.74
433.08	306.60
433.45	309.24
433.82	311.84
434.19	314.69
434.56	317.48
434.93	320.16
435.30	322.80
435.68	325.65
436.05	328.47
436.42	331.25
436.79	333.84
437.16	336.53
437.53	339.35
437.90	342.16
438.27	344.91
438.64	347.71
439.01	350.28
439.38	352.47
439.75	354.64
440.13	357.13
440.50	359.45
440.87	361.23
441.24	363.15
441.61	365.28
441.98	366.78
442.35	368.59
442.72	370.40
443.09	372.18
443.46	373.21
443.83	373.80
444.20	374.33
444.57	375.13
444.94	375.45
445.31	375.78
445.68	376.11
446.05	376.17
446.42	375.78
446.79	375.39
447.16	374.96
447.53	374.63
447.90	373.46
448.27	372.26
448.64	370.69
449.01	369.56
449.37	367.64
449.74	365.70
450.11	363.48
450.48	361.04
450.85	358.48
451.22	356.32
451.59	354.29
451.96	352.34
452.33	349.73
452.70	347.31
453.07	344.47
453.43	341.60
453.80	338.83
454.17	336.18
454.54	333.65
454.91	330.93
455.28	328.24
455.65	325.79
456.02	323.32
456.38	321.16
456.75	318.55
457.12	316.31
457.49	314.08
457.86	311.89
458.23	310.04
458.59	308.03
458.96	305.93
459.33	304.06
459.70	302.22
460.07	300.72
460.43	299.04
460.80	297.44
461.17	296.01
461.54	294.54
461.91	293.08
462.27	291.60
462.64	290.38
463.01	289.04
463.38	287.73
463.74	286.40
464.11	285.23
464.48	284.17
464.85	283.03
465.21	282.21
465.58	281.29
465.95	280.20
466.32	279.29
466.68	278.39
467.05	277.53
467.42	276.63
467.78	275.70
468.15	274.85
468.52	274.19
468.88	273.30
469.25	272.53
469.62	271.91
469.98	271.26
470.35	270.57
470.72	269.95
471.08	269.28
471.45	268.76
471.82	268.25
472.18	267.64
472.55	267.21
472.92	266.70
473.28	266.22
473.65	265.77
474.02	265.35
474.38	264.98
474.75	264.61
475.11	264.26
475.48	264.00
475.85	263.72
476.21	263.48
476.58	263.30
476.94	263.17
477.31	263.00
477.67	262.83
478.04	262.77
478.41	262.73
478.77	262.77
479.14	262.67
479.50	262.68
479.87	262.75
480.23	262.85
480.60	262.88
480.96	262.99
481.33	263.20
481.69	263.35
482.06	263.58
482.42	263.80
482.79	264.04
483.15	264.38
483.52	264.78
483.88	265.14
484.25	265.58
484.61	266.04
484.98	266.51
485.34	267.07
485.71	267.64
486.07	268.24
486.44	268.79
486.80	269.53
487.17	270.23
487.53	271.07
487.90	271.90
488.26	272.86
488.62	273.86
488.99	274.83
489.35	275.89
489.72	277.03
490.08	278.22
490.44	279.47
490.81	280.81
491.17	282.16
491.54	283.66
491.90	285.17
492.26	286.78
492.63	288.51
492.99	290.29
493.36	292.20
493.72	294.24
494.08	296.38
494.45	298.64
494.81	301.08
495.17	303.54
495.54	306.11
495.90	308.80
496.26	311.58
496.63	314.51
496.99	317.63
497.35	320.88
497.72	324.34
498.08	327.89
498.44	331.56
498.80	335.48
499.17	339.53
499.53	343.69
499.89	348.09
500.26	352.60
500.62	357.28
500.98	362.23
501.34	367.33
501.71	372.67
502.07	378.05
502.43	383.66
502.79	389.53
503.16	395.62
503.52	401.91
503.88	408.35
504.24	415.01
504.60	421.89
504.97	429.02
505.33	436.31
505.69	443.98
506.05	451.73
506.41	459.63
506.78	467.80
507.14	476.30
507.50	485.04
507.86	494.02
508.22	503.23
508.59	512.51
508.95	522.04
509.31	531.87
509.67	542.11
510.03	552.39
510.39	562.88
510.75	573.61
511.12	584.54
511.48	595.81
511.84	607.27
512.20	618.87
512.56	630.76
512.92	642.97
513.28	655.33
513.64	667.82
514.00	680.55
514.37	693.49
514.73	706.55
515.09	719.59
515.45	732.92
515.81	746.49
516.17	760.46
516.53	774.63
516.89	788.78
517.25	802.89
517.61	817.35
517.97	831.79
518.33	846.24
518.69	861.07
519.05	876.06
519.41	891.26
519.77	906.84
520.13	922.32
520.49	937.71
520.85	953.16
521.21	968.83
521.57	985.05
521.93	1000.80
522.29	1017.29
522.65	1033.48
523.01	1049.76
523.37	1065.80
523.73	1082.01
524.09	1097.95
524.45	1114.23
524.81	1130.84
525.17	1147.62
525.53	1164.63
525.89	1181.57
526.25	1198.33
526.61	1214.68
526.97	1231.40
527.33	1247.78
527.68	1264.33
528.04	1280.70
528.40	1297.27
528.76	1314.41
529.12	1330.99
529.48	1347.87
529.84	1363.78
530.20	1380.40
530.56	1397.41
530.91	1414.80
531.27	1431.45
531.63	1448.04
531.99	1464.66
532.35	1480.60
532.71	1496.42
533.07	1512.54
533.42	1528.33
533.78	1544.33
534.14	1560.66
534.50	1576.03
534.86	1591.87
535.21	1607.07
535.57	1623.15
535.93	1638.60
536.29	1653.44
536.65	1668.58
537.00	1683.29
537.36	1698.62
537.72	1713.17
538.08	1727.44
538.44	1741.26
538.79	1755.08
539.15	1768.75
539.51	1782.39
539.87	1796.78
540.22	1810.67
540.58	1824.48
540.94	1837.88
541.29	1850.74
541.65	1863.33
542.01	1876.44
542.37	1888.88
542.72	1901.35
543.08	1913.00
543.44	1925.37
543.79	1936.62
544.15	1947.52
544.51	1959.13
544.87	1970.19
545.22	1980.92
545.58	1991.07
545.94	2000.76
546.29	2010.67
546.65	2020.59
547.01	2029.87
547.36	2038.46
547.72	2046.83
548.07	2054.52
548.43	2062.67
548.79	2070.78
549.14	2078.41
549.50	2085.82
549.86	2093.46
550.21	2100.80
550.57	2108.09
550.92	2114.66
551.28	2121.59
551.64	2128.74
551.99	2135.24
552.35	2141.24
552.70	2147.51
553.06	2153.52
553.41	2160.09
553.77	2166.08
554.13	2172.24
554.48	2178.45
554.84	2183.97
555.19	2189.21
555.55	2194.47
555.90	2199.03
556.26	2203.87
556.61	2208.60
556.97	2212.85
557.32	2216.94
557.68	2221.11
558.03	2225.42
558.39	2229.14
558.74	2233.86
559.10	2237.65
559.45	2241.32
559.81	2245.74
560.16	2249.51
560.52	2252.75
560.87	2255.98
561.23	2258.71
561.58	2261.52
561.94	2264.01
562.29	2266.42
562.64	2269.10
563.00	2271.77
563.35	2275.26
563.71	2278.43
564.06	2281.66
564.42	2284.46
564.77	2286.95
565.12	2289.19
565.48	2290.99
565.83	2292.87
566.19	2294.01
566.54	2294.79
566.89	2295.87
567.25	2296.26
567.60	2297.66
567.96	2299.43
568.31	2300.34
568.66	2301.35
569.02	2301.88
569.37	2302.00
569.72	2302.83
570.08	2303.04
570.43	2303.07
570.78	2302.36
571.14	2300.78
571.49	2299.42
571.84	2299.24
572.20	2298.10
572.55	2296.94
572.90	2295.31
573.26	2293.91
573.61	2292.36
573.96	2290.69
574.31	2287.79
574.67	2284.83
575.02	2281.06
575.37	2277.70
575.72	2273.78
576.08	2270.48
576.43	2267.31
576.78	2263.76
577.13	2260.46
577.49	2257.28
577.84	2253.60
578.19	2249.96
578.54	2246.25
578.90	2242.01
579.25	2236.28
579.60	2231.30
579.95	2226.36
580.30	2221.38
580.66	2216.22
581.01	2211.31
581.36	2206.42
581.71	2202.13
582.06	2197.72
582.42	2193.26
582.77	2187.92
583.12	2183.38
583.47	2178.64
583.82	2173.50
584.17	2168.30
584.53	2162.93
584.88	2157.23
585.23	2151.67
585.58	2146.15
585.93	2140.77
586.28	2135.93
586.63	2130.94
586.98	2125.84
587.34	2121.01
587.69	2116.19
588.04	2110.81
588.39	2105.04
588.74	2098.51
589.09	2092.42
589.44	2085.54
589.79	2079.64
590.14	2074.10
590.49	2067.55
590.84	2061.16
591.19	2055.12
591.54	2048.70
591.89	2041.24
592.25	2034.39
592.60	2026.96
592.95	2019.46
593.30	2011.98
593.65	2004.49
594.00	1997.41
594.35	1990.26
594.70	1982.34
595.05	1974.96
595.40	1967.75
595.75	1960.30
596.10	1954.08
596.45	1947.50
596.80	1941.45
597.15	1934.70
597.50	1927.46
597.85	1921.25
598.19	1914.57
598.54	1907.31
598.89	1900.53
599.24	1894.85
599.59	1888.19
599.94	1882.04
600.29	1875.62
600.64	1869.06
600.99	1861.43
601.34	1854.64
601.69	1847.64
602.04	1840.66
602.39	1833.33
602.74	1826.50
603.08	1819.64
603.43	1812.94
603.78	1805.36
604.13	1798.04
604.48	1790.72
604.83	1784.03
605.18	1776.79
605.53	1768.91
605.87	1761.07
606.22	1753.91
606.57	1745.82
606.92	1738.55
607.27	1731.30
607.62	1724.37
607.96	1717.14
608.31	1710.63
608.66	1702.94
609.01	1695.29
609.36	1687.70
609.70	1679.76
610.05	1671.71
610.40	1664.08
610.75	1655.67
611.10	1648.28
611.44	1639.85
611.79	1631.96
612.14	1623.13
612.49	1613.92
612.83	1605.39
613.18	1597.32
613.53	1589.16
613.88	1580.49
614.22	1572.28
614.57	1563.86
614.92	1555.71
615.27	1548.13
615.61	1539.83
615.96	1531.86
616.31	1524.30
616.65	1516.97
617.00	1509.39
617.35	1501.71
617.70	1493.28
618.04	1484.86
618.39	1476.47
618.74	1468.93
619.08	1460.50
619.43	1453.04
619.78	1446.19
620.12	1439.06
620.47	1431.53
620.82	1423.52
621.16	1416.25
621.51	1408.70
621.85	1400.99
622.20	1392.59
622.55	1384.24
622.89	1376.33
623.24	1368.63
623.59	1361.09
623.93	1353.57
624.28	1346.40
624.62	1338.87
624.97	1331.78
625.32	1325.02
625.66	1318.02
626.01	1310.81
626.35	1303.34
626.70	1295.44
627.04	1287.68
627.39	1279.87
627.73	1272.44
628.08	1265.47
628.43	1258.13
628.77	1250.61
629.12	1243.09
629.46	1235.96
629.81	1228.56
630.15	1221.27
630.50	1213.86
630.84	1205.79
631.19	1198.00
631.53	1190.50
631.88	1183.01
632.22	1175.28
632.57	1167.90
632.91	1160.34
633.26	1152.91
633.60	1145.63
633.95	1138.63
634.29	1131.66
634.64	1125.06
634.98	1117.70
635.32	1110.57
635.67	1103.92
636.01	1097.38
636.36	1090.56
636.70	1083.91
637.05	1077.37
637.39	1070.96
637.73	1064.47
638.08	1058.55
638.42	1052.44
638.77	1045.94
639.11	1039.22
639.45	1032.90
639.80	1026.28
640.14	1019.81
640.49	1013.26
640.83	1006.91
641.17	1000.70
641.52	994.22
641.86	987.73
642.20	981.82
642.55	975.55
642.89	969.15
643.23	962.56
643.58	956.81
643.92	950.57
644.26	944.46
644.61	938.46
644.95	932.46
645.29	925.90
645.64	919.16
645.98	912.85
646.32	907.13
646.66	901.15
647.01	895.33
647.35	889.65
647.69	883.79
648.04	878.19
648.38	872.34
648.72	866.40
649.06	860.35
649.41	854.52
649.75	848.45
650.09	842.45
650.43	836.66
650.78	830.42
651.12	824.51
651.46	818.82
651.80	813.03
652.14	807.59
652.49	802.21
652.83	796.97
653.17	791.22
653.51	785.43
653.85	779.97
654.20	774.23
654.54	768.22
654.88	762.48
655.22	756.65
655.56	750.99
655.90	745.57
656.25	740.30
656.59	734.88
656.93	729.80
657.27	724.59
657.61	719.07
657.95	714.00
658.29	708.91
658.64	703.63
658.98	698.37
659.32	692.88
659.66	687.68
660.00	682.41
660.34	677.43
660.68	672.48
661.02	667.50
661.36	662.83
661.70	658.34
662.05	654.03
662.39	649.72
662.73	645.28
663.07	640.84
663.41	636.36
663.75	631.88
664.09	627.29
664.43	622.98
664.77	618.97
665.11	614.76
665.45	610.69
665.79	606.60
666.13	602.43
666.47	598.40
666.81	594.24
667.15	590.16
667.49	586.26
667.83	582.52
668.17	578.55
668.51	574.51
668.85	570.48
669.19	566.69
669.53	562.79
669.87	558.86
670.21	555.27
670.55	551.65
670.89	548.18
671.23	544.78
671.57	541.27
671.91	537.65
672.25	534.14
672.58	530.55
672.92	527.15
673.26	523.98
673.60	520.83
673.94	517.70
674.28	514.76
674.62	511.76
674.96	508.63
675.30	505.74
675.64	502.78
675.97	500.01
676.31	497.09
676.65	494.26
676.99	491.56
677.33	488.64
677.67	485.82
678.01	482.83
678.34	479.84
678.68	476.93
679.02	474.15
679.36	471.36
679.70	468.70
680.04	465.96
680.37	463.07
680.71	460.28
681.05	457.65
681.39	454.97
681.73	452.44
682.06	449.91
682.40	447.38
682.74	444.91
683.08	442.35
683.42	439.75
683.75	437.24
684.09	434.73
684.43	432.22
684.77	429.79
685.10	427.44
685.44	425.19
685.78	422.92
686.12	420.72
686.45	418.42
686.79	416.13
687.13	413.95
687.46	411.81
687.80	409.65
688.14	407.48
688.48	405.40
688.81	403.09
689.15	400.93
689.49	398.75
689.82	396.63
690.16	394.55
690.50	392.57
690.83	390.58
691.17	388.61
691.51	386.67
691.84	384.80
692.18	382.78
692.52	380.75
692.85	378.83
693.19	376.89
693.52	375.08
693.86	373.26
694.20	371.50
694.53	369.69
694.87	367.84
695.21	366.02
695.54	364.23
695.88	362.51
696.21	360.83
696.55	359.17
696.88	357.48
697.22	355.85
697.56	354.25
697.89	352.59
698.23	350.96
698.56	349.41
698.90	347.83
699.23	346.24
699.57	344.70
699.90	343.15
700.24	341.64
700.58	340.11
700.91	338.62
701.25	337.11
701.58	335.76
701.92	334.40
702.25	333.03
702.59	331.60
702.92	330.27
703.26	328.96
703.59	327.66
703.93	326.49
704.26	325.24
704.60	323.91
704.93	322.68
705.26	321.45
705.60	320.27
705.93	319.12
706.27	318.10
706.60	317.06
706.94	316.01
707.27	314.84
707.61	313.80
707.94	312.79
708.27	311.73
708.61	310.64
708.94	309.64
709.28	308.67
709.61	307.75
709.94	306.81
710.28	305.76
710.61	304.81
710.95	303.71
711.28	302.83
711.61	301.92
711.95	301.03
712.28	300.07
712.61	299.07
712.95	298.15
713.28	297.27
713.61	296.34
713.95	295.43
714.28	294.61
714.61	293.71
714.95	292.84
715.28	292.02
715.61	291.13
715.95	290.28
716.28	289.43
716.61	288.62
716.95	287.81
717.28	287.08
717.61	286.29
717.94	285.55
718.28	284.76
718.61	284.02
718.94	283.30
719.27	282.67
719.61	282.06
719.94	281.42
720.27	280.70
720.60	280.06
720.94	279.46
721.27	278.85
721.60	278.29
721.93	277.71
722.27	277.15
722.60	276.61
722.93	276.05
723.26	275.51
723.59	274.93
723.93	274.37
724.26	273.82
724.59	273.29
724.92	272.79
725.25	272.26
725.59	271.72
725.92	271.20
726.25	270.67
726.58	270.15
726.91	269.61
727.24	269.15
727.57	268.68
727.91	268.16
728.24	267.71
728.57	267.21
728.90	266.75
729.23	266.25
729.56	265.85
729.89	265.37
730.22	264.89
730.55	264.39
730.89	263.97
731.22	263.53
731.55	263.08
731.88	262.64
732.21	262.19
732.54	261.77
732.87	261.32
733.20	260.88
733.53	260.51
733.86	260.13
734.19	259.73
734.52	259.34
734.85	259.03
735.18	258.60
735.51	258.26
735.84	257.86
736.17	257.50
736.50	257.08
736.83	256.84
737.16	256.50
737.49	256.20
737.82	255.81
738.15	255.45
738.48	255.15
738.81	254.84
739.14	254.52
739.47	254.24
739.80	253.98
740.13	253.69
740.46	253.32
740.79	252.98
741.12	252.69
741.45	252.34
741.78	251.95
742.11	251.70
742.44	251.35
742.77	251.09
743.10	250.78
743.43	250.47
743.75	250.12
744.08	249.96
744.41	249.69
744.74	249.41
745.07	249.15
745.40	248.89
745.73	248.64
746.06	248.35
746.39	248.06
746.71	247.78
747.04	247.52
747.37	247.31
747.70	247.07
748.03	246.81
748.36	246.64
748.68	246.44
749.01	246.18
749.34	245.98
749.67	245.75
750.00	245.53
750.33	245.40
750.65	245.17
750.98	244.83
751.31	244.63
751.64	244.46
751.97	244.30
752.29	244.07
752.62	243.80
752.95	243.64
753.28	243.44
753.60	243.24
753.93	243.09
754.26	242.89
754.59	242.71
754.91	242.52
755.24	242.29
755.57	242.10
755.90	241.96
756.22	241.75
756.55	241.52
756.88	241.31
757.20	241.06
757.53	240.87
757.86	240.72
758.19	240.55
758.51	240.38
758.84	240.16
759.17	239.97
759.49	239.82
759.82	239.70
760.15	239.56
760.47	239.39
760.80	239.20
761.13	239.06
761.45	238.86
761.78	238.71
762.11	238.57
762.43	238.41
762.76	238.22
763.08	238.10
763.41	238.01
763.74	237.91
764.06	237.78
764.39	237.64
764.71	237.51
765.04	237.37
765.37	237.21
765.69	237.10
766.02	236.99
766.34	236.89
766.67	236.71
767.00	236.57
767.32	236.51
767.65	236.48
767.97	236.39
768.30	236.31
768.62	236.19
768.95	236.07
769.27	235.95
769.60	235.86
769.92	235.73
770.25	235.57
770.57	235.45
770.90	235.36
771.22	235.25
771.55	235.14
771.87	235.04
772.20	234.95
772.52	234.93
772.85	234.93
773.17	234.82
773.50	234.74
773.82	234.65
774.15	234.48
774.47	234.28
774.80	234.16
775.12	234.08
775.45	233.99
775.77	233.90
776.09	233.84
776.42	233.75
776.74	233.68
777.07	233.62
777.39	233.54
777.72	233.42
778.04	233.36
778.36	233.26
778.69	233.17
779.01	233.10
779.33	232.92
779.66	232.75
779.98	232.67
780.31	232.60
780.63	232.55
780.95	232.53
781.28	232.49
781.60	232.41
781.92	232.33
782.25	232.29
782.57	232.24
782.89	232.16
783.22	232.12
783.54	232.02
783.86	231.97
784.19	231.90
784.51	231.89
784.83	231.83
785.16	231.77
785.48	231.73
785.80	231.71
786.12	231.69
786.45	231.63
786.77	231.62
787.09	231.59
787.42	231.50
787.74	231.47
788.06	231.44
788.38	231.36
788.71	231.28
789.03	231.23
789.35	231.19
789.67	231.12
789.99	231.05
790.32	231.00
790.64	230.97
790.96	231.02
791.28	230.95
791.61	230.91
791.93	230.89
792.25	230.86
792.57	230.85
792.89	230.76
793.21	230.73
793.54	230.65
793.86	230.60
794.18	230.57
794.50	230.49
794.82	230.42
795.14	230.44
795.47	230.41
795.79	230.38
796.11	230.31
796.43	230.27
796.75	230.25
797.07	230.22
797.39	230.19
797.71	230.07
798.04	230.05
798.36	230.01
798.68	229.97
799.00	229.94
799.32	229.90
799.64	229.91
799.96	229.89
800.28	229.88
800.60	229.87
800.92	229.85
801.24	229.81
801.56	229.83
801.89	229.79
802.21	229.76
802.53	229.72
802.85	229.71
803.17	229.76
803.49	229.70
803.81	229.67
804.13	229.62
804.45	229.60
804.77	229.57
805.09	229.54
805.41	229.49
805.73	229.45
806.05	229.38
806.37	229.33
806.69	229.26
807.01	229.22
807.33	229.18
807.65	229.12
807.97	229.16
808.28	229.08
808.60	229.04
808.92	229.02
809.24	229.05
809.56	228.99
809.88	228.89
810.20	228.88
810.52	228.91
810.84	228.91
811.16	228.86
811.48	228.83
811.80	228.85
812.12	228.85
812.43	228.84
812.75	228.81
813.07	228.79
813.39	228.83
813.71	228.82
814.03	228.78
814.35	228.79
814.67	228.72
814.98	228.69
815.30	228.69
815.62	228.68
815.94	228.62
816.26	228.64
816.58	228.64
816.89	228.65
817.21	228.61
817.53	228.59
817.85	228.62
818.17	228.59
818.48	228.59
818.80	228.58
819.12	228.54
819.44	228.54
819.76	228.54
820.07	228.51
820.39	228.45
820.71	228.46
821.03	228.44
821.34	228.46
821.66	228.46
821.98	228.43
822.30	228.42
822.61	228.48
822.93	228.44
823.25	228.41
823.57	228.40
823.88	228.39
824.20	228.38
824.52	228.35
824.83	228.36
825.15	228.32
825.47	228.27
825.79	228.30
826.10	228.25
826.42	228.24
826.74	228.23
827.05	228.24
827.37	228.24
827.69	228.20
828.00	228.17
828.32	228.18
828.64	228.18
828.95	228.25
829.27	228.22
829.58	228.20
829.90	228.23
830.22	228.23
830.53	228.20
830.85	228.19
831.17	228.15
831.48	228.12
831.80	228.10
832.11	228.09
832.43	228.07
832.75	228.12
833.06	228.15
833.38	228.15
833.69	228.14
834.01	228.12
834.32	228.12
834.64	228.10
834.96	228.09
835.27	228.08
835.59	228.01
835.90	227.97
836.22	227.97
836.53	227.92
836.85	227.87
837.16	227.98
837.48	227.99
837.79	228.04
838.11	228.06
838.42	228.06
838.74	228.10
839.05	228.06
839.37	228.01
839.68	227.96
840.00	227.94
840.31	227.98
840.63	228.00
840.94	228.00
841.26	228.00
841.57	228.00
841.88	228.00
842.20	227.97
842.51	227.93
842.83	227.91
843.14	228.03
843.46	228.03
843.77	227.92
844.08	227.85
844.40	227.82
844.71	227.78
845.03	227.78
845.34	227.73
845.65	227.74
845.97	227.73
846.28	227.74
846.60	227.74
846.91	227.70
847.22	227.65
847.54	227.64
847.85	227.63
848.16	227.60
848.48	227.57
848.79	227.61
849.10	227.65
849.42	227.65
849.73	227.54
850.04	227.55
850.36	227.55
850.67	227.61
850.98	227.61
851.30	227.63
851.61	227.63
851.92	227.65
852.23	227.63
852.55	227.62
852.86	227.60
853.17	227.59
853.49	227.60
853.80	227.60
854.11	227.64
854.42	227.63
854.74	227.61
855.05	227.61
855.36	227.53
855.67	227.51
855.99	227.52
856.30	227.61
856.61	227.60
856.92	227.59
857.23	227.56
857.55	227.54
857.86	227.50
858.17	227.50
858.48	227.48
858.79	227.49
859.11	227.51
859.42	227.48
859.73	227.46
860.04	227.46
860.35	227.47
860.66	227.40
860.98	227.42
861.29	227.47
861.60	227.46
861.91	227.48
862.22	227.41
862.53	227.40
862.84	227.32
863.16	227.32
863.47	227.29
863.78	227.29
864.09	227.28
864.40	227.26
864.71	227.24
865.02	227.24
865.33	227.25
865.64	227.21
865.95	227.25
866.27	227.31
866.58	227.30
866.89	227.31
867.20	227.30
867.51	227.25
867.82	227.21
868.13	227.22
868.44	227.20
868.75	227.32
869.06	227.32
869.37	227.32
869.68	227.30
869.99	227.32
870.30	227.32
870.61	227.35
870.92	227.35
871.23	227.36
871.54	227.36
871.85	227.39
872.16	227.43
872.47	227.44
872.78	227.39
873.09	227.38
873.40	227.34
873.71	227.38
874.02	227.41
874.33	227.42
874.64	227.43
874.95	227.46
875.26	227.41
875.56	227.40
875.87	227.41
876.18	227.42
876.49	227.52
876.80	227.51
877.11	227.49
877.42	227.49
877.73	227.49
878.04	227.50
878.35	227.49
878.66	227.50
878.96	227.48
879.27	227.47
879.58	227.47
879.89	227.50
880.20	227.52
880.51	227.55
880.82	227.57
881.12	227.57
881.43	227.54
881.74	227.52
882.05	227.55
882.36	227.53
882.67	227.54
882.97	227.43
883.28	227.42
883.59	227.39
883.90	227.40
884.21	227.39
884.51	227.36
884.82	227.32
885.13	227.32
885.44	227.28
885.74	227.28
886.05	227.26
886.36	227.24
886.67	227.21
886.98	227.20
887.28	227.21
887.59	227.20
887.90	227.20
888.20	227.20
888.51	227.18
888.82	227.19
889.13	227.17
889.43	227.21
889.74	227.20
890.05	227.18
890.35	227.17
890.66	227.15
890.97	227.12
891.28	227.12
891.58	227.10
891.89	227.13
892.20	227.10
892.50	227.07
892.81	227.05
893.12	227.06
893.42	227.04
893.73	227.01
894.04	227.00
894.34	226.99
894.65	227.00
894.95	226.97
895.26	226.91
895.57	226.96
895.87	226.88
896.18	226.87
896.48	226.89
896.79	226.87
897.10	226.90
897.40	226.94
897.71	226.94
898.01	226.93
898.32	226.91
898.63	226.91
898.93	226.93
899.24	226.92
899.54	226.90
899.85	226.88
900.15	226.86
900.46	226.87
900.76	226.86
901.07	226.81
901.38	226.80
901.68	226.83
901.99	226.77
902.29	226.78
902.60	226.78
902.90	226.77
903.21	226.78
903.51	226.75
903.82	226.78
904.12	226.77
904.43	226.75
904.73	226.74
905.03	226.72
905.34	226.83
905.64	226.82
905.95	226.83
906.25	226.79
906.56	226.80
906.86	226.77
907.17	226.76
907.47	226.83
907.77	226.84
908.08	226.85
908.38	226.86
908.69	226.89
908.99	226.87
909.30	226.87
909.60	226.88
909.90	226.92
910.21	226.87
910.51	226.85
910.81	226.88
911.12	226.90
911.42	226.90
911.73	226.78
912.03	226.81
912.33	226.83
912.64	226.88
912.94	226.88
913.24	226.91
913.55	226.91
913.85	226.90
914.15	226.91
914.46	226.91
914.76	226.90
915.06	226.89
915.37	226.91
915.67	226.91
915.97	226.91
916.27	226.91
916.58	226.92
916.88	226.97
917.18	226.95
917.49	227.00
917.79	227.03
918.09	227.06
918.39	227.08
918.70	227.07
919.00	227.05
919.30	227.11
919.60	227.09
919.91	227.09
920.21	227.09
920.51	227.09
920.81	227.08
921.12	227.08
921.42	227.07
921.72	227.07
922.02	227.07
922.32	227.07
922.63	227.04
922.93	227.07
923.23	227.05
923.53	227.03
923.83	226.99
924.13	227.00
924.44	226.97
924.74	226.98
925.04	226.94
925.34	226.94
925.64	226.86
925.94	226.83
926.24	226.88
926.55	226.86
926.85	226.89
927.15	226.90
927.45	226.93
927.75	226.96
928.05	226.92
928.35	226.91
928.65	226.93
928.95	226.93
929.26	226.90
929.56	226.91
929.86	226.94
930.16	226.91
930.46	226.92
930.76	226.93
931.06	226.86
931.36	226.88
931.66	226.88
931.96	226.92
932.26	226.95
932.56	226.91
932.86	226.89
933.16	226.86
933.46	226.85
933.76	226.82
934.06	226.83
934.36	226.87
934.66	226.88
934.96	226.87
935.26	226.87
935.56	226.90
935.86	226.86
936.16	226.84
936.46	226.84
936.76	226.82
937.06	226.82
937.36	226.84
937.66	226.83
937.96	226.84
938.26	226.77
938.56	226.76
938.86	226.76
939.16	226.82
939.46	226.84
939.76	226.84
940.06	226.84
940.35	226.82
940.65	226.79
940.95	226.78
941.25	226.75
941.55	226.75
941.85	226.70
942.15	226.74
942.45	226.76
942.75	226.75
943.04	226.79
943.34	226.78
943.64	226.77
943.94	226.78
944.24	226.78
944.54	226.83
944.84	226.81
945.13	226.81
945.43	226.78
945.73	226.79
946.03	226.77
946.33	226.76
946.62	226.74
946.92	226.75
947.22	226.80
947.52	226.83
947.82	226.84
948.11	226.87
948.41	226.86
948.71	226.86
949.01	226.85
949.31	226.84
949.60	226.86
949.90	226.90
950.20	226.92
950.50	226.92
950.79	226.90
951.09	226.94
951.39	226.96
951.69	226.93
951.98	226.93
952.28	226.97
952.58	226.99
952.87	226.99
953.17	227.03
953.47	226.99
953.76	226.99
954.06	226.98
954.36	226.97
954.66	226.98
954.95	227.02
955.25	227.06
955.55	227.06
955.84	227.04
956.14	227.06
956.44	227.03
956.73	226.99
957.03	227.03
957.32	227.01
957.62	226.98
957.92	227.02
958.21	227.03
958.51	227.09
958.81	227.12
959.10	227.14
959.40	227.12
959.69	227.11
959.99	227.12
960.29	227.13
960.58	227.11
960.88	227.16
961.17	227.10
961.47	227.09
961.76	227.04
962.06	227.04
962.36	226.98
962.65	227.04
962.95	227.08
963.24	227.05
963.54	227.02
963.83	227.05
964.13	227.03
964.42	227.00
964.72	226.93
965.01	226.91
965.31	226.88
965.60	226.85
965.90	226.95
966.19	226.91
966.49	226.89
966.78	226.88
967.08	226.84
967.37	226.85
967.67	226.81
967.96	226.85
968.26	226.82
968.55	226.83
968.85	226.76
969.14	226.74
969.43	226.71
969.73	226.73
970.02	226.70
970.32	226.66
970.61	226.63
970.91	226.58
971.20	226.56
971.49	226.56
971.79	226.58
972.08	226.51
972.38	226.54
972.67	226.50
972.96	226.51
973.26	226.49
973.55	226.48
973.85	226.48
974.14	226.45
974.43	226.49
974.73	226.46
975.02	226.49
975.31	226.46
975.61	226.46
975.90	226.41
976.19	226.38
976.49	226.46
976.78	226.48
977.07	226.48
977.37	226.49
977.66	226.50
977.95	226.46
978.24	226.46
978.54	226.46
978.83	226.49
979.12	226.50
979.42	226.51
979.71	226.54
980.00	226.54
980.29	226.56
980.59	226.53
980.88	226.58
981.17	226.55
981.46	226.59
981.76	226.62
982.05	226.69
982.34	226.71
982.63	226.69
982.93	226.70
983.22	226.75
983.51	226.74
983.80	226.76
984.09	226.80
984.39	226.78
984.68	226.83
984.97	226.84
985.26	226.83
985.55	226.85
985.85	226.86
986.14	226.86
986.43	226.86
986.72	226.86
987.01	226.85
987.30	226.87
987.59	226.87
987.89	226.88
988.18	226.89
988.47	226.90
988.76	226.89
989.05	226.88
989.34	226.89
989.63	226.91
989.92	226.88
990.22	226.87
990.51	226.93
990.80	226.87
991.09	226.88
991.38	226.94
991.67	226.92
991.96	226.90
992.25	226.95
992.54	226.95
992.83	226.96
993.12	226.97
993.41	226.94
993.70	226.99
993.99	226.98
994.28	226.99
994.58	227.02
994.87	226.99
995.16	226.96
995.45	226.93
995.74	226.91
996.03	226.95
996.32	226.95
996.61	226.95
996.90	226.97
997.19	226.95
997.48	226.87
997.77	226.85
998.06	226.84
998.34	226.81
998.63	226.80
998.92	226.79
999.21	226.80
999.50	226.85
999.79	226.79
1000.08	226.76
1000.37	226.74
1000.66	226.73
1000.95	226.75
1001.24	226.79
1001.53	226.81
1001.82	226.81
1002.11	226.77
1002.40	226.78
1002.68	226.75
1002.97	226.79
1003.26	226.78
1003.55	226.76
1003.84	226.77
1004.13	226.81
1004.42	226.80
1004.71	226.79
1004.99	226.79
1005.28	226.77
1005.57	226.75
1005.86	226.72
1006.15	226.75
1006.44	226.73
1006.72	226.70
1007.01	226.68
1007.30	226.64
1007.59	226.61
1007.88	226.58
1008.17	226.57
1008.45	226.56
1008.74	226.56
1009.03	226.52
1009.32	226.51
1009.60	226.53
1009.89	226.55
1010.18	226.47
1010.47	226.48
1010.76	226.49
1011.04	226.46
1011.33	226.45
1011.62	226.45
1011.91	226.45
1012.19	226.41
1012.48	226.41
1012.77	226.41
1013.05	226.47
1013.34	226.51
1013.63	226.47
1013.92	226.51
1014.20	226.51
1014.49	226.51
1014.78	226.48
1015.06	226.46
1015.35	226.46
1015.64	226.48
1015.92	226.50
1016.21	226.52
1016.50	226.52
1016.78	226.50
1017.07	226.53
1017.36	226.53
1017.64	226.50
1017.93	226.50
1018.22	226.53
1018.50	226.54
1018.79	226.54
1019.08	226.50
1019.36	226.53
1019.65	226.54
1019.93	226.56
1020.22	226.56
1020.51	226.61
1020.79	226.63
1021.08	226.42
1021.36	226.49
1021.65	226.53
1021.94	226.68
1022.22	227.43
1022.51	226.31
1022.79	227.16
1023.08	226.48
1023.36	227.92
1023.65	226.47
>>>>>End Processed Spectral Data<<<<<
