SpectraSuite Data File
++++++++++++++++++++++++++++++++++++
Date: Fri Feb 01 17:55:43 EST 2013
User: group
Dark Spectrum Present: No
Reference Spectrum Present: No
Number of Sampled Component Spectra: 1
Spectrometers: USB2E7196
Integration Time (usec): 35000 (USB2E7196)
Spectra Averaged: 100 (USB2E7196)
Boxcar Smoothing: 10 (USB2E7196)
Correct for Electrical Dark: No (USB2E7196)
Strobe/Lamp Enabled: No (USB2E7196)
Correct for Detector Non-linearity: No (USB2E7196)
Correct for Stray Light: No (USB2E7196)
Number of Pixels in Processed Spectrum: 2048
>>>>>Begin Processed Spectral Data<<<<<
339.09	0.00
339.48	212.73
339.86	213.62
340.24	215.79
340.63	217.05
341.01	219.14
341.39	219.54
341.78	220.95
342.16	221.72
342.54	222.80
342.93	211.08
343.31	221.75
343.69	222.27
344.07	222.76
344.46	223.16
344.84	223.54
345.22	223.81
345.60	224.08
345.99	224.27
346.37	224.45
346.75	224.54
347.13	224.61
347.52	224.67
347.90	224.74
348.28	224.78
348.66	224.85
349.05	224.83
349.43	224.91
349.81	224.95
350.19	224.99
350.57	225.02
350.96	225.07
351.34	225.17
351.72	225.25
352.10	225.34
352.48	225.43
352.87	225.49
353.25	225.56
353.63	225.61
354.01	225.65
354.39	225.73
354.77	225.81
355.15	225.93
355.54	225.97
355.92	226.01
356.30	226.08
356.68	226.22
357.06	226.31
357.44	226.36
357.82	226.42
358.20	226.49
358.58	226.59
358.97	226.64
359.35	226.71
359.73	226.81
360.11	226.86
360.49	226.88
360.87	226.91
361.25	226.94
361.63	227.02
362.01	227.07
362.39	227.08
362.77	227.11
363.15	227.10
363.53	227.15
363.91	227.21
364.29	227.23
364.67	227.14
365.05	227.17
365.43	227.18
365.81	227.18
366.19	227.23
366.57	227.29
366.95	227.31
367.33	227.29
367.71	227.28
368.09	227.32
368.47	227.36
368.85	227.37
369.23	227.37
369.61	227.33
369.99	227.33
370.37	227.30
370.75	227.33
371.13	227.30
371.51	227.27
371.89	227.21
372.27	227.18
372.65	227.18
373.03	227.12
373.41	227.05
373.78	227.02
374.16	226.94
374.54	226.82
374.92	226.75
375.30	226.73
375.68	226.65
376.06	226.59
376.44	226.49
376.82	226.42
377.19	226.36
377.57	226.30
377.95	226.22
378.33	226.17
378.71	226.02
379.09	225.99
379.47	225.92
379.84	225.87
380.22	225.80
380.60	225.69
380.98	225.61
381.36	225.57
381.73	225.50
382.11	225.44
382.49	225.38
382.87	225.31
383.25	225.20
383.62	225.27
384.00	225.16
384.38	225.15
384.76	225.13
385.13	225.13
385.51	225.06
385.89	225.00
386.27	224.99
386.64	224.97
387.02	224.91
387.40	224.84
387.78	224.78
388.15	224.74
388.53	224.70
388.91	224.69
389.29	224.64
389.66	224.62
390.04	224.57
390.42	224.61
390.79	224.60
391.17	224.61
391.55	224.49
391.92	224.46
392.30	224.44
392.68	224.37
393.05	224.34
393.43	224.31
393.81	224.34
394.18	224.31
394.56	224.35
394.94	224.33
395.31	224.34
395.69	224.39
396.06	224.44
396.44	224.48
396.82	224.48
397.19	224.56
397.57	224.59
397.95	224.64
398.32	224.61
398.70	224.68
399.07	224.71
399.45	224.75
399.82	224.80
400.20	224.86
400.58	224.94
400.95	224.99
401.33	225.11
401.70	225.24
402.08	225.33
402.45	225.40
402.83	225.57
403.20	225.70
403.58	225.79
403.95	225.90
404.33	226.03
404.71	226.19
405.08	226.42
405.46	226.56
405.83	226.76
406.21	226.95
406.58	227.13
406.96	227.30
407.33	227.50
407.70	227.78
408.08	228.05
408.45	228.33
408.83	228.60
409.20	228.83
409.58	229.07
409.95	229.39
410.33	229.71
410.70	230.02
411.08	230.38
411.45	230.82
411.82	231.22
412.20	231.69
412.57	232.20
412.95	232.58
413.32	233.14
413.69	233.65
414.07	234.24
414.44	234.86
414.82	235.51
415.19	236.23
415.56	236.96
415.94	237.71
416.31	238.55
416.68	239.41
417.06	240.36
417.43	241.25
417.81	242.27
418.18	243.33
418.55	244.42
418.93	245.53
419.30	246.71
419.67	247.95
420.04	249.19
420.42	250.52
420.79	252.07
421.16	253.60
421.54	255.17
421.91	256.76
422.28	258.42
422.66	260.24
423.03	261.95
423.40	263.74
423.77	265.59
424.15	267.48
424.52	269.50
424.89	271.69
425.26	273.74
425.64	275.69
426.01	277.81
426.38	280.03
426.75	282.29
427.13	284.61
427.50	287.02
427.87	289.56
428.24	292.04
428.61	294.43
428.99	297.01
429.36	299.86
429.73	302.63
430.10	305.33
430.47	308.06
430.85	310.94
431.22	313.94
431.59	317.14
431.96	320.15
432.33	323.44
432.70	326.64
433.08	330.45
433.45	334.01
433.82	337.49
434.19	341.33
434.56	345.12
434.93	348.67
435.30	352.17
435.68	356.05
436.05	359.87
436.42	363.59
436.79	366.94
437.16	370.56
437.53	374.35
437.90	378.16
438.27	381.86
438.64	385.66
439.01	389.13
439.38	392.15
439.75	395.07
440.13	398.39
440.50	401.50
440.87	403.98
441.24	406.55
441.61	409.44
441.98	411.47
442.35	413.92
442.72	416.39
443.09	418.83
443.46	420.14
443.83	420.91
444.20	421.59
444.57	422.77
444.94	423.14
445.31	423.60
445.68	423.97
446.05	424.04
446.42	423.55
446.79	422.95
447.16	422.37
447.53	421.91
447.90	420.47
448.27	418.90
448.64	416.76
449.01	415.24
449.37	412.58
449.74	410.01
450.11	406.94
450.48	403.65
450.85	400.25
451.22	397.41
451.59	394.68
451.96	392.12
452.33	388.57
452.70	385.45
453.07	381.66
453.43	377.86
453.80	374.15
454.17	370.54
454.54	367.18
454.91	363.53
455.28	359.98
455.65	356.60
456.02	353.29
456.38	350.40
456.75	346.82
457.12	343.81
457.49	340.86
457.86	338.00
458.23	335.49
458.59	332.75
458.96	329.92
459.33	327.48
459.70	324.95
460.07	322.97
460.43	320.60
460.80	318.39
461.17	316.40
461.54	314.35
461.91	312.37
462.27	310.39
462.64	308.69
463.01	306.88
463.38	305.09
463.74	303.28
464.11	301.74
464.48	300.35
464.85	298.88
465.21	297.70
465.58	296.44
465.95	294.98
466.32	293.74
466.68	292.52
467.05	291.30
467.42	290.07
467.78	288.79
468.15	287.62
468.52	286.76
468.88	285.64
469.25	284.66
469.62	283.84
469.98	282.96
470.35	282.10
470.72	281.31
471.08	280.44
471.45	279.71
471.82	278.96
472.18	278.16
472.55	277.56
472.92	276.84
473.28	276.17
473.65	275.54
474.02	274.95
474.38	274.44
474.75	273.98
475.11	273.51
475.48	273.12
475.85	272.80
476.21	272.47
476.58	272.15
476.94	271.91
477.31	271.71
477.67	271.43
478.04	271.26
478.41	271.12
478.77	271.05
479.14	270.88
479.50	270.78
479.87	270.78
480.23	270.77
480.60	270.80
480.96	270.86
481.33	271.03
481.69	271.16
482.06	271.30
482.42	271.44
482.79	271.67
483.15	272.00
483.52	272.34
483.88	272.65
484.25	273.05
484.61	273.46
484.98	273.88
485.34	274.44
485.71	275.02
486.07	275.58
486.44	276.17
486.80	276.87
487.17	277.64
487.53	278.52
487.90	279.43
488.26	280.36
488.62	281.35
488.99	282.35
489.35	283.45
489.72	284.62
490.08	285.87
490.44	287.12
490.81	288.52
491.17	289.90
491.54	291.39
491.90	292.99
492.26	294.66
492.63	296.45
492.99	298.30
493.36	300.25
493.72	302.42
494.08	304.61
494.45	306.99
494.81	309.48
495.17	312.03
495.54	314.71
495.90	317.54
496.26	320.47
496.63	323.61
496.99	326.85
497.35	330.29
497.72	333.88
498.08	337.60
498.44	341.42
498.80	345.60
499.17	349.89
499.53	354.32
499.89	358.98
500.26	363.70
500.62	368.67
500.98	373.90
501.34	379.24
501.71	384.83
502.07	390.60
502.43	396.53
502.79	402.66
503.16	409.09
503.52	415.80
503.88	422.61
504.24	429.58
504.60	436.88
504.97	444.48
505.33	452.22
505.69	460.40
506.05	468.66
506.41	477.02
506.78	485.68
507.14	494.65
507.50	503.90
507.86	513.59
508.22	523.40
508.59	533.26
508.95	543.45
509.31	553.90
509.67	564.63
510.03	575.62
510.39	586.92
510.75	598.45
511.12	610.05
511.48	622.17
511.84	634.56
512.20	646.88
512.56	659.57
512.92	672.65
513.28	685.86
513.64	699.29
514.00	712.92
514.37	726.82
514.73	740.71
515.09	754.65
515.45	768.79
515.81	783.38
516.17	798.35
516.53	813.55
516.89	828.92
517.25	844.20
517.61	859.72
517.97	875.30
518.33	890.88
518.69	906.92
519.05	923.04
519.41	939.34
519.77	956.21
520.13	973.05
520.49	989.77
520.85	1006.42
521.21	1023.45
521.57	1041.07
521.93	1058.18
522.29	1076.07
522.65	1093.85
523.01	1111.48
523.37	1128.99
523.73	1146.59
524.09	1164.28
524.45	1182.01
524.81	1200.30
525.17	1218.76
525.53	1237.27
525.89	1255.84
526.25	1274.35
526.61	1292.45
526.97	1310.82
527.33	1328.93
527.68	1347.32
528.04	1365.42
528.40	1383.77
528.76	1402.61
529.12	1420.99
529.48	1439.84
529.84	1457.66
530.20	1476.18
530.56	1495.11
530.91	1514.57
531.27	1533.35
531.63	1551.69
531.99	1570.28
532.35	1588.17
532.71	1605.93
533.07	1624.12
533.42	1641.85
533.78	1659.82
534.14	1678.09
534.50	1695.52
534.86	1713.40
535.21	1730.61
535.57	1748.69
535.93	1766.29
536.29	1783.08
536.65	1800.16
537.00	1816.90
537.36	1834.37
537.72	1851.02
538.08	1867.77
538.44	1883.44
538.79	1899.49
539.15	1915.15
539.51	1930.94
539.87	1947.34
540.22	1963.19
540.58	1979.15
540.94	1994.65
541.29	2009.64
541.65	2024.47
542.01	2039.83
542.37	2054.46
542.72	2068.90
543.08	2082.85
543.44	2097.49
543.79	2110.84
544.15	2123.97
544.51	2137.68
544.87	2150.78
545.22	2163.68
545.58	2175.85
545.94	2187.74
546.29	2199.61
546.65	2211.65
547.01	2223.08
547.36	2233.86
547.72	2244.42
548.07	2254.32
548.43	2264.50
548.79	2274.41
549.14	2283.81
549.50	2293.00
549.86	2302.46
550.21	2311.80
550.57	2320.92
550.92	2329.31
551.28	2338.33
551.64	2347.42
551.99	2355.94
552.35	2364.06
552.70	2372.12
553.06	2380.04
553.41	2388.36
553.77	2396.15
554.13	2404.06
554.48	2412.01
554.84	2419.44
555.19	2426.30
555.55	2433.17
555.90	2439.42
556.26	2446.18
556.61	2452.69
556.97	2458.82
557.32	2464.68
557.68	2470.27
558.03	2476.12
558.39	2481.37
558.74	2487.67
559.10	2493.08
559.45	2498.13
559.81	2503.96
560.16	2509.09
560.52	2513.76
560.87	2518.48
561.23	2522.54
561.58	2526.69
561.94	2530.48
562.29	2533.82
562.64	2538.00
563.00	2541.77
563.35	2546.60
563.71	2550.96
564.06	2555.32
564.42	2559.52
564.77	2563.30
565.12	2566.89
565.48	2570.05
565.83	2573.24
566.19	2575.68
566.54	2577.43
566.89	2579.57
567.25	2581.11
567.60	2583.53
567.96	2586.21
568.31	2587.90
568.66	2590.04
569.02	2591.55
569.37	2592.72
569.72	2594.73
570.08	2595.74
570.43	2596.61
570.78	2596.95
571.14	2596.08
571.49	2595.39
571.84	2595.62
572.20	2595.09
572.55	2594.64
572.90	2593.39
573.26	2592.53
573.61	2591.20
573.96	2590.03
574.31	2587.30
574.67	2584.53
575.02	2580.90
575.37	2577.74
575.72	2574.38
576.08	2571.01
576.43	2567.79
576.78	2564.27
577.13	2561.03
577.49	2557.98
577.84	2554.57
578.19	2550.60
578.54	2547.00
578.90	2542.85
579.25	2536.97
579.60	2531.83
579.95	2526.63
580.30	2521.35
580.66	2515.72
581.01	2510.60
581.36	2505.34
581.71	2501.16
582.06	2496.40
582.42	2491.90
582.77	2486.34
583.12	2481.31
583.47	2476.53
583.82	2471.35
584.17	2465.70
584.53	2459.72
584.88	2453.50
585.23	2447.25
585.58	2441.17
585.93	2435.34
586.28	2429.93
586.63	2424.29
586.98	2418.59
587.34	2413.27
587.69	2407.87
588.04	2402.17
588.39	2395.91
588.74	2388.64
589.09	2381.73
589.44	2374.20
589.79	2367.35
590.14	2361.05
590.49	2353.62
590.84	2346.43
591.19	2339.52
591.54	2332.32
591.89	2324.40
592.25	2316.94
592.60	2308.83
592.95	2300.58
593.30	2292.20
593.65	2283.95
594.00	2276.13
594.35	2268.05
594.70	2259.03
595.05	2251.10
595.40	2242.78
595.75	2234.28
596.10	2227.36
596.45	2219.69
596.80	2212.91
597.15	2205.50
597.50	2197.52
597.85	2190.15
598.19	2182.46
598.54	2174.57
598.89	2166.99
599.24	2160.11
599.59	2152.48
599.94	2145.32
600.29	2137.94
600.64	2130.25
600.99	2121.61
601.34	2113.77
601.69	2105.63
602.04	2097.88
602.39	2089.25
602.74	2081.37
603.08	2073.54
603.43	2065.62
603.78	2057.20
604.13	2048.71
604.48	2040.29
604.83	2032.22
605.18	2024.38
605.53	2015.23
605.87	2005.88
606.22	1997.34
606.57	1987.99
606.92	1979.33
607.27	1971.04
607.62	1962.95
607.96	1954.59
608.31	1946.81
608.66	1937.99
609.01	1929.44
609.36	1920.42
609.70	1911.18
610.05	1901.78
610.40	1892.80
610.75	1883.21
611.10	1874.33
611.44	1864.51
611.79	1855.12
612.14	1845.06
612.49	1834.22
612.83	1824.33
613.18	1814.80
613.53	1805.39
613.88	1795.39
614.22	1785.78
614.57	1775.69
614.92	1766.30
615.27	1757.50
615.61	1747.74
615.96	1738.36
616.31	1729.28
616.65	1720.69
617.00	1711.89
617.35	1702.94
617.70	1693.27
618.04	1683.37
618.39	1673.65
618.74	1664.85
619.08	1655.19
619.43	1646.23
619.78	1638.07
620.12	1629.74
620.47	1620.92
620.82	1611.36
621.16	1602.67
621.51	1593.65
621.85	1584.76
622.20	1574.83
622.55	1565.02
622.89	1555.93
623.24	1546.88
623.59	1537.97
623.93	1529.21
624.28	1520.68
624.62	1511.89
624.97	1503.40
625.32	1495.29
625.66	1487.11
626.01	1478.68
626.35	1470.09
626.70	1461.12
627.04	1452.15
627.39	1442.97
627.73	1434.29
628.08	1426.28
628.43	1417.88
628.77	1409.47
629.12	1400.64
629.46	1392.26
629.81	1383.38
630.15	1374.87
630.50	1366.24
630.84	1356.95
631.19	1347.56
631.53	1338.68
631.88	1329.82
632.22	1320.97
632.57	1312.46
632.91	1303.70
633.26	1294.97
633.60	1286.17
633.95	1277.69
634.29	1269.44
634.64	1261.70
634.98	1253.18
635.32	1244.71
635.67	1236.91
636.01	1229.04
636.36	1221.14
636.70	1213.47
637.05	1205.88
637.39	1198.31
637.73	1190.82
638.08	1183.87
638.42	1176.90
638.77	1169.50
639.11	1161.88
639.45	1154.33
639.80	1146.73
640.14	1139.30
640.49	1131.72
640.83	1124.37
641.17	1117.22
641.52	1109.85
641.86	1102.32
642.20	1095.49
642.55	1088.18
642.89	1080.69
643.23	1073.04
643.58	1066.27
643.92	1059.11
644.26	1052.17
644.61	1045.20
644.95	1038.27
645.29	1030.67
645.64	1022.94
645.98	1015.53
646.32	1008.66
646.66	1001.77
647.01	994.95
647.35	988.26
647.69	981.41
648.04	975.05
648.38	968.37
648.72	961.53
649.06	954.61
649.41	947.75
649.75	940.94
650.09	934.06
650.43	927.35
650.78	920.27
651.12	913.35
651.46	906.66
651.80	900.06
652.14	893.74
652.49	887.56
652.83	881.58
653.17	875.17
653.51	868.74
653.85	862.41
654.20	855.97
654.54	849.14
654.88	842.62
655.22	835.78
655.56	829.16
655.90	822.77
656.25	816.65
656.59	810.53
656.93	804.68
657.27	798.78
657.61	792.58
657.95	786.80
658.29	781.02
658.64	775.01
658.98	768.84
659.32	762.59
659.66	756.68
660.00	750.58
660.34	744.76
660.68	738.98
661.02	733.26
661.36	727.84
661.70	722.59
662.05	717.57
662.39	712.69
662.73	707.52
663.07	702.52
663.41	697.42
663.75	692.27
664.09	686.95
664.43	681.85
664.77	677.10
665.11	672.17
665.45	667.41
665.79	662.73
666.13	658.01
666.47	653.33
666.81	648.48
667.15	643.71
667.49	639.24
667.83	634.89
668.17	630.39
668.51	625.75
668.85	621.13
669.19	616.66
669.53	612.20
669.87	607.84
670.21	603.57
670.55	599.38
670.89	595.43
671.23	591.50
671.57	587.47
671.91	583.48
672.25	579.36
672.58	575.33
672.92	571.42
673.26	567.76
673.60	564.07
673.94	560.56
674.28	557.16
674.62	553.80
674.96	550.20
675.30	546.86
675.64	543.46
675.97	540.24
676.31	536.97
676.65	533.66
676.99	530.58
677.33	527.30
677.67	524.11
678.01	520.61
678.34	517.24
678.68	513.92
679.02	510.67
679.36	507.58
679.70	504.39
680.04	501.24
680.37	497.99
680.71	494.75
681.05	491.68
681.39	488.64
681.73	485.60
682.06	482.74
682.40	479.84
682.74	476.91
683.08	473.96
683.42	470.93
683.75	468.03
684.09	465.06
684.43	462.23
684.77	459.37
685.10	456.68
685.44	454.06
685.78	451.44
686.12	448.84
686.45	446.14
686.79	443.53
687.13	441.04
687.46	438.52
687.80	436.06
688.14	433.53
688.48	431.19
688.81	428.63
689.15	426.14
689.49	423.62
689.82	421.28
690.16	418.85
690.50	416.66
690.83	414.42
691.17	412.15
691.51	409.99
691.84	407.88
692.18	405.66
692.52	403.36
692.85	401.10
693.19	398.97
693.52	396.82
693.86	394.73
694.20	392.58
694.53	390.53
694.87	388.36
695.21	386.31
695.54	384.16
695.88	382.14
696.21	380.13
696.55	378.20
696.88	376.20
697.22	374.31
697.56	372.37
697.89	370.48
698.23	368.61
698.56	366.70
698.90	364.81
699.23	362.90
699.57	361.08
699.90	359.31
700.24	357.52
700.58	355.78
700.91	354.05
701.25	352.38
701.58	350.77
701.92	349.23
702.25	347.63
702.59	346.05
702.92	344.54
703.26	343.03
703.59	341.59
703.93	340.23
704.26	338.80
704.60	337.32
704.93	335.84
705.26	334.41
705.60	333.03
705.93	331.72
706.27	330.49
706.60	329.24
706.94	327.97
707.27	326.64
707.61	325.40
707.94	324.22
708.27	323.00
708.61	321.73
708.94	320.52
709.28	319.36
709.61	318.23
709.94	317.08
710.28	315.86
710.61	314.67
710.95	313.43
711.28	312.35
711.61	311.25
711.95	310.20
712.28	309.11
712.61	307.98
712.95	306.87
713.28	305.83
713.61	304.80
713.95	303.79
714.28	302.80
714.61	301.78
714.95	300.79
715.28	299.81
715.61	298.82
715.95	297.81
716.28	296.82
716.61	295.83
716.95	294.88
717.28	294.05
717.61	293.12
717.94	292.23
718.28	291.29
718.61	290.46
718.94	289.61
719.27	288.85
719.61	288.08
719.94	287.37
720.27	286.57
720.60	285.77
720.94	285.05
721.27	284.38
721.60	283.74
721.93	283.07
722.27	282.42
722.60	281.77
722.93	281.16
723.26	280.55
723.59	279.93
723.93	279.30
724.26	278.64
724.59	278.00
724.92	277.44
725.25	276.87
725.59	276.30
725.92	275.72
726.25	275.08
726.58	274.53
726.91	273.95
727.24	273.39
727.57	272.86
727.91	272.27
728.24	271.68
728.57	271.11
728.90	270.54
729.23	269.95
729.56	269.47
729.89	268.90
730.22	268.36
730.55	267.84
730.89	267.34
731.22	266.85
731.55	266.39
731.88	265.88
732.21	265.37
732.54	264.84
732.87	264.33
733.20	263.90
733.53	263.48
733.86	263.05
734.19	262.60
734.52	262.23
734.85	261.85
735.18	261.43
735.51	261.01
735.84	260.56
736.17	260.19
736.50	259.73
736.83	259.49
737.16	259.08
737.49	258.69
737.82	258.30
738.15	257.93
738.48	257.51
738.81	257.17
739.14	256.83
739.47	256.45
739.80	256.10
740.13	255.73
740.46	255.34
740.79	254.95
741.12	254.60
741.45	254.18
741.78	253.80
742.11	253.45
742.44	253.06
742.77	252.73
743.10	252.35
743.43	252.02
743.75	251.56
744.08	251.39
744.41	251.07
744.74	250.75
745.07	250.44
745.40	250.19
745.73	249.89
746.06	249.55
746.39	249.26
746.71	248.95
747.04	248.67
747.37	248.37
747.70	248.08
748.03	247.79
748.36	247.54
748.68	247.29
749.01	247.03
749.34	246.80
749.67	246.54
750.00	246.32
750.33	246.12
750.65	245.85
750.98	245.47
751.31	245.23
751.64	244.98
751.97	244.78
752.29	244.48
752.62	244.16
752.95	243.93
753.28	243.65
753.60	243.42
753.93	243.21
754.26	242.99
754.59	242.77
754.91	242.51
755.24	242.29
755.57	242.04
755.90	241.81
756.22	241.60
756.55	241.33
756.88	241.07
757.20	240.78
757.53	240.56
757.86	240.34
758.19	240.13
758.51	239.95
758.84	239.70
759.17	239.49
759.49	239.31
759.82	239.15
760.15	238.96
760.47	238.79
760.80	238.55
761.13	238.39
761.45	238.15
761.78	237.97
762.11	237.82
762.43	237.66
762.76	237.51
763.08	237.36
763.41	237.24
763.74	237.15
764.06	237.00
764.39	236.83
764.71	236.67
765.04	236.49
765.37	236.30
765.69	236.14
766.02	236.03
766.34	235.88
766.67	235.69
767.00	235.59
767.32	235.51
767.65	235.43
767.97	235.28
768.30	235.18
768.62	235.07
768.95	234.90
769.27	234.74
769.60	234.60
769.92	234.43
770.25	234.30
770.57	234.13
770.90	234.00
771.22	233.88
771.55	233.78
771.87	233.69
772.20	233.57
772.52	233.54
772.85	233.52
773.17	233.40
773.50	233.29
773.82	233.20
774.15	233.04
774.47	232.90
774.80	232.78
775.12	232.65
775.45	232.55
775.77	232.48
776.09	232.38
776.42	232.29
776.74	232.28
777.07	232.18
777.39	232.08
777.72	232.01
778.04	231.95
778.36	231.89
778.69	231.80
779.01	231.77
779.33	231.64
779.66	231.47
779.98	231.45
780.31	231.39
780.63	231.34
780.95	231.32
781.28	231.22
781.60	231.16
781.92	231.11
782.25	231.05
782.57	230.98
782.89	230.96
783.22	230.91
783.54	230.79
783.86	230.74
784.19	230.71
784.51	230.68
784.83	230.64
785.16	230.54
785.48	230.52
785.80	230.44
786.12	230.35
786.45	230.32
786.77	230.25
787.09	230.20
787.42	230.11
787.74	230.06
788.06	230.05
788.38	230.04
788.71	229.99
789.03	229.95
789.35	229.95
789.67	229.87
789.99	229.83
790.32	229.79
790.64	229.78
790.96	229.83
791.28	229.73
791.61	229.68
791.93	229.69
792.25	229.63
792.57	229.67
792.89	229.60
793.21	229.59
793.54	229.55
793.86	229.51
794.18	229.48
794.50	229.40
794.82	229.35
795.14	229.29
795.47	229.29
795.79	229.27
796.11	229.18
796.43	229.13
796.75	229.08
797.07	229.04
797.39	228.96
797.71	228.83
798.04	228.84
798.36	228.78
798.68	228.71
799.00	228.66
799.32	228.56
799.64	228.57
799.96	228.51
800.28	228.51
800.60	228.44
800.92	228.40
801.24	228.37
801.56	228.33
801.89	228.29
802.21	228.21
802.53	228.10
802.85	228.08
803.17	228.09
803.49	228.01
803.81	227.97
804.13	227.93
804.45	227.90
804.77	227.85
805.09	227.79
805.41	227.72
805.73	227.68
806.05	227.62
806.37	227.60
806.69	227.55
807.01	227.49
807.33	227.46
807.65	227.39
807.97	227.40
808.28	227.36
808.60	227.32
808.92	227.29
809.24	227.36
809.56	227.29
809.88	227.25
810.20	227.26
810.52	227.24
810.84	227.17
811.16	227.10
811.48	227.08
811.80	227.08
812.12	227.06
812.43	227.06
812.75	227.00
813.07	226.92
813.39	226.89
813.71	226.80
814.03	226.80
814.35	226.80
814.67	226.74
814.98	226.72
815.30	226.69
815.62	226.65
815.94	226.56
816.26	226.60
816.58	226.52
816.89	226.49
817.21	226.45
817.53	226.46
817.85	226.44
818.17	226.41
818.48	226.35
818.80	226.37
819.12	226.31
819.44	226.30
819.76	226.30
820.07	226.28
820.39	226.31
820.71	226.31
821.03	226.30
821.34	226.27
821.66	226.24
821.98	226.25
822.30	226.25
822.61	226.28
822.93	226.21
823.25	226.22
823.57	226.20
823.88	226.23
824.20	226.20
824.52	226.20
824.83	226.19
825.15	226.20
825.47	226.16
825.79	226.17
826.10	226.18
826.42	226.16
826.74	226.18
827.05	226.18
827.37	226.16
827.69	226.14
828.00	226.17
828.32	226.18
828.64	226.16
828.95	226.21
829.27	226.18
829.58	226.21
829.90	226.25
830.22	226.25
830.53	226.20
830.85	226.24
831.17	226.20
831.48	226.21
831.80	226.20
832.11	226.19
832.43	226.19
832.75	226.17
833.06	226.23
833.38	226.20
833.69	226.17
834.01	226.16
834.32	226.15
834.64	226.12
834.96	226.12
835.27	226.10
835.59	226.04
835.90	226.00
836.22	225.98
836.53	225.92
836.85	225.90
837.16	225.98
837.48	225.91
837.79	225.95
838.11	225.91
838.42	225.90
838.74	225.91
839.05	225.87
839.37	225.86
839.68	225.77
840.00	225.75
840.31	225.75
840.63	225.71
840.94	225.71
841.26	225.68
841.57	225.65
841.88	225.64
842.20	225.65
842.51	225.64
842.83	225.59
843.14	225.66
843.46	225.64
843.77	225.57
844.08	225.59
844.40	225.57
844.71	225.54
845.03	225.52
845.34	225.49
845.65	225.47
845.97	225.46
846.28	225.47
846.60	225.46
846.91	225.44
847.22	225.43
847.54	225.42
847.85	225.39
848.16	225.37
848.48	225.33
848.79	225.30
849.10	225.30
849.42	225.32
849.73	225.23
850.04	225.21
850.36	225.16
850.67	225.16
850.98	225.14
851.30	225.15
851.61	225.12
851.92	225.12
852.23	225.13
852.55	225.11
852.86	225.06
853.17	225.05
853.49	225.06
853.80	225.10
854.11	225.13
854.42	225.15
854.74	225.14
855.05	225.15
855.36	225.12
855.67	225.09
855.99	225.08
856.30	225.18
856.61	225.17
856.92	225.18
857.23	225.17
857.55	225.16
857.86	225.17
858.17	225.19
858.48	225.15
858.79	225.16
859.11	225.20
859.42	225.22
859.73	225.20
860.04	225.21
860.35	225.18
860.66	225.13
860.98	225.10
861.29	225.09
861.60	225.09
861.91	225.11
862.22	225.14
862.53	225.15
862.84	225.06
863.16	225.10
863.47	225.08
863.78	225.08
864.09	225.08
864.40	225.09
864.71	225.11
865.02	225.17
865.33	225.16
865.64	225.12
865.95	225.13
866.27	225.21
866.58	225.20
866.89	225.19
867.20	225.19
867.51	225.21
867.82	225.26
868.13	225.31
868.44	225.28
868.75	225.29
869.06	225.31
869.37	225.35
869.68	225.32
869.99	225.33
870.30	225.37
870.61	225.34
870.92	225.34
871.23	225.30
871.54	225.27
871.85	225.32
872.16	225.35
872.47	225.36
872.78	225.30
873.09	225.31
873.40	225.30
873.71	225.29
874.02	225.31
874.33	225.28
874.64	225.29
874.95	225.35
875.26	225.31
875.56	225.26
875.87	225.22
876.18	225.20
876.49	225.32
876.80	225.27
877.11	225.30
877.42	225.31
877.73	225.32
878.04	225.33
878.35	225.31
878.66	225.31
878.96	225.31
879.27	225.27
879.58	225.23
879.89	225.23
880.20	225.27
880.51	225.25
880.82	225.24
881.12	225.20
881.43	225.16
881.74	225.17
882.05	225.18
882.36	225.20
882.67	225.22
882.97	225.08
883.28	225.06
883.59	225.06
883.90	225.05
884.21	225.05
884.51	225.01
884.82	224.98
885.13	224.95
885.44	224.91
885.74	224.94
886.05	224.94
886.36	224.91
886.67	224.86
886.98	224.90
887.28	224.91
887.59	224.89
887.90	224.85
888.20	224.86
888.51	224.87
888.82	224.82
889.13	224.80
889.43	224.86
889.74	224.87
890.05	224.83
890.35	224.83
890.66	224.81
890.97	224.80
891.28	224.78
891.58	224.77
891.89	224.77
892.20	224.73
892.50	224.69
892.81	224.70
893.12	224.68
893.42	224.62
893.73	224.61
894.04	224.61
894.34	224.62
894.65	224.57
894.95	224.56
895.26	224.58
895.57	224.62
895.87	224.55
896.18	224.56
896.48	224.58
896.79	224.57
897.10	224.59
897.40	224.61
897.71	224.63
898.01	224.62
898.32	224.63
898.63	224.63
898.93	224.64
899.24	224.66
899.54	224.66
899.85	224.65
900.15	224.66
900.46	224.66
900.76	224.69
901.07	224.72
901.38	224.71
901.68	224.72
901.99	224.71
902.29	224.72
902.60	224.72
902.90	224.71
903.21	224.68
903.51	224.69
903.82	224.68
904.12	224.69
904.43	224.69
904.73	224.72
905.03	224.76
905.34	224.91
905.64	224.93
905.95	224.92
906.25	224.95
906.56	224.94
906.86	224.94
907.17	224.90
907.47	224.89
907.77	224.92
908.08	224.88
908.38	224.86
908.69	224.87
908.99	224.89
909.30	224.91
909.60	224.93
909.90	224.95
910.21	224.96
910.51	224.94
910.81	224.99
911.12	225.00
911.42	225.00
911.73	224.88
912.03	224.87
912.33	224.89
912.64	224.90
912.94	224.90
913.24	224.91
913.55	224.93
913.85	224.91
914.15	224.92
914.46	224.95
914.76	224.95
915.06	224.95
915.37	224.92
915.67	224.92
915.97	224.89
916.27	224.84
916.58	224.87
916.88	224.90
917.18	224.87
917.49	224.89
917.79	224.86
918.09	224.90
918.39	224.90
918.70	224.90
919.00	224.90
919.30	224.93
919.60	224.92
919.91	224.92
920.21	224.92
920.51	224.87
920.81	224.83
921.12	224.83
921.42	224.81
921.72	224.81
922.02	224.81
922.32	224.84
922.63	224.85
922.93	224.88
923.23	224.87
923.53	224.82
923.83	224.76
924.13	224.75
924.44	224.74
924.74	224.74
925.04	224.75
925.34	224.70
925.64	224.66
925.94	224.65
926.24	224.68
926.55	224.67
926.85	224.69
927.15	224.70
927.45	224.72
927.75	224.75
928.05	224.72
928.35	224.70
928.65	224.69
928.95	224.68
929.26	224.60
929.56	224.57
929.86	224.62
930.16	224.61
930.46	224.63
930.76	224.61
931.06	224.57
931.36	224.53
931.66	224.59
931.96	224.56
932.26	224.59
932.56	224.56
932.86	224.56
933.16	224.56
933.46	224.59
933.76	224.59
934.06	224.58
934.36	224.66
934.66	224.67
934.96	224.67
935.26	224.66
935.56	224.70
935.86	224.71
936.16	224.70
936.46	224.71
936.76	224.73
937.06	224.72
937.36	224.73
937.66	224.75
937.96	224.71
938.26	224.73
938.56	224.72
938.86	224.73
939.16	224.78
939.46	224.79
939.76	224.74
940.06	224.73
940.35	224.69
940.65	224.62
940.95	224.65
941.25	224.64
941.55	224.67
941.85	224.67
942.15	224.67
942.45	224.66
942.75	224.67
943.04	224.63
943.34	224.65
943.64	224.68
943.94	224.66
944.24	224.67
944.54	224.66
944.84	224.64
945.13	224.59
945.43	224.57
945.73	224.58
946.03	224.58
946.33	224.55
946.62	224.59
946.92	224.63
947.22	224.65
947.52	224.62
947.82	224.61
948.11	224.60
948.41	224.58
948.71	224.58
949.01	224.58
949.31	224.62
949.60	224.62
949.90	224.64
950.20	224.65
950.50	224.68
950.79	224.68
951.09	224.73
951.39	224.75
951.69	224.73
951.98	224.73
952.28	224.78
952.58	224.77
952.87	224.75
953.17	224.74
953.47	224.70
953.76	224.74
954.06	224.72
954.36	224.69
954.66	224.70
954.95	224.73
955.25	224.75
955.55	224.71
955.84	224.69
956.14	224.68
956.44	224.69
956.73	224.64
957.03	224.67
957.32	224.65
957.62	224.66
957.92	224.70
958.21	224.71
958.51	224.76
958.81	224.79
959.10	224.79
959.40	224.83
959.69	224.83
959.99	224.84
960.29	224.84
960.58	224.87
960.88	224.90
961.17	224.86
961.47	224.84
961.76	224.81
962.06	224.84
962.36	224.81
962.65	224.81
962.95	224.82
963.24	224.77
963.54	224.78
963.83	224.77
964.13	224.73
964.42	224.67
964.72	224.65
965.01	224.62
965.31	224.62
965.60	224.53
965.90	224.58
966.19	224.54
966.49	224.51
966.78	224.52
967.08	224.51
967.37	224.49
967.67	224.50
967.96	224.55
968.26	224.53
968.55	224.57
968.85	224.55
969.14	224.56
969.43	224.56
969.73	224.55
970.02	224.54
970.32	224.55
970.61	224.60
970.91	224.56
971.20	224.60
971.49	224.59
971.79	224.64
972.08	224.55
972.38	224.60
972.67	224.61
972.96	224.63
973.26	224.63
973.55	224.70
973.85	224.69
974.14	224.66
974.43	224.68
974.73	224.64
975.02	224.66
975.31	224.65
975.61	224.68
975.90	224.68
976.19	224.71
976.49	224.76
976.78	224.75
977.07	224.73
977.37	224.69
977.66	224.69
977.95	224.68
978.24	224.73
978.54	224.75
978.83	224.76
979.12	224.73
979.42	224.73
979.71	224.68
980.00	224.68
980.29	224.69
980.59	224.68
980.88	224.69
981.17	224.74
981.46	224.73
981.76	224.72
982.05	224.76
982.34	224.74
982.63	224.70
982.93	224.71
983.22	224.72
983.51	224.76
983.80	224.77
984.09	224.78
984.39	224.72
984.68	224.69
984.97	224.69
985.26	224.68
985.55	224.67
985.85	224.66
986.14	224.68
986.43	224.69
986.72	224.69
987.01	224.68
987.30	224.62
987.59	224.63
987.89	224.65
988.18	224.61
988.47	224.61
988.76	224.58
989.05	224.56
989.34	224.59
989.63	224.59
989.92	224.59
990.22	224.60
990.51	224.65
990.80	224.63
991.09	224.61
991.38	224.68
991.67	224.63
991.96	224.66
992.25	224.65
992.54	224.65
992.83	224.64
993.12	224.65
993.41	224.70
993.70	224.74
993.99	224.73
994.28	224.74
994.58	224.75
994.87	224.76
995.16	224.75
995.45	224.72
995.74	224.68
996.03	224.67
996.32	224.68
996.61	224.68
996.90	224.66
997.19	224.68
997.48	224.64
997.77	224.62
998.06	224.58
998.34	224.59
998.63	224.59
998.92	224.55
999.21	224.53
999.50	224.49
999.79	224.45
1000.08	224.40
1000.37	224.37
1000.66	224.35
1000.95	224.36
1001.24	224.37
1001.53	224.37
1001.82	224.37
1002.11	224.40
1002.40	224.39
1002.68	224.40
1002.97	224.46
1003.26	224.45
1003.55	224.44
1003.84	224.48
1004.13	224.49
1004.42	224.48
1004.71	224.47
1004.99	224.49
1005.28	224.52
1005.57	224.53
1005.86	224.51
1006.15	224.56
1006.44	224.55
1006.72	224.56
1007.01	224.54
1007.30	224.59
1007.59	224.58
1007.88	224.59
1008.17	224.54
1008.45	224.52
1008.74	224.49
1009.03	224.48
1009.32	224.46
1009.60	224.45
1009.89	224.46
1010.18	224.45
1010.47	224.46
1010.76	224.44
1011.04	224.44
1011.33	224.44
1011.62	224.45
1011.91	224.46
1012.19	224.47
1012.48	224.50
1012.77	224.47
1013.05	224.52
1013.34	224.47
1013.63	224.46
1013.92	224.48
1014.20	224.49
1014.49	224.52
1014.78	224.53
1015.06	224.46
1015.35	224.49
1015.64	224.53
1015.92	224.53
1016.21	224.53
1016.50	224.53
1016.78	224.57
1017.07	224.57
1017.36	224.55
1017.64	224.51
1017.93	224.52
1018.22	224.48
1018.50	224.45
1018.79	224.47
1019.08	224.42
1019.36	224.48
1019.65	224.48
1019.93	224.49
1020.22	224.49
1020.51	224.51
1020.79	224.50
1021.08	224.04
1021.36	223.95
1021.65	224.54
1021.94	224.34
1022.22	225.31
1022.51	224.34
1022.79	225.06
1023.08	224.32
1023.36	225.43
1023.65	224.40
>>>>>End Processed Spectral Data<<<<<
