SpectraSuite Data File
++++++++++++++++++++++++++++++++++++
Date: Fri Feb 01 14:55:16 EST 2013
User: group
Dark Spectrum Present: No
Reference Spectrum Present: No
Number of Sampled Component Spectra: 1
Spectrometers: USB2E7196
Integration Time (usec): 35000 (USB2E7196)
Spectra Averaged: 100 (USB2E7196)
Boxcar Smoothing: 10 (USB2E7196)
Correct for Electrical Dark: No (USB2E7196)
Strobe/Lamp Enabled: No (USB2E7196)
Correct for Detector Non-linearity: No (USB2E7196)
Correct for Stray Light: No (USB2E7196)
Number of Pixels in Processed Spectrum: 2048
>>>>>Begin Processed Spectral Data<<<<<
339.09	0.00
339.48	215.27
339.86	216.76
340.24	218.30
340.63	218.87
341.01	222.69
341.39	221.60
341.78	223.37
342.16	224.66
342.54	225.09
342.93	213.46
343.31	224.26
343.69	224.77
344.07	225.23
344.46	225.64
344.84	226.04
345.22	226.24
345.60	226.49
345.99	226.70
346.37	226.82
346.75	226.94
347.13	226.99
347.52	227.07
347.90	227.09
348.28	227.14
348.66	227.21
349.05	227.23
349.43	227.27
349.81	227.35
350.19	227.40
350.57	227.43
350.96	227.53
351.34	227.62
351.72	227.77
352.10	227.87
352.48	227.95
352.87	228.05
353.25	228.15
353.63	228.23
354.01	228.33
354.39	228.43
354.77	228.49
355.15	228.61
355.54	228.70
355.92	228.77
356.30	228.83
356.68	228.93
357.06	229.02
357.44	229.08
357.82	229.15
358.20	229.24
358.58	229.32
358.97	229.38
359.35	229.47
359.73	229.52
360.11	229.59
360.49	229.62
360.87	229.66
361.25	229.72
361.63	229.81
362.01	229.80
362.39	229.84
362.77	229.88
363.15	229.90
363.53	229.92
363.91	229.92
364.29	229.95
364.67	229.90
365.05	229.90
365.43	229.93
365.81	229.95
366.19	229.96
366.57	229.97
366.95	229.99
367.33	229.91
367.71	229.86
368.09	229.85
368.47	229.86
368.85	229.82
369.23	229.82
369.61	229.75
369.99	229.75
370.37	229.70
370.75	229.68
371.13	229.58
371.51	229.52
371.89	229.48
372.27	229.41
372.65	229.32
373.03	229.25
373.41	229.14
373.78	229.03
374.16	228.94
374.54	228.84
374.92	228.72
375.30	228.67
375.68	228.58
376.06	228.48
376.44	228.35
376.82	228.27
377.19	228.14
377.57	228.05
377.95	227.91
378.33	227.81
378.71	227.69
379.09	227.67
379.47	227.60
379.84	227.51
380.22	227.45
380.60	227.40
380.98	227.30
381.36	227.27
381.73	227.21
382.11	227.14
382.49	227.09
382.87	227.03
383.25	226.98
383.62	227.03
384.00	226.97
384.38	226.95
384.76	226.89
385.13	226.87
385.51	226.80
385.89	226.77
386.27	226.72
386.64	226.69
387.02	226.61
387.40	226.54
387.78	226.48
388.15	226.43
388.53	226.37
388.91	226.36
389.29	226.31
389.66	226.27
390.04	226.25
390.42	226.23
390.79	226.19
391.17	226.15
391.55	226.05
391.92	226.04
392.30	226.06
392.68	226.04
393.05	226.04
393.43	226.10
393.81	226.11
394.18	226.16
394.56	226.21
394.94	226.26
395.31	226.30
395.69	226.40
396.06	226.47
396.44	226.55
396.82	226.57
397.19	226.70
397.57	226.76
397.95	226.86
398.32	226.90
398.70	226.98
399.07	227.10
399.45	227.18
399.82	227.27
400.20	227.34
400.58	227.47
400.95	227.55
401.33	227.64
401.70	227.79
402.08	227.87
402.45	227.96
402.83	228.11
403.20	228.24
403.58	228.39
403.95	228.53
404.33	228.72
404.71	228.89
405.08	229.06
405.46	229.23
405.83	229.40
406.21	229.58
406.58	229.78
406.96	229.95
407.33	230.15
407.70	230.36
408.08	230.64
408.45	230.91
408.83	231.12
409.20	231.34
409.58	231.56
409.95	231.88
410.33	232.16
410.70	232.40
411.08	232.71
411.45	233.01
411.82	233.33
412.20	233.65
412.57	234.09
412.95	234.39
413.32	234.79
413.69	235.20
414.07	235.65
414.44	236.09
414.82	236.59
415.19	237.10
415.56	237.64
415.94	238.18
416.31	238.77
416.68	239.42
417.06	240.11
417.43	240.79
417.81	241.53
418.18	242.28
418.55	243.12
418.93	244.00
419.30	244.84
419.67	245.78
420.04	246.75
420.42	247.74
420.79	248.92
421.16	250.06
421.54	251.21
421.91	252.39
422.28	253.63
422.66	254.93
423.03	256.25
423.40	257.54
423.77	258.95
424.15	260.35
424.52	261.87
424.89	263.46
425.26	265.00
425.64	266.49
426.01	268.11
426.38	269.76
426.75	271.43
427.13	273.16
427.50	274.96
427.87	276.81
428.24	278.63
428.61	280.35
428.99	282.27
429.36	284.37
429.73	286.45
430.10	288.45
430.47	290.51
430.85	292.64
431.22	294.87
431.59	297.26
431.96	299.54
432.33	301.98
432.70	304.37
433.08	307.18
433.45	309.76
433.82	312.33
434.19	315.20
434.56	318.03
434.93	320.71
435.30	323.32
435.68	326.19
436.05	329.08
436.42	331.87
436.79	334.40
437.16	337.13
437.53	339.97
437.90	342.80
438.27	345.54
438.64	348.39
439.01	350.99
439.38	353.21
439.75	355.36
440.13	357.87
440.50	360.21
440.87	362.09
441.24	364.07
441.61	366.25
441.98	367.74
442.35	369.47
442.72	371.34
443.09	373.19
443.46	374.22
443.83	374.77
444.20	375.28
444.57	376.10
444.94	376.37
445.31	376.68
445.68	377.05
446.05	377.16
446.42	376.78
446.79	376.34
447.16	375.94
447.53	375.63
447.90	374.50
448.27	373.33
448.64	371.68
449.01	370.56
449.37	368.56
449.74	366.71
450.11	364.51
450.48	361.99
450.85	359.43
451.22	357.25
451.59	355.24
451.96	353.32
452.33	350.70
452.70	348.34
453.07	345.53
453.43	342.64
453.80	339.88
454.17	337.18
454.54	334.69
454.91	331.95
455.28	329.26
455.65	326.76
456.02	324.33
456.38	322.20
456.75	319.51
457.12	317.30
457.49	315.07
457.86	312.92
458.23	311.09
458.59	309.03
458.96	306.95
459.33	305.11
459.70	303.27
460.07	301.78
460.43	300.10
460.80	298.47
461.17	297.02
461.54	295.52
461.91	294.08
462.27	292.61
462.64	291.38
463.01	290.04
463.38	288.72
463.74	287.36
464.11	286.17
464.48	285.17
464.85	284.04
465.21	283.17
465.58	282.24
465.95	281.15
466.32	280.25
466.68	279.31
467.05	278.39
467.42	277.45
467.78	276.52
468.15	275.58
468.52	274.95
468.88	274.06
469.25	273.24
469.62	272.63
469.98	271.93
470.35	271.26
470.72	270.64
471.08	269.95
471.45	269.38
471.82	268.84
472.18	268.18
472.55	267.70
472.92	267.12
473.28	266.58
473.65	266.12
474.02	265.65
474.38	265.27
474.75	264.92
475.11	264.57
475.48	264.26
475.85	264.04
476.21	263.76
476.58	263.56
476.94	263.38
477.31	263.18
477.67	263.03
478.04	262.92
478.41	262.82
478.77	262.87
479.14	262.77
479.50	262.76
479.87	262.81
480.23	262.90
480.60	262.97
480.96	263.09
481.33	263.26
481.69	263.46
482.06	263.65
482.42	263.84
482.79	264.07
483.15	264.39
483.52	264.73
483.88	265.07
484.25	265.47
484.61	265.93
484.98	266.37
485.34	266.91
485.71	267.49
486.07	268.11
486.44	268.67
486.80	269.34
487.17	270.07
487.53	270.91
487.90	271.71
488.26	272.66
488.62	273.60
488.99	274.56
489.35	275.60
489.72	276.75
490.08	277.95
490.44	279.23
490.81	280.57
491.17	281.92
491.54	283.40
491.90	284.91
492.26	286.54
492.63	288.28
492.99	290.05
493.36	291.93
493.72	293.96
494.08	296.03
494.45	298.29
494.81	300.66
495.17	303.10
495.54	305.66
495.90	308.33
496.26	311.15
496.63	314.08
496.99	317.16
497.35	320.37
497.72	323.74
498.08	327.23
498.44	330.88
498.80	334.78
499.17	338.80
499.53	342.93
499.89	347.28
500.26	351.71
500.62	356.34
500.98	361.28
501.34	366.37
501.71	371.69
502.07	377.07
502.43	382.60
502.79	388.33
503.16	394.37
503.52	400.60
503.88	406.95
504.24	413.60
504.60	420.44
504.97	427.53
505.33	434.83
505.69	442.47
506.05	450.21
506.41	458.09
506.78	466.17
507.14	474.58
507.50	483.28
507.86	492.30
508.22	501.51
508.59	510.67
508.95	520.25
509.31	529.98
509.67	540.12
510.03	550.40
510.39	560.99
510.75	571.78
511.12	582.68
511.48	593.99
511.84	605.44
512.20	616.98
512.56	628.96
512.92	641.19
513.28	653.42
513.64	665.88
514.00	678.53
514.37	691.52
514.73	704.57
515.09	717.60
515.45	730.91
515.81	744.48
516.17	758.52
516.53	772.57
516.89	786.81
517.25	800.97
517.61	815.40
517.97	829.91
518.33	844.34
518.69	859.12
519.05	874.14
519.41	889.33
519.77	904.88
520.13	920.32
520.49	935.67
520.85	951.26
521.21	967.04
521.57	983.37
521.93	999.16
522.29	1015.65
522.65	1031.81
523.01	1048.07
523.37	1064.27
523.73	1080.42
524.09	1096.60
524.45	1113.07
524.81	1129.76
525.17	1146.67
525.53	1163.62
525.89	1180.59
526.25	1197.58
526.61	1213.96
526.97	1230.72
527.33	1247.29
527.68	1264.01
528.04	1280.60
528.40	1297.31
528.76	1314.53
529.12	1331.23
529.48	1348.25
529.84	1364.41
530.20	1381.24
530.56	1398.36
530.91	1415.74
531.27	1432.65
531.63	1449.16
531.99	1465.73
532.35	1481.80
532.71	1497.74
533.07	1514.07
533.42	1530.03
533.78	1546.12
534.14	1562.46
534.50	1577.84
534.86	1593.67
535.21	1608.86
535.57	1624.97
535.93	1640.53
536.29	1655.30
536.65	1670.48
537.00	1685.29
537.36	1700.55
537.72	1715.20
538.08	1729.61
538.44	1743.59
538.79	1757.60
539.15	1771.59
539.51	1785.46
539.87	1799.96
540.22	1813.81
540.58	1827.70
540.94	1841.26
541.29	1854.19
541.65	1867.09
542.01	1880.45
542.37	1892.86
542.72	1905.56
543.08	1917.37
543.44	1929.81
543.79	1941.08
544.15	1952.01
544.51	1963.54
544.87	1974.71
545.22	1985.50
545.58	1995.74
545.94	2005.42
546.29	2015.25
546.65	2024.98
547.01	2034.23
547.36	2042.90
547.72	2051.38
548.07	2059.18
548.43	2067.29
548.79	2075.43
549.14	2082.80
549.50	2090.26
549.86	2098.04
550.21	2105.18
550.57	2112.23
550.92	2118.79
551.28	2125.98
551.64	2133.04
551.99	2139.67
552.35	2145.75
552.70	2151.96
553.06	2158.02
553.41	2164.35
553.77	2170.35
554.13	2176.31
554.48	2182.32
554.84	2187.75
555.19	2193.10
555.55	2198.17
555.90	2202.40
556.26	2207.13
556.61	2211.94
556.97	2215.95
557.32	2220.06
557.68	2224.08
558.03	2228.40
558.39	2232.19
558.74	2236.77
559.10	2240.61
559.45	2244.14
559.81	2248.38
560.16	2251.97
560.52	2255.20
560.87	2258.50
561.23	2261.10
561.58	2263.97
561.94	2266.43
562.29	2268.85
562.64	2271.30
563.00	2273.81
563.35	2277.40
563.71	2280.38
564.06	2283.44
564.42	2286.28
564.77	2288.67
565.12	2290.89
565.48	2292.60
565.83	2294.12
566.19	2295.09
566.54	2295.96
566.89	2296.92
567.25	2297.20
567.60	2298.40
567.96	2299.65
568.31	2300.44
568.66	2301.40
569.02	2301.78
569.37	2301.84
569.72	2302.22
570.08	2302.14
570.43	2301.99
570.78	2301.14
571.14	2299.54
571.49	2298.03
571.84	2297.39
572.20	2296.07
572.55	2294.77
572.90	2293.02
573.26	2291.39
573.61	2289.51
573.96	2287.41
574.31	2284.14
574.67	2281.04
575.02	2277.29
575.37	2273.97
575.72	2269.91
576.08	2266.25
576.43	2262.77
576.78	2258.96
577.13	2255.71
577.49	2252.54
577.84	2248.86
578.19	2244.94
578.54	2241.07
578.90	2236.63
579.25	2231.02
579.60	2225.79
579.95	2220.70
580.30	2215.46
580.66	2210.30
581.01	2205.24
581.36	2200.18
581.71	2195.95
582.06	2191.35
582.42	2186.67
582.77	2181.21
583.12	2176.51
583.47	2171.69
583.82	2166.52
584.17	2161.38
584.53	2155.84
584.88	2150.14
585.23	2144.23
585.58	2138.67
585.93	2133.13
586.28	2128.25
586.63	2123.05
586.98	2117.90
587.34	2113.12
587.69	2108.13
588.04	2102.76
588.39	2096.88
588.74	2090.27
589.09	2084.05
589.44	2077.21
589.79	2071.09
590.14	2065.37
590.49	2058.67
590.84	2052.13
591.19	2046.07
591.54	2039.28
591.89	2031.60
592.25	2024.55
592.60	2017.33
592.95	2009.54
593.30	2002.09
593.65	1994.33
594.00	1987.27
594.35	1979.92
594.70	1971.75
595.05	1964.50
595.40	1957.12
595.75	1949.69
596.10	1943.28
596.45	1936.28
596.80	1929.84
597.15	1923.06
597.50	1915.87
597.85	1909.40
598.19	1902.84
598.54	1895.74
598.89	1889.10
599.24	1883.26
599.59	1876.50
599.94	1870.26
600.29	1863.96
600.64	1857.19
600.99	1849.70
601.34	1842.78
601.69	1835.85
602.04	1828.85
602.39	1821.40
602.74	1814.53
603.08	1807.74
603.43	1801.14
603.78	1794.16
604.13	1787.09
604.48	1779.85
604.83	1772.99
605.18	1765.76
605.53	1757.66
605.87	1749.51
606.22	1742.32
606.57	1734.33
606.92	1727.08
607.27	1719.72
607.62	1712.78
607.96	1705.68
608.31	1699.19
608.66	1691.56
609.01	1684.01
609.36	1676.48
609.70	1668.57
610.05	1660.46
610.40	1652.66
610.75	1644.29
611.10	1636.50
611.44	1628.03
611.79	1620.08
612.14	1611.48
612.49	1602.72
612.83	1594.47
613.18	1586.45
613.53	1578.37
613.88	1569.92
614.22	1561.77
614.57	1553.33
614.92	1545.35
615.27	1537.67
615.61	1529.37
615.96	1521.43
616.31	1513.80
616.65	1506.45
617.00	1498.93
617.35	1491.39
617.70	1483.12
618.04	1474.60
618.39	1466.28
618.74	1458.82
619.08	1450.50
619.43	1442.94
619.78	1435.99
620.12	1428.76
620.47	1421.17
620.82	1413.11
621.16	1405.92
621.51	1398.26
621.85	1390.71
622.20	1382.32
622.55	1374.13
622.89	1366.34
623.24	1358.75
623.59	1351.47
623.93	1344.01
624.28	1336.85
624.62	1329.30
624.97	1322.13
625.32	1315.56
625.66	1308.63
626.01	1301.43
626.35	1294.14
626.70	1286.50
627.04	1278.69
627.39	1271.01
627.73	1263.78
628.08	1256.81
628.43	1249.34
628.77	1242.03
629.12	1234.52
629.46	1227.34
629.81	1219.97
630.15	1212.90
630.50	1205.52
630.84	1197.33
631.19	1189.53
631.53	1182.06
631.88	1174.54
632.22	1167.08
632.57	1159.86
632.91	1152.53
633.26	1145.20
633.60	1137.93
633.95	1130.82
634.29	1123.86
634.64	1117.20
634.98	1109.89
635.32	1102.89
635.67	1096.36
636.01	1089.79
636.36	1083.07
636.70	1076.67
637.05	1070.10
637.39	1063.57
637.73	1057.21
638.08	1051.47
638.42	1045.60
638.77	1039.22
639.11	1032.74
639.45	1026.48
639.80	1019.83
640.14	1013.41
640.49	1006.96
640.83	1000.65
641.17	994.38
641.52	988.17
641.86	981.90
642.20	976.10
642.55	969.86
642.89	963.45
643.23	957.04
643.58	951.23
643.92	945.11
644.26	939.13
644.61	933.16
644.95	927.14
645.29	920.55
645.64	913.79
645.98	907.47
646.32	901.70
646.66	895.60
647.01	889.90
647.35	884.23
647.69	878.38
648.04	872.97
648.38	867.32
648.72	861.30
649.06	855.25
649.41	849.43
649.75	843.55
650.09	837.72
650.43	831.88
650.78	825.77
651.12	819.75
651.46	814.02
651.80	808.23
652.14	802.88
652.49	797.51
652.83	792.39
653.17	786.73
653.51	781.07
653.85	775.85
654.20	770.25
654.54	764.22
654.88	758.59
655.22	752.68
655.56	746.97
655.90	741.56
656.25	736.34
656.59	730.97
656.93	725.81
657.27	720.61
657.61	715.26
657.95	710.22
658.29	705.21
658.64	700.03
658.98	694.83
659.32	689.36
659.66	684.13
660.00	678.75
660.34	673.85
660.68	668.91
661.02	663.87
661.36	659.14
661.70	654.77
662.05	650.38
662.39	646.14
662.73	641.74
663.07	637.48
663.41	633.08
663.75	628.65
664.09	624.14
664.43	619.82
664.77	615.73
665.11	611.55
665.45	607.49
665.79	603.52
666.13	599.44
666.47	595.48
666.81	591.34
667.15	587.34
667.49	583.52
667.83	579.85
668.17	575.92
668.51	571.92
668.85	567.95
669.19	564.18
669.53	560.32
669.87	556.46
670.21	552.75
670.55	549.12
670.89	545.66
671.23	542.28
671.57	538.77
671.91	535.23
672.25	531.75
672.58	528.25
672.92	524.79
673.26	521.70
673.60	518.52
673.94	515.56
674.28	512.69
674.62	509.73
674.96	506.56
675.30	503.68
675.64	500.79
675.97	498.06
676.31	495.23
676.65	492.32
676.99	489.62
677.33	486.76
677.67	483.98
678.01	481.00
678.34	478.02
678.68	475.28
679.02	472.51
679.36	469.78
679.70	467.10
680.04	464.36
680.37	461.49
680.71	458.75
681.05	456.11
681.39	453.43
681.73	450.83
682.06	448.38
682.40	445.81
682.74	443.26
683.08	440.74
683.42	438.21
683.75	435.79
684.09	433.31
684.43	430.92
684.77	428.45
685.10	426.12
685.44	423.83
685.78	421.50
686.12	419.29
686.45	417.02
686.79	414.76
687.13	412.64
687.46	410.49
687.80	408.37
688.14	406.17
688.48	404.14
688.81	401.85
689.15	399.71
689.49	397.60
689.82	395.57
690.16	393.46
690.50	391.52
690.83	389.57
691.17	387.61
691.51	385.72
691.84	383.91
692.18	381.99
692.52	380.07
692.85	378.18
693.19	376.31
693.52	374.55
693.86	372.77
694.20	371.01
694.53	369.25
694.87	367.36
695.21	365.61
695.54	363.79
695.88	362.13
696.21	360.45
696.55	358.81
696.88	357.13
697.22	355.51
697.56	353.85
697.89	352.22
698.23	350.62
698.56	349.01
698.90	347.39
699.23	345.79
699.57	344.20
699.90	342.68
700.24	341.15
700.58	339.56
700.91	338.05
701.25	336.58
701.58	335.21
701.92	333.90
702.25	332.51
702.59	331.16
702.92	329.85
703.26	328.51
703.59	327.22
703.93	326.07
704.26	324.87
704.60	323.58
704.93	322.31
705.26	321.06
705.60	319.94
705.93	318.84
706.27	317.81
706.60	316.77
706.94	315.69
707.27	314.57
707.61	313.56
707.94	312.56
708.27	311.47
708.61	310.37
708.94	309.39
709.28	308.48
709.61	307.51
709.94	306.61
710.28	305.61
710.61	304.64
710.95	303.54
711.28	302.63
711.61	301.73
711.95	300.81
712.28	299.89
712.61	298.91
712.95	297.99
713.28	297.11
713.61	296.24
713.95	295.39
714.28	294.55
714.61	293.71
714.95	292.85
715.28	292.05
715.61	291.18
715.95	290.33
716.28	289.47
716.61	288.66
716.95	287.80
717.28	287.12
717.61	286.38
717.94	285.70
718.28	284.89
718.61	284.17
718.94	283.51
719.27	282.89
719.61	282.26
719.94	281.66
720.27	280.98
720.60	280.34
720.94	279.71
721.27	279.15
721.60	278.59
721.93	278.02
722.27	277.47
722.60	276.94
722.93	276.42
723.26	275.93
723.59	275.39
723.93	274.84
724.26	274.30
724.59	273.74
724.92	273.22
725.25	272.77
725.59	272.24
725.92	271.76
726.25	271.22
726.58	270.73
726.91	270.22
727.24	269.76
727.57	269.31
727.91	268.80
728.24	268.33
728.57	267.82
728.90	267.39
729.23	266.89
729.56	266.47
729.89	265.99
730.22	265.49
730.55	265.03
730.89	264.60
731.22	264.12
731.55	263.70
731.88	263.27
732.21	262.82
732.54	262.40
732.87	261.95
733.20	261.58
733.53	261.14
733.86	260.74
734.19	260.34
734.52	259.92
734.85	259.62
735.18	259.18
735.51	258.81
735.84	258.41
736.17	258.07
736.50	257.67
736.83	257.39
737.16	257.04
737.49	256.70
737.82	256.35
738.15	256.04
738.48	255.72
738.81	255.32
739.14	255.00
739.47	254.67
739.80	254.38
740.13	254.05
740.46	253.71
740.79	253.37
741.12	253.02
741.45	252.69
741.78	252.33
742.11	252.04
742.44	251.71
742.77	251.41
743.10	251.10
743.43	250.77
743.75	250.40
744.08	250.24
744.41	249.94
744.74	249.66
745.07	249.33
745.40	249.08
745.73	248.86
746.06	248.56
746.39	248.30
746.71	248.03
747.04	247.74
747.37	247.51
747.70	247.27
748.03	247.00
748.36	246.82
748.68	246.55
749.01	246.31
749.34	246.09
749.67	245.87
750.00	245.62
750.33	245.48
750.65	245.26
750.98	244.93
751.31	244.68
751.64	244.52
751.97	244.36
752.29	244.15
752.62	243.92
752.95	243.72
753.28	243.52
753.60	243.31
753.93	243.15
754.26	242.97
754.59	242.74
754.91	242.58
755.24	242.38
755.57	242.22
755.90	242.05
756.22	241.84
756.55	241.65
756.88	241.49
757.20	241.28
757.53	241.13
757.86	240.94
758.19	240.86
758.51	240.68
758.84	240.47
759.17	240.28
759.49	240.14
759.82	240.03
760.15	239.89
760.47	239.77
760.80	239.62
761.13	239.50
761.45	239.38
761.78	239.25
762.11	239.12
762.43	238.98
762.76	238.84
763.08	238.75
763.41	238.67
763.74	238.54
764.06	238.40
764.39	238.27
764.71	238.17
765.04	238.00
765.37	237.88
765.69	237.78
766.02	237.67
766.34	237.54
766.67	237.38
767.00	237.27
767.32	237.17
767.65	237.10
767.97	237.00
768.30	236.89
768.62	236.79
768.95	236.66
769.27	236.56
769.60	236.50
769.92	236.40
770.25	236.26
770.57	236.15
770.90	236.04
771.22	235.91
771.55	235.80
771.87	235.70
772.20	235.55
772.52	235.54
772.85	235.55
773.17	235.47
773.50	235.36
773.82	235.26
774.15	235.14
774.47	234.96
774.80	234.82
775.12	234.77
775.45	234.66
775.77	234.58
776.09	234.51
776.42	234.37
776.74	234.27
777.07	234.15
777.39	234.06
777.72	233.98
778.04	233.92
778.36	233.82
778.69	233.74
779.01	233.72
779.33	233.56
779.66	233.37
779.98	233.27
780.31	233.20
780.63	233.14
780.95	233.09
781.28	233.01
781.60	232.91
781.92	232.82
782.25	232.75
782.57	232.64
782.89	232.55
783.22	232.49
783.54	232.44
783.86	232.38
784.19	232.29
784.51	232.31
784.83	232.24
785.16	232.18
785.48	232.13
785.80	232.06
786.12	232.00
786.45	231.95
786.77	231.91
787.09	231.88
787.42	231.78
787.74	231.74
788.06	231.70
788.38	231.70
788.71	231.62
789.03	231.58
789.35	231.59
789.67	231.55
789.99	231.53
790.32	231.46
790.64	231.47
790.96	231.52
791.28	231.41
791.61	231.36
791.93	231.34
792.25	231.31
792.57	231.36
792.89	231.31
793.21	231.30
793.54	231.29
793.86	231.26
794.18	231.24
794.50	231.14
794.82	231.14
795.14	231.13
795.47	231.13
795.79	231.11
796.11	231.06
796.43	231.02
796.75	230.98
797.07	230.97
797.39	230.91
797.71	230.84
798.04	230.83
798.36	230.84
798.68	230.81
799.00	230.77
799.32	230.66
799.64	230.64
799.96	230.61
800.28	230.60
800.60	230.57
800.92	230.56
801.24	230.57
801.56	230.52
801.89	230.48
802.21	230.48
802.53	230.46
802.85	230.45
803.17	230.49
803.49	230.46
803.81	230.42
804.13	230.44
804.45	230.35
804.77	230.37
805.09	230.31
805.41	230.29
805.73	230.26
806.05	230.23
806.37	230.21
806.69	230.18
807.01	230.12
807.33	230.15
807.65	230.08
807.97	230.10
808.28	230.08
808.60	230.05
808.92	230.01
809.24	230.04
809.56	230.01
809.88	229.91
810.20	229.89
810.52	229.91
810.84	229.84
811.16	229.87
811.48	229.80
811.80	229.80
812.12	229.77
812.43	229.79
812.75	229.76
813.07	229.75
813.39	229.72
813.71	229.72
814.03	229.61
814.35	229.61
814.67	229.54
814.98	229.51
815.30	229.48
815.62	229.40
815.94	229.32
816.26	229.34
816.58	229.30
816.89	229.31
817.21	229.26
817.53	229.24
817.85	229.20
818.17	229.18
818.48	229.14
818.80	229.13
819.12	229.06
819.44	229.01
819.76	228.95
820.07	228.94
820.39	228.91
820.71	228.93
821.03	228.90
821.34	228.86
821.66	228.86
821.98	228.88
822.30	228.87
822.61	228.90
822.93	228.82
823.25	228.82
823.57	228.75
823.88	228.75
824.20	228.73
824.52	228.70
824.83	228.67
825.15	228.66
825.47	228.66
825.79	228.65
826.10	228.66
826.42	228.64
826.74	228.65
827.05	228.58
827.37	228.58
827.69	228.57
828.00	228.56
828.32	228.55
828.64	228.53
828.95	228.58
829.27	228.52
829.58	228.49
829.90	228.50
830.22	228.52
830.53	228.46
830.85	228.41
831.17	228.37
831.48	228.37
831.80	228.35
832.11	228.30
832.43	228.30
832.75	228.27
833.06	228.31
833.38	228.26
833.69	228.31
834.01	228.28
834.32	228.27
834.64	228.24
834.96	228.22
835.27	228.23
835.59	228.16
835.90	228.16
836.22	228.17
836.53	228.12
836.85	228.08
837.16	228.17
837.48	228.19
837.79	228.25
838.11	228.25
838.42	228.24
838.74	228.28
839.05	228.30
839.37	228.29
839.68	228.27
840.00	228.27
840.31	228.28
840.63	228.28
840.94	228.26
841.26	228.27
841.57	228.26
841.88	228.21
842.20	228.25
842.51	228.24
842.83	228.26
843.14	228.37
843.46	228.41
843.77	228.40
844.08	228.40
844.40	228.38
844.71	228.38
845.03	228.39
845.34	228.37
845.65	228.32
845.97	228.31
846.28	228.31
846.60	228.30
846.91	228.31
847.22	228.29
847.54	228.30
847.85	228.32
848.16	228.31
848.48	228.34
848.79	228.33
849.10	228.33
849.42	228.34
849.73	228.22
850.04	228.19
850.36	228.15
850.67	228.16
850.98	228.15
851.30	228.14
851.61	228.12
851.92	228.14
852.23	228.16
852.55	228.16
852.86	228.13
853.17	228.13
853.49	228.10
853.80	228.12
854.11	228.15
854.42	228.17
854.74	228.15
855.05	228.11
855.36	228.07
855.67	228.10
855.99	228.09
856.30	228.24
856.61	228.26
856.92	228.25
857.23	228.24
857.55	228.21
857.86	228.20
858.17	228.23
858.48	228.18
858.79	228.18
859.11	228.20
859.42	228.19
859.73	228.17
860.04	228.14
860.35	228.12
860.66	228.06
860.98	228.03
861.29	228.02
861.60	228.03
861.91	228.04
862.22	227.98
862.53	227.93
862.84	227.78
863.16	227.80
863.47	227.75
863.78	227.75
864.09	227.75
864.40	227.78
864.71	227.77
865.02	227.77
865.33	227.74
865.64	227.73
865.95	227.70
866.27	227.77
866.58	227.79
866.89	227.80
867.20	227.82
867.51	227.79
867.82	227.78
868.13	227.82
868.44	227.79
868.75	227.80
869.06	227.82
869.37	227.85
869.68	227.78
869.99	227.79
870.30	227.79
870.61	227.78
870.92	227.74
871.23	227.72
871.54	227.74
871.85	227.76
872.16	227.76
872.47	227.76
872.78	227.69
873.09	227.69
873.40	227.66
873.71	227.67
874.02	227.68
874.33	227.69
874.64	227.65
874.95	227.69
875.26	227.65
875.56	227.63
875.87	227.60
876.18	227.63
876.49	227.74
876.80	227.72
877.11	227.73
877.42	227.75
877.73	227.72
878.04	227.69
878.35	227.67
878.66	227.70
878.96	227.73
879.27	227.72
879.58	227.69
879.89	227.70
880.20	227.72
880.51	227.71
880.82	227.74
881.12	227.73
881.43	227.70
881.74	227.70
882.05	227.72
882.36	227.75
882.67	227.75
882.97	227.65
883.28	227.62
883.59	227.64
883.90	227.64
884.21	227.68
884.51	227.69
884.82	227.68
885.13	227.64
885.44	227.59
885.74	227.62
886.05	227.63
886.36	227.63
886.67	227.58
886.98	227.62
887.28	227.59
887.59	227.59
887.90	227.58
888.20	227.58
888.51	227.56
888.82	227.54
889.13	227.52
889.43	227.61
889.74	227.61
890.05	227.57
890.35	227.57
890.66	227.55
890.97	227.55
891.28	227.53
891.58	227.58
891.89	227.59
892.20	227.56
892.50	227.57
892.81	227.53
893.12	227.54
893.42	227.52
893.73	227.54
894.04	227.55
894.34	227.58
894.65	227.56
894.95	227.56
895.26	227.54
895.57	227.58
895.87	227.47
896.18	227.50
896.48	227.52
896.79	227.50
897.10	227.49
897.40	227.45
897.71	227.47
898.01	227.44
898.32	227.46
898.63	227.45
898.93	227.44
899.24	227.48
899.54	227.50
899.85	227.50
900.15	227.51
900.46	227.51
900.76	227.50
901.07	227.51
901.38	227.50
901.68	227.50
901.99	227.47
902.29	227.44
902.60	227.44
902.90	227.42
903.21	227.41
903.51	227.42
903.82	227.45
904.12	227.46
904.43	227.44
904.73	227.42
905.03	227.45
905.34	227.52
905.64	227.51
905.95	227.50
906.25	227.45
906.56	227.44
906.86	227.45
907.17	227.42
907.47	227.45
907.77	227.46
908.08	227.42
908.38	227.44
908.69	227.47
908.99	227.48
909.30	227.46
909.60	227.43
909.90	227.44
910.21	227.44
910.51	227.44
910.81	227.46
911.12	227.48
911.42	227.49
911.73	227.39
912.03	227.35
912.33	227.35
912.64	227.37
912.94	227.35
913.24	227.31
913.55	227.32
913.85	227.30
914.15	227.28
914.46	227.34
914.76	227.32
915.06	227.31
915.37	227.29
915.67	227.32
915.97	227.35
916.27	227.31
916.58	227.29
916.88	227.27
917.18	227.25
917.49	227.30
917.79	227.28
918.09	227.33
918.39	227.41
918.70	227.42
919.00	227.41
919.30	227.49
919.60	227.50
919.91	227.51
920.21	227.54
920.51	227.53
920.81	227.54
921.12	227.57
921.42	227.59
921.72	227.62
922.02	227.61
922.32	227.64
922.63	227.66
922.93	227.74
923.23	227.76
923.53	227.77
923.83	227.72
924.13	227.71
924.44	227.71
924.74	227.70
925.04	227.73
925.34	227.75
925.64	227.67
925.94	227.66
926.24	227.71
926.55	227.67
926.85	227.70
927.15	227.68
927.45	227.66
927.75	227.64
928.05	227.62
928.35	227.62
928.65	227.60
928.95	227.62
929.26	227.56
929.56	227.55
929.86	227.54
930.16	227.54
930.46	227.58
930.76	227.56
931.06	227.53
931.36	227.49
931.66	227.50
931.96	227.50
932.26	227.52
932.56	227.44
932.86	227.44
933.16	227.46
933.46	227.46
933.76	227.44
934.06	227.45
934.36	227.46
934.66	227.48
934.96	227.44
935.26	227.45
935.56	227.45
935.86	227.47
936.16	227.46
936.46	227.43
936.76	227.39
937.06	227.39
937.36	227.39
937.66	227.37
937.96	227.37
938.26	227.39
938.56	227.38
938.86	227.40
939.16	227.42
939.46	227.41
939.76	227.38
940.06	227.40
940.35	227.37
940.65	227.35
940.95	227.34
941.25	227.33
941.55	227.28
941.85	227.26
942.15	227.27
942.45	227.28
942.75	227.28
943.04	227.27
943.34	227.27
943.64	227.25
943.94	227.25
944.24	227.23
944.54	227.21
944.84	227.20
945.13	227.18
945.43	227.13
945.73	227.11
946.03	227.11
946.33	227.09
946.62	227.07
946.92	227.07
947.22	227.09
947.52	227.08
947.82	227.11
948.11	227.11
948.41	227.09
948.71	227.06
949.01	227.08
949.31	227.06
949.60	227.06
949.90	227.08
950.20	227.08
950.50	227.09
950.79	227.08
951.09	227.13
951.39	227.15
951.69	227.17
951.98	227.20
952.28	227.22
952.58	227.23
952.87	227.28
953.17	227.28
953.47	227.24
953.76	227.25
954.06	227.27
954.36	227.24
954.66	227.24
954.95	227.27
955.25	227.25
955.55	227.30
955.84	227.27
956.14	227.26
956.44	227.28
956.73	227.27
957.03	227.29
957.32	227.28
957.62	227.27
957.92	227.32
958.21	227.35
958.51	227.42
958.81	227.42
959.10	227.36
959.40	227.38
959.69	227.42
959.99	227.45
960.29	227.43
960.58	227.47
960.88	227.49
961.17	227.50
961.47	227.50
961.76	227.46
962.06	227.52
962.36	227.51
962.65	227.53
962.95	227.51
963.24	227.48
963.54	227.46
963.83	227.46
964.13	227.42
964.42	227.36
964.72	227.32
965.01	227.34
965.31	227.39
965.60	227.35
965.90	227.38
966.19	227.35
966.49	227.37
966.78	227.36
967.08	227.35
967.37	227.35
967.67	227.32
967.96	227.36
968.26	227.33
968.55	227.36
968.85	227.36
969.14	227.37
969.43	227.38
969.73	227.34
970.02	227.34
970.32	227.35
970.61	227.35
970.91	227.31
971.20	227.26
971.49	227.23
971.79	227.26
972.08	227.21
972.38	227.21
972.67	227.16
972.96	227.17
973.26	227.15
973.55	227.16
973.85	227.17
974.14	227.16
974.43	227.14
974.73	227.11
975.02	227.09
975.31	227.08
975.61	227.07
975.90	227.10
976.19	227.10
976.49	227.08
976.78	227.07
977.07	227.06
977.37	227.04
977.66	227.04
977.95	227.00
978.24	227.00
978.54	227.00
978.83	227.03
979.12	227.01
979.42	227.04
979.71	227.01
980.00	227.00
980.29	226.98
980.59	226.96
980.88	226.99
981.17	226.97
981.46	226.99
981.76	226.98
982.05	226.97
982.34	226.97
982.63	226.99
982.93	227.01
983.22	227.03
983.51	227.08
983.80	227.15
984.09	227.14
984.39	227.12
984.68	227.15
984.97	227.15
985.26	227.16
985.55	227.14
985.85	227.16
986.14	227.21
986.43	227.22
986.72	227.24
987.01	227.23
987.30	227.22
987.59	227.21
987.89	227.21
988.18	227.22
988.47	227.18
988.76	227.19
989.05	227.20
989.34	227.18
989.63	227.21
989.92	227.19
990.22	227.21
990.51	227.22
990.80	227.19
991.09	227.20
991.38	227.20
991.67	227.18
991.96	227.15
992.25	227.16
992.54	227.14
992.83	227.15
993.12	227.14
993.41	227.17
993.70	227.20
993.99	227.25
994.28	227.23
994.58	227.29
994.87	227.27
995.16	227.25
995.45	227.25
995.74	227.19
996.03	227.19
996.32	227.20
996.61	227.23
996.90	227.25
997.19	227.25
997.48	227.23
997.77	227.24
998.06	227.29
998.34	227.26
998.63	227.28
998.92	227.31
999.21	227.30
999.50	227.32
999.79	227.32
1000.08	227.31
1000.37	227.33
1000.66	227.30
1000.95	227.32
1001.24	227.35
1001.53	227.35
1001.82	227.34
1002.11	227.31
1002.40	227.29
1002.68	227.30
1002.97	227.37
1003.26	227.34
1003.55	227.35
1003.84	227.37
1004.13	227.40
1004.42	227.38
1004.71	227.38
1004.99	227.39
1005.28	227.39
1005.57	227.35
1005.86	227.32
1006.15	227.29
1006.44	227.24
1006.72	227.26
1007.01	227.24
1007.30	227.23
1007.59	227.21
1007.88	227.22
1008.17	227.22
1008.45	227.25
1008.74	227.23
1009.03	227.15
1009.32	227.16
1009.60	227.14
1009.89	227.08
1010.18	227.02
1010.47	227.01
1010.76	226.99
1011.04	226.97
1011.33	226.98
1011.62	227.01
1011.91	227.01
1012.19	227.01
1012.48	227.01
1012.77	227.02
1013.05	227.06
1013.34	227.04
1013.63	227.05
1013.92	227.09
1014.20	227.11
1014.49	227.08
1014.78	227.07
1015.06	227.05
1015.35	227.05
1015.64	227.07
1015.92	227.12
1016.21	227.14
1016.50	227.15
1016.78	227.17
1017.07	227.14
1017.36	227.10
1017.64	227.08
1017.93	227.08
1018.22	227.10
1018.50	227.08
1018.79	227.07
1019.08	227.02
1019.36	227.04
1019.65	227.02
1019.93	227.02
1020.22	227.05
1020.51	227.08
1020.79	227.08
1021.08	226.97
1021.36	226.37
1021.65	227.07
1021.94	226.84
1022.22	227.18
1022.51	226.65
1022.79	227.53
1023.08	227.66
1023.36	227.97
1023.65	227.06
>>>>>End Processed Spectral Data<<<<<
