SpectraSuite Data File
++++++++++++++++++++++++++++++++++++
Date: Fri Feb 01 17:10:20 EST 2013
User: group
Dark Spectrum Present: No
Reference Spectrum Present: No
Number of Sampled Component Spectra: 1
Spectrometers: USB2E7196
Integration Time (usec): 35000 (USB2E7196)
Spectra Averaged: 100 (USB2E7196)
Boxcar Smoothing: 10 (USB2E7196)
Correct for Electrical Dark: No (USB2E7196)
Strobe/Lamp Enabled: No (USB2E7196)
Correct for Detector Non-linearity: No (USB2E7196)
Correct for Stray Light: No (USB2E7196)
Number of Pixels in Processed Spectrum: 2048
>>>>>Begin Processed Spectral Data<<<<<
339.09	0.00
339.48	213.72
339.86	214.60
340.24	216.33
340.63	217.59
341.01	220.79
341.39	219.95
341.78	221.56
342.16	222.89
342.54	223.33
342.93	211.78
343.31	222.46
343.69	223.00
344.07	223.48
344.46	223.89
344.84	224.28
345.22	224.48
345.60	224.73
345.99	224.94
346.37	225.03
346.75	225.13
347.13	225.18
347.52	225.28
347.90	225.34
348.28	225.34
348.66	225.37
349.05	225.40
349.43	225.46
349.81	225.51
350.19	225.55
350.57	225.58
350.96	225.66
351.34	225.76
351.72	225.83
352.10	225.92
352.48	225.99
352.87	226.04
353.25	226.10
353.63	226.16
354.01	226.22
354.39	226.31
354.77	226.41
355.15	226.51
355.54	226.56
355.92	226.60
356.30	226.68
356.68	226.84
357.06	226.90
357.44	226.94
357.82	227.00
358.20	227.09
358.58	227.19
358.97	227.25
359.35	227.33
359.73	227.40
360.11	227.47
360.49	227.51
360.87	227.59
361.25	227.67
361.63	227.76
362.01	227.81
362.39	227.85
362.77	227.87
363.15	227.89
363.53	227.93
363.91	227.95
364.29	227.97
364.67	227.91
365.05	227.94
365.43	227.95
365.81	228.01
366.19	228.06
366.57	228.08
366.95	228.07
367.33	228.05
367.71	228.06
368.09	228.06
368.47	228.09
368.85	228.03
369.23	228.01
369.61	227.95
369.99	227.95
370.37	227.92
370.75	227.93
371.13	227.90
371.51	227.85
371.89	227.84
372.27	227.80
372.65	227.76
373.03	227.73
373.41	227.68
373.78	227.59
374.16	227.48
374.54	227.40
374.92	227.30
375.30	227.23
375.68	227.13
376.06	227.07
376.44	226.99
376.82	226.97
377.19	226.91
377.57	226.85
377.95	226.76
378.33	226.70
378.71	226.56
379.09	226.52
379.47	226.44
379.84	226.36
380.22	226.27
380.60	226.17
380.98	226.06
381.36	225.96
381.73	225.87
382.11	225.80
382.49	225.74
382.87	225.69
383.25	225.63
383.62	225.69
384.00	225.61
384.38	225.55
384.76	225.49
385.13	225.47
385.51	225.41
385.89	225.35
386.27	225.28
386.64	225.28
387.02	225.20
387.40	225.14
387.78	225.12
388.15	225.10
388.53	225.08
388.91	225.10
389.29	225.09
389.66	225.11
390.04	225.09
390.42	225.06
390.79	225.03
391.17	225.02
391.55	224.89
391.92	224.88
392.30	224.86
392.68	224.85
393.05	224.83
393.43	224.86
393.81	224.85
394.18	224.87
394.56	224.88
394.94	224.92
395.31	224.95
395.69	224.97
396.06	225.01
396.44	225.06
396.82	225.02
397.19	225.11
397.57	225.11
397.95	225.14
398.32	225.15
398.70	225.22
399.07	225.30
399.45	225.36
399.82	225.38
400.20	225.44
400.58	225.50
400.95	225.51
401.33	225.58
401.70	225.72
402.08	225.81
402.45	225.89
402.83	225.99
403.20	226.08
403.58	226.17
403.95	226.29
404.33	226.39
404.71	226.53
405.08	226.69
405.46	226.82
405.83	226.94
406.21	227.10
406.58	227.23
406.96	227.34
407.33	227.53
407.70	227.74
408.08	228.00
408.45	228.21
408.83	228.43
409.20	228.63
409.58	228.82
409.95	229.06
410.33	229.31
410.70	229.54
411.08	229.83
411.45	230.11
411.82	230.39
412.20	230.74
412.57	231.17
412.95	231.46
413.32	231.88
413.69	232.31
414.07	232.72
414.44	233.20
414.82	233.70
415.19	234.23
415.56	234.79
415.94	235.34
416.31	235.99
416.68	236.65
417.06	237.37
417.43	238.04
417.81	238.78
418.18	239.54
418.55	240.37
418.93	241.27
419.30	242.16
419.67	243.10
420.04	244.08
420.42	245.06
420.79	246.27
421.16	247.41
421.54	248.66
421.91	249.92
422.28	251.20
422.66	252.53
423.03	253.82
423.40	255.17
423.77	256.59
424.15	258.00
424.52	259.46
424.89	261.07
425.26	262.65
425.64	264.09
426.01	265.70
426.38	267.37
426.75	269.06
427.13	270.78
427.50	272.63
427.87	274.51
428.24	276.38
428.61	278.11
428.99	280.05
429.36	282.11
429.73	284.18
430.10	286.17
430.47	288.24
430.85	290.37
431.22	292.58
431.59	294.96
431.96	297.20
432.33	299.69
432.70	302.08
433.08	304.91
433.45	307.60
433.82	310.20
434.19	313.09
434.56	315.88
434.93	318.50
435.30	321.06
435.68	323.92
436.05	326.76
436.42	329.55
436.79	332.08
437.16	334.76
437.53	337.58
437.90	340.36
438.27	343.09
438.64	345.93
439.01	348.53
439.38	350.75
439.75	352.95
440.13	355.49
440.50	357.83
440.87	359.68
441.24	361.58
441.61	363.78
441.98	365.30
442.35	367.13
442.72	369.04
443.09	370.88
443.46	371.89
443.83	372.47
444.20	372.97
444.57	373.81
444.94	374.13
445.31	374.48
445.68	374.91
446.05	374.99
446.42	374.64
446.79	374.23
447.16	373.79
447.53	373.47
447.90	372.31
448.27	371.15
448.64	369.53
449.01	368.45
449.37	366.49
449.74	364.55
450.11	362.28
450.48	359.78
450.85	357.29
451.22	355.16
451.59	353.14
451.96	351.22
452.33	348.65
452.70	346.27
453.07	343.46
453.43	340.56
453.80	337.78
454.17	335.11
454.54	332.58
454.91	329.89
455.28	327.20
455.65	324.67
456.02	322.20
456.38	320.06
456.75	317.39
457.12	315.16
457.49	312.99
457.86	310.83
458.23	309.02
458.59	306.95
458.96	304.91
459.33	303.11
459.70	301.24
460.07	299.73
460.43	298.00
460.80	296.37
461.17	294.93
461.54	293.44
461.91	291.98
462.27	290.51
462.64	289.25
463.01	287.90
463.38	286.64
463.74	285.30
464.11	284.13
464.48	283.12
464.85	282.00
465.21	281.13
465.58	280.23
465.95	279.16
466.32	278.27
466.68	277.31
467.05	276.37
467.42	275.49
467.78	274.54
468.15	273.68
468.52	273.04
468.88	272.21
469.25	271.42
469.62	270.81
469.98	270.16
470.35	269.52
470.72	268.93
471.08	268.25
471.45	267.73
471.82	267.20
472.18	266.59
472.55	266.16
472.92	265.61
473.28	265.14
473.65	264.67
474.02	264.23
474.38	263.88
474.75	263.56
475.11	263.20
475.48	262.94
475.85	262.72
476.21	262.45
476.58	262.27
476.94	262.17
477.31	261.99
477.67	261.83
478.04	261.76
478.41	261.72
478.77	261.76
479.14	261.67
479.50	261.68
479.87	261.74
480.23	261.81
480.60	261.88
480.96	261.99
481.33	262.19
481.69	262.36
482.06	262.53
482.42	262.74
482.79	263.01
483.15	263.33
483.52	263.72
483.88	264.09
484.25	264.45
484.61	264.86
484.98	265.33
485.34	265.89
485.71	266.44
486.07	267.04
486.44	267.63
486.80	268.32
487.17	269.06
487.53	269.88
487.90	270.69
488.26	271.64
488.62	272.61
488.99	273.58
489.35	274.63
489.72	275.77
490.08	276.97
490.44	278.21
490.81	279.53
491.17	280.86
491.54	282.37
491.90	283.95
492.26	285.60
492.63	287.30
492.99	289.07
493.36	290.97
493.72	293.03
494.08	295.11
494.45	297.39
494.81	299.75
495.17	302.22
495.54	304.84
495.90	307.51
496.26	310.30
496.63	313.27
496.99	316.42
497.35	319.71
497.72	323.15
498.08	326.68
498.44	330.38
498.80	334.33
499.17	338.34
499.53	342.48
499.89	346.83
500.26	351.34
500.62	355.97
500.98	360.89
501.34	365.93
501.71	371.24
502.07	376.64
502.43	382.24
502.79	388.02
503.16	394.07
503.52	400.28
503.88	406.65
504.24	413.20
504.60	420.01
504.97	427.02
505.33	434.23
505.69	441.89
506.05	449.60
506.41	457.40
506.78	465.49
507.14	473.76
507.50	482.35
507.86	491.31
508.22	500.44
508.59	509.52
508.95	518.96
509.31	528.59
509.67	538.56
510.03	548.79
510.39	559.23
510.75	569.84
511.12	580.67
511.48	591.81
511.84	603.08
512.20	614.42
512.56	626.21
512.92	638.18
513.28	650.35
513.64	662.66
514.00	675.14
514.37	687.86
514.73	700.83
515.09	713.65
515.45	726.70
515.81	740.12
516.17	754.00
516.53	767.93
516.89	782.00
517.25	795.89
517.61	809.93
517.97	824.08
518.33	838.25
518.69	852.77
519.05	867.50
519.41	882.53
519.77	897.81
520.13	912.96
520.49	928.07
520.85	943.09
521.21	958.43
521.57	974.38
521.93	989.84
522.29	1005.91
522.65	1021.90
523.01	1037.67
523.37	1053.28
523.73	1068.99
524.09	1084.66
524.45	1100.59
524.81	1116.91
525.17	1133.35
525.53	1149.87
525.89	1166.46
526.25	1182.95
526.61	1198.90
526.97	1215.19
527.33	1231.33
527.68	1247.66
528.04	1263.83
528.40	1280.07
528.76	1296.80
529.12	1312.84
529.48	1329.40
529.84	1345.01
530.20	1361.23
530.56	1377.95
530.91	1395.01
531.27	1411.56
531.63	1427.68
531.99	1443.84
532.35	1459.44
532.71	1475.08
533.07	1491.04
533.42	1506.63
533.78	1522.33
534.14	1538.32
534.50	1553.41
534.86	1568.81
535.21	1583.66
535.57	1599.12
535.93	1614.34
536.29	1628.74
536.65	1643.58
537.00	1657.89
537.36	1672.90
537.72	1687.28
538.08	1701.42
538.44	1714.97
538.79	1728.42
539.15	1741.81
539.51	1755.16
539.87	1769.28
540.22	1782.60
540.58	1795.96
540.94	1808.81
541.29	1821.33
541.65	1833.70
542.01	1846.49
542.37	1858.74
542.72	1870.76
543.08	1882.40
543.44	1894.58
543.79	1905.66
544.15	1916.34
544.51	1927.85
544.87	1938.61
545.22	1949.23
545.58	1959.42
545.94	1969.08
546.29	1978.88
546.65	1988.71
547.01	1997.95
547.36	2006.56
547.72	2015.00
548.07	2022.99
548.43	2031.06
548.79	2038.91
549.14	2046.48
549.50	2053.76
549.86	2061.17
550.21	2068.59
550.57	2075.72
550.92	2082.19
551.28	2089.27
551.64	2096.49
551.99	2103.02
552.35	2109.16
552.70	2115.18
553.06	2121.08
553.41	2127.40
553.77	2133.42
554.13	2139.45
554.48	2145.59
554.84	2151.08
555.19	2156.39
555.55	2161.61
555.90	2166.31
556.26	2171.39
556.61	2176.01
556.97	2180.57
557.32	2184.85
557.68	2188.99
558.03	2193.29
558.39	2197.00
558.74	2201.66
559.10	2205.55
559.45	2209.21
559.81	2213.56
560.16	2217.45
560.52	2220.71
560.87	2224.10
561.23	2226.83
561.58	2229.77
561.94	2232.50
562.29	2234.86
562.64	2237.79
563.00	2240.35
563.35	2243.95
563.71	2247.11
564.06	2250.56
564.42	2253.64
564.77	2256.40
565.12	2259.07
565.48	2261.31
565.83	2263.50
566.19	2265.13
566.54	2266.10
566.89	2267.47
567.25	2268.21
567.60	2269.72
567.96	2271.72
568.31	2272.84
568.66	2274.28
569.02	2275.11
569.37	2275.52
569.72	2276.80
570.08	2277.07
570.43	2277.24
570.78	2276.91
571.14	2275.66
571.49	2274.62
571.84	2274.38
572.20	2273.52
572.55	2272.53
572.90	2270.94
573.26	2269.93
573.61	2268.35
573.96	2267.06
574.31	2264.38
574.67	2261.76
575.02	2258.30
575.37	2255.05
575.72	2251.58
576.08	2248.26
576.43	2245.17
576.78	2241.90
577.13	2238.74
577.49	2235.77
577.84	2232.70
578.19	2229.14
578.54	2225.85
578.90	2221.89
579.25	2216.56
579.60	2211.96
579.95	2207.22
580.30	2202.52
580.66	2197.42
581.01	2192.71
581.36	2188.00
581.71	2184.02
582.06	2179.94
582.42	2175.93
582.77	2171.01
583.12	2166.63
583.47	2162.34
583.82	2157.75
584.17	2152.81
584.53	2147.63
584.88	2142.24
585.23	2136.67
585.58	2131.44
585.93	2126.15
586.28	2121.37
586.63	2116.43
586.98	2111.35
587.34	2106.72
587.69	2102.07
588.04	2097.11
588.39	2091.58
588.74	2085.36
589.09	2079.44
589.44	2072.74
589.79	2066.75
590.14	2061.21
590.49	2054.73
590.84	2048.42
591.19	2042.53
591.54	2036.23
591.89	2029.13
592.25	2022.72
592.60	2015.73
592.95	2008.37
593.30	2001.25
593.65	1993.95
594.00	1987.24
594.35	1980.30
594.70	1972.55
595.05	1965.66
595.40	1958.49
595.75	1951.25
596.10	1945.23
596.45	1938.83
596.80	1932.94
597.15	1926.57
597.50	1919.91
597.85	1913.69
598.19	1907.25
598.54	1900.39
598.89	1893.85
599.24	1888.12
599.59	1881.64
599.94	1875.52
600.29	1869.26
600.64	1862.78
600.99	1855.55
601.34	1848.82
601.69	1841.92
602.04	1835.19
602.39	1827.96
602.74	1821.24
603.08	1814.52
603.43	1807.79
603.78	1800.44
604.13	1793.23
604.48	1786.08
604.83	1779.17
605.18	1772.42
605.53	1764.55
605.87	1756.48
606.22	1749.35
606.57	1741.46
606.92	1734.16
607.27	1727.23
607.62	1720.56
607.96	1713.45
608.31	1707.08
608.66	1699.50
609.01	1692.11
609.36	1684.70
609.70	1676.87
610.05	1669.07
610.40	1661.52
610.75	1653.37
611.10	1645.72
611.44	1637.23
611.79	1629.19
612.14	1620.62
612.49	1611.45
612.83	1603.02
613.18	1595.01
613.53	1586.99
613.88	1578.45
614.22	1570.09
614.57	1561.44
614.92	1553.32
615.27	1545.88
615.61	1537.63
615.96	1529.67
616.31	1521.92
616.65	1514.52
617.00	1506.86
617.35	1499.03
617.70	1490.74
618.04	1482.24
618.39	1473.97
618.74	1466.56
619.08	1458.35
619.43	1450.74
619.78	1443.86
620.12	1436.78
620.47	1429.28
620.82	1421.10
621.16	1413.73
621.51	1406.16
621.85	1398.48
622.20	1390.14
622.55	1381.66
622.89	1373.62
623.24	1366.02
623.59	1358.65
623.93	1351.09
624.28	1343.93
624.62	1336.48
624.97	1329.35
625.32	1322.54
625.66	1315.64
626.01	1308.46
626.35	1301.10
626.70	1293.38
627.04	1285.70
627.39	1277.92
627.73	1270.55
628.08	1263.58
628.43	1256.42
628.77	1249.07
629.12	1241.48
629.46	1234.20
629.81	1226.67
630.15	1219.39
630.50	1212.02
630.84	1203.97
631.19	1196.05
631.53	1188.41
631.88	1180.78
632.22	1173.22
632.57	1165.92
632.91	1158.37
633.26	1150.91
633.60	1143.54
633.95	1136.39
634.29	1129.25
634.64	1122.60
634.98	1115.21
635.32	1108.07
635.67	1101.34
636.01	1094.74
636.36	1088.02
636.70	1081.61
637.05	1075.16
637.39	1068.80
637.73	1062.29
638.08	1056.27
638.42	1050.32
638.77	1043.97
639.11	1037.56
639.45	1031.10
639.80	1024.50
640.14	1018.26
640.49	1011.76
640.83	1005.45
641.17	999.23
641.52	992.93
641.86	986.45
642.20	980.65
642.55	974.31
642.89	967.92
643.23	961.29
643.58	955.58
643.92	949.36
644.26	943.40
644.61	937.31
644.95	931.30
645.29	924.86
645.64	918.14
645.98	911.71
646.32	905.70
646.66	899.72
647.01	893.91
647.35	888.05
647.69	882.20
648.04	876.59
648.38	870.88
648.72	864.93
649.06	858.91
649.41	853.00
649.75	847.14
650.09	841.17
650.43	835.53
650.78	829.41
651.12	823.40
651.46	817.66
651.80	811.98
652.14	806.65
652.49	801.26
652.83	796.08
653.17	790.51
653.51	784.96
653.85	779.52
654.20	773.93
654.54	768.03
654.88	762.32
655.22	756.44
655.56	750.71
655.90	745.23
656.25	739.94
656.59	734.54
656.93	729.46
657.27	724.37
657.61	718.83
657.95	713.71
658.29	708.62
658.64	703.38
658.98	698.05
659.32	692.55
659.66	687.34
660.00	682.12
660.34	677.18
660.68	672.18
661.02	667.14
661.36	662.37
661.70	657.86
662.05	653.49
662.39	649.22
662.73	644.68
663.07	640.37
663.41	636.01
663.75	631.58
664.09	627.04
664.43	622.65
664.77	618.58
665.11	614.33
665.45	610.21
665.79	606.14
666.13	602.04
666.47	598.00
666.81	593.85
667.15	589.69
667.49	585.70
667.83	581.86
668.17	577.97
668.51	573.96
668.85	569.89
669.19	566.03
669.53	562.21
669.87	558.47
670.21	554.73
670.55	551.06
670.89	547.61
671.23	544.15
671.57	540.56
671.91	537.07
672.25	533.54
672.58	530.05
672.92	526.55
673.26	523.38
673.60	520.20
673.94	517.02
674.28	514.07
674.62	511.16
674.96	508.10
675.30	505.18
675.64	502.33
675.97	499.58
676.31	496.75
676.65	493.82
676.99	491.04
677.33	488.20
677.67	485.41
678.01	482.45
678.34	479.49
678.68	476.63
679.02	473.76
679.36	471.04
679.70	468.31
680.04	465.62
680.37	462.72
680.71	459.88
681.05	457.29
681.39	454.62
681.73	451.99
682.06	449.45
682.40	446.90
682.74	444.27
683.08	441.71
683.42	439.06
683.75	436.61
684.09	434.06
684.43	431.57
684.77	429.13
685.10	426.70
685.44	424.39
685.78	422.12
686.12	419.87
686.45	417.60
686.79	415.32
687.13	413.14
687.46	410.98
687.80	408.82
688.14	406.62
688.48	404.56
688.81	402.34
689.15	400.12
689.49	397.97
689.82	395.90
690.16	393.79
690.50	391.88
690.83	389.90
691.17	387.93
691.51	386.00
691.84	384.14
692.18	382.24
692.52	380.29
692.85	378.28
693.19	376.41
693.52	374.53
693.86	372.69
694.20	370.89
694.53	369.10
694.87	367.25
695.21	365.47
695.54	363.64
695.88	361.85
696.21	360.16
696.55	358.46
696.88	356.81
697.22	355.11
697.56	353.48
697.89	351.78
698.23	350.20
698.56	348.59
698.90	346.99
699.23	345.34
699.57	343.80
699.90	342.36
700.24	340.83
700.58	339.26
700.91	337.81
701.25	336.34
701.58	334.95
701.92	333.59
702.25	332.19
702.59	330.75
702.92	329.42
703.26	328.15
703.59	326.84
703.93	325.61
704.26	324.39
704.60	323.06
704.93	321.82
705.26	320.54
705.60	319.34
705.93	318.11
706.27	317.06
706.60	315.98
706.94	314.83
707.27	313.67
707.61	312.61
707.94	311.56
708.27	310.47
708.61	309.34
708.94	308.32
709.28	307.35
709.61	306.41
709.94	305.47
710.28	304.42
710.61	303.42
710.95	302.32
711.28	301.41
711.61	300.42
711.95	299.50
712.28	298.55
712.61	297.59
712.95	296.70
713.28	295.80
713.61	294.88
713.95	294.00
714.28	293.15
714.61	292.31
714.95	291.42
715.28	290.54
715.61	289.69
715.95	288.78
716.28	287.91
716.61	287.07
716.95	286.25
717.28	285.51
717.61	284.79
717.94	284.07
718.28	283.28
718.61	282.57
718.94	281.86
719.27	281.20
719.61	280.55
719.94	279.86
720.27	279.17
720.60	278.49
720.94	277.86
721.27	277.29
721.60	276.73
721.93	276.16
722.27	275.61
722.60	275.06
722.93	274.54
723.26	274.01
723.59	273.47
723.93	272.93
724.26	272.38
724.59	271.78
724.92	271.28
725.25	270.77
725.59	270.28
725.92	269.81
726.25	269.28
726.58	268.80
726.91	268.35
727.24	267.87
727.57	267.43
727.91	266.92
728.24	266.45
728.57	265.92
728.90	265.47
729.23	265.02
729.56	264.63
729.89	264.17
730.22	263.69
730.55	263.21
730.89	262.80
731.22	262.33
731.55	261.91
731.88	261.47
732.21	261.00
732.54	260.57
732.87	260.15
733.20	259.76
733.53	259.36
733.86	258.97
734.19	258.55
734.52	258.19
734.85	257.88
735.18	257.46
735.51	257.11
735.84	256.73
736.17	256.37
736.50	255.94
736.83	255.69
737.16	255.37
737.49	255.05
737.82	254.62
738.15	254.31
738.48	253.98
738.81	253.62
739.14	253.28
739.47	252.94
739.80	252.59
740.13	252.30
740.46	251.93
740.79	251.59
741.12	251.26
741.45	250.91
741.78	250.56
742.11	250.23
742.44	249.86
742.77	249.57
743.10	249.25
743.43	248.94
743.75	248.55
744.08	248.38
744.41	248.09
744.74	247.88
745.07	247.58
745.40	247.34
745.73	247.13
746.06	246.86
746.39	246.61
746.71	246.35
747.04	246.06
747.37	245.80
747.70	245.55
748.03	245.32
748.36	245.11
748.68	244.84
749.01	244.62
749.34	244.46
749.67	244.20
750.00	243.98
750.33	243.81
750.65	243.60
750.98	243.23
751.31	242.97
751.64	242.72
751.97	242.57
752.29	242.33
752.62	242.07
752.95	241.85
753.28	241.64
753.60	241.40
753.93	241.20
754.26	241.02
754.59	240.78
754.91	240.56
755.24	240.30
755.57	240.11
755.90	239.90
756.22	239.68
756.55	239.50
756.88	239.29
757.20	239.08
757.53	238.87
757.86	238.69
758.19	238.54
758.51	238.38
758.84	238.13
759.17	237.97
759.49	237.79
759.82	237.70
760.15	237.54
760.47	237.39
760.80	237.23
761.13	237.11
761.45	236.98
761.78	236.84
762.11	236.73
762.43	236.60
762.76	236.47
763.08	236.35
763.41	236.23
763.74	236.13
764.06	235.98
764.39	235.87
764.71	235.75
765.04	235.64
765.37	235.50
765.69	235.39
766.02	235.28
766.34	235.15
766.67	235.01
767.00	234.92
767.32	234.85
767.65	234.79
767.97	234.63
768.30	234.53
768.62	234.38
768.95	234.26
769.27	234.18
769.60	234.09
769.92	233.96
770.25	233.82
770.57	233.66
770.90	233.57
771.22	233.47
771.55	233.34
771.87	233.22
772.20	233.14
772.52	233.14
772.85	233.14
773.17	233.07
773.50	232.99
773.82	232.90
774.15	232.79
774.47	232.66
774.80	232.62
775.12	232.50
775.45	232.46
775.77	232.41
776.09	232.32
776.42	232.22
776.74	232.19
777.07	232.13
777.39	232.08
777.72	231.99
778.04	231.90
778.36	231.84
778.69	231.82
779.01	231.74
779.33	231.59
779.66	231.43
779.98	231.35
780.31	231.25
780.63	231.23
780.95	231.17
781.28	231.10
781.60	231.05
781.92	230.98
782.25	230.92
782.57	230.83
782.89	230.75
783.22	230.69
783.54	230.60
783.86	230.50
784.19	230.43
784.51	230.40
784.83	230.36
785.16	230.32
785.48	230.25
785.80	230.20
786.12	230.14
786.45	230.07
786.77	230.04
787.09	230.01
787.42	229.93
787.74	229.89
788.06	229.82
788.38	229.75
788.71	229.70
789.03	229.68
789.35	229.66
789.67	229.59
789.99	229.56
790.32	229.49
790.64	229.50
790.96	229.56
791.28	229.52
791.61	229.45
791.93	229.45
792.25	229.40
792.57	229.44
792.89	229.40
793.21	229.35
793.54	229.30
793.86	229.26
794.18	229.19
794.50	229.11
794.82	229.10
795.14	229.07
795.47	229.06
795.79	229.00
796.11	228.98
796.43	228.95
796.75	228.89
797.07	228.87
797.39	228.87
797.71	228.75
798.04	228.73
798.36	228.70
798.68	228.65
799.00	228.63
799.32	228.53
799.64	228.51
799.96	228.50
800.28	228.51
800.60	228.48
800.92	228.48
801.24	228.48
801.56	228.47
801.89	228.43
802.21	228.41
802.53	228.38
802.85	228.38
803.17	228.40
803.49	228.38
803.81	228.34
804.13	228.26
804.45	228.27
804.77	228.21
805.09	228.20
805.41	228.18
805.73	228.14
806.05	228.11
806.37	228.08
806.69	228.04
807.01	227.99
807.33	227.96
807.65	227.89
807.97	227.91
808.28	227.86
808.60	227.85
808.92	227.79
809.24	227.84
809.56	227.80
809.88	227.77
810.20	227.77
810.52	227.77
810.84	227.75
811.16	227.72
811.48	227.68
811.80	227.72
812.12	227.67
812.43	227.68
812.75	227.68
813.07	227.65
813.39	227.63
813.71	227.58
814.03	227.56
814.35	227.55
814.67	227.48
814.98	227.45
815.30	227.43
815.62	227.42
815.94	227.33
816.26	227.34
816.58	227.30
816.89	227.27
817.21	227.22
817.53	227.21
817.85	227.17
818.17	227.14
818.48	227.07
818.80	227.08
819.12	227.02
819.44	226.99
819.76	226.95
820.07	226.96
820.39	226.95
820.71	226.93
821.03	226.91
821.34	226.91
821.66	226.91
821.98	226.88
822.30	226.84
822.61	226.87
822.93	226.78
823.25	226.75
823.57	226.70
823.88	226.73
824.20	226.69
824.52	226.67
824.83	226.66
825.15	226.64
825.47	226.58
825.79	226.59
826.10	226.56
826.42	226.55
826.74	226.51
827.05	226.49
827.37	226.46
827.69	226.44
828.00	226.44
828.32	226.42
828.64	226.42
828.95	226.48
829.27	226.44
829.58	226.44
829.90	226.45
830.22	226.46
830.53	226.40
830.85	226.40
831.17	226.34
831.48	226.32
831.80	226.28
832.11	226.31
832.43	226.28
832.75	226.30
833.06	226.34
833.38	226.32
833.69	226.31
834.01	226.37
834.32	226.36
834.64	226.33
834.96	226.31
835.27	226.30
835.59	226.24
835.90	226.19
836.22	226.17
836.53	226.14
836.85	226.11
837.16	226.22
837.48	226.25
837.79	226.29
838.11	226.31
838.42	226.33
838.74	226.33
839.05	226.29
839.37	226.23
839.68	226.14
840.00	226.13
840.31	226.12
840.63	226.07
840.94	226.03
841.26	225.98
841.57	225.97
841.88	225.98
842.20	225.93
842.51	225.94
842.83	225.93
843.14	226.04
843.46	226.05
843.77	225.98
844.08	225.96
844.40	225.95
844.71	225.94
845.03	225.92
845.34	225.93
845.65	225.97
845.97	226.01
846.28	226.05
846.60	226.04
846.91	226.03
847.22	226.03
847.54	226.08
847.85	226.09
848.16	226.10
848.48	226.11
848.79	226.17
849.10	226.20
849.42	226.19
849.73	226.09
850.04	226.12
850.36	226.08
850.67	226.09
850.98	226.13
851.30	226.14
851.61	226.14
851.92	226.11
852.23	226.13
852.55	226.11
852.86	226.09
853.17	226.12
853.49	226.15
853.80	226.17
854.11	226.15
854.42	226.18
854.74	226.18
855.05	226.16
855.36	226.12
855.67	226.11
855.99	226.14
856.30	226.24
856.61	226.20
856.92	226.22
857.23	226.20
857.55	226.13
857.86	226.10
858.17	226.11
858.48	226.10
858.79	226.08
859.11	226.09
859.42	226.10
859.73	226.08
860.04	226.08
860.35	226.06
860.66	226.03
860.98	226.01
861.29	226.04
861.60	226.04
861.91	226.05
862.22	226.02
862.53	225.98
862.84	225.82
863.16	225.84
863.47	225.80
863.78	225.80
864.09	225.81
864.40	225.81
864.71	225.83
865.02	225.82
865.33	225.76
865.64	225.76
865.95	225.72
866.27	225.75
866.58	225.72
866.89	225.72
867.20	225.72
867.51	225.69
867.82	225.65
868.13	225.64
868.44	225.59
868.75	225.61
869.06	225.62
869.37	225.67
869.68	225.62
869.99	225.63
870.30	225.62
870.61	225.63
870.92	225.62
871.23	225.59
871.54	225.60
871.85	225.63
872.16	225.62
872.47	225.63
872.78	225.60
873.09	225.56
873.40	225.53
873.71	225.54
874.02	225.54
874.33	225.54
874.64	225.57
874.95	225.62
875.26	225.58
875.56	225.57
875.87	225.56
876.18	225.56
876.49	225.64
876.80	225.65
877.11	225.64
877.42	225.66
877.73	225.62
878.04	225.60
878.35	225.62
878.66	225.63
878.96	225.64
879.27	225.65
879.58	225.68
879.89	225.70
880.20	225.75
880.51	225.74
880.82	225.72
881.12	225.69
881.43	225.67
881.74	225.69
882.05	225.69
882.36	225.67
882.67	225.68
882.97	225.59
883.28	225.59
883.59	225.58
883.90	225.58
884.21	225.63
884.51	225.62
884.82	225.58
885.13	225.53
885.44	225.52
885.74	225.52
886.05	225.50
886.36	225.50
886.67	225.44
886.98	225.49
887.28	225.54
887.59	225.51
887.90	225.50
888.20	225.52
888.51	225.53
888.82	225.53
889.13	225.53
889.43	225.57
889.74	225.55
890.05	225.58
890.35	225.58
890.66	225.54
890.97	225.53
891.28	225.55
891.58	225.57
891.89	225.55
892.20	225.54
892.50	225.52
892.81	225.54
893.12	225.55
893.42	225.50
893.73	225.48
894.04	225.49
894.34	225.52
894.65	225.50
894.95	225.47
895.26	225.46
895.57	225.50
895.87	225.45
896.18	225.44
896.48	225.44
896.79	225.43
897.10	225.42
897.40	225.41
897.71	225.42
898.01	225.40
898.32	225.43
898.63	225.41
898.93	225.40
899.24	225.36
899.54	225.33
899.85	225.32
900.15	225.28
900.46	225.27
900.76	225.26
901.07	225.25
901.38	225.26
901.68	225.30
901.99	225.24
902.29	225.21
902.60	225.21
902.90	225.20
903.21	225.16
903.51	225.17
903.82	225.20
904.12	225.19
904.43	225.20
904.73	225.19
905.03	225.19
905.34	225.33
905.64	225.33
905.95	225.32
906.25	225.30
906.56	225.32
906.86	225.32
907.17	225.31
907.47	225.31
907.77	225.29
908.08	225.26
908.38	225.26
908.69	225.29
908.99	225.32
909.30	225.32
909.60	225.35
909.90	225.35
910.21	225.30
910.51	225.29
910.81	225.28
911.12	225.30
911.42	225.29
911.73	225.16
912.03	225.18
912.33	225.21
912.64	225.23
912.94	225.22
913.24	225.21
913.55	225.22
913.85	225.21
914.15	225.21
914.46	225.22
914.76	225.22
915.06	225.20
915.37	225.17
915.67	225.14
915.97	225.10
916.27	225.08
916.58	225.10
916.88	225.10
917.18	225.10
917.49	225.11
917.79	225.12
918.09	225.12
918.39	225.10
918.70	225.05
919.00	225.06
919.30	225.08
919.60	225.08
919.91	225.07
920.21	225.07
920.51	225.04
920.81	225.06
921.12	225.07
921.42	225.06
921.72	225.08
922.02	225.12
922.32	225.16
922.63	225.16
922.93	225.22
923.23	225.23
923.53	225.22
923.83	225.20
924.13	225.20
924.44	225.20
924.74	225.23
925.04	225.32
925.34	225.31
925.64	225.30
925.94	225.28
926.24	225.35
926.55	225.35
926.85	225.38
927.15	225.37
927.45	225.37
927.75	225.40
928.05	225.38
928.35	225.36
928.65	225.38
928.95	225.41
929.26	225.37
929.56	225.39
929.86	225.44
930.16	225.43
930.46	225.42
930.76	225.47
931.06	225.45
931.36	225.41
931.66	225.41
931.96	225.41
932.26	225.43
932.56	225.38
932.86	225.42
933.16	225.44
933.46	225.41
933.76	225.40
934.06	225.42
934.36	225.44
934.66	225.44
934.96	225.42
935.26	225.45
935.56	225.46
935.86	225.44
936.16	225.43
936.46	225.42
936.76	225.45
937.06	225.42
937.36	225.43
937.66	225.42
937.96	225.43
938.26	225.45
938.56	225.45
938.86	225.47
939.16	225.45
939.46	225.44
939.76	225.49
940.06	225.48
940.35	225.47
940.65	225.43
940.95	225.46
941.25	225.45
941.55	225.40
941.85	225.42
942.15	225.43
942.45	225.45
942.75	225.44
943.04	225.40
943.34	225.38
943.64	225.35
943.94	225.36
944.24	225.37
944.54	225.36
944.84	225.39
945.13	225.36
945.43	225.33
945.73	225.33
946.03	225.31
946.33	225.34
946.62	225.31
946.92	225.32
947.22	225.32
947.52	225.31
947.82	225.33
948.11	225.29
948.41	225.28
948.71	225.21
949.01	225.22
949.31	225.22
949.60	225.25
949.90	225.27
950.20	225.27
950.50	225.26
950.79	225.24
951.09	225.21
951.39	225.21
951.69	225.22
951.98	225.22
952.28	225.23
952.58	225.19
952.87	225.18
953.17	225.18
953.47	225.14
953.76	225.15
954.06	225.11
954.36	225.09
954.66	225.06
954.95	225.07
955.25	225.06
955.55	225.06
955.84	225.02
956.14	225.03
956.44	225.01
956.73	224.97
957.03	224.96
957.32	224.95
957.62	224.94
957.92	224.94
958.21	224.96
958.51	225.04
958.81	225.04
959.10	225.04
959.40	225.03
959.69	225.06
959.99	225.06
960.29	225.08
960.58	225.06
960.88	225.10
961.17	225.07
961.47	225.07
961.76	225.06
962.06	225.08
962.36	225.05
962.65	225.02
962.95	225.03
963.24	225.02
963.54	225.04
963.83	225.03
964.13	225.04
964.42	225.00
964.72	224.94
965.01	224.97
965.31	224.95
965.60	224.98
965.90	225.03
966.19	225.01
966.49	225.01
966.78	225.02
967.08	224.99
967.37	225.03
967.67	225.03
967.96	225.06
968.26	225.09
968.55	225.10
968.85	225.13
969.14	225.14
969.43	225.13
969.73	225.12
970.02	225.14
970.32	225.14
970.61	225.14
970.91	225.09
971.20	225.08
971.49	225.12
971.79	225.11
972.08	225.07
972.38	225.09
972.67	225.09
972.96	225.12
973.26	225.13
973.55	225.15
973.85	225.18
974.14	225.17
974.43	225.15
974.73	225.15
975.02	225.16
975.31	225.18
975.61	225.20
975.90	225.19
976.19	225.21
976.49	225.21
976.78	225.21
977.07	225.23
977.37	225.24
977.66	225.27
977.95	225.26
978.24	225.30
978.54	225.33
978.83	225.34
979.12	225.36
979.42	225.39
979.71	225.41
980.00	225.39
980.29	225.39
980.59	225.41
980.88	225.45
981.17	225.45
981.46	225.44
981.76	225.43
982.05	225.49
982.34	225.47
982.63	225.47
982.93	225.50
983.22	225.51
983.51	225.51
983.80	225.52
984.09	225.55
984.39	225.51
984.68	225.49
984.97	225.47
985.26	225.47
985.55	225.46
985.85	225.43
986.14	225.42
986.43	225.43
986.72	225.40
987.01	225.36
987.30	225.34
987.59	225.35
987.89	225.38
988.18	225.36
988.47	225.34
988.76	225.34
989.05	225.31
989.34	225.32
989.63	225.34
989.92	225.28
990.22	225.24
990.51	225.22
990.80	225.18
991.09	225.20
991.38	225.17
991.67	225.14
991.96	225.11
992.25	225.14
992.54	225.09
992.83	225.06
993.12	225.07
993.41	225.11
993.70	225.15
993.99	225.14
994.28	225.12
994.58	225.11
994.87	225.09
995.16	225.09
995.45	225.05
995.74	225.01
996.03	225.04
996.32	225.05
996.61	225.04
996.90	225.04
997.19	225.03
997.48	225.04
997.77	225.07
998.06	225.10
998.34	225.07
998.63	225.09
998.92	225.12
999.21	225.11
999.50	225.12
999.79	225.07
1000.08	225.05
1000.37	225.03
1000.66	225.05
1000.95	225.06
1001.24	225.05
1001.53	225.09
1001.82	225.08
1002.11	225.07
1002.40	225.08
1002.68	225.12
1002.97	225.21
1003.26	225.21
1003.55	225.19
1003.84	225.19
1004.13	225.20
1004.42	225.21
1004.71	225.23
1004.99	225.22
1005.28	225.25
1005.57	225.25
1005.86	225.25
1006.15	225.25
1006.44	225.28
1006.72	225.31
1007.01	225.32
1007.30	225.36
1007.59	225.37
1007.88	225.39
1008.17	225.41
1008.45	225.39
1008.74	225.35
1009.03	225.34
1009.32	225.32
1009.60	225.30
1009.89	225.30
1010.18	225.25
1010.47	225.26
1010.76	225.29
1011.04	225.29
1011.33	225.30
1011.62	225.30
1011.91	225.31
1012.19	225.34
1012.48	225.31
1012.77	225.29
1013.05	225.33
1013.34	225.32
1013.63	225.31
1013.92	225.33
1014.20	225.32
1014.49	225.35
1014.78	225.39
1015.06	225.33
1015.35	225.34
1015.64	225.38
1015.92	225.40
1016.21	225.43
1016.50	225.40
1016.78	225.41
1017.07	225.43
1017.36	225.43
1017.64	225.42
1017.93	225.43
1018.22	225.41
1018.50	225.45
1018.79	225.46
1019.08	225.42
1019.36	225.45
1019.65	225.43
1019.93	225.43
1020.22	225.42
1020.51	225.45
1020.79	225.44
1021.08	225.43
1021.36	225.60
1021.65	225.30
1021.94	225.58
1022.22	225.67
1022.51	225.18
1022.79	225.70
1023.08	225.18
1023.36	226.28
1023.65	225.32
>>>>>End Processed Spectral Data<<<<<
