SpectraSuite Data File
++++++++++++++++++++++++++++++++++++
Date: Fri Feb 01 15:32:29 EST 2013
User: group
Dark Spectrum Present: No
Reference Spectrum Present: No
Number of Sampled Component Spectra: 1
Spectrometers: USB2E7196
Integration Time (usec): 35000 (USB2E7196)
Spectra Averaged: 100 (USB2E7196)
Boxcar Smoothing: 10 (USB2E7196)
Correct for Electrical Dark: No (USB2E7196)
Strobe/Lamp Enabled: No (USB2E7196)
Correct for Detector Non-linearity: No (USB2E7196)
Correct for Stray Light: No (USB2E7196)
Number of Pixels in Processed Spectrum: 2048
>>>>>Begin Processed Spectral Data<<<<<
339.09	0.00
339.48	215.06
339.86	216.54
340.24	217.88
340.63	219.66
341.01	221.96
341.39	222.10
341.78	223.83
342.16	224.57
342.54	225.94
342.93	213.47
343.31	224.27
343.69	224.82
344.07	225.29
344.46	225.72
344.84	226.09
345.22	226.34
345.60	226.59
345.99	226.77
346.37	226.91
346.75	226.98
347.13	227.10
347.52	227.14
347.90	227.22
348.28	227.26
348.66	227.28
349.05	227.30
349.43	227.33
349.81	227.40
350.19	227.43
350.57	227.50
350.96	227.61
351.34	227.68
351.72	227.75
352.10	227.85
352.48	227.92
352.87	227.95
353.25	228.01
353.63	228.07
354.01	228.09
354.39	228.16
354.77	228.24
355.15	228.30
355.54	228.34
355.92	228.35
356.30	228.40
356.68	228.53
357.06	228.58
357.44	228.65
357.82	228.70
358.20	228.81
358.58	228.84
358.97	228.90
359.35	228.97
359.73	229.06
360.11	229.10
360.49	229.13
360.87	229.23
361.25	229.30
361.63	229.38
362.01	229.44
362.39	229.42
362.77	229.42
363.15	229.45
363.53	229.48
363.91	229.55
364.29	229.56
364.67	229.48
365.05	229.49
365.43	229.45
365.81	229.42
366.19	229.44
366.57	229.50
366.95	229.48
367.33	229.47
367.71	229.44
368.09	229.43
368.47	229.42
368.85	229.35
369.23	229.31
369.61	229.23
369.99	229.23
370.37	229.23
370.75	229.24
371.13	229.17
371.51	229.13
371.89	229.05
372.27	229.03
372.65	228.96
373.03	228.90
373.41	228.88
373.78	228.83
374.16	228.67
374.54	228.58
374.92	228.49
375.30	228.40
375.68	228.29
376.06	228.21
376.44	228.12
376.82	228.04
377.19	227.97
377.57	227.88
377.95	227.78
378.33	227.70
378.71	227.56
379.09	227.47
379.47	227.42
379.84	227.35
380.22	227.26
380.60	227.18
380.98	227.13
381.36	227.06
381.73	226.97
382.11	226.94
382.49	226.88
382.87	226.79
383.25	226.74
383.62	226.81
384.00	226.73
384.38	226.68
384.76	226.62
385.13	226.60
385.51	226.55
385.89	226.48
386.27	226.44
386.64	226.44
387.02	226.40
387.40	226.33
387.78	226.32
388.15	226.27
388.53	226.27
388.91	226.22
389.29	226.17
389.66	226.15
390.04	226.11
390.42	226.10
390.79	226.10
391.17	226.07
391.55	225.95
391.92	225.96
392.30	225.97
392.68	225.98
393.05	225.96
393.43	225.97
393.81	225.99
394.18	225.99
394.56	226.02
394.94	226.09
395.31	226.10
395.69	226.16
396.06	226.20
396.44	226.23
396.82	226.28
397.19	226.34
397.57	226.41
397.95	226.49
398.32	226.54
398.70	226.62
399.07	226.72
399.45	226.78
399.82	226.85
400.20	226.89
400.58	226.96
400.95	227.03
401.33	227.12
401.70	227.28
402.08	227.41
402.45	227.48
402.83	227.62
403.20	227.73
403.58	227.79
403.95	227.93
404.33	228.04
404.71	228.14
405.08	228.35
405.46	228.45
405.83	228.60
406.21	228.73
406.58	228.88
406.96	229.00
407.33	229.19
407.70	229.35
408.08	229.62
408.45	229.87
408.83	230.10
409.20	230.32
409.58	230.50
409.95	230.73
410.33	231.01
410.70	231.25
411.08	231.54
411.45	231.87
411.82	232.15
412.20	232.51
412.57	232.95
412.95	233.26
413.32	233.68
413.69	234.10
414.07	234.55
414.44	235.01
414.82	235.52
415.19	236.05
415.56	236.64
415.94	237.18
416.31	237.83
416.68	238.46
417.06	239.17
417.43	239.86
417.81	240.65
418.18	241.43
418.55	242.23
418.93	243.08
419.30	243.97
419.67	244.92
420.04	245.87
420.42	246.85
420.79	248.02
421.16	249.18
421.54	250.37
421.91	251.58
422.28	252.83
422.66	254.14
423.03	255.45
423.40	256.79
423.77	258.25
424.15	259.64
424.52	261.12
424.89	262.75
425.26	264.29
425.64	265.74
426.01	267.34
426.38	269.03
426.75	270.75
427.13	272.48
427.50	274.29
427.87	276.17
428.24	278.04
428.61	279.77
428.99	281.72
429.36	283.82
429.73	285.92
430.10	287.96
430.47	290.06
430.85	292.21
431.22	294.49
431.59	296.87
431.96	299.11
432.33	301.61
432.70	304.01
433.08	306.84
433.45	309.52
433.82	312.14
434.19	315.05
434.56	317.84
434.93	320.49
435.30	323.15
435.68	326.06
436.05	328.96
436.42	331.78
436.79	334.31
437.16	337.03
437.53	339.86
437.90	342.68
438.27	345.46
438.64	348.31
439.01	350.88
439.38	353.12
439.75	355.33
440.13	357.84
440.50	360.15
440.87	362.02
441.24	363.92
441.61	366.11
441.98	367.58
442.35	369.42
442.72	371.28
443.09	373.08
443.46	374.12
443.83	374.69
444.20	375.19
444.57	376.03
444.94	376.29
445.31	376.61
445.68	377.00
446.05	377.04
446.42	376.62
446.79	376.20
447.16	375.71
447.53	375.35
447.90	374.17
448.27	373.05
448.64	371.45
449.01	370.30
449.37	368.28
449.74	366.39
450.11	364.13
450.48	361.68
450.85	359.16
451.22	356.98
451.59	354.89
451.96	352.95
452.33	350.27
452.70	347.92
453.07	345.05
453.43	342.12
453.80	339.33
454.17	336.66
454.54	334.07
454.91	331.36
455.28	328.66
455.65	326.13
456.02	323.64
456.38	321.45
456.75	318.77
457.12	316.55
457.49	314.29
457.86	312.12
458.23	310.25
458.59	308.16
458.96	306.06
459.33	304.22
459.70	302.34
460.07	300.90
460.43	299.17
460.80	297.59
461.17	296.13
461.54	294.64
461.91	293.17
462.27	291.75
462.64	290.52
463.01	289.20
463.38	287.96
463.74	286.58
464.11	285.43
464.48	284.40
464.85	283.30
465.21	282.42
465.58	281.44
465.95	280.33
466.32	279.42
466.68	278.50
467.05	277.59
467.42	276.69
467.78	275.77
468.15	274.88
468.52	274.22
468.88	273.34
469.25	272.59
469.62	271.99
469.98	271.30
470.35	270.65
470.72	270.02
471.08	269.32
471.45	268.80
471.82	268.24
472.18	267.67
472.55	267.17
472.92	266.66
473.28	266.27
473.65	265.81
474.02	265.35
474.38	264.97
474.75	264.69
475.11	264.32
475.48	264.04
475.85	263.81
476.21	263.55
476.58	263.43
476.94	263.25
477.31	263.08
477.67	262.94
478.04	262.83
478.41	262.80
478.77	262.86
479.14	262.79
479.50	262.82
479.87	262.85
480.23	262.99
480.60	263.02
480.96	263.12
481.33	263.31
481.69	263.56
482.06	263.81
482.42	263.95
482.79	264.24
483.15	264.57
483.52	264.97
483.88	265.32
484.25	265.67
484.61	266.11
484.98	266.60
485.34	267.17
485.71	267.80
486.07	268.43
486.44	269.00
486.80	269.71
487.17	270.40
487.53	271.23
487.90	272.08
488.26	273.05
488.62	274.02
488.99	275.03
489.35	276.09
489.72	277.21
490.08	278.44
490.44	279.69
490.81	281.00
491.17	282.35
491.54	283.87
491.90	285.40
492.26	287.07
492.63	288.74
492.99	290.51
493.36	292.35
493.72	294.36
494.08	296.48
494.45	298.72
494.81	301.11
495.17	303.59
495.54	306.17
495.90	308.87
496.26	311.65
496.63	314.61
496.99	317.76
497.35	321.02
497.72	324.40
498.08	327.94
498.44	331.64
498.80	335.54
499.17	339.52
499.53	343.69
499.89	348.05
500.26	352.58
500.62	357.26
500.98	362.25
501.34	367.31
501.71	372.63
502.07	378.09
502.43	383.68
502.79	389.45
503.16	395.48
503.52	401.64
503.88	408.04
504.24	414.65
504.60	421.51
504.97	428.65
505.33	436.02
505.69	443.69
506.05	451.45
506.41	459.35
506.78	467.52
507.14	476.03
507.50	484.73
507.86	493.81
508.22	502.98
508.59	512.22
508.95	521.87
509.31	531.65
509.67	541.75
510.03	552.07
510.39	562.60
510.75	573.43
511.12	584.49
511.48	595.81
511.84	607.32
512.20	618.80
512.56	630.74
512.92	642.91
513.28	655.22
513.64	667.71
514.00	680.48
514.37	693.43
514.73	706.50
515.09	719.57
515.45	732.83
515.81	746.50
516.17	760.40
516.53	774.45
516.89	788.70
517.25	802.97
517.61	817.42
517.97	831.97
518.33	846.43
518.69	861.18
519.05	876.20
519.41	891.44
519.77	907.01
520.13	922.46
520.49	937.82
520.85	953.30
521.21	969.10
521.57	985.31
521.93	1001.22
522.29	1017.59
522.65	1033.96
523.01	1050.19
523.37	1066.18
523.73	1082.44
524.09	1098.66
524.45	1115.07
524.81	1131.66
525.17	1148.46
525.53	1165.33
525.89	1182.27
526.25	1199.22
526.61	1215.65
526.97	1232.37
527.33	1248.86
527.68	1265.50
528.04	1282.03
528.40	1298.67
528.76	1315.71
529.12	1332.36
529.48	1349.19
529.84	1365.28
530.20	1381.87
530.56	1398.96
530.91	1416.53
531.27	1433.33
531.63	1449.76
531.99	1466.38
532.35	1482.40
532.71	1498.33
533.07	1514.54
533.42	1530.47
533.78	1546.40
534.14	1562.70
534.50	1578.06
534.86	1594.06
535.21	1609.44
535.57	1625.60
535.93	1641.24
536.29	1656.11
536.65	1671.21
537.00	1686.13
537.36	1701.32
537.72	1715.82
538.08	1730.30
538.44	1744.01
538.79	1757.99
539.15	1771.78
539.51	1785.40
539.87	1799.83
540.22	1813.71
540.58	1827.73
540.94	1841.03
541.29	1854.15
541.65	1866.85
542.01	1880.25
542.37	1892.57
542.72	1904.94
543.08	1916.59
543.44	1929.00
543.79	1940.29
544.15	1951.40
544.51	1962.94
544.87	1974.15
545.22	1985.05
545.58	1995.17
545.94	2005.06
546.29	2014.94
546.65	2024.66
547.01	2034.01
547.36	2042.79
547.72	2051.30
548.07	2059.09
548.43	2067.20
548.79	2075.18
549.14	2082.78
549.50	2090.09
549.86	2097.88
550.21	2105.30
550.57	2112.57
550.92	2119.16
551.28	2126.19
551.64	2133.25
551.99	2139.78
552.35	2145.84
552.70	2151.90
553.06	2157.99
553.41	2164.28
553.77	2170.40
554.13	2176.64
554.48	2182.75
554.84	2187.93
555.19	2193.30
555.55	2198.52
555.90	2203.04
556.26	2207.96
556.61	2212.67
556.97	2216.83
557.32	2220.86
557.68	2224.93
558.03	2229.12
558.39	2232.86
558.74	2237.63
559.10	2241.39
559.45	2245.03
559.81	2249.46
560.16	2253.47
560.52	2256.55
560.87	2259.94
561.23	2262.51
561.58	2265.34
561.94	2267.88
562.29	2270.50
562.64	2273.05
563.00	2275.69
563.35	2279.24
563.71	2282.23
564.06	2285.41
564.42	2288.22
564.77	2290.71
565.12	2292.95
565.48	2294.88
565.83	2296.60
566.19	2297.67
566.54	2298.72
566.89	2299.88
567.25	2300.38
567.60	2301.62
567.96	2303.40
568.31	2304.25
568.66	2305.34
569.02	2305.97
569.37	2306.18
569.72	2306.95
570.08	2307.15
570.43	2307.15
570.78	2306.51
571.14	2305.08
571.49	2303.75
571.84	2303.54
572.20	2302.45
572.55	2301.39
572.90	2299.73
573.26	2298.41
573.61	2296.73
573.96	2294.78
574.31	2291.73
574.67	2288.58
575.02	2284.89
575.37	2281.50
575.72	2277.69
576.08	2274.27
576.43	2270.89
576.78	2267.20
577.13	2264.05
577.49	2260.97
577.84	2257.48
578.19	2253.73
578.54	2249.92
578.90	2245.65
579.25	2240.05
579.60	2234.91
579.95	2229.81
580.30	2224.86
580.66	2219.67
581.01	2214.61
581.36	2209.61
581.71	2205.42
582.06	2201.05
582.42	2196.51
582.77	2191.13
583.12	2186.43
583.47	2181.71
583.82	2176.56
584.17	2171.33
584.53	2165.70
584.88	2159.87
585.23	2153.70
585.58	2148.19
585.93	2142.68
586.28	2137.81
586.63	2132.71
586.98	2127.55
587.34	2122.85
587.69	2117.95
588.04	2112.55
588.39	2106.77
588.74	2100.23
589.09	2094.04
589.44	2087.19
589.79	2081.22
590.14	2075.66
590.49	2069.10
590.84	2062.57
591.19	2056.54
591.54	2049.92
591.89	2042.52
592.25	2035.62
592.60	2028.54
592.95	2020.92
593.30	2013.59
593.65	2005.94
594.00	1998.89
594.35	1991.60
594.70	1983.44
595.05	1976.05
595.40	1968.71
595.75	1961.17
596.10	1954.81
596.45	1947.76
596.80	1941.53
597.15	1934.67
597.50	1927.38
597.85	1920.88
598.19	1914.22
598.54	1907.09
598.89	1900.56
599.24	1894.58
599.59	1887.78
599.94	1881.60
600.29	1875.27
600.64	1868.71
600.99	1861.16
601.34	1854.16
601.69	1847.16
602.04	1840.20
602.39	1832.84
602.74	1826.07
603.08	1819.39
603.43	1812.79
603.78	1805.74
604.13	1798.47
604.48	1791.18
604.83	1784.47
605.18	1777.48
605.53	1769.52
605.87	1761.46
606.22	1754.17
606.57	1746.23
606.92	1738.91
607.27	1731.68
607.62	1724.62
607.96	1717.24
608.31	1710.63
608.66	1702.95
609.01	1695.32
609.36	1687.67
609.70	1679.57
610.05	1671.22
610.40	1663.41
610.75	1654.94
611.10	1647.12
611.44	1638.63
611.79	1630.65
612.14	1621.76
612.49	1612.65
612.83	1604.17
613.18	1596.07
613.53	1587.92
613.88	1579.35
614.22	1571.16
614.57	1562.52
614.92	1554.48
615.27	1546.86
615.61	1538.53
615.96	1530.50
616.31	1522.93
616.65	1515.61
617.00	1508.06
617.35	1500.56
617.70	1492.21
618.04	1483.72
618.39	1475.52
618.74	1468.00
619.08	1459.72
619.43	1452.19
619.78	1445.24
620.12	1438.09
620.47	1430.57
620.82	1422.50
621.16	1415.13
621.51	1407.47
621.85	1399.87
622.20	1391.35
622.55	1383.06
622.89	1375.19
623.24	1367.58
623.59	1360.26
623.93	1352.72
624.28	1345.42
624.62	1337.91
624.97	1330.88
625.32	1324.20
625.66	1317.15
626.01	1309.88
626.35	1302.39
626.70	1294.70
627.04	1286.87
627.39	1279.09
627.73	1271.63
628.08	1264.55
628.43	1257.09
628.77	1249.70
629.12	1242.10
629.46	1234.90
629.81	1227.47
630.15	1220.35
630.50	1212.97
630.84	1204.83
631.19	1196.98
631.53	1189.61
631.88	1182.07
632.22	1174.41
632.57	1167.10
632.91	1159.55
633.26	1152.12
633.60	1144.86
633.95	1137.89
634.29	1130.86
634.64	1124.08
634.98	1116.84
635.32	1109.74
635.67	1103.24
636.01	1096.58
636.36	1089.83
636.70	1083.46
637.05	1076.87
637.39	1070.31
637.73	1063.88
638.08	1057.94
638.42	1051.94
638.77	1045.48
639.11	1038.86
639.45	1032.55
639.80	1025.85
640.14	1019.44
640.49	1013.00
640.83	1006.68
641.17	1000.38
641.52	994.14
641.86	987.85
642.20	981.97
642.55	975.77
642.89	969.23
643.23	962.70
643.58	956.87
643.92	950.53
644.26	944.41
644.61	938.45
644.95	932.35
645.29	925.74
645.64	918.96
645.98	912.58
646.32	906.76
646.66	900.64
647.01	894.86
647.35	889.18
647.69	883.31
648.04	877.75
648.38	871.88
648.72	865.83
649.06	859.66
649.41	853.74
649.75	847.65
650.09	841.76
650.43	836.02
650.78	829.88
651.12	823.91
651.46	818.21
651.80	812.41
652.14	807.03
652.49	801.62
652.83	796.50
653.17	790.78
653.51	784.98
653.85	779.65
654.20	774.00
654.54	768.00
654.88	762.22
655.22	756.28
655.56	750.54
655.90	745.13
656.25	739.92
656.59	734.52
656.93	729.44
657.27	724.29
657.61	718.81
657.95	713.74
658.29	708.70
658.64	703.47
658.98	698.17
659.32	692.65
659.66	687.46
660.00	682.17
660.34	677.31
660.68	672.43
661.02	667.36
661.36	662.63
661.70	658.18
662.05	653.84
662.39	649.54
662.73	645.10
663.07	640.74
663.41	636.31
663.75	631.81
664.09	627.26
664.43	622.84
664.77	618.72
665.11	614.44
665.45	610.31
665.79	606.25
666.13	602.13
666.47	598.06
666.81	593.85
667.15	589.67
667.49	585.73
667.83	581.91
668.17	577.92
668.51	573.87
668.85	569.84
669.19	566.04
669.53	562.26
669.87	558.41
670.21	554.69
670.55	551.08
670.89	547.69
671.23	544.29
671.57	540.84
671.91	537.36
672.25	533.92
672.58	530.37
672.92	527.01
673.26	523.88
673.60	520.73
673.94	517.67
674.28	514.82
674.62	511.91
674.96	508.81
675.30	505.94
675.64	503.08
675.97	500.29
676.31	497.38
676.65	494.43
676.99	491.75
677.33	488.89
677.67	486.00
678.01	482.91
678.34	479.94
678.68	477.05
679.02	474.20
679.36	471.44
679.70	468.82
680.04	466.01
680.37	463.09
680.71	460.37
681.05	457.75
681.39	455.03
681.73	452.35
682.06	449.83
682.40	447.33
682.74	444.74
683.08	442.14
683.42	439.58
683.75	437.07
684.09	434.46
684.43	432.00
684.77	429.58
685.10	427.27
685.44	424.99
685.78	422.74
686.12	420.47
686.45	418.17
686.79	415.82
687.13	413.65
687.46	411.53
687.80	409.32
688.14	407.13
688.48	405.04
688.81	402.78
689.15	400.69
689.49	398.50
689.82	396.46
690.16	394.42
690.50	392.45
690.83	390.52
691.17	388.60
691.51	386.65
691.84	384.80
692.18	382.88
692.52	380.87
692.85	378.93
693.19	377.06
693.52	375.28
693.86	373.47
694.20	371.72
694.53	369.90
694.87	368.05
695.21	366.28
695.54	364.46
695.88	362.77
696.21	360.99
696.55	359.29
696.88	357.54
697.22	355.90
697.56	354.27
697.89	352.60
698.23	350.93
698.56	349.36
698.90	347.75
699.23	346.07
699.57	344.53
699.90	342.96
700.24	341.42
700.58	339.85
700.91	338.37
701.25	336.87
701.58	335.52
701.92	334.22
702.25	332.81
702.59	331.45
702.92	330.13
703.26	328.84
703.59	327.60
703.93	326.49
704.26	325.22
704.60	323.92
704.93	322.65
705.26	321.45
705.60	320.29
705.93	319.16
706.27	318.17
706.60	317.11
706.94	316.07
707.27	314.95
707.61	313.92
707.94	312.85
708.27	311.78
708.61	310.71
708.94	309.74
709.28	308.79
709.61	307.84
709.94	306.90
710.28	305.90
710.61	304.89
710.95	303.83
711.28	302.96
711.61	302.07
711.95	301.16
712.28	300.20
712.61	299.22
712.95	298.29
713.28	297.40
713.61	296.52
713.95	295.61
714.28	294.80
714.61	293.94
714.95	293.14
715.28	292.29
715.61	291.40
715.95	290.52
716.28	289.69
716.61	288.89
716.95	288.07
717.28	287.37
717.61	286.62
717.94	285.86
718.28	285.05
718.61	284.28
718.94	283.59
719.27	282.94
719.61	282.30
719.94	281.65
720.27	280.97
720.60	280.30
720.94	279.70
721.27	279.05
721.60	278.47
721.93	277.85
722.27	277.29
722.60	276.73
722.93	276.18
723.26	275.60
723.59	275.04
723.93	274.51
724.26	273.90
724.59	273.34
724.92	272.83
725.25	272.30
725.59	271.79
725.92	271.30
726.25	270.81
726.58	270.29
726.91	269.78
727.24	269.30
727.57	268.80
727.91	268.26
728.24	267.79
728.57	267.27
728.90	266.85
729.23	266.33
729.56	265.92
729.89	265.42
730.22	264.92
730.55	264.42
730.89	263.94
731.22	263.47
731.55	263.04
731.88	262.58
732.21	262.16
732.54	261.73
732.87	261.28
733.20	260.83
733.53	260.44
733.86	260.03
734.19	259.64
734.52	259.28
734.85	258.99
735.18	258.60
735.51	258.24
735.84	257.83
736.17	257.50
736.50	257.10
736.83	256.86
737.16	256.56
737.49	256.22
737.82	255.87
738.15	255.54
738.48	255.20
738.81	254.89
739.14	254.58
739.47	254.24
739.80	253.91
740.13	253.60
740.46	253.25
740.79	252.95
741.12	252.60
741.45	252.23
741.78	251.86
742.11	251.56
742.44	251.25
742.77	250.98
743.10	250.66
743.43	250.36
743.75	249.95
744.08	249.81
744.41	249.56
744.74	249.30
745.07	249.04
745.40	248.78
745.73	248.54
746.06	248.26
746.39	248.03
746.71	247.78
747.04	247.54
747.37	247.33
747.70	247.10
748.03	246.86
748.36	246.67
748.68	246.46
749.01	246.26
749.34	246.02
749.67	245.81
750.00	245.61
750.33	245.45
750.65	245.30
750.98	244.96
751.31	244.72
751.64	244.52
751.97	244.38
752.29	244.15
752.62	243.93
752.95	243.71
753.28	243.50
753.60	243.30
753.93	243.14
754.26	242.90
754.59	242.67
754.91	242.50
755.24	242.33
755.57	242.15
755.90	241.95
756.22	241.78
756.55	241.58
756.88	241.39
757.20	241.15
757.53	240.95
757.86	240.79
758.19	240.68
758.51	240.51
758.84	240.30
759.17	240.17
759.49	240.03
759.82	239.94
760.15	239.81
760.47	239.66
760.80	239.49
761.13	239.38
761.45	239.22
761.78	239.08
762.11	238.93
762.43	238.79
762.76	238.65
763.08	238.50
763.41	238.37
763.74	238.24
764.06	238.10
764.39	237.93
764.71	237.76
765.04	237.59
765.37	237.43
765.69	237.29
766.02	237.16
766.34	237.01
766.67	236.87
767.00	236.77
767.32	236.68
767.65	236.60
767.97	236.48
768.30	236.39
768.62	236.24
768.95	236.12
769.27	235.99
769.60	235.87
769.92	235.73
770.25	235.62
770.57	235.47
770.90	235.38
771.22	235.29
771.55	235.16
771.87	235.09
772.20	235.01
772.52	234.99
772.85	235.01
773.17	234.89
773.50	234.75
773.82	234.60
774.15	234.47
774.47	234.30
774.80	234.18
775.12	234.09
775.45	233.99
775.77	233.90
776.09	233.81
776.42	233.74
776.74	233.69
777.07	233.58
777.39	233.50
777.72	233.41
778.04	233.33
778.36	233.28
778.69	233.21
779.01	233.12
779.33	232.94
779.66	232.77
779.98	232.69
780.31	232.66
780.63	232.64
780.95	232.60
781.28	232.56
781.60	232.48
781.92	232.42
782.25	232.38
782.57	232.33
782.89	232.28
783.22	232.18
783.54	232.10
783.86	232.08
784.19	232.03
784.51	231.98
784.83	231.88
785.16	231.83
785.48	231.76
785.80	231.72
786.12	231.69
786.45	231.61
786.77	231.56
787.09	231.48
787.42	231.42
787.74	231.34
788.06	231.31
788.38	231.30
788.71	231.24
789.03	231.21
789.35	231.19
789.67	231.14
789.99	231.13
790.32	231.11
790.64	231.06
790.96	231.10
791.28	231.05
791.61	231.04
791.93	231.03
792.25	230.99
792.57	231.02
792.89	230.96
793.21	230.93
793.54	230.89
793.86	230.87
794.18	230.81
794.50	230.80
794.82	230.74
795.14	230.72
795.47	230.71
795.79	230.67
796.11	230.62
796.43	230.61
796.75	230.59
797.07	230.56
797.39	230.55
797.71	230.46
798.04	230.45
798.36	230.45
798.68	230.41
799.00	230.38
799.32	230.29
799.64	230.30
799.96	230.28
800.28	230.28
800.60	230.23
800.92	230.21
801.24	230.12
801.56	230.08
801.89	230.06
802.21	230.05
802.53	230.04
802.85	230.00
803.17	229.99
803.49	229.94
803.81	229.91
804.13	229.87
804.45	229.81
804.77	229.79
805.09	229.74
805.41	229.71
805.73	229.67
806.05	229.63
806.37	229.58
806.69	229.56
807.01	229.49
807.33	229.48
807.65	229.42
807.97	229.49
808.28	229.49
808.60	229.46
808.92	229.39
809.24	229.35
809.56	229.33
809.88	229.23
810.20	229.23
810.52	229.22
810.84	229.17
811.16	229.16
811.48	229.13
811.80	229.13
812.12	229.07
812.43	229.05
812.75	229.04
813.07	229.01
813.39	228.96
813.71	228.96
814.03	228.92
814.35	228.92
814.67	228.83
814.98	228.81
815.30	228.78
815.62	228.75
815.94	228.68
816.26	228.70
816.58	228.68
816.89	228.64
817.21	228.58
817.53	228.57
817.85	228.54
818.17	228.51
818.48	228.50
818.80	228.51
819.12	228.51
819.44	228.46
819.76	228.44
820.07	228.46
820.39	228.42
820.71	228.40
821.03	228.37
821.34	228.36
821.66	228.31
821.98	228.31
822.30	228.30
822.61	228.37
822.93	228.28
823.25	228.28
823.57	228.26
823.88	228.24
824.20	228.24
824.52	228.23
824.83	228.20
825.15	228.16
825.47	228.15
825.79	228.13
826.10	228.14
826.42	228.12
826.74	228.13
827.05	228.11
827.37	228.11
827.69	228.11
828.00	228.10
828.32	228.11
828.64	228.08
828.95	228.12
829.27	228.08
829.58	228.08
829.90	228.09
830.22	228.08
830.53	228.10
830.85	228.08
831.17	228.07
831.48	228.08
831.80	228.05
832.11	228.02
832.43	228.00
832.75	227.98
833.06	228.02
833.38	227.97
833.69	227.97
834.01	227.98
834.32	227.95
834.64	227.92
834.96	227.92
835.27	227.89
835.59	227.85
835.90	227.83
836.22	227.84
836.53	227.79
836.85	227.79
837.16	227.86
837.48	227.87
837.79	227.88
838.11	227.87
838.42	227.87
838.74	227.89
839.05	227.88
839.37	227.88
839.68	227.85
840.00	227.84
840.31	227.86
840.63	227.83
840.94	227.83
841.26	227.85
841.57	227.86
841.88	227.91
842.20	227.91
842.51	227.89
842.83	227.91
843.14	228.02
843.46	228.02
843.77	227.98
844.08	227.95
844.40	227.95
844.71	227.96
845.03	227.99
845.34	227.99
845.65	228.00
845.97	228.01
846.28	227.98
846.60	227.99
846.91	227.96
847.22	227.97
847.54	227.99
847.85	227.96
848.16	227.90
848.48	227.89
848.79	227.92
849.10	227.88
849.42	227.86
849.73	227.75
850.04	227.75
850.36	227.68
850.67	227.69
850.98	227.63
851.30	227.62
851.61	227.58
851.92	227.57
852.23	227.60
852.55	227.59
852.86	227.59
853.17	227.61
853.49	227.62
853.80	227.61
854.11	227.60
854.42	227.62
854.74	227.63
855.05	227.61
855.36	227.55
855.67	227.57
855.99	227.52
856.30	227.64
856.61	227.61
856.92	227.61
857.23	227.59
857.55	227.61
857.86	227.62
858.17	227.62
858.48	227.59
858.79	227.55
859.11	227.53
859.42	227.53
859.73	227.47
860.04	227.45
860.35	227.41
860.66	227.39
860.98	227.36
861.29	227.39
861.60	227.38
861.91	227.42
862.22	227.37
862.53	227.41
862.84	227.27
863.16	227.30
863.47	227.28
863.78	227.28
864.09	227.26
864.40	227.26
864.71	227.25
865.02	227.26
865.33	227.22
865.64	227.21
865.95	227.22
866.27	227.30
866.58	227.28
866.89	227.31
867.20	227.33
867.51	227.31
867.82	227.31
868.13	227.32
868.44	227.29
868.75	227.34
869.06	227.32
869.37	227.35
869.68	227.31
869.99	227.31
870.30	227.32
870.61	227.34
870.92	227.30
871.23	227.30
871.54	227.34
871.85	227.39
872.16	227.41
872.47	227.39
872.78	227.35
873.09	227.37
873.40	227.39
873.71	227.37
874.02	227.40
874.33	227.38
874.64	227.34
874.95	227.33
875.26	227.31
875.56	227.29
875.87	227.27
876.18	227.27
876.49	227.39
876.80	227.38
877.11	227.37
877.42	227.40
877.73	227.42
878.04	227.38
878.35	227.36
878.66	227.35
878.96	227.34
879.27	227.34
879.58	227.32
879.89	227.30
880.20	227.35
880.51	227.33
880.82	227.33
881.12	227.33
881.43	227.34
881.74	227.36
882.05	227.39
882.36	227.39
882.67	227.40
882.97	227.29
883.28	227.29
883.59	227.23
883.90	227.21
884.21	227.21
884.51	227.21
884.82	227.19
885.13	227.21
885.44	227.21
885.74	227.19
886.05	227.15
886.36	227.12
886.67	227.05
886.98	227.07
887.28	227.07
887.59	227.10
887.90	227.09
888.20	227.04
888.51	227.03
888.82	227.02
889.13	227.05
889.43	227.12
889.74	227.09
890.05	227.14
890.35	227.13
890.66	227.08
890.97	227.06
891.28	227.08
891.58	227.04
891.89	227.04
892.20	227.01
892.50	227.01
892.81	227.02
893.12	227.05
893.42	227.05
893.73	227.03
894.04	227.01
894.34	226.99
894.65	227.02
894.95	226.98
895.26	226.97
895.57	226.99
895.87	226.88
896.18	226.90
896.48	226.89
896.79	226.88
897.10	226.90
897.40	226.90
897.71	226.90
898.01	226.88
898.32	226.90
898.63	226.91
898.93	226.93
899.24	226.97
899.54	226.92
899.85	226.88
900.15	226.91
900.46	226.89
900.76	226.88
901.07	226.85
901.38	226.89
901.68	226.89
901.99	226.84
902.29	226.86
902.60	226.87
902.90	226.86
903.21	226.87
903.51	226.84
903.82	226.90
904.12	226.89
904.43	226.92
904.73	226.89
905.03	226.93
905.34	227.02
905.64	227.00
905.95	227.00
906.25	227.00
906.56	226.98
906.86	226.99
907.17	227.00
907.47	227.04
907.77	226.99
908.08	226.98
908.38	227.01
908.69	227.03
908.99	227.07
909.30	227.07
909.60	227.08
909.90	227.12
910.21	227.07
910.51	227.06
910.81	227.08
911.12	227.12
911.42	227.10
911.73	227.03
912.03	227.07
912.33	227.11
912.64	227.11
912.94	227.10
913.24	227.11
913.55	227.11
913.85	227.10
914.15	227.10
914.46	227.15
914.76	227.12
915.06	227.10
915.37	227.07
915.67	227.09
915.97	227.13
916.27	227.12
916.58	227.13
916.88	227.15
917.18	227.12
917.49	227.16
917.79	227.17
918.09	227.16
918.39	227.16
918.70	227.15
919.00	227.15
919.30	227.20
919.60	227.20
919.91	227.19
920.21	227.25
920.51	227.24
920.81	227.20
921.12	227.20
921.42	227.18
921.72	227.20
922.02	227.17
922.32	227.15
922.63	227.13
922.93	227.16
923.23	227.14
923.53	227.11
923.83	227.05
924.13	227.04
924.44	227.02
924.74	226.99
925.04	227.01
925.34	227.00
925.64	226.96
925.94	226.90
926.24	226.95
926.55	226.92
926.85	226.92
927.15	226.93
927.45	226.95
927.75	226.97
928.05	226.99
928.35	226.97
928.65	226.97
928.95	226.98
929.26	226.96
929.56	227.01
929.86	227.07
930.16	227.06
930.46	227.04
930.76	227.04
931.06	227.01
931.36	226.98
931.66	226.99
931.96	227.00
932.26	227.05
932.56	227.05
932.86	227.03
933.16	227.05
933.46	227.04
933.76	227.02
934.06	227.06
934.36	227.11
934.66	227.13
934.96	227.09
935.26	227.10
935.56	227.12
935.86	227.04
936.16	227.02
936.46	227.02
936.76	227.01
937.06	227.02
937.36	227.04
937.66	227.04
937.96	227.02
938.26	227.00
938.56	226.97
938.86	226.95
939.16	226.96
939.46	226.98
939.76	227.00
940.06	227.00
940.35	226.96
940.65	226.86
940.95	226.87
941.25	226.92
941.55	226.89
941.85	226.89
942.15	226.91
942.45	226.91
942.75	226.93
943.04	226.94
943.34	226.97
943.64	226.96
943.94	226.97
944.24	226.98
944.54	227.00
944.84	227.01
945.13	227.02
945.43	227.01
945.73	226.98
946.03	226.96
946.33	226.98
946.62	226.95
946.92	226.97
947.22	226.97
947.52	226.92
947.82	226.95
948.11	226.92
948.41	226.93
948.71	226.91
949.01	226.92
949.31	226.92
949.60	226.89
949.90	226.93
950.20	226.92
950.50	226.90
950.79	226.87
951.09	226.88
951.39	226.85
951.69	226.82
951.98	226.85
952.28	226.88
952.58	226.85
952.87	226.85
953.17	226.87
953.47	226.85
953.76	226.87
954.06	226.84
954.36	226.84
954.66	226.83
954.95	226.86
955.25	226.87
955.55	226.88
955.84	226.90
956.14	226.89
956.44	226.88
956.73	226.92
957.03	226.97
957.32	226.97
957.62	227.00
957.92	227.03
958.21	227.04
958.51	227.13
958.81	227.13
959.10	227.15
959.40	227.15
959.69	227.15
959.99	227.20
960.29	227.20
960.58	227.22
960.88	227.27
961.17	227.26
961.47	227.26
961.76	227.22
962.06	227.23
962.36	227.20
962.65	227.21
962.95	227.19
963.24	227.17
963.54	227.17
963.83	227.16
964.13	227.18
964.42	227.13
964.72	227.02
965.01	227.03
965.31	227.04
965.60	227.01
965.90	227.08
966.19	227.04
966.49	227.02
966.78	226.97
967.08	226.96
967.37	226.97
967.67	226.95
967.96	226.97
968.26	226.93
968.55	226.94
968.85	226.92
969.14	226.91
969.43	226.88
969.73	226.84
970.02	226.86
970.32	226.83
970.61	226.83
970.91	226.81
971.20	226.82
971.49	226.79
971.79	226.81
972.08	226.75
972.38	226.75
972.67	226.74
972.96	226.80
973.26	226.74
973.55	226.72
973.85	226.72
974.14	226.71
974.43	226.71
974.73	226.70
975.02	226.68
975.31	226.69
975.61	226.70
975.90	226.69
976.19	226.67
976.49	226.68
976.78	226.67
977.07	226.70
977.37	226.67
977.66	226.68
977.95	226.66
978.24	226.65
978.54	226.67
978.83	226.70
979.12	226.67
979.42	226.69
979.71	226.68
980.00	226.64
980.29	226.66
980.59	226.66
980.88	226.68
981.17	226.70
981.46	226.73
981.76	226.75
982.05	226.82
982.34	226.83
982.63	226.83
982.93	226.83
983.22	226.83
983.51	226.86
983.80	226.92
984.09	226.94
984.39	226.95
984.68	226.95
984.97	226.96
985.26	226.93
985.55	226.96
985.85	226.94
986.14	226.99
986.43	227.00
986.72	226.99
987.01	226.99
987.30	226.98
987.59	226.95
987.89	226.94
988.18	226.89
988.47	226.87
988.76	226.86
989.05	226.87
989.34	226.89
989.63	226.93
989.92	226.87
990.22	226.85
990.51	226.86
990.80	226.86
991.09	226.88
991.38	226.92
991.67	226.91
991.96	226.88
992.25	226.92
992.54	226.87
992.83	226.91
993.12	226.88
993.41	226.91
993.70	226.98
993.99	227.03
994.28	227.04
994.58	227.05
994.87	227.05
995.16	227.09
995.45	227.05
995.74	227.02
996.03	227.05
996.32	227.07
996.61	227.11
996.90	227.12
997.19	227.08
997.48	227.08
997.77	227.09
998.06	227.16
998.34	227.12
998.63	227.15
998.92	227.15
999.21	227.20
999.50	227.18
999.79	227.13
1000.08	227.10
1000.37	227.12
1000.66	227.14
1000.95	227.17
1001.24	227.12
1001.53	227.14
1001.82	227.08
1002.11	227.07
1002.40	227.05
1002.68	227.06
1002.97	227.12
1003.26	227.11
1003.55	227.05
1003.84	227.04
1004.13	227.02
1004.42	226.99
1004.71	226.97
1004.99	226.94
1005.28	226.93
1005.57	226.93
1005.86	226.90
1006.15	226.88
1006.44	226.82
1006.72	226.80
1007.01	226.77
1007.30	226.80
1007.59	226.78
1007.88	226.78
1008.17	226.75
1008.45	226.72
1008.74	226.67
1009.03	226.63
1009.32	226.61
1009.60	226.62
1009.89	226.58
1010.18	226.55
1010.47	226.55
1010.76	226.53
1011.04	226.50
1011.33	226.47
1011.62	226.45
1011.91	226.45
1012.19	226.45
1012.48	226.47
1012.77	226.48
1013.05	226.50
1013.34	226.48
1013.63	226.48
1013.92	226.48
1014.20	226.48
1014.49	226.51
1014.78	226.47
1015.06	226.45
1015.35	226.45
1015.64	226.44
1015.92	226.46
1016.21	226.46
1016.50	226.48
1016.78	226.51
1017.07	226.53
1017.36	226.53
1017.64	226.52
1017.93	226.53
1018.22	226.51
1018.50	226.50
1018.79	226.48
1019.08	226.44
1019.36	226.44
1019.65	226.43
1019.93	226.48
1020.22	226.50
1020.51	226.55
1020.79	226.55
1021.08	226.38
1021.36	226.12
1021.65	226.44
1021.94	226.70
1022.22	226.44
1022.51	226.53
1022.79	226.93
1023.08	226.71
1023.36	228.17
1023.65	225.97
>>>>>End Processed Spectral Data<<<<<
