SpectraSuite Data File
++++++++++++++++++++++++++++++++++++
Date: Fri Feb 01 16:41:00 EST 2013
User: group
Dark Spectrum Present: No
Reference Spectrum Present: No
Number of Sampled Component Spectra: 1
Spectrometers: USB2E7196
Integration Time (usec): 35000 (USB2E7196)
Spectra Averaged: 100 (USB2E7196)
Boxcar Smoothing: 10 (USB2E7196)
Correct for Electrical Dark: No (USB2E7196)
Strobe/Lamp Enabled: No (USB2E7196)
Correct for Detector Non-linearity: No (USB2E7196)
Correct for Stray Light: No (USB2E7196)
Number of Pixels in Processed Spectrum: 2048
>>>>>Begin Processed Spectral Data<<<<<
339.09	0.00
339.48	213.54
339.86	215.36
340.24	216.74
340.63	217.70
341.01	220.61
341.39	220.36
341.78	222.16
342.16	223.00
342.54	223.82
342.93	212.09
343.31	222.84
343.69	223.39
344.07	223.84
344.46	224.25
344.84	224.65
345.22	224.90
345.60	225.16
345.99	225.34
346.37	225.49
346.75	225.58
347.13	225.66
347.52	225.73
347.90	225.77
348.28	225.82
348.66	225.88
349.05	225.90
349.43	225.95
349.81	225.98
350.19	226.02
350.57	226.08
350.96	226.16
351.34	226.23
351.72	226.32
352.10	226.43
352.48	226.51
352.87	226.56
353.25	226.64
353.63	226.72
354.01	226.78
354.39	226.82
354.77	226.91
355.15	227.03
355.54	227.09
355.92	227.13
356.30	227.20
356.68	227.35
357.06	227.42
357.44	227.48
357.82	227.56
358.20	227.62
358.58	227.67
358.97	227.72
359.35	227.78
359.73	227.84
360.11	227.88
360.49	227.94
360.87	227.96
361.25	228.00
361.63	228.05
362.01	228.11
362.39	228.15
362.77	228.16
363.15	228.17
363.53	228.21
363.91	228.23
364.29	228.22
364.67	228.11
365.05	228.11
365.43	228.12
365.81	228.13
366.19	228.17
366.57	228.18
366.95	228.20
367.33	228.17
367.71	228.13
368.09	228.15
368.47	228.13
368.85	228.10
369.23	228.07
369.61	228.02
369.99	228.02
370.37	227.99
370.75	228.05
371.13	228.00
371.51	227.93
371.89	227.90
372.27	227.87
372.65	227.83
373.03	227.78
373.41	227.74
373.78	227.68
374.16	227.60
374.54	227.53
374.92	227.44
375.30	227.36
375.68	227.29
376.06	227.22
376.44	227.13
376.82	227.09
377.19	227.02
377.57	226.96
377.95	226.83
378.33	226.78
378.71	226.64
379.09	226.60
379.47	226.54
379.84	226.47
380.22	226.37
380.60	226.31
380.98	226.25
381.36	226.14
381.73	226.08
382.11	226.04
382.49	225.99
382.87	225.88
383.25	225.85
383.62	225.91
384.00	225.83
384.38	225.81
384.76	225.78
385.13	225.76
385.51	225.72
385.89	225.66
386.27	225.61
386.64	225.56
387.02	225.51
387.40	225.51
387.78	225.48
388.15	225.49
388.53	225.46
388.91	225.45
389.29	225.44
389.66	225.41
390.04	225.36
390.42	225.36
390.79	225.33
391.17	225.32
391.55	225.21
391.92	225.19
392.30	225.17
392.68	225.15
393.05	225.17
393.43	225.17
393.81	225.20
394.18	225.17
394.56	225.22
394.94	225.25
395.31	225.20
395.69	225.24
396.06	225.30
396.44	225.33
396.82	225.32
397.19	225.41
397.57	225.46
397.95	225.50
398.32	225.50
398.70	225.61
399.07	225.69
399.45	225.75
399.82	225.80
400.20	225.87
400.58	225.93
400.95	225.97
401.33	226.05
401.70	226.20
402.08	226.31
402.45	226.37
402.83	226.47
403.20	226.60
403.58	226.70
403.95	226.81
404.33	226.95
404.71	227.08
405.08	227.27
405.46	227.37
405.83	227.51
406.21	227.69
406.58	227.84
406.96	228.00
407.33	228.15
407.70	228.37
408.08	228.66
408.45	228.87
408.83	229.07
409.20	229.28
409.58	229.44
409.95	229.69
410.33	229.93
410.70	230.17
411.08	230.47
411.45	230.76
411.82	231.05
412.20	231.36
412.57	231.77
412.95	232.02
413.32	232.46
413.69	232.88
414.07	233.28
414.44	233.75
414.82	234.21
415.19	234.79
415.56	235.33
415.94	235.86
416.31	236.50
416.68	237.13
417.06	237.87
417.43	238.55
417.81	239.32
418.18	240.12
418.55	241.00
418.93	241.88
419.30	242.78
419.67	243.70
420.04	244.68
420.42	245.66
420.79	246.83
421.16	247.96
421.54	249.14
421.91	250.38
422.28	251.58
422.66	252.91
423.03	254.22
423.40	255.55
423.77	256.93
424.15	258.35
424.52	259.82
424.89	261.44
425.26	262.99
425.64	264.44
426.01	266.07
426.38	267.69
426.75	269.30
427.13	271.03
427.50	272.82
427.87	274.66
428.24	276.48
428.61	278.20
428.99	280.15
429.36	282.24
429.73	284.26
430.10	286.29
430.47	288.33
430.85	290.39
431.22	292.60
431.59	294.98
431.96	297.18
432.33	299.59
432.70	301.92
433.08	304.72
433.45	307.35
433.82	309.92
434.19	312.76
434.56	315.61
434.93	318.21
435.30	320.81
435.68	323.67
436.05	326.50
436.42	329.32
436.79	331.81
437.16	334.45
437.53	337.24
437.90	340.02
438.27	342.77
438.64	345.58
439.01	348.14
439.38	350.31
439.75	352.48
440.13	355.01
440.50	357.29
440.87	359.10
441.24	361.01
441.61	363.12
441.98	364.56
442.35	366.35
442.72	368.19
443.09	370.00
443.46	371.02
443.83	371.60
444.20	372.03
444.57	372.83
444.94	373.13
445.31	373.52
445.68	373.88
446.05	373.95
446.42	373.57
446.79	373.17
447.16	372.80
447.53	372.49
447.90	371.34
448.27	370.23
448.64	368.68
449.01	367.57
449.37	365.61
449.74	363.77
450.11	361.53
450.48	359.07
450.85	356.56
451.22	354.42
451.59	352.40
451.96	350.54
452.33	347.98
452.70	345.66
453.07	342.87
453.43	339.98
453.80	337.26
454.17	334.61
454.54	332.10
454.91	329.34
455.28	326.70
455.65	324.25
456.02	321.84
456.38	319.68
456.75	317.02
457.12	314.79
457.49	312.60
457.86	310.46
458.23	308.67
458.59	306.63
458.96	304.57
459.33	302.76
459.70	300.90
460.07	299.37
460.43	297.71
460.80	296.10
461.17	294.71
461.54	293.22
461.91	291.81
462.27	290.38
462.64	289.18
463.01	287.83
463.38	286.52
463.74	285.16
464.11	284.03
464.48	283.00
464.85	281.93
465.21	281.11
465.58	280.18
465.95	279.07
466.32	278.15
466.68	277.28
467.05	276.42
467.42	275.54
467.78	274.63
468.15	273.74
468.52	273.08
468.88	272.19
469.25	271.47
469.62	270.86
469.98	270.19
470.35	269.59
470.72	268.99
471.08	268.40
471.45	267.88
471.82	267.33
472.18	266.79
472.55	266.35
472.92	265.79
473.28	265.35
473.65	264.97
474.02	264.57
474.38	264.20
474.75	263.93
475.11	263.60
475.48	263.38
475.85	263.17
476.21	262.96
476.58	262.83
476.94	262.68
477.31	262.50
477.67	262.40
478.04	262.29
478.41	262.25
478.77	262.26
479.14	262.23
479.50	262.28
479.87	262.39
480.23	262.47
480.60	262.57
480.96	262.66
481.33	262.86
481.69	263.06
482.06	263.25
482.42	263.42
482.79	263.66
483.15	263.97
483.52	264.35
483.88	264.70
484.25	265.04
484.61	265.43
484.98	265.91
485.34	266.43
485.71	267.03
486.07	267.59
486.44	268.15
486.80	268.83
487.17	269.55
487.53	270.33
487.90	271.21
488.26	272.17
488.62	273.18
488.99	274.15
489.35	275.19
489.72	276.33
490.08	277.55
490.44	278.82
490.81	280.13
491.17	281.48
491.54	282.94
491.90	284.50
492.26	286.15
492.63	287.89
492.99	289.72
493.36	291.59
493.72	293.65
494.08	295.77
494.45	298.00
494.81	300.37
495.17	302.77
495.54	305.30
495.90	307.94
496.26	310.70
496.63	313.67
496.99	316.79
497.35	320.04
497.72	323.43
498.08	326.98
498.44	330.67
498.80	334.61
499.17	338.65
499.53	342.76
499.89	347.13
500.26	351.61
500.62	356.26
500.98	361.25
501.34	366.32
501.71	371.64
502.07	377.11
502.43	382.69
502.79	388.48
503.16	394.57
503.52	400.80
503.88	407.19
504.24	413.81
504.60	420.68
504.97	427.78
505.33	435.07
505.69	442.76
506.05	450.54
506.41	458.35
506.78	466.52
507.14	475.01
507.50	483.72
507.86	492.72
508.22	501.93
508.59	511.09
508.95	520.67
509.31	530.53
509.67	540.57
510.03	550.87
510.39	561.51
510.75	572.32
511.12	583.30
511.48	594.60
511.84	605.99
512.20	617.47
512.56	629.40
512.92	641.59
513.28	653.84
513.64	666.22
514.00	678.91
514.37	691.77
514.73	704.78
515.09	717.73
515.45	731.02
515.81	744.56
516.17	758.50
516.53	772.57
516.89	786.57
517.25	800.72
517.61	815.05
517.97	829.41
518.33	843.65
518.69	858.37
519.05	873.21
519.41	888.34
519.77	903.77
520.13	919.19
520.49	934.47
520.85	949.73
521.21	965.40
521.57	981.55
521.93	997.27
522.29	1013.48
522.65	1029.70
523.01	1045.77
523.37	1061.62
523.73	1077.72
524.09	1093.75
524.45	1110.06
524.81	1126.57
525.17	1143.20
525.53	1159.90
525.89	1176.74
526.25	1193.42
526.61	1209.70
526.97	1226.35
527.33	1242.76
527.68	1259.12
528.04	1275.54
528.40	1292.05
528.76	1309.03
529.12	1325.43
529.48	1342.10
529.84	1358.07
530.20	1374.60
530.56	1391.32
530.91	1408.59
531.27	1425.26
531.63	1441.55
531.99	1457.89
532.35	1473.85
532.71	1489.62
533.07	1505.85
533.42	1521.72
533.78	1537.77
534.14	1553.83
534.50	1568.97
534.86	1584.75
535.21	1599.92
535.57	1615.49
535.93	1630.88
536.29	1645.47
536.65	1660.32
537.00	1674.79
537.36	1689.99
537.72	1704.23
538.08	1718.67
538.44	1732.39
538.79	1746.10
539.15	1759.50
539.51	1773.14
539.87	1787.21
540.22	1800.69
540.58	1814.10
540.94	1827.09
541.29	1839.64
541.65	1852.27
542.01	1865.28
542.37	1877.49
542.72	1889.75
543.08	1901.49
543.44	1913.64
543.79	1924.81
544.15	1935.79
544.51	1947.52
544.87	1958.20
545.22	1969.03
545.58	1979.10
545.94	1988.73
546.29	1998.40
546.65	2008.27
547.01	2017.47
547.36	2026.09
547.72	2034.61
548.07	2042.54
548.43	2050.65
548.79	2058.38
549.14	2065.90
549.50	2073.29
549.86	2080.72
550.21	2087.95
550.57	2095.02
550.92	2101.55
551.28	2108.53
551.64	2115.55
551.99	2121.94
552.35	2128.25
552.70	2134.29
553.06	2140.33
553.41	2146.65
553.77	2152.44
554.13	2158.37
554.48	2164.36
554.84	2169.90
555.19	2175.07
555.55	2180.18
555.90	2184.64
556.26	2189.75
556.61	2194.41
556.97	2198.77
557.32	2202.93
557.68	2206.97
558.03	2211.27
558.39	2214.95
558.74	2219.34
559.10	2223.20
559.45	2226.81
559.81	2230.84
560.16	2234.69
560.52	2237.84
560.87	2241.27
561.23	2244.02
561.58	2246.98
561.94	2249.54
562.29	2251.77
562.64	2254.66
563.00	2257.29
563.35	2260.94
563.71	2264.05
564.06	2267.19
564.42	2270.16
564.77	2272.83
565.12	2275.29
565.48	2277.28
565.83	2279.36
566.19	2280.88
566.54	2281.61
566.89	2282.98
567.25	2283.80
567.60	2285.21
567.96	2287.02
568.31	2287.89
568.66	2289.04
569.02	2289.88
569.37	2290.28
569.72	2291.28
570.08	2291.40
570.43	2291.55
570.78	2291.07
571.14	2289.62
571.49	2288.43
571.84	2287.89
572.20	2286.83
572.55	2285.89
572.90	2284.17
573.26	2282.95
573.61	2281.18
573.96	2279.71
574.31	2276.72
574.67	2273.83
575.02	2270.16
575.37	2266.72
575.72	2263.06
576.08	2259.83
576.43	2256.29
576.78	2252.81
577.13	2249.53
577.49	2246.44
577.84	2243.00
578.19	2239.09
578.54	2235.58
578.90	2231.51
579.25	2226.14
579.60	2221.25
579.95	2216.27
580.30	2211.44
580.66	2206.18
581.01	2201.30
581.36	2196.41
581.71	2192.42
582.06	2188.26
582.42	2183.98
582.77	2178.93
583.12	2174.49
583.47	2170.11
583.82	2165.38
584.17	2160.22
584.53	2154.82
584.88	2149.34
585.23	2143.71
585.58	2138.37
585.93	2132.87
586.28	2128.03
586.63	2123.16
586.98	2118.07
587.34	2113.35
587.69	2108.57
588.04	2103.39
588.39	2097.95
588.74	2091.59
589.09	2085.32
589.44	2078.39
589.79	2072.28
590.14	2066.58
590.49	2060.04
590.84	2053.60
591.19	2047.59
591.54	2041.22
591.89	2034.12
592.25	2027.47
592.60	2020.27
592.95	2012.76
593.30	2005.51
593.65	1998.07
594.00	1990.86
594.35	1983.64
594.70	1975.66
595.05	1968.75
595.40	1961.63
595.75	1954.27
596.10	1948.23
596.45	1941.77
596.80	1935.73
597.15	1929.22
597.50	1922.56
597.85	1916.01
598.19	1909.53
598.54	1902.63
598.89	1896.01
599.24	1890.07
599.59	1883.55
599.94	1877.40
600.29	1871.19
600.64	1864.66
600.99	1857.36
601.34	1850.69
601.69	1843.83
602.04	1837.11
602.39	1829.69
602.74	1823.02
603.08	1816.23
603.43	1809.54
603.78	1802.14
604.13	1795.00
604.48	1787.89
604.83	1780.74
605.18	1774.13
605.53	1766.20
605.87	1758.20
606.22	1750.96
606.57	1743.12
606.92	1735.59
607.27	1728.61
607.62	1721.86
607.96	1714.85
608.31	1708.45
608.66	1700.92
609.01	1693.46
609.36	1685.98
609.70	1678.05
610.05	1669.88
610.40	1662.28
610.75	1653.90
611.10	1646.37
611.44	1637.91
611.79	1629.86
612.14	1621.39
612.49	1612.19
612.83	1603.79
613.18	1595.65
613.53	1587.70
613.88	1579.23
614.22	1570.98
614.57	1562.24
614.92	1554.18
615.27	1546.51
615.61	1538.10
615.96	1530.11
616.31	1522.49
616.65	1515.12
617.00	1507.55
617.35	1499.91
617.70	1491.73
618.04	1483.34
618.39	1475.01
618.74	1467.52
619.08	1459.24
619.43	1451.63
619.78	1444.56
620.12	1437.46
620.47	1429.93
620.82	1421.60
621.16	1414.09
621.51	1406.58
621.85	1398.91
622.20	1390.32
622.55	1382.04
622.89	1374.13
623.24	1366.49
623.59	1359.09
623.93	1351.59
624.28	1344.38
624.62	1336.89
624.97	1329.54
625.32	1322.77
625.66	1315.82
626.01	1308.62
626.35	1301.29
626.70	1293.47
627.04	1285.85
627.39	1277.99
627.73	1270.60
628.08	1263.74
628.43	1256.60
628.77	1249.39
629.12	1241.89
629.46	1234.82
629.81	1227.32
630.15	1220.09
630.50	1212.64
630.84	1204.38
631.19	1196.39
631.53	1188.82
631.88	1181.35
632.22	1173.84
632.57	1166.46
632.91	1158.93
633.26	1151.58
633.60	1144.10
633.95	1136.97
634.29	1129.91
634.64	1123.15
634.98	1115.82
635.32	1108.68
635.67	1101.96
636.01	1095.17
636.36	1088.47
636.70	1081.91
637.05	1075.44
637.39	1069.03
637.73	1062.63
638.08	1056.77
638.42	1050.79
638.77	1044.48
639.11	1037.88
639.45	1031.46
639.80	1024.84
640.14	1018.55
640.49	1012.04
640.83	1005.80
641.17	999.72
641.52	993.46
641.86	987.07
642.20	981.17
642.55	974.86
642.89	968.49
643.23	961.90
643.58	956.17
643.92	950.01
644.26	944.07
644.61	937.98
644.95	931.95
645.29	925.54
645.64	918.86
645.98	912.48
646.32	906.57
646.66	900.62
647.01	894.88
647.35	889.06
647.69	883.21
648.04	877.66
648.38	871.89
648.72	865.93
649.06	859.91
649.41	854.06
649.75	848.16
650.09	842.28
650.43	836.54
650.78	830.39
651.12	824.38
651.46	818.57
651.80	812.88
652.14	807.51
652.49	802.08
652.83	796.90
653.17	791.34
653.51	785.66
653.85	780.17
654.20	774.51
654.54	768.49
654.88	762.70
655.22	756.77
655.56	750.98
655.90	745.54
656.25	740.24
656.59	734.85
656.93	729.74
657.27	724.61
657.61	719.15
657.95	714.00
658.29	708.94
658.64	703.63
658.98	698.26
659.32	692.76
659.66	687.53
660.00	682.24
660.34	677.24
660.68	672.29
661.02	667.27
661.36	662.57
661.70	658.05
662.05	653.68
662.39	649.43
662.73	644.93
663.07	640.47
663.41	636.13
663.75	631.69
664.09	627.13
664.43	622.62
664.77	618.54
665.11	614.33
665.45	610.14
665.79	606.10
666.13	602.01
666.47	597.85
666.81	593.69
667.15	589.51
667.49	585.49
667.83	581.63
668.17	577.71
668.51	573.62
668.85	569.66
669.19	565.73
669.53	561.88
669.87	558.10
670.21	554.39
670.55	550.64
670.89	547.19
671.23	543.75
671.57	540.23
671.91	536.69
672.25	533.11
672.58	529.68
672.92	526.23
673.26	523.03
673.60	519.89
673.94	516.74
674.28	513.82
674.62	510.94
674.96	507.84
675.30	504.94
675.64	502.05
675.97	499.24
676.31	496.46
676.65	493.52
676.99	490.71
677.33	487.85
677.67	485.09
678.01	482.11
678.34	479.18
678.68	476.28
679.02	473.49
679.36	470.76
679.70	468.01
680.04	465.30
680.37	462.43
680.71	459.63
681.05	457.01
681.39	454.30
681.73	451.63
682.06	449.10
682.40	446.57
682.74	444.00
683.08	441.48
683.42	438.84
683.75	436.32
684.09	433.87
684.43	431.40
684.77	428.95
685.10	426.54
685.44	424.17
685.78	421.90
686.12	419.63
686.45	417.33
686.79	415.04
687.13	412.85
687.46	410.73
687.80	408.59
688.14	406.38
688.48	404.37
688.81	402.15
689.15	400.06
689.49	397.87
689.82	395.76
690.16	393.64
690.50	391.72
690.83	389.84
691.17	387.79
691.51	385.90
691.84	384.05
692.18	382.20
692.52	380.28
692.85	378.36
693.19	376.50
693.52	374.68
693.86	372.82
694.20	371.06
694.53	369.22
694.87	367.38
695.21	365.59
695.54	363.73
695.88	361.98
696.21	360.24
696.55	358.58
696.88	356.93
697.22	355.25
697.56	353.57
697.89	351.90
698.23	350.37
698.56	348.76
698.90	347.17
699.23	345.53
699.57	343.95
699.90	342.43
700.24	340.89
700.58	339.39
700.91	337.93
701.25	336.44
701.58	335.12
701.92	333.77
702.25	332.39
702.59	331.02
702.92	329.67
703.26	328.40
703.59	327.11
703.93	325.96
704.26	324.74
704.60	323.46
704.93	322.17
705.26	320.84
705.60	319.63
705.93	318.46
706.27	317.42
706.60	316.37
706.94	315.24
707.27	314.12
707.61	313.02
707.94	311.98
708.27	310.88
708.61	309.77
708.94	308.73
709.28	307.74
709.61	306.78
709.94	305.83
710.28	304.77
710.61	303.77
710.95	302.63
711.28	301.71
711.61	300.80
711.95	299.91
712.28	299.02
712.61	298.01
712.95	297.06
713.28	296.15
713.61	295.23
713.95	294.37
714.28	293.49
714.61	292.66
714.95	291.79
715.28	290.90
715.61	290.04
715.95	289.20
716.28	288.35
716.61	287.50
716.95	286.67
717.28	285.93
717.61	285.16
717.94	284.43
718.28	283.61
718.61	282.87
718.94	282.15
719.27	281.52
719.61	280.90
719.94	280.26
720.27	279.52
720.60	278.89
720.94	278.25
721.27	277.64
721.60	277.03
721.93	276.46
722.27	275.91
722.60	275.35
722.93	274.78
723.26	274.26
723.59	273.70
723.93	273.15
724.26	272.59
724.59	272.05
724.92	271.52
725.25	271.02
725.59	270.51
725.92	270.01
726.25	269.44
726.58	268.95
726.91	268.42
727.24	267.94
727.57	267.46
727.91	266.97
728.24	266.50
728.57	266.04
728.90	265.57
729.23	265.09
729.56	264.65
729.89	264.17
730.22	263.64
730.55	263.24
730.89	262.78
731.22	262.35
731.55	261.91
731.88	261.50
732.21	261.04
732.54	260.57
732.87	260.12
733.20	259.74
733.53	259.35
733.86	258.96
734.19	258.57
734.52	258.20
734.85	257.85
735.18	257.40
735.51	257.02
735.84	256.66
736.17	256.32
736.50	255.93
736.83	255.69
737.16	255.38
737.49	255.00
737.82	254.67
738.15	254.31
738.48	253.98
738.81	253.63
739.14	253.36
739.47	253.06
739.80	252.74
740.13	252.42
740.46	252.10
740.79	251.78
741.12	251.48
741.45	251.14
741.78	250.82
742.11	250.56
742.44	250.23
742.77	249.93
743.10	249.62
743.43	249.31
743.75	248.92
744.08	248.79
744.41	248.53
744.74	248.26
745.07	247.99
745.40	247.77
745.73	247.56
746.06	247.31
746.39	247.04
746.71	246.78
747.04	246.51
747.37	246.23
747.70	246.00
748.03	245.74
748.36	245.52
748.68	245.28
749.01	245.05
749.34	244.82
749.67	244.58
750.00	244.33
750.33	244.17
750.65	243.99
750.98	243.62
751.31	243.41
751.64	243.23
751.97	243.09
752.29	242.82
752.62	242.58
752.95	242.35
753.28	242.17
753.60	241.96
753.93	241.77
754.26	241.60
754.59	241.39
754.91	241.19
755.24	241.01
755.57	240.81
755.90	240.62
756.22	240.46
756.55	240.27
756.88	240.11
757.20	239.87
757.53	239.64
757.86	239.47
758.19	239.29
758.51	239.08
758.84	238.85
759.17	238.72
759.49	238.55
759.82	238.42
760.15	238.24
760.47	238.11
760.80	237.97
761.13	237.83
761.45	237.65
761.78	237.50
762.11	237.34
762.43	237.19
762.76	237.04
763.08	236.90
763.41	236.77
763.74	236.66
764.06	236.52
764.39	236.38
764.71	236.24
765.04	236.13
765.37	236.02
765.69	235.91
766.02	235.79
766.34	235.65
766.67	235.50
767.00	235.42
767.32	235.38
767.65	235.31
767.97	235.19
768.30	235.13
768.62	235.02
768.95	234.93
769.27	234.82
769.60	234.73
769.92	234.62
770.25	234.52
770.57	234.40
770.90	234.31
771.22	234.22
771.55	234.13
771.87	234.02
772.20	233.92
772.52	233.88
772.85	233.91
773.17	233.84
773.50	233.77
773.82	233.62
774.15	233.45
774.47	233.29
774.80	233.19
775.12	233.12
775.45	233.05
775.77	232.95
776.09	232.89
776.42	232.81
776.74	232.74
777.07	232.65
777.39	232.58
777.72	232.47
778.04	232.40
778.36	232.35
778.69	232.30
779.01	232.22
779.33	232.08
779.66	231.86
779.98	231.80
780.31	231.71
780.63	231.73
780.95	231.72
781.28	231.67
781.60	231.60
781.92	231.51
782.25	231.44
782.57	231.37
782.89	231.26
783.22	231.22
783.54	231.15
783.86	231.11
784.19	231.04
784.51	231.10
784.83	231.05
785.16	230.98
785.48	230.91
785.80	230.90
786.12	230.85
786.45	230.81
786.77	230.77
787.09	230.71
787.42	230.64
787.74	230.55
788.06	230.53
788.38	230.49
788.71	230.42
789.03	230.38
789.35	230.37
789.67	230.37
789.99	230.32
790.32	230.27
790.64	230.26
790.96	230.31
791.28	230.20
791.61	230.15
791.93	230.13
792.25	230.11
792.57	230.11
792.89	230.08
793.21	230.09
793.54	230.03
793.86	229.97
794.18	229.92
794.50	229.88
794.82	229.79
795.14	229.78
795.47	229.82
795.79	229.83
796.11	229.77
796.43	229.72
796.75	229.67
797.07	229.65
797.39	229.60
797.71	229.51
798.04	229.51
798.36	229.50
798.68	229.48
799.00	229.41
799.32	229.32
799.64	229.29
799.96	229.22
800.28	229.24
800.60	229.24
800.92	229.23
801.24	229.20
801.56	229.19
801.89	229.10
802.21	229.04
802.53	228.96
802.85	228.94
803.17	228.96
803.49	228.91
803.81	228.88
804.13	228.84
804.45	228.77
804.77	228.72
805.09	228.66
805.41	228.61
805.73	228.57
806.05	228.55
806.37	228.52
806.69	228.48
807.01	228.39
807.33	228.36
807.65	228.31
807.97	228.31
808.28	228.30
808.60	228.28
808.92	228.22
809.24	228.23
809.56	228.17
809.88	228.10
810.20	228.09
810.52	228.08
810.84	228.03
811.16	227.99
811.48	227.94
811.80	227.94
812.12	227.90
812.43	227.91
812.75	227.89
813.07	227.86
813.39	227.83
813.71	227.82
814.03	227.78
814.35	227.73
814.67	227.68
814.98	227.66
815.30	227.64
815.62	227.61
815.94	227.53
816.26	227.55
816.58	227.51
816.89	227.48
817.21	227.42
817.53	227.40
817.85	227.41
818.17	227.41
818.48	227.36
818.80	227.38
819.12	227.32
819.44	227.29
819.76	227.26
820.07	227.27
820.39	227.24
820.71	227.22
821.03	227.23
821.34	227.21
821.66	227.20
821.98	227.21
822.30	227.19
822.61	227.24
822.93	227.19
823.25	227.19
823.57	227.13
823.88	227.14
824.20	227.15
824.52	227.14
824.83	227.13
825.15	227.11
825.47	227.06
825.79	227.10
826.10	227.06
826.42	227.06
826.74	227.02
827.05	227.02
827.37	227.04
827.69	226.99
828.00	226.96
828.32	226.96
828.64	226.92
828.95	226.97
829.27	226.93
829.58	226.91
829.90	226.94
830.22	226.95
830.53	226.91
830.85	226.89
831.17	226.88
831.48	226.88
831.80	226.89
832.11	226.88
832.43	226.84
832.75	226.83
833.06	226.85
833.38	226.81
833.69	226.78
834.01	226.78
834.32	226.79
834.64	226.78
834.96	226.76
835.27	226.72
835.59	226.69
835.90	226.68
836.22	226.69
836.53	226.64
836.85	226.63
837.16	226.74
837.48	226.74
837.79	226.73
838.11	226.71
838.42	226.70
838.74	226.72
839.05	226.71
839.37	226.68
839.68	226.60
840.00	226.60
840.31	226.61
840.63	226.57
840.94	226.55
841.26	226.52
841.57	226.51
841.88	226.55
842.20	226.53
842.51	226.53
842.83	226.50
843.14	226.60
843.46	226.60
843.77	226.53
844.08	226.48
844.40	226.44
844.71	226.41
845.03	226.35
845.34	226.32
845.65	226.33
845.97	226.32
846.28	226.33
846.60	226.31
846.91	226.28
847.22	226.31
847.54	226.32
847.85	226.34
848.16	226.29
848.48	226.26
848.79	226.25
849.10	226.24
849.42	226.27
849.73	226.17
850.04	226.15
850.36	226.13
850.67	226.16
850.98	226.20
851.30	226.19
851.61	226.21
851.92	226.25
852.23	226.26
852.55	226.28
852.86	226.29
853.17	226.33
853.49	226.36
853.80	226.35
854.11	226.36
854.42	226.36
854.74	226.39
855.05	226.38
855.36	226.38
855.67	226.40
855.99	226.36
856.30	226.45
856.61	226.47
856.92	226.45
857.23	226.39
857.55	226.39
857.86	226.38
858.17	226.41
858.48	226.37
858.79	226.36
859.11	226.37
859.42	226.37
859.73	226.33
860.04	226.32
860.35	226.27
860.66	226.25
860.98	226.25
861.29	226.24
861.60	226.24
861.91	226.25
862.22	226.22
862.53	226.25
862.84	226.14
863.16	226.15
863.47	226.15
863.78	226.19
864.09	226.19
864.40	226.23
864.71	226.21
865.02	226.22
865.33	226.21
865.64	226.18
865.95	226.20
866.27	226.29
866.58	226.30
866.89	226.34
867.20	226.32
867.51	226.28
867.82	226.31
868.13	226.35
868.44	226.34
868.75	226.39
869.06	226.38
869.37	226.39
869.68	226.35
869.99	226.38
870.30	226.40
870.61	226.41
870.92	226.37
871.23	226.37
871.54	226.39
871.85	226.40
872.16	226.40
872.47	226.40
872.78	226.33
873.09	226.33
873.40	226.33
873.71	226.34
874.02	226.38
874.33	226.35
874.64	226.33
874.95	226.34
875.26	226.30
875.56	226.30
875.87	226.29
876.18	226.27
876.49	226.36
876.80	226.34
877.11	226.31
877.42	226.31
877.73	226.32
878.04	226.30
878.35	226.32
878.66	226.35
878.96	226.35
879.27	226.35
879.58	226.35
879.89	226.31
880.20	226.36
880.51	226.33
880.82	226.36
881.12	226.35
881.43	226.32
881.74	226.30
882.05	226.29
882.36	226.30
882.67	226.36
882.97	226.24
883.28	226.25
883.59	226.24
883.90	226.25
884.21	226.28
884.51	226.26
884.82	226.22
885.13	226.22
885.44	226.17
885.74	226.18
886.05	226.17
886.36	226.18
886.67	226.15
886.98	226.22
887.28	226.21
887.59	226.21
887.90	226.17
888.20	226.18
888.51	226.16
888.82	226.12
889.13	226.10
889.43	226.18
889.74	226.14
890.05	226.11
890.35	226.09
890.66	226.02
890.97	226.00
891.28	226.00
891.58	225.96
891.89	225.96
892.20	225.94
892.50	225.90
892.81	225.88
893.12	225.84
893.42	225.77
893.73	225.77
894.04	225.73
894.34	225.79
894.65	225.79
894.95	225.79
895.26	225.79
895.57	225.79
895.87	225.69
896.18	225.72
896.48	225.75
896.79	225.73
897.10	225.75
897.40	225.78
897.71	225.78
898.01	225.80
898.32	225.80
898.63	225.82
898.93	225.83
899.24	225.85
899.54	225.87
899.85	225.84
900.15	225.78
900.46	225.79
900.76	225.79
901.07	225.81
901.38	225.82
901.68	225.84
901.99	225.82
902.29	225.84
902.60	225.83
902.90	225.84
903.21	225.85
903.51	225.83
903.82	225.86
904.12	225.84
904.43	225.82
904.73	225.85
905.03	225.84
905.34	225.94
905.64	225.91
905.95	225.92
906.25	225.90
906.56	225.93
906.86	225.92
907.17	225.93
907.47	225.88
907.77	225.85
908.08	225.82
908.38	225.82
908.69	225.84
908.99	225.83
909.30	225.83
909.60	225.85
909.90	225.87
910.21	225.83
910.51	225.82
910.81	225.85
911.12	225.82
911.42	225.79
911.73	225.72
912.03	225.72
912.33	225.71
912.64	225.74
912.94	225.76
913.24	225.76
913.55	225.72
913.85	225.75
914.15	225.80
914.46	225.82
914.76	225.82
915.06	225.80
915.37	225.80
915.67	225.77
915.97	225.74
916.27	225.72
916.58	225.74
916.88	225.73
917.18	225.71
917.49	225.81
917.79	225.82
918.09	225.79
918.39	225.84
918.70	225.84
919.00	225.84
919.30	225.87
919.60	225.87
919.91	225.86
920.21	225.87
920.51	225.86
920.81	225.84
921.12	225.88
921.42	225.88
921.72	225.88
922.02	225.91
922.32	225.95
922.63	225.95
922.93	226.03
923.23	226.03
923.53	226.01
923.83	225.91
924.13	225.91
924.44	225.93
924.74	225.93
925.04	225.97
925.34	225.98
925.64	225.95
925.94	225.96
926.24	226.01
926.55	226.00
926.85	226.03
927.15	226.02
927.45	225.98
927.75	225.96
928.05	225.99
928.35	225.97
928.65	225.98
928.95	225.97
929.26	225.92
929.56	225.98
929.86	226.01
930.16	226.03
930.46	226.01
930.76	226.06
931.06	226.02
931.36	225.94
931.66	225.96
931.96	225.96
932.26	225.94
932.56	225.92
932.86	225.89
933.16	225.85
933.46	225.86
933.76	225.80
934.06	225.84
934.36	225.84
934.66	225.82
934.96	225.81
935.26	225.85
935.56	225.82
935.86	225.76
936.16	225.75
936.46	225.77
936.76	225.81
937.06	225.76
937.36	225.74
937.66	225.73
937.96	225.70
938.26	225.69
938.56	225.72
938.86	225.74
939.16	225.77
939.46	225.79
939.76	225.80
940.06	225.83
940.35	225.79
940.65	225.71
940.95	225.75
941.25	225.70
941.55	225.66
941.85	225.66
942.15	225.67
942.45	225.71
942.75	225.68
943.04	225.64
943.34	225.64
943.64	225.65
943.94	225.66
944.24	225.68
944.54	225.70
944.84	225.69
945.13	225.68
945.43	225.63
945.73	225.61
946.03	225.61
946.33	225.60
946.62	225.60
946.92	225.63
947.22	225.63
947.52	225.67
947.82	225.70
948.11	225.67
948.41	225.71
948.71	225.67
949.01	225.67
949.31	225.69
949.60	225.70
949.90	225.71
950.20	225.73
950.50	225.72
950.79	225.68
951.09	225.66
951.39	225.61
951.69	225.64
951.98	225.67
952.28	225.65
952.58	225.65
952.87	225.68
953.17	225.69
953.47	225.65
953.76	225.65
954.06	225.64
954.36	225.66
954.66	225.60
954.95	225.60
955.25	225.61
955.55	225.61
955.84	225.62
956.14	225.65
956.44	225.63
956.73	225.60
957.03	225.66
957.32	225.68
957.62	225.73
957.92	225.77
958.21	225.75
958.51	225.87
958.81	225.87
959.10	225.88
959.40	225.89
959.69	225.93
959.99	225.93
960.29	225.89
960.58	225.86
960.88	225.92
961.17	225.91
961.47	225.93
961.76	225.91
962.06	225.92
962.36	225.89
962.65	225.93
962.95	225.97
963.24	225.94
963.54	225.93
963.83	225.91
964.13	225.89
964.42	225.86
964.72	225.81
965.01	225.84
965.31	225.84
965.60	225.83
965.90	225.88
966.19	225.85
966.49	225.88
966.78	225.91
967.08	225.91
967.37	225.95
967.67	225.88
967.96	225.89
968.26	225.89
968.55	225.90
968.85	225.87
969.14	225.82
969.43	225.82
969.73	225.81
970.02	225.80
970.32	225.81
970.61	225.82
970.91	225.77
971.20	225.75
971.49	225.75
971.79	225.76
972.08	225.71
972.38	225.71
972.67	225.68
972.96	225.66
973.26	225.64
973.55	225.63
973.85	225.66
974.14	225.65
974.43	225.65
974.73	225.66
975.02	225.63
975.31	225.64
975.61	225.66
975.90	225.66
976.19	225.64
976.49	225.64
976.78	225.68
977.07	225.68
977.37	225.69
977.66	225.68
977.95	225.66
978.24	225.65
978.54	225.65
978.83	225.66
979.12	225.66
979.42	225.68
979.71	225.66
980.00	225.66
980.29	225.68
980.59	225.66
980.88	225.68
981.17	225.69
981.46	225.71
981.76	225.70
982.05	225.74
982.34	225.74
982.63	225.74
982.93	225.72
983.22	225.72
983.51	225.72
983.80	225.73
984.09	225.74
984.39	225.77
984.68	225.76
984.97	225.76
985.26	225.77
985.55	225.79
985.85	225.79
986.14	225.80
986.43	225.85
986.72	225.85
987.01	225.81
987.30	225.82
987.59	225.83
987.89	225.84
988.18	225.81
988.47	225.83
988.76	225.81
989.05	225.81
989.34	225.82
989.63	225.84
989.92	225.85
990.22	225.82
990.51	225.81
990.80	225.79
991.09	225.81
991.38	225.83
991.67	225.77
991.96	225.76
992.25	225.78
992.54	225.70
992.83	225.71
993.12	225.71
993.41	225.71
993.70	225.70
993.99	225.71
994.28	225.73
994.58	225.75
994.87	225.74
995.16	225.76
995.45	225.75
995.74	225.75
996.03	225.76
996.32	225.79
996.61	225.80
996.90	225.82
997.19	225.81
997.48	225.78
997.77	225.78
998.06	225.82
998.34	225.80
998.63	225.83
998.92	225.80
999.21	225.83
999.50	225.86
999.79	225.86
1000.08	225.87
1000.37	225.87
1000.66	225.85
1000.95	225.85
1001.24	225.83
1001.53	225.85
1001.82	225.81
1002.11	225.77
1002.40	225.76
1002.68	225.78
1002.97	225.85
1003.26	225.88
1003.55	225.85
1003.84	225.84
1004.13	225.85
1004.42	225.81
1004.71	225.81
1004.99	225.82
1005.28	225.83
1005.57	225.83
1005.86	225.81
1006.15	225.77
1006.44	225.75
1006.72	225.78
1007.01	225.77
1007.30	225.76
1007.59	225.76
1007.88	225.76
1008.17	225.77
1008.45	225.76
1008.74	225.72
1009.03	225.66
1009.32	225.65
1009.60	225.66
1009.89	225.68
1010.18	225.63
1010.47	225.65
1010.76	225.67
1011.04	225.68
1011.33	225.69
1011.62	225.68
1011.91	225.69
1012.19	225.70
1012.48	225.70
1012.77	225.66
1013.05	225.75
1013.34	225.74
1013.63	225.74
1013.92	225.77
1014.20	225.74
1014.49	225.74
1014.78	225.73
1015.06	225.72
1015.35	225.70
1015.64	225.70
1015.92	225.70
1016.21	225.69
1016.50	225.72
1016.78	225.72
1017.07	225.68
1017.36	225.63
1017.64	225.61
1017.93	225.66
1018.22	225.65
1018.50	225.64
1018.79	225.68
1019.08	225.60
1019.36	225.57
1019.65	225.56
1019.93	225.58
1020.22	225.60
1020.51	225.64
1020.79	225.64
1021.08	225.47
1021.36	225.53
1021.65	226.24
1021.94	225.63
1022.22	224.93
1022.51	225.55
1022.79	226.00
1023.08	225.49
1023.36	226.37
1023.65	225.46
>>>>>End Processed Spectral Data<<<<<
