SpectraSuite Data File
++++++++++++++++++++++++++++++++++++
Date: Fri Feb 01 18:00:17 EST 2013
User: group
Dark Spectrum Present: No
Reference Spectrum Present: No
Number of Sampled Component Spectra: 1
Spectrometers: USB2E7196
Integration Time (usec): 35000 (USB2E7196)
Spectra Averaged: 100 (USB2E7196)
Boxcar Smoothing: 10 (USB2E7196)
Correct for Electrical Dark: No (USB2E7196)
Strobe/Lamp Enabled: No (USB2E7196)
Correct for Detector Non-linearity: No (USB2E7196)
Correct for Stray Light: No (USB2E7196)
Number of Pixels in Processed Spectrum: 2048
>>>>>Begin Processed Spectral Data<<<<<
339.09	0.00
339.48	213.06
339.86	214.36
340.24	215.84
340.63	217.49
341.01	220.12
341.39	219.95
341.78	221.94
342.16	222.86
342.54	222.56
342.93	211.62
343.31	222.30
343.69	222.84
344.07	223.31
344.46	223.78
344.84	224.13
345.22	224.37
345.60	224.60
345.99	224.76
346.37	224.89
346.75	225.04
347.13	225.09
347.52	225.14
347.90	225.19
348.28	225.20
348.66	225.26
349.05	225.25
349.43	225.29
349.81	225.33
350.19	225.37
350.57	225.42
350.96	225.48
351.34	225.56
351.72	225.63
352.10	225.71
352.48	225.74
352.87	225.80
353.25	225.85
353.63	225.91
354.01	225.96
354.39	226.01
354.77	226.07
355.15	226.16
355.54	226.20
355.92	226.22
356.30	226.30
356.68	226.42
357.06	226.48
357.44	226.48
357.82	226.54
358.20	226.63
358.58	226.66
358.97	226.70
359.35	226.77
359.73	226.83
360.11	226.88
360.49	226.92
360.87	226.98
361.25	227.03
361.63	227.09
362.01	227.12
362.39	227.10
362.77	227.11
363.15	227.14
363.53	227.16
363.91	227.19
364.29	227.21
364.67	227.10
365.05	227.12
365.43	227.15
365.81	227.15
366.19	227.15
366.57	227.17
366.95	227.15
367.33	227.12
367.71	227.14
368.09	227.13
368.47	227.12
368.85	227.10
369.23	227.09
369.61	227.05
369.99	227.11
370.37	227.11
370.75	227.15
371.13	227.09
371.51	227.08
371.89	227.08
372.27	227.05
372.65	227.03
373.03	227.01
373.41	226.97
373.78	226.92
374.16	226.86
374.54	226.79
374.92	226.73
375.30	226.70
375.68	226.64
376.06	226.61
376.44	226.55
376.82	226.49
377.19	226.45
377.57	226.40
377.95	226.32
378.33	226.31
378.71	226.20
379.09	226.19
379.47	226.11
379.84	226.04
380.22	225.98
380.60	225.90
380.98	225.84
381.36	225.79
381.73	225.73
382.11	225.72
382.49	225.68
382.87	225.66
383.25	225.58
383.62	225.62
384.00	225.56
384.38	225.52
384.76	225.52
385.13	225.49
385.51	225.45
385.89	225.38
386.27	225.30
386.64	225.28
387.02	225.20
387.40	225.16
387.78	225.14
388.15	225.10
388.53	225.07
388.91	225.03
389.29	225.01
389.66	225.00
390.04	224.93
390.42	224.93
390.79	224.91
391.17	224.88
391.55	224.79
391.92	224.77
392.30	224.79
392.68	224.74
393.05	224.74
393.43	224.76
393.81	224.79
394.18	224.76
394.56	224.75
394.94	224.77
395.31	224.76
395.69	224.80
396.06	224.86
396.44	224.90
396.82	224.89
397.19	224.95
397.57	224.97
397.95	225.03
398.32	225.05
398.70	225.10
399.07	225.19
399.45	225.23
399.82	225.30
400.20	225.35
400.58	225.39
400.95	225.42
401.33	225.50
401.70	225.65
402.08	225.78
402.45	225.88
402.83	226.00
403.20	226.14
403.58	226.24
403.95	226.39
404.33	226.52
404.71	226.68
405.08	226.84
405.46	227.02
405.83	227.21
406.21	227.38
406.58	227.57
406.96	227.74
407.33	227.94
407.70	228.15
408.08	228.46
408.45	228.71
408.83	228.99
409.20	229.22
409.58	229.41
409.95	229.72
410.33	230.07
410.70	230.42
411.08	230.77
411.45	231.16
411.82	231.53
412.20	231.99
412.57	232.54
412.95	232.98
413.32	233.49
413.69	234.01
414.07	234.57
414.44	235.17
414.82	235.82
415.19	236.56
415.56	237.30
415.94	238.06
416.31	238.90
416.68	239.72
417.06	240.70
417.43	241.61
417.81	242.64
418.18	243.67
418.55	244.78
418.93	245.98
419.30	247.19
419.67	248.45
420.04	249.76
420.42	251.08
420.79	252.67
421.16	254.25
421.54	255.83
421.91	257.47
422.28	259.19
422.66	260.97
423.03	262.71
423.40	264.53
423.77	266.44
424.15	268.39
424.52	270.41
424.89	272.57
425.26	274.72
425.64	276.66
426.01	278.81
426.38	281.04
426.75	283.27
427.13	285.60
427.50	288.06
427.87	290.57
428.24	293.09
428.61	295.47
428.99	298.04
429.36	300.91
429.73	303.72
430.10	306.44
430.47	309.24
430.85	312.12
431.22	315.11
431.59	318.36
431.96	321.42
432.33	324.81
432.70	328.01
433.08	331.79
433.45	335.36
433.82	338.89
434.19	342.80
434.56	346.59
434.93	350.18
435.30	353.65
435.68	357.55
436.05	361.39
436.42	365.16
436.79	368.56
437.16	372.21
437.53	376.03
437.90	379.80
438.27	383.49
438.64	387.28
439.01	390.82
439.38	393.83
439.75	396.72
440.13	400.09
440.50	403.26
440.87	405.77
441.24	408.43
441.61	411.36
441.98	413.42
442.35	415.90
442.72	418.45
443.09	420.97
443.46	422.35
443.83	423.17
444.20	423.87
444.57	425.05
444.94	425.49
445.31	425.95
445.68	426.39
446.05	426.52
446.42	426.04
446.79	425.46
447.16	424.86
447.53	424.46
447.90	422.90
448.27	421.33
448.64	419.21
449.01	417.67
449.37	414.97
449.74	412.39
450.11	409.29
450.48	405.91
450.85	402.49
451.22	399.58
451.59	396.80
451.96	394.16
452.33	390.63
452.70	387.40
453.07	383.59
453.43	379.73
453.80	376.02
454.17	372.38
454.54	368.93
454.91	365.22
455.28	361.57
455.65	358.17
456.02	354.81
456.38	351.93
456.75	348.30
457.12	345.26
457.49	342.24
457.86	339.33
458.23	336.78
458.59	334.01
458.96	331.18
459.33	328.67
459.70	326.17
460.07	324.07
460.43	321.74
460.80	319.52
461.17	317.52
461.54	315.46
461.91	313.54
462.27	311.57
462.64	309.86
463.01	308.04
463.38	306.29
463.74	304.49
464.11	302.85
464.48	301.42
464.85	299.96
465.21	298.76
465.58	297.50
465.95	296.04
466.32	294.80
466.68	293.55
467.05	292.34
467.42	291.10
467.78	289.86
468.15	288.64
468.52	287.72
468.88	286.57
469.25	285.50
469.62	284.63
469.98	283.70
470.35	282.86
470.72	282.03
471.08	281.17
471.45	280.41
471.82	279.67
472.18	278.87
472.55	278.20
472.92	277.47
473.28	276.84
473.65	276.22
474.02	275.57
474.38	275.04
474.75	274.60
475.11	274.11
475.48	273.70
475.85	273.35
476.21	273.02
476.58	272.73
476.94	272.49
477.31	272.21
477.67	271.98
478.04	271.73
478.41	271.56
478.77	271.47
479.14	271.29
479.50	271.24
479.87	271.26
480.23	271.36
480.60	271.38
480.96	271.40
481.33	271.56
481.69	271.76
482.06	271.93
482.42	272.00
482.79	272.20
483.15	272.54
483.52	272.91
483.88	273.21
484.25	273.57
484.61	273.96
484.98	274.39
485.34	274.96
485.71	275.57
486.07	276.20
486.44	276.79
486.80	277.52
487.17	278.24
487.53	279.06
487.90	279.84
488.26	280.78
488.62	281.81
488.99	282.83
489.35	283.86
489.72	285.02
490.08	286.33
490.44	287.58
490.81	288.96
491.17	290.32
491.54	291.84
491.90	293.45
492.26	295.21
492.63	297.03
492.99	298.88
493.36	300.85
493.72	302.99
494.08	305.17
494.45	307.57
494.81	310.04
495.17	312.59
495.54	315.37
495.90	318.20
496.26	321.12
496.63	324.23
496.99	327.51
497.35	330.95
497.72	334.51
498.08	338.29
498.44	342.13
498.80	346.30
499.17	350.61
499.53	354.99
499.89	359.63
500.26	364.35
500.62	369.29
500.98	374.54
501.34	379.91
501.71	385.58
502.07	391.32
502.43	397.32
502.79	403.52
503.16	409.94
503.52	416.55
503.88	423.35
504.24	430.40
504.60	437.71
504.97	445.33
505.33	453.11
505.69	461.27
506.05	469.58
506.41	477.96
506.78	486.64
507.14	495.69
507.50	504.95
507.86	514.61
508.22	524.36
508.59	534.20
508.95	544.43
509.31	554.91
509.67	565.67
510.03	576.63
510.39	587.89
510.75	599.45
511.12	611.16
511.48	623.29
511.84	635.54
512.20	647.89
512.56	660.60
512.92	673.67
513.28	687.00
513.64	700.36
514.00	714.06
514.37	728.02
514.73	742.05
515.09	756.04
515.45	770.40
515.81	785.13
516.17	800.21
516.53	815.45
516.89	830.79
517.25	846.16
517.61	861.76
517.97	877.42
518.33	892.98
518.69	909.09
519.05	925.25
519.41	941.76
519.77	958.58
520.13	975.47
520.49	992.24
520.85	1008.96
521.21	1025.99
521.57	1043.70
521.93	1060.82
522.29	1078.71
522.65	1096.62
523.01	1114.38
523.37	1131.96
523.73	1149.74
524.09	1167.48
524.45	1185.32
524.81	1203.49
525.17	1222.06
525.53	1240.63
525.89	1259.35
526.25	1277.93
526.61	1296.11
526.97	1314.65
527.33	1332.93
527.68	1351.14
528.04	1369.47
528.40	1387.91
528.76	1406.91
529.12	1425.40
529.48	1444.26
529.84	1462.07
530.20	1480.56
530.56	1499.56
530.91	1518.94
531.27	1537.60
531.63	1556.00
531.99	1574.74
532.35	1592.79
532.71	1610.56
533.07	1628.89
533.42	1646.77
533.78	1664.81
534.14	1683.22
534.50	1700.62
534.86	1718.66
535.21	1736.19
535.57	1754.22
535.93	1771.85
536.29	1788.83
536.65	1805.94
537.00	1822.79
537.36	1840.42
537.72	1856.98
538.08	1873.41
538.44	1889.44
538.79	1905.59
539.15	1921.33
539.51	1937.17
539.87	1953.87
540.22	1969.93
540.58	1985.98
540.94	2001.46
541.29	2016.49
541.65	2031.33
542.01	2046.84
542.37	2061.27
542.72	2075.78
543.08	2089.90
543.44	2104.53
543.79	2118.06
544.15	2131.33
544.51	2145.28
544.87	2158.43
545.22	2171.70
545.58	2184.25
545.94	2196.08
546.29	2208.11
546.65	2220.35
547.01	2231.84
547.36	2242.57
547.72	2253.11
548.07	2263.11
548.43	2273.34
548.79	2283.38
549.14	2293.00
549.50	2302.17
549.86	2311.95
550.21	2321.38
550.57	2330.60
550.92	2339.33
551.28	2348.25
551.64	2357.17
551.99	2365.54
552.35	2373.70
552.70	2381.73
553.06	2389.49
553.41	2397.83
553.77	2405.64
554.13	2413.31
554.48	2421.35
554.84	2428.79
555.19	2435.81
555.55	2442.74
555.90	2449.08
556.26	2456.04
556.61	2462.52
556.97	2468.79
557.32	2474.63
557.68	2480.39
558.03	2486.12
558.39	2491.21
558.74	2497.59
559.10	2503.16
559.45	2508.28
559.81	2513.99
560.16	2519.41
560.52	2524.42
560.87	2529.30
561.23	2533.46
561.58	2537.93
561.94	2541.69
562.29	2545.32
562.64	2549.33
563.00	2553.20
563.35	2558.16
563.71	2562.63
564.06	2567.19
564.42	2571.18
564.77	2575.08
565.12	2578.72
565.48	2581.93
565.83	2585.23
566.19	2587.70
566.54	2589.56
566.89	2591.99
567.25	2593.70
567.60	2595.91
567.96	2598.56
568.31	2600.34
568.66	2602.53
569.02	2604.10
569.37	2605.42
569.72	2607.31
570.08	2608.48
570.43	2609.30
570.78	2609.27
571.14	2608.22
571.49	2607.34
571.84	2607.67
572.20	2607.09
572.55	2606.51
572.90	2605.32
573.26	2604.43
573.61	2602.90
573.96	2601.68
574.31	2598.79
574.67	2596.02
575.02	2592.54
575.37	2589.18
575.72	2585.62
576.08	2582.30
576.43	2578.98
576.78	2575.51
577.13	2572.11
577.49	2568.95
577.84	2565.53
578.19	2561.92
578.54	2558.37
578.90	2554.30
579.25	2548.55
579.60	2543.33
579.95	2538.04
580.30	2532.75
580.66	2527.18
581.01	2522.12
581.36	2516.78
581.71	2512.48
582.06	2507.86
582.42	2503.14
582.77	2497.74
583.12	2492.85
583.47	2487.94
583.82	2482.82
584.17	2477.12
584.53	2471.34
584.88	2465.24
585.23	2458.92
585.58	2452.86
585.93	2446.67
586.28	2441.29
586.63	2435.71
586.98	2430.09
587.34	2424.95
587.69	2419.59
588.04	2413.82
588.39	2407.59
588.74	2400.56
589.09	2393.63
589.44	2386.03
589.79	2379.27
590.14	2372.81
590.49	2365.44
590.84	2358.13
591.19	2351.18
591.54	2343.86
591.89	2335.83
592.25	2328.26
592.60	2320.10
592.95	2311.71
593.30	2303.58
593.65	2295.00
594.00	2286.99
594.35	2278.70
594.70	2269.46
595.05	2261.40
595.40	2253.07
595.75	2244.50
596.10	2237.41
596.45	2229.89
596.80	2222.97
597.15	2215.54
597.50	2207.55
597.85	2200.03
598.19	2192.44
598.54	2184.44
598.89	2176.70
599.24	2169.69
599.59	2162.02
599.94	2154.87
600.29	2147.57
600.64	2139.91
600.99	2131.39
601.34	2123.59
601.69	2115.65
602.04	2107.78
602.39	2099.25
602.74	2091.27
603.08	2083.52
603.43	2075.78
603.78	2067.23
604.13	2058.79
604.48	2050.28
604.83	2042.11
605.18	2034.23
605.53	2025.01
605.87	2015.63
606.22	2007.25
606.57	1997.86
606.92	1989.19
607.27	1980.92
607.62	1972.80
607.96	1964.32
608.31	1956.58
608.66	1947.69
609.01	1938.85
609.36	1930.08
609.70	1920.68
610.05	1911.35
610.40	1902.34
610.75	1892.42
611.10	1883.43
611.44	1873.39
611.79	1863.94
612.14	1853.87
612.49	1842.98
612.83	1833.08
613.18	1823.57
613.53	1814.01
613.88	1804.12
614.22	1794.43
614.57	1784.14
614.92	1774.69
615.27	1765.73
615.61	1756.00
615.96	1746.46
616.31	1737.40
616.65	1728.71
617.00	1719.78
617.35	1710.67
617.70	1700.93
618.04	1691.06
618.39	1681.34
618.74	1672.49
619.08	1662.74
619.43	1653.90
619.78	1645.70
620.12	1637.33
620.47	1628.44
620.82	1618.86
621.16	1610.06
621.51	1601.01
621.85	1592.01
622.20	1581.95
622.55	1572.16
622.89	1562.89
623.24	1553.94
623.59	1545.26
623.93	1536.45
624.28	1527.91
624.62	1519.19
624.97	1510.61
625.32	1502.54
625.66	1494.33
626.01	1486.03
626.35	1477.36
626.70	1468.12
627.04	1459.13
627.39	1449.84
627.73	1441.13
628.08	1433.09
628.43	1424.58
628.77	1416.06
629.12	1407.29
629.46	1398.79
629.81	1389.94
630.15	1381.33
630.50	1372.56
630.84	1362.91
631.19	1353.41
631.53	1344.49
631.88	1335.46
632.22	1326.47
632.57	1317.91
632.91	1309.05
633.26	1300.17
633.60	1291.29
633.95	1282.84
634.29	1274.46
634.64	1266.62
634.98	1257.90
635.32	1249.35
635.67	1241.49
636.01	1233.69
636.36	1225.66
636.70	1218.09
637.05	1210.46
637.39	1202.86
637.73	1195.28
638.08	1188.31
638.42	1181.42
638.77	1174.00
639.11	1166.37
639.45	1158.95
639.80	1151.16
640.14	1143.75
640.49	1136.21
640.83	1128.96
641.17	1121.81
641.52	1114.39
641.86	1106.80
642.20	1099.99
642.55	1092.58
642.89	1085.05
643.23	1077.28
643.58	1070.66
643.92	1063.49
644.26	1056.47
644.61	1049.46
644.95	1042.57
645.29	1035.11
645.64	1027.13
645.98	1019.72
646.32	1012.79
646.66	1005.84
647.01	999.12
647.35	992.39
647.69	985.44
648.04	979.01
648.38	972.28
648.72	965.51
649.06	958.56
649.41	951.77
649.75	944.92
650.09	938.04
650.43	931.36
650.78	924.20
651.12	917.17
651.46	910.53
651.80	903.98
652.14	897.64
652.49	891.36
652.83	885.44
653.17	878.90
653.51	872.34
653.85	866.03
654.20	859.56
654.54	852.61
654.88	846.03
655.22	839.18
655.56	832.69
655.90	826.32
656.25	820.33
656.59	814.14
656.93	808.24
657.27	802.29
657.61	796.13
657.95	790.25
658.29	784.46
658.64	778.30
658.98	772.09
659.32	765.71
659.66	759.72
660.00	753.59
660.34	747.82
660.68	742.15
661.02	736.40
661.36	730.85
661.70	725.65
662.05	720.65
662.39	715.69
662.73	710.52
663.07	705.42
663.41	700.17
663.75	695.00
664.09	689.75
664.43	684.70
664.77	679.93
665.11	675.08
665.45	670.19
665.79	665.55
666.13	660.80
666.47	656.19
666.81	651.38
667.15	646.62
667.49	642.19
667.83	637.75
668.17	633.15
668.51	628.45
668.85	623.77
669.19	619.31
669.53	614.91
669.87	610.39
670.21	606.08
670.55	601.88
670.89	597.83
671.23	593.80
671.57	589.73
671.91	585.63
672.25	581.45
672.58	577.44
672.92	573.47
673.26	569.81
673.60	566.09
673.94	562.47
674.28	559.10
674.62	555.58
674.96	552.03
675.30	548.64
675.64	545.32
675.97	542.15
676.31	538.83
676.65	535.44
676.99	532.29
677.33	529.05
677.67	525.80
678.01	522.31
678.34	518.98
678.68	515.63
679.02	512.38
679.36	509.20
679.70	506.05
680.04	502.86
680.37	499.57
680.71	496.36
681.05	493.34
681.39	490.22
681.73	487.23
682.06	484.32
682.40	481.39
682.74	478.38
683.08	475.40
683.42	472.44
683.75	469.57
684.09	466.62
684.43	463.76
684.77	460.93
685.10	458.23
685.44	455.52
685.78	452.89
686.12	450.21
686.45	447.56
686.79	444.90
687.13	442.38
687.46	439.87
687.80	437.37
688.14	434.77
688.48	432.40
688.81	429.80
689.15	427.27
689.49	424.77
689.82	422.37
690.16	419.93
690.50	417.66
690.83	415.42
691.17	413.14
691.51	410.84
691.84	408.68
692.18	406.52
692.52	404.22
692.85	401.96
693.19	399.85
693.52	397.74
693.86	395.69
694.20	393.61
694.53	391.52
694.87	389.38
695.21	387.35
695.54	385.22
695.88	383.21
696.21	381.25
696.55	379.30
696.88	377.37
697.22	375.47
697.56	373.53
697.89	371.58
698.23	369.71
698.56	367.87
698.90	366.02
699.23	364.06
699.57	362.22
699.90	360.43
700.24	358.63
700.58	356.86
700.91	355.11
701.25	353.40
701.58	351.79
701.92	350.18
702.25	348.59
702.59	347.01
702.92	345.46
703.26	343.91
703.59	342.42
703.93	341.06
704.26	339.63
704.60	338.14
704.93	336.72
705.26	335.26
705.60	333.86
705.93	332.55
706.27	331.33
706.60	330.10
706.94	328.81
707.27	327.40
707.61	326.14
707.94	324.93
708.27	323.66
708.61	322.40
708.94	321.20
709.28	319.98
709.61	318.83
709.94	317.73
710.28	316.55
710.61	315.41
710.95	314.10
711.28	313.00
711.61	311.91
711.95	310.81
712.28	309.67
712.61	308.56
712.95	307.43
713.28	306.40
713.61	305.36
713.95	304.36
714.28	303.42
714.61	302.42
714.95	301.40
715.28	300.42
715.61	299.42
715.95	298.42
716.28	297.45
716.61	296.48
716.95	295.47
717.28	294.59
717.61	293.70
717.94	292.88
718.28	291.94
718.61	291.04
718.94	290.23
719.27	289.46
719.61	288.71
719.94	287.95
720.27	287.09
720.60	286.34
720.94	285.62
721.27	284.92
721.60	284.23
721.93	283.54
722.27	282.90
722.60	282.27
722.93	281.63
723.26	281.02
723.59	280.38
723.93	279.78
724.26	279.12
724.59	278.45
724.92	277.83
725.25	277.27
725.59	276.65
725.92	276.03
726.25	275.45
726.58	274.85
726.91	274.25
727.24	273.70
727.57	273.15
727.91	272.53
728.24	272.01
728.57	271.45
728.90	270.91
729.23	270.28
729.56	269.74
729.89	269.20
730.22	268.63
730.55	268.09
730.89	267.59
731.22	267.06
731.55	266.56
731.88	266.08
732.21	265.56
732.54	265.11
732.87	264.60
733.20	264.13
733.53	263.72
733.86	263.32
734.19	262.88
734.52	262.46
734.85	262.09
735.18	261.60
735.51	261.18
735.84	260.73
736.17	260.38
736.50	259.92
736.83	259.64
737.16	259.25
737.49	258.91
737.82	258.50
738.15	258.15
738.48	257.78
738.81	257.42
739.14	257.04
739.47	256.68
739.80	256.39
740.13	256.03
740.46	255.65
740.79	255.26
741.12	254.91
741.45	254.53
741.78	254.09
742.11	253.77
742.44	253.40
742.77	253.12
743.10	252.75
743.43	252.41
743.75	251.98
744.08	251.80
744.41	251.49
744.74	251.19
745.07	250.86
745.40	250.55
745.73	250.26
746.06	249.94
746.39	249.62
746.71	249.29
747.04	248.98
747.37	248.64
747.70	248.35
748.03	248.08
748.36	247.81
748.68	247.57
749.01	247.30
749.34	247.05
749.67	246.80
750.00	246.55
750.33	246.39
750.65	246.13
750.98	245.72
751.31	245.44
751.64	245.15
751.97	244.96
752.29	244.71
752.62	244.43
752.95	244.19
753.28	243.94
753.60	243.67
753.93	243.45
754.26	243.28
754.59	243.03
754.91	242.78
755.24	242.52
755.57	242.31
755.90	242.05
756.22	241.85
756.55	241.58
756.88	241.33
757.20	241.05
757.53	240.83
757.86	240.67
758.19	240.45
758.51	240.30
758.84	240.04
759.17	239.84
759.49	239.64
759.82	239.50
760.15	239.35
760.47	239.20
760.80	238.99
761.13	238.82
761.45	238.64
761.78	238.47
762.11	238.33
762.43	238.16
762.76	238.02
763.08	237.82
763.41	237.70
763.74	237.59
764.06	237.40
764.39	237.28
764.71	237.08
765.04	236.92
765.37	236.75
765.69	236.61
766.02	236.48
766.34	236.35
766.67	236.18
767.00	236.07
767.32	235.99
767.65	235.92
767.97	235.82
768.30	235.69
768.62	235.58
768.95	235.42
769.27	235.28
769.60	235.18
769.92	235.05
770.25	234.90
770.57	234.76
770.90	234.64
771.22	234.51
771.55	234.44
771.87	234.37
772.20	234.26
772.52	234.23
772.85	234.26
773.17	234.16
773.50	234.06
773.82	233.93
774.15	233.79
774.47	233.64
774.80	233.51
775.12	233.43
775.45	233.34
775.77	233.27
776.09	233.19
776.42	233.11
776.74	233.06
777.07	232.97
777.39	232.91
777.72	232.84
778.04	232.78
778.36	232.67
778.69	232.57
779.01	232.49
779.33	232.36
779.66	232.18
779.98	232.07
780.31	232.02
780.63	231.96
780.95	231.90
781.28	231.80
781.60	231.71
781.92	231.65
782.25	231.59
782.57	231.52
782.89	231.46
783.22	231.37
783.54	231.26
783.86	231.21
784.19	231.12
784.51	231.08
784.83	231.00
785.16	230.97
785.48	230.93
785.80	230.88
786.12	230.78
786.45	230.71
786.77	230.68
787.09	230.61
787.42	230.51
787.74	230.45
788.06	230.39
788.38	230.34
788.71	230.28
789.03	230.20
789.35	230.14
789.67	230.11
789.99	230.06
790.32	230.00
790.64	229.94
790.96	229.97
791.28	229.90
791.61	229.81
791.93	229.75
792.25	229.68
792.57	229.66
792.89	229.59
793.21	229.57
793.54	229.49
793.86	229.39
794.18	229.34
794.50	229.29
794.82	229.25
795.14	229.22
795.47	229.17
795.79	229.13
796.11	229.05
796.43	229.01
796.75	228.95
797.07	228.93
797.39	228.86
797.71	228.75
798.04	228.70
798.36	228.67
798.68	228.60
799.00	228.55
799.32	228.48
799.64	228.47
799.96	228.39
800.28	228.38
800.60	228.36
800.92	228.34
801.24	228.30
801.56	228.26
801.89	228.18
802.21	228.11
802.53	228.05
802.85	228.04
803.17	228.05
803.49	227.97
803.81	227.94
804.13	227.91
804.45	227.85
804.77	227.84
805.09	227.82
805.41	227.79
805.73	227.74
806.05	227.65
806.37	227.60
806.69	227.55
807.01	227.51
807.33	227.50
807.65	227.42
807.97	227.43
808.28	227.38
808.60	227.38
808.92	227.40
809.24	227.43
809.56	227.39
809.88	227.29
810.20	227.30
810.52	227.31
810.84	227.30
811.16	227.28
811.48	227.24
811.80	227.24
812.12	227.19
812.43	227.19
812.75	227.19
813.07	227.17
813.39	227.16
813.71	227.10
814.03	227.07
814.35	227.09
814.67	227.01
814.98	227.00
815.30	226.96
815.62	226.89
815.94	226.77
816.26	226.78
816.58	226.72
816.89	226.69
817.21	226.59
817.53	226.52
817.85	226.48
818.17	226.45
818.48	226.41
818.80	226.41
819.12	226.41
819.44	226.41
819.76	226.36
820.07	226.36
820.39	226.35
820.71	226.33
821.03	226.25
821.34	226.25
821.66	226.24
821.98	226.23
822.30	226.22
822.61	226.29
822.93	226.22
823.25	226.27
823.57	226.23
823.88	226.27
824.20	226.29
824.52	226.31
824.83	226.30
825.15	226.28
825.47	226.28
825.79	226.26
826.10	226.24
826.42	226.20
826.74	226.17
827.05	226.20
827.37	226.19
827.69	226.20
828.00	226.20
828.32	226.19
828.64	226.20
828.95	226.25
829.27	226.21
829.58	226.22
829.90	226.18
830.22	226.21
830.53	226.19
830.85	226.16
831.17	226.11
831.48	226.09
831.80	226.08
832.11	226.06
832.43	226.07
832.75	226.04
833.06	226.12
833.38	226.12
833.69	226.10
834.01	226.12
834.32	226.12
834.64	226.12
834.96	226.10
835.27	226.09
835.59	226.03
835.90	226.01
836.22	226.01
836.53	225.97
836.85	225.96
837.16	226.03
837.48	226.03
837.79	226.06
838.11	226.04
838.42	226.06
838.74	226.05
839.05	226.02
839.37	226.00
839.68	225.95
840.00	225.93
840.31	225.94
840.63	225.90
840.94	225.88
841.26	225.86
841.57	225.87
841.88	225.82
842.20	225.82
842.51	225.82
842.83	225.78
843.14	225.87
843.46	225.89
843.77	225.85
844.08	225.83
844.40	225.83
844.71	225.81
845.03	225.77
845.34	225.76
845.65	225.72
845.97	225.71
846.28	225.70
846.60	225.69
846.91	225.66
847.22	225.63
847.54	225.63
847.85	225.62
848.16	225.59
848.48	225.61
848.79	225.64
849.10	225.64
849.42	225.62
849.73	225.52
850.04	225.49
850.36	225.43
850.67	225.45
850.98	225.43
851.30	225.43
851.61	225.42
851.92	225.40
852.23	225.42
852.55	225.44
852.86	225.41
853.17	225.42
853.49	225.43
853.80	225.46
854.11	225.44
854.42	225.45
854.74	225.43
855.05	225.38
855.36	225.31
855.67	225.31
855.99	225.33
856.30	225.46
856.61	225.46
856.92	225.47
857.23	225.45
857.55	225.42
857.86	225.43
858.17	225.45
858.48	225.44
858.79	225.43
859.11	225.41
859.42	225.41
859.73	225.41
860.04	225.41
860.35	225.38
860.66	225.36
860.98	225.37
861.29	225.40
861.60	225.42
861.91	225.47
862.22	225.45
862.53	225.45
862.84	225.36
863.16	225.36
863.47	225.35
863.78	225.35
864.09	225.37
864.40	225.37
864.71	225.36
865.02	225.39
865.33	225.38
865.64	225.35
865.95	225.39
866.27	225.47
866.58	225.46
866.89	225.50
867.20	225.52
867.51	225.52
867.82	225.51
868.13	225.54
868.44	225.50
868.75	225.52
869.06	225.52
869.37	225.53
869.68	225.51
869.99	225.55
870.30	225.58
870.61	225.59
870.92	225.61
871.23	225.60
871.54	225.61
871.85	225.67
872.16	225.72
872.47	225.73
872.78	225.67
873.09	225.70
873.40	225.71
873.71	225.70
874.02	225.72
874.33	225.73
874.64	225.72
874.95	225.74
875.26	225.70
875.56	225.68
875.87	225.66
876.18	225.65
876.49	225.73
876.80	225.70
877.11	225.67
877.42	225.65
877.73	225.65
878.04	225.62
878.35	225.58
878.66	225.57
878.96	225.53
879.27	225.51
879.58	225.49
879.89	225.45
880.20	225.48
880.51	225.44
880.82	225.43
881.12	225.43
881.43	225.39
881.74	225.40
882.05	225.37
882.36	225.39
882.67	225.40
882.97	225.28
883.28	225.26
883.59	225.26
883.90	225.24
884.21	225.25
884.51	225.25
884.82	225.25
885.13	225.25
885.44	225.24
885.74	225.24
886.05	225.21
886.36	225.22
886.67	225.18
886.98	225.25
887.28	225.24
887.59	225.21
887.90	225.26
888.20	225.24
888.51	225.26
888.82	225.21
889.13	225.22
889.43	225.31
889.74	225.30
890.05	225.30
890.35	225.32
890.66	225.29
890.97	225.26
891.28	225.23
891.58	225.20
891.89	225.18
892.20	225.15
892.50	225.16
892.81	225.14
893.12	225.11
893.42	225.04
893.73	225.04
894.04	225.02
894.34	224.99
894.65	224.99
894.95	224.98
895.26	224.98
895.57	225.00
895.87	224.85
896.18	224.86
896.48	224.85
896.79	224.82
897.10	224.86
897.40	224.86
897.71	224.87
898.01	224.89
898.32	224.92
898.63	224.92
898.93	224.95
899.24	224.95
899.54	224.94
899.85	224.92
900.15	224.93
900.46	224.93
900.76	224.95
901.07	224.94
901.38	224.94
901.68	224.95
901.99	224.89
902.29	224.93
902.60	224.95
902.90	224.96
903.21	224.99
903.51	224.97
903.82	225.00
904.12	225.01
904.43	225.01
904.73	225.00
905.03	225.02
905.34	225.10
905.64	225.10
905.95	225.11
906.25	225.14
906.56	225.15
906.86	225.16
907.17	225.18
907.47	225.22
907.77	225.22
908.08	225.22
908.38	225.25
908.69	225.26
908.99	225.30
909.30	225.32
909.60	225.33
909.90	225.34
910.21	225.30
910.51	225.31
910.81	225.36
911.12	225.37
911.42	225.36
911.73	225.25
912.03	225.25
912.33	225.30
912.64	225.32
912.94	225.30
913.24	225.29
913.55	225.26
913.85	225.24
914.15	225.26
914.46	225.27
914.76	225.25
915.06	225.25
915.37	225.22
915.67	225.18
915.97	225.15
916.27	225.14
916.58	225.18
916.88	225.18
917.18	225.11
917.49	225.17
917.79	225.13
918.09	225.16
918.39	225.20
918.70	225.19
919.00	225.16
919.30	225.21
919.60	225.20
919.91	225.20
920.21	225.20
920.51	225.16
920.81	225.16
921.12	225.18
921.42	225.13
921.72	225.14
922.02	225.14
922.32	225.17
922.63	225.15
922.93	225.17
923.23	225.15
923.53	225.15
923.83	225.10
924.13	225.15
924.44	225.12
924.74	225.11
925.04	225.11
925.34	225.12
925.64	225.07
925.94	225.06
926.24	225.10
926.55	225.10
926.85	225.12
927.15	225.10
927.45	225.08
927.75	225.09
928.05	225.09
928.35	225.07
928.65	225.06
928.95	225.06
929.26	225.02
929.56	225.03
929.86	225.07
930.16	225.05
930.46	225.00
930.76	225.00
931.06	224.95
931.36	224.93
931.66	224.94
931.96	224.95
932.26	224.97
932.56	224.92
932.86	224.89
933.16	224.91
933.46	224.88
933.76	224.88
934.06	224.87
934.36	224.89
934.66	224.89
934.96	224.88
935.26	224.87
935.56	224.88
935.86	224.83
936.16	224.79
936.46	224.74
936.76	224.74
937.06	224.75
937.36	224.78
937.66	224.78
937.96	224.75
938.26	224.73
938.56	224.73
938.86	224.74
939.16	224.77
939.46	224.78
939.76	224.82
940.06	224.79
940.35	224.79
940.65	224.74
940.95	224.77
941.25	224.74
941.55	224.77
941.85	224.76
942.15	224.77
942.45	224.81
942.75	224.83
943.04	224.86
943.34	224.88
943.64	224.85
943.94	224.83
944.24	224.84
944.54	224.86
944.84	224.84
945.13	224.82
945.43	224.84
945.73	224.82
946.03	224.79
946.33	224.82
946.62	224.83
946.92	224.86
947.22	224.86
947.52	224.89
947.82	224.90
948.11	224.91
948.41	224.91
948.71	224.88
949.01	224.91
949.31	224.91
949.60	224.87
949.90	224.89
950.20	224.89
950.50	224.87
950.79	224.88
951.09	224.90
951.39	224.91
951.69	224.91
951.98	224.93
952.28	224.95
952.58	224.95
952.87	224.97
953.17	224.95
953.47	224.97
953.76	224.95
954.06	224.91
954.36	224.89
954.66	224.90
954.95	224.93
955.25	224.94
955.55	224.91
955.84	224.91
956.14	224.91
956.44	224.90
956.73	224.92
957.03	224.91
957.32	224.92
957.62	224.91
957.92	224.90
958.21	224.91
958.51	225.02
958.81	225.03
959.10	225.03
959.40	225.04
959.69	225.02
959.99	225.07
960.29	225.06
960.58	225.07
960.88	225.12
961.17	225.09
961.47	225.08
961.76	225.09
962.06	225.11
962.36	225.11
962.65	225.11
962.95	225.08
963.24	225.07
963.54	225.05
963.83	225.02
964.13	225.04
964.42	224.99
964.72	224.92
965.01	224.90
965.31	224.88
965.60	224.88
965.90	224.94
966.19	224.88
966.49	224.85
966.78	224.83
967.08	224.83
967.37	224.83
967.67	224.79
967.96	224.82
968.26	224.77
968.55	224.80
968.85	224.81
969.14	224.82
969.43	224.80
969.73	224.78
970.02	224.80
970.32	224.78
970.61	224.79
970.91	224.75
971.20	224.74
971.49	224.74
971.79	224.74
972.08	224.67
972.38	224.67
972.67	224.71
972.96	224.72
973.26	224.66
973.55	224.69
973.85	224.67
974.14	224.65
974.43	224.69
974.73	224.66
975.02	224.65
975.31	224.65
975.61	224.66
975.90	224.67
976.19	224.68
976.49	224.69
976.78	224.66
977.07	224.67
977.37	224.66
977.66	224.65
977.95	224.64
978.24	224.67
978.54	224.70
978.83	224.66
979.12	224.67
979.42	224.69
979.71	224.67
980.00	224.71
980.29	224.71
980.59	224.66
980.88	224.70
981.17	224.69
981.46	224.68
981.76	224.70
982.05	224.74
982.34	224.74
982.63	224.76
982.93	224.81
983.22	224.83
983.51	224.85
983.80	224.88
984.09	224.88
984.39	224.87
984.68	224.89
984.97	224.88
985.26	224.86
985.55	224.88
985.85	224.88
986.14	224.89
986.43	224.89
986.72	224.92
987.01	224.88
987.30	224.88
987.59	224.88
987.89	224.84
988.18	224.81
988.47	224.79
988.76	224.78
989.05	224.72
989.34	224.70
989.63	224.74
989.92	224.72
990.22	224.70
990.51	224.68
990.80	224.62
991.09	224.65
991.38	224.66
991.67	224.63
991.96	224.58
992.25	224.56
992.54	224.56
992.83	224.58
993.12	224.56
993.41	224.59
993.70	224.62
993.99	224.67
994.28	224.67
994.58	224.69
994.87	224.68
995.16	224.70
995.45	224.72
995.74	224.65
996.03	224.67
996.32	224.70
996.61	224.71
996.90	224.71
997.19	224.70
997.48	224.70
997.77	224.70
998.06	224.75
998.34	224.76
998.63	224.74
998.92	224.72
999.21	224.72
999.50	224.69
999.79	224.66
1000.08	224.63
1000.37	224.60
1000.66	224.59
1000.95	224.59
1001.24	224.57
1001.53	224.54
1001.82	224.53
1002.11	224.50
1002.40	224.46
1002.68	224.48
1002.97	224.53
1003.26	224.54
1003.55	224.54
1003.84	224.51
1004.13	224.53
1004.42	224.52
1004.71	224.53
1004.99	224.52
1005.28	224.57
1005.57	224.56
1005.86	224.58
1006.15	224.58
1006.44	224.61
1006.72	224.62
1007.01	224.60
1007.30	224.61
1007.59	224.60
1007.88	224.63
1008.17	224.64
1008.45	224.64
1008.74	224.60
1009.03	224.58
1009.32	224.57
1009.60	224.56
1009.89	224.59
1010.18	224.53
1010.47	224.55
1010.76	224.56
1011.04	224.57
1011.33	224.57
1011.62	224.58
1011.91	224.56
1012.19	224.59
1012.48	224.56
1012.77	224.56
1013.05	224.61
1013.34	224.63
1013.63	224.65
1013.92	224.63
1014.20	224.64
1014.49	224.65
1014.78	224.68
1015.06	224.64
1015.35	224.66
1015.64	224.69
1015.92	224.70
1016.21	224.72
1016.50	224.70
1016.78	224.72
1017.07	224.71
1017.36	224.68
1017.64	224.68
1017.93	224.73
1018.22	224.68
1018.50	224.67
1018.79	224.67
1019.08	224.64
1019.36	224.64
1019.65	224.61
1019.93	224.68
1020.22	224.73
1020.51	224.80
1020.79	224.77
1021.08	224.22
1021.36	224.15
1021.65	224.55
1021.94	225.10
1022.22	224.47
1022.51	224.18
1022.79	225.67
1023.08	225.58
1023.36	226.08
1023.65	224.48
>>>>>End Processed Spectral Data<<<<<
