SpectraSuite Data File
++++++++++++++++++++++++++++++++++++
Date: Fri Feb 01 15:44:50 EST 2013
User: group
Dark Spectrum Present: No
Reference Spectrum Present: No
Number of Sampled Component Spectra: 1
Spectrometers: USB2E7196
Integration Time (usec): 35000 (USB2E7196)
Spectra Averaged: 100 (USB2E7196)
Boxcar Smoothing: 10 (USB2E7196)
Correct for Electrical Dark: No (USB2E7196)
Strobe/Lamp Enabled: No (USB2E7196)
Correct for Detector Non-linearity: No (USB2E7196)
Correct for Stray Light: No (USB2E7196)
Number of Pixels in Processed Spectrum: 2048
>>>>>Begin Processed Spectral Data<<<<<
339.09	0.00
339.48	214.68
339.86	216.57
340.24	217.95
340.63	218.66
341.01	221.89
341.39	221.82
341.78	223.11
342.16	224.53
342.54	224.84
342.93	213.30
343.31	224.11
343.69	224.66
344.07	225.11
344.46	225.53
344.84	225.94
345.22	226.19
345.60	226.46
345.99	226.67
346.37	226.82
346.75	226.92
347.13	227.02
347.52	227.09
347.90	227.17
348.28	227.17
348.66	227.21
349.05	227.19
349.43	227.21
349.81	227.29
350.19	227.33
350.57	227.38
350.96	227.47
351.34	227.52
351.72	227.63
352.10	227.75
352.48	227.85
352.87	227.88
353.25	227.95
353.63	227.98
354.01	228.03
354.39	228.08
354.77	228.19
355.15	228.26
355.54	228.31
355.92	228.36
356.30	228.49
356.68	228.64
357.06	228.70
357.44	228.75
357.82	228.80
358.20	228.86
358.58	228.92
358.97	228.94
359.35	229.02
359.73	229.09
360.11	229.12
360.49	229.17
360.87	229.23
361.25	229.29
361.63	229.38
362.01	229.46
362.39	229.49
362.77	229.53
363.15	229.57
363.53	229.64
363.91	229.64
364.29	229.64
364.67	229.55
365.05	229.58
365.43	229.63
365.81	229.65
366.19	229.70
366.57	229.73
366.95	229.73
367.33	229.71
367.71	229.69
368.09	229.69
368.47	229.67
368.85	229.66
369.23	229.64
369.61	229.58
369.99	229.53
370.37	229.51
370.75	229.49
371.13	229.41
371.51	229.33
371.89	229.29
372.27	229.25
372.65	229.20
373.03	229.14
373.41	229.07
373.78	229.00
374.16	228.86
374.54	228.76
374.92	228.70
375.30	228.63
375.68	228.58
376.06	228.53
376.44	228.43
376.82	228.33
377.19	228.26
377.57	228.18
377.95	228.09
378.33	227.97
378.71	227.85
379.09	227.76
379.47	227.68
379.84	227.60
380.22	227.50
380.60	227.42
380.98	227.34
381.36	227.30
381.73	227.21
382.11	227.19
382.49	227.15
382.87	227.06
383.25	226.97
383.62	227.01
384.00	226.89
384.38	226.85
384.76	226.86
385.13	226.80
385.51	226.76
385.89	226.70
386.27	226.69
386.64	226.65
387.02	226.62
387.40	226.60
387.78	226.58
388.15	226.55
388.53	226.47
388.91	226.44
389.29	226.40
389.66	226.39
390.04	226.34
390.42	226.31
390.79	226.28
391.17	226.29
391.55	226.15
391.92	226.15
392.30	226.11
392.68	226.10
393.05	226.14
393.43	226.13
393.81	226.14
394.18	226.13
394.56	226.14
394.94	226.17
395.31	226.17
395.69	226.19
396.06	226.24
396.44	226.32
396.82	226.35
397.19	226.42
397.57	226.44
397.95	226.51
398.32	226.55
398.70	226.61
399.07	226.70
399.45	226.75
399.82	226.82
400.20	226.90
400.58	226.93
400.95	226.97
401.33	227.09
401.70	227.26
402.08	227.38
402.45	227.49
402.83	227.64
403.20	227.73
403.58	227.83
403.95	227.94
404.33	228.08
404.71	228.22
405.08	228.39
405.46	228.51
405.83	228.70
406.21	228.82
406.58	229.01
406.96	229.14
407.33	229.31
407.70	229.50
408.08	229.77
408.45	229.97
408.83	230.21
409.20	230.45
409.58	230.62
409.95	230.87
410.33	231.15
410.70	231.38
411.08	231.68
411.45	232.01
411.82	232.30
412.20	232.63
412.57	233.03
412.95	233.32
413.32	233.75
413.69	234.09
414.07	234.56
414.44	235.03
414.82	235.51
415.19	236.07
415.56	236.65
415.94	237.23
416.31	237.88
416.68	238.50
417.06	239.19
417.43	239.87
417.81	240.62
418.18	241.39
418.55	242.26
418.93	243.15
419.30	244.07
419.67	245.02
420.04	245.96
420.42	246.96
420.79	248.17
421.16	249.31
421.54	250.54
421.91	251.76
422.28	252.97
422.66	254.28
423.03	255.60
423.40	256.89
423.77	258.27
424.15	259.68
424.52	261.16
424.89	262.75
425.26	264.28
425.64	265.76
426.01	267.35
426.38	268.99
426.75	270.67
427.13	272.37
427.50	274.20
427.87	276.09
428.24	277.93
428.61	279.66
428.99	281.62
429.36	283.69
429.73	285.74
430.10	287.82
430.47	289.96
430.85	292.07
431.22	294.38
431.59	296.75
431.96	299.02
432.33	301.52
432.70	303.93
433.08	306.78
433.45	309.44
433.82	312.09
434.19	314.99
434.56	317.85
434.93	320.51
435.30	323.13
435.68	326.00
436.05	328.87
436.42	331.65
436.79	334.18
437.16	336.91
437.53	339.76
437.90	342.56
438.27	345.28
438.64	348.15
439.01	350.68
439.38	352.93
439.75	355.11
440.13	357.62
440.50	359.95
440.87	361.80
441.24	363.75
441.61	365.87
441.98	367.37
442.35	369.08
442.72	370.94
443.09	372.79
443.46	373.85
443.83	374.40
444.20	374.92
444.57	375.75
444.94	376.03
445.31	376.40
445.68	376.77
446.05	376.83
446.42	376.43
446.79	376.08
447.16	375.69
447.53	375.37
447.90	374.20
448.27	373.05
448.64	371.45
449.01	370.27
449.37	368.27
449.74	366.38
450.11	364.20
450.48	361.76
450.85	359.23
451.22	357.07
451.59	355.08
451.96	353.14
452.33	350.55
452.70	348.19
453.07	345.31
453.43	342.38
453.80	339.63
454.17	336.92
454.54	334.32
454.91	331.55
455.28	328.86
455.65	326.32
456.02	323.81
456.38	321.63
456.75	318.99
457.12	316.76
457.49	314.48
457.86	312.30
458.23	310.38
458.59	308.31
458.96	306.20
459.33	304.29
459.70	302.40
460.07	300.90
460.43	299.18
460.80	297.56
461.17	296.12
461.54	294.60
461.91	293.15
462.27	291.71
462.64	290.48
463.01	289.12
463.38	287.87
463.74	286.53
464.11	285.36
464.48	284.33
464.85	283.18
465.21	282.36
465.58	281.41
465.95	280.34
466.32	279.43
466.68	278.51
467.05	277.63
467.42	276.74
467.78	275.78
468.15	274.86
468.52	274.23
468.88	273.35
469.25	272.56
469.62	271.95
469.98	271.26
470.35	270.60
470.72	269.99
471.08	269.31
471.45	268.79
471.82	268.26
472.18	267.66
472.55	267.24
472.92	266.68
473.28	266.21
473.65	265.75
474.02	265.28
474.38	264.93
474.75	264.59
475.11	264.23
475.48	263.97
475.85	263.75
476.21	263.50
476.58	263.33
476.94	263.18
477.31	263.01
477.67	262.86
478.04	262.74
478.41	262.68
478.77	262.73
479.14	262.63
479.50	262.68
479.87	262.76
480.23	262.82
480.60	262.88
480.96	262.97
481.33	263.18
481.69	263.40
482.06	263.59
482.42	263.84
482.79	264.12
483.15	264.46
483.52	264.88
483.88	265.23
484.25	265.63
484.61	266.11
484.98	266.56
485.34	267.14
485.71	267.77
486.07	268.39
486.44	268.98
486.80	269.73
487.17	270.47
487.53	271.26
487.90	272.14
488.26	273.09
488.62	274.08
488.99	275.06
489.35	276.12
489.72	277.23
490.08	278.47
490.44	279.72
490.81	281.06
491.17	282.40
491.54	283.89
491.90	285.42
492.26	287.04
492.63	288.76
492.99	290.53
493.36	292.42
493.72	294.49
494.08	296.59
494.45	298.80
494.81	301.13
495.17	303.55
495.54	306.13
495.90	308.81
496.26	311.64
496.63	314.64
496.99	317.74
497.35	320.99
497.72	324.34
498.08	327.85
498.44	331.54
498.80	335.45
499.17	339.50
499.53	343.64
499.89	348.04
500.26	352.63
500.62	357.32
500.98	362.24
501.34	367.31
501.71	372.63
502.07	378.12
502.43	383.74
502.79	389.59
503.16	395.63
503.52	401.90
503.88	408.26
504.24	414.88
504.60	421.82
504.97	428.96
505.33	436.27
505.69	443.93
506.05	451.68
506.41	459.51
506.78	467.68
507.14	476.23
507.50	484.92
507.86	493.87
508.22	503.09
508.59	512.25
508.95	521.85
509.31	531.64
509.67	541.67
510.03	551.93
510.39	562.45
510.75	573.27
511.12	584.19
511.48	595.49
511.84	606.93
512.20	618.40
512.56	630.38
512.92	642.65
513.28	654.98
513.64	667.44
514.00	680.24
514.37	693.22
514.73	706.22
515.09	719.26
515.45	732.63
515.81	746.25
516.17	760.33
516.53	774.44
516.89	788.62
517.25	802.83
517.61	817.31
517.97	831.75
518.33	846.13
518.69	860.94
519.05	875.93
519.41	891.10
519.77	906.57
520.13	922.06
520.49	937.45
520.85	952.96
521.21	968.71
521.57	984.93
521.93	1000.57
522.29	1016.94
522.65	1033.19
523.01	1049.31
523.37	1065.22
523.73	1081.28
524.09	1097.37
524.45	1113.73
524.81	1130.40
525.17	1147.17
525.53	1164.18
525.89	1181.17
526.25	1197.94
526.61	1214.43
526.97	1231.17
527.33	1247.63
527.68	1264.16
528.04	1280.64
528.40	1297.31
528.76	1314.35
529.12	1330.96
529.48	1347.92
529.84	1363.99
530.20	1380.58
530.56	1397.71
530.91	1415.26
531.27	1432.11
531.63	1448.64
531.99	1465.20
532.35	1481.09
532.71	1497.10
533.07	1513.30
533.42	1529.19
533.78	1545.31
534.14	1561.61
534.50	1576.90
534.86	1592.91
535.21	1608.00
535.57	1623.88
535.93	1639.32
536.29	1654.20
536.65	1669.26
537.00	1684.05
537.36	1699.28
537.72	1713.91
538.08	1728.23
538.44	1742.03
538.79	1755.91
539.15	1769.51
539.51	1783.24
539.87	1797.60
540.22	1811.29
540.58	1825.04
540.94	1838.32
541.29	1851.25
541.65	1863.92
542.01	1877.18
542.37	1889.46
542.72	1902.06
543.08	1913.91
543.44	1926.32
543.79	1937.49
544.15	1948.51
544.51	1960.09
544.87	1971.21
545.22	1982.02
545.58	1992.31
545.94	2002.07
546.29	2011.90
546.65	2021.78
547.01	2031.11
547.36	2039.86
547.72	2048.23
548.07	2056.05
548.43	2064.25
548.79	2072.38
549.14	2079.79
549.50	2087.16
549.86	2094.85
550.21	2102.06
550.57	2109.17
550.92	2115.68
551.28	2122.60
551.64	2129.62
551.99	2136.14
552.35	2142.07
552.70	2148.17
553.06	2154.11
553.41	2160.36
553.77	2166.45
554.13	2172.68
554.48	2178.72
554.84	2184.08
555.19	2189.48
555.55	2194.59
555.90	2198.92
556.26	2203.53
556.61	2208.39
556.97	2212.73
557.32	2216.83
557.68	2221.11
558.03	2225.26
558.39	2228.98
558.74	2233.82
559.10	2237.72
559.45	2241.36
559.81	2245.84
560.16	2249.68
560.52	2252.87
560.87	2256.36
561.23	2259.06
561.58	2261.88
561.94	2264.42
562.29	2266.84
562.64	2269.49
563.00	2272.05
563.35	2275.75
563.71	2279.09
564.06	2282.31
564.42	2284.96
564.77	2287.50
565.12	2289.61
565.48	2291.69
565.83	2293.52
566.19	2294.72
566.54	2295.64
566.89	2296.82
567.25	2297.23
567.60	2298.58
567.96	2300.38
568.31	2301.18
568.66	2302.34
569.02	2302.80
569.37	2303.08
569.72	2303.99
570.08	2304.17
570.43	2304.29
570.78	2303.56
571.14	2301.82
571.49	2300.33
571.84	2300.18
572.20	2298.91
572.55	2297.80
572.90	2296.23
573.26	2294.87
573.61	2293.13
573.96	2291.23
574.31	2288.06
574.67	2285.16
575.02	2281.54
575.37	2277.98
575.72	2274.25
576.08	2270.81
576.43	2267.56
576.78	2263.89
577.13	2260.69
577.49	2257.62
577.84	2254.11
578.19	2250.46
578.54	2246.88
578.90	2242.69
579.25	2237.11
579.60	2232.35
579.95	2227.31
580.30	2222.27
580.66	2217.02
581.01	2212.11
581.36	2207.23
581.71	2203.12
582.06	2198.68
582.42	2194.15
582.77	2188.95
583.12	2184.20
583.47	2179.30
583.82	2174.31
584.17	2169.01
584.53	2163.38
584.88	2157.52
585.23	2151.69
585.58	2146.19
585.93	2140.79
586.28	2136.00
586.63	2130.93
586.98	2125.65
587.34	2121.08
587.69	2116.18
588.04	2110.90
588.39	2105.14
588.74	2098.65
589.09	2092.53
589.44	2085.70
589.79	2079.71
590.14	2074.13
590.49	2067.66
590.84	2061.31
591.19	2055.15
591.54	2048.70
591.89	2041.30
592.25	2034.44
592.60	2027.21
592.95	2019.56
593.30	2012.05
593.65	2004.43
594.00	1997.28
594.35	1990.14
594.70	1982.01
595.05	1974.73
595.40	1967.46
595.75	1959.88
596.10	1953.63
596.45	1946.85
596.80	1940.70
597.15	1933.98
597.50	1926.74
597.85	1920.27
598.19	1913.67
598.54	1906.65
598.89	1900.06
599.24	1894.37
599.59	1887.65
599.94	1881.46
600.29	1875.09
600.64	1868.57
600.99	1861.11
601.34	1854.28
601.69	1847.38
602.04	1840.34
602.39	1833.09
602.74	1826.21
603.08	1819.51
603.43	1812.79
603.78	1805.44
604.13	1798.09
604.48	1790.72
604.83	1783.87
605.18	1776.70
605.53	1768.63
605.87	1760.61
606.22	1753.35
606.57	1745.32
606.92	1738.13
607.27	1730.87
607.62	1724.01
607.96	1716.64
608.31	1709.98
608.66	1702.32
609.01	1694.67
609.36	1687.26
609.70	1679.12
610.05	1670.99
610.40	1663.24
610.75	1654.93
611.10	1647.32
611.44	1638.97
611.79	1631.06
612.14	1622.34
612.49	1613.26
612.83	1605.02
613.18	1596.91
613.53	1588.73
613.88	1580.14
614.22	1571.94
614.57	1563.39
614.92	1555.33
615.27	1547.82
615.61	1539.44
615.96	1531.40
616.31	1523.75
616.65	1516.35
617.00	1508.71
617.35	1501.14
617.70	1492.93
618.04	1484.50
618.39	1476.17
618.74	1468.51
619.08	1460.16
619.43	1452.70
619.78	1445.80
620.12	1438.50
620.47	1430.85
620.82	1422.71
621.16	1415.38
621.51	1407.69
621.85	1400.15
622.20	1391.55
622.55	1383.22
622.89	1375.54
623.24	1368.04
623.59	1360.58
623.93	1353.02
624.28	1345.86
624.62	1338.26
624.97	1331.00
625.32	1324.14
625.66	1317.18
626.01	1309.89
626.35	1302.46
626.70	1294.67
627.04	1286.92
627.39	1279.19
627.73	1271.86
628.08	1265.00
628.43	1257.64
628.77	1250.32
629.12	1242.63
629.46	1235.59
629.81	1228.24
630.15	1220.94
630.50	1213.49
630.84	1205.28
631.19	1197.43
631.53	1189.96
631.88	1182.44
632.22	1174.95
632.57	1167.64
632.91	1160.15
633.26	1152.95
633.60	1145.58
633.95	1138.49
634.29	1131.53
634.64	1124.89
634.98	1117.59
635.32	1110.35
635.67	1103.79
636.01	1097.07
636.36	1090.38
636.70	1083.84
637.05	1077.24
637.39	1070.75
637.73	1064.27
638.08	1058.48
638.42	1052.49
638.77	1046.02
639.11	1039.48
639.45	1033.13
639.80	1026.43
640.14	1019.98
640.49	1013.45
640.83	1007.06
641.17	1000.82
641.52	994.43
641.86	987.87
642.20	981.96
642.55	975.75
642.89	969.25
643.23	962.77
643.58	956.88
643.92	950.64
644.26	944.48
644.61	938.49
644.95	932.40
645.29	925.75
645.64	918.99
645.98	912.65
646.32	906.80
646.66	900.67
647.01	894.97
647.35	889.18
647.69	883.31
648.04	877.83
648.38	871.99
648.72	865.95
649.06	859.96
649.41	854.06
649.75	848.00
650.09	842.10
650.43	836.29
650.78	830.15
651.12	824.22
651.46	818.49
651.80	812.69
652.14	807.23
652.49	801.95
652.83	796.77
653.17	791.10
653.51	785.36
653.85	779.95
654.20	774.27
654.54	768.34
654.88	762.60
655.22	756.78
655.56	751.14
655.90	745.79
656.25	740.52
656.59	735.19
656.93	730.11
657.27	724.93
657.61	719.54
657.95	714.57
658.29	709.48
658.64	704.30
658.98	698.97
659.32	693.61
659.66	688.36
660.00	683.01
660.34	678.06
660.68	673.13
661.02	668.07
661.36	663.35
661.70	658.82
662.05	654.44
662.39	650.09
662.73	645.66
663.07	641.28
663.41	636.84
663.75	632.31
664.09	627.81
664.43	623.41
664.77	619.20
665.11	614.86
665.45	610.76
665.79	606.66
666.13	602.58
666.47	598.45
666.81	594.28
667.15	590.19
667.49	586.30
667.83	582.54
668.17	578.64
668.51	574.52
668.85	570.53
669.19	566.67
669.53	562.82
669.87	558.93
670.21	555.18
670.55	551.49
670.89	548.08
671.23	544.61
671.57	541.07
671.91	537.55
672.25	534.08
672.58	530.54
672.92	527.18
673.26	523.99
673.60	520.87
673.94	517.76
674.28	514.89
674.62	511.89
674.96	508.75
675.30	505.85
675.64	502.91
675.97	500.11
676.31	497.27
676.65	494.25
676.99	491.54
677.33	488.71
677.67	485.90
678.01	482.83
678.34	479.81
678.68	476.91
679.02	474.12
679.36	471.34
679.70	468.63
680.04	465.85
680.37	462.97
680.71	460.13
681.05	457.50
681.39	454.73
681.73	452.15
682.06	449.63
682.40	447.10
682.74	444.63
683.08	442.10
683.42	439.46
683.75	437.06
684.09	434.48
684.43	431.99
684.77	429.55
685.10	427.22
685.44	424.97
685.78	422.72
686.12	420.50
686.45	418.20
686.79	415.86
687.13	413.67
687.46	411.55
687.80	409.46
688.14	407.28
688.48	405.23
688.81	402.94
689.15	400.75
689.49	398.56
689.82	396.47
690.16	394.42
690.50	392.50
690.83	390.55
691.17	388.57
691.51	386.67
691.84	384.85
692.18	382.92
692.52	380.94
692.85	379.04
693.19	377.14
693.52	375.33
693.86	373.55
694.20	371.77
694.53	370.00
694.87	368.16
695.21	366.33
695.54	364.53
695.88	362.86
696.21	361.18
696.55	359.52
696.88	357.84
697.22	356.18
697.56	354.56
697.89	352.87
698.23	351.30
698.56	349.71
698.90	348.11
699.23	346.45
699.57	344.88
699.90	343.34
700.24	341.80
700.58	340.30
700.91	338.81
701.25	337.37
701.58	335.96
701.92	334.59
702.25	333.27
702.59	331.88
702.92	330.51
703.26	329.24
703.59	327.93
703.93	326.75
704.26	325.51
704.60	324.21
704.93	323.00
705.26	321.78
705.60	320.58
705.93	319.42
706.27	318.41
706.60	317.37
706.94	316.28
707.27	315.16
707.61	314.09
707.94	313.07
708.27	311.94
708.61	310.89
708.94	309.90
709.28	308.88
709.61	307.91
709.94	306.95
710.28	305.92
710.61	305.01
710.95	303.91
711.28	303.00
711.61	302.03
711.95	301.06
712.28	300.10
712.61	299.12
712.95	298.21
713.28	297.29
713.61	296.39
713.95	295.49
714.28	294.67
714.61	293.77
714.95	292.89
715.28	292.04
715.61	291.10
715.95	290.19
716.28	289.32
716.61	288.54
716.95	287.74
717.28	286.97
717.61	286.14
717.94	285.42
718.28	284.63
718.61	283.93
718.94	283.27
719.27	282.61
719.61	281.96
719.94	281.28
720.27	280.58
720.60	279.91
720.94	279.26
721.27	278.66
721.60	278.08
721.93	277.51
722.27	276.97
722.60	276.46
722.93	275.90
723.26	275.40
723.59	274.82
723.93	274.28
724.26	273.71
724.59	273.17
724.92	272.67
725.25	272.17
725.59	271.66
725.92	271.13
726.25	270.61
726.58	270.14
726.91	269.65
727.24	269.22
727.57	268.81
727.91	268.32
728.24	267.84
728.57	267.39
728.90	266.92
729.23	266.43
729.56	266.01
729.89	265.57
730.22	265.10
730.55	264.65
730.89	264.22
731.22	263.82
731.55	263.39
731.88	262.95
732.21	262.51
732.54	262.11
732.87	261.73
733.20	261.32
733.53	260.92
733.86	260.55
734.19	260.10
734.52	259.72
734.85	259.43
735.18	259.05
735.51	258.69
735.84	258.35
736.17	258.01
736.50	257.60
736.83	257.41
737.16	257.04
737.49	256.71
737.82	256.35
738.15	256.02
738.48	255.70
738.81	255.35
739.14	255.02
739.47	254.68
739.80	254.30
740.13	254.02
740.46	253.66
740.79	253.33
741.12	253.06
741.45	252.73
741.78	252.39
742.11	252.08
742.44	251.74
742.77	251.46
743.10	251.14
743.43	250.82
743.75	250.41
744.08	250.26
744.41	250.01
744.74	249.72
745.07	249.44
745.40	249.20
745.73	248.96
746.06	248.65
746.39	248.35
746.71	248.13
747.04	247.88
747.37	247.64
747.70	247.40
748.03	247.11
748.36	246.90
748.68	246.65
749.01	246.41
749.34	246.17
749.67	245.94
750.00	245.71
750.33	245.56
750.65	245.33
750.98	245.00
751.31	244.75
751.64	244.52
751.97	244.36
752.29	244.12
752.62	243.85
752.95	243.69
753.28	243.52
753.60	243.31
753.93	243.09
754.26	242.90
754.59	242.64
754.91	242.43
755.24	242.19
755.57	242.00
755.90	241.81
756.22	241.58
756.55	241.38
756.88	241.18
757.20	240.97
757.53	240.76
757.86	240.59
758.19	240.44
758.51	240.27
758.84	240.04
759.17	239.86
759.49	239.73
759.82	239.57
760.15	239.42
760.47	239.22
760.80	239.04
761.13	238.89
761.45	238.77
761.78	238.62
762.11	238.49
762.43	238.34
762.76	238.16
763.08	238.05
763.41	237.94
763.74	237.81
764.06	237.65
764.39	237.52
764.71	237.37
765.04	237.21
765.37	237.10
765.69	236.98
766.02	236.86
766.34	236.72
766.67	236.61
767.00	236.50
767.32	236.46
767.65	236.43
767.97	236.33
768.30	236.23
768.62	236.11
768.95	235.99
769.27	235.86
769.60	235.79
769.92	235.68
770.25	235.54
770.57	235.42
770.90	235.30
771.22	235.19
771.55	235.11
771.87	235.01
772.20	234.89
772.52	234.90
772.85	234.93
773.17	234.86
773.50	234.79
773.82	234.70
774.15	234.57
774.47	234.42
774.80	234.29
775.12	234.23
775.45	234.15
775.77	234.09
776.09	234.04
776.42	233.97
776.74	233.95
777.07	233.85
777.39	233.78
777.72	233.73
778.04	233.67
778.36	233.59
778.69	233.57
779.01	233.52
779.33	233.36
779.66	233.17
779.98	233.09
780.31	232.98
780.63	232.96
780.95	232.94
781.28	232.86
781.60	232.84
781.92	232.76
782.25	232.70
782.57	232.61
782.89	232.56
783.22	232.49
783.54	232.41
783.86	232.39
784.19	232.35
784.51	232.31
784.83	232.25
785.16	232.20
785.48	232.14
785.80	232.08
786.12	232.03
786.45	232.01
786.77	231.97
787.09	231.90
787.42	231.79
787.74	231.73
788.06	231.71
788.38	231.63
788.71	231.57
789.03	231.53
789.35	231.53
789.67	231.47
789.99	231.43
790.32	231.35
790.64	231.29
790.96	231.33
791.28	231.28
791.61	231.23
791.93	231.20
792.25	231.12
792.57	231.13
792.89	231.04
793.21	231.01
793.54	230.96
793.86	230.92
794.18	230.89
794.50	230.84
794.82	230.77
795.14	230.71
795.47	230.69
795.79	230.66
796.11	230.56
796.43	230.53
796.75	230.51
797.07	230.48
797.39	230.43
797.71	230.31
798.04	230.26
798.36	230.22
798.68	230.16
799.00	230.14
799.32	230.07
799.64	230.11
799.96	230.05
800.28	230.03
800.60	229.99
800.92	229.97
801.24	229.87
801.56	229.86
801.89	229.84
802.21	229.83
802.53	229.78
802.85	229.77
803.17	229.79
803.49	229.72
803.81	229.69
804.13	229.66
804.45	229.64
804.77	229.63
805.09	229.63
805.41	229.61
805.73	229.57
806.05	229.54
806.37	229.45
806.69	229.44
807.01	229.42
807.33	229.41
807.65	229.35
807.97	229.39
808.28	229.36
808.60	229.34
808.92	229.28
809.24	229.31
809.56	229.27
809.88	229.17
810.20	229.16
810.52	229.16
810.84	229.11
811.16	229.05
811.48	229.01
811.80	228.99
812.12	228.95
812.43	228.93
812.75	228.90
813.07	228.89
813.39	228.84
813.71	228.80
814.03	228.78
814.35	228.77
814.67	228.70
814.98	228.68
815.30	228.66
815.62	228.61
815.94	228.51
816.26	228.54
816.58	228.55
816.89	228.56
817.21	228.53
817.53	228.52
817.85	228.50
818.17	228.51
818.48	228.47
818.80	228.51
819.12	228.51
819.44	228.47
819.76	228.46
820.07	228.47
820.39	228.45
820.71	228.44
821.03	228.44
821.34	228.46
821.66	228.48
821.98	228.49
822.30	228.50
822.61	228.58
822.93	228.54
823.25	228.49
823.57	228.45
823.88	228.47
824.20	228.47
824.52	228.48
824.83	228.47
825.15	228.44
825.47	228.41
825.79	228.36
826.10	228.38
826.42	228.36
826.74	228.34
827.05	228.32
827.37	228.31
827.69	228.28
828.00	228.28
828.32	228.26
828.64	228.23
828.95	228.24
829.27	228.19
829.58	228.18
829.90	228.20
830.22	228.19
830.53	228.14
830.85	228.12
831.17	228.10
831.48	228.06
831.80	228.06
832.11	228.02
832.43	228.02
832.75	227.96
833.06	228.00
833.38	227.94
833.69	227.92
834.01	227.87
834.32	227.83
834.64	227.79
834.96	227.78
835.27	227.76
835.59	227.74
835.90	227.71
836.22	227.68
836.53	227.65
836.85	227.61
837.16	227.70
837.48	227.65
837.79	227.64
838.11	227.65
838.42	227.64
838.74	227.63
839.05	227.61
839.37	227.60
839.68	227.55
840.00	227.55
840.31	227.56
840.63	227.57
840.94	227.56
841.26	227.55
841.57	227.52
841.88	227.53
842.20	227.51
842.51	227.52
842.83	227.51
843.14	227.55
843.46	227.55
843.77	227.49
844.08	227.50
844.40	227.46
844.71	227.41
845.03	227.39
845.34	227.39
845.65	227.38
845.97	227.40
846.28	227.39
846.60	227.43
846.91	227.41
847.22	227.40
847.54	227.45
847.85	227.45
848.16	227.45
848.48	227.39
848.79	227.42
849.10	227.41
849.42	227.43
849.73	227.38
850.04	227.36
850.36	227.29
850.67	227.31
850.98	227.32
851.30	227.35
851.61	227.35
851.92	227.35
852.23	227.39
852.55	227.42
852.86	227.43
853.17	227.40
853.49	227.40
853.80	227.43
854.11	227.40
854.42	227.40
854.74	227.39
855.05	227.41
855.36	227.39
855.67	227.41
855.99	227.40
856.30	227.49
856.61	227.50
856.92	227.53
857.23	227.51
857.55	227.50
857.86	227.51
858.17	227.53
858.48	227.54
858.79	227.54
859.11	227.53
859.42	227.54
859.73	227.55
860.04	227.59
860.35	227.56
860.66	227.54
860.98	227.58
861.29	227.58
861.60	227.55
861.91	227.57
862.22	227.55
862.53	227.55
862.84	227.48
863.16	227.51
863.47	227.51
863.78	227.53
864.09	227.56
864.40	227.53
864.71	227.54
865.02	227.53
865.33	227.50
865.64	227.47
865.95	227.45
866.27	227.51
866.58	227.48
866.89	227.52
867.20	227.57
867.51	227.52
867.82	227.54
868.13	227.61
868.44	227.58
868.75	227.61
869.06	227.60
869.37	227.56
869.68	227.53
869.99	227.59
870.30	227.62
870.61	227.59
870.92	227.59
871.23	227.58
871.54	227.60
871.85	227.62
872.16	227.59
872.47	227.58
872.78	227.53
873.09	227.54
873.40	227.52
873.71	227.46
874.02	227.47
874.33	227.46
874.64	227.42
874.95	227.46
875.26	227.42
875.56	227.43
875.87	227.44
876.18	227.44
876.49	227.47
876.80	227.43
877.11	227.49
877.42	227.50
877.73	227.51
878.04	227.47
878.35	227.45
878.66	227.50
878.96	227.50
879.27	227.46
879.58	227.48
879.89	227.46
880.20	227.50
880.51	227.50
880.82	227.48
881.12	227.48
881.43	227.43
881.74	227.41
882.05	227.38
882.36	227.39
882.67	227.40
882.97	227.30
883.28	227.29
883.59	227.22
883.90	227.21
884.21	227.21
884.51	227.20
884.82	227.20
885.13	227.19
885.44	227.16
885.74	227.17
886.05	227.13
886.36	227.14
886.67	227.11
886.98	227.13
887.28	227.14
887.59	227.14
887.90	227.13
888.20	227.14
888.51	227.15
888.82	227.16
889.13	227.15
889.43	227.24
889.74	227.23
890.05	227.24
890.35	227.25
890.66	227.21
890.97	227.23
891.28	227.21
891.58	227.19
891.89	227.23
892.20	227.21
892.50	227.18
892.81	227.21
893.12	227.21
893.42	227.18
893.73	227.15
894.04	227.13
894.34	227.16
894.65	227.15
894.95	227.14
895.26	227.11
895.57	227.14
895.87	227.05
896.18	227.06
896.48	227.06
896.79	227.04
897.10	227.05
897.40	227.03
897.71	227.05
898.01	227.03
898.32	227.04
898.63	227.04
898.93	227.06
899.24	227.06
899.54	227.05
899.85	227.08
900.15	227.10
900.46	227.09
900.76	227.13
901.07	227.13
901.38	227.12
901.68	227.15
901.99	227.12
902.29	227.09
902.60	227.05
902.90	227.07
903.21	227.07
903.51	227.08
903.82	227.09
904.12	227.08
904.43	227.11
904.73	227.12
905.03	227.13
905.34	227.22
905.64	227.20
905.95	227.23
906.25	227.23
906.56	227.23
906.86	227.20
907.17	227.16
907.47	227.17
907.77	227.18
908.08	227.15
908.38	227.15
908.69	227.16
908.99	227.22
909.30	227.21
909.60	227.24
909.90	227.23
910.21	227.21
910.51	227.21
910.81	227.20
911.12	227.19
911.42	227.20
911.73	227.06
912.03	227.03
912.33	227.03
912.64	227.02
912.94	227.02
913.24	227.02
913.55	227.00
913.85	226.98
914.15	226.97
914.46	227.00
914.76	227.00
915.06	227.01
915.37	226.93
915.67	226.95
915.97	226.92
916.27	226.86
916.58	226.86
916.88	226.81
917.18	226.81
917.49	226.88
917.79	226.86
918.09	226.89
918.39	226.94
918.70	226.92
919.00	226.86
919.30	226.88
919.60	226.88
919.91	226.85
920.21	226.83
920.51	226.82
920.81	226.79
921.12	226.77
921.42	226.76
921.72	226.79
922.02	226.74
922.32	226.75
922.63	226.76
922.93	226.80
923.23	226.82
923.53	226.82
923.83	226.72
924.13	226.72
924.44	226.73
924.74	226.73
925.04	226.74
925.34	226.73
925.64	226.68
925.94	226.70
926.24	226.78
926.55	226.79
926.85	226.82
927.15	226.84
927.45	226.84
927.75	226.82
928.05	226.86
928.35	226.87
928.65	226.91
928.95	226.95
929.26	226.92
929.56	226.93
929.86	226.93
930.16	226.91
930.46	226.90
930.76	226.91
931.06	226.87
931.36	226.89
931.66	226.95
931.96	227.00
932.26	226.96
932.56	226.90
932.86	226.90
933.16	226.90
933.46	226.89
933.76	226.90
934.06	226.92
934.36	226.92
934.66	226.94
934.96	226.92
935.26	226.92
935.56	226.93
935.86	226.93
936.16	226.93
936.46	226.92
936.76	226.93
937.06	226.93
937.36	226.97
937.66	226.97
937.96	226.94
938.26	226.96
938.56	226.98
938.86	226.99
939.16	226.99
939.46	226.99
939.76	226.99
940.06	227.00
940.35	227.00
940.65	226.97
940.95	226.98
941.25	226.94
941.55	226.94
941.85	226.96
942.15	226.99
942.45	227.03
942.75	227.07
943.04	227.09
943.34	227.11
943.64	227.07
943.94	227.05
944.24	227.05
944.54	227.01
944.84	227.01
945.13	227.01
945.43	227.01
945.73	227.04
946.03	227.08
946.33	227.08
946.62	227.07
946.92	227.10
947.22	227.11
947.52	227.12
947.82	227.11
948.11	227.11
948.41	227.08
948.71	227.05
949.01	227.03
949.31	227.02
949.60	227.02
949.90	227.06
950.20	227.03
950.50	227.04
950.79	227.05
951.09	227.08
951.39	227.09
951.69	227.10
951.98	227.08
952.28	227.05
952.58	227.03
952.87	227.03
953.17	227.00
953.47	226.97
953.76	226.98
954.06	226.98
954.36	226.94
954.66	226.94
954.95	226.92
955.25	226.94
955.55	226.95
955.84	226.91
956.14	226.88
956.44	226.92
956.73	226.89
957.03	226.89
957.32	226.87
957.62	226.85
957.92	226.86
958.21	226.84
958.51	226.92
958.81	226.91
959.10	226.92
959.40	226.95
959.69	226.95
959.99	226.97
960.29	226.93
960.58	226.96
960.88	226.97
961.17	226.96
961.47	226.96
961.76	226.98
962.06	227.01
962.36	227.02
962.65	227.01
962.95	227.00
963.24	226.97
963.54	226.97
963.83	226.98
964.13	226.93
964.42	226.95
964.72	226.87
965.01	226.89
965.31	226.88
965.60	226.82
965.90	226.84
966.19	226.83
966.49	226.85
966.78	226.85
967.08	226.82
967.37	226.85
967.67	226.80
967.96	226.80
968.26	226.75
968.55	226.75
968.85	226.75
969.14	226.77
969.43	226.78
969.73	226.77
970.02	226.77
970.32	226.77
970.61	226.74
970.91	226.73
971.20	226.71
971.49	226.68
971.79	226.69
972.08	226.65
972.38	226.64
972.67	226.64
972.96	226.61
973.26	226.66
973.55	226.66
973.85	226.69
974.14	226.69
974.43	226.68
974.73	226.66
975.02	226.66
975.31	226.65
975.61	226.64
975.90	226.67
976.19	226.67
976.49	226.68
976.78	226.72
977.07	226.71
977.37	226.74
977.66	226.78
977.95	226.80
978.24	226.81
978.54	226.84
978.83	226.87
979.12	226.89
979.42	226.86
979.71	226.84
980.00	226.85
980.29	226.81
980.59	226.82
980.88	226.88
981.17	226.85
981.46	226.87
981.76	226.91
982.05	226.92
982.34	226.92
982.63	226.96
982.93	226.95
983.22	226.98
983.51	226.98
983.80	227.00
984.09	227.01
984.39	227.03
984.68	227.02
984.97	227.03
985.26	227.02
985.55	227.02
985.85	227.04
986.14	227.04
986.43	227.09
986.72	227.08
987.01	227.06
987.30	227.08
987.59	227.05
987.89	227.04
988.18	227.00
988.47	227.00
988.76	226.98
989.05	226.98
989.34	226.95
989.63	226.95
989.92	226.93
990.22	226.92
990.51	226.93
990.80	226.89
991.09	226.86
991.38	226.87
991.67	226.89
991.96	226.85
992.25	226.88
992.54	226.85
992.83	226.87
993.12	226.82
993.41	226.85
993.70	226.91
993.99	226.93
994.28	226.93
994.58	226.91
994.87	226.87
995.16	226.84
995.45	226.83
995.74	226.78
996.03	226.78
996.32	226.78
996.61	226.76
996.90	226.78
997.19	226.76
997.48	226.74
997.77	226.70
998.06	226.71
998.34	226.68
998.63	226.67
998.92	226.66
999.21	226.69
999.50	226.70
999.79	226.63
1000.08	226.63
1000.37	226.61
1000.66	226.61
1000.95	226.65
1001.24	226.66
1001.53	226.66
1001.82	226.70
1002.11	226.67
1002.40	226.66
1002.68	226.71
1002.97	226.78
1003.26	226.80
1003.55	226.81
1003.84	226.78
1004.13	226.81
1004.42	226.77
1004.71	226.76
1004.99	226.75
1005.28	226.76
1005.57	226.74
1005.86	226.74
1006.15	226.71
1006.44	226.70
1006.72	226.72
1007.01	226.72
1007.30	226.74
1007.59	226.72
1007.88	226.69
1008.17	226.74
1008.45	226.74
1008.74	226.67
1009.03	226.61
1009.32	226.57
1009.60	226.56
1009.89	226.59
1010.18	226.55
1010.47	226.59
1010.76	226.59
1011.04	226.60
1011.33	226.64
1011.62	226.65
1011.91	226.69
1012.19	226.70
1012.48	226.72
1012.77	226.71
1013.05	226.74
1013.34	226.74
1013.63	226.78
1013.92	226.80
1014.20	226.78
1014.49	226.81
1014.78	226.85
1015.06	226.87
1015.35	226.90
1015.64	226.94
1015.92	226.96
1016.21	226.95
1016.50	226.96
1016.78	227.00
1017.07	227.04
1017.36	227.00
1017.64	227.00
1017.93	226.98
1018.22	226.98
1018.50	226.98
1018.79	227.01
1019.08	226.97
1019.36	226.97
1019.65	226.94
1019.93	226.98
1020.22	226.99
1020.51	227.02
1020.79	227.00
1021.08	226.65
1021.36	226.77
1021.65	227.14
1021.94	226.81
1022.22	226.75
1022.51	226.72
1022.79	227.55
1023.08	226.90
1023.36	228.02
1023.65	226.72
>>>>>End Processed Spectral Data<<<<<
