SpectraSuite Data File
++++++++++++++++++++++++++++++++++++
Date: Fri Feb 01 15:45:12 EST 2013
User: group
Dark Spectrum Present: No
Reference Spectrum Present: No
Number of Sampled Component Spectra: 1
Spectrometers: USB2E7196
Integration Time (usec): 35000 (USB2E7196)
Spectra Averaged: 100 (USB2E7196)
Boxcar Smoothing: 10 (USB2E7196)
Correct for Electrical Dark: No (USB2E7196)
Strobe/Lamp Enabled: No (USB2E7196)
Correct for Detector Non-linearity: No (USB2E7196)
Correct for Stray Light: No (USB2E7196)
Number of Pixels in Processed Spectrum: 2048
>>>>>Begin Processed Spectral Data<<<<<
339.09	0.00
339.48	214.52
339.86	216.78
340.24	217.44
340.63	219.08
341.01	222.11
341.39	222.16
341.78	222.89
342.16	224.42
342.54	224.95
342.93	213.28
343.31	224.11
343.69	224.69
344.07	225.16
344.46	225.59
344.84	225.98
345.22	226.19
345.60	226.43
345.99	226.65
346.37	226.78
346.75	226.91
347.13	226.99
347.52	227.01
347.90	227.11
348.28	227.18
348.66	227.25
349.05	227.24
349.43	227.30
349.81	227.33
350.19	227.39
350.57	227.43
350.96	227.52
351.34	227.56
351.72	227.65
352.10	227.71
352.48	227.79
352.87	227.84
353.25	227.93
353.63	227.97
354.01	228.03
354.39	228.12
354.77	228.14
355.15	228.25
355.54	228.33
355.92	228.34
356.30	228.38
356.68	228.49
357.06	228.58
357.44	228.58
357.82	228.62
358.20	228.67
358.58	228.74
358.97	228.79
359.35	228.84
359.73	228.87
360.11	228.95
360.49	228.97
360.87	228.99
361.25	229.01
361.63	229.07
362.01	229.07
362.39	229.09
362.77	229.14
363.15	229.14
363.53	229.16
363.91	229.15
364.29	229.14
364.67	229.07
365.05	229.05
365.43	229.10
365.81	229.11
366.19	229.11
366.57	229.14
366.95	229.14
367.33	229.11
367.71	229.07
368.09	229.05
368.47	229.02
368.85	229.03
369.23	229.01
369.61	228.95
369.99	228.97
370.37	228.92
370.75	228.91
371.13	228.86
371.51	228.79
371.89	228.74
372.27	228.72
372.65	228.65
373.03	228.62
373.41	228.54
373.78	228.46
374.16	228.39
374.54	228.30
374.92	228.25
375.30	228.21
375.68	228.13
376.06	228.07
376.44	228.04
376.82	227.97
377.19	227.90
377.57	227.85
377.95	227.74
378.33	227.67
378.71	227.56
379.09	227.50
379.47	227.45
379.84	227.39
380.22	227.32
380.60	227.25
380.98	227.16
381.36	227.10
381.73	227.07
382.11	227.04
382.49	226.97
382.87	226.85
383.25	226.77
383.62	226.85
384.00	226.75
384.38	226.69
384.76	226.64
385.13	226.65
385.51	226.60
385.89	226.53
386.27	226.48
386.64	226.46
387.02	226.44
387.40	226.38
387.78	226.36
388.15	226.34
388.53	226.32
388.91	226.32
389.29	226.31
389.66	226.28
390.04	226.23
390.42	226.26
390.79	226.28
391.17	226.28
391.55	226.17
391.92	226.20
392.30	226.19
392.68	226.22
393.05	226.19
393.43	226.23
393.81	226.27
394.18	226.31
394.56	226.32
394.94	226.34
395.31	226.36
395.69	226.41
396.06	226.42
396.44	226.47
396.82	226.49
397.19	226.55
397.57	226.59
397.95	226.65
398.32	226.67
398.70	226.72
399.07	226.81
399.45	226.87
399.82	226.92
400.20	227.01
400.58	227.05
400.95	227.13
401.33	227.23
401.70	227.38
402.08	227.48
402.45	227.58
402.83	227.69
403.20	227.82
403.58	227.91
403.95	228.03
404.33	228.16
404.71	228.29
405.08	228.46
405.46	228.61
405.83	228.74
406.21	228.90
406.58	229.08
406.96	229.21
407.33	229.40
407.70	229.60
408.08	229.85
408.45	230.05
408.83	230.27
409.20	230.46
409.58	230.63
409.95	230.85
410.33	231.14
410.70	231.42
411.08	231.69
411.45	232.01
411.82	232.35
412.20	232.69
412.57	233.11
412.95	233.41
413.32	233.83
413.69	234.24
414.07	234.66
414.44	235.11
414.82	235.59
415.19	236.12
415.56	236.68
415.94	237.23
416.31	237.90
416.68	238.54
417.06	239.25
417.43	239.94
417.81	240.70
418.18	241.47
418.55	242.30
418.93	243.16
419.30	244.07
419.67	244.99
420.04	245.98
420.42	246.96
420.79	248.14
421.16	249.24
421.54	250.45
421.91	251.69
422.28	252.95
422.66	254.30
423.03	255.61
423.40	256.94
423.77	258.35
424.15	259.76
424.52	261.22
424.89	262.84
425.26	264.37
425.64	265.85
426.01	267.40
426.38	269.05
426.75	270.71
427.13	272.41
427.50	274.21
427.87	276.10
428.24	277.95
428.61	279.70
428.99	281.67
429.36	283.75
429.73	285.78
430.10	287.82
430.47	289.90
430.85	292.03
431.22	294.24
431.59	296.62
431.96	298.93
432.33	301.40
432.70	303.82
433.08	306.68
433.45	309.32
433.82	311.97
434.19	314.83
434.56	317.68
434.93	320.33
435.30	322.98
435.68	325.84
436.05	328.69
436.42	331.50
436.79	334.02
437.16	336.71
437.53	339.56
437.90	342.35
438.27	345.03
438.64	347.87
439.01	350.48
439.38	352.70
439.75	354.79
440.13	357.31
440.50	359.61
440.87	361.41
441.24	363.35
441.61	365.50
441.98	366.99
442.35	368.81
442.72	370.70
443.09	372.50
443.46	373.51
443.83	374.05
444.20	374.56
444.57	375.36
444.94	375.65
445.31	375.99
445.68	376.34
446.05	376.46
446.42	376.09
446.79	375.69
447.16	375.26
447.53	374.94
447.90	373.77
448.27	372.57
448.64	370.99
449.01	369.87
449.37	367.90
449.74	366.04
450.11	363.75
450.48	361.28
450.85	358.71
451.22	356.56
451.59	354.55
451.96	352.60
452.33	350.01
452.70	347.63
453.07	344.78
453.43	341.88
453.80	339.09
454.17	336.37
454.54	333.81
454.91	331.04
455.28	328.40
455.65	325.92
456.02	323.51
456.38	321.40
456.75	318.72
457.12	316.43
457.49	314.20
457.86	312.08
458.23	310.20
458.59	308.18
458.96	306.08
459.33	304.24
459.70	302.38
460.07	300.91
460.43	299.25
460.80	297.66
461.17	296.25
461.54	294.75
461.91	293.32
462.27	291.86
462.64	290.64
463.01	289.28
463.38	288.02
463.74	286.65
464.11	285.46
464.48	284.44
464.85	283.38
465.21	282.52
465.58	281.60
465.95	280.53
466.32	279.61
466.68	278.71
467.05	277.84
467.42	276.94
467.78	275.97
468.15	275.10
468.52	274.41
468.88	273.55
469.25	272.81
469.62	272.23
469.98	271.55
470.35	270.91
470.72	270.33
471.08	269.64
471.45	269.11
471.82	268.58
472.18	267.97
472.55	267.50
472.92	266.94
473.28	266.44
473.65	265.99
474.02	265.55
474.38	265.20
474.75	264.88
475.11	264.56
475.48	264.35
475.85	264.10
476.21	263.85
476.58	263.68
476.94	263.53
477.31	263.35
477.67	263.24
478.04	263.12
478.41	263.06
478.77	263.09
479.14	263.00
479.50	263.02
479.87	263.09
480.23	263.20
480.60	263.31
480.96	263.42
481.33	263.63
481.69	263.87
482.06	264.05
482.42	264.24
482.79	264.50
483.15	264.77
483.52	265.13
483.88	265.47
484.25	265.85
484.61	266.27
484.98	266.72
485.34	267.24
485.71	267.81
486.07	268.42
486.44	268.99
486.80	269.71
487.17	270.40
487.53	271.22
487.90	272.07
488.26	272.98
488.62	273.95
488.99	274.88
489.35	275.90
489.72	277.05
490.08	278.23
490.44	279.43
490.81	280.76
491.17	282.13
491.54	283.65
491.90	285.14
492.26	286.76
492.63	288.47
492.99	290.26
493.36	292.15
493.72	294.17
494.08	296.27
494.45	298.54
494.81	300.93
495.17	303.34
495.54	305.93
495.90	308.58
496.26	311.40
496.63	314.39
496.99	317.48
497.35	320.71
497.72	324.14
498.08	327.64
498.44	331.34
498.80	335.29
499.17	339.33
499.53	343.58
499.89	347.96
500.26	352.48
500.62	357.14
500.98	362.16
501.34	367.24
501.71	372.57
502.07	377.99
502.43	383.57
502.79	389.45
503.16	395.48
503.52	401.83
503.88	408.23
504.24	414.83
504.60	421.75
504.97	428.88
505.33	436.21
505.69	443.95
506.05	451.69
506.41	459.56
506.78	467.75
507.14	476.16
507.50	484.90
507.86	493.96
508.22	503.20
508.59	512.34
508.95	521.98
509.31	531.79
509.67	541.88
510.03	552.19
510.39	562.70
510.75	573.50
511.12	584.45
511.48	595.74
511.84	607.25
512.20	618.68
512.56	630.69
512.92	642.87
513.28	655.23
513.64	667.73
514.00	680.41
514.37	693.32
514.73	706.43
515.09	719.54
515.45	732.73
515.81	746.30
516.17	760.34
516.53	774.41
516.89	788.65
517.25	802.91
517.61	817.42
517.97	831.96
518.33	846.35
518.69	861.06
519.05	876.06
519.41	891.24
519.77	906.92
520.13	922.36
520.49	937.80
520.85	953.34
521.21	968.99
521.57	985.27
521.93	1001.07
522.29	1017.52
522.65	1033.73
523.01	1050.09
523.37	1066.14
523.73	1082.38
524.09	1098.47
524.45	1114.71
524.81	1131.30
525.17	1148.08
525.53	1165.03
525.89	1181.95
526.25	1198.83
526.61	1215.27
526.97	1232.01
527.33	1248.45
527.68	1265.01
528.04	1281.41
528.40	1297.95
528.76	1315.09
529.12	1331.63
529.48	1348.61
529.84	1364.55
530.20	1381.22
530.56	1398.10
530.91	1415.59
531.27	1432.32
531.63	1448.79
531.99	1465.45
532.35	1481.34
532.71	1497.24
533.07	1513.25
533.42	1529.20
533.78	1545.26
534.14	1561.54
534.50	1576.87
534.86	1592.71
535.21	1607.99
535.57	1624.00
535.93	1639.49
536.29	1654.36
536.65	1669.47
537.00	1684.05
537.36	1699.27
537.72	1713.76
538.08	1728.20
538.44	1741.90
538.79	1755.84
539.15	1769.46
539.51	1783.22
539.87	1797.64
540.22	1811.34
540.58	1825.21
540.94	1838.58
541.29	1851.40
541.65	1864.07
542.01	1877.33
542.37	1889.59
542.72	1901.86
543.08	1913.60
543.44	1925.96
543.79	1937.11
544.15	1948.16
544.51	1959.78
544.87	1970.76
545.22	1981.48
545.58	1991.64
545.94	2001.35
546.29	2011.15
546.65	2021.01
547.01	2030.19
547.36	2038.83
547.72	2047.35
548.07	2055.22
548.43	2063.46
548.79	2071.58
549.14	2079.11
549.50	2086.44
549.86	2094.31
550.21	2101.64
550.57	2108.75
550.92	2115.39
551.28	2122.44
551.64	2129.46
551.99	2136.07
552.35	2142.33
552.70	2148.66
553.06	2154.81
553.41	2161.23
553.77	2167.30
554.13	2173.49
554.48	2179.59
554.84	2185.07
555.19	2190.40
555.55	2195.46
555.90	2199.89
556.26	2204.64
556.61	2209.41
556.97	2213.61
557.32	2217.66
557.68	2221.82
558.03	2226.18
558.39	2229.79
558.74	2234.56
559.10	2238.45
559.45	2242.01
559.81	2246.36
560.16	2250.01
560.52	2253.17
560.87	2256.55
561.23	2259.21
561.58	2262.15
561.94	2264.79
562.29	2267.14
562.64	2269.68
563.00	2272.41
563.35	2275.82
563.71	2278.88
564.06	2281.96
564.42	2284.85
564.77	2287.30
565.12	2289.45
565.48	2291.23
565.83	2292.96
566.19	2294.09
566.54	2295.10
566.89	2296.25
567.25	2296.66
567.60	2298.02
567.96	2299.76
568.31	2300.51
568.66	2301.54
569.02	2302.15
569.37	2302.42
569.72	2303.39
570.08	2303.54
570.43	2303.47
570.78	2302.92
571.14	2301.54
571.49	2300.12
571.84	2299.87
572.20	2298.70
572.55	2297.82
572.90	2296.42
573.26	2295.11
573.61	2293.41
573.96	2291.51
574.31	2288.53
574.67	2285.66
575.02	2281.98
575.37	2278.52
575.72	2274.70
576.08	2271.41
576.43	2267.96
576.78	2264.22
577.13	2260.93
577.49	2257.95
577.84	2254.39
578.19	2250.66
578.54	2246.86
578.90	2242.76
579.25	2237.15
579.60	2232.19
579.95	2227.21
580.30	2222.06
580.66	2216.87
581.01	2211.93
581.36	2206.93
581.71	2202.68
582.06	2198.00
582.42	2193.58
582.77	2188.29
583.12	2183.76
583.47	2178.97
583.82	2174.08
584.17	2168.76
584.53	2163.20
584.88	2157.34
585.23	2151.54
585.58	2146.01
585.93	2140.70
586.28	2135.95
586.63	2130.75
586.98	2125.72
587.34	2120.91
587.69	2116.13
588.04	2110.97
588.39	2105.31
588.74	2098.95
589.09	2092.80
589.44	2086.08
589.79	2080.16
590.14	2074.62
590.49	2068.08
590.84	2061.67
591.19	2055.47
591.54	2049.10
591.89	2041.72
592.25	2035.03
592.60	2027.93
592.95	2020.24
593.30	2012.72
593.65	2005.00
594.00	1997.99
594.35	1990.75
594.70	1982.71
595.05	1975.40
595.40	1968.08
595.75	1960.50
596.10	1954.19
596.45	1947.46
596.80	1941.37
597.15	1934.60
597.50	1927.39
597.85	1920.94
598.19	1914.31
598.54	1907.18
598.89	1900.57
599.24	1894.71
599.59	1888.03
599.94	1881.76
600.29	1875.50
600.64	1869.03
600.99	1861.60
601.34	1854.78
601.69	1847.81
602.04	1840.94
602.39	1833.58
602.74	1826.80
603.08	1820.09
603.43	1813.32
603.78	1806.02
604.13	1798.87
604.48	1791.58
604.83	1784.80
605.18	1777.76
605.53	1769.62
605.87	1761.63
606.22	1754.33
606.57	1746.43
606.92	1739.09
607.27	1731.96
607.62	1725.08
607.96	1717.78
608.31	1711.15
608.66	1703.54
609.01	1695.87
609.36	1688.29
609.70	1680.22
610.05	1672.03
610.40	1664.30
610.75	1655.93
611.10	1648.18
611.44	1639.78
611.79	1631.82
612.14	1623.10
612.49	1614.02
612.83	1605.69
613.18	1597.65
613.53	1589.60
613.88	1581.08
614.22	1572.71
614.57	1564.11
614.92	1555.97
615.27	1548.30
615.61	1540.01
615.96	1531.95
616.31	1524.39
616.65	1516.92
617.00	1509.47
617.35	1501.90
617.70	1493.57
618.04	1485.11
618.39	1477.01
618.74	1469.20
619.08	1460.81
619.43	1453.24
619.78	1446.29
620.12	1439.11
620.47	1431.55
620.82	1423.35
621.16	1415.87
621.51	1408.20
621.85	1400.51
622.20	1392.00
622.55	1383.69
622.89	1375.84
623.24	1368.27
623.59	1360.91
623.93	1353.42
624.28	1346.08
624.62	1338.37
624.97	1331.19
625.32	1324.39
625.66	1317.26
626.01	1310.15
626.35	1302.68
626.70	1294.83
627.04	1287.02
627.39	1279.31
627.73	1271.87
628.08	1264.88
628.43	1257.49
628.77	1250.22
629.12	1242.65
629.46	1235.48
629.81	1228.11
630.15	1220.86
630.50	1213.39
630.84	1205.09
631.19	1197.23
631.53	1189.69
631.88	1182.25
632.22	1174.61
632.57	1167.32
632.91	1159.81
633.26	1152.33
633.60	1145.07
633.95	1138.04
634.29	1131.09
634.64	1124.31
634.98	1116.88
635.32	1109.75
635.67	1103.30
636.01	1096.65
636.36	1089.83
636.70	1083.32
637.05	1076.65
637.39	1070.15
637.73	1063.68
638.08	1057.87
638.42	1051.74
638.77	1045.29
639.11	1038.71
639.45	1032.36
639.80	1025.63
640.14	1019.21
640.49	1012.82
640.83	1006.39
641.17	1000.10
641.52	993.67
641.86	987.24
642.20	981.45
642.55	975.18
642.89	968.64
643.23	962.17
643.58	956.56
643.92	950.35
644.26	944.29
644.61	938.34
644.95	932.30
645.29	925.65
645.64	919.02
645.98	912.76
646.32	906.89
646.66	900.87
647.01	895.01
647.35	889.32
647.69	883.37
648.04	877.95
648.38	872.20
648.72	866.22
649.06	860.18
649.41	854.35
649.75	848.42
650.09	842.45
650.43	836.64
650.78	830.43
651.12	824.53
651.46	818.86
651.80	813.03
652.14	807.67
652.49	802.33
652.83	797.16
653.17	791.40
653.51	785.73
653.85	780.36
654.20	774.85
654.54	768.75
654.88	763.01
655.22	757.11
655.56	751.44
655.90	746.05
656.25	740.85
656.59	735.40
656.93	730.22
657.27	725.04
657.61	719.56
657.95	714.41
658.29	709.35
658.64	704.13
658.98	698.87
659.32	693.38
659.66	688.15
660.00	682.79
660.34	677.90
660.68	672.97
661.02	667.84
661.36	663.14
661.70	658.70
662.05	654.37
662.39	649.99
662.73	645.53
663.07	641.20
663.41	636.68
663.75	632.19
664.09	627.66
664.43	623.33
664.77	619.25
665.11	615.00
665.45	610.82
665.79	606.71
666.13	602.53
666.47	598.43
666.81	594.27
667.15	590.13
667.49	586.19
667.83	582.39
668.17	578.50
668.51	574.44
668.85	570.40
669.19	566.59
669.53	562.74
669.87	558.82
670.21	555.02
670.55	551.42
670.89	548.02
671.23	544.59
671.57	541.00
671.91	537.39
672.25	533.88
672.58	530.41
672.92	527.03
673.26	523.88
673.60	520.73
673.94	517.65
674.28	514.77
674.62	511.90
674.96	508.69
675.30	505.77
675.64	502.82
675.97	500.07
676.31	497.20
676.65	494.27
676.99	491.61
677.33	488.76
677.67	485.97
678.01	482.95
678.34	479.94
678.68	477.11
679.02	474.35
679.36	471.60
679.70	468.83
680.04	466.06
680.37	463.23
680.71	460.47
681.05	457.84
681.39	455.09
681.73	452.39
682.06	449.85
682.40	447.29
682.74	444.76
683.08	442.27
683.42	439.66
683.75	437.15
684.09	434.59
684.43	432.16
684.77	429.65
685.10	427.30
685.44	425.01
685.78	422.71
686.12	420.47
686.45	418.23
686.79	415.93
687.13	413.75
687.46	411.54
687.80	409.39
688.14	407.22
688.48	405.21
688.81	402.95
689.15	400.87
689.49	398.77
689.82	396.71
690.16	394.53
690.50	392.60
690.83	390.65
691.17	388.67
691.51	386.71
691.84	384.84
692.18	382.89
692.52	380.86
692.85	378.94
693.19	377.01
693.52	375.16
693.86	373.36
694.20	371.58
694.53	369.80
694.87	367.95
695.21	366.12
695.54	364.32
695.88	362.59
696.21	360.86
696.55	359.17
696.88	357.49
697.22	355.91
697.56	354.30
697.89	352.66
698.23	351.05
698.56	349.47
698.90	347.90
699.23	346.28
699.57	344.78
699.90	343.26
700.24	341.72
700.58	340.21
700.91	338.70
701.25	337.21
701.58	335.84
701.92	334.45
702.25	333.08
702.59	331.64
702.92	330.33
703.26	329.00
703.59	327.70
703.93	326.56
704.26	325.30
704.60	323.97
704.93	322.71
705.26	321.51
705.60	320.33
705.93	319.21
706.27	318.17
706.60	317.14
706.94	316.09
707.27	314.99
707.61	313.93
707.94	312.94
708.27	311.88
708.61	310.81
708.94	309.82
709.28	308.82
709.61	307.93
709.94	307.02
710.28	306.02
710.61	305.02
710.95	303.91
711.28	302.98
711.61	302.03
711.95	301.10
712.28	300.12
712.61	299.15
712.95	298.18
713.28	297.26
713.61	296.35
713.95	295.46
714.28	294.62
714.61	293.70
714.95	292.85
715.28	292.00
715.61	291.13
715.95	290.28
716.28	289.45
716.61	288.57
716.95	287.72
717.28	286.97
717.61	286.24
717.94	285.52
718.28	284.71
718.61	284.00
718.94	283.35
719.27	282.71
719.61	282.07
719.94	281.44
720.27	280.73
720.60	280.03
720.94	279.40
721.27	278.79
721.60	278.24
721.93	277.59
722.27	277.06
722.60	276.52
722.93	275.93
723.26	275.37
723.59	274.82
723.93	274.30
724.26	273.75
724.59	273.16
724.92	272.61
725.25	272.13
725.59	271.61
725.92	271.06
726.25	270.54
726.58	270.01
726.91	269.50
727.24	269.04
727.57	268.56
727.91	268.03
728.24	267.58
728.57	267.06
728.90	266.61
729.23	266.10
729.56	265.67
729.89	265.22
730.22	264.75
730.55	264.27
730.89	263.78
731.22	263.33
731.55	262.92
731.88	262.46
732.21	262.03
732.54	261.58
732.87	261.14
733.20	260.74
733.53	260.41
733.86	260.05
734.19	259.65
734.52	259.29
734.85	259.00
735.18	258.53
735.51	258.19
735.84	257.85
736.17	257.51
736.50	257.08
736.83	256.84
737.16	256.53
737.49	256.23
737.82	255.90
738.15	255.56
738.48	255.24
738.81	254.95
739.14	254.62
739.47	254.33
739.80	254.07
740.13	253.79
740.46	253.41
740.79	253.04
741.12	252.74
741.45	252.40
741.78	252.02
742.11	251.81
742.44	251.46
742.77	251.16
743.10	250.83
743.43	250.55
743.75	250.18
744.08	250.05
744.41	249.79
744.74	249.53
745.07	249.25
745.40	249.02
745.73	248.82
746.06	248.56
746.39	248.32
746.71	247.99
747.04	247.67
747.37	247.45
747.70	247.23
748.03	246.99
748.36	246.82
748.68	246.57
749.01	246.31
749.34	246.13
749.67	245.91
750.00	245.69
750.33	245.54
750.65	245.31
750.98	244.95
751.31	244.73
751.64	244.51
751.97	244.39
752.29	244.15
752.62	243.89
752.95	243.66
753.28	243.43
753.60	243.24
753.93	243.10
754.26	242.92
754.59	242.71
754.91	242.49
755.24	242.27
755.57	242.11
755.90	241.93
756.22	241.73
756.55	241.50
756.88	241.29
757.20	241.07
757.53	240.86
757.86	240.71
758.19	240.52
758.51	240.35
758.84	240.12
759.17	239.95
759.49	239.79
759.82	239.69
760.15	239.55
760.47	239.40
760.80	239.22
761.13	239.09
761.45	238.92
761.78	238.81
762.11	238.64
762.43	238.46
762.76	238.30
763.08	238.15
763.41	238.04
763.74	237.92
764.06	237.76
764.39	237.64
764.71	237.49
765.04	237.35
765.37	237.23
765.69	237.12
766.02	236.94
766.34	236.80
766.67	236.63
767.00	236.51
767.32	236.39
767.65	236.32
767.97	236.17
768.30	236.07
768.62	235.92
768.95	235.83
769.27	235.72
769.60	235.62
769.92	235.53
770.25	235.41
770.57	235.30
770.90	235.19
771.22	235.04
771.55	234.91
771.87	234.82
772.20	234.72
772.52	234.70
772.85	234.74
773.17	234.62
773.50	234.51
773.82	234.42
774.15	234.31
774.47	234.16
774.80	234.07
775.12	233.96
775.45	233.86
775.77	233.79
776.09	233.75
776.42	233.66
776.74	233.59
777.07	233.53
777.39	233.47
777.72	233.40
778.04	233.37
778.36	233.32
778.69	233.23
779.01	233.16
779.33	233.00
779.66	232.83
779.98	232.78
780.31	232.72
780.63	232.68
780.95	232.64
781.28	232.60
781.60	232.52
781.92	232.48
782.25	232.45
782.57	232.35
782.89	232.24
783.22	232.18
783.54	232.10
783.86	232.05
784.19	231.96
784.51	231.95
784.83	231.90
785.16	231.82
785.48	231.79
785.80	231.73
786.12	231.69
786.45	231.63
786.77	231.59
787.09	231.55
787.42	231.48
787.74	231.41
788.06	231.39
788.38	231.33
788.71	231.29
789.03	231.24
789.35	231.25
789.67	231.22
789.99	231.20
790.32	231.13
790.64	231.11
790.96	231.17
791.28	231.11
791.61	231.05
791.93	231.02
792.25	231.00
792.57	231.01
792.89	230.95
793.21	230.93
793.54	230.89
793.86	230.85
794.18	230.81
794.50	230.78
794.82	230.74
795.14	230.76
795.47	230.77
795.79	230.73
796.11	230.68
796.43	230.63
796.75	230.62
797.07	230.62
797.39	230.56
797.71	230.46
798.04	230.38
798.36	230.38
798.68	230.36
799.00	230.32
799.32	230.27
799.64	230.28
799.96	230.24
800.28	230.21
800.60	230.18
800.92	230.18
801.24	230.14
801.56	230.11
801.89	230.07
802.21	229.97
802.53	229.92
802.85	229.89
803.17	229.90
803.49	229.83
803.81	229.81
804.13	229.72
804.45	229.66
804.77	229.67
805.09	229.63
805.41	229.58
805.73	229.52
806.05	229.47
806.37	229.38
806.69	229.37
807.01	229.33
807.33	229.32
807.65	229.24
807.97	229.26
808.28	229.22
808.60	229.19
808.92	229.17
809.24	229.22
809.56	229.18
809.88	229.12
810.20	229.10
810.52	229.12
810.84	229.11
811.16	229.08
811.48	229.03
811.80	229.05
812.12	228.97
812.43	228.98
812.75	228.94
813.07	228.95
813.39	228.91
813.71	228.88
814.03	228.82
814.35	228.79
814.67	228.72
814.98	228.65
815.30	228.60
815.62	228.59
815.94	228.47
816.26	228.52
816.58	228.51
816.89	228.46
817.21	228.36
817.53	228.35
817.85	228.37
818.17	228.35
818.48	228.28
818.80	228.34
819.12	228.29
819.44	228.29
819.76	228.25
820.07	228.24
820.39	228.23
820.71	228.24
821.03	228.22
821.34	228.21
821.66	228.26
821.98	228.27
822.30	228.22
822.61	228.30
822.93	228.23
823.25	228.21
823.57	228.21
823.88	228.24
824.20	228.26
824.52	228.24
824.83	228.25
825.15	228.26
825.47	228.23
825.79	228.22
826.10	228.21
826.42	228.19
826.74	228.21
827.05	228.22
827.37	228.21
827.69	228.20
828.00	228.21
828.32	228.21
828.64	228.20
828.95	228.24
829.27	228.19
829.58	228.19
829.90	228.23
830.22	228.24
830.53	228.21
830.85	228.17
831.17	228.13
831.48	228.13
831.80	228.10
832.11	228.10
832.43	228.11
832.75	228.10
833.06	228.15
833.38	228.10
833.69	228.09
834.01	228.11
834.32	228.11
834.64	228.12
834.96	228.09
835.27	228.08
835.59	228.07
835.90	228.06
836.22	228.04
836.53	228.01
836.85	228.01
837.16	228.12
837.48	228.14
837.79	228.17
838.11	228.16
838.42	228.17
838.74	228.17
839.05	228.18
839.37	228.15
839.68	228.13
840.00	228.10
840.31	228.11
840.63	228.07
840.94	228.06
841.26	227.99
841.57	227.97
841.88	227.96
842.20	227.95
842.51	227.91
842.83	227.92
843.14	227.98
843.46	227.94
843.77	227.86
844.08	227.84
844.40	227.82
844.71	227.80
845.03	227.76
845.34	227.74
845.65	227.71
845.97	227.70
846.28	227.65
846.60	227.69
846.91	227.67
847.22	227.68
847.54	227.71
847.85	227.71
848.16	227.72
848.48	227.69
848.79	227.68
849.10	227.71
849.42	227.68
849.73	227.59
850.04	227.60
850.36	227.52
850.67	227.49
850.98	227.48
851.30	227.47
851.61	227.46
851.92	227.45
852.23	227.48
852.55	227.49
852.86	227.50
853.17	227.46
853.49	227.45
853.80	227.45
854.11	227.42
854.42	227.43
854.74	227.38
855.05	227.36
855.36	227.33
855.67	227.33
855.99	227.34
856.30	227.42
856.61	227.40
856.92	227.42
857.23	227.43
857.55	227.43
857.86	227.43
858.17	227.45
858.48	227.41
858.79	227.36
859.11	227.35
859.42	227.36
859.73	227.36
860.04	227.33
860.35	227.32
860.66	227.30
860.98	227.30
861.29	227.33
861.60	227.34
861.91	227.38
862.22	227.32
862.53	227.28
862.84	227.20
863.16	227.23
863.47	227.25
863.78	227.21
864.09	227.20
864.40	227.21
864.71	227.20
865.02	227.25
865.33	227.27
865.64	227.30
865.95	227.30
866.27	227.37
866.58	227.38
866.89	227.39
867.20	227.39
867.51	227.38
867.82	227.38
868.13	227.43
868.44	227.40
868.75	227.43
869.06	227.44
869.37	227.43
869.68	227.41
869.99	227.39
870.30	227.47
870.61	227.52
870.92	227.48
871.23	227.51
871.54	227.55
871.85	227.61
872.16	227.60
872.47	227.58
872.78	227.53
873.09	227.51
873.40	227.49
873.71	227.50
874.02	227.51
874.33	227.51
874.64	227.49
874.95	227.52
875.26	227.54
875.56	227.56
875.87	227.58
876.18	227.56
876.49	227.67
876.80	227.63
877.11	227.63
877.42	227.62
877.73	227.63
878.04	227.58
878.35	227.54
878.66	227.56
878.96	227.60
879.27	227.57
879.58	227.59
879.89	227.61
880.20	227.60
880.51	227.60
880.82	227.60
881.12	227.62
881.43	227.59
881.74	227.54
882.05	227.55
882.36	227.54
882.67	227.56
882.97	227.45
883.28	227.43
883.59	227.41
883.90	227.44
884.21	227.44
884.51	227.40
884.82	227.38
885.13	227.35
885.44	227.31
885.74	227.32
886.05	227.32
886.36	227.29
886.67	227.26
886.98	227.27
887.28	227.26
887.59	227.21
887.90	227.17
888.20	227.17
888.51	227.13
888.82	227.10
889.13	227.09
889.43	227.15
889.74	227.15
890.05	227.14
890.35	227.09
890.66	227.05
890.97	227.07
891.28	227.06
891.58	227.04
891.89	227.05
892.20	227.01
892.50	226.96
892.81	226.93
893.12	226.97
893.42	226.92
893.73	226.93
894.04	226.93
894.34	226.95
894.65	226.94
894.95	226.94
895.26	226.92
895.57	226.95
895.87	226.85
896.18	226.87
896.48	226.85
896.79	226.85
897.10	226.84
897.40	226.85
897.71	226.84
898.01	226.82
898.32	226.79
898.63	226.77
898.93	226.77
899.24	226.81
899.54	226.77
899.85	226.77
900.15	226.70
900.46	226.68
900.76	226.68
901.07	226.70
901.38	226.70
901.68	226.74
901.99	226.68
902.29	226.71
902.60	226.68
902.90	226.67
903.21	226.68
903.51	226.71
903.82	226.73
904.12	226.74
904.43	226.73
904.73	226.77
905.03	226.80
905.34	226.93
905.64	226.89
905.95	226.94
906.25	226.94
906.56	226.99
906.86	227.03
907.17	227.03
907.47	227.08
907.77	227.08
908.08	227.08
908.38	227.12
908.69	227.13
908.99	227.16
909.30	227.21
909.60	227.19
909.90	227.19
910.21	227.18
910.51	227.16
910.81	227.22
911.12	227.21
911.42	227.21
911.73	227.08
912.03	227.12
912.33	227.11
912.64	227.08
912.94	227.08
913.24	227.08
913.55	227.06
913.85	227.05
914.15	227.08
914.46	227.12
914.76	227.14
915.06	227.17
915.37	227.17
915.67	227.17
915.97	227.21
916.27	227.21
916.58	227.23
916.88	227.27
917.18	227.23
917.49	227.32
917.79	227.37
918.09	227.41
918.39	227.46
918.70	227.48
919.00	227.53
919.30	227.57
919.60	227.54
919.91	227.56
920.21	227.55
920.51	227.53
920.81	227.50
921.12	227.47
921.42	227.42
921.72	227.42
922.02	227.43
922.32	227.42
922.63	227.41
922.93	227.44
923.23	227.43
923.53	227.43
923.83	227.33
924.13	227.31
924.44	227.31
924.74	227.28
925.04	227.27
925.34	227.27
925.64	227.22
925.94	227.20
926.24	227.25
926.55	227.23
926.85	227.23
927.15	227.19
927.45	227.16
927.75	227.18
928.05	227.17
928.35	227.13
928.65	227.15
928.95	227.14
929.26	227.05
929.56	227.05
929.86	227.06
930.16	227.04
930.46	227.04
930.76	227.03
931.06	227.00
931.36	226.99
931.66	226.97
931.96	227.00
932.26	227.06
932.56	226.98
932.86	226.96
933.16	226.95
933.46	226.96
933.76	226.96
934.06	226.99
934.36	227.02
934.66	227.03
934.96	227.00
935.26	227.00
935.56	227.04
935.86	227.01
936.16	227.03
936.46	227.04
936.76	227.02
937.06	226.99
937.36	226.97
937.66	226.96
937.96	226.94
938.26	226.86
938.56	226.82
938.86	226.85
939.16	226.88
939.46	226.89
939.76	226.87
940.06	226.89
940.35	226.86
940.65	226.81
940.95	226.81
941.25	226.78
941.55	226.76
941.85	226.74
942.15	226.77
942.45	226.76
942.75	226.77
943.04	226.79
943.34	226.81
943.64	226.86
943.94	226.82
944.24	226.83
944.54	226.86
944.84	226.88
945.13	226.88
945.43	226.87
945.73	226.86
946.03	226.86
946.33	226.87
946.62	226.88
946.92	226.89
947.22	226.88
947.52	226.90
947.82	226.95
948.11	226.96
948.41	226.93
948.71	226.89
949.01	226.92
949.31	226.88
949.60	226.86
949.90	226.86
950.20	226.91
950.50	226.92
950.79	226.94
951.09	226.95
951.39	226.95
951.69	226.92
951.98	226.96
952.28	226.98
952.58	226.95
952.87	226.95
953.17	226.97
953.47	226.95
953.76	226.95
954.06	226.92
954.36	226.89
954.66	226.91
954.95	226.92
955.25	226.94
955.55	226.96
955.84	226.96
956.14	226.97
956.44	226.94
956.73	226.93
957.03	226.93
957.32	226.92
957.62	226.90
957.92	226.94
958.21	226.91
958.51	227.01
958.81	227.06
959.10	227.05
959.40	227.06
959.69	227.08
959.99	227.08
960.29	227.08
960.58	227.09
960.88	227.14
961.17	227.17
961.47	227.16
961.76	227.15
962.06	227.17
962.36	227.13
962.65	227.13
962.95	227.13
963.24	227.14
963.54	227.14
963.83	227.15
964.13	227.15
964.42	227.12
964.72	227.05
965.01	227.01
965.31	227.02
965.60	226.98
965.90	227.05
966.19	227.06
966.49	227.08
966.78	227.07
967.08	227.04
967.37	227.02
967.67	226.99
967.96	227.01
968.26	226.98
968.55	227.01
968.85	227.03
969.14	227.03
969.43	227.01
969.73	227.00
970.02	226.98
970.32	226.92
970.61	226.92
970.91	226.87
971.20	226.85
971.49	226.81
971.79	226.82
972.08	226.73
972.38	226.69
972.67	226.68
972.96	226.68
973.26	226.64
973.55	226.65
973.85	226.62
974.14	226.59
974.43	226.59
974.73	226.55
975.02	226.50
975.31	226.48
975.61	226.46
975.90	226.43
976.19	226.45
976.49	226.48
976.78	226.49
977.07	226.48
977.37	226.50
977.66	226.49
977.95	226.47
978.24	226.51
978.54	226.53
978.83	226.52
979.12	226.53
979.42	226.52
979.71	226.50
980.00	226.50
980.29	226.47
980.59	226.46
980.88	226.51
981.17	226.53
981.46	226.53
981.76	226.55
982.05	226.58
982.34	226.58
982.63	226.59
982.93	226.59
983.22	226.59
983.51	226.60
983.80	226.61
984.09	226.62
984.39	226.60
984.68	226.59
984.97	226.58
985.26	226.57
985.55	226.58
985.85	226.54
986.14	226.55
986.43	226.60
986.72	226.58
987.01	226.55
987.30	226.56
987.59	226.56
987.89	226.55
988.18	226.56
988.47	226.56
988.76	226.51
989.05	226.49
989.34	226.49
989.63	226.50
989.92	226.47
990.22	226.47
990.51	226.46
990.80	226.48
991.09	226.46
991.38	226.46
991.67	226.46
991.96	226.47
992.25	226.46
992.54	226.45
992.83	226.46
993.12	226.45
993.41	226.44
993.70	226.48
993.99	226.48
994.28	226.50
994.58	226.51
994.87	226.56
995.16	226.61
995.45	226.62
995.74	226.58
996.03	226.58
996.32	226.60
996.61	226.61
996.90	226.62
997.19	226.67
997.48	226.67
997.77	226.68
998.06	226.72
998.34	226.74
998.63	226.72
998.92	226.75
999.21	226.75
999.50	226.77
999.79	226.73
1000.08	226.77
1000.37	226.77
1000.66	226.74
1000.95	226.72
1001.24	226.69
1001.53	226.72
1001.82	226.73
1002.11	226.75
1002.40	226.76
1002.68	226.78
1002.97	226.82
1003.26	226.79
1003.55	226.79
1003.84	226.78
1004.13	226.82
1004.42	226.81
1004.71	226.85
1004.99	226.84
1005.28	226.86
1005.57	226.87
1005.86	226.89
1006.15	226.86
1006.44	226.82
1006.72	226.86
1007.01	226.84
1007.30	226.86
1007.59	226.84
1007.88	226.82
1008.17	226.84
1008.45	226.80
1008.74	226.76
1009.03	226.70
1009.32	226.72
1009.60	226.73
1009.89	226.74
1010.18	226.68
1010.47	226.69
1010.76	226.67
1011.04	226.67
1011.33	226.69
1011.62	226.67
1011.91	226.69
1012.19	226.69
1012.48	226.70
1012.77	226.67
1013.05	226.74
1013.34	226.73
1013.63	226.74
1013.92	226.75
1014.20	226.74
1014.49	226.74
1014.78	226.75
1015.06	226.73
1015.35	226.70
1015.64	226.75
1015.92	226.73
1016.21	226.75
1016.50	226.73
1016.78	226.72
1017.07	226.73
1017.36	226.71
1017.64	226.68
1017.93	226.67
1018.22	226.64
1018.50	226.62
1018.79	226.65
1019.08	226.60
1019.36	226.59
1019.65	226.56
1019.93	226.57
1020.22	226.61
1020.51	226.67
1020.79	226.68
1021.08	226.03
1021.36	226.38
1021.65	226.96
1021.94	226.58
1022.22	226.70
1022.51	226.36
1022.79	226.89
1023.08	227.11
1023.36	227.72
1023.65	226.52
>>>>>End Processed Spectral Data<<<<<
