SpectraSuite Data File
++++++++++++++++++++++++++++++++++++
Date: Fri Feb 01 15:25:58 EST 2013
User: group
Dark Spectrum Present: No
Reference Spectrum Present: No
Number of Sampled Component Spectra: 1
Spectrometers: USB2E7196
Integration Time (usec): 35000 (USB2E7196)
Spectra Averaged: 100 (USB2E7196)
Boxcar Smoothing: 10 (USB2E7196)
Correct for Electrical Dark: No (USB2E7196)
Strobe/Lamp Enabled: No (USB2E7196)
Correct for Detector Non-linearity: No (USB2E7196)
Correct for Stray Light: No (USB2E7196)
Number of Pixels in Processed Spectrum: 2048
>>>>>Begin Processed Spectral Data<<<<<
339.09	0.00
339.48	215.70
339.86	216.60
340.24	218.06
340.63	219.22
341.01	222.54
341.39	222.31
341.78	223.91
342.16	224.83
342.54	224.83
342.93	213.59
343.31	224.37
343.69	224.91
344.07	225.41
344.46	225.83
344.84	226.25
345.22	226.48
345.60	226.73
345.99	226.87
346.37	226.98
346.75	227.10
347.13	227.17
347.52	227.24
347.90	227.28
348.28	227.31
348.66	227.36
349.05	227.35
349.43	227.38
349.81	227.41
350.19	227.44
350.57	227.52
350.96	227.60
351.34	227.69
351.72	227.76
352.10	227.81
352.48	227.88
352.87	227.89
353.25	227.95
353.63	227.98
354.01	228.09
354.39	228.19
354.77	228.25
355.15	228.39
355.54	228.44
355.92	228.50
356.30	228.60
356.68	228.74
357.06	228.81
357.44	228.86
357.82	228.91
358.20	228.96
358.58	229.03
358.97	229.06
359.35	229.13
359.73	229.19
360.11	229.23
360.49	229.26
360.87	229.33
361.25	229.36
361.63	229.43
362.01	229.46
362.39	229.46
362.77	229.50
363.15	229.50
363.53	229.53
363.91	229.58
364.29	229.55
364.67	229.45
365.05	229.48
365.43	229.47
365.81	229.49
366.19	229.51
366.57	229.52
366.95	229.51
367.33	229.47
367.71	229.48
368.09	229.50
368.47	229.50
368.85	229.46
369.23	229.46
369.61	229.41
369.99	229.39
370.37	229.38
370.75	229.38
371.13	229.32
371.51	229.23
371.89	229.15
372.27	229.14
372.65	229.08
373.03	229.02
373.41	228.97
373.78	228.88
374.16	228.82
374.54	228.72
374.92	228.67
375.30	228.58
375.68	228.46
376.06	228.38
376.44	228.28
376.82	228.21
377.19	228.16
377.57	228.10
377.95	228.00
378.33	227.90
378.71	227.76
379.09	227.69
379.47	227.62
379.84	227.56
380.22	227.45
380.60	227.38
380.98	227.31
381.36	227.23
381.73	227.19
382.11	227.12
382.49	227.07
382.87	226.98
383.25	226.89
383.62	226.95
384.00	226.86
384.38	226.83
384.76	226.78
385.13	226.71
385.51	226.67
385.89	226.61
386.27	226.56
386.64	226.52
387.02	226.48
387.40	226.40
387.78	226.35
388.15	226.33
388.53	226.29
388.91	226.24
389.29	226.22
389.66	226.20
390.04	226.19
390.42	226.17
390.79	226.13
391.17	226.13
391.55	226.03
391.92	226.05
392.30	226.06
392.68	226.03
393.05	226.03
393.43	226.02
393.81	226.08
394.18	226.10
394.56	226.12
394.94	226.19
395.31	226.24
395.69	226.32
396.06	226.37
396.44	226.39
396.82	226.42
397.19	226.51
397.57	226.54
397.95	226.60
398.32	226.67
398.70	226.75
399.07	226.84
399.45	226.92
399.82	227.00
400.20	227.07
400.58	227.15
400.95	227.22
401.33	227.32
401.70	227.46
402.08	227.56
402.45	227.68
402.83	227.79
403.20	227.94
403.58	228.07
403.95	228.19
404.33	228.35
404.71	228.48
405.08	228.66
405.46	228.81
405.83	228.95
406.21	229.09
406.58	229.27
406.96	229.46
407.33	229.61
407.70	229.79
408.08	230.07
408.45	230.30
408.83	230.56
409.20	230.74
409.58	230.91
409.95	231.21
410.33	231.47
410.70	231.70
411.08	231.99
411.45	232.27
411.82	232.60
412.20	232.98
412.57	233.40
412.95	233.74
413.32	234.17
413.69	234.58
414.07	235.02
414.44	235.49
414.82	235.96
415.19	236.50
415.56	237.05
415.94	237.59
416.31	238.24
416.68	238.85
417.06	239.56
417.43	240.23
417.81	240.96
418.18	241.76
418.55	242.59
418.93	243.46
419.30	244.37
419.67	245.30
420.04	246.22
420.42	247.20
420.79	248.36
421.16	249.50
421.54	250.69
421.91	251.93
422.28	253.21
422.66	254.56
423.03	255.87
423.40	257.22
423.77	258.60
424.15	260.00
424.52	261.47
424.89	263.12
425.26	264.73
425.64	266.19
426.01	267.76
426.38	269.43
426.75	271.07
427.13	272.79
427.50	274.58
427.87	276.47
428.24	278.35
428.61	280.11
428.99	282.05
429.36	284.19
429.73	286.25
430.10	288.27
430.47	290.32
430.85	292.44
431.22	294.63
431.59	297.00
431.96	299.26
432.33	301.75
432.70	304.09
433.08	306.87
433.45	309.49
433.82	312.13
434.19	315.00
434.56	317.84
434.93	320.53
435.30	323.15
435.68	326.04
436.05	328.89
436.42	331.68
436.79	334.21
437.16	336.90
437.53	339.75
437.90	342.56
438.27	345.30
438.64	348.13
439.01	350.76
439.38	353.04
439.75	355.20
440.13	357.66
440.50	360.00
440.87	361.88
441.24	363.86
441.61	365.99
441.98	367.52
442.35	369.33
442.72	371.20
443.09	373.03
443.46	374.00
443.83	374.52
444.20	375.03
444.57	375.85
444.94	376.13
445.31	376.43
445.68	376.75
446.05	376.81
446.42	376.45
446.79	376.04
447.16	375.59
447.53	375.32
447.90	374.18
448.27	373.01
448.64	371.39
449.01	370.24
449.37	368.27
449.74	366.31
450.11	364.05
450.48	361.50
450.85	358.99
451.22	356.90
451.59	354.92
451.96	352.99
452.33	350.39
452.70	348.00
453.07	345.19
453.43	342.35
453.80	339.57
454.17	336.86
454.54	334.32
454.91	331.60
455.28	328.88
455.65	326.41
456.02	323.98
456.38	321.82
456.75	319.14
457.12	316.87
457.49	314.68
457.86	312.50
458.23	310.64
458.59	308.58
458.96	306.50
459.33	304.61
459.70	302.76
460.07	301.22
460.43	299.54
460.80	297.91
461.17	296.45
461.54	295.00
461.91	293.60
462.27	292.13
462.64	290.86
463.01	289.51
463.38	288.21
463.74	286.84
464.11	285.69
464.48	284.66
464.85	283.62
465.21	282.77
465.58	281.87
465.95	280.80
466.32	279.90
466.68	278.97
467.05	278.06
467.42	277.11
467.78	276.19
468.15	275.26
468.52	274.61
468.88	273.74
469.25	272.90
469.62	272.26
469.98	271.56
470.35	270.92
470.72	270.32
471.08	269.66
471.45	269.14
471.82	268.55
472.18	267.95
472.55	267.46
472.92	266.92
473.28	266.41
473.65	265.94
474.02	265.45
474.38	265.07
474.75	264.77
475.11	264.45
475.48	264.15
475.85	263.92
476.21	263.66
476.58	263.46
476.94	263.33
477.31	263.17
477.67	263.04
478.04	262.95
478.41	262.90
478.77	262.94
479.14	262.86
479.50	262.89
479.87	262.97
480.23	263.06
480.60	263.10
480.96	263.20
481.33	263.41
481.69	263.60
482.06	263.78
482.42	263.95
482.79	264.22
483.15	264.57
483.52	264.98
483.88	265.34
484.25	265.74
484.61	266.19
484.98	266.65
485.34	267.21
485.71	267.80
486.07	268.37
486.44	268.93
486.80	269.62
487.17	270.35
487.53	271.14
487.90	271.99
488.26	272.98
488.62	273.96
488.99	274.93
489.35	276.01
489.72	277.16
490.08	278.40
490.44	279.62
490.81	280.94
491.17	282.27
491.54	283.72
491.90	285.27
492.26	286.87
492.63	288.59
492.99	290.38
493.36	292.29
493.72	294.34
494.08	296.46
494.45	298.74
494.81	301.09
495.17	303.51
495.54	306.07
495.90	308.70
496.26	311.50
496.63	314.49
496.99	317.55
497.35	320.78
497.72	324.14
498.08	327.68
498.44	331.32
498.80	335.24
499.17	339.30
499.53	343.44
499.89	347.85
500.26	352.33
500.62	357.00
500.98	361.96
501.34	367.04
501.71	372.30
502.07	377.74
502.43	383.37
502.79	389.26
503.16	395.29
503.52	401.58
503.88	407.99
504.24	414.56
504.60	421.48
504.97	428.58
505.33	435.95
505.69	443.66
506.05	451.46
506.41	459.30
506.78	467.47
507.14	475.94
507.50	484.67
507.86	493.72
508.22	502.88
508.59	512.06
508.95	521.61
509.31	531.45
509.67	541.46
510.03	551.81
510.39	562.25
510.75	573.07
511.12	583.95
511.48	595.21
511.84	606.70
512.20	618.23
512.56	630.21
512.92	642.32
513.28	654.68
513.64	667.16
514.00	679.85
514.37	692.73
514.73	705.78
515.09	718.78
515.45	732.06
515.81	745.63
516.17	759.59
516.53	773.72
516.89	787.86
517.25	802.19
517.61	816.61
517.97	831.19
518.33	845.75
518.69	860.63
519.05	875.73
519.41	890.92
519.77	906.49
520.13	922.04
520.49	937.55
520.85	953.04
521.21	968.82
521.57	985.11
521.93	1000.95
522.29	1017.45
522.65	1033.81
523.01	1050.15
523.37	1066.32
523.73	1082.64
524.09	1098.79
524.45	1115.22
524.81	1131.89
525.17	1148.58
525.53	1165.56
525.89	1182.33
526.25	1199.24
526.61	1215.60
526.97	1232.45
527.33	1248.92
527.68	1265.60
528.04	1282.23
528.40	1298.87
528.76	1316.08
529.12	1332.72
529.48	1349.76
529.84	1365.83
530.20	1382.51
530.56	1399.51
530.91	1416.93
531.27	1433.67
531.63	1450.29
531.99	1467.05
532.35	1483.03
532.71	1499.09
533.07	1515.36
533.42	1531.42
533.78	1547.43
534.14	1563.84
534.50	1579.17
534.86	1595.22
535.21	1610.43
535.57	1626.40
535.93	1641.92
536.29	1656.65
536.65	1671.93
537.00	1686.80
537.36	1702.13
537.72	1716.68
538.08	1731.20
538.44	1745.16
538.79	1759.10
539.15	1772.86
539.51	1786.61
539.87	1801.08
540.22	1814.95
540.58	1828.82
540.94	1842.26
541.29	1855.27
541.65	1868.00
542.01	1881.40
542.37	1893.72
542.72	1906.11
543.08	1917.83
543.44	1930.26
543.79	1941.53
544.15	1952.48
544.51	1963.95
544.87	1975.06
545.22	1985.90
545.58	1996.14
545.94	2005.86
546.29	2015.79
546.65	2025.60
547.01	2034.89
547.36	2043.66
547.72	2052.03
548.07	2059.95
548.43	2068.23
548.79	2076.21
549.14	2083.76
549.50	2091.17
549.86	2098.92
550.21	2106.42
550.57	2113.68
550.92	2120.24
551.28	2127.37
551.64	2134.35
551.99	2141.01
552.35	2147.08
552.70	2153.33
553.06	2159.39
553.41	2165.79
553.77	2171.90
554.13	2178.02
554.48	2184.13
554.84	2189.56
555.19	2194.92
555.55	2200.00
555.90	2204.29
556.26	2209.20
556.61	2214.02
556.97	2218.18
557.32	2222.33
557.68	2226.41
558.03	2230.69
558.39	2234.46
558.74	2239.10
559.10	2242.99
559.45	2246.57
559.81	2250.90
560.16	2254.63
560.52	2257.67
560.87	2261.15
561.23	2263.75
561.58	2266.77
561.94	2269.21
562.29	2271.62
562.64	2274.46
563.00	2276.99
563.35	2280.53
563.71	2283.59
564.06	2286.82
564.42	2289.59
564.77	2291.93
565.12	2294.07
565.48	2295.81
565.83	2297.56
566.19	2298.80
566.54	2299.80
566.89	2300.98
567.25	2301.55
567.60	2302.80
567.96	2304.54
568.31	2305.20
568.66	2306.24
569.02	2306.68
569.37	2307.00
569.72	2307.69
570.08	2307.73
570.43	2307.69
570.78	2306.99
571.14	2305.48
571.49	2303.99
571.84	2303.62
572.20	2302.50
572.55	2301.51
572.90	2299.97
573.26	2298.68
573.61	2296.87
573.96	2294.88
574.31	2291.80
574.67	2288.64
575.02	2284.96
575.37	2281.48
575.72	2277.55
576.08	2274.19
576.43	2270.87
576.78	2267.15
577.13	2264.07
577.49	2260.91
577.84	2257.51
578.19	2253.76
578.54	2249.99
578.90	2245.68
579.25	2239.98
579.60	2234.89
579.95	2229.73
580.30	2224.67
580.66	2219.35
581.01	2214.38
581.36	2209.46
581.71	2205.14
582.06	2200.58
582.42	2196.11
582.77	2190.82
583.12	2186.22
583.47	2181.34
583.82	2176.13
584.17	2170.74
584.53	2164.98
584.88	2159.22
585.23	2153.07
585.58	2147.54
585.93	2142.09
586.28	2137.26
586.63	2132.17
586.98	2127.03
587.34	2122.20
587.69	2117.21
588.04	2111.93
588.39	2106.16
588.74	2099.63
589.09	2093.37
589.44	2086.62
589.79	2080.50
590.14	2074.74
590.49	2068.17
590.84	2061.70
591.19	2055.58
591.54	2049.05
591.89	2041.55
592.25	2034.61
592.60	2027.56
592.95	2019.70
593.30	2012.23
593.65	2004.49
594.00	1997.39
594.35	1990.22
594.70	1982.21
595.05	1974.87
595.40	1967.45
595.75	1960.00
596.10	1953.70
596.45	1946.88
596.80	1940.59
597.15	1933.90
597.50	1926.69
597.85	1920.14
598.19	1913.47
598.54	1906.40
598.89	1899.65
599.24	1893.86
599.59	1887.14
599.94	1880.88
600.29	1874.78
600.64	1868.18
600.99	1860.79
601.34	1853.95
601.69	1846.84
602.04	1839.90
602.39	1832.62
602.74	1825.74
603.08	1818.96
603.43	1812.18
603.78	1804.82
604.13	1797.61
604.48	1790.16
604.83	1783.38
605.18	1776.37
605.53	1768.37
605.87	1760.21
606.22	1753.02
606.57	1744.91
606.92	1737.55
607.27	1730.17
607.62	1723.07
607.96	1715.65
608.31	1708.96
608.66	1701.29
609.01	1693.66
609.36	1686.03
609.70	1677.90
610.05	1669.76
610.40	1661.95
610.75	1653.62
611.10	1646.09
611.44	1637.70
611.79	1629.85
612.14	1621.13
612.49	1612.01
612.83	1603.59
613.18	1595.48
613.53	1587.43
613.88	1579.02
614.22	1570.77
614.57	1562.31
614.92	1554.27
615.27	1546.75
615.61	1538.35
615.96	1530.24
616.31	1522.68
616.65	1515.30
617.00	1507.78
617.35	1500.27
617.70	1491.90
618.04	1483.27
618.39	1474.96
618.74	1467.36
619.08	1459.04
619.43	1451.48
619.78	1444.44
620.12	1437.29
620.47	1429.86
620.82	1421.73
621.16	1414.21
621.51	1406.63
621.85	1398.94
622.20	1390.47
622.55	1382.25
622.89	1374.50
623.24	1367.03
623.59	1359.63
623.93	1352.26
624.28	1344.94
624.62	1337.32
624.97	1330.13
625.32	1323.48
625.66	1316.45
626.01	1309.19
626.35	1301.71
626.70	1293.99
627.04	1286.25
627.39	1278.48
627.73	1270.99
628.08	1263.92
628.43	1256.66
628.77	1249.24
629.12	1241.65
629.46	1234.44
629.81	1226.99
630.15	1219.69
630.50	1212.26
630.84	1204.10
631.19	1196.10
631.53	1188.65
631.88	1181.13
632.22	1173.63
632.57	1166.37
632.91	1158.94
633.26	1151.54
633.60	1144.24
633.95	1137.23
634.29	1130.34
634.64	1123.61
634.98	1116.27
635.32	1109.20
635.67	1102.65
636.01	1096.05
636.36	1089.37
636.70	1082.87
637.05	1076.29
637.39	1069.96
637.73	1063.49
638.08	1057.62
638.42	1051.59
638.77	1045.17
639.11	1038.51
639.45	1032.05
639.80	1025.45
640.14	1018.97
640.49	1012.38
640.83	1005.96
641.17	999.62
641.52	993.30
641.86	986.92
642.20	981.12
642.55	974.95
642.89	968.41
643.23	961.84
643.58	956.05
643.92	949.83
644.26	943.70
644.61	937.65
644.95	931.61
645.29	924.92
645.64	918.26
645.98	911.93
646.32	906.13
646.66	900.15
647.01	894.30
647.35	888.57
647.69	882.84
648.04	877.40
648.38	871.66
648.72	865.57
649.06	859.53
649.41	853.72
649.75	847.62
650.09	841.68
650.43	835.84
650.78	829.63
651.12	823.72
651.46	818.05
651.80	812.21
652.14	806.83
652.49	801.54
652.83	796.26
653.17	790.57
653.51	784.83
653.85	779.42
654.20	773.74
654.54	767.79
654.88	762.07
655.22	756.14
655.56	750.46
655.90	745.07
656.25	739.87
656.59	734.40
656.93	729.33
657.27	724.10
657.61	718.81
657.95	713.73
658.29	708.64
658.64	703.39
658.98	698.07
659.32	692.54
659.66	687.33
660.00	682.06
660.34	677.11
660.68	672.26
661.02	667.20
661.36	662.49
661.70	657.93
662.05	653.56
662.39	649.24
662.73	644.79
663.07	640.37
663.41	635.83
663.75	631.36
664.09	626.83
664.43	622.58
664.77	618.37
665.11	614.16
665.45	610.02
665.79	605.93
666.13	601.88
666.47	597.86
666.81	593.65
667.15	589.57
667.49	585.72
667.83	581.92
668.17	577.99
668.51	573.93
668.85	569.89
669.19	566.03
669.53	562.15
669.87	558.29
670.21	554.60
670.55	550.95
670.89	547.53
671.23	544.10
671.57	540.60
671.91	537.12
672.25	533.67
672.58	530.11
672.92	526.75
673.26	523.54
673.60	520.38
673.94	517.34
674.28	514.52
674.62	511.57
674.96	508.47
675.30	505.58
675.64	502.68
675.97	500.00
676.31	497.10
676.65	494.19
676.99	491.50
677.33	488.63
677.67	485.88
678.01	482.82
678.34	479.84
678.68	476.93
679.02	474.08
679.36	471.31
679.70	468.63
680.04	465.88
680.37	462.97
680.71	460.17
681.05	457.58
681.39	454.86
681.73	452.26
682.06	449.72
682.40	447.16
682.74	444.67
683.08	442.07
683.42	439.53
683.75	437.05
684.09	434.52
684.43	432.13
684.77	429.65
685.10	427.34
685.44	425.07
685.78	422.81
686.12	420.57
686.45	418.27
686.79	416.00
687.13	413.81
687.46	411.69
687.80	409.57
688.14	407.36
688.48	405.21
688.81	402.89
689.15	400.75
689.49	398.63
689.82	396.56
690.16	394.49
690.50	392.52
690.83	390.58
691.17	388.57
691.51	386.64
691.84	384.78
692.18	382.87
692.52	380.85
692.85	378.95
693.19	377.08
693.52	375.25
693.86	373.47
694.20	371.70
694.53	369.93
694.87	368.09
695.21	366.30
695.54	364.51
695.88	362.82
696.21	361.09
696.55	359.43
696.88	357.73
697.22	356.08
697.56	354.50
697.89	352.85
698.23	351.25
698.56	349.61
698.90	348.05
699.23	346.39
699.57	344.86
699.90	343.33
700.24	341.78
700.58	340.20
700.91	338.67
701.25	337.24
701.58	335.84
701.92	334.49
702.25	333.11
702.59	331.72
702.92	330.39
703.26	329.09
703.59	327.82
703.93	326.62
704.26	325.42
704.60	324.12
704.93	322.86
705.26	321.64
705.60	320.51
705.93	319.38
706.27	318.32
706.60	317.23
706.94	316.13
707.27	315.01
707.61	314.01
707.94	313.00
708.27	311.89
708.61	310.81
708.94	309.78
709.28	308.80
709.61	307.86
709.94	306.89
710.28	305.83
710.61	304.81
710.95	303.75
711.28	302.81
711.61	301.84
711.95	300.89
712.28	299.92
712.61	298.91
712.95	297.95
713.28	297.09
713.61	296.18
713.95	295.32
714.28	294.47
714.61	293.60
714.95	292.74
715.28	291.87
715.61	291.03
715.95	290.16
716.28	289.34
716.61	288.49
716.95	287.67
717.28	286.98
717.61	286.21
717.94	285.49
718.28	284.68
718.61	283.99
718.94	283.31
719.27	282.67
719.61	282.06
719.94	281.41
720.27	280.67
720.60	280.07
720.94	279.42
721.27	278.81
721.60	278.22
721.93	277.61
722.27	277.12
722.60	276.60
722.93	276.04
723.26	275.48
723.59	274.91
723.93	274.40
724.26	273.83
724.59	273.30
724.92	272.77
725.25	272.32
725.59	271.81
725.92	271.31
726.25	270.81
726.58	270.27
726.91	269.79
727.24	269.35
727.57	268.84
727.91	268.34
728.24	267.88
728.57	267.41
728.90	267.01
729.23	266.50
729.56	266.05
729.89	265.60
730.22	265.10
730.55	264.68
730.89	264.21
731.22	263.78
731.55	263.36
731.88	262.96
732.21	262.50
732.54	262.03
732.87	261.62
733.20	261.20
733.53	260.83
733.86	260.47
734.19	260.05
734.52	259.68
734.85	259.33
735.18	258.91
735.51	258.58
735.84	258.18
736.17	257.81
736.50	257.39
736.83	257.12
737.16	256.80
737.49	256.45
737.82	256.11
738.15	255.78
738.48	255.43
738.81	255.09
739.14	254.77
739.47	254.46
739.80	254.11
740.13	253.79
740.46	253.46
740.79	253.09
741.12	252.80
741.45	252.52
741.78	252.20
742.11	251.95
742.44	251.60
742.77	251.33
743.10	251.04
743.43	250.76
743.75	250.39
744.08	250.24
744.41	249.95
744.74	249.70
745.07	249.40
745.40	249.16
745.73	248.90
746.06	248.63
746.39	248.38
746.71	248.15
747.04	247.88
747.37	247.59
747.70	247.36
748.03	247.12
748.36	246.87
748.68	246.61
749.01	246.35
749.34	246.15
749.67	245.91
750.00	245.69
750.33	245.51
750.65	245.29
750.98	244.92
751.31	244.74
751.64	244.53
751.97	244.37
752.29	244.14
752.62	243.91
752.95	243.68
753.28	243.46
753.60	243.25
753.93	243.07
754.26	242.94
754.59	242.71
754.91	242.50
755.24	242.28
755.57	242.12
755.90	241.94
756.22	241.73
756.55	241.53
756.88	241.34
757.20	241.13
757.53	240.96
757.86	240.81
758.19	240.62
758.51	240.45
758.84	240.25
759.17	240.07
759.49	239.91
759.82	239.83
760.15	239.67
760.47	239.55
760.80	239.38
761.13	239.22
761.45	239.09
761.78	238.95
762.11	238.80
762.43	238.64
762.76	238.46
763.08	238.35
763.41	238.25
763.74	238.11
764.06	237.96
764.39	237.78
764.71	237.67
765.04	237.53
765.37	237.37
765.69	237.27
766.02	237.15
766.34	237.03
766.67	236.86
767.00	236.74
767.32	236.67
767.65	236.65
767.97	236.53
768.30	236.41
768.62	236.33
768.95	236.23
769.27	236.13
769.60	236.06
769.92	235.94
770.25	235.78
770.57	235.68
770.90	235.61
771.22	235.56
771.55	235.44
771.87	235.37
772.20	235.33
772.52	235.28
772.85	235.31
773.17	235.22
773.50	235.12
773.82	235.05
774.15	234.88
774.47	234.71
774.80	234.63
775.12	234.53
775.45	234.41
775.77	234.33
776.09	234.25
776.42	234.18
776.74	234.15
777.07	234.10
777.39	234.04
777.72	233.93
778.04	233.87
778.36	233.81
778.69	233.70
779.01	233.59
779.33	233.47
779.66	233.28
779.98	233.22
780.31	233.16
780.63	233.12
780.95	233.11
781.28	233.04
781.60	232.97
781.92	232.94
782.25	232.90
782.57	232.81
782.89	232.77
783.22	232.69
783.54	232.58
783.86	232.51
784.19	232.41
784.51	232.40
784.83	232.34
785.16	232.26
785.48	232.22
785.80	232.17
786.12	232.10
786.45	232.06
786.77	232.00
787.09	231.90
787.42	231.81
787.74	231.76
788.06	231.72
788.38	231.68
788.71	231.62
789.03	231.56
789.35	231.56
789.67	231.49
789.99	231.44
790.32	231.40
790.64	231.34
790.96	231.39
791.28	231.31
791.61	231.26
791.93	231.25
792.25	231.22
792.57	231.28
792.89	231.22
793.21	231.19
793.54	231.14
793.86	231.13
794.18	231.14
794.50	231.08
794.82	231.02
795.14	230.94
795.47	230.92
795.79	230.90
796.11	230.86
796.43	230.81
796.75	230.77
797.07	230.72
797.39	230.71
797.71	230.63
798.04	230.60
798.36	230.57
798.68	230.51
799.00	230.50
799.32	230.40
799.64	230.35
799.96	230.33
800.28	230.31
800.60	230.27
800.92	230.22
801.24	230.15
801.56	230.14
801.89	230.14
802.21	230.11
802.53	230.04
802.85	230.05
803.17	230.07
803.49	230.03
803.81	230.01
804.13	229.98
804.45	229.94
804.77	229.91
805.09	229.85
805.41	229.82
805.73	229.78
806.05	229.74
806.37	229.71
806.69	229.66
807.01	229.65
807.33	229.66
807.65	229.61
807.97	229.67
808.28	229.62
808.60	229.61
808.92	229.58
809.24	229.65
809.56	229.57
809.88	229.53
810.20	229.53
810.52	229.49
810.84	229.46
811.16	229.43
811.48	229.44
811.80	229.47
812.12	229.46
812.43	229.47
812.75	229.45
813.07	229.45
813.39	229.43
813.71	229.40
814.03	229.34
814.35	229.30
814.67	229.24
814.98	229.24
815.30	229.23
815.62	229.17
815.94	229.08
816.26	229.11
816.58	229.07
816.89	229.06
817.21	229.06
817.53	229.03
817.85	229.00
818.17	228.94
818.48	228.89
818.80	228.86
819.12	228.82
819.44	228.82
819.76	228.80
820.07	228.77
820.39	228.73
820.71	228.73
821.03	228.73
821.34	228.68
821.66	228.67
821.98	228.63
822.30	228.62
822.61	228.65
822.93	228.59
823.25	228.61
823.57	228.58
823.88	228.58
824.20	228.54
824.52	228.54
824.83	228.56
825.15	228.50
825.47	228.49
825.79	228.46
826.10	228.40
826.42	228.31
826.74	228.34
827.05	228.34
827.37	228.32
827.69	228.31
828.00	228.31
828.32	228.28
828.64	228.27
828.95	228.29
829.27	228.26
829.58	228.26
829.90	228.22
830.22	228.21
830.53	228.14
830.85	228.16
831.17	228.11
831.48	228.12
831.80	228.11
832.11	228.09
832.43	228.05
832.75	228.07
833.06	228.17
833.38	228.13
833.69	228.14
834.01	228.12
834.32	228.11
834.64	228.10
834.96	228.06
835.27	228.02
835.59	227.99
835.90	227.96
836.22	227.93
836.53	227.90
836.85	227.91
837.16	228.03
837.48	228.02
837.79	228.07
838.11	228.06
838.42	228.07
838.74	228.08
839.05	228.10
839.37	228.07
839.68	228.01
840.00	227.99
840.31	227.96
840.63	227.97
840.94	227.94
841.26	227.91
841.57	227.94
841.88	228.01
842.20	228.01
842.51	227.97
842.83	227.97
843.14	228.07
843.46	228.04
843.77	227.96
844.08	227.94
844.40	227.91
844.71	227.87
845.03	227.85
845.34	227.82
845.65	227.80
845.97	227.82
846.28	227.86
846.60	227.86
846.91	227.87
847.22	227.85
847.54	227.88
847.85	227.91
848.16	227.91
848.48	227.85
848.79	227.87
849.10	227.90
849.42	227.89
849.73	227.81
850.04	227.76
850.36	227.73
850.67	227.76
850.98	227.75
851.30	227.76
851.61	227.76
851.92	227.79
852.23	227.81
852.55	227.80
852.86	227.75
853.17	227.77
853.49	227.77
853.80	227.77
854.11	227.80
854.42	227.79
854.74	227.73
855.05	227.71
855.36	227.69
855.67	227.69
855.99	227.70
856.30	227.80
856.61	227.83
856.92	227.82
857.23	227.79
857.55	227.76
857.86	227.74
858.17	227.74
858.48	227.72
858.79	227.71
859.11	227.71
859.42	227.73
859.73	227.69
860.04	227.70
860.35	227.67
860.66	227.61
860.98	227.60
861.29	227.65
861.60	227.69
861.91	227.65
862.22	227.65
862.53	227.62
862.84	227.49
863.16	227.48
863.47	227.47
863.78	227.46
864.09	227.48
864.40	227.51
864.71	227.51
865.02	227.50
865.33	227.47
865.64	227.47
865.95	227.45
866.27	227.52
866.58	227.48
866.89	227.50
867.20	227.48
867.51	227.46
867.82	227.45
868.13	227.47
868.44	227.49
868.75	227.48
869.06	227.46
869.37	227.49
869.68	227.49
869.99	227.48
870.30	227.52
870.61	227.53
870.92	227.49
871.23	227.47
871.54	227.51
871.85	227.57
872.16	227.57
872.47	227.56
872.78	227.50
873.09	227.49
873.40	227.48
873.71	227.50
874.02	227.51
874.33	227.47
874.64	227.43
874.95	227.42
875.26	227.40
875.56	227.42
875.87	227.42
876.18	227.41
876.49	227.52
876.80	227.51
877.11	227.47
877.42	227.48
877.73	227.49
878.04	227.46
878.35	227.45
878.66	227.43
878.96	227.41
879.27	227.41
879.58	227.40
879.89	227.39
880.20	227.40
880.51	227.41
880.82	227.40
881.12	227.41
881.43	227.43
881.74	227.38
882.05	227.39
882.36	227.41
882.67	227.44
882.97	227.33
883.28	227.32
883.59	227.29
883.90	227.28
884.21	227.29
884.51	227.27
884.82	227.23
885.13	227.26
885.44	227.28
885.74	227.30
886.05	227.32
886.36	227.31
886.67	227.30
886.98	227.31
887.28	227.35
887.59	227.33
887.90	227.31
888.20	227.35
888.51	227.34
888.82	227.30
889.13	227.27
889.43	227.36
889.74	227.35
890.05	227.37
890.35	227.38
890.66	227.39
890.97	227.42
891.28	227.41
891.58	227.40
891.89	227.38
892.20	227.36
892.50	227.33
892.81	227.31
893.12	227.31
893.42	227.27
893.73	227.24
894.04	227.25
894.34	227.29
894.65	227.30
894.95	227.30
895.26	227.28
895.57	227.30
895.87	227.19
896.18	227.19
896.48	227.20
896.79	227.18
897.10	227.12
897.40	227.07
897.71	227.09
898.01	227.04
898.32	227.04
898.63	227.04
898.93	227.07
899.24	227.09
899.54	227.08
899.85	227.08
900.15	227.13
900.46	227.09
900.76	227.06
901.07	227.02
901.38	227.00
901.68	227.03
901.99	227.00
902.29	227.02
902.60	227.03
902.90	227.02
903.21	227.02
903.51	227.05
903.82	227.09
904.12	227.06
904.43	227.08
904.73	227.08
905.03	227.08
905.34	227.15
905.64	227.15
905.95	227.16
906.25	227.17
906.56	227.13
906.86	227.17
907.17	227.17
907.47	227.18
907.77	227.16
908.08	227.13
908.38	227.16
908.69	227.14
908.99	227.16
909.30	227.19
909.60	227.17
909.90	227.18
910.21	227.12
910.51	227.12
910.81	227.13
911.12	227.17
911.42	227.17
911.73	227.05
912.03	227.06
912.33	227.07
912.64	227.08
912.94	227.09
913.24	227.07
913.55	227.07
913.85	227.08
914.15	227.11
914.46	227.12
914.76	227.08
915.06	227.11
915.37	227.10
915.67	227.08
915.97	227.11
916.27	227.10
916.58	227.16
916.88	227.16
917.18	227.14
917.49	227.19
917.79	227.18
918.09	227.20
918.39	227.24
918.70	227.24
919.00	227.24
919.30	227.27
919.60	227.27
919.91	227.27
920.21	227.29
920.51	227.26
920.81	227.28
921.12	227.32
921.42	227.29
921.72	227.29
922.02	227.30
922.32	227.33
922.63	227.31
922.93	227.37
923.23	227.36
923.53	227.39
923.83	227.32
924.13	227.30
924.44	227.30
924.74	227.29
925.04	227.31
925.34	227.32
925.64	227.27
925.94	227.27
926.24	227.32
926.55	227.32
926.85	227.36
927.15	227.36
927.45	227.35
927.75	227.38
928.05	227.38
928.35	227.35
928.65	227.36
928.95	227.37
929.26	227.29
929.56	227.33
929.86	227.31
930.16	227.28
930.46	227.30
930.76	227.27
931.06	227.27
931.36	227.24
931.66	227.21
931.96	227.23
932.26	227.19
932.56	227.15
932.86	227.12
933.16	227.15
933.46	227.11
933.76	227.09
934.06	227.10
934.36	227.12
934.66	227.12
934.96	227.09
935.26	227.09
935.56	227.11
935.86	227.07
936.16	227.06
936.46	227.06
936.76	227.03
937.06	227.04
937.36	227.00
937.66	227.00
937.96	227.01
938.26	226.95
938.56	226.95
938.86	226.91
939.16	226.94
939.46	226.92
939.76	226.96
940.06	226.97
940.35	226.95
940.65	226.93
940.95	226.93
941.25	226.88
941.55	226.87
941.85	226.88
942.15	226.89
942.45	226.90
942.75	226.90
943.04	226.93
943.34	226.98
943.64	226.98
943.94	226.96
944.24	226.95
944.54	226.96
944.84	226.99
945.13	227.01
945.43	226.98
945.73	226.95
946.03	226.89
946.33	226.85
946.62	226.82
946.92	226.81
947.22	226.79
947.52	226.83
947.82	226.81
948.11	226.78
948.41	226.77
948.71	226.75
949.01	226.76
949.31	226.77
949.60	226.76
949.90	226.79
950.20	226.80
950.50	226.83
950.79	226.82
951.09	226.82
951.39	226.81
951.69	226.80
951.98	226.85
952.28	226.88
952.58	226.93
952.87	226.97
953.17	226.99
953.47	227.00
953.76	226.99
954.06	227.00
954.36	226.98
954.66	227.00
954.95	227.04
955.25	227.04
955.55	227.03
955.84	227.01
956.14	227.02
956.44	227.02
956.73	226.99
957.03	227.03
957.32	227.05
957.62	227.04
957.92	227.07
958.21	227.06
958.51	227.16
958.81	227.14
959.10	227.16
959.40	227.14
959.69	227.16
959.99	227.16
960.29	227.18
960.58	227.20
960.88	227.24
961.17	227.23
961.47	227.24
961.76	227.25
962.06	227.27
962.36	227.23
962.65	227.27
962.95	227.27
963.24	227.22
963.54	227.23
963.83	227.25
964.13	227.21
964.42	227.20
964.72	227.09
965.01	227.10
965.31	227.11
965.60	227.12
965.90	227.17
966.19	227.18
966.49	227.19
966.78	227.17
967.08	227.18
967.37	227.16
967.67	227.12
967.96	227.14
968.26	227.12
968.55	227.12
968.85	227.07
969.14	227.08
969.43	227.11
969.73	227.07
970.02	227.08
970.32	227.09
970.61	227.10
970.91	227.08
971.20	227.06
971.49	227.01
971.79	227.03
972.08	226.92
972.38	226.91
972.67	226.87
972.96	226.92
973.26	226.89
973.55	226.92
973.85	226.92
974.14	226.91
974.43	226.89
974.73	226.89
975.02	226.91
975.31	226.90
975.61	226.89
975.90	226.85
976.19	226.85
976.49	226.84
976.78	226.81
977.07	226.82
977.37	226.81
977.66	226.83
977.95	226.80
978.24	226.82
978.54	226.83
978.83	226.86
979.12	226.83
979.42	226.82
979.71	226.79
980.00	226.81
980.29	226.81
980.59	226.81
980.88	226.84
981.17	226.85
981.46	226.84
981.76	226.87
982.05	226.91
982.34	226.91
982.63	226.89
982.93	226.88
983.22	226.88
983.51	226.88
983.80	226.88
984.09	226.88
984.39	226.87
984.68	226.86
984.97	226.85
985.26	226.81
985.55	226.84
985.85	226.84
986.14	226.85
986.43	226.89
986.72	226.90
987.01	226.87
987.30	226.88
987.59	226.89
987.89	226.86
988.18	226.88
988.47	226.88
988.76	226.89
989.05	226.91
989.34	226.91
989.63	226.98
989.92	226.94
990.22	226.98
990.51	227.00
990.80	227.00
991.09	227.03
991.38	227.09
991.67	227.11
991.96	227.12
992.25	227.11
992.54	227.07
992.83	227.07
993.12	227.11
993.41	227.11
993.70	227.14
993.99	227.17
994.28	227.17
994.58	227.18
994.87	227.19
995.16	227.21
995.45	227.22
995.74	227.18
996.03	227.25
996.32	227.23
996.61	227.25
996.90	227.24
997.19	227.24
997.48	227.22
997.77	227.21
998.06	227.21
998.34	227.23
998.63	227.24
998.92	227.26
999.21	227.25
999.50	227.26
999.79	227.27
1000.08	227.28
1000.37	227.26
1000.66	227.25
1000.95	227.25
1001.24	227.28
1001.53	227.30
1001.82	227.31
1002.11	227.28
1002.40	227.30
1002.68	227.31
1002.97	227.39
1003.26	227.34
1003.55	227.34
1003.84	227.32
1004.13	227.35
1004.42	227.33
1004.71	227.34
1004.99	227.30
1005.28	227.31
1005.57	227.26
1005.86	227.24
1006.15	227.22
1006.44	227.23
1006.72	227.23
1007.01	227.21
1007.30	227.15
1007.59	227.14
1007.88	227.11
1008.17	227.10
1008.45	227.06
1008.74	227.01
1009.03	226.96
1009.32	226.96
1009.60	226.93
1009.89	226.94
1010.18	226.88
1010.47	226.88
1010.76	226.84
1011.04	226.86
1011.33	226.84
1011.62	226.84
1011.91	226.81
1012.19	226.84
1012.48	226.85
1012.77	226.81
1013.05	226.86
1013.34	226.86
1013.63	226.83
1013.92	226.85
1014.20	226.85
1014.49	226.87
1014.78	226.91
1015.06	226.86
1015.35	226.87
1015.64	226.88
1015.92	226.89
1016.21	226.88
1016.50	226.89
1016.78	226.95
1017.07	226.91
1017.36	226.88
1017.64	226.88
1017.93	226.95
1018.22	226.92
1018.50	226.90
1018.79	226.92
1019.08	226.87
1019.36	226.88
1019.65	226.92
1019.93	226.94
1020.22	226.96
1020.51	227.01
1020.79	227.00
1021.08	226.85
1021.36	226.65
1021.65	226.80
1021.94	226.75
1022.22	226.78
1022.51	227.38
1022.79	227.59
1023.08	227.08
1023.36	228.35
1023.65	227.13
>>>>>End Processed Spectral Data<<<<<
