SpectraSuite Data File
++++++++++++++++++++++++++++++++++++
Date: Fri Feb 01 15:55:07 EST 2013
User: group
Dark Spectrum Present: No
Reference Spectrum Present: No
Number of Sampled Component Spectra: 1
Spectrometers: USB2E7196
Integration Time (usec): 35000 (USB2E7196)
Spectra Averaged: 100 (USB2E7196)
Boxcar Smoothing: 10 (USB2E7196)
Correct for Electrical Dark: No (USB2E7196)
Strobe/Lamp Enabled: No (USB2E7196)
Correct for Detector Non-linearity: No (USB2E7196)
Correct for Stray Light: No (USB2E7196)
Number of Pixels in Processed Spectrum: 2048
>>>>>Begin Processed Spectral Data<<<<<
339.09	0.00
339.48	214.56
339.86	216.19
340.24	217.04
340.63	219.46
341.01	221.28
341.39	221.42
341.78	223.15
342.16	224.16
342.54	224.35
342.93	213.00
343.31	223.79
343.69	224.32
344.07	224.79
344.46	225.24
344.84	225.60
345.22	225.84
345.60	226.11
345.99	226.27
346.37	226.44
346.75	226.54
347.13	226.62
347.52	226.70
347.90	226.75
348.28	226.79
348.66	226.83
349.05	226.83
349.43	226.85
349.81	226.90
350.19	226.94
350.57	226.98
350.96	227.03
351.34	227.07
351.72	227.18
352.10	227.29
352.48	227.36
352.87	227.38
353.25	227.46
353.63	227.53
354.01	227.59
354.39	227.62
354.77	227.72
355.15	227.83
355.54	227.88
355.92	227.93
356.30	227.99
356.68	228.15
357.06	228.20
357.44	228.24
357.82	228.30
358.20	228.37
358.58	228.44
358.97	228.57
359.35	228.67
359.73	228.73
360.11	228.77
360.49	228.86
360.87	228.91
361.25	228.96
361.63	229.05
362.01	229.14
362.39	229.17
362.77	229.21
363.15	229.23
363.53	229.27
363.91	229.28
364.29	229.29
364.67	229.19
365.05	229.25
365.43	229.29
365.81	229.33
366.19	229.36
366.57	229.40
366.95	229.36
367.33	229.34
367.71	229.35
368.09	229.36
368.47	229.31
368.85	229.33
369.23	229.33
369.61	229.23
369.99	229.22
370.37	229.23
370.75	229.26
371.13	229.21
371.51	229.15
371.89	229.14
372.27	229.13
372.65	229.13
373.03	229.01
373.41	228.98
373.78	228.93
374.16	228.82
374.54	228.74
374.92	228.68
375.30	228.60
375.68	228.49
376.06	228.42
376.44	228.34
376.82	228.27
377.19	228.21
377.57	228.16
377.95	228.06
378.33	227.97
378.71	227.87
379.09	227.83
379.47	227.77
379.84	227.68
380.22	227.62
380.60	227.52
380.98	227.48
381.36	227.41
381.73	227.36
382.11	227.33
382.49	227.28
382.87	227.22
383.25	227.16
383.62	227.23
384.00	227.14
384.38	227.10
384.76	227.06
385.13	227.02
385.51	226.95
385.89	226.88
386.27	226.81
386.64	226.74
387.02	226.68
387.40	226.63
387.78	226.62
388.15	226.58
388.53	226.53
388.91	226.51
389.29	226.47
389.66	226.40
390.04	226.36
390.42	226.38
390.79	226.34
391.17	226.34
391.55	226.24
391.92	226.23
392.30	226.23
392.68	226.20
393.05	226.18
393.43	226.20
393.81	226.23
394.18	226.25
394.56	226.27
394.94	226.29
395.31	226.30
395.69	226.33
396.06	226.36
396.44	226.41
396.82	226.40
397.19	226.48
397.57	226.49
397.95	226.57
398.32	226.55
398.70	226.62
399.07	226.67
399.45	226.70
399.82	226.76
400.20	226.80
400.58	226.88
400.95	226.93
401.33	227.00
401.70	227.12
402.08	227.23
402.45	227.31
402.83	227.42
403.20	227.51
403.58	227.58
403.95	227.71
404.33	227.82
404.71	227.96
405.08	228.13
405.46	228.27
405.83	228.38
406.21	228.53
406.58	228.71
406.96	228.88
407.33	229.07
407.70	229.28
408.08	229.56
408.45	229.76
408.83	230.02
409.20	230.23
409.58	230.43
409.95	230.66
410.33	230.95
410.70	231.20
411.08	231.51
411.45	231.83
411.82	232.11
412.20	232.46
412.57	232.90
412.95	233.20
413.32	233.64
413.69	234.06
414.07	234.49
414.44	234.93
414.82	235.43
415.19	236.00
415.56	236.52
415.94	237.07
416.31	237.72
416.68	238.34
417.06	239.09
417.43	239.77
417.81	240.59
418.18	241.36
418.55	242.23
418.93	243.08
419.30	243.99
419.67	244.96
420.04	245.93
420.42	246.93
420.79	248.11
421.16	249.25
421.54	250.47
421.91	251.68
422.28	252.96
422.66	254.30
423.03	255.63
423.40	257.02
423.77	258.46
424.15	259.89
424.52	261.37
424.89	262.96
425.26	264.54
425.64	265.98
426.01	267.55
426.38	269.20
426.75	270.91
427.13	272.64
427.50	274.44
427.87	276.36
428.24	278.23
428.61	279.99
428.99	281.93
429.36	284.03
429.73	286.09
430.10	288.09
430.47	290.15
430.85	292.20
431.22	294.42
431.59	296.75
431.96	298.98
432.33	301.49
432.70	303.87
433.08	306.70
433.45	309.29
433.82	311.94
434.19	314.82
434.56	317.62
434.93	320.25
435.30	322.88
435.68	325.76
436.05	328.53
436.42	331.29
436.79	333.80
437.16	336.51
437.53	339.33
437.90	342.15
438.27	344.84
438.64	347.67
439.01	350.21
439.38	352.45
439.75	354.62
440.13	357.09
440.50	359.37
440.87	361.20
441.24	363.16
441.61	365.31
441.98	366.81
442.35	368.60
442.72	370.47
443.09	372.23
443.46	373.19
443.83	373.76
444.20	374.33
444.57	375.14
444.94	375.41
445.31	375.76
445.68	376.11
446.05	376.21
446.42	375.85
446.79	375.46
447.16	375.03
447.53	374.74
447.90	373.54
448.27	372.40
448.64	370.77
449.01	369.61
449.37	367.62
449.74	365.70
450.11	363.45
450.48	360.95
450.85	358.46
451.22	356.33
451.59	354.33
451.96	352.33
452.33	349.73
452.70	347.39
453.07	344.54
453.43	341.62
453.80	338.89
454.17	336.23
454.54	333.63
454.91	330.91
455.28	328.24
455.65	325.79
456.02	323.36
456.38	321.25
456.75	318.60
457.12	316.35
457.49	314.09
457.86	311.92
458.23	310.07
458.59	308.02
458.96	305.93
459.33	304.08
459.70	302.23
460.07	300.75
460.43	299.01
460.80	297.39
461.17	295.97
461.54	294.46
461.91	293.06
462.27	291.67
462.64	290.43
463.01	289.06
463.38	287.77
463.74	286.40
464.11	285.23
464.48	284.24
464.85	283.12
465.21	282.33
465.58	281.43
465.95	280.35
466.32	279.42
466.68	278.50
467.05	277.62
467.42	276.71
467.78	275.78
468.15	274.92
468.52	274.28
468.88	273.42
469.25	272.66
469.62	272.03
469.98	271.36
470.35	270.70
470.72	270.10
471.08	269.43
471.45	268.90
471.82	268.37
472.18	267.74
472.55	267.32
472.92	266.77
473.28	266.31
473.65	265.87
474.02	265.44
474.38	265.13
474.75	264.79
475.11	264.46
475.48	264.22
475.85	263.97
476.21	263.74
476.58	263.56
476.94	263.39
477.31	263.21
477.67	263.06
478.04	263.01
478.41	262.94
478.77	262.99
479.14	262.91
479.50	262.92
479.87	263.01
480.23	263.09
480.60	263.17
480.96	263.27
481.33	263.49
481.69	263.71
482.06	263.87
482.42	264.09
482.79	264.34
483.15	264.65
483.52	265.01
483.88	265.36
484.25	265.76
484.61	266.18
484.98	266.65
485.34	267.20
485.71	267.75
486.07	268.38
486.44	268.94
486.80	269.65
487.17	270.38
487.53	271.19
487.90	272.02
488.26	272.97
488.62	273.93
488.99	274.95
489.35	275.97
489.72	277.07
490.08	278.28
490.44	279.55
490.81	280.89
491.17	282.26
491.54	283.75
491.90	285.28
492.26	286.95
492.63	288.66
492.99	290.44
493.36	292.35
493.72	294.38
494.08	296.49
494.45	298.73
494.81	301.07
495.17	303.53
495.54	306.11
495.90	308.80
496.26	311.61
496.63	314.49
496.99	317.57
497.35	320.88
497.72	324.27
498.08	327.76
498.44	331.43
498.80	335.36
499.17	339.40
499.53	343.57
499.89	347.97
500.26	352.47
500.62	357.20
500.98	362.15
501.34	367.21
501.71	372.54
502.07	377.99
502.43	383.63
502.79	389.39
503.16	395.49
503.52	401.80
503.88	408.23
504.24	414.90
504.60	421.83
504.97	428.95
505.33	436.28
505.69	443.98
506.05	451.74
506.41	459.65
506.78	467.77
507.14	476.27
507.50	485.01
507.86	494.04
508.22	503.23
508.59	512.47
508.95	522.09
509.31	531.90
509.67	542.00
510.03	552.33
510.39	562.93
510.75	573.71
511.12	584.67
511.48	595.95
511.84	607.38
512.20	618.94
512.56	630.88
512.92	643.04
513.28	655.45
513.64	667.97
514.00	680.65
514.37	693.57
514.73	706.55
515.09	719.52
515.45	732.70
515.81	746.26
516.17	760.24
516.53	774.39
516.89	788.53
517.25	802.71
517.61	817.08
517.97	831.52
518.33	845.94
518.69	860.68
519.05	875.74
519.41	890.99
519.77	906.45
520.13	921.86
520.49	937.24
520.85	952.66
521.21	968.30
521.57	984.50
521.93	1000.27
522.29	1016.74
522.65	1033.01
523.01	1049.30
523.37	1065.30
523.73	1081.41
524.09	1097.42
524.45	1113.87
524.81	1130.46
525.17	1147.25
525.53	1164.17
525.89	1181.06
526.25	1197.80
526.61	1214.18
526.97	1230.86
527.33	1247.43
527.68	1264.09
528.04	1280.59
528.40	1297.16
528.76	1314.26
529.12	1330.81
529.48	1347.67
529.84	1363.75
530.20	1380.49
530.56	1397.55
530.91	1414.89
531.27	1431.64
531.63	1448.11
531.99	1464.61
532.35	1480.56
532.71	1496.55
533.07	1512.81
533.42	1528.73
533.78	1544.74
534.14	1561.00
534.50	1576.30
534.86	1592.02
535.21	1607.17
535.57	1622.99
535.93	1638.38
536.29	1653.15
536.65	1668.24
537.00	1682.93
537.36	1698.01
537.72	1712.39
538.08	1726.63
538.44	1740.42
538.79	1754.27
539.15	1767.88
539.51	1781.53
539.87	1795.87
540.22	1809.51
540.58	1823.19
540.94	1836.41
541.29	1849.36
541.65	1861.91
542.01	1875.07
542.37	1887.36
542.72	1899.81
543.08	1911.64
543.44	1924.06
543.79	1935.33
544.15	1946.37
544.51	1958.11
544.87	1968.96
545.22	1979.67
545.58	1989.96
545.94	1999.70
546.29	2009.61
546.65	2019.51
547.01	2028.67
547.36	2037.36
547.72	2045.77
548.07	2053.60
548.43	2061.71
548.79	2069.73
549.14	2077.26
549.50	2084.68
549.86	2092.40
550.21	2099.65
550.57	2106.83
550.92	2113.30
551.28	2120.30
551.64	2127.38
551.99	2133.88
552.35	2140.18
552.70	2146.29
553.06	2152.25
553.41	2158.71
553.77	2164.64
554.13	2170.75
554.48	2176.99
554.84	2182.46
555.19	2187.79
555.55	2192.99
555.90	2197.42
556.26	2202.00
556.61	2206.84
556.97	2210.99
557.32	2215.05
557.68	2219.15
558.03	2223.42
558.39	2227.16
558.74	2231.71
559.10	2235.50
559.45	2239.11
559.81	2243.36
560.16	2247.25
560.52	2250.57
560.87	2254.04
561.23	2256.71
561.58	2259.58
561.94	2262.13
562.29	2264.50
562.64	2267.14
563.00	2269.72
563.35	2273.31
563.71	2276.73
564.06	2279.91
564.42	2282.76
564.77	2285.21
565.12	2287.36
565.48	2289.27
565.83	2291.09
566.19	2292.34
566.54	2293.38
566.89	2294.44
567.25	2295.05
567.60	2296.36
567.96	2297.96
568.31	2298.63
568.66	2299.66
569.02	2300.17
569.37	2300.38
569.72	2301.24
570.08	2301.39
570.43	2301.47
570.78	2300.91
571.14	2299.42
571.49	2298.02
571.84	2297.69
572.20	2296.68
572.55	2295.75
572.90	2294.16
573.26	2292.96
573.61	2291.22
573.96	2289.36
574.31	2286.38
574.67	2283.38
575.02	2279.89
575.37	2276.57
575.72	2272.67
576.08	2269.44
576.43	2266.21
576.78	2262.61
577.13	2259.58
577.49	2256.57
577.84	2252.90
578.19	2249.26
578.54	2245.52
578.90	2241.38
579.25	2235.87
579.60	2230.85
579.95	2225.85
580.30	2220.78
580.66	2215.51
581.01	2210.62
581.36	2205.68
581.71	2201.63
582.06	2197.20
582.42	2192.59
582.77	2187.27
583.12	2182.69
583.47	2177.90
583.82	2172.87
584.17	2167.66
584.53	2161.96
584.88	2156.17
585.23	2150.52
585.58	2144.89
585.93	2139.47
586.28	2134.69
586.63	2129.68
586.98	2124.68
587.34	2120.04
587.69	2115.24
588.04	2110.04
588.39	2104.43
588.74	2097.93
589.09	2091.64
589.44	2084.85
589.79	2078.84
590.14	2073.45
590.49	2066.88
590.84	2060.52
591.19	2054.44
591.54	2047.97
591.89	2040.60
592.25	2033.78
592.60	2026.51
592.95	2018.97
593.30	2011.57
593.65	2003.83
594.00	1996.70
594.35	1989.51
594.70	1981.50
595.05	1974.16
595.40	1966.75
595.75	1959.25
596.10	1952.90
596.45	1946.23
596.80	1940.12
597.15	1933.56
597.50	1926.17
597.85	1919.92
598.19	1913.26
598.54	1906.10
598.89	1899.40
599.24	1893.52
599.59	1886.80
599.94	1880.62
600.29	1874.37
600.64	1867.80
600.99	1860.42
601.34	1853.63
601.69	1846.61
602.04	1839.63
602.39	1832.36
602.74	1825.55
603.08	1818.79
603.43	1812.27
603.78	1804.97
604.13	1797.79
604.48	1790.39
604.83	1783.72
605.18	1776.76
605.53	1768.68
605.87	1760.62
606.22	1753.44
606.57	1745.61
606.92	1738.47
607.27	1731.34
607.62	1724.35
607.96	1717.11
608.31	1710.53
608.66	1702.87
609.01	1695.28
609.36	1687.68
609.70	1679.58
610.05	1671.62
610.40	1663.93
610.75	1655.60
611.10	1647.98
611.44	1639.46
611.79	1631.61
612.14	1622.73
612.49	1613.47
612.83	1605.20
613.18	1597.26
613.53	1589.13
613.88	1580.51
614.22	1572.19
614.57	1563.57
614.92	1555.55
615.27	1547.98
615.61	1539.56
615.96	1531.55
616.31	1524.08
616.65	1516.80
617.00	1509.33
617.35	1501.61
617.70	1493.34
618.04	1484.75
618.39	1476.46
618.74	1468.90
619.08	1460.51
619.43	1453.11
619.78	1446.32
620.12	1439.12
620.47	1431.61
620.82	1423.49
621.16	1416.11
621.51	1408.54
621.85	1401.03
622.20	1392.55
622.55	1384.23
622.89	1376.49
623.24	1368.81
623.59	1361.24
623.93	1353.68
624.28	1346.42
624.62	1338.89
624.97	1331.66
625.32	1324.96
625.66	1318.00
626.01	1310.80
626.35	1303.38
626.70	1295.55
627.04	1287.73
627.39	1279.98
627.73	1272.55
628.08	1265.59
628.43	1258.29
628.77	1250.88
629.12	1243.21
629.46	1235.91
629.81	1228.48
630.15	1221.18
630.50	1213.90
630.84	1205.78
631.19	1197.94
631.53	1190.48
631.88	1182.96
632.22	1175.36
632.57	1167.99
632.91	1160.29
633.26	1152.92
633.60	1145.46
633.95	1138.42
634.29	1131.41
634.64	1124.69
634.98	1117.33
635.32	1110.16
635.67	1103.57
636.01	1096.96
636.36	1090.11
636.70	1083.61
637.05	1076.92
637.39	1070.46
637.73	1063.98
638.08	1058.04
638.42	1051.93
638.77	1045.45
639.11	1038.80
639.45	1032.54
639.80	1025.89
640.14	1019.60
640.49	1013.06
640.83	1006.80
641.17	1000.51
641.52	994.09
641.86	987.69
642.20	981.82
642.55	975.56
642.89	969.02
643.23	962.40
643.58	956.63
643.92	950.44
644.26	944.46
644.61	938.46
644.95	932.32
645.29	925.70
645.64	918.98
645.98	912.71
646.32	906.94
646.66	900.78
647.01	895.06
647.35	889.31
647.69	883.45
648.04	877.95
648.38	872.18
648.72	866.23
649.06	860.25
649.41	854.39
649.75	848.44
650.09	842.52
650.43	836.82
650.78	830.65
651.12	824.70
651.46	818.99
651.80	813.22
652.14	807.87
652.49	802.56
652.83	797.44
653.17	791.75
653.51	785.98
653.85	780.50
654.20	774.81
654.54	768.81
654.88	763.06
655.22	757.16
655.56	751.53
655.90	746.08
656.25	740.71
656.59	735.27
656.93	730.15
657.27	724.98
657.61	719.49
657.95	714.49
658.29	709.41
658.64	704.15
658.98	698.82
659.32	693.37
659.66	688.12
660.00	682.70
660.34	677.69
660.68	672.74
661.02	667.81
661.36	663.02
661.70	658.48
662.05	654.14
662.39	649.78
662.73	645.23
663.07	640.90
663.41	636.53
663.75	632.12
664.09	627.53
664.43	623.18
664.77	619.10
665.11	614.84
665.45	610.75
665.79	606.66
666.13	602.55
666.47	598.46
666.81	594.32
667.15	590.27
667.49	586.41
667.83	582.66
668.17	578.71
668.51	574.69
668.85	570.70
669.19	566.81
669.53	562.99
669.87	559.13
670.21	555.38
670.55	551.71
670.89	548.24
671.23	544.83
671.57	541.27
671.91	537.66
672.25	534.11
672.58	530.60
672.92	527.18
673.26	524.03
673.60	520.87
673.94	517.72
674.28	514.74
674.62	511.76
674.96	508.62
675.30	505.70
675.64	502.75
675.97	499.99
676.31	497.17
676.65	494.24
676.99	491.52
677.33	488.60
677.67	485.74
678.01	482.73
678.34	479.67
678.68	476.81
679.02	474.01
679.36	471.25
679.70	468.51
680.04	465.77
680.37	462.85
680.71	460.04
681.05	457.44
681.39	454.78
681.73	452.09
682.06	449.54
682.40	446.97
682.74	444.43
683.08	441.87
683.42	439.22
683.75	436.71
684.09	434.23
684.43	431.80
684.77	429.40
685.10	427.01
685.44	424.80
685.78	422.52
686.12	420.30
686.45	418.02
686.79	415.79
687.13	413.52
687.46	411.43
687.80	409.30
688.14	407.08
688.48	405.01
688.81	402.79
689.15	400.65
689.49	398.54
689.82	396.50
690.16	394.44
690.50	392.56
690.83	390.63
691.17	388.62
691.51	386.77
691.84	384.89
692.18	382.99
692.52	380.96
692.85	379.03
693.19	377.15
693.52	375.32
693.86	373.44
694.20	371.71
694.53	369.89
694.87	368.08
695.21	366.32
695.54	364.51
695.88	362.82
696.21	361.14
696.55	359.45
696.88	357.78
697.22	356.11
697.56	354.46
697.89	352.79
698.23	351.15
698.56	349.52
698.90	347.99
699.23	346.32
699.57	344.81
699.90	343.25
700.24	341.74
700.58	340.21
700.91	338.78
701.25	337.32
701.58	335.98
701.92	334.57
702.25	333.14
702.59	331.77
702.92	330.44
703.26	329.12
703.59	327.84
703.93	326.65
704.26	325.41
704.60	324.10
704.93	322.83
705.26	321.60
705.60	320.46
705.93	319.27
706.27	318.25
706.60	317.18
706.94	316.11
707.27	314.92
707.61	313.86
707.94	312.79
708.27	311.69
708.61	310.55
708.94	309.59
709.28	308.67
709.61	307.72
709.94	306.78
710.28	305.78
710.61	304.79
710.95	303.72
711.28	302.80
711.61	301.85
711.95	300.92
712.28	299.97
712.61	298.96
712.95	298.00
713.28	297.12
713.61	296.21
713.95	295.33
714.28	294.54
714.61	293.65
714.95	292.81
715.28	291.96
715.61	291.09
715.95	290.24
716.28	289.37
716.61	288.50
716.95	287.67
717.28	286.95
717.61	286.16
717.94	285.43
718.28	284.61
718.61	283.90
718.94	283.23
719.27	282.58
719.61	281.93
719.94	281.27
720.27	280.58
720.60	279.91
720.94	279.29
721.27	278.65
721.60	278.10
721.93	277.47
722.27	276.92
722.60	276.39
722.93	275.78
723.26	275.23
723.59	274.69
723.93	274.11
724.26	273.51
724.59	272.97
724.92	272.45
725.25	271.98
725.59	271.44
725.92	270.94
726.25	270.43
726.58	269.93
726.91	269.42
727.24	268.92
727.57	268.46
727.91	267.94
728.24	267.48
728.57	266.95
728.90	266.53
729.23	266.04
729.56	265.61
729.89	265.19
730.22	264.71
730.55	264.28
730.89	263.87
731.22	263.45
731.55	263.02
731.88	262.59
732.21	262.14
732.54	261.72
732.87	261.32
733.20	260.92
733.53	260.58
733.86	260.25
734.19	259.85
734.52	259.45
734.85	259.16
735.18	258.76
735.51	258.41
735.84	258.04
736.17	257.71
736.50	257.33
736.83	257.11
737.16	256.78
737.49	256.43
737.82	256.11
738.15	255.79
738.48	255.46
738.81	255.13
739.14	254.83
739.47	254.52
739.80	254.17
740.13	253.88
740.46	253.56
740.79	253.22
741.12	252.92
741.45	252.62
741.78	252.29
742.11	252.03
742.44	251.75
742.77	251.46
743.10	251.15
743.43	250.86
743.75	250.44
744.08	250.31
744.41	250.06
744.74	249.78
745.07	249.49
745.40	249.24
745.73	249.00
746.06	248.71
746.39	248.44
746.71	248.19
747.04	247.88
747.37	247.60
747.70	247.34
748.03	247.12
748.36	246.90
748.68	246.63
749.01	246.31
749.34	246.07
749.67	245.84
750.00	245.60
750.33	245.44
750.65	245.25
750.98	244.89
751.31	244.65
751.64	244.43
751.97	244.27
752.29	244.05
752.62	243.78
752.95	243.61
753.28	243.42
753.60	243.21
753.93	243.04
754.26	242.83
754.59	242.64
754.91	242.38
755.24	242.16
755.57	241.98
755.90	241.82
756.22	241.62
756.55	241.43
756.88	241.23
757.20	240.97
757.53	240.76
757.86	240.57
758.19	240.42
758.51	240.25
758.84	240.04
759.17	239.87
759.49	239.70
759.82	239.54
760.15	239.39
760.47	239.22
760.80	239.05
761.13	238.92
761.45	238.73
761.78	238.57
762.11	238.47
762.43	238.30
762.76	238.16
763.08	238.02
763.41	237.86
763.74	237.72
764.06	237.59
764.39	237.45
764.71	237.33
765.04	237.18
765.37	237.01
765.69	236.84
766.02	236.71
766.34	236.59
766.67	236.41
767.00	236.32
767.32	236.28
767.65	236.21
767.97	236.07
768.30	235.96
768.62	235.90
768.95	235.78
769.27	235.66
769.60	235.58
769.92	235.45
770.25	235.34
770.57	235.24
770.90	235.12
771.22	235.02
771.55	234.91
771.87	234.84
772.20	234.79
772.52	234.81
772.85	234.83
773.17	234.74
773.50	234.67
773.82	234.58
774.15	234.42
774.47	234.27
774.80	234.24
775.12	234.19
775.45	234.08
775.77	234.01
776.09	233.97
776.42	233.90
776.74	233.88
777.07	233.81
777.39	233.75
777.72	233.68
778.04	233.62
778.36	233.58
778.69	233.48
779.01	233.39
779.33	233.24
779.66	233.03
779.98	232.97
780.31	232.90
780.63	232.83
780.95	232.81
781.28	232.76
781.60	232.66
781.92	232.58
782.25	232.53
782.57	232.48
782.89	232.40
783.22	232.30
783.54	232.25
783.86	232.22
784.19	232.18
784.51	232.16
784.83	232.10
785.16	232.05
785.48	232.03
785.80	232.00
786.12	232.00
786.45	232.00
786.77	231.99
787.09	231.98
787.42	231.89
787.74	231.81
788.06	231.75
788.38	231.70
788.71	231.64
789.03	231.61
789.35	231.54
789.67	231.49
789.99	231.46
790.32	231.40
790.64	231.36
790.96	231.37
791.28	231.31
791.61	231.25
791.93	231.21
792.25	231.15
792.57	231.18
792.89	231.08
793.21	231.08
793.54	231.00
793.86	230.90
794.18	230.87
794.50	230.83
794.82	230.80
795.14	230.76
795.47	230.73
795.79	230.68
796.11	230.65
796.43	230.59
796.75	230.55
797.07	230.47
797.39	230.42
797.71	230.30
798.04	230.28
798.36	230.27
798.68	230.22
799.00	230.19
799.32	230.09
799.64	230.07
799.96	230.01
800.28	229.97
800.60	229.94
800.92	229.93
801.24	229.86
801.56	229.85
801.89	229.80
802.21	229.78
802.53	229.71
802.85	229.69
803.17	229.72
803.49	229.66
803.81	229.66
804.13	229.63
804.45	229.61
804.77	229.52
805.09	229.48
805.41	229.41
805.73	229.39
806.05	229.34
806.37	229.30
806.69	229.24
807.01	229.23
807.33	229.20
807.65	229.13
807.97	229.17
808.28	229.13
808.60	229.12
808.92	229.06
809.24	229.10
809.56	229.04
809.88	228.96
810.20	228.94
810.52	228.89
810.84	228.84
811.16	228.81
811.48	228.81
811.80	228.83
812.12	228.82
812.43	228.78
812.75	228.77
813.07	228.73
813.39	228.71
813.71	228.69
814.03	228.69
814.35	228.72
814.67	228.67
814.98	228.65
815.30	228.62
815.62	228.64
815.94	228.57
816.26	228.63
816.58	228.61
816.89	228.63
817.21	228.62
817.53	228.64
817.85	228.62
818.17	228.62
818.48	228.57
818.80	228.58
819.12	228.56
819.44	228.51
819.76	228.50
820.07	228.50
820.39	228.47
820.71	228.44
821.03	228.38
821.34	228.35
821.66	228.32
821.98	228.33
822.30	228.30
822.61	228.32
822.93	228.26
823.25	228.26
823.57	228.24
823.88	228.27
824.20	228.23
824.52	228.21
824.83	228.16
825.15	228.14
825.47	228.15
825.79	228.15
826.10	228.18
826.42	228.17
826.74	228.17
827.05	228.19
827.37	228.20
827.69	228.22
828.00	228.19
828.32	228.21
828.64	228.18
828.95	228.20
829.27	228.18
829.58	228.15
829.90	228.17
830.22	228.15
830.53	228.08
830.85	228.08
831.17	228.09
831.48	228.13
831.80	228.14
832.11	228.13
832.43	228.09
832.75	228.07
833.06	228.16
833.38	228.11
833.69	228.06
834.01	228.05
834.32	228.00
834.64	227.97
834.96	227.95
835.27	227.95
835.59	227.92
835.90	227.88
836.22	227.86
836.53	227.85
836.85	227.83
837.16	227.93
837.48	227.90
837.79	227.88
838.11	227.85
838.42	227.81
838.74	227.78
839.05	227.77
839.37	227.76
839.68	227.64
840.00	227.65
840.31	227.69
840.63	227.68
840.94	227.68
841.26	227.70
841.57	227.69
841.88	227.69
842.20	227.66
842.51	227.66
842.83	227.66
843.14	227.74
843.46	227.72
843.77	227.65
844.08	227.66
844.40	227.64
844.71	227.63
845.03	227.61
845.34	227.61
845.65	227.58
845.97	227.58
846.28	227.58
846.60	227.57
846.91	227.52
847.22	227.56
847.54	227.58
847.85	227.58
848.16	227.57
848.48	227.56
848.79	227.59
849.10	227.60
849.42	227.58
849.73	227.48
850.04	227.49
850.36	227.43
850.67	227.41
850.98	227.41
851.30	227.42
851.61	227.40
851.92	227.38
852.23	227.41
852.55	227.36
852.86	227.35
853.17	227.33
853.49	227.34
853.80	227.29
854.11	227.28
854.42	227.27
854.74	227.26
855.05	227.23
855.36	227.17
855.67	227.15
855.99	227.14
856.30	227.21
856.61	227.22
856.92	227.25
857.23	227.25
857.55	227.24
857.86	227.23
858.17	227.26
858.48	227.25
858.79	227.22
859.11	227.23
859.42	227.22
859.73	227.19
860.04	227.20
860.35	227.20
860.66	227.18
860.98	227.18
861.29	227.20
861.60	227.22
861.91	227.27
862.22	227.27
862.53	227.26
862.84	227.15
863.16	227.18
863.47	227.14
863.78	227.14
864.09	227.17
864.40	227.17
864.71	227.17
865.02	227.20
865.33	227.21
865.64	227.23
865.95	227.25
866.27	227.36
866.58	227.35
866.89	227.34
867.20	227.33
867.51	227.30
867.82	227.30
868.13	227.29
868.44	227.29
868.75	227.29
869.06	227.29
869.37	227.34
869.68	227.32
869.99	227.36
870.30	227.38
870.61	227.37
870.92	227.36
871.23	227.33
871.54	227.30
871.85	227.34
872.16	227.34
872.47	227.35
872.78	227.24
873.09	227.24
873.40	227.23
873.71	227.24
874.02	227.25
874.33	227.24
874.64	227.22
874.95	227.22
875.26	227.20
875.56	227.21
875.87	227.16
876.18	227.15
876.49	227.21
876.80	227.21
877.11	227.18
877.42	227.18
877.73	227.21
878.04	227.24
878.35	227.19
878.66	227.20
878.96	227.17
879.27	227.15
879.58	227.17
879.89	227.14
880.20	227.16
880.51	227.14
880.82	227.15
881.12	227.18
881.43	227.15
881.74	227.11
882.05	227.10
882.36	227.12
882.67	227.12
882.97	227.02
883.28	227.01
883.59	227.03
883.90	227.04
884.21	227.03
884.51	227.02
884.82	227.03
885.13	227.00
885.44	227.00
885.74	227.02
886.05	226.99
886.36	227.01
886.67	226.97
886.98	227.04
887.28	227.02
887.59	226.96
887.90	226.95
888.20	226.95
888.51	226.98
888.82	226.98
889.13	226.96
889.43	227.04
889.74	227.02
890.05	227.03
890.35	226.98
890.66	226.97
890.97	226.96
891.28	226.95
891.58	226.96
891.89	227.00
892.20	227.02
892.50	227.04
892.81	227.04
893.12	227.06
893.42	227.01
893.73	227.03
894.04	227.08
894.34	227.13
894.65	227.14
894.95	227.13
895.26	227.13
895.57	227.20
895.87	227.09
896.18	227.08
896.48	227.09
896.79	227.12
897.10	227.13
897.40	227.14
897.71	227.16
898.01	227.13
898.32	227.13
898.63	227.12
898.93	227.10
899.24	227.12
899.54	227.11
899.85	227.10
900.15	227.11
900.46	227.13
900.76	227.13
901.07	227.15
901.38	227.14
901.68	227.15
901.99	227.10
902.29	227.11
902.60	227.11
902.90	227.09
903.21	227.07
903.51	227.09
903.82	227.08
904.12	227.07
904.43	227.10
904.73	227.07
905.03	227.06
905.34	227.17
905.64	227.15
905.95	227.17
906.25	227.17
906.56	227.20
906.86	227.18
907.17	227.18
907.47	227.17
907.77	227.19
908.08	227.17
908.38	227.18
908.69	227.20
908.99	227.21
909.30	227.23
909.60	227.22
909.90	227.19
910.21	227.20
910.51	227.18
910.81	227.16
911.12	227.18
911.42	227.19
911.73	227.11
912.03	227.09
912.33	227.09
912.64	227.05
912.94	226.99
913.24	226.97
913.55	226.94
913.85	226.90
914.15	226.89
914.46	226.87
914.76	226.84
915.06	226.81
915.37	226.77
915.67	226.73
915.97	226.74
916.27	226.72
916.58	226.69
916.88	226.67
917.18	226.68
917.49	226.73
917.79	226.71
918.09	226.68
918.39	226.72
918.70	226.70
919.00	226.73
919.30	226.77
919.60	226.77
919.91	226.75
920.21	226.77
920.51	226.73
920.81	226.73
921.12	226.75
921.42	226.76
921.72	226.78
922.02	226.79
922.32	226.80
922.63	226.80
922.93	226.85
923.23	226.85
923.53	226.85
923.83	226.79
924.13	226.76
924.44	226.73
924.74	226.75
925.04	226.76
925.34	226.74
925.64	226.73
925.94	226.70
926.24	226.73
926.55	226.71
926.85	226.74
927.15	226.75
927.45	226.75
927.75	226.75
928.05	226.72
928.35	226.74
928.65	226.75
928.95	226.76
929.26	226.75
929.56	226.77
929.86	226.74
930.16	226.71
930.46	226.74
930.76	226.78
931.06	226.74
931.36	226.73
931.66	226.75
931.96	226.69
932.26	226.70
932.56	226.67
932.86	226.69
933.16	226.69
933.46	226.72
933.76	226.71
934.06	226.72
934.36	226.80
934.66	226.76
934.96	226.75
935.26	226.78
935.56	226.80
935.86	226.79
936.16	226.82
936.46	226.82
936.76	226.84
937.06	226.85
937.36	226.85
937.66	226.88
937.96	226.89
938.26	226.92
938.56	226.95
938.86	226.97
939.16	227.02
939.46	227.04
939.76	227.03
940.06	227.03
940.35	227.05
940.65	227.00
940.95	227.02
941.25	226.98
941.55	226.97
941.85	226.94
942.15	226.98
942.45	227.01
942.75	227.01
943.04	227.01
943.34	227.00
943.64	227.00
943.94	226.95
944.24	226.94
944.54	226.93
944.84	226.94
945.13	226.93
945.43	226.91
945.73	226.90
946.03	226.89
946.33	226.88
946.62	226.87
946.92	226.88
947.22	226.92
947.52	226.93
947.82	226.93
948.11	226.94
948.41	226.91
948.71	226.85
949.01	226.88
949.31	226.86
949.60	226.89
949.90	226.89
950.20	226.90
950.50	226.89
950.79	226.89
951.09	226.87
951.39	226.88
951.69	226.84
951.98	226.83
952.28	226.78
952.58	226.76
952.87	226.77
953.17	226.79
953.47	226.76
953.76	226.76
954.06	226.74
954.36	226.73
954.66	226.74
954.95	226.75
955.25	226.72
955.55	226.72
955.84	226.68
956.14	226.66
956.44	226.67
956.73	226.67
957.03	226.67
957.32	226.69
957.62	226.69
957.92	226.73
958.21	226.73
958.51	226.88
958.81	226.90
959.10	226.89
959.40	226.90
959.69	226.92
959.99	226.93
960.29	226.90
960.58	226.90
960.88	226.89
961.17	226.91
961.47	226.92
961.76	226.90
962.06	226.92
962.36	226.92
962.65	226.91
962.95	226.89
963.24	226.88
963.54	226.85
963.83	226.84
964.13	226.83
964.42	226.79
964.72	226.73
965.01	226.76
965.31	226.75
965.60	226.73
965.90	226.76
966.19	226.74
966.49	226.78
966.78	226.75
967.08	226.76
967.37	226.76
967.67	226.77
967.96	226.80
968.26	226.80
968.55	226.82
968.85	226.83
969.14	226.81
969.43	226.81
969.73	226.81
970.02	226.80
970.32	226.80
970.61	226.81
970.91	226.78
971.20	226.72
971.49	226.73
971.79	226.74
972.08	226.67
972.38	226.68
972.67	226.66
972.96	226.69
973.26	226.68
973.55	226.72
973.85	226.68
974.14	226.65
974.43	226.67
974.73	226.64
975.02	226.62
975.31	226.64
975.61	226.65
975.90	226.65
976.19	226.63
976.49	226.60
976.78	226.60
977.07	226.60
977.37	226.61
977.66	226.59
977.95	226.56
978.24	226.59
978.54	226.61
978.83	226.66
979.12	226.66
979.42	226.64
979.71	226.62
980.00	226.67
980.29	226.70
980.59	226.67
980.88	226.70
981.17	226.69
981.46	226.68
981.76	226.65
982.05	226.70
982.34	226.70
982.63	226.73
982.93	226.75
983.22	226.78
983.51	226.83
983.80	226.85
984.09	226.88
984.39	226.83
984.68	226.81
984.97	226.81
985.26	226.80
985.55	226.79
985.85	226.75
986.14	226.75
986.43	226.78
986.72	226.77
987.01	226.77
987.30	226.81
987.59	226.85
987.89	226.90
988.18	226.84
988.47	226.80
988.76	226.78
989.05	226.77
989.34	226.76
989.63	226.79
989.92	226.79
990.22	226.75
990.51	226.75
990.80	226.75
991.09	226.74
991.38	226.75
991.67	226.77
991.96	226.78
992.25	226.76
992.54	226.72
992.83	226.71
993.12	226.73
993.41	226.71
993.70	226.74
993.99	226.73
994.28	226.76
994.58	226.81
994.87	226.82
995.16	226.82
995.45	226.81
995.74	226.73
996.03	226.72
996.32	226.77
996.61	226.81
996.90	226.80
997.19	226.77
997.48	226.79
997.77	226.79
998.06	226.78
998.34	226.77
998.63	226.77
998.92	226.77
999.21	226.77
999.50	226.79
999.79	226.73
1000.08	226.74
1000.37	226.74
1000.66	226.71
1000.95	226.73
1001.24	226.74
1001.53	226.76
1001.82	226.78
1002.11	226.77
1002.40	226.77
1002.68	226.79
1002.97	226.87
1003.26	226.86
1003.55	226.87
1003.84	226.87
1004.13	226.90
1004.42	226.86
1004.71	226.89
1004.99	226.90
1005.28	226.89
1005.57	226.92
1005.86	226.90
1006.15	226.89
1006.44	226.91
1006.72	226.92
1007.01	226.92
1007.30	226.92
1007.59	226.91
1007.88	226.90
1008.17	226.91
1008.45	226.87
1008.74	226.85
1009.03	226.79
1009.32	226.82
1009.60	226.80
1009.89	226.80
1010.18	226.78
1010.47	226.82
1010.76	226.82
1011.04	226.80
1011.33	226.80
1011.62	226.78
1011.91	226.79
1012.19	226.78
1012.48	226.74
1012.77	226.77
1013.05	226.82
1013.34	226.79
1013.63	226.79
1013.92	226.82
1014.20	226.80
1014.49	226.83
1014.78	226.85
1015.06	226.85
1015.35	226.84
1015.64	226.82
1015.92	226.84
1016.21	226.84
1016.50	226.83
1016.78	226.82
1017.07	226.82
1017.36	226.78
1017.64	226.78
1017.93	226.83
1018.22	226.82
1018.50	226.83
1018.79	226.80
1019.08	226.73
1019.36	226.77
1019.65	226.73
1019.93	226.73
1020.22	226.74
1020.51	226.78
1020.79	226.73
1021.08	226.80
1021.36	226.16
1021.65	226.79
1021.94	226.42
1022.22	226.84
1022.51	226.35
1022.79	227.10
1023.08	226.64
1023.36	227.85
1023.65	226.25
>>>>>End Processed Spectral Data<<<<<
