SpectraSuite Data File
++++++++++++++++++++++++++++++++++++
Date: Fri Feb 01 14:52:58 EST 2013
User: group
Dark Spectrum Present: No
Reference Spectrum Present: No
Number of Sampled Component Spectra: 1
Spectrometers: USB2E7196
Integration Time (usec): 35000 (USB2E7196)
Spectra Averaged: 100 (USB2E7196)
Boxcar Smoothing: 10 (USB2E7196)
Correct for Electrical Dark: No (USB2E7196)
Strobe/Lamp Enabled: No (USB2E7196)
Correct for Detector Non-linearity: No (USB2E7196)
Correct for Stray Light: No (USB2E7196)
Number of Pixels in Processed Spectrum: 2048
>>>>>Begin Processed Spectral Data<<<<<
339.09	0.00
339.48	215.63
339.86	217.44
340.24	219.03
340.63	219.99
341.01	222.78
341.39	222.65
341.78	223.92
342.16	224.32
342.54	225.35
342.93	213.78
343.31	224.59
343.69	225.15
344.07	225.57
344.46	225.96
344.84	226.32
345.22	226.53
345.60	226.76
345.99	226.96
346.37	227.11
346.75	227.20
347.13	227.28
347.52	227.38
347.90	227.47
348.28	227.50
348.66	227.52
349.05	227.53
349.43	227.57
349.81	227.60
350.19	227.66
350.57	227.72
350.96	227.79
351.34	227.89
351.72	227.94
352.10	228.08
352.48	228.14
352.87	228.17
353.25	228.28
353.63	228.33
354.01	228.38
354.39	228.45
354.77	228.53
355.15	228.59
355.54	228.63
355.92	228.67
356.30	228.73
356.68	228.85
357.06	228.93
357.44	228.98
357.82	229.04
358.20	229.12
358.58	229.17
358.97	229.25
359.35	229.27
359.73	229.35
360.11	229.35
360.49	229.41
360.87	229.46
361.25	229.50
361.63	229.59
362.01	229.65
362.39	229.67
362.77	229.71
363.15	229.76
363.53	229.79
363.91	229.84
364.29	229.89
364.67	229.79
365.05	229.80
365.43	229.81
365.81	229.85
366.19	229.88
366.57	229.91
366.95	229.89
367.33	229.90
367.71	229.89
368.09	229.89
368.47	229.89
368.85	229.88
369.23	229.86
369.61	229.80
369.99	229.77
370.37	229.78
370.75	229.81
371.13	229.76
371.51	229.67
371.89	229.60
372.27	229.58
372.65	229.55
373.03	229.52
373.41	229.47
373.78	229.39
374.16	229.30
374.54	229.23
374.92	229.16
375.30	229.10
375.68	228.99
376.06	228.93
376.44	228.85
376.82	228.80
377.19	228.73
377.57	228.66
377.95	228.59
378.33	228.46
378.71	228.30
379.09	228.22
379.47	228.21
379.84	228.13
380.22	228.01
380.60	227.93
380.98	227.80
381.36	227.71
381.73	227.63
382.11	227.58
382.49	227.47
382.87	227.37
383.25	227.29
383.62	227.37
384.00	227.28
384.38	227.19
384.76	227.12
385.13	227.10
385.51	227.06
385.89	226.96
386.27	226.92
386.64	226.88
387.02	226.85
387.40	226.78
387.78	226.73
388.15	226.71
388.53	226.66
388.91	226.65
389.29	226.64
389.66	226.65
390.04	226.61
390.42	226.62
390.79	226.63
391.17	226.60
391.55	226.45
391.92	226.46
392.30	226.45
392.68	226.42
393.05	226.42
393.43	226.40
393.81	226.43
394.18	226.45
394.56	226.48
394.94	226.46
395.31	226.49
395.69	226.57
396.06	226.60
396.44	226.65
396.82	226.67
397.19	226.74
397.57	226.76
397.95	226.80
398.32	226.82
398.70	226.88
399.07	226.99
399.45	227.09
399.82	227.17
400.20	227.27
400.58	227.35
400.95	227.38
401.33	227.47
401.70	227.63
402.08	227.74
402.45	227.84
402.83	228.01
403.20	228.16
403.58	228.26
403.95	228.39
404.33	228.57
404.71	228.75
405.08	228.96
405.46	229.12
405.83	229.29
406.21	229.48
406.58	229.70
406.96	229.86
407.33	230.06
407.70	230.27
408.08	230.56
408.45	230.81
408.83	231.07
409.20	231.32
409.58	231.57
409.95	231.85
410.33	232.11
410.70	232.38
411.08	232.67
411.45	233.01
411.82	233.33
412.20	233.67
412.57	234.05
412.95	234.36
413.32	234.79
413.69	235.19
414.07	235.64
414.44	236.11
414.82	236.61
415.19	237.13
415.56	237.69
415.94	238.27
416.31	238.92
416.68	239.56
417.06	240.30
417.43	240.96
417.81	241.75
418.18	242.54
418.55	243.41
418.93	244.25
419.30	245.16
419.67	246.09
420.04	247.01
420.42	248.01
420.79	249.17
421.16	250.32
421.54	251.52
421.91	252.73
422.28	254.00
422.66	255.35
423.03	256.65
423.40	258.00
423.77	259.38
424.15	260.79
424.52	262.25
424.89	263.82
425.26	265.35
425.64	266.79
426.01	268.38
426.38	270.00
426.75	271.70
427.13	273.42
427.50	275.25
427.87	277.18
428.24	279.02
428.61	280.73
428.99	282.67
429.36	284.79
429.73	286.86
430.10	288.86
430.47	290.93
430.85	293.03
431.22	295.23
431.59	297.60
431.96	299.86
432.33	302.34
432.70	304.70
433.08	307.53
433.45	310.14
433.82	312.79
434.19	315.69
434.56	318.48
434.93	321.09
435.30	323.69
435.68	326.53
436.05	329.39
436.42	332.21
436.79	334.72
437.16	337.38
437.53	340.19
437.90	342.99
438.27	345.66
438.64	348.49
439.01	351.05
439.38	353.29
439.75	355.40
440.13	357.91
440.50	360.24
440.87	362.05
441.24	363.97
441.61	366.11
441.98	367.59
442.35	369.38
442.72	371.24
443.09	373.06
443.46	374.06
443.83	374.67
444.20	375.15
444.57	375.98
444.94	376.27
445.31	376.59
445.68	376.93
446.05	377.01
446.42	376.64
446.79	376.21
447.16	375.75
447.53	375.44
447.90	374.25
448.27	373.07
448.64	371.52
449.01	370.39
449.37	368.37
449.74	366.46
450.11	364.23
450.48	361.75
450.85	359.22
451.22	357.06
451.59	355.05
451.96	353.12
452.33	350.56
452.70	348.17
453.07	345.36
453.43	342.47
453.80	339.72
454.17	337.07
454.54	334.55
454.91	331.82
455.28	329.16
455.65	326.74
456.02	324.35
456.38	322.17
456.75	319.54
457.12	317.33
457.49	315.08
457.86	312.94
458.23	311.11
458.59	309.07
458.96	307.02
459.33	305.15
459.70	303.33
460.07	301.83
460.43	300.13
460.80	298.50
461.17	297.05
461.54	295.59
461.91	294.16
462.27	292.76
462.64	291.52
463.01	290.19
463.38	288.86
463.74	287.44
464.11	286.29
464.48	285.30
464.85	284.18
465.21	283.32
465.58	282.37
465.95	281.27
466.32	280.38
466.68	279.49
467.05	278.56
467.42	277.62
467.78	276.63
468.15	275.75
468.52	275.10
468.88	274.23
469.25	273.42
469.62	272.78
469.98	272.08
470.35	271.43
470.72	270.78
471.08	270.15
471.45	269.62
471.82	269.08
472.18	268.44
472.55	267.99
472.92	267.43
473.28	266.95
473.65	266.49
474.02	266.01
474.38	265.59
474.75	265.27
475.11	264.90
475.48	264.64
475.85	264.41
476.21	264.17
476.58	263.99
476.94	263.82
477.31	263.63
477.67	263.48
478.04	263.35
478.41	263.33
478.77	263.32
479.14	263.22
479.50	263.18
479.87	263.21
480.23	263.27
480.60	263.31
480.96	263.37
481.33	263.54
481.69	263.70
482.06	263.87
482.42	264.04
482.79	264.30
483.15	264.59
483.52	264.92
483.88	265.21
484.25	265.59
484.61	266.00
484.98	266.44
485.34	266.96
485.71	267.58
486.07	268.12
486.44	268.71
486.80	269.41
487.17	270.14
487.53	270.97
487.90	271.80
488.26	272.77
488.62	273.75
488.99	274.73
489.35	275.77
489.72	276.93
490.08	278.13
490.44	279.35
490.81	280.67
491.17	281.99
491.54	283.49
491.90	284.97
492.26	286.59
492.63	288.32
492.99	290.08
493.36	291.91
493.72	293.94
494.08	295.98
494.45	298.25
494.81	300.59
495.17	302.98
495.54	305.53
495.90	308.20
496.26	310.97
496.63	313.89
496.99	316.98
497.35	320.19
497.72	323.52
498.08	327.07
498.44	330.73
498.80	334.70
499.17	338.66
499.53	342.77
499.89	347.14
500.26	351.56
500.62	356.20
500.98	361.18
501.34	366.26
501.71	371.55
502.07	376.89
502.43	382.45
502.79	388.23
503.16	394.29
503.52	400.52
503.88	406.91
504.24	413.51
504.60	420.38
504.97	427.47
505.33	434.81
505.69	442.43
506.05	450.20
506.41	457.97
506.78	466.11
507.14	474.55
507.50	483.17
507.86	492.14
508.22	501.32
508.59	510.52
508.95	520.02
509.31	529.83
509.67	539.94
510.03	550.19
510.39	560.79
510.75	571.60
511.12	582.50
511.48	593.72
511.84	605.11
512.20	616.62
512.56	628.50
512.92	640.67
513.28	652.96
513.64	665.40
514.00	678.08
514.37	691.00
514.73	704.04
515.09	717.11
515.45	730.39
515.81	743.95
516.17	757.81
516.53	772.03
516.89	786.24
517.25	800.40
517.61	814.82
517.97	829.16
518.33	843.49
518.69	858.30
519.05	873.29
519.41	888.61
519.77	904.15
520.13	919.65
520.49	934.99
520.85	950.43
521.21	966.16
521.57	982.63
521.93	998.47
522.29	1014.95
522.65	1031.23
523.01	1047.47
523.37	1063.52
523.73	1079.80
524.09	1095.83
524.45	1112.15
524.81	1128.89
525.17	1145.79
525.53	1162.83
525.89	1179.73
526.25	1196.60
526.61	1213.09
526.97	1229.78
527.33	1246.26
527.68	1262.88
528.04	1279.41
528.40	1296.12
528.76	1313.24
529.12	1329.69
529.48	1346.58
529.84	1362.62
530.20	1379.26
530.56	1396.32
530.91	1413.75
531.27	1430.60
531.63	1447.20
531.99	1463.88
532.35	1479.93
532.71	1495.78
533.07	1512.17
533.42	1528.12
533.78	1544.27
534.14	1560.58
534.50	1575.93
534.86	1591.95
535.21	1607.23
535.57	1623.31
535.93	1638.77
536.29	1653.56
536.65	1668.80
537.00	1683.71
537.36	1699.15
537.72	1713.70
538.08	1728.27
538.44	1742.19
538.79	1756.10
539.15	1769.78
539.51	1783.67
539.87	1798.21
540.22	1812.17
540.58	1825.73
540.94	1839.12
541.29	1851.99
541.65	1864.79
542.01	1878.10
542.37	1890.34
542.72	1902.79
543.08	1914.61
543.44	1927.08
543.79	1938.43
544.15	1949.32
544.51	1960.81
544.87	1971.71
545.22	1982.69
545.58	1992.84
545.94	2002.72
546.29	2012.69
546.65	2022.54
547.01	2031.59
547.36	2040.19
547.72	2048.72
548.07	2056.74
548.43	2065.03
548.79	2073.00
549.14	2080.72
549.50	2088.26
549.86	2096.13
550.21	2103.46
550.57	2110.66
550.92	2117.33
551.28	2124.40
551.64	2131.57
551.99	2138.14
552.35	2144.34
552.70	2150.33
553.06	2156.35
553.41	2162.58
553.77	2168.50
554.13	2174.60
554.48	2180.69
554.84	2186.06
555.19	2191.19
555.55	2196.30
555.90	2200.61
556.26	2205.59
556.61	2210.00
556.97	2214.10
557.32	2218.17
557.68	2222.16
558.03	2226.19
558.39	2229.64
558.74	2234.18
559.10	2237.89
559.45	2241.45
559.81	2245.63
560.16	2249.42
560.52	2252.40
560.87	2255.82
561.23	2258.35
561.58	2261.08
561.94	2263.46
562.29	2265.83
562.64	2268.42
563.00	2270.91
563.35	2274.32
563.71	2277.30
564.06	2280.39
564.42	2283.10
564.77	2285.30
565.12	2287.48
565.48	2289.26
565.83	2291.04
566.19	2292.19
566.54	2292.94
566.89	2294.05
567.25	2294.57
567.60	2295.66
567.96	2297.24
568.31	2297.61
568.66	2298.44
569.02	2298.83
569.37	2299.05
569.72	2299.51
570.08	2299.53
570.43	2299.34
570.78	2298.27
571.14	2296.35
571.49	2294.70
571.84	2293.96
572.20	2292.49
572.55	2291.24
572.90	2289.41
573.26	2287.77
573.61	2285.83
573.96	2283.78
574.31	2280.45
574.67	2277.04
575.02	2273.24
575.37	2269.59
575.72	2265.66
576.08	2262.16
576.43	2258.64
576.78	2254.85
577.13	2251.48
577.49	2247.95
577.84	2244.24
578.19	2240.52
578.54	2236.77
578.90	2232.33
579.25	2226.70
579.60	2221.71
579.95	2216.52
580.30	2211.31
580.66	2205.98
581.01	2200.70
581.36	2195.78
581.71	2191.44
582.06	2186.96
582.42	2182.38
582.77	2176.97
583.12	2172.35
583.47	2167.53
583.82	2162.47
584.17	2157.00
584.53	2151.48
584.88	2145.82
585.23	2139.95
585.58	2134.39
585.93	2128.83
586.28	2123.97
586.63	2118.90
586.98	2113.75
587.34	2108.87
587.69	2103.93
588.04	2098.60
588.39	2092.93
588.74	2086.21
589.09	2079.98
589.44	2073.11
589.79	2066.65
590.14	2060.94
590.49	2054.11
590.84	2047.50
591.19	2041.32
591.54	2034.76
591.89	2027.23
592.25	2020.24
592.60	2012.81
592.95	2005.09
593.30	1997.68
593.65	1989.98
594.00	1982.79
594.35	1975.34
594.70	1967.05
595.05	1959.91
595.40	1952.69
595.75	1944.99
596.10	1938.70
596.45	1931.87
596.80	1925.54
597.15	1919.16
597.50	1912.07
597.85	1905.61
598.19	1899.04
598.54	1891.87
598.89	1885.27
599.24	1879.29
599.59	1872.69
599.94	1866.51
600.29	1860.14
600.64	1853.43
600.99	1846.06
601.34	1839.17
601.69	1832.11
602.04	1825.26
602.39	1817.79
602.74	1810.86
603.08	1804.24
603.43	1797.49
603.78	1790.29
604.13	1782.97
604.48	1775.61
604.83	1768.78
605.18	1761.94
605.53	1753.95
605.87	1745.91
606.22	1738.54
606.57	1730.60
606.92	1723.24
607.27	1716.06
607.62	1709.17
607.96	1702.04
608.31	1695.54
608.66	1687.95
609.01	1680.60
609.36	1673.31
609.70	1665.40
610.05	1657.36
610.40	1649.81
610.75	1641.52
611.10	1633.82
611.44	1625.63
611.79	1617.70
612.14	1609.06
612.49	1599.91
612.83	1591.59
613.18	1583.52
613.53	1575.62
613.88	1567.11
614.22	1558.93
614.57	1550.32
614.92	1542.46
615.27	1534.97
615.61	1526.72
615.96	1518.77
616.31	1511.24
616.65	1503.83
617.00	1496.33
617.35	1488.75
617.70	1480.39
618.04	1471.89
618.39	1463.70
618.74	1456.18
619.08	1447.94
619.43	1440.55
619.78	1433.76
620.12	1426.62
620.47	1419.21
620.82	1411.02
621.16	1403.65
621.51	1396.10
621.85	1388.59
622.20	1380.13
622.55	1371.80
622.89	1363.91
623.24	1356.42
623.59	1349.06
623.93	1341.57
624.28	1334.37
624.62	1326.91
624.97	1319.73
625.32	1313.11
625.66	1306.04
626.01	1298.86
626.35	1291.48
626.70	1283.67
627.04	1275.92
627.39	1268.28
627.73	1260.90
628.08	1254.03
628.43	1246.83
628.77	1239.60
629.12	1232.21
629.46	1225.01
629.81	1217.64
630.15	1210.54
630.50	1203.14
630.84	1195.05
631.19	1187.28
631.53	1179.87
631.88	1172.33
632.22	1164.94
632.57	1157.81
632.91	1150.39
633.26	1143.00
633.60	1135.72
633.95	1128.74
634.29	1121.77
634.64	1115.09
634.98	1107.84
635.32	1100.90
635.67	1094.42
636.01	1087.83
636.36	1081.06
636.70	1074.65
637.05	1068.27
637.39	1061.96
637.73	1055.56
638.08	1049.75
638.42	1043.77
638.77	1037.39
639.11	1030.99
639.45	1024.66
639.80	1017.99
640.14	1011.71
640.49	1005.40
640.83	999.18
641.17	993.09
641.52	986.92
641.86	980.56
642.20	974.87
642.55	968.54
642.89	962.19
643.23	955.68
643.58	950.08
643.92	944.01
644.26	937.97
644.61	931.87
644.95	925.91
645.29	919.45
645.64	912.80
645.98	906.54
646.32	900.68
646.66	894.56
647.01	888.87
647.35	883.22
647.69	877.32
648.04	871.88
648.38	866.03
648.72	860.09
649.06	854.10
649.41	848.14
649.75	842.24
650.09	836.26
650.43	830.50
650.78	824.29
651.12	818.35
651.46	812.59
651.80	806.93
652.14	801.56
652.49	796.14
652.83	790.99
653.17	785.34
653.51	779.66
653.85	774.35
654.20	768.66
654.54	762.69
654.88	757.05
655.22	751.23
655.56	745.60
655.90	740.11
656.25	734.89
656.59	729.61
656.93	724.60
657.27	719.52
657.61	714.21
657.95	709.16
658.29	704.15
658.64	698.97
658.98	693.65
659.32	688.20
659.66	683.01
660.00	677.77
660.34	672.92
660.68	668.12
661.02	663.20
661.36	658.65
661.70	654.25
662.05	649.98
662.39	645.64
662.73	641.23
663.07	636.96
663.41	632.58
663.75	628.16
664.09	623.63
664.43	619.30
664.77	615.19
665.11	611.02
665.45	606.86
665.79	602.88
666.13	598.88
666.47	594.89
666.81	590.80
667.15	586.71
667.49	582.84
667.83	578.98
668.17	575.06
668.51	571.05
668.85	567.04
669.19	563.22
669.53	559.46
669.87	555.69
670.21	552.09
670.55	548.53
670.89	545.09
671.23	541.69
671.57	538.22
671.91	534.76
672.25	531.37
672.58	527.98
672.92	524.59
673.26	521.46
673.60	518.32
673.94	515.29
674.28	512.45
674.62	509.56
674.96	506.56
675.30	503.72
675.64	500.82
675.97	498.11
676.31	495.28
676.65	492.37
676.99	489.70
677.33	486.86
677.67	484.07
678.01	481.17
678.34	478.22
678.68	475.38
679.02	472.59
679.36	469.80
679.70	467.07
680.04	464.32
680.37	461.47
680.71	458.68
681.05	456.08
681.39	453.38
681.73	450.73
682.06	448.20
682.40	445.68
682.74	443.15
683.08	440.64
683.42	438.07
683.75	435.62
684.09	433.07
684.43	430.60
684.77	428.14
685.10	425.79
685.44	423.51
685.78	421.30
686.12	419.07
686.45	416.82
686.79	414.58
687.13	412.44
687.46	410.35
687.80	408.26
688.14	406.03
688.48	404.01
688.81	401.80
689.15	399.64
689.49	397.55
689.82	395.54
690.16	393.48
690.50	391.54
690.83	389.64
691.17	387.71
691.51	385.79
691.84	383.94
692.18	382.02
692.52	380.05
692.85	378.12
693.19	376.23
693.52	374.42
693.86	372.64
694.20	370.91
694.53	369.11
694.87	367.32
695.21	365.62
695.54	363.84
695.88	362.17
696.21	360.52
696.55	358.83
696.88	357.14
697.22	355.44
697.56	353.83
697.89	352.17
698.23	350.54
698.56	349.00
698.90	347.44
699.23	345.84
699.57	344.28
699.90	342.75
700.24	341.27
700.58	339.77
700.91	338.27
701.25	336.82
701.58	335.42
701.92	334.05
702.25	332.70
702.59	331.35
702.92	330.01
703.26	328.72
703.59	327.41
703.93	326.22
704.26	325.00
704.60	323.72
704.93	322.48
705.26	321.26
705.60	320.07
705.93	318.96
706.27	317.95
706.60	316.93
706.94	315.86
707.27	314.76
707.61	313.70
707.94	312.71
708.27	311.63
708.61	310.57
708.94	309.55
709.28	308.55
709.61	307.60
709.94	306.64
710.28	305.60
710.61	304.69
710.95	303.64
711.28	302.76
711.61	301.83
711.95	300.94
712.28	300.04
712.61	299.08
712.95	298.18
713.28	297.27
713.61	296.40
713.95	295.53
714.28	294.67
714.61	293.80
714.95	293.00
715.28	292.19
715.61	291.36
715.95	290.55
716.28	289.73
716.61	288.93
716.95	288.13
717.28	287.38
717.61	286.58
717.94	285.88
718.28	285.11
718.61	284.40
718.94	283.69
719.27	283.04
719.61	282.41
719.94	281.76
720.27	281.07
720.60	280.41
720.94	279.80
721.27	279.22
721.60	278.67
721.93	278.04
722.27	277.46
722.60	276.88
722.93	276.30
723.26	275.75
723.59	275.18
723.93	274.63
724.26	274.07
724.59	273.52
724.92	272.97
725.25	272.47
725.59	271.95
725.92	271.45
726.25	270.92
726.58	270.40
726.91	269.91
727.24	269.44
727.57	268.96
727.91	268.44
728.24	267.94
728.57	267.43
728.90	266.95
729.23	266.46
729.56	266.01
729.89	265.55
730.22	265.05
730.55	264.57
730.89	264.16
731.22	263.71
731.55	263.28
731.88	262.86
732.21	262.41
732.54	261.94
732.87	261.51
733.20	261.11
733.53	260.74
733.86	260.34
734.19	259.92
734.52	259.53
734.85	259.21
735.18	258.80
735.51	258.43
735.84	258.05
736.17	257.72
736.50	257.34
736.83	257.09
737.16	256.75
737.49	256.46
737.82	256.08
738.15	255.76
738.48	255.45
738.81	255.14
739.14	254.82
739.47	254.52
739.80	254.22
740.13	253.96
740.46	253.65
740.79	253.34
741.12	253.01
741.45	252.75
741.78	252.42
742.11	252.20
742.44	251.92
742.77	251.69
743.10	251.38
743.43	251.08
743.75	250.71
744.08	250.60
744.41	250.32
744.74	250.06
745.07	249.79
745.40	249.56
745.73	249.34
746.06	249.06
746.39	248.82
746.71	248.55
747.04	248.24
747.37	247.97
747.70	247.73
748.03	247.51
748.36	247.25
748.68	247.01
749.01	246.73
749.34	246.53
749.67	246.27
750.00	246.03
750.33	245.90
750.65	245.70
750.98	245.36
751.31	245.16
751.64	244.95
751.97	244.78
752.29	244.57
752.62	244.31
752.95	244.13
753.28	243.96
753.60	243.79
753.93	243.63
754.26	243.45
754.59	243.23
754.91	243.05
755.24	242.89
755.57	242.74
755.90	242.59
756.22	242.37
756.55	242.21
756.88	242.05
757.20	241.81
757.53	241.63
757.86	241.44
758.19	241.27
758.51	241.14
758.84	240.96
759.17	240.79
759.49	240.64
759.82	240.52
760.15	240.35
760.47	240.23
760.80	240.06
761.13	239.94
761.45	239.83
761.78	239.65
762.11	239.48
762.43	239.33
762.76	239.17
763.08	239.05
763.41	238.94
763.74	238.82
764.06	238.68
764.39	238.52
764.71	238.38
765.04	238.23
765.37	238.07
765.69	237.94
766.02	237.82
766.34	237.67
766.67	237.52
767.00	237.44
767.32	237.33
767.65	237.27
767.97	237.14
768.30	236.99
768.62	236.90
768.95	236.78
769.27	236.64
769.60	236.56
769.92	236.43
770.25	236.30
770.57	236.16
770.90	236.02
771.22	235.87
771.55	235.76
771.87	235.65
772.20	235.56
772.52	235.53
772.85	235.52
773.17	235.42
773.50	235.30
773.82	235.19
774.15	235.05
774.47	234.87
774.80	234.78
775.12	234.70
775.45	234.60
775.77	234.51
776.09	234.42
776.42	234.31
776.74	234.24
777.07	234.14
777.39	234.04
777.72	233.97
778.04	233.94
778.36	233.85
778.69	233.78
779.01	233.73
779.33	233.57
779.66	233.40
779.98	233.32
780.31	233.23
780.63	233.18
780.95	233.11
781.28	233.07
781.60	232.97
781.92	232.86
782.25	232.82
782.57	232.73
782.89	232.66
783.22	232.59
783.54	232.51
783.86	232.45
784.19	232.40
784.51	232.40
784.83	232.37
785.16	232.33
785.48	232.30
785.80	232.24
786.12	232.19
786.45	232.17
786.77	232.14
787.09	232.13
787.42	232.00
787.74	231.98
788.06	231.95
788.38	231.91
788.71	231.90
789.03	231.86
789.35	231.89
789.67	231.89
789.99	231.88
790.32	231.87
790.64	231.86
790.96	231.91
791.28	231.84
791.61	231.79
791.93	231.78
792.25	231.71
792.57	231.75
792.89	231.72
793.21	231.68
793.54	231.66
793.86	231.62
794.18	231.63
794.50	231.59
794.82	231.54
795.14	231.55
795.47	231.53
795.79	231.49
796.11	231.43
796.43	231.39
796.75	231.38
797.07	231.35
797.39	231.33
797.71	231.24
798.04	231.23
798.36	231.22
798.68	231.20
799.00	231.21
799.32	231.14
799.64	231.12
799.96	231.11
800.28	231.11
800.60	231.07
800.92	231.08
801.24	231.07
801.56	231.06
801.89	231.00
802.21	230.99
802.53	230.96
802.85	230.92
803.17	230.94
803.49	230.86
803.81	230.82
804.13	230.78
804.45	230.71
804.77	230.66
805.09	230.60
805.41	230.55
805.73	230.49
806.05	230.42
806.37	230.41
806.69	230.34
807.01	230.28
807.33	230.25
807.65	230.16
807.97	230.15
808.28	230.11
808.60	230.10
808.92	230.05
809.24	230.06
809.56	230.02
809.88	229.93
810.20	229.91
810.52	229.86
810.84	229.81
811.16	229.76
811.48	229.70
811.80	229.70
812.12	229.68
812.43	229.66
812.75	229.63
813.07	229.57
813.39	229.54
813.71	229.46
814.03	229.43
814.35	229.37
814.67	229.29
814.98	229.24
815.30	229.21
815.62	229.16
815.94	229.08
816.26	229.08
816.58	229.01
816.89	228.97
817.21	228.92
817.53	228.91
817.85	228.90
818.17	228.90
818.48	228.80
818.80	228.81
819.12	228.75
819.44	228.68
819.76	228.66
820.07	228.65
820.39	228.68
820.71	228.63
821.03	228.64
821.34	228.61
821.66	228.60
821.98	228.60
822.30	228.55
822.61	228.58
822.93	228.51
823.25	228.53
823.57	228.47
823.88	228.52
824.20	228.49
824.52	228.54
824.83	228.54
825.15	228.54
825.47	228.49
825.79	228.51
826.10	228.52
826.42	228.51
826.74	228.51
827.05	228.50
827.37	228.50
827.69	228.49
828.00	228.48
828.32	228.49
828.64	228.46
828.95	228.56
829.27	228.54
829.58	228.57
829.90	228.58
830.22	228.63
830.53	228.60
830.85	228.59
831.17	228.51
831.48	228.52
831.80	228.56
832.11	228.55
832.43	228.55
832.75	228.57
833.06	228.63
833.38	228.61
833.69	228.59
834.01	228.62
834.32	228.63
834.64	228.65
834.96	228.63
835.27	228.66
835.59	228.61
835.90	228.61
836.22	228.61
836.53	228.57
836.85	228.57
837.16	228.66
837.48	228.72
837.79	228.78
838.11	228.80
838.42	228.79
838.74	228.83
839.05	228.82
839.37	228.82
839.68	228.75
840.00	228.76
840.31	228.79
840.63	228.81
840.94	228.81
841.26	228.79
841.57	228.80
841.88	228.77
842.20	228.77
842.51	228.76
842.83	228.77
843.14	228.88
843.46	228.88
843.77	228.85
844.08	228.79
844.40	228.76
844.71	228.72
845.03	228.72
845.34	228.69
845.65	228.69
845.97	228.68
846.28	228.68
846.60	228.67
846.91	228.63
847.22	228.59
847.54	228.60
847.85	228.58
848.16	228.55
848.48	228.51
848.79	228.53
849.10	228.54
849.42	228.52
849.73	228.38
850.04	228.34
850.36	228.26
850.67	228.27
850.98	228.24
851.30	228.22
851.61	228.18
851.92	228.17
852.23	228.17
852.55	228.15
852.86	228.14
853.17	228.13
853.49	228.14
853.80	228.15
854.11	228.10
854.42	228.09
854.74	228.06
855.05	228.06
855.36	227.98
855.67	227.94
855.99	227.90
856.30	228.02
856.61	228.01
856.92	228.01
857.23	227.98
857.55	227.96
857.86	227.94
858.17	227.98
858.48	227.92
858.79	227.91
859.11	227.88
859.42	227.87
859.73	227.82
860.04	227.79
860.35	227.75
860.66	227.75
860.98	227.77
861.29	227.80
861.60	227.79
861.91	227.79
862.22	227.79
862.53	227.81
862.84	227.69
863.16	227.73
863.47	227.69
863.78	227.70
864.09	227.73
864.40	227.75
864.71	227.74
865.02	227.76
865.33	227.75
865.64	227.76
865.95	227.76
866.27	227.86
866.58	227.87
866.89	227.89
867.20	227.88
867.51	227.87
867.82	227.88
868.13	227.94
868.44	227.94
868.75	227.94
869.06	227.93
869.37	227.98
869.68	227.94
869.99	227.97
870.30	227.98
870.61	227.96
870.92	227.92
871.23	227.95
871.54	228.01
871.85	228.05
872.16	228.08
872.47	228.07
872.78	228.04
873.09	228.05
873.40	228.03
873.71	228.06
874.02	228.07
874.33	228.08
874.64	228.04
874.95	228.10
875.26	228.12
875.56	228.15
875.87	228.14
876.18	228.17
876.49	228.27
876.80	228.25
877.11	228.25
877.42	228.28
877.73	228.26
878.04	228.24
878.35	228.26
878.66	228.26
878.96	228.29
879.27	228.29
879.58	228.31
879.89	228.31
880.20	228.37
880.51	228.35
880.82	228.37
881.12	228.39
881.43	228.35
881.74	228.35
882.05	228.31
882.36	228.29
882.67	228.29
882.97	228.22
883.28	228.25
883.59	228.26
883.90	228.27
884.21	228.28
884.51	228.26
884.82	228.18
885.13	228.14
885.44	228.11
885.74	228.12
886.05	228.08
886.36	228.08
886.67	228.02
886.98	228.08
887.28	228.04
887.59	228.00
887.90	228.01
888.20	227.95
888.51	227.94
888.82	227.94
889.13	227.92
889.43	227.95
889.74	227.92
890.05	227.90
890.35	227.85
890.66	227.82
890.97	227.78
891.28	227.80
891.58	227.81
891.89	227.82
892.20	227.79
892.50	227.77
892.81	227.79
893.12	227.76
893.42	227.65
893.73	227.63
894.04	227.65
894.34	227.61
894.65	227.63
894.95	227.64
895.26	227.62
895.57	227.67
895.87	227.58
896.18	227.58
896.48	227.57
896.79	227.58
897.10	227.58
897.40	227.59
897.71	227.58
898.01	227.59
898.32	227.60
898.63	227.58
898.93	227.55
899.24	227.54
899.54	227.55
899.85	227.60
900.15	227.62
900.46	227.60
900.76	227.64
901.07	227.65
901.38	227.65
901.68	227.67
901.99	227.63
902.29	227.66
902.60	227.67
902.90	227.64
903.21	227.64
903.51	227.64
903.82	227.68
904.12	227.70
904.43	227.67
904.73	227.66
905.03	227.67
905.34	227.77
905.64	227.75
905.95	227.77
906.25	227.78
906.56	227.78
906.86	227.80
907.17	227.76
907.47	227.78
907.77	227.74
908.08	227.74
908.38	227.77
908.69	227.74
908.99	227.72
909.30	227.75
909.60	227.77
909.90	227.77
910.21	227.77
910.51	227.75
910.81	227.76
911.12	227.77
911.42	227.79
911.73	227.72
912.03	227.81
912.33	227.83
912.64	227.84
912.94	227.87
913.24	227.87
913.55	227.91
913.85	227.89
914.15	227.94
914.46	227.94
914.76	227.93
915.06	227.96
915.37	227.99
915.67	227.99
915.97	228.02
916.27	228.01
916.58	228.00
916.88	227.97
917.18	227.97
917.49	228.03
917.79	228.03
918.09	228.04
918.39	228.02
918.70	228.01
919.00	227.99
919.30	227.99
919.60	227.98
919.91	227.94
920.21	227.93
920.51	227.91
920.81	227.91
921.12	227.91
921.42	227.91
921.72	227.88
922.02	227.93
922.32	227.90
922.63	227.89
922.93	227.93
923.23	227.93
923.53	227.94
923.83	227.87
924.13	227.85
924.44	227.87
924.74	227.86
925.04	227.86
925.34	227.83
925.64	227.79
925.94	227.78
926.24	227.84
926.55	227.83
926.85	227.83
927.15	227.82
927.45	227.81
927.75	227.81
928.05	227.81
928.35	227.74
928.65	227.73
928.95	227.73
929.26	227.68
929.56	227.71
929.86	227.71
930.16	227.68
930.46	227.66
930.76	227.61
931.06	227.55
931.36	227.48
931.66	227.53
931.96	227.52
932.26	227.53
932.56	227.45
932.86	227.45
933.16	227.43
933.46	227.41
933.76	227.38
934.06	227.40
934.36	227.43
934.66	227.44
934.96	227.42
935.26	227.42
935.56	227.43
935.86	227.35
936.16	227.30
936.46	227.30
936.76	227.28
937.06	227.28
937.36	227.31
937.66	227.35
937.96	227.33
938.26	227.28
938.56	227.26
938.86	227.28
939.16	227.30
939.46	227.34
939.76	227.33
940.06	227.33
940.35	227.31
940.65	227.27
940.95	227.28
941.25	227.28
941.55	227.24
941.85	227.25
942.15	227.29
942.45	227.35
942.75	227.35
943.04	227.39
943.34	227.43
943.64	227.44
943.94	227.41
944.24	227.42
944.54	227.45
944.84	227.45
945.13	227.44
945.43	227.43
945.73	227.43
946.03	227.44
946.33	227.45
946.62	227.43
946.92	227.44
947.22	227.44
947.52	227.48
947.82	227.53
948.11	227.53
948.41	227.54
948.71	227.55
949.01	227.59
949.31	227.56
949.60	227.54
949.90	227.55
950.20	227.56
950.50	227.58
950.79	227.61
951.09	227.68
951.39	227.69
951.69	227.71
951.98	227.75
952.28	227.78
952.58	227.78
952.87	227.78
953.17	227.82
953.47	227.82
953.76	227.82
954.06	227.79
954.36	227.78
954.66	227.79
954.95	227.78
955.25	227.80
955.55	227.81
955.84	227.80
956.14	227.78
956.44	227.82
956.73	227.79
957.03	227.77
957.32	227.73
957.62	227.76
957.92	227.77
958.21	227.70
958.51	227.78
958.81	227.81
959.10	227.83
959.40	227.83
959.69	227.85
959.99	227.85
960.29	227.83
960.58	227.81
960.88	227.84
961.17	227.80
961.47	227.79
961.76	227.76
962.06	227.77
962.36	227.76
962.65	227.72
962.95	227.69
963.24	227.69
963.54	227.70
963.83	227.64
964.13	227.61
964.42	227.61
964.72	227.53
965.01	227.55
965.31	227.53
965.60	227.49
965.90	227.51
966.19	227.47
966.49	227.49
966.78	227.48
967.08	227.47
967.37	227.47
967.67	227.40
967.96	227.41
968.26	227.39
968.55	227.40
968.85	227.36
969.14	227.37
969.43	227.36
969.73	227.33
970.02	227.33
970.32	227.32
970.61	227.27
970.91	227.24
971.20	227.19
971.49	227.16
971.79	227.17
972.08	227.11
972.38	227.10
972.67	227.09
972.96	227.11
973.26	227.08
973.55	227.12
973.85	227.13
974.14	227.15
974.43	227.19
974.73	227.19
975.02	227.22
975.31	227.23
975.61	227.22
975.90	227.21
976.19	227.23
976.49	227.27
976.78	227.29
977.07	227.32
977.37	227.31
977.66	227.34
977.95	227.36
978.24	227.36
978.54	227.42
978.83	227.41
979.12	227.41
979.42	227.37
979.71	227.34
980.00	227.38
980.29	227.37
980.59	227.37
980.88	227.38
981.17	227.39
981.46	227.40
981.76	227.44
982.05	227.47
982.34	227.46
982.63	227.45
982.93	227.48
983.22	227.50
983.51	227.54
983.80	227.55
984.09	227.54
984.39	227.55
984.68	227.54
984.97	227.59
985.26	227.60
985.55	227.65
985.85	227.67
986.14	227.67
986.43	227.68
986.72	227.69
987.01	227.66
987.30	227.69
987.59	227.69
987.89	227.67
988.18	227.67
988.47	227.67
988.76	227.66
989.05	227.64
989.34	227.64
989.63	227.66
989.92	227.66
990.22	227.65
990.51	227.64
990.80	227.61
991.09	227.55
991.38	227.58
991.67	227.59
991.96	227.59
992.25	227.60
992.54	227.57
992.83	227.57
993.12	227.58
993.41	227.58
993.70	227.62
993.99	227.63
994.28	227.64
994.58	227.65
994.87	227.65
995.16	227.66
995.45	227.61
995.74	227.56
996.03	227.56
996.32	227.58
996.61	227.60
996.90	227.61
997.19	227.67
997.48	227.65
997.77	227.63
998.06	227.64
998.34	227.61
998.63	227.65
998.92	227.62
999.21	227.60
999.50	227.56
999.79	227.49
1000.08	227.52
1000.37	227.49
1000.66	227.49
1000.95	227.50
1001.24	227.49
1001.53	227.50
1001.82	227.50
1002.11	227.47
1002.40	227.46
1002.68	227.47
1002.97	227.55
1003.26	227.51
1003.55	227.47
1003.84	227.44
1004.13	227.47
1004.42	227.45
1004.71	227.41
1004.99	227.41
1005.28	227.44
1005.57	227.47
1005.86	227.49
1006.15	227.45
1006.44	227.45
1006.72	227.45
1007.01	227.45
1007.30	227.44
1007.59	227.45
1007.88	227.46
1008.17	227.45
1008.45	227.45
1008.74	227.40
1009.03	227.31
1009.32	227.32
1009.60	227.33
1009.89	227.36
1010.18	227.30
1010.47	227.28
1010.76	227.31
1011.04	227.28
1011.33	227.27
1011.62	227.29
1011.91	227.29
1012.19	227.29
1012.48	227.33
1012.77	227.35
1013.05	227.38
1013.34	227.40
1013.63	227.39
1013.92	227.39
1014.20	227.38
1014.49	227.40
1014.78	227.40
1015.06	227.42
1015.35	227.43
1015.64	227.44
1015.92	227.42
1016.21	227.42
1016.50	227.44
1016.78	227.45
1017.07	227.50
1017.36	227.49
1017.64	227.46
1017.93	227.44
1018.22	227.45
1018.50	227.40
1018.79	227.40
1019.08	227.36
1019.36	227.37
1019.65	227.36
1019.93	227.39
1020.22	227.41
1020.51	227.43
1020.79	227.42
1021.08	227.41
1021.36	227.22
1021.65	227.55
1021.94	227.39
1022.22	227.69
1022.51	227.41
1022.79	228.06
1023.08	227.28
1023.36	228.22
1023.65	226.82
>>>>>End Processed Spectral Data<<<<<
