SpectraSuite Data File
++++++++++++++++++++++++++++++++++++
Date: Fri Feb 01 16:30:37 EST 2013
User: group
Dark Spectrum Present: No
Reference Spectrum Present: No
Number of Sampled Component Spectra: 1
Spectrometers: USB2E7196
Integration Time (usec): 35000 (USB2E7196)
Spectra Averaged: 100 (USB2E7196)
Boxcar Smoothing: 10 (USB2E7196)
Correct for Electrical Dark: No (USB2E7196)
Strobe/Lamp Enabled: No (USB2E7196)
Correct for Detector Non-linearity: No (USB2E7196)
Correct for Stray Light: No (USB2E7196)
Number of Pixels in Processed Spectrum: 2048
>>>>>Begin Processed Spectral Data<<<<<
339.09	0.00
339.48	213.73
339.86	215.67
340.24	217.12
340.63	218.51
341.01	221.13
341.39	221.02
341.78	222.14
342.16	222.60
342.54	223.85
342.93	212.31
343.31	223.04
343.69	223.60
344.07	224.06
344.46	224.49
344.84	224.84
345.22	225.05
345.60	225.29
345.99	225.47
346.37	225.68
346.75	225.77
347.13	225.85
347.52	225.92
347.90	225.97
348.28	226.01
348.66	226.03
349.05	226.05
349.43	226.10
349.81	226.17
350.19	226.23
350.57	226.29
350.96	226.34
351.34	226.41
351.72	226.48
352.10	226.54
352.48	226.60
352.87	226.68
353.25	226.77
353.63	226.83
354.01	226.91
354.39	226.93
354.77	227.01
355.15	227.10
355.54	227.15
355.92	227.16
356.30	227.28
356.68	227.41
357.06	227.46
357.44	227.50
357.82	227.54
358.20	227.59
358.58	227.62
358.97	227.70
359.35	227.78
359.73	227.85
360.11	227.91
360.49	227.96
360.87	227.97
361.25	228.01
361.63	228.11
362.01	228.14
362.39	228.18
362.77	228.21
363.15	228.25
363.53	228.28
363.91	228.32
364.29	228.32
364.67	228.27
365.05	228.30
365.43	228.37
365.81	228.37
366.19	228.41
366.57	228.51
366.95	228.54
367.33	228.50
367.71	228.50
368.09	228.53
368.47	228.54
368.85	228.57
369.23	228.58
369.61	228.50
369.99	228.53
370.37	228.50
370.75	228.56
371.13	228.48
371.51	228.44
371.89	228.42
372.27	228.39
372.65	228.36
373.03	228.31
373.41	228.25
373.78	228.20
374.16	228.14
374.54	228.03
374.92	227.96
375.30	227.91
375.68	227.82
376.06	227.77
376.44	227.72
376.82	227.65
377.19	227.57
377.57	227.51
377.95	227.40
378.33	227.35
378.71	227.22
379.09	227.16
379.47	227.11
379.84	227.03
380.22	226.94
380.60	226.85
380.98	226.80
381.36	226.71
381.73	226.64
382.11	226.60
382.49	226.55
382.87	226.46
383.25	226.41
383.62	226.50
384.00	226.42
384.38	226.37
384.76	226.32
385.13	226.32
385.51	226.28
385.89	226.24
386.27	226.18
386.64	226.15
387.02	226.15
387.40	226.10
387.78	226.07
388.15	226.05
388.53	226.03
388.91	225.98
389.29	225.92
389.66	225.91
390.04	225.83
390.42	225.81
390.79	225.84
391.17	225.80
391.55	225.66
391.92	225.67
392.30	225.64
392.68	225.61
393.05	225.61
393.43	225.59
393.81	225.60
394.18	225.57
394.56	225.57
394.94	225.57
395.31	225.58
395.69	225.63
396.06	225.64
396.44	225.64
396.82	225.66
397.19	225.76
397.57	225.79
397.95	225.85
398.32	225.85
398.70	225.85
399.07	225.92
399.45	225.98
399.82	226.00
400.20	226.06
400.58	226.14
400.95	226.15
401.33	226.24
401.70	226.37
402.08	226.48
402.45	226.58
402.83	226.69
403.20	226.79
403.58	226.86
403.95	226.99
404.33	227.15
404.71	227.26
405.08	227.43
405.46	227.54
405.83	227.69
406.21	227.84
406.58	228.00
406.96	228.13
407.33	228.29
407.70	228.47
408.08	228.72
408.45	228.93
408.83	229.15
409.20	229.31
409.58	229.46
409.95	229.75
410.33	229.99
410.70	230.23
411.08	230.52
411.45	230.85
411.82	231.14
412.20	231.47
412.57	231.89
412.95	232.17
413.32	232.59
413.69	233.01
414.07	233.44
414.44	233.94
414.82	234.44
415.19	235.03
415.56	235.61
415.94	236.17
416.31	236.81
416.68	237.48
417.06	238.26
417.43	238.98
417.81	239.76
418.18	240.52
418.55	241.34
418.93	242.23
419.30	243.15
419.67	244.08
420.04	245.03
420.42	246.03
420.79	247.24
421.16	248.42
421.54	249.59
421.91	250.81
422.28	252.06
422.66	253.35
423.03	254.63
423.40	255.95
423.77	257.38
424.15	258.81
424.52	260.29
424.89	261.89
425.26	263.41
425.64	264.84
426.01	266.46
426.38	268.15
426.75	269.82
427.13	271.53
427.50	273.35
427.87	275.23
428.24	277.13
428.61	278.86
428.99	280.77
429.36	282.90
429.73	284.98
430.10	286.98
430.47	289.06
430.85	291.17
431.22	293.40
431.59	295.77
431.96	298.02
432.33	300.49
432.70	302.83
433.08	305.61
433.45	308.22
433.82	310.76
434.19	313.65
434.56	316.41
434.93	319.05
435.30	321.68
435.68	324.56
436.05	327.29
436.42	330.04
436.79	332.53
437.16	335.20
437.53	337.98
437.90	340.77
438.27	343.52
438.64	346.32
439.01	348.91
439.38	351.11
439.75	353.20
440.13	355.67
440.50	357.99
440.87	359.85
441.24	361.75
441.61	363.96
441.98	365.39
442.35	367.21
442.72	368.99
443.09	370.73
443.46	371.71
443.83	372.36
444.20	372.87
444.57	373.68
444.94	373.95
445.31	374.30
445.68	374.65
446.05	374.70
446.42	374.33
446.79	373.86
447.16	373.40
447.53	373.10
447.90	371.95
448.27	370.80
448.64	369.19
449.01	368.13
449.37	366.14
449.74	364.29
450.11	362.02
450.48	359.61
450.85	357.12
451.22	355.01
451.59	352.96
451.96	351.00
452.33	348.39
452.70	346.06
453.07	343.21
453.43	340.30
453.80	337.59
454.17	334.90
454.54	332.38
454.91	329.68
455.28	327.03
455.65	324.55
456.02	322.15
456.38	320.04
456.75	317.35
457.12	315.12
457.49	312.92
457.86	310.78
458.23	308.96
458.59	306.92
458.96	304.84
459.33	303.01
459.70	301.19
460.07	299.76
460.43	298.06
460.80	296.48
461.17	295.10
461.54	293.58
461.91	292.20
462.27	290.78
462.64	289.53
463.01	288.17
463.38	286.87
463.74	285.51
464.11	284.35
464.48	283.33
464.85	282.25
465.21	281.37
465.58	280.47
465.95	279.38
466.32	278.49
466.68	277.60
467.05	276.73
467.42	275.86
467.78	274.92
468.15	274.05
468.52	273.40
468.88	272.54
469.25	271.78
469.62	271.11
469.98	270.47
470.35	269.87
470.72	269.28
471.08	268.65
471.45	268.11
471.82	267.60
472.18	267.02
472.55	266.59
472.92	266.06
473.28	265.61
473.65	265.16
474.02	264.72
474.38	264.36
474.75	264.03
475.11	263.71
475.48	263.45
475.85	263.19
476.21	262.99
476.58	262.81
476.94	262.66
477.31	262.54
477.67	262.40
478.04	262.27
478.41	262.22
478.77	262.26
479.14	262.18
479.50	262.21
479.87	262.29
480.23	262.38
480.60	262.48
480.96	262.56
481.33	262.76
481.69	262.99
482.06	263.16
482.42	263.34
482.79	263.61
483.15	263.89
483.52	264.33
483.88	264.68
484.25	265.11
484.61	265.53
484.98	265.98
485.34	266.52
485.71	267.11
486.07	267.72
486.44	268.33
486.80	269.08
487.17	269.77
487.53	270.58
487.90	271.45
488.26	272.38
488.62	273.35
488.99	274.31
489.35	275.35
489.72	276.51
490.08	277.71
490.44	278.89
490.81	280.26
491.17	281.58
491.54	283.07
491.90	284.58
492.26	286.24
492.63	287.95
492.99	289.71
493.36	291.66
493.72	293.66
494.08	295.73
494.45	297.92
494.81	300.28
495.17	302.73
495.54	305.23
495.90	307.92
496.26	310.75
496.63	313.71
496.99	316.83
497.35	320.03
497.72	323.44
498.08	327.01
498.44	330.67
498.80	334.62
499.17	338.63
499.53	342.84
499.89	347.26
500.26	351.76
500.62	356.46
500.98	361.43
501.34	366.59
501.71	371.94
502.07	377.45
502.43	383.11
502.79	388.94
503.16	395.15
503.52	401.42
503.88	407.81
504.24	414.45
504.60	421.34
504.97	428.50
505.33	435.88
505.69	443.60
506.05	451.37
506.41	459.27
506.78	467.44
507.14	475.84
507.50	484.51
507.86	493.59
508.22	502.79
508.59	512.01
508.95	521.59
509.31	531.40
509.67	541.38
510.03	551.65
510.39	562.24
510.75	572.97
511.12	583.91
511.48	595.25
511.84	606.77
512.20	618.27
512.56	630.19
512.92	642.37
513.28	654.69
513.64	667.19
514.00	679.87
514.37	692.81
514.73	705.84
515.09	718.91
515.45	732.16
515.81	745.75
516.17	759.75
516.53	773.80
516.89	787.89
517.25	802.15
517.61	816.61
517.97	830.94
518.33	845.32
518.69	859.98
519.05	874.92
519.41	889.97
519.77	905.53
520.13	921.05
520.49	936.38
520.85	951.74
521.21	967.40
521.57	983.51
521.93	999.21
522.29	1015.65
522.65	1031.80
523.01	1047.87
523.37	1063.79
523.73	1079.81
524.09	1095.86
524.45	1112.19
524.81	1128.79
525.17	1145.39
525.53	1162.29
525.89	1179.10
526.25	1195.93
526.61	1212.30
526.97	1228.97
527.33	1245.34
527.68	1261.78
528.04	1278.17
528.40	1294.54
528.76	1311.44
529.12	1328.01
529.48	1344.80
529.84	1360.62
530.20	1377.16
530.56	1394.20
530.91	1411.60
531.27	1428.34
531.63	1444.72
531.99	1461.22
532.35	1477.08
532.71	1492.93
533.07	1509.06
533.42	1524.93
533.78	1540.88
534.14	1557.05
534.50	1572.32
534.86	1588.13
535.21	1603.26
535.57	1619.01
535.93	1634.71
536.29	1649.45
536.65	1664.41
537.00	1679.14
537.36	1694.29
537.72	1708.70
538.08	1723.00
538.44	1736.59
538.79	1750.27
539.15	1763.83
539.51	1777.30
539.87	1791.47
540.22	1805.02
540.58	1818.64
540.94	1831.85
541.29	1844.56
541.65	1856.96
542.01	1870.08
542.37	1882.21
542.72	1894.46
543.08	1906.19
543.44	1918.37
543.79	1929.48
544.15	1940.36
544.51	1951.82
544.87	1962.91
545.22	1973.73
545.58	1983.89
545.94	1993.55
546.29	2003.44
546.65	2013.24
547.01	2022.57
547.36	2031.26
547.72	2039.86
548.07	2047.73
548.43	2055.84
548.79	2063.91
549.14	2071.51
549.50	2078.71
549.86	2086.42
550.21	2093.61
550.57	2100.81
550.92	2107.27
551.28	2114.32
551.64	2121.29
551.99	2127.69
552.35	2133.66
552.70	2139.67
553.06	2145.50
553.41	2151.90
553.77	2157.85
554.13	2163.85
554.48	2169.99
554.84	2175.44
555.19	2180.57
555.55	2185.54
555.90	2189.90
556.26	2194.68
556.61	2199.41
556.97	2203.79
557.32	2207.84
557.68	2211.97
558.03	2216.24
558.39	2219.80
558.74	2224.51
559.10	2228.54
559.45	2232.27
559.81	2236.56
560.16	2240.43
560.52	2243.65
560.87	2247.08
561.23	2249.89
561.58	2252.94
561.94	2255.42
562.29	2257.84
562.64	2260.56
563.00	2263.26
563.35	2266.75
563.71	2269.90
564.06	2273.16
564.42	2275.92
564.77	2278.47
565.12	2280.90
565.48	2282.75
565.83	2284.76
566.19	2285.97
566.54	2286.78
566.89	2287.88
567.25	2288.60
567.60	2289.92
567.96	2291.72
568.31	2292.60
568.66	2293.62
569.02	2294.03
569.37	2294.48
569.72	2295.42
570.08	2295.71
570.43	2295.75
570.78	2295.28
571.14	2293.87
571.49	2292.56
571.84	2292.43
572.20	2291.39
572.55	2290.44
572.90	2289.01
573.26	2287.79
573.61	2286.16
573.96	2284.51
574.31	2281.64
574.67	2278.68
575.02	2275.14
575.37	2271.88
575.72	2268.14
576.08	2264.83
576.43	2261.67
576.78	2258.01
577.13	2254.81
577.49	2251.68
577.84	2248.31
578.19	2244.74
578.54	2241.18
578.90	2236.99
579.25	2231.40
579.60	2226.50
579.95	2221.35
580.30	2216.40
580.66	2211.21
581.01	2206.37
581.36	2201.58
581.71	2197.55
582.06	2193.18
582.42	2188.70
582.77	2183.50
583.12	2178.99
583.47	2174.37
583.82	2169.52
584.17	2164.41
584.53	2158.99
584.88	2153.42
585.23	2147.79
585.58	2142.20
585.93	2136.81
586.28	2132.19
586.63	2127.11
586.98	2122.10
587.34	2117.55
587.69	2112.82
588.04	2107.65
588.39	2102.14
588.74	2095.54
589.09	2089.33
589.44	2082.64
589.79	2076.67
590.14	2071.15
590.49	2064.70
590.84	2058.37
591.19	2052.30
591.54	2045.91
591.89	2038.54
592.25	2031.74
592.60	2024.53
592.95	2017.09
593.30	2009.83
593.65	2002.39
594.00	1995.60
594.35	1988.40
594.70	1980.44
595.05	1973.18
595.40	1966.02
595.75	1958.46
596.10	1952.53
596.45	1945.96
596.80	1939.96
597.15	1933.61
597.50	1926.63
597.85	1920.10
598.19	1913.51
598.54	1906.36
598.89	1899.83
599.24	1894.06
599.59	1887.52
599.94	1881.35
600.29	1875.12
600.64	1868.42
600.99	1860.87
601.34	1853.95
601.69	1847.07
602.04	1840.36
602.39	1832.97
602.74	1825.99
603.08	1819.27
603.43	1812.55
603.78	1805.18
604.13	1797.89
604.48	1790.45
604.83	1783.53
605.18	1776.65
605.53	1768.65
605.87	1760.84
606.22	1753.52
606.57	1745.60
606.92	1738.25
607.27	1731.20
607.62	1724.34
607.96	1717.17
608.31	1710.59
608.66	1703.07
609.01	1695.53
609.36	1687.93
609.70	1679.99
610.05	1672.02
610.40	1664.33
610.75	1655.88
611.10	1648.24
611.44	1639.83
611.79	1631.89
612.14	1623.20
612.49	1614.03
612.83	1605.73
613.18	1597.60
613.53	1589.52
613.88	1580.94
614.22	1572.69
614.57	1564.13
614.92	1556.05
615.27	1548.46
615.61	1540.20
615.96	1532.25
616.31	1524.60
616.65	1517.22
617.00	1509.65
617.35	1501.99
617.70	1493.74
618.04	1485.36
618.39	1477.19
618.74	1469.48
619.08	1461.10
619.43	1453.54
619.78	1446.65
620.12	1439.33
620.47	1431.72
620.82	1423.45
621.16	1416.10
621.51	1408.45
621.85	1400.76
622.20	1392.22
622.55	1383.90
622.89	1376.02
623.24	1368.23
623.59	1360.89
623.93	1353.33
624.28	1346.13
624.62	1338.62
624.97	1331.45
625.32	1324.63
625.66	1317.56
626.01	1310.41
626.35	1303.02
626.70	1295.26
627.04	1287.56
627.39	1279.93
627.73	1272.57
628.08	1265.73
628.43	1258.47
628.77	1251.10
629.12	1243.50
629.46	1236.35
629.81	1228.94
630.15	1221.76
630.50	1214.37
630.84	1206.13
631.19	1198.14
631.53	1190.57
631.88	1183.03
632.22	1175.47
632.57	1168.19
632.91	1160.66
633.26	1153.34
633.60	1146.01
633.95	1138.87
634.29	1131.88
634.64	1125.17
634.98	1117.73
635.32	1110.47
635.67	1103.72
636.01	1097.12
636.36	1090.32
636.70	1083.67
637.05	1077.05
637.39	1070.46
637.73	1063.93
638.08	1058.00
638.42	1052.04
638.77	1045.68
639.11	1039.09
639.45	1032.56
639.80	1025.85
640.14	1019.43
640.49	1012.76
640.83	1006.43
641.17	1000.24
641.52	993.81
641.86	987.28
642.20	981.44
642.55	975.17
642.89	968.79
643.23	962.36
643.58	956.63
643.92	950.59
644.26	944.53
644.61	938.56
644.95	932.62
645.29	926.09
645.64	919.35
645.98	912.99
646.32	907.13
646.66	901.16
647.01	895.48
647.35	889.75
647.69	883.88
648.04	878.36
648.38	872.56
648.72	866.57
649.06	860.55
649.41	854.72
649.75	848.79
650.09	842.87
650.43	836.97
650.78	830.80
651.12	824.78
651.46	819.10
651.80	813.28
652.14	807.88
652.49	802.50
652.83	797.39
653.17	791.64
653.51	785.94
653.85	780.50
654.20	774.72
654.54	768.75
654.88	763.13
655.22	757.26
655.56	751.54
655.90	746.12
656.25	740.97
656.59	735.60
656.93	730.53
657.27	725.27
657.61	719.85
657.95	714.73
658.29	709.75
658.64	704.49
658.98	699.25
659.32	693.79
659.66	688.57
660.00	683.23
660.34	678.29
660.68	673.34
661.02	668.31
661.36	663.61
661.70	659.12
662.05	654.70
662.39	650.36
662.73	645.89
663.07	641.47
663.41	636.88
663.75	632.38
664.09	627.78
664.43	623.48
664.77	619.33
665.11	615.04
665.45	610.79
665.79	606.65
666.13	602.53
666.47	598.43
666.81	594.32
667.15	590.16
667.49	586.22
667.83	582.47
668.17	578.57
668.51	574.54
668.85	570.51
669.19	566.70
669.53	562.85
669.87	558.96
670.21	555.27
670.55	551.68
670.89	548.28
671.23	544.84
671.57	541.26
671.91	537.76
672.25	534.23
672.58	530.71
672.92	527.27
673.26	524.09
673.60	520.94
673.94	517.74
674.28	514.88
674.62	511.94
674.96	508.81
675.30	505.88
675.64	502.93
675.97	500.15
676.31	497.29
676.65	494.40
676.99	491.66
677.33	488.81
677.67	485.98
678.01	482.91
678.34	479.93
678.68	477.11
679.02	474.25
679.36	471.49
679.70	468.84
680.04	466.14
680.37	463.26
680.71	460.45
681.05	457.79
681.39	455.05
681.73	452.40
682.06	449.85
682.40	447.25
682.74	444.74
683.08	442.18
683.42	439.53
683.75	437.02
684.09	434.44
684.43	431.88
684.77	429.42
685.10	427.09
685.44	424.78
685.78	422.44
686.12	420.18
686.45	417.92
686.79	415.58
687.13	413.37
687.46	411.18
687.80	409.03
688.14	406.87
688.48	404.80
688.81	402.57
689.15	400.40
689.49	398.24
689.82	396.10
690.16	393.98
690.50	392.03
690.83	390.05
691.17	388.10
691.51	386.26
691.84	384.43
692.18	382.44
692.52	380.43
692.85	378.48
693.19	376.58
693.52	374.69
693.86	372.87
694.20	371.05
694.53	369.23
694.87	367.35
695.21	365.54
695.54	363.72
695.88	361.99
696.21	360.27
696.55	358.59
696.88	356.93
697.22	355.31
697.56	353.68
697.89	352.04
698.23	350.46
698.56	348.85
698.90	347.24
699.23	345.62
699.57	344.08
699.90	342.55
700.24	341.01
700.58	339.51
700.91	338.00
701.25	336.57
701.58	335.22
701.92	333.85
702.25	332.43
702.59	331.03
702.92	329.68
703.26	328.35
703.59	327.10
703.93	325.88
704.26	324.60
704.60	323.27
704.93	321.98
705.26	320.71
705.60	319.55
705.93	318.37
706.27	317.37
706.60	316.32
706.94	315.26
707.27	314.12
707.61	313.05
707.94	312.03
708.27	310.95
708.61	309.86
708.94	308.90
709.28	307.94
709.61	306.99
709.94	306.02
710.28	305.02
710.61	304.02
710.95	302.97
711.28	302.09
711.61	301.16
711.95	300.24
712.28	299.33
712.61	298.31
712.95	297.40
713.28	296.48
713.61	295.57
713.95	294.67
714.28	293.90
714.61	293.03
714.95	292.16
715.28	291.30
715.61	290.42
715.95	289.56
716.28	288.70
716.61	287.85
716.95	287.09
717.28	286.36
717.61	285.63
717.94	284.87
718.28	284.04
718.61	283.32
718.94	282.63
719.27	281.91
719.61	281.27
719.94	280.58
720.27	279.83
720.60	279.15
720.94	278.52
721.27	277.87
721.60	277.30
721.93	276.73
722.27	276.19
722.60	275.67
722.93	275.07
723.26	274.51
723.59	273.97
723.93	273.40
724.26	272.85
724.59	272.29
724.92	271.80
725.25	271.32
725.59	270.80
725.92	270.31
726.25	269.80
726.58	269.31
726.91	268.81
727.24	268.37
727.57	267.93
727.91	267.42
728.24	266.96
728.57	266.46
728.90	265.99
729.23	265.48
729.56	265.05
729.89	264.57
730.22	264.13
730.55	263.67
730.89	263.20
731.22	262.74
731.55	262.29
731.88	261.87
732.21	261.43
732.54	261.00
732.87	260.57
733.20	260.17
733.53	259.78
733.86	259.42
734.19	259.02
734.52	258.63
734.85	258.30
735.18	257.86
735.51	257.50
735.84	257.16
736.17	256.79
736.50	256.39
736.83	256.16
737.16	255.81
737.49	255.49
737.82	255.15
738.15	254.82
738.48	254.51
738.81	254.17
739.14	253.82
739.47	253.48
739.80	253.13
740.13	252.87
740.46	252.54
740.79	252.24
741.12	251.94
741.45	251.63
741.78	251.28
742.11	251.03
742.44	250.71
742.77	250.38
743.10	250.11
743.43	249.79
743.75	249.41
744.08	249.27
744.41	249.02
744.74	248.76
745.07	248.48
745.40	248.23
745.73	247.99
746.06	247.76
746.39	247.53
746.71	247.27
747.04	246.98
747.37	246.73
747.70	246.47
748.03	246.23
748.36	245.97
748.68	245.74
749.01	245.49
749.34	245.25
749.67	245.03
750.00	244.82
750.33	244.68
750.65	244.49
750.98	244.13
751.31	243.91
751.64	243.70
751.97	243.54
752.29	243.30
752.62	243.00
752.95	242.77
753.28	242.52
753.60	242.33
753.93	242.14
754.26	241.92
754.59	241.70
754.91	241.47
755.24	241.31
755.57	241.13
755.90	240.94
756.22	240.77
756.55	240.53
756.88	240.33
757.20	240.04
757.53	239.83
757.86	239.66
758.19	239.49
758.51	239.30
758.84	239.07
759.17	238.91
759.49	238.77
759.82	238.65
760.15	238.54
760.47	238.39
760.80	238.23
761.13	238.10
761.45	237.96
761.78	237.81
762.11	237.62
762.43	237.49
762.76	237.36
763.08	237.20
763.41	237.09
763.74	236.95
764.06	236.85
764.39	236.68
764.71	236.52
765.04	236.37
765.37	236.22
765.69	236.10
766.02	235.97
766.34	235.85
766.67	235.74
767.00	235.64
767.32	235.59
767.65	235.55
767.97	235.41
768.30	235.24
768.62	235.16
768.95	235.07
769.27	234.94
769.60	234.83
769.92	234.75
770.25	234.64
770.57	234.52
770.90	234.41
771.22	234.34
771.55	234.29
771.87	234.16
772.20	234.06
772.52	234.04
772.85	234.06
773.17	233.96
773.50	233.83
773.82	233.72
774.15	233.57
774.47	233.42
774.80	233.31
775.12	233.27
775.45	233.14
775.77	233.03
776.09	232.98
776.42	232.90
776.74	232.82
777.07	232.74
777.39	232.67
777.72	232.59
778.04	232.55
778.36	232.43
778.69	232.38
779.01	232.36
779.33	232.19
779.66	232.03
779.98	231.97
780.31	231.88
780.63	231.85
780.95	231.77
781.28	231.71
781.60	231.67
781.92	231.60
782.25	231.58
782.57	231.56
782.89	231.51
783.22	231.43
783.54	231.39
783.86	231.35
784.19	231.27
784.51	231.26
784.83	231.18
785.16	231.15
785.48	231.13
785.80	231.09
786.12	231.08
786.45	231.03
786.77	231.03
787.09	231.01
787.42	230.96
787.74	230.93
788.06	230.88
788.38	230.83
788.71	230.77
789.03	230.73
789.35	230.70
789.67	230.62
789.99	230.60
790.32	230.53
790.64	230.51
790.96	230.56
791.28	230.47
791.61	230.43
791.93	230.38
792.25	230.34
792.57	230.32
792.89	230.27
793.21	230.24
793.54	230.15
793.86	230.11
794.18	230.04
794.50	229.97
794.82	229.90
795.14	229.87
795.47	229.86
795.79	229.79
796.11	229.73
796.43	229.70
796.75	229.67
797.07	229.64
797.39	229.59
797.71	229.48
798.04	229.46
798.36	229.43
798.68	229.43
799.00	229.43
799.32	229.38
799.64	229.38
799.96	229.34
800.28	229.35
800.60	229.31
800.92	229.30
801.24	229.31
801.56	229.32
801.89	229.29
802.21	229.29
802.53	229.27
802.85	229.24
803.17	229.26
803.49	229.19
803.81	229.16
804.13	229.11
804.45	229.07
804.77	229.05
805.09	229.02
805.41	229.00
805.73	228.92
806.05	228.86
806.37	228.82
806.69	228.78
807.01	228.72
807.33	228.67
807.65	228.62
807.97	228.60
808.28	228.59
808.60	228.55
808.92	228.45
809.24	228.51
809.56	228.51
809.88	228.43
810.20	228.43
810.52	228.40
810.84	228.39
811.16	228.37
811.48	228.31
811.80	228.32
812.12	228.27
812.43	228.24
812.75	228.22
813.07	228.15
813.39	228.12
813.71	228.09
814.03	228.08
814.35	228.04
814.67	227.99
814.98	227.96
815.30	227.92
815.62	227.90
815.94	227.79
816.26	227.79
816.58	227.76
816.89	227.74
817.21	227.71
817.53	227.67
817.85	227.63
818.17	227.61
818.48	227.53
818.80	227.55
819.12	227.52
819.44	227.50
819.76	227.50
820.07	227.50
820.39	227.50
820.71	227.49
821.03	227.51
821.34	227.46
821.66	227.46
821.98	227.47
822.30	227.48
822.61	227.53
822.93	227.50
823.25	227.48
823.57	227.46
823.88	227.47
824.20	227.51
824.52	227.49
824.83	227.49
825.15	227.51
825.47	227.45
825.79	227.47
826.10	227.46
826.42	227.48
826.74	227.49
827.05	227.48
827.37	227.48
827.69	227.46
828.00	227.49
828.32	227.49
828.64	227.44
828.95	227.47
829.27	227.46
829.58	227.40
829.90	227.42
830.22	227.47
830.53	227.44
830.85	227.38
831.17	227.37
831.48	227.39
831.80	227.37
832.11	227.36
832.43	227.32
832.75	227.29
833.06	227.32
833.38	227.26
833.69	227.22
834.01	227.24
834.32	227.24
834.64	227.21
834.96	227.19
835.27	227.24
835.59	227.19
835.90	227.14
836.22	227.15
836.53	227.14
836.85	227.07
837.16	227.14
837.48	227.17
837.79	227.19
838.11	227.16
838.42	227.17
838.74	227.19
839.05	227.21
839.37	227.20
839.68	227.11
840.00	227.12
840.31	227.12
840.63	227.09
840.94	227.06
841.26	227.03
841.57	227.00
841.88	226.98
842.20	226.97
842.51	226.96
842.83	226.96
843.14	227.04
843.46	227.04
843.77	226.99
844.08	226.97
844.40	226.92
844.71	226.92
845.03	226.91
845.34	226.91
845.65	226.88
845.97	226.89
846.28	226.89
846.60	226.88
846.91	226.88
847.22	226.85
847.54	226.81
847.85	226.82
848.16	226.81
848.48	226.78
848.79	226.83
849.10	226.84
849.42	226.80
849.73	226.69
850.04	226.67
850.36	226.60
850.67	226.60
850.98	226.62
851.30	226.61
851.61	226.62
851.92	226.60
852.23	226.64
852.55	226.63
852.86	226.65
853.17	226.66
853.49	226.66
853.80	226.69
854.11	226.74
854.42	226.76
854.74	226.75
855.05	226.75
855.36	226.68
855.67	226.68
855.99	226.71
856.30	226.82
856.61	226.85
856.92	226.84
857.23	226.82
857.55	226.81
857.86	226.85
858.17	226.88
858.48	226.85
858.79	226.79
859.11	226.80
859.42	226.74
859.73	226.73
860.04	226.70
860.35	226.69
860.66	226.63
860.98	226.61
861.29	226.63
861.60	226.64
861.91	226.65
862.22	226.61
862.53	226.59
862.84	226.46
863.16	226.45
863.47	226.46
863.78	226.47
864.09	226.47
864.40	226.43
864.71	226.38
865.02	226.39
865.33	226.40
865.64	226.35
865.95	226.39
866.27	226.42
866.58	226.42
866.89	226.43
867.20	226.43
867.51	226.41
867.82	226.39
868.13	226.42
868.44	226.39
868.75	226.44
869.06	226.44
869.37	226.49
869.68	226.45
869.99	226.46
870.30	226.44
870.61	226.43
870.92	226.41
871.23	226.42
871.54	226.41
871.85	226.45
872.16	226.50
872.47	226.49
872.78	226.48
873.09	226.50
873.40	226.44
873.71	226.46
874.02	226.46
874.33	226.44
874.64	226.42
874.95	226.45
875.26	226.42
875.56	226.40
875.87	226.37
876.18	226.38
876.49	226.49
876.80	226.49
877.11	226.49
877.42	226.50
877.73	226.47
878.04	226.47
878.35	226.47
878.66	226.45
878.96	226.44
879.27	226.42
879.58	226.38
879.89	226.45
880.20	226.45
880.51	226.45
880.82	226.44
881.12	226.42
881.43	226.40
881.74	226.39
882.05	226.41
882.36	226.39
882.67	226.43
882.97	226.32
883.28	226.31
883.59	226.32
883.90	226.33
884.21	226.38
884.51	226.38
884.82	226.35
885.13	226.37
885.44	226.40
885.74	226.41
886.05	226.42
886.36	226.39
886.67	226.37
886.98	226.43
887.28	226.48
887.59	226.48
887.90	226.47
888.20	226.50
888.51	226.51
888.82	226.54
889.13	226.51
889.43	226.59
889.74	226.59
890.05	226.59
890.35	226.57
890.66	226.55
890.97	226.52
891.28	226.53
891.58	226.52
891.89	226.46
892.20	226.43
892.50	226.43
892.81	226.44
893.12	226.41
893.42	226.39
893.73	226.37
894.04	226.34
894.34	226.35
894.65	226.30
894.95	226.28
895.26	226.25
895.57	226.29
895.87	226.21
896.18	226.20
896.48	226.18
896.79	226.19
897.10	226.18
897.40	226.20
897.71	226.19
898.01	226.16
898.32	226.17
898.63	226.18
898.93	226.16
899.24	226.15
899.54	226.18
899.85	226.15
900.15	226.15
900.46	226.16
900.76	226.16
901.07	226.16
901.38	226.14
901.68	226.16
901.99	226.11
902.29	226.09
902.60	226.08
902.90	226.06
903.21	226.02
903.51	225.99
903.82	225.97
904.12	225.96
904.43	225.97
904.73	225.98
905.03	225.97
905.34	226.07
905.64	226.05
905.95	226.02
906.25	225.97
906.56	225.94
906.86	225.95
907.17	225.95
907.47	225.95
907.77	225.93
908.08	225.91
908.38	225.90
908.69	225.92
908.99	225.94
909.30	225.94
909.60	225.96
909.90	225.98
910.21	225.97
910.51	225.93
910.81	225.91
911.12	225.90
911.42	225.94
911.73	225.85
912.03	225.82
912.33	225.85
912.64	225.86
912.94	225.84
913.24	225.82
913.55	225.83
913.85	225.82
914.15	225.84
914.46	225.86
914.76	225.86
915.06	225.83
915.37	225.80
915.67	225.83
915.97	225.84
916.27	225.84
916.58	225.83
916.88	225.85
917.18	225.87
917.49	225.94
917.79	225.90
918.09	225.90
918.39	225.94
918.70	225.94
919.00	225.97
919.30	226.03
919.60	226.01
919.91	225.99
920.21	226.01
920.51	225.98
920.81	225.98
921.12	226.01
921.42	226.03
921.72	226.03
922.02	226.02
922.32	226.05
922.63	226.03
922.93	226.07
923.23	226.08
923.53	226.06
923.83	226.02
924.13	226.04
924.44	226.05
924.74	226.10
925.04	226.14
925.34	226.11
925.64	226.07
925.94	226.11
926.24	226.17
926.55	226.18
926.85	226.23
927.15	226.22
927.45	226.20
927.75	226.20
928.05	226.23
928.35	226.23
928.65	226.22
928.95	226.24
929.26	226.23
929.56	226.24
929.86	226.26
930.16	226.25
930.46	226.25
930.76	226.26
931.06	226.20
931.36	226.16
931.66	226.24
931.96	226.22
932.26	226.22
932.56	226.19
932.86	226.20
933.16	226.19
933.46	226.17
933.76	226.14
934.06	226.11
934.36	226.13
934.66	226.17
934.96	226.15
935.26	226.13
935.56	226.14
935.86	226.12
936.16	226.09
936.46	226.08
936.76	226.07
937.06	226.02
937.36	226.03
937.66	226.03
937.96	225.97
938.26	225.93
938.56	225.92
938.86	225.93
939.16	225.91
939.46	225.90
939.76	225.93
940.06	225.92
940.35	225.93
940.65	225.89
940.95	225.86
941.25	225.84
941.55	225.84
941.85	225.84
942.15	225.87
942.45	225.88
942.75	225.89
943.04	225.89
943.34	225.91
943.64	225.88
943.94	225.84
944.24	225.81
944.54	225.85
944.84	225.86
945.13	225.82
945.43	225.77
945.73	225.74
946.03	225.73
946.33	225.74
946.62	225.72
946.92	225.72
947.22	225.72
947.52	225.71
947.82	225.70
948.11	225.73
948.41	225.69
948.71	225.70
949.01	225.68
949.31	225.67
949.60	225.68
949.90	225.71
950.20	225.73
950.50	225.76
950.79	225.77
951.09	225.79
951.39	225.80
951.69	225.82
951.98	225.85
952.28	225.85
952.58	225.84
952.87	225.85
953.17	225.86
953.47	225.84
953.76	225.87
954.06	225.86
954.36	225.81
954.66	225.82
954.95	225.84
955.25	225.86
955.55	225.89
955.84	225.86
956.14	225.89
956.44	225.89
956.73	225.87
957.03	225.87
957.32	225.86
957.62	225.85
957.92	225.89
958.21	225.88
958.51	225.99
958.81	226.04
959.10	226.08
959.40	226.13
959.69	226.16
959.99	226.15
960.29	226.17
960.58	226.20
960.88	226.27
961.17	226.23
961.47	226.25
961.76	226.24
962.06	226.26
962.36	226.25
962.65	226.27
962.95	226.30
963.24	226.30
963.54	226.31
963.83	226.34
964.13	226.33
964.42	226.33
964.72	226.27
965.01	226.26
965.31	226.25
965.60	226.22
965.90	226.29
966.19	226.27
966.49	226.28
966.78	226.27
967.08	226.24
967.37	226.24
967.67	226.23
967.96	226.25
968.26	226.24
968.55	226.27
968.85	226.27
969.14	226.26
969.43	226.25
969.73	226.25
970.02	226.24
970.32	226.25
970.61	226.25
970.91	226.21
971.20	226.19
971.49	226.18
971.79	226.20
972.08	226.10
972.38	226.14
972.67	226.15
972.96	226.15
973.26	226.16
973.55	226.19
973.85	226.18
974.14	226.19
974.43	226.19
974.73	226.16
975.02	226.12
975.31	226.13
975.61	226.11
975.90	226.10
976.19	226.09
976.49	226.10
976.78	226.12
977.07	226.11
977.37	226.12
977.66	226.12
977.95	226.07
978.24	226.08
978.54	226.11
978.83	226.13
979.12	226.14
979.42	226.11
979.71	226.09
980.00	226.07
980.29	226.06
980.59	226.05
980.88	226.06
981.17	226.06
981.46	226.04
981.76	226.08
982.05	226.08
982.34	226.10
982.63	226.09
982.93	226.06
983.22	226.12
983.51	226.13
983.80	226.13
984.09	226.19
984.39	226.20
984.68	226.15
984.97	226.12
985.26	226.13
985.55	226.16
985.85	226.15
986.14	226.16
986.43	226.18
986.72	226.18
987.01	226.13
987.30	226.15
987.59	226.15
987.89	226.12
988.18	226.11
988.47	226.11
988.76	226.12
989.05	226.12
989.34	226.09
989.63	226.12
989.92	226.11
990.22	226.05
990.51	226.04
990.80	226.04
991.09	226.01
991.38	226.02
991.67	226.01
991.96	226.04
992.25	226.05
992.54	226.04
992.83	226.06
993.12	226.09
993.41	226.11
993.70	226.19
993.99	226.23
994.28	226.24
994.58	226.26
994.87	226.21
995.16	226.19
995.45	226.18
995.74	226.14
996.03	226.19
996.32	226.22
996.61	226.26
996.90	226.27
997.19	226.29
997.48	226.29
997.77	226.28
998.06	226.23
998.34	226.25
998.63	226.24
998.92	226.22
999.21	226.18
999.50	226.18
999.79	226.12
1000.08	226.12
1000.37	226.13
1000.66	226.12
1000.95	226.18
1001.24	226.20
1001.53	226.22
1001.82	226.21
1002.11	226.15
1002.40	226.18
1002.68	226.22
1002.97	226.28
1003.26	226.29
1003.55	226.23
1003.84	226.24
1004.13	226.31
1004.42	226.29
1004.71	226.30
1004.99	226.30
1005.28	226.38
1005.57	226.38
1005.86	226.41
1006.15	226.40
1006.44	226.34
1006.72	226.33
1007.01	226.29
1007.30	226.32
1007.59	226.33
1007.88	226.32
1008.17	226.32
1008.45	226.29
1008.74	226.24
1009.03	226.17
1009.32	226.13
1009.60	226.11
1009.89	226.10
1010.18	226.02
1010.47	226.01
1010.76	226.00
1011.04	225.98
1011.33	225.92
1011.62	225.93
1011.91	225.90
1012.19	225.87
1012.48	225.92
1012.77	225.90
1013.05	225.96
1013.34	225.94
1013.63	225.90
1013.92	225.89
1014.20	225.89
1014.49	225.87
1014.78	225.85
1015.06	225.83
1015.35	225.80
1015.64	225.86
1015.92	225.89
1016.21	225.90
1016.50	225.89
1016.78	225.89
1017.07	225.90
1017.36	225.88
1017.64	225.84
1017.93	225.83
1018.22	225.85
1018.50	225.84
1018.79	225.84
1019.08	225.79
1019.36	225.77
1019.65	225.76
1019.93	225.81
1020.22	225.86
1020.51	225.94
1020.79	225.93
1021.08	226.08
1021.36	226.08
1021.65	225.59
1021.94	225.91
1022.22	225.88
1022.51	225.81
1022.79	226.63
1023.08	226.56
1023.36	227.39
1023.65	225.50
>>>>>End Processed Spectral Data<<<<<
