SpectraSuite Data File
++++++++++++++++++++++++++++++++++++
Date: Fri Feb 01 16:22:52 EST 2013
User: group
Dark Spectrum Present: No
Reference Spectrum Present: No
Number of Sampled Component Spectra: 1
Spectrometers: USB2E7196
Integration Time (usec): 35000 (USB2E7196)
Spectra Averaged: 100 (USB2E7196)
Boxcar Smoothing: 10 (USB2E7196)
Correct for Electrical Dark: No (USB2E7196)
Strobe/Lamp Enabled: No (USB2E7196)
Correct for Detector Non-linearity: No (USB2E7196)
Correct for Stray Light: No (USB2E7196)
Number of Pixels in Processed Spectrum: 2048
>>>>>Begin Processed Spectral Data<<<<<
339.09	0.00
339.48	214.28
339.86	215.77
340.24	217.34
340.63	218.24
341.01	220.81
341.39	221.35
341.78	221.88
342.16	223.09
342.54	223.85
342.93	212.43
343.31	223.16
343.69	223.69
344.07	224.13
344.46	224.56
344.84	224.92
345.22	225.14
345.60	225.35
345.99	225.56
346.37	225.68
346.75	225.76
347.13	225.85
347.52	225.90
347.90	225.97
348.28	226.00
348.66	226.05
349.05	226.09
349.43	226.10
349.81	226.14
350.19	226.19
350.57	226.23
350.96	226.28
351.34	226.36
351.72	226.47
352.10	226.58
352.48	226.64
352.87	226.71
353.25	226.79
353.63	226.90
354.01	226.96
354.39	227.06
354.77	227.17
355.15	227.25
355.54	227.31
355.92	227.34
356.30	227.41
356.68	227.53
357.06	227.58
357.44	227.63
357.82	227.70
358.20	227.77
358.58	227.84
358.97	227.91
359.35	227.98
359.73	228.02
360.11	228.09
360.49	228.13
360.87	228.19
361.25	228.24
361.63	228.29
362.01	228.34
362.39	228.38
362.77	228.43
363.15	228.46
363.53	228.50
363.91	228.53
364.29	228.56
364.67	228.50
365.05	228.48
365.43	228.51
365.81	228.52
366.19	228.55
366.57	228.56
366.95	228.57
367.33	228.56
367.71	228.58
368.09	228.57
368.47	228.56
368.85	228.53
369.23	228.51
369.61	228.46
369.99	228.46
370.37	228.44
370.75	228.46
371.13	228.44
371.51	228.40
371.89	228.38
372.27	228.34
372.65	228.30
373.03	228.29
373.41	228.23
373.78	228.17
374.16	228.05
374.54	227.98
374.92	227.94
375.30	227.84
375.68	227.73
376.06	227.68
376.44	227.61
376.82	227.52
377.19	227.48
377.57	227.40
377.95	227.31
378.33	227.22
378.71	227.08
379.09	226.99
379.47	226.93
379.84	226.84
380.22	226.79
380.60	226.69
380.98	226.61
381.36	226.54
381.73	226.46
382.11	226.44
382.49	226.40
382.87	226.28
383.25	226.25
383.62	226.31
384.00	226.25
384.38	226.16
384.76	226.13
385.13	226.08
385.51	226.04
385.89	225.97
386.27	225.93
386.64	225.89
387.02	225.82
387.40	225.76
387.78	225.75
388.15	225.70
388.53	225.69
388.91	225.65
389.29	225.62
389.66	225.62
390.04	225.57
390.42	225.56
390.79	225.53
391.17	225.51
391.55	225.40
391.92	225.36
392.30	225.37
392.68	225.37
393.05	225.39
393.43	225.41
393.81	225.42
394.18	225.40
394.56	225.39
394.94	225.42
395.31	225.44
395.69	225.48
396.06	225.51
396.44	225.53
396.82	225.55
397.19	225.63
397.57	225.64
397.95	225.70
398.32	225.71
398.70	225.79
399.07	225.89
399.45	225.92
399.82	225.99
400.20	226.07
400.58	226.12
400.95	226.18
401.33	226.30
401.70	226.45
402.08	226.56
402.45	226.68
402.83	226.80
403.20	226.90
403.58	226.96
403.95	227.07
404.33	227.21
404.71	227.33
405.08	227.52
405.46	227.65
405.83	227.80
406.21	227.95
406.58	228.11
406.96	228.25
407.33	228.44
407.70	228.65
408.08	228.93
408.45	229.14
408.83	229.36
409.20	229.51
409.58	229.70
409.95	229.97
410.33	230.23
410.70	230.49
411.08	230.80
411.45	231.15
411.82	231.47
412.20	231.84
412.57	232.27
412.95	232.54
413.32	232.98
413.69	233.36
414.07	233.80
414.44	234.23
414.82	234.70
415.19	235.23
415.56	235.75
415.94	236.28
416.31	236.91
416.68	237.55
417.06	238.26
417.43	238.93
417.81	239.67
418.18	240.44
418.55	241.24
418.93	242.11
419.30	243.00
419.67	243.93
420.04	244.84
420.42	245.82
420.79	246.99
421.16	248.14
421.54	249.36
421.91	250.56
422.28	251.84
422.66	253.17
423.03	254.52
423.40	255.85
423.77	257.24
424.15	258.68
424.52	260.14
424.89	261.74
425.26	263.28
425.64	264.67
426.01	266.28
426.38	267.96
426.75	269.62
427.13	271.36
427.50	273.14
427.87	275.03
428.24	276.90
428.61	278.65
428.99	280.55
429.36	282.65
429.73	284.73
430.10	286.74
430.47	288.80
430.85	290.84
431.22	293.07
431.59	295.42
431.96	297.62
432.33	300.11
432.70	302.50
433.08	305.28
433.45	307.92
433.82	310.48
434.19	313.31
434.56	316.07
434.93	318.73
435.30	321.34
435.68	324.24
436.05	327.04
436.42	329.84
436.79	332.39
437.16	335.10
437.53	337.90
437.90	340.71
438.27	343.45
438.64	346.25
439.01	348.83
439.38	351.09
439.75	353.29
440.13	355.78
440.50	358.09
440.87	360.00
441.24	361.93
441.61	364.10
441.98	365.59
442.35	367.38
442.72	369.20
443.09	371.00
443.46	371.98
443.83	372.56
444.20	373.07
444.57	373.85
444.94	374.13
445.31	374.49
445.68	374.83
446.05	374.86
446.42	374.51
446.79	374.11
447.16	373.64
447.53	373.27
447.90	372.12
448.27	370.95
448.64	369.33
449.01	368.19
449.37	366.21
449.74	364.34
450.11	362.13
450.48	359.69
450.85	357.17
451.22	355.03
451.59	353.02
451.96	351.07
452.33	348.49
452.70	346.14
453.07	343.27
453.43	340.40
453.80	337.66
454.17	335.01
454.54	332.43
454.91	329.79
455.28	327.17
455.65	324.66
456.02	322.21
456.38	320.06
456.75	317.48
457.12	315.33
457.49	313.14
457.86	310.96
458.23	309.11
458.59	307.06
458.96	304.99
459.33	303.18
459.70	301.32
460.07	299.84
460.43	298.17
460.80	296.62
461.17	295.21
461.54	293.80
461.91	292.37
462.27	291.00
462.64	289.72
463.01	288.40
463.38	287.15
463.74	285.84
464.11	284.70
464.48	283.67
464.85	282.51
465.21	281.68
465.58	280.77
465.95	279.70
466.32	278.79
466.68	277.93
467.05	277.05
467.42	276.21
467.78	275.25
468.15	274.36
468.52	273.67
468.88	272.81
469.25	272.01
469.62	271.40
469.98	270.69
470.35	270.07
470.72	269.46
471.08	268.80
471.45	268.25
471.82	267.72
472.18	267.12
472.55	266.69
472.92	266.11
473.28	265.67
473.65	265.22
474.02	264.81
474.38	264.42
474.75	264.07
475.11	263.71
475.48	263.44
475.85	263.18
476.21	262.96
476.58	262.79
476.94	262.63
477.31	262.46
477.67	262.33
478.04	262.20
478.41	262.15
478.77	262.18
479.14	262.15
479.50	262.16
479.87	262.25
480.23	262.33
480.60	262.43
480.96	262.54
481.33	262.76
481.69	262.97
482.06	263.15
482.42	263.33
482.79	263.57
483.15	263.89
483.52	264.28
483.88	264.62
484.25	264.97
484.61	265.40
484.98	265.88
485.34	266.41
485.71	267.03
486.07	267.64
486.44	268.20
486.80	268.88
487.17	269.61
487.53	270.44
487.90	271.30
488.26	272.24
488.62	273.21
488.99	274.17
489.35	275.20
489.72	276.34
490.08	277.60
490.44	278.85
490.81	280.23
491.17	281.60
491.54	283.07
491.90	284.62
492.26	286.27
492.63	287.98
492.99	289.77
493.36	291.63
493.72	293.65
494.08	295.81
494.45	298.07
494.81	300.44
495.17	302.87
495.54	305.46
495.90	308.16
496.26	310.95
496.63	313.92
496.99	317.03
497.35	320.30
497.72	323.64
498.08	327.18
498.44	330.88
498.80	334.81
499.17	338.83
499.53	343.05
499.89	347.48
500.26	352.02
500.62	356.71
500.98	361.73
501.34	366.84
501.71	372.16
502.07	377.66
502.43	383.32
502.79	389.12
503.16	395.21
503.52	401.54
503.88	408.01
504.24	414.64
504.60	421.55
504.97	428.72
505.33	436.17
505.69	443.91
506.05	451.70
506.41	459.65
506.78	467.85
507.14	476.36
507.50	485.02
507.86	494.10
508.22	503.32
508.59	512.48
508.95	522.18
509.31	532.03
509.67	542.14
510.03	552.39
510.39	563.00
510.75	573.81
511.12	584.75
511.48	596.01
511.84	607.51
512.20	619.05
512.56	630.99
512.92	643.09
513.28	655.43
513.64	667.81
514.00	680.45
514.37	693.36
514.73	706.42
515.09	719.49
515.45	732.69
515.81	746.32
516.17	760.37
516.53	774.38
516.89	788.53
517.25	802.68
517.61	817.10
517.97	831.61
518.33	845.95
518.69	860.61
519.05	875.53
519.41	890.62
519.77	905.98
520.13	921.37
520.49	936.70
520.85	952.09
521.21	967.79
521.57	984.03
521.93	999.74
522.29	1016.03
522.65	1032.18
523.01	1048.38
523.37	1064.30
523.73	1080.36
524.09	1096.33
524.45	1112.48
524.81	1128.95
525.17	1145.65
525.53	1162.35
525.89	1179.14
526.25	1195.81
526.61	1212.13
526.97	1228.81
527.33	1245.32
527.68	1261.80
528.04	1278.23
528.40	1294.74
528.76	1311.73
529.12	1328.24
529.48	1345.07
529.84	1360.98
530.20	1377.62
530.56	1394.44
530.91	1411.78
531.27	1428.52
531.63	1444.96
531.99	1461.51
532.35	1477.43
532.71	1493.21
533.07	1509.49
533.42	1525.32
533.78	1541.42
534.14	1557.76
534.50	1573.02
534.86	1588.86
535.21	1604.02
535.57	1619.89
535.93	1635.25
536.29	1649.97
536.65	1664.86
537.00	1679.50
537.36	1694.78
537.72	1709.10
538.08	1723.52
538.44	1737.20
538.79	1750.98
539.15	1764.58
539.51	1778.32
539.87	1792.59
540.22	1806.29
540.58	1819.98
540.94	1833.27
541.29	1846.09
541.65	1858.57
542.01	1871.64
542.37	1883.85
542.72	1896.26
543.08	1907.96
543.44	1920.31
543.79	1931.61
544.15	1942.60
544.51	1954.23
544.87	1965.06
545.22	1975.96
545.58	1986.13
545.94	1995.79
546.29	2005.51
546.65	2015.30
547.01	2024.43
547.36	2033.02
547.72	2041.39
548.07	2049.08
548.43	2057.25
548.79	2065.19
549.14	2072.65
549.50	2080.04
549.86	2087.64
550.21	2094.82
550.57	2101.84
550.92	2108.30
551.28	2115.22
551.64	2122.24
551.99	2128.63
552.35	2134.89
552.70	2141.01
553.06	2146.98
553.41	2153.32
553.77	2159.44
554.13	2165.44
554.48	2171.58
554.84	2177.10
555.19	2182.40
555.55	2187.66
555.90	2192.04
556.26	2196.91
556.61	2201.65
556.97	2206.00
557.32	2210.12
557.68	2214.24
558.03	2218.67
558.39	2222.43
558.74	2227.03
559.10	2230.92
559.45	2234.57
559.81	2238.70
560.16	2242.51
560.52	2245.73
560.87	2249.19
561.23	2251.71
561.58	2254.81
561.94	2257.25
562.29	2259.62
562.64	2262.38
563.00	2264.85
563.35	2268.30
563.71	2271.35
564.06	2274.60
564.42	2277.45
564.77	2280.02
565.12	2282.34
565.48	2284.20
565.83	2286.17
566.19	2287.55
566.54	2288.47
566.89	2289.58
567.25	2290.28
567.60	2291.58
567.96	2293.17
568.31	2293.97
568.66	2295.25
569.02	2295.71
569.37	2296.19
569.72	2297.27
570.08	2297.57
570.43	2297.71
570.78	2297.32
571.14	2295.89
571.49	2294.53
571.84	2294.21
572.20	2293.05
572.55	2292.03
572.90	2290.51
573.26	2289.23
573.61	2287.64
573.96	2285.87
574.31	2283.04
574.67	2280.13
575.02	2276.67
575.37	2273.41
575.72	2269.79
576.08	2266.47
576.43	2263.19
576.78	2259.43
577.13	2256.22
577.49	2253.00
577.84	2249.39
578.19	2245.67
578.54	2242.06
578.90	2237.83
579.25	2232.24
579.60	2227.49
579.95	2222.44
580.30	2217.47
580.66	2212.31
581.01	2207.37
581.36	2202.53
581.71	2198.33
582.06	2193.87
582.42	2189.34
582.77	2184.15
583.12	2179.51
583.47	2174.79
583.82	2169.87
584.17	2164.82
584.53	2159.34
584.88	2153.78
585.23	2148.24
585.58	2142.74
585.93	2137.35
586.28	2132.85
586.63	2127.82
586.98	2122.77
587.34	2118.17
587.69	2113.34
588.04	2108.04
588.39	2102.37
588.74	2095.94
589.09	2089.95
589.44	2083.23
589.79	2077.39
590.14	2071.84
590.49	2065.36
590.84	2058.94
591.19	2053.00
591.54	2046.64
591.89	2039.36
592.25	2032.57
592.60	2025.43
592.95	2018.00
593.30	2010.75
593.65	2003.04
594.00	1996.12
594.35	1988.93
594.70	1980.93
595.05	1973.84
595.40	1966.64
595.75	1959.18
596.10	1953.07
596.45	1946.40
596.80	1940.20
597.15	1933.50
597.50	1926.58
597.85	1920.21
598.19	1913.68
598.54	1906.48
598.89	1899.72
599.24	1893.88
599.59	1887.24
599.94	1881.06
600.29	1874.77
600.64	1868.24
600.99	1860.95
601.34	1854.14
601.69	1847.23
602.04	1840.43
602.39	1833.07
602.74	1826.23
603.08	1819.53
603.43	1812.79
603.78	1805.43
604.13	1798.38
604.48	1791.09
604.83	1784.09
605.18	1777.25
605.53	1769.25
605.87	1761.39
606.22	1754.20
606.57	1746.31
606.92	1739.00
607.27	1731.75
607.62	1724.80
607.96	1717.56
608.31	1710.86
608.66	1703.31
609.01	1695.60
609.36	1688.00
609.70	1680.02
610.05	1672.01
610.40	1664.35
610.75	1656.03
611.10	1648.42
611.44	1639.87
611.79	1631.95
612.14	1623.40
612.49	1614.15
612.83	1605.79
613.18	1597.64
613.53	1589.62
613.88	1580.91
614.22	1572.61
614.57	1564.13
614.92	1556.09
615.27	1548.49
615.61	1540.14
615.96	1532.13
616.31	1524.61
616.65	1517.21
617.00	1509.53
617.35	1501.86
617.70	1493.56
618.04	1485.11
618.39	1476.88
618.74	1469.37
619.08	1461.01
619.43	1453.36
619.78	1446.48
620.12	1439.24
620.47	1431.78
620.82	1423.61
621.16	1416.25
621.51	1408.67
621.85	1400.97
622.20	1392.43
622.55	1384.03
622.89	1376.21
623.24	1368.58
623.59	1361.11
623.93	1353.60
624.28	1346.44
624.62	1338.89
624.97	1331.63
625.32	1324.81
625.66	1317.74
626.01	1310.60
626.35	1303.17
626.70	1295.38
627.04	1287.70
627.39	1279.92
627.73	1272.55
628.08	1265.56
628.43	1258.31
628.77	1250.96
629.12	1243.39
629.46	1236.33
629.81	1228.86
630.15	1221.72
630.50	1214.32
630.84	1206.21
631.19	1198.40
631.53	1190.83
631.88	1183.32
632.22	1175.73
632.57	1168.43
632.91	1160.91
633.26	1153.43
633.60	1146.06
633.95	1138.96
634.29	1131.80
634.64	1125.27
634.98	1117.90
635.32	1110.74
635.67	1104.11
636.01	1097.48
636.36	1090.64
636.70	1084.02
637.05	1077.53
637.39	1071.05
637.73	1064.48
638.08	1058.58
638.42	1052.55
638.77	1046.17
639.11	1039.64
639.45	1033.17
639.80	1026.48
640.14	1020.07
640.49	1013.51
640.83	1007.22
641.17	1000.93
641.52	994.66
641.86	988.07
642.20	982.10
642.55	975.77
642.89	969.37
643.23	962.81
643.58	957.18
643.92	950.95
644.26	944.87
644.61	938.79
644.95	932.77
645.29	926.11
645.64	919.35
645.98	913.01
646.32	907.06
646.66	901.11
647.01	895.37
647.35	889.67
647.69	883.85
648.04	878.31
648.38	872.53
648.72	866.50
649.06	860.52
649.41	854.74
649.75	848.77
650.09	842.83
650.43	837.04
650.78	830.78
651.12	824.84
651.46	819.04
651.80	813.30
652.14	807.93
652.49	802.61
652.83	797.51
653.17	791.79
653.51	786.06
653.85	780.65
654.20	774.97
654.54	768.96
654.88	763.21
655.22	757.29
655.56	751.64
655.90	746.20
656.25	740.93
656.59	735.50
656.93	730.41
657.27	725.16
657.61	719.71
657.95	714.60
658.29	709.51
658.64	704.36
658.98	699.05
659.32	693.53
659.66	688.30
660.00	682.94
660.34	677.98
660.68	673.11
661.02	668.05
661.36	663.32
661.70	658.83
662.05	654.51
662.39	650.20
662.73	645.72
663.07	641.27
663.41	636.80
663.75	632.30
664.09	627.77
664.43	623.35
664.77	619.19
665.11	614.99
665.45	610.83
665.79	606.77
666.13	602.64
666.47	598.51
666.81	594.39
667.15	590.24
667.49	586.33
667.83	582.54
668.17	578.64
668.51	574.54
668.85	570.42
669.19	566.51
669.53	562.67
669.87	558.80
670.21	555.15
670.55	551.50
670.89	548.02
671.23	544.58
671.57	541.09
671.91	537.60
672.25	534.05
672.58	530.51
672.92	527.02
673.26	523.84
673.60	520.71
673.94	517.59
674.28	514.64
674.62	511.76
674.96	508.56
675.30	505.62
675.64	502.70
675.97	499.95
676.31	497.07
676.65	494.09
676.99	491.33
677.33	488.51
677.67	485.74
678.01	482.77
678.34	479.75
678.68	476.90
679.02	474.04
679.36	471.30
679.70	468.68
680.04	465.94
680.37	463.01
680.71	460.26
681.05	457.61
681.39	454.94
681.73	452.26
682.06	449.74
682.40	447.20
682.74	444.67
683.08	442.14
683.42	439.53
683.75	437.03
684.09	434.47
684.43	431.93
684.77	429.41
685.10	427.00
685.44	424.78
685.78	422.43
686.12	420.16
686.45	417.83
686.79	415.47
687.13	413.28
687.46	411.14
687.80	408.96
688.14	406.76
688.48	404.68
688.81	402.41
689.15	400.23
689.49	398.08
689.82	395.99
690.16	393.88
690.50	391.88
690.83	389.97
691.17	388.02
691.51	386.09
691.84	384.23
692.18	382.31
692.52	380.25
692.85	378.35
693.19	376.49
693.52	374.65
693.86	372.85
694.20	371.06
694.53	369.27
694.87	367.42
695.21	365.62
695.54	363.77
695.88	362.06
696.21	360.35
696.55	358.68
696.88	357.02
697.22	355.34
697.56	353.75
697.89	352.07
698.23	350.44
698.56	348.85
698.90	347.30
699.23	345.70
699.57	344.16
699.90	342.61
700.24	341.07
700.58	339.57
700.91	338.06
701.25	336.62
701.58	335.23
701.92	333.89
702.25	332.55
702.59	331.21
702.92	329.85
703.26	328.53
703.59	327.19
703.93	325.98
704.26	324.78
704.60	323.53
704.93	322.28
705.26	321.05
705.60	319.88
705.93	318.71
706.27	317.67
706.60	316.60
706.94	315.48
707.27	314.36
707.61	313.27
707.94	312.25
708.27	311.16
708.61	310.10
708.94	309.07
709.28	308.07
709.61	307.08
709.94	306.14
710.28	305.15
710.61	304.22
710.95	303.16
711.28	302.23
711.61	301.24
711.95	300.29
712.28	299.31
712.61	298.33
712.95	297.38
713.28	296.49
713.61	295.61
713.95	294.74
714.28	293.90
714.61	293.06
714.95	292.23
715.28	291.39
715.61	290.49
715.95	289.60
716.28	288.74
716.61	287.92
716.95	287.09
717.28	286.34
717.61	285.56
717.94	284.80
718.28	283.99
718.61	283.27
718.94	282.60
719.27	281.98
719.61	281.34
719.94	280.68
720.27	279.92
720.60	279.27
720.94	278.65
721.27	278.01
721.60	277.40
721.93	276.78
722.27	276.21
722.60	275.66
722.93	275.15
723.26	274.59
723.59	274.03
723.93	273.47
724.26	272.92
724.59	272.33
724.92	271.80
725.25	271.28
725.59	270.78
725.92	270.25
726.25	269.74
726.58	269.24
726.91	268.71
727.24	268.31
727.57	267.86
727.91	267.36
728.24	266.90
728.57	266.39
728.90	265.93
729.23	265.40
729.56	264.99
729.89	264.50
730.22	264.01
730.55	263.54
730.89	263.11
731.22	262.67
731.55	262.21
731.88	261.76
732.21	261.33
732.54	260.91
732.87	260.48
733.20	260.08
733.53	259.70
733.86	259.32
734.19	258.87
734.52	258.47
734.85	258.14
735.18	257.71
735.51	257.37
735.84	257.01
736.17	256.71
736.50	256.31
736.83	256.08
737.16	255.72
737.49	255.39
737.82	255.04
738.15	254.71
738.48	254.41
738.81	254.13
739.14	253.83
739.47	253.47
739.80	253.17
740.13	252.82
740.46	252.47
740.79	252.17
741.12	251.90
741.45	251.60
741.78	251.26
742.11	251.02
742.44	250.72
742.77	250.44
743.10	250.10
743.43	249.79
743.75	249.41
744.08	249.31
744.41	249.07
744.74	248.80
745.07	248.52
745.40	248.35
745.73	248.10
746.06	247.84
746.39	247.64
746.71	247.37
747.04	247.13
747.37	246.88
747.70	246.61
748.03	246.35
748.36	246.13
748.68	245.92
749.01	245.65
749.34	245.44
749.67	245.25
750.00	245.04
750.33	244.91
750.65	244.71
750.98	244.39
751.31	244.17
751.64	243.98
751.97	243.82
752.29	243.53
752.62	243.29
752.95	243.08
753.28	242.84
753.60	242.66
753.93	242.47
754.26	242.29
754.59	242.09
754.91	241.87
755.24	241.69
755.57	241.48
755.90	241.30
756.22	241.10
756.55	240.85
756.88	240.63
757.20	240.39
757.53	240.20
757.86	240.00
758.19	239.84
758.51	239.65
758.84	239.46
759.17	239.28
759.49	239.13
759.82	239.02
760.15	238.86
760.47	238.68
760.80	238.53
761.13	238.39
761.45	238.22
761.78	238.07
762.11	237.91
762.43	237.76
762.76	237.64
763.08	237.48
763.41	237.37
763.74	237.26
764.06	237.09
764.39	236.93
764.71	236.81
765.04	236.61
765.37	236.47
765.69	236.33
766.02	236.21
766.34	236.08
766.67	235.90
767.00	235.80
767.32	235.75
767.65	235.68
767.97	235.55
768.30	235.45
768.62	235.33
768.95	235.20
769.27	235.06
769.60	234.96
769.92	234.85
770.25	234.73
770.57	234.61
770.90	234.54
771.22	234.44
771.55	234.30
771.87	234.24
772.20	234.14
772.52	234.13
772.85	234.13
773.17	234.04
773.50	233.96
773.82	233.84
774.15	233.69
774.47	233.52
774.80	233.45
775.12	233.36
775.45	233.26
775.77	233.18
776.09	233.14
776.42	233.04
776.74	233.00
777.07	232.93
777.39	232.86
777.72	232.75
778.04	232.67
778.36	232.65
778.69	232.57
779.01	232.49
779.33	232.32
779.66	232.18
779.98	232.09
780.31	232.03
780.63	232.01
780.95	231.96
781.28	231.89
781.60	231.80
781.92	231.77
782.25	231.72
782.57	231.64
782.89	231.54
783.22	231.50
783.54	231.42
783.86	231.37
784.19	231.29
784.51	231.24
784.83	231.19
785.16	231.10
785.48	231.07
785.80	231.03
786.12	230.98
786.45	230.92
786.77	230.89
787.09	230.82
787.42	230.72
787.74	230.69
788.06	230.68
788.38	230.64
788.71	230.57
789.03	230.54
789.35	230.52
789.67	230.52
789.99	230.47
790.32	230.40
790.64	230.39
790.96	230.43
791.28	230.36
791.61	230.35
791.93	230.31
792.25	230.25
792.57	230.26
792.89	230.26
793.21	230.20
793.54	230.16
793.86	230.12
794.18	230.09
794.50	230.03
794.82	229.98
795.14	229.94
795.47	229.93
795.79	229.88
796.11	229.83
796.43	229.81
796.75	229.77
797.07	229.73
797.39	229.69
797.71	229.57
798.04	229.58
798.36	229.55
798.68	229.52
799.00	229.50
799.32	229.41
799.64	229.37
799.96	229.38
800.28	229.37
800.60	229.33
800.92	229.31
801.24	229.26
801.56	229.25
801.89	229.22
802.21	229.20
802.53	229.15
802.85	229.11
803.17	229.10
803.49	229.02
803.81	228.97
804.13	228.93
804.45	228.88
804.77	228.86
805.09	228.78
805.41	228.73
805.73	228.68
806.05	228.65
806.37	228.58
806.69	228.54
807.01	228.49
807.33	228.46
807.65	228.39
807.97	228.40
808.28	228.36
808.60	228.33
808.92	228.29
809.24	228.35
809.56	228.32
809.88	228.26
810.20	228.26
810.52	228.26
810.84	228.21
811.16	228.22
811.48	228.16
811.80	228.18
812.12	228.16
812.43	228.16
812.75	228.15
813.07	228.13
813.39	228.06
813.71	228.03
814.03	228.03
814.35	228.02
814.67	227.96
814.98	227.94
815.30	227.92
815.62	227.87
815.94	227.78
816.26	227.80
816.58	227.73
816.89	227.73
817.21	227.70
817.53	227.65
817.85	227.60
818.17	227.59
818.48	227.54
818.80	227.55
819.12	227.56
819.44	227.48
819.76	227.48
820.07	227.49
820.39	227.46
820.71	227.43
821.03	227.42
821.34	227.42
821.66	227.41
821.98	227.42
822.30	227.40
822.61	227.44
822.93	227.39
823.25	227.41
823.57	227.41
823.88	227.44
824.20	227.45
824.52	227.49
824.83	227.48
825.15	227.44
825.47	227.41
825.79	227.39
826.10	227.43
826.42	227.40
826.74	227.41
827.05	227.42
827.37	227.44
827.69	227.43
828.00	227.41
828.32	227.42
828.64	227.39
828.95	227.44
829.27	227.39
829.58	227.40
829.90	227.40
830.22	227.40
830.53	227.35
830.85	227.35
831.17	227.30
831.48	227.30
831.80	227.31
832.11	227.30
832.43	227.27
832.75	227.23
833.06	227.30
833.38	227.27
833.69	227.25
834.01	227.26
834.32	227.25
834.64	227.24
834.96	227.23
835.27	227.24
835.59	227.20
835.90	227.19
836.22	227.18
836.53	227.17
836.85	227.13
837.16	227.25
837.48	227.20
837.79	227.25
838.11	227.25
838.42	227.27
838.74	227.30
839.05	227.25
839.37	227.29
839.68	227.24
840.00	227.21
840.31	227.23
840.63	227.19
840.94	227.16
841.26	227.15
841.57	227.16
841.88	227.14
842.20	227.09
842.51	227.07
842.83	227.02
843.14	227.13
843.46	227.13
843.77	227.06
844.08	227.06
844.40	227.03
844.71	226.98
845.03	226.93
845.34	226.89
845.65	226.90
845.97	226.86
846.28	226.82
846.60	226.82
846.91	226.79
847.22	226.79
847.54	226.79
847.85	226.78
848.16	226.75
848.48	226.74
848.79	226.78
849.10	226.75
849.42	226.80
849.73	226.63
850.04	226.61
850.36	226.56
850.67	226.60
850.98	226.59
851.30	226.64
851.61	226.61
851.92	226.60
852.23	226.64
852.55	226.61
852.86	226.60
853.17	226.62
853.49	226.65
853.80	226.64
854.11	226.66
854.42	226.68
854.74	226.63
855.05	226.63
855.36	226.58
855.67	226.59
855.99	226.55
856.30	226.71
856.61	226.73
856.92	226.74
857.23	226.72
857.55	226.71
857.86	226.66
858.17	226.71
858.48	226.69
858.79	226.67
859.11	226.67
859.42	226.67
859.73	226.66
860.04	226.63
860.35	226.59
860.66	226.53
860.98	226.51
861.29	226.54
861.60	226.53
861.91	226.57
862.22	226.55
862.53	226.55
862.84	226.43
863.16	226.44
863.47	226.38
863.78	226.36
864.09	226.38
864.40	226.39
864.71	226.36
865.02	226.38
865.33	226.33
865.64	226.34
865.95	226.35
866.27	226.40
866.58	226.41
866.89	226.44
867.20	226.49
867.51	226.48
867.82	226.49
868.13	226.49
868.44	226.46
868.75	226.49
869.06	226.51
869.37	226.53
869.68	226.47
869.99	226.50
870.30	226.54
870.61	226.53
870.92	226.53
871.23	226.54
871.54	226.58
871.85	226.65
872.16	226.67
872.47	226.67
872.78	226.61
873.09	226.60
873.40	226.60
873.71	226.59
874.02	226.60
874.33	226.61
874.64	226.61
874.95	226.62
875.26	226.60
875.56	226.57
875.87	226.56
876.18	226.60
876.49	226.71
876.80	226.67
877.11	226.66
877.42	226.67
877.73	226.70
878.04	226.66
878.35	226.64
878.66	226.65
878.96	226.66
879.27	226.66
879.58	226.67
879.89	226.67
880.20	226.68
880.51	226.69
880.82	226.68
881.12	226.69
881.43	226.68
881.74	226.68
882.05	226.67
882.36	226.71
882.67	226.71
882.97	226.60
883.28	226.59
883.59	226.63
883.90	226.64
884.21	226.67
884.51	226.63
884.82	226.62
885.13	226.61
885.44	226.60
885.74	226.59
886.05	226.60
886.36	226.59
886.67	226.57
886.98	226.57
887.28	226.53
887.59	226.51
887.90	226.52
888.20	226.50
888.51	226.51
888.82	226.47
889.13	226.47
889.43	226.52
889.74	226.50
890.05	226.46
890.35	226.44
890.66	226.36
890.97	226.39
891.28	226.36
891.58	226.36
891.89	226.33
892.20	226.30
892.50	226.24
892.81	226.25
893.12	226.19
893.42	226.17
893.73	226.21
894.04	226.20
894.34	226.18
894.65	226.19
894.95	226.18
895.26	226.16
895.57	226.22
895.87	226.14
896.18	226.19
896.48	226.19
896.79	226.19
897.10	226.24
897.40	226.22
897.71	226.24
898.01	226.24
898.32	226.23
898.63	226.24
898.93	226.29
899.24	226.28
899.54	226.32
899.85	226.29
900.15	226.27
900.46	226.28
900.76	226.28
901.07	226.30
901.38	226.29
901.68	226.32
901.99	226.25
902.29	226.22
902.60	226.19
902.90	226.18
903.21	226.21
903.51	226.18
903.82	226.23
904.12	226.19
904.43	226.21
904.73	226.23
905.03	226.24
905.34	226.28
905.64	226.29
905.95	226.28
906.25	226.29
906.56	226.31
906.86	226.30
907.17	226.30
907.47	226.32
907.77	226.33
908.08	226.31
908.38	226.34
908.69	226.35
908.99	226.39
909.30	226.38
909.60	226.37
909.90	226.39
910.21	226.32
910.51	226.34
910.81	226.33
911.12	226.32
911.42	226.32
911.73	226.26
912.03	226.28
912.33	226.32
912.64	226.32
912.94	226.31
913.24	226.30
913.55	226.27
913.85	226.26
914.15	226.28
914.46	226.27
914.76	226.26
915.06	226.25
915.37	226.22
915.67	226.21
915.97	226.19
916.27	226.14
916.58	226.18
916.88	226.17
917.18	226.19
917.49	226.28
917.79	226.26
918.09	226.24
918.39	226.22
918.70	226.22
919.00	226.23
919.30	226.27
919.60	226.28
919.91	226.26
920.21	226.25
920.51	226.21
920.81	226.23
921.12	226.24
921.42	226.23
921.72	226.24
922.02	226.23
922.32	226.26
922.63	226.26
922.93	226.29
923.23	226.28
923.53	226.24
923.83	226.18
924.13	226.20
924.44	226.23
924.74	226.24
925.04	226.24
925.34	226.20
925.64	226.18
925.94	226.18
926.24	226.25
926.55	226.22
926.85	226.22
927.15	226.18
927.45	226.16
927.75	226.16
928.05	226.17
928.35	226.17
928.65	226.19
928.95	226.19
929.26	226.18
929.56	226.20
929.86	226.19
930.16	226.18
930.46	226.17
930.76	226.14
931.06	226.09
931.36	226.09
931.66	226.11
931.96	226.09
932.26	226.09
932.56	226.04
932.86	226.08
933.16	226.08
933.46	226.08
933.76	226.09
934.06	226.13
934.36	226.15
934.66	226.13
934.96	226.09
935.26	226.11
935.56	226.11
935.86	226.06
936.16	226.08
936.46	226.07
936.76	226.04
937.06	226.02
937.36	226.01
937.66	226.01
937.96	225.99
938.26	225.98
938.56	225.97
938.86	225.98
939.16	226.01
939.46	226.03
939.76	226.03
940.06	226.01
940.35	225.96
940.65	225.92
940.95	225.93
941.25	225.90
941.55	225.89
941.85	225.88
942.15	225.91
942.45	225.95
942.75	225.93
943.04	225.99
943.34	226.01
943.64	226.03
943.94	225.99
944.24	226.02
944.54	226.04
944.84	226.02
945.13	226.02
945.43	225.98
945.73	225.96
946.03	225.98
946.33	226.00
946.62	226.03
946.92	226.03
947.22	226.06
947.52	226.08
947.82	226.06
948.11	226.03
948.41	226.00
948.71	225.96
949.01	225.97
949.31	225.92
949.60	225.91
949.90	225.91
950.20	225.93
950.50	225.90
950.79	225.89
951.09	225.93
951.39	225.92
951.69	225.90
951.98	225.91
952.28	225.91
952.58	225.87
952.87	225.84
953.17	225.85
953.47	225.82
953.76	225.80
954.06	225.81
954.36	225.82
954.66	225.82
954.95	225.84
955.25	225.84
955.55	225.87
955.84	225.84
956.14	225.86
956.44	225.86
956.73	225.85
957.03	225.83
957.32	225.81
957.62	225.83
957.92	225.85
958.21	225.86
958.51	225.98
958.81	226.03
959.10	226.03
959.40	226.07
959.69	226.08
959.99	226.13
960.29	226.11
960.58	226.09
960.88	226.15
961.17	226.16
961.47	226.14
961.76	226.12
962.06	226.15
962.36	226.15
962.65	226.15
962.95	226.14
963.24	226.14
963.54	226.21
963.83	226.21
964.13	226.19
964.42	226.15
964.72	226.04
965.01	226.00
965.31	226.03
965.60	225.99
965.90	226.05
966.19	226.01
966.49	226.03
966.78	226.02
967.08	226.01
967.37	225.99
967.67	225.98
967.96	226.00
968.26	226.00
968.55	226.00
968.85	226.00
969.14	226.02
969.43	226.03
969.73	225.96
970.02	225.92
970.32	225.91
970.61	225.92
970.91	225.90
971.20	225.90
971.49	225.87
971.79	225.88
972.08	225.81
972.38	225.83
972.67	225.81
972.96	225.84
973.26	225.81
973.55	225.85
973.85	225.85
974.14	225.82
974.43	225.80
974.73	225.76
975.02	225.73
975.31	225.69
975.61	225.67
975.90	225.67
976.19	225.68
976.49	225.69
976.78	225.68
977.07	225.67
977.37	225.67
977.66	225.69
977.95	225.67
978.24	225.72
978.54	225.71
978.83	225.73
979.12	225.71
979.42	225.68
979.71	225.64
980.00	225.65
980.29	225.68
980.59	225.68
980.88	225.74
981.17	225.78
981.46	225.80
981.76	225.80
982.05	225.82
982.34	225.84
982.63	225.84
982.93	225.86
983.22	225.89
983.51	225.91
983.80	225.92
984.09	225.94
984.39	225.89
984.68	225.89
984.97	225.89
985.26	225.91
985.55	225.93
985.85	225.94
986.14	225.96
986.43	225.97
986.72	225.94
987.01	225.89
987.30	225.85
987.59	225.86
987.89	225.88
988.18	225.90
988.47	225.86
988.76	225.85
989.05	225.82
989.34	225.82
989.63	225.86
989.92	225.85
990.22	225.84
990.51	225.86
990.80	225.87
991.09	225.88
991.38	225.89
991.67	225.90
991.96	225.87
992.25	225.88
992.54	225.89
992.83	225.94
993.12	225.97
993.41	226.02
993.70	226.08
993.99	226.13
994.28	226.11
994.58	226.16
994.87	226.17
995.16	226.18
995.45	226.19
995.74	226.16
996.03	226.17
996.32	226.16
996.61	226.20
996.90	226.19
997.19	226.16
997.48	226.16
997.77	226.15
998.06	226.16
998.34	226.13
998.63	226.12
998.92	226.13
999.21	226.13
999.50	226.12
999.79	226.06
1000.08	226.03
1000.37	226.04
1000.66	226.02
1000.95	226.06
1001.24	226.12
1001.53	226.11
1001.82	226.09
1002.11	226.06
1002.40	226.11
1002.68	226.10
1002.97	226.17
1003.26	226.17
1003.55	226.17
1003.84	226.17
1004.13	226.23
1004.42	226.22
1004.71	226.18
1004.99	226.13
1005.28	226.13
1005.57	226.15
1005.86	226.13
1006.15	226.12
1006.44	226.09
1006.72	226.09
1007.01	226.05
1007.30	226.01
1007.59	225.99
1007.88	225.96
1008.17	226.01
1008.45	225.97
1008.74	225.94
1009.03	225.87
1009.32	225.88
1009.60	225.86
1009.89	225.85
1010.18	225.82
1010.47	225.79
1010.76	225.80
1011.04	225.83
1011.33	225.84
1011.62	225.79
1011.91	225.78
1012.19	225.80
1012.48	225.80
1012.77	225.75
1013.05	225.79
1013.34	225.78
1013.63	225.78
1013.92	225.78
1014.20	225.73
1014.49	225.70
1014.78	225.69
1015.06	225.66
1015.35	225.67
1015.64	225.63
1015.92	225.62
1016.21	225.59
1016.50	225.60
1016.78	225.62
1017.07	225.61
1017.36	225.57
1017.64	225.56
1017.93	225.59
1018.22	225.54
1018.50	225.55
1018.79	225.56
1019.08	225.50
1019.36	225.48
1019.65	225.47
1019.93	225.47
1020.22	225.44
1020.51	225.50
1020.79	225.51
1021.08	225.39
1021.36	225.51
1021.65	225.52
1021.94	225.43
1022.22	225.49
1022.51	225.19
1022.79	225.28
1023.08	225.06
1023.36	226.67
1023.65	225.77
>>>>>End Processed Spectral Data<<<<<
