SpectraSuite Data File
++++++++++++++++++++++++++++++++++++
Date: Fri Feb 01 15:26:46 EST 2013
User: group
Dark Spectrum Present: No
Reference Spectrum Present: No
Number of Sampled Component Spectra: 1
Spectrometers: USB2E7196
Integration Time (usec): 35000 (USB2E7196)
Spectra Averaged: 100 (USB2E7196)
Boxcar Smoothing: 10 (USB2E7196)
Correct for Electrical Dark: No (USB2E7196)
Strobe/Lamp Enabled: No (USB2E7196)
Correct for Detector Non-linearity: No (USB2E7196)
Correct for Stray Light: No (USB2E7196)
Number of Pixels in Processed Spectrum: 2048
>>>>>Begin Processed Spectral Data<<<<<
339.09	0.00
339.48	214.89
339.86	217.12
340.24	218.50
340.63	219.95
341.01	222.06
341.39	222.74
341.78	223.50
342.16	224.52
342.54	225.29
342.93	213.57
343.31	224.37
343.69	224.91
344.07	225.30
344.46	225.70
344.84	226.05
345.22	226.28
345.60	226.48
345.99	226.69
346.37	226.82
346.75	226.89
347.13	226.97
347.52	227.02
347.90	227.10
348.28	227.14
348.66	227.20
349.05	227.20
349.43	227.22
349.81	227.28
350.19	227.30
350.57	227.39
350.96	227.47
351.34	227.56
351.72	227.70
352.10	227.85
352.48	227.90
352.87	227.97
353.25	228.00
353.63	228.07
354.01	228.10
354.39	228.19
354.77	228.28
355.15	228.36
355.54	228.40
355.92	228.41
356.30	228.48
356.68	228.60
357.06	228.67
357.44	228.74
357.82	228.78
358.20	228.85
358.58	228.88
358.97	228.94
359.35	229.00
359.73	229.01
360.11	229.02
360.49	229.10
360.87	229.14
361.25	229.21
361.63	229.28
362.01	229.32
362.39	229.34
362.77	229.38
363.15	229.42
363.53	229.45
363.91	229.46
364.29	229.48
364.67	229.38
365.05	229.36
365.43	229.37
365.81	229.38
366.19	229.42
366.57	229.47
366.95	229.44
367.33	229.38
367.71	229.37
368.09	229.37
368.47	229.37
368.85	229.35
369.23	229.32
369.61	229.24
369.99	229.24
370.37	229.20
370.75	229.21
371.13	229.12
371.51	229.08
371.89	229.05
372.27	229.01
372.65	228.97
373.03	228.93
373.41	228.86
373.78	228.79
374.16	228.68
374.54	228.59
374.92	228.54
375.30	228.52
375.68	228.44
376.06	228.37
376.44	228.26
376.82	228.18
377.19	228.15
377.57	228.11
377.95	228.01
378.33	227.92
378.71	227.79
379.09	227.75
379.47	227.71
379.84	227.65
380.22	227.56
380.60	227.50
380.98	227.44
381.36	227.38
381.73	227.30
382.11	227.25
382.49	227.18
382.87	227.10
383.25	227.02
383.62	227.07
384.00	227.01
384.38	226.95
384.76	226.91
385.13	226.86
385.51	226.80
385.89	226.75
386.27	226.71
386.64	226.69
387.02	226.66
387.40	226.59
387.78	226.54
388.15	226.49
388.53	226.46
388.91	226.38
389.29	226.33
389.66	226.33
390.04	226.31
390.42	226.32
390.79	226.32
391.17	226.31
391.55	226.20
391.92	226.19
392.30	226.22
392.68	226.17
393.05	226.20
393.43	226.22
393.81	226.22
394.18	226.25
394.56	226.25
394.94	226.30
395.31	226.32
395.69	226.37
396.06	226.44
396.44	226.50
396.82	226.54
397.19	226.67
397.57	226.72
397.95	226.77
398.32	226.76
398.70	226.83
399.07	226.94
399.45	226.98
399.82	227.08
400.20	227.14
400.58	227.26
400.95	227.27
401.33	227.36
401.70	227.53
402.08	227.66
402.45	227.77
402.83	227.85
403.20	227.96
403.58	228.08
403.95	228.21
404.33	228.34
404.71	228.51
405.08	228.69
405.46	228.82
405.83	229.00
406.21	229.18
406.58	229.35
406.96	229.47
407.33	229.69
407.70	229.87
408.08	230.17
408.45	230.39
408.83	230.67
409.20	230.89
409.58	231.06
409.95	231.28
410.33	231.54
410.70	231.83
411.08	232.13
411.45	232.44
411.82	232.74
412.20	233.12
412.57	233.52
412.95	233.80
413.32	234.26
413.69	234.63
414.07	235.09
414.44	235.56
414.82	236.05
415.19	236.56
415.56	237.11
415.94	237.63
416.31	238.24
416.68	238.87
417.06	239.59
417.43	240.32
417.81	241.09
418.18	241.88
418.55	242.71
418.93	243.54
419.30	244.42
419.67	245.35
420.04	246.29
420.42	247.29
420.79	248.48
421.16	249.59
421.54	250.77
421.91	251.98
422.28	253.24
422.66	254.59
423.03	255.92
423.40	257.25
423.77	258.68
424.15	260.12
424.52	261.59
424.89	263.18
425.26	264.72
425.64	266.18
426.01	267.78
426.38	269.41
426.75	271.14
427.13	272.86
427.50	274.68
427.87	276.58
428.24	278.44
428.61	280.19
428.99	282.12
429.36	284.24
429.73	286.27
430.10	288.26
430.47	290.35
430.85	292.48
431.22	294.70
431.59	297.08
431.96	299.37
432.33	301.90
432.70	304.29
433.08	307.07
433.45	309.71
433.82	312.30
434.19	315.23
434.56	318.05
434.93	320.74
435.30	323.39
435.68	326.27
436.05	329.10
436.42	331.88
436.79	334.42
437.16	337.17
437.53	340.07
437.90	342.90
438.27	345.65
438.64	348.49
439.01	351.08
439.38	353.31
439.75	355.47
440.13	357.92
440.50	360.30
440.87	362.17
441.24	364.15
441.61	366.32
441.98	367.76
442.35	369.52
442.72	371.37
443.09	373.15
443.46	374.14
443.83	374.75
444.20	375.33
444.57	376.15
444.94	376.35
445.31	376.64
445.68	377.03
446.05	377.08
446.42	376.71
446.79	376.34
447.16	375.94
447.53	375.56
447.90	374.38
448.27	373.19
448.64	371.60
449.01	370.43
449.37	368.48
449.74	366.59
450.11	364.34
450.48	361.87
450.85	359.32
451.22	357.17
451.59	355.12
451.96	353.13
452.33	350.53
452.70	348.23
453.07	345.39
453.43	342.45
453.80	339.69
454.17	336.97
454.54	334.41
454.91	331.65
455.28	328.99
455.65	326.56
456.02	324.16
456.38	322.03
456.75	319.36
457.12	317.09
457.49	314.90
457.86	312.74
458.23	310.90
458.59	308.87
458.96	306.77
459.33	304.92
459.70	303.06
460.07	301.57
460.43	299.84
460.80	298.22
461.17	296.82
461.54	295.30
461.91	293.89
462.27	292.44
462.64	291.16
463.01	289.81
463.38	288.49
463.74	287.06
464.11	285.89
464.48	284.86
464.85	283.75
465.21	282.86
465.58	281.91
465.95	280.79
466.32	279.85
466.68	278.95
467.05	278.05
467.42	277.11
467.78	276.17
468.15	275.26
468.52	274.58
468.88	273.68
469.25	272.90
469.62	272.22
469.98	271.56
470.35	270.90
470.72	270.26
471.08	269.58
471.45	269.02
471.82	268.42
472.18	267.80
472.55	267.37
472.92	266.78
473.28	266.33
473.65	265.84
474.02	265.39
474.38	265.01
474.75	264.70
475.11	264.34
475.48	264.08
475.85	263.86
476.21	263.62
476.58	263.45
476.94	263.29
477.31	263.13
477.67	262.95
478.04	262.87
478.41	262.85
478.77	262.90
479.14	262.87
479.50	262.92
479.87	262.98
480.23	262.99
480.60	263.11
480.96	263.22
481.33	263.41
481.69	263.63
482.06	263.82
482.42	263.96
482.79	264.23
483.15	264.56
483.52	264.94
483.88	265.31
484.25	265.67
484.61	266.11
484.98	266.57
485.34	267.12
485.71	267.70
486.07	268.30
486.44	268.88
486.80	269.55
487.17	270.28
487.53	271.10
487.90	271.99
488.26	272.93
488.62	273.93
488.99	274.94
489.35	275.93
489.72	277.05
490.08	278.30
490.44	279.55
490.81	280.83
491.17	282.16
491.54	283.65
491.90	285.19
492.26	286.87
492.63	288.63
492.99	290.44
493.36	292.36
493.72	294.39
494.08	296.53
494.45	298.82
494.81	301.20
495.17	303.65
495.54	306.23
495.90	308.89
496.26	311.72
496.63	314.71
496.99	317.88
497.35	321.19
497.72	324.55
498.08	328.08
498.44	331.80
498.80	335.76
499.17	339.78
499.53	343.96
499.89	348.30
500.26	352.78
500.62	357.48
500.98	362.44
501.34	367.52
501.71	372.82
502.07	378.24
502.43	383.74
502.79	389.56
503.16	395.62
503.52	401.95
503.88	408.32
504.24	414.96
504.60	421.89
504.97	428.99
505.33	436.35
505.69	444.04
506.05	451.84
506.41	459.63
506.78	467.81
507.14	476.24
507.50	484.97
507.86	494.03
508.22	503.22
508.59	512.45
508.95	522.05
509.31	531.84
509.67	541.90
510.03	552.30
510.39	562.90
510.75	573.79
511.12	584.67
511.48	595.95
511.84	607.38
512.20	618.90
512.56	630.93
512.92	643.06
513.28	655.35
513.64	667.80
514.00	680.58
514.37	693.48
514.73	706.61
515.09	719.66
515.45	732.92
515.81	746.45
516.17	760.45
516.53	774.58
516.89	788.74
517.25	803.06
517.61	817.52
517.97	831.99
518.33	846.36
518.69	861.16
519.05	876.31
519.41	891.48
519.77	906.99
520.13	922.39
520.49	937.79
520.85	953.30
521.21	969.12
521.57	985.43
521.93	1001.31
522.29	1017.69
522.65	1033.97
523.01	1050.29
523.37	1066.47
523.73	1082.72
524.09	1098.85
524.45	1115.25
524.81	1131.90
525.17	1148.87
525.53	1165.73
525.89	1182.62
526.25	1199.46
526.61	1215.73
526.97	1232.56
527.33	1249.08
527.68	1265.80
528.04	1282.46
528.40	1299.13
528.76	1316.26
529.12	1332.91
529.48	1349.78
529.84	1365.90
530.20	1382.65
530.56	1399.65
530.91	1417.06
531.27	1433.82
531.63	1450.41
531.99	1467.13
532.35	1483.11
532.71	1498.91
533.07	1515.28
533.42	1531.16
533.78	1547.24
534.14	1563.60
534.50	1578.82
534.86	1594.72
535.21	1609.88
535.57	1625.92
535.93	1641.51
536.29	1656.33
536.65	1671.49
537.00	1686.41
537.36	1701.77
537.72	1716.18
538.08	1730.69
538.44	1744.54
538.79	1758.50
539.15	1772.23
539.51	1785.98
539.87	1800.32
540.22	1814.14
540.58	1828.04
540.94	1841.69
541.29	1854.76
541.65	1867.49
542.01	1881.01
542.37	1893.38
542.72	1905.86
543.08	1917.67
543.44	1930.16
543.79	1941.37
544.15	1952.28
544.51	1963.83
544.87	1974.92
545.22	1985.88
545.58	1996.13
545.94	2005.97
546.29	2015.90
546.65	2025.82
547.01	2034.98
547.36	2043.86
547.72	2052.42
548.07	2060.23
548.43	2068.43
548.79	2076.45
549.14	2084.15
549.50	2091.39
549.86	2099.18
550.21	2106.61
550.57	2113.77
550.92	2120.30
551.28	2127.47
551.64	2134.52
551.99	2141.08
552.35	2147.18
552.70	2153.41
553.06	2159.33
553.41	2165.69
553.77	2171.72
554.13	2177.75
554.48	2183.87
554.84	2189.18
555.19	2194.53
555.55	2199.61
555.90	2203.97
556.26	2208.83
556.61	2213.53
556.97	2217.81
557.32	2221.96
557.68	2226.04
558.03	2230.26
558.39	2234.12
558.74	2238.60
559.10	2242.62
559.45	2246.24
559.81	2250.59
560.16	2254.36
560.52	2257.74
560.87	2261.22
561.23	2263.73
561.58	2266.68
561.94	2269.26
562.29	2271.78
562.64	2274.21
563.00	2276.98
563.35	2280.58
563.71	2283.67
564.06	2286.73
564.42	2289.63
564.77	2292.12
565.12	2294.31
565.48	2296.07
565.83	2297.70
566.19	2299.06
566.54	2299.93
566.89	2301.09
567.25	2301.53
567.60	2302.98
567.96	2304.43
568.31	2305.16
568.66	2306.32
569.02	2306.91
569.37	2307.10
569.72	2307.79
570.08	2307.93
570.43	2307.78
570.78	2306.94
571.14	2305.45
571.49	2304.12
571.84	2303.79
572.20	2302.39
572.55	2301.30
572.90	2299.82
573.26	2298.40
573.61	2296.72
573.96	2294.89
574.31	2291.82
574.67	2288.76
575.02	2284.87
575.37	2281.46
575.72	2277.62
576.08	2274.29
576.43	2270.68
576.78	2267.22
577.13	2263.98
577.49	2260.97
577.84	2257.40
578.19	2253.73
578.54	2249.92
578.90	2245.73
579.25	2240.05
579.60	2235.10
579.95	2230.00
580.30	2224.91
580.66	2219.66
581.01	2214.48
581.36	2209.40
581.71	2205.17
582.06	2200.65
582.42	2196.11
582.77	2190.90
583.12	2186.17
583.47	2181.32
583.82	2176.32
584.17	2170.84
584.53	2165.31
584.88	2159.48
585.23	2153.60
585.58	2148.01
585.93	2142.54
586.28	2137.60
586.63	2132.44
586.98	2127.35
587.34	2122.62
587.69	2117.67
588.04	2112.32
588.39	2106.63
588.74	2100.13
589.09	2093.88
589.44	2087.04
589.79	2080.99
590.14	2075.32
590.49	2068.68
590.84	2062.14
591.19	2056.04
591.54	2049.52
591.89	2042.03
592.25	2035.21
592.60	2028.07
592.95	2020.41
593.30	2012.94
593.65	2005.35
594.00	1998.34
594.35	1991.15
594.70	1983.00
595.05	1975.74
595.40	1968.35
595.75	1960.83
596.10	1954.54
596.45	1947.74
596.80	1941.52
597.15	1934.81
597.50	1927.56
597.85	1921.12
598.19	1914.46
598.54	1907.34
598.89	1900.61
599.24	1894.64
599.59	1887.93
599.94	1881.79
600.29	1875.47
600.64	1868.96
600.99	1861.45
601.34	1854.42
601.69	1847.26
602.04	1840.22
602.39	1832.83
602.74	1826.00
603.08	1819.20
603.43	1812.45
603.78	1805.07
604.13	1797.82
604.48	1790.43
604.83	1783.55
605.18	1776.51
605.53	1768.46
605.87	1760.41
606.22	1753.18
606.57	1745.34
606.92	1737.93
607.27	1730.51
607.62	1723.46
607.96	1716.04
608.31	1709.27
608.66	1701.67
609.01	1694.15
609.36	1686.70
609.70	1678.45
610.05	1670.32
610.40	1662.51
610.75	1654.14
611.10	1646.47
611.44	1638.13
611.79	1630.16
612.14	1621.48
612.49	1612.38
612.83	1603.89
613.18	1595.80
613.53	1587.72
613.88	1579.17
614.22	1570.91
614.57	1562.34
614.92	1554.21
615.27	1546.60
615.61	1538.35
615.96	1530.36
616.31	1522.74
616.65	1515.33
617.00	1507.95
617.35	1500.37
617.70	1492.06
618.04	1483.56
618.39	1475.29
618.74	1467.57
619.08	1459.19
619.43	1451.65
619.78	1444.77
620.12	1437.66
620.47	1430.09
620.82	1421.88
621.16	1414.46
621.51	1406.88
621.85	1399.34
622.20	1390.92
622.55	1382.62
622.89	1374.80
623.24	1367.18
623.59	1359.79
623.93	1352.28
624.28	1345.00
624.62	1337.43
624.97	1330.36
625.32	1323.70
625.66	1316.72
626.01	1309.57
626.35	1302.21
626.70	1294.35
627.04	1286.47
627.39	1278.66
627.73	1271.26
628.08	1264.23
628.43	1256.84
628.77	1249.37
629.12	1241.67
629.46	1234.51
629.81	1227.07
630.15	1219.80
630.50	1212.35
630.84	1204.22
631.19	1196.38
631.53	1188.99
631.88	1181.54
632.22	1173.91
632.57	1166.59
632.91	1159.00
633.26	1151.54
633.60	1144.28
633.95	1137.27
634.29	1130.23
634.64	1123.66
634.98	1116.30
635.32	1109.22
635.67	1102.68
636.01	1096.12
636.36	1089.45
636.70	1082.98
637.05	1076.41
637.39	1070.01
637.73	1063.58
638.08	1057.69
638.42	1051.66
638.77	1045.14
639.11	1038.49
639.45	1032.12
639.80	1025.41
640.14	1019.00
640.49	1012.43
640.83	1006.05
641.17	999.79
641.52	993.55
641.86	987.12
642.20	981.27
642.55	975.07
642.89	968.51
643.23	962.01
643.58	956.25
643.92	949.95
644.26	943.86
644.61	937.77
644.95	931.66
645.29	925.02
645.64	918.26
645.98	911.90
646.32	906.11
646.66	900.01
647.01	894.17
647.35	888.55
647.69	882.79
648.04	877.27
648.38	871.45
648.72	865.43
649.06	859.34
649.41	853.56
649.75	847.52
650.09	841.59
650.43	835.68
650.78	829.44
651.12	823.57
651.46	817.87
651.80	812.09
652.14	806.73
652.49	801.39
652.83	796.22
653.17	790.52
653.51	784.64
653.85	779.27
654.20	773.73
654.54	767.69
654.88	761.96
655.22	756.07
655.56	750.44
655.90	745.05
656.25	739.79
656.59	734.37
656.93	729.33
657.27	724.20
657.61	718.83
657.95	713.72
658.29	708.65
658.64	703.43
658.98	698.15
659.32	692.69
659.66	687.44
660.00	682.10
660.34	677.21
660.68	672.45
661.02	667.44
661.36	662.66
661.70	658.20
662.05	653.85
662.39	649.48
662.73	645.02
663.07	640.66
663.41	636.20
663.75	631.74
664.09	627.18
664.43	622.81
664.77	618.65
665.11	614.45
665.45	610.32
665.79	606.22
666.13	602.14
666.47	598.07
666.81	593.94
667.15	589.86
667.49	585.96
667.83	582.11
668.17	578.18
668.51	574.15
668.85	570.14
669.19	566.30
669.53	562.47
669.87	558.55
670.21	554.82
670.55	551.19
670.89	547.71
671.23	544.30
671.57	540.75
671.91	537.29
672.25	533.78
672.58	530.28
672.92	526.94
673.26	523.73
673.60	520.60
673.94	517.48
674.28	514.66
674.62	511.69
674.96	508.59
675.30	505.68
675.64	502.74
675.97	499.96
676.31	497.09
676.65	494.24
676.99	491.56
677.33	488.70
677.67	485.87
678.01	482.81
678.34	479.81
678.68	477.02
679.02	474.18
679.36	471.39
679.70	468.69
680.04	465.85
680.37	462.99
680.71	460.22
681.05	457.65
681.39	454.84
681.73	452.18
682.06	449.69
682.40	447.12
682.74	444.61
683.08	442.05
683.42	439.47
683.75	436.91
684.09	434.37
684.43	431.91
684.77	429.51
685.10	427.19
685.44	424.93
685.78	422.70
686.12	420.45
686.45	418.21
686.79	415.84
687.13	413.71
687.46	411.56
687.80	409.38
688.14	407.12
688.48	405.11
688.81	402.88
689.15	400.73
689.49	398.64
689.82	396.57
690.16	394.49
690.50	392.51
690.83	390.62
691.17	388.62
691.51	386.73
691.84	384.87
692.18	382.96
692.52	380.99
692.85	379.01
693.19	377.12
693.52	375.31
693.86	373.58
694.20	371.79
694.53	369.99
694.87	368.20
695.21	366.42
695.54	364.60
695.88	362.91
696.21	361.18
696.55	359.47
696.88	357.82
697.22	356.18
697.56	354.60
697.89	352.96
698.23	351.37
698.56	349.76
698.90	348.16
699.23	346.53
699.57	344.94
699.90	343.39
700.24	341.83
700.58	340.28
700.91	338.75
701.25	337.34
701.58	336.00
701.92	334.61
702.25	333.22
702.59	331.84
702.92	330.50
703.26	329.19
703.59	327.94
703.93	326.72
704.26	325.45
704.60	324.14
704.93	322.84
705.26	321.60
705.60	320.40
705.93	319.26
706.27	318.20
706.60	317.19
706.94	316.10
707.27	315.00
707.61	313.99
707.94	313.01
708.27	311.88
708.61	310.76
708.94	309.77
709.28	308.82
709.61	307.92
709.94	306.96
710.28	305.98
710.61	304.99
710.95	303.91
711.28	303.04
711.61	302.12
711.95	301.19
712.28	300.28
712.61	299.27
712.95	298.34
713.28	297.46
713.61	296.57
713.95	295.67
714.28	294.83
714.61	293.94
714.95	293.10
715.28	292.27
715.61	291.40
715.95	290.53
716.28	289.68
716.61	288.88
716.95	288.10
717.28	287.35
717.61	286.60
717.94	285.88
718.28	285.05
718.61	284.31
718.94	283.64
719.27	282.97
719.61	282.41
719.94	281.77
720.27	281.10
720.60	280.39
720.94	279.79
721.27	279.19
721.60	278.60
721.93	277.98
722.27	277.45
722.60	276.93
722.93	276.40
723.26	275.85
723.59	275.30
723.93	274.71
724.26	274.13
724.59	273.56
724.92	273.00
725.25	272.54
725.59	272.01
725.92	271.49
726.25	270.96
726.58	270.44
726.91	269.92
727.24	269.44
727.57	268.98
727.91	268.46
728.24	268.00
728.57	267.50
728.90	267.03
729.23	266.54
729.56	266.11
729.89	265.65
730.22	265.19
730.55	264.66
730.89	264.24
731.22	263.84
731.55	263.40
731.88	262.98
732.21	262.50
732.54	262.08
732.87	261.68
733.20	261.31
733.53	260.91
733.86	260.53
734.19	260.12
734.52	259.76
734.85	259.47
735.18	259.05
735.51	258.70
735.84	258.35
736.17	257.97
736.50	257.55
736.83	257.26
737.16	256.90
737.49	256.58
737.82	256.20
738.15	255.83
738.48	255.51
738.81	255.18
739.14	254.84
739.47	254.52
739.80	254.18
740.13	253.85
740.46	253.49
740.79	253.15
741.12	252.83
741.45	252.47
741.78	252.11
742.11	251.83
742.44	251.47
742.77	251.17
743.10	250.85
743.43	250.53
743.75	250.12
744.08	249.99
744.41	249.70
744.74	249.42
745.07	249.14
745.40	248.87
745.73	248.64
746.06	248.36
746.39	248.08
746.71	247.81
747.04	247.55
747.37	247.27
747.70	247.03
748.03	246.78
748.36	246.60
748.68	246.32
749.01	246.04
749.34	245.84
749.67	245.59
750.00	245.37
750.33	245.26
750.65	245.05
750.98	244.71
751.31	244.49
751.64	244.30
751.97	244.16
752.29	243.95
752.62	243.75
752.95	243.57
753.28	243.39
753.60	243.17
753.93	243.02
754.26	242.85
754.59	242.68
754.91	242.53
755.24	242.29
755.57	242.15
755.90	242.02
756.22	241.83
756.55	241.66
756.88	241.48
757.20	241.23
757.53	241.10
757.86	240.90
758.19	240.78
758.51	240.62
758.84	240.39
759.17	240.23
759.49	240.06
759.82	239.94
760.15	239.79
760.47	239.66
760.80	239.49
761.13	239.38
761.45	239.19
761.78	239.03
762.11	238.93
762.43	238.78
762.76	238.66
763.08	238.58
763.41	238.43
763.74	238.31
764.06	238.20
764.39	238.05
764.71	237.95
765.04	237.80
765.37	237.65
765.69	237.52
766.02	237.40
766.34	237.27
766.67	237.13
767.00	237.03
767.32	236.97
767.65	236.90
767.97	236.76
768.30	236.67
768.62	236.55
768.95	236.39
769.27	236.29
769.60	236.14
769.92	235.99
770.25	235.86
770.57	235.76
770.90	235.65
771.22	235.53
771.55	235.42
771.87	235.33
772.20	235.25
772.52	235.26
772.85	235.28
773.17	235.19
773.50	235.08
773.82	234.96
774.15	234.79
774.47	234.65
774.80	234.57
775.12	234.46
775.45	234.37
775.77	234.29
776.09	234.24
776.42	234.17
776.74	234.11
777.07	234.03
777.39	233.95
777.72	233.84
778.04	233.83
778.36	233.74
778.69	233.65
779.01	233.58
779.33	233.42
779.66	233.20
779.98	233.11
780.31	233.01
780.63	233.00
780.95	232.96
781.28	232.87
781.60	232.76
781.92	232.71
782.25	232.64
782.57	232.54
782.89	232.43
783.22	232.35
783.54	232.29
783.86	232.24
784.19	232.15
784.51	232.09
784.83	231.96
785.16	231.88
785.48	231.86
785.80	231.83
786.12	231.77
786.45	231.75
786.77	231.71
787.09	231.67
787.42	231.58
787.74	231.54
788.06	231.52
788.38	231.50
788.71	231.43
789.03	231.40
789.35	231.39
789.67	231.35
789.99	231.32
790.32	231.25
790.64	231.23
790.96	231.29
791.28	231.23
791.61	231.22
791.93	231.20
792.25	231.14
792.57	231.13
792.89	231.07
793.21	231.03
793.54	230.99
793.86	230.97
794.18	230.93
794.50	230.91
794.82	230.86
795.14	230.86
795.47	230.88
795.79	230.83
796.11	230.81
796.43	230.79
796.75	230.78
797.07	230.79
797.39	230.74
797.71	230.60
798.04	230.61
798.36	230.56
798.68	230.58
799.00	230.52
799.32	230.44
799.64	230.47
799.96	230.44
800.28	230.45
800.60	230.41
800.92	230.39
801.24	230.32
801.56	230.30
801.89	230.26
802.21	230.24
802.53	230.23
802.85	230.21
803.17	230.25
803.49	230.21
803.81	230.15
804.13	230.10
804.45	230.09
804.77	230.08
805.09	230.05
805.41	230.00
805.73	229.99
806.05	229.94
806.37	229.88
806.69	229.85
807.01	229.78
807.33	229.74
807.65	229.71
807.97	229.76
808.28	229.72
808.60	229.69
808.92	229.63
809.24	229.62
809.56	229.56
809.88	229.48
810.20	229.46
810.52	229.47
810.84	229.47
811.16	229.45
811.48	229.39
811.80	229.40
812.12	229.36
812.43	229.36
812.75	229.37
813.07	229.33
813.39	229.30
813.71	229.29
814.03	229.29
814.35	229.27
814.67	229.19
814.98	229.17
815.30	229.13
815.62	229.10
815.94	229.07
816.26	229.10
816.58	229.06
816.89	229.02
817.21	228.99
817.53	228.97
817.85	228.96
818.17	228.93
818.48	228.87
818.80	228.86
819.12	228.83
819.44	228.81
819.76	228.78
820.07	228.76
820.39	228.71
820.71	228.71
821.03	228.70
821.34	228.66
821.66	228.67
821.98	228.64
822.30	228.61
822.61	228.63
822.93	228.56
823.25	228.53
823.57	228.51
823.88	228.45
824.20	228.44
824.52	228.44
824.83	228.44
825.15	228.44
825.47	228.41
825.79	228.40
826.10	228.35
826.42	228.36
826.74	228.34
827.05	228.32
827.37	228.30
827.69	228.24
828.00	228.24
828.32	228.21
828.64	228.17
828.95	228.20
829.27	228.17
829.58	228.16
829.90	228.16
830.22	228.18
830.53	228.16
830.85	228.12
831.17	228.07
831.48	228.06
831.80	228.02
832.11	228.02
832.43	228.01
832.75	228.02
833.06	228.08
833.38	228.06
833.69	228.06
834.01	228.06
834.32	228.08
834.64	228.06
834.96	228.07
835.27	228.10
835.59	228.07
835.90	228.06
836.22	228.06
836.53	228.08
836.85	228.05
837.16	228.15
837.48	228.16
837.79	228.18
838.11	228.15
838.42	228.19
838.74	228.19
839.05	228.16
839.37	228.14
839.68	228.08
840.00	228.07
840.31	228.11
840.63	228.08
840.94	228.06
841.26	228.02
841.57	227.99
841.88	228.01
842.20	227.98
842.51	227.94
842.83	227.91
843.14	227.98
843.46	227.98
843.77	227.91
844.08	227.91
844.40	227.88
844.71	227.92
845.03	227.89
845.34	227.86
845.65	227.87
845.97	227.87
846.28	227.84
846.60	227.82
846.91	227.79
847.22	227.79
847.54	227.79
847.85	227.81
848.16	227.83
848.48	227.82
848.79	227.86
849.10	227.87
849.42	227.88
849.73	227.77
850.04	227.75
850.36	227.74
850.67	227.77
850.98	227.78
851.30	227.77
851.61	227.74
851.92	227.76
852.23	227.79
852.55	227.78
852.86	227.79
853.17	227.79
853.49	227.79
853.80	227.82
854.11	227.82
854.42	227.85
854.74	227.85
855.05	227.86
855.36	227.80
855.67	227.82
855.99	227.81
856.30	227.92
856.61	227.95
856.92	227.93
857.23	227.89
857.55	227.87
857.86	227.83
858.17	227.83
858.48	227.81
858.79	227.76
859.11	227.78
859.42	227.76
859.73	227.79
860.04	227.77
860.35	227.70
860.66	227.66
860.98	227.64
861.29	227.60
861.60	227.56
861.91	227.58
862.22	227.55
862.53	227.54
862.84	227.42
863.16	227.43
863.47	227.40
863.78	227.40
864.09	227.44
864.40	227.46
864.71	227.48
865.02	227.46
865.33	227.44
865.64	227.42
865.95	227.40
866.27	227.44
866.58	227.44
866.89	227.46
867.20	227.46
867.51	227.45
867.82	227.44
868.13	227.49
868.44	227.44
868.75	227.47
869.06	227.47
869.37	227.50
869.68	227.45
869.99	227.51
870.30	227.49
870.61	227.47
870.92	227.43
871.23	227.41
871.54	227.46
871.85	227.51
872.16	227.53
872.47	227.56
872.78	227.48
873.09	227.51
873.40	227.52
873.71	227.51
874.02	227.49
874.33	227.49
874.64	227.46
874.95	227.47
875.26	227.43
875.56	227.41
875.87	227.36
876.18	227.34
876.49	227.40
876.80	227.41
877.11	227.40
877.42	227.40
877.73	227.38
878.04	227.36
878.35	227.35
878.66	227.36
878.96	227.33
879.27	227.33
879.58	227.29
879.89	227.27
880.20	227.33
880.51	227.31
880.82	227.28
881.12	227.27
881.43	227.24
881.74	227.26
882.05	227.28
882.36	227.30
882.67	227.29
882.97	227.19
883.28	227.18
883.59	227.17
883.90	227.20
884.21	227.23
884.51	227.24
884.82	227.19
885.13	227.17
885.44	227.19
885.74	227.19
886.05	227.20
886.36	227.20
886.67	227.14
886.98	227.24
887.28	227.27
887.59	227.29
887.90	227.33
888.20	227.32
888.51	227.33
888.82	227.33
889.13	227.34
889.43	227.43
889.74	227.43
890.05	227.41
890.35	227.37
890.66	227.34
890.97	227.31
891.28	227.32
891.58	227.30
891.89	227.30
892.20	227.30
892.50	227.29
892.81	227.29
893.12	227.30
893.42	227.25
893.73	227.25
894.04	227.26
894.34	227.29
894.65	227.29
894.95	227.29
895.26	227.30
895.57	227.37
895.87	227.29
896.18	227.33
896.48	227.35
896.79	227.37
897.10	227.38
897.40	227.37
897.71	227.40
898.01	227.42
898.32	227.42
898.63	227.44
898.93	227.43
899.24	227.45
899.54	227.46
899.85	227.40
900.15	227.40
900.46	227.39
900.76	227.37
901.07	227.35
901.38	227.33
901.68	227.32
901.99	227.29
902.29	227.29
902.60	227.28
902.90	227.27
903.21	227.29
903.51	227.25
903.82	227.30
904.12	227.27
904.43	227.30
904.73	227.27
905.03	227.25
905.34	227.34
905.64	227.33
905.95	227.34
906.25	227.38
906.56	227.40
906.86	227.37
907.17	227.37
907.47	227.43
907.77	227.44
908.08	227.45
908.38	227.44
908.69	227.43
908.99	227.44
909.30	227.44
909.60	227.43
909.90	227.44
910.21	227.42
910.51	227.44
910.81	227.43
911.12	227.48
911.42	227.48
911.73	227.40
912.03	227.39
912.33	227.40
912.64	227.38
912.94	227.35
913.24	227.34
913.55	227.33
913.85	227.28
914.15	227.27
914.46	227.25
914.76	227.23
915.06	227.22
915.37	227.18
915.67	227.19
915.97	227.19
916.27	227.20
916.58	227.23
916.88	227.21
917.18	227.19
917.49	227.21
917.79	227.22
918.09	227.23
918.39	227.27
918.70	227.26
919.00	227.28
919.30	227.32
919.60	227.32
919.91	227.27
920.21	227.26
920.51	227.28
920.81	227.29
921.12	227.30
921.42	227.29
921.72	227.31
922.02	227.33
922.32	227.32
922.63	227.31
922.93	227.34
923.23	227.35
923.53	227.32
923.83	227.25
924.13	227.26
924.44	227.26
924.74	227.23
925.04	227.26
925.34	227.26
925.64	227.22
925.94	227.24
926.24	227.32
926.55	227.30
926.85	227.30
927.15	227.26
927.45	227.28
927.75	227.30
928.05	227.31
928.35	227.26
928.65	227.29
928.95	227.30
929.26	227.25
929.56	227.23
929.86	227.25
930.16	227.27
930.46	227.26
930.76	227.24
931.06	227.22
931.36	227.22
931.66	227.19
931.96	227.21
932.26	227.16
932.56	227.13
932.86	227.14
933.16	227.16
933.46	227.15
933.76	227.11
934.06	227.13
934.36	227.14
934.66	227.13
934.96	227.11
935.26	227.08
935.56	227.09
935.86	227.09
936.16	227.07
936.46	227.04
936.76	227.05
937.06	227.04
937.36	227.02
937.66	227.01
937.96	227.02
938.26	226.99
938.56	227.01
938.86	226.96
939.16	227.03
939.46	227.01
939.76	227.05
940.06	227.06
940.35	227.03
940.65	226.98
940.95	227.05
941.25	227.02
941.55	227.03
941.85	227.03
942.15	227.03
942.45	227.08
942.75	227.08
943.04	227.09
943.34	227.10
943.64	227.11
943.94	227.10
944.24	227.11
944.54	227.12
944.84	227.13
945.13	227.16
945.43	227.12
945.73	227.12
946.03	227.11
946.33	227.12
946.62	227.11
946.92	227.11
947.22	227.05
947.52	227.07
947.82	227.09
948.11	227.07
948.41	227.03
948.71	226.99
949.01	226.98
949.31	226.94
949.60	226.93
949.90	226.95
950.20	226.93
950.50	226.93
950.79	226.92
951.09	226.93
951.39	226.90
951.69	226.90
951.98	226.88
952.28	226.90
952.58	226.92
952.87	226.92
953.17	226.91
953.47	226.94
953.76	226.93
954.06	226.92
954.36	226.91
954.66	226.91
954.95	226.94
955.25	226.97
955.55	226.96
955.84	226.98
956.14	226.91
956.44	226.92
956.73	226.89
957.03	226.89
957.32	226.89
957.62	226.88
957.92	226.86
958.21	226.87
958.51	226.98
958.81	226.96
959.10	227.00
959.40	227.05
959.69	227.03
959.99	227.06
960.29	227.05
960.58	227.05
960.88	227.09
961.17	227.08
961.47	227.11
961.76	227.14
962.06	227.13
962.36	227.18
962.65	227.17
962.95	227.21
963.24	227.19
963.54	227.20
963.83	227.23
964.13	227.25
964.42	227.23
964.72	227.15
965.01	227.15
965.31	227.10
965.60	227.05
965.90	227.13
966.19	227.08
966.49	227.09
966.78	227.08
967.08	227.11
967.37	227.09
967.67	227.04
967.96	227.03
968.26	227.07
968.55	227.07
968.85	227.08
969.14	227.09
969.43	227.11
969.73	227.08
970.02	227.06
970.32	227.04
970.61	227.04
970.91	226.98
971.20	226.97
971.49	226.97
971.79	226.97
972.08	226.89
972.38	226.90
972.67	226.90
972.96	226.94
973.26	226.90
973.55	226.92
973.85	226.94
974.14	226.94
974.43	226.91
974.73	226.88
975.02	226.85
975.31	226.83
975.61	226.80
975.90	226.81
976.19	226.79
976.49	226.82
976.78	226.81
977.07	226.80
977.37	226.78
977.66	226.83
977.95	226.83
978.24	226.84
978.54	226.86
978.83	226.85
979.12	226.83
979.42	226.81
979.71	226.83
980.00	226.82
980.29	226.79
980.59	226.77
980.88	226.82
981.17	226.83
981.46	226.83
981.76	226.86
982.05	226.89
982.34	226.92
982.63	226.91
982.93	226.96
983.22	227.02
983.51	227.04
983.80	227.00
984.09	227.00
984.39	226.98
984.68	226.99
984.97	227.01
985.26	226.99
985.55	227.00
985.85	226.97
986.14	227.01
986.43	227.03
986.72	227.04
987.01	227.01
987.30	227.01
987.59	226.98
987.89	227.00
988.18	226.96
988.47	226.95
988.76	226.95
989.05	226.93
989.34	226.90
989.63	226.95
989.92	226.96
990.22	226.96
990.51	226.98
990.80	226.94
991.09	226.90
991.38	226.93
991.67	226.92
991.96	226.93
992.25	226.92
992.54	226.93
992.83	226.92
993.12	226.91
993.41	226.92
993.70	226.98
993.99	226.96
994.28	226.98
994.58	226.98
994.87	226.96
995.16	226.96
995.45	226.93
995.74	226.88
996.03	226.88
996.32	226.90
996.61	226.93
996.90	226.93
997.19	226.92
997.48	226.92
997.77	226.92
998.06	226.91
998.34	226.89
998.63	226.86
998.92	226.86
999.21	226.88
999.50	226.90
999.79	226.85
1000.08	226.83
1000.37	226.82
1000.66	226.80
1000.95	226.77
1001.24	226.79
1001.53	226.78
1001.82	226.77
1002.11	226.76
1002.40	226.79
1002.68	226.81
1002.97	226.87
1003.26	226.90
1003.55	226.88
1003.84	226.87
1004.13	226.91
1004.42	226.92
1004.71	226.91
1004.99	226.90
1005.28	226.92
1005.57	226.92
1005.86	226.95
1006.15	226.97
1006.44	226.98
1006.72	227.01
1007.01	227.03
1007.30	227.00
1007.59	226.99
1007.88	227.00
1008.17	227.01
1008.45	226.99
1008.74	226.94
1009.03	226.96
1009.32	226.93
1009.60	226.94
1009.89	226.93
1010.18	226.88
1010.47	226.88
1010.76	226.87
1011.04	226.87
1011.33	226.89
1011.62	226.89
1011.91	226.88
1012.19	226.88
1012.48	226.86
1012.77	226.88
1013.05	226.94
1013.34	226.95
1013.63	226.94
1013.92	226.94
1014.20	226.96
1014.49	226.96
1014.78	226.98
1015.06	226.91
1015.35	226.92
1015.64	226.93
1015.92	226.94
1016.21	226.94
1016.50	226.95
1016.78	226.97
1017.07	226.98
1017.36	226.98
1017.64	226.97
1017.93	226.96
1018.22	226.95
1018.50	226.96
1018.79	226.92
1019.08	226.84
1019.36	226.82
1019.65	226.82
1019.93	226.83
1020.22	226.81
1020.51	226.84
1020.79	226.80
1021.08	226.60
1021.36	226.58
1021.65	226.50
1021.94	226.35
1022.22	226.11
1022.51	226.34
1022.79	227.18
1023.08	226.94
1023.36	228.00
1023.65	226.49
>>>>>End Processed Spectral Data<<<<<
