SpectraSuite Data File
++++++++++++++++++++++++++++++++++++
Date: Fri Feb 01 14:50:39 EST 2013
User: group
Dark Spectrum Present: No
Reference Spectrum Present: No
Number of Sampled Component Spectra: 1
Spectrometers: USB2E7196
Integration Time (usec): 35000 (USB2E7196)
Spectra Averaged: 100 (USB2E7196)
Boxcar Smoothing: 10 (USB2E7196)
Correct for Electrical Dark: No (USB2E7196)
Strobe/Lamp Enabled: No (USB2E7196)
Correct for Detector Non-linearity: No (USB2E7196)
Correct for Stray Light: No (USB2E7196)
Number of Pixels in Processed Spectrum: 2048
>>>>>Begin Processed Spectral Data<<<<<
339.09	0.00
339.48	215.76
339.86	217.34
340.24	217.98
340.63	220.07
341.01	222.13
341.39	221.91
341.78	223.73
342.16	225.11
342.54	225.53
342.93	213.82
343.31	224.63
343.69	225.15
344.07	225.61
344.46	226.05
344.84	226.41
345.22	226.64
345.60	226.91
345.99	227.09
346.37	227.21
346.75	227.33
347.13	227.41
347.52	227.48
347.90	227.56
348.28	227.54
348.66	227.59
349.05	227.58
349.43	227.61
349.81	227.63
350.19	227.66
350.57	227.74
350.96	227.79
351.34	227.88
351.72	227.99
352.10	228.08
352.48	228.13
352.87	228.19
353.25	228.28
353.63	228.36
354.01	228.43
354.39	228.53
354.77	228.58
355.15	228.70
355.54	228.75
355.92	228.77
356.30	228.85
356.68	228.98
357.06	229.04
357.44	229.09
357.82	229.19
358.20	229.26
358.58	229.31
358.97	229.39
359.35	229.46
359.73	229.53
360.11	229.60
360.49	229.66
360.87	229.71
361.25	229.79
361.63	229.86
362.01	229.90
362.39	229.92
362.77	229.95
363.15	229.96
363.53	230.01
363.91	230.04
364.29	230.05
364.67	229.98
365.05	230.01
365.43	230.03
365.81	230.04
366.19	230.09
366.57	230.12
366.95	230.13
367.33	230.08
367.71	230.07
368.09	230.04
368.47	230.04
368.85	230.01
369.23	229.98
369.61	229.90
369.99	229.92
370.37	229.89
370.75	229.91
371.13	229.84
371.51	229.76
371.89	229.72
372.27	229.70
372.65	229.62
373.03	229.56
373.41	229.49
373.78	229.42
374.16	229.28
374.54	229.17
374.92	229.08
375.30	229.03
375.68	228.93
376.06	228.83
376.44	228.75
376.82	228.70
377.19	228.62
377.57	228.54
377.95	228.37
378.33	228.29
378.71	228.12
379.09	228.04
379.47	227.99
379.84	227.91
380.22	227.80
380.60	227.72
380.98	227.63
381.36	227.57
381.73	227.48
382.11	227.43
382.49	227.38
382.87	227.27
383.25	227.20
383.62	227.22
384.00	227.15
384.38	227.07
384.76	227.02
385.13	226.97
385.51	226.93
385.89	226.87
386.27	226.81
386.64	226.79
387.02	226.75
387.40	226.70
387.78	226.67
388.15	226.66
388.53	226.59
388.91	226.55
389.29	226.52
389.66	226.52
390.04	226.48
390.42	226.48
390.79	226.49
391.17	226.45
391.55	226.34
391.92	226.32
392.30	226.35
392.68	226.34
393.05	226.36
393.43	226.37
393.81	226.41
394.18	226.42
394.56	226.47
394.94	226.49
395.31	226.51
395.69	226.56
396.06	226.61
396.44	226.70
396.82	226.76
397.19	226.82
397.57	226.87
397.95	226.93
398.32	226.97
398.70	227.04
399.07	227.11
399.45	227.17
399.82	227.27
400.20	227.33
400.58	227.39
400.95	227.43
401.33	227.56
401.70	227.75
402.08	227.84
402.45	227.96
402.83	228.12
403.20	228.26
403.58	228.34
403.95	228.47
404.33	228.64
404.71	228.79
405.08	228.97
405.46	229.14
405.83	229.33
406.21	229.49
406.58	229.68
406.96	229.86
407.33	230.07
407.70	230.30
408.08	230.58
408.45	230.85
408.83	231.09
409.20	231.29
409.58	231.44
409.95	231.74
410.33	232.01
410.70	232.24
411.08	232.53
411.45	232.90
411.82	233.19
412.20	233.52
412.57	233.92
412.95	234.25
413.32	234.65
413.69	235.03
414.07	235.48
414.44	235.95
414.82	236.44
415.19	237.02
415.56	237.57
415.94	238.12
416.31	238.75
416.68	239.36
417.06	240.12
417.43	240.83
417.81	241.57
418.18	242.34
418.55	243.19
418.93	244.05
419.30	244.88
419.67	245.85
420.04	246.80
420.42	247.79
420.79	248.94
421.16	250.10
421.54	251.33
421.91	252.49
422.28	253.74
422.66	255.10
423.03	256.37
423.40	257.71
423.77	259.10
424.15	260.48
424.52	262.01
424.89	263.56
425.26	265.08
425.64	266.55
426.01	268.15
426.38	269.78
426.75	271.46
427.13	273.22
427.50	275.03
427.87	276.92
428.24	278.78
428.61	280.51
428.99	282.41
429.36	284.49
429.73	286.57
430.10	288.55
430.47	290.56
430.85	292.68
431.22	294.87
431.59	297.24
431.96	299.52
432.33	301.95
432.70	304.34
433.08	307.16
433.45	309.77
433.82	312.34
434.19	315.19
434.56	318.02
434.93	320.66
435.30	323.27
435.68	326.14
436.05	328.97
436.42	331.79
436.79	334.29
437.16	336.98
437.53	339.81
437.90	342.69
438.27	345.43
438.64	348.22
439.01	350.81
439.38	353.06
439.75	355.20
440.13	357.67
440.50	359.98
440.87	361.82
441.24	363.76
441.61	365.93
441.98	367.47
442.35	369.22
442.72	371.09
443.09	372.87
443.46	373.83
443.83	374.40
444.20	374.92
444.57	375.80
444.94	376.08
445.31	376.42
445.68	376.73
446.05	376.82
446.42	376.48
446.79	376.05
447.16	375.55
447.53	375.23
447.90	374.10
448.27	372.97
448.64	371.40
449.01	370.25
449.37	368.29
449.74	366.34
450.11	364.13
450.48	361.67
450.85	359.18
451.22	357.07
451.59	355.07
451.96	353.10
452.33	350.44
452.70	348.07
453.07	345.22
453.43	342.31
453.80	339.52
454.17	336.84
454.54	334.32
454.91	331.63
455.28	328.96
455.65	326.44
456.02	323.98
456.38	321.82
456.75	319.22
457.12	317.01
457.49	314.83
457.86	312.68
458.23	310.80
458.59	308.77
458.96	306.69
459.33	304.84
459.70	303.02
460.07	301.55
460.43	299.87
460.80	298.29
461.17	296.89
461.54	295.44
461.91	294.04
462.27	292.63
462.64	291.37
463.01	290.04
463.38	288.81
463.74	287.45
464.11	286.31
464.48	285.28
464.85	284.15
465.21	283.27
465.58	282.33
465.95	281.28
466.32	280.34
466.68	279.47
467.05	278.58
467.42	277.68
467.78	276.78
468.15	275.90
468.52	275.21
468.88	274.34
469.25	273.55
469.62	272.92
469.98	272.23
470.35	271.65
470.72	271.06
471.08	270.38
471.45	269.82
471.82	269.25
472.18	268.63
472.55	268.17
472.92	267.65
473.28	267.18
473.65	266.70
474.02	266.23
474.38	265.82
474.75	265.47
475.11	265.10
475.48	264.80
475.85	264.54
476.21	264.29
476.58	264.08
476.94	263.94
477.31	263.76
477.67	263.55
478.04	263.39
478.41	263.32
478.77	263.33
479.14	263.26
479.50	263.27
479.87	263.29
480.23	263.37
480.60	263.45
480.96	263.53
481.33	263.70
481.69	263.88
482.06	264.07
482.42	264.22
482.79	264.45
483.15	264.74
483.52	265.12
483.88	265.44
484.25	265.82
484.61	266.19
484.98	266.60
485.34	267.18
485.71	267.76
486.07	268.31
486.44	268.89
486.80	269.59
487.17	270.28
487.53	271.09
487.90	271.92
488.26	272.77
488.62	273.75
488.99	274.71
489.35	275.77
489.72	276.90
490.08	278.10
490.44	279.32
490.81	280.64
491.17	281.99
491.54	283.47
491.90	285.00
492.26	286.61
492.63	288.33
492.99	290.09
493.36	291.96
493.72	293.99
494.08	296.03
494.45	298.24
494.81	300.59
495.17	303.00
495.54	305.56
495.90	308.27
496.26	311.04
496.63	314.00
496.99	317.04
497.35	320.27
497.72	323.62
498.08	327.14
498.44	330.76
498.80	334.61
499.17	338.58
499.53	342.70
499.89	347.09
500.26	351.53
500.62	356.16
500.98	361.09
501.34	366.12
501.71	371.42
502.07	376.81
502.43	382.39
502.79	388.18
503.16	394.24
503.52	400.48
503.88	406.79
504.24	413.34
504.60	420.21
504.97	427.26
505.33	434.55
505.69	442.18
506.05	449.96
506.41	457.86
506.78	465.97
507.14	474.46
507.50	483.11
507.86	492.10
508.22	501.25
508.59	510.42
508.95	519.98
509.31	529.74
509.67	539.82
510.03	550.11
510.39	560.61
510.75	571.35
511.12	582.21
511.48	593.51
511.84	604.98
512.20	616.43
512.56	628.38
512.92	640.62
513.28	652.92
513.64	665.33
514.00	678.02
514.37	690.89
514.73	703.83
515.09	716.90
515.45	730.21
515.81	743.79
516.17	757.79
516.53	771.93
516.89	786.15
517.25	800.34
517.61	814.79
517.97	829.20
518.33	843.65
518.69	858.50
519.05	873.56
519.41	888.70
519.77	904.23
520.13	919.73
520.49	935.07
520.85	950.49
521.21	966.26
521.57	982.48
521.93	998.39
522.29	1014.80
522.65	1031.07
523.01	1047.26
523.37	1063.39
523.73	1079.66
524.09	1095.76
524.45	1112.16
524.81	1128.82
525.17	1145.58
525.53	1162.55
525.89	1179.44
526.25	1196.25
526.61	1212.57
526.97	1229.32
527.33	1245.92
527.68	1262.41
528.04	1278.97
528.40	1295.72
528.76	1312.94
529.12	1329.50
529.48	1346.39
529.84	1362.44
530.20	1379.20
530.56	1396.39
530.91	1413.83
531.27	1430.58
531.63	1447.07
531.99	1463.65
532.35	1479.64
532.71	1495.57
533.07	1512.03
533.42	1528.03
533.78	1544.03
534.14	1560.32
534.50	1575.65
534.86	1591.48
535.21	1606.70
535.57	1622.81
535.93	1638.34
536.29	1652.98
536.65	1668.17
537.00	1683.07
537.36	1698.57
537.72	1713.01
538.08	1727.30
538.44	1741.14
538.79	1755.07
539.15	1768.88
539.51	1782.80
539.87	1797.21
540.22	1811.00
540.58	1824.72
540.94	1837.93
541.29	1851.01
541.65	1863.80
542.01	1877.26
542.37	1889.57
542.72	1902.13
543.08	1913.77
543.44	1926.23
543.79	1937.65
544.15	1948.66
544.51	1960.10
544.87	1970.96
545.22	1981.75
545.58	1992.00
545.94	2001.84
546.29	2011.76
546.65	2021.53
547.01	2030.68
547.36	2039.44
547.72	2048.01
548.07	2055.81
548.43	2064.16
548.79	2072.20
549.14	2079.71
549.50	2087.01
549.86	2094.86
550.21	2102.13
550.57	2109.45
550.92	2115.91
551.28	2122.84
551.64	2129.88
551.99	2136.50
552.35	2142.55
552.70	2148.70
553.06	2154.62
553.41	2160.70
553.77	2166.54
554.13	2172.57
554.48	2178.50
554.84	2183.78
555.19	2188.89
555.55	2193.92
555.90	2198.23
556.26	2202.79
556.61	2207.43
556.97	2211.49
557.32	2215.52
557.68	2219.62
558.03	2223.73
558.39	2227.43
558.74	2232.01
559.10	2235.74
559.45	2239.06
559.81	2243.30
560.16	2246.89
560.52	2249.88
560.87	2253.23
561.23	2255.79
561.58	2258.54
561.94	2260.99
562.29	2263.33
562.64	2265.98
563.00	2268.44
563.35	2271.84
563.71	2275.02
564.06	2278.16
564.42	2280.89
564.77	2283.16
565.12	2285.22
565.48	2286.91
565.83	2288.55
566.19	2289.64
566.54	2290.42
566.89	2291.58
567.25	2291.89
567.60	2293.09
567.96	2294.79
568.31	2295.40
568.66	2296.32
569.02	2296.64
569.37	2296.80
569.72	2297.37
570.08	2297.08
570.43	2296.96
570.78	2295.90
571.14	2294.04
571.49	2292.36
571.84	2291.86
572.20	2290.31
572.55	2289.08
572.90	2287.26
573.26	2285.47
573.61	2283.40
573.96	2281.46
574.31	2278.18
574.67	2275.02
575.02	2271.16
575.37	2267.49
575.72	2263.45
576.08	2259.83
576.43	2256.46
576.78	2252.44
577.13	2248.98
577.49	2245.76
577.84	2242.07
578.19	2238.37
578.54	2234.54
578.90	2230.14
579.25	2224.36
579.60	2219.27
579.95	2213.94
580.30	2208.56
580.66	2203.34
581.01	2198.21
581.36	2192.98
581.71	2188.47
582.06	2183.89
582.42	2179.34
582.77	2173.97
583.12	2169.27
583.47	2164.35
583.82	2159.13
584.17	2153.83
584.53	2148.18
584.88	2142.35
585.23	2136.33
585.58	2130.58
585.93	2124.91
586.28	2119.97
586.63	2114.71
586.98	2109.62
587.34	2104.86
587.69	2099.95
588.04	2094.46
588.39	2088.67
588.74	2082.06
589.09	2075.89
589.44	2068.94
589.79	2062.62
590.14	2056.62
590.49	2049.83
590.84	2043.27
591.19	2037.02
591.54	2030.45
591.89	2022.90
592.25	2015.85
592.60	2008.50
592.95	2000.83
593.30	1993.51
593.65	1985.69
594.00	1978.47
594.35	1970.88
594.70	1962.79
595.05	1955.57
595.40	1948.33
595.75	1940.64
596.10	1934.32
596.45	1927.30
596.80	1921.04
597.15	1914.28
597.50	1907.27
597.85	1900.86
598.19	1894.15
598.54	1887.06
598.89	1880.35
599.24	1874.40
599.59	1867.86
599.94	1861.53
600.29	1855.09
600.64	1848.37
600.99	1841.02
601.34	1834.22
601.69	1827.36
602.04	1820.35
602.39	1812.90
602.74	1805.99
603.08	1799.49
603.43	1792.90
603.78	1785.84
604.13	1778.67
604.48	1771.50
604.83	1764.67
605.18	1757.78
605.53	1749.83
605.87	1741.71
606.22	1734.57
606.57	1726.77
606.92	1719.49
607.27	1712.40
607.62	1705.63
607.96	1698.37
608.31	1691.78
608.66	1684.15
609.01	1676.71
609.36	1669.08
609.70	1661.08
610.05	1653.20
610.40	1645.63
610.75	1637.13
611.10	1629.52
611.44	1621.22
611.79	1613.36
612.14	1604.71
612.49	1595.68
612.83	1587.38
613.18	1579.49
613.53	1571.39
613.88	1562.95
614.22	1554.82
614.57	1546.33
614.92	1538.46
615.27	1531.06
615.61	1522.90
615.96	1515.01
616.31	1507.47
616.65	1500.33
617.00	1492.91
617.35	1485.09
617.70	1476.63
618.04	1468.27
618.39	1460.04
618.74	1452.47
619.08	1444.32
619.43	1436.89
619.78	1429.93
620.12	1422.88
620.47	1415.50
620.82	1407.46
621.16	1400.16
621.51	1392.51
621.85	1385.08
622.20	1376.56
622.55	1368.37
622.89	1360.51
623.24	1353.03
623.59	1345.70
623.93	1338.24
624.28	1331.06
624.62	1323.71
624.97	1316.64
625.32	1310.02
625.66	1303.18
626.01	1296.05
626.35	1288.58
626.70	1280.96
627.04	1273.35
627.39	1265.73
627.73	1258.40
628.08	1251.52
628.43	1244.24
628.77	1237.03
629.12	1229.49
629.46	1222.39
629.81	1214.99
630.15	1207.97
630.50	1200.69
630.84	1192.69
631.19	1184.87
631.53	1177.50
631.88	1170.11
632.22	1162.73
632.57	1155.53
632.91	1148.13
633.26	1140.85
633.60	1133.57
633.95	1126.52
634.29	1119.54
634.64	1112.85
634.98	1105.54
635.32	1098.52
635.67	1092.12
636.01	1085.52
636.36	1078.85
636.70	1072.42
637.05	1065.97
637.39	1059.64
637.73	1053.20
638.08	1047.39
638.42	1041.57
638.77	1035.22
639.11	1028.81
639.45	1022.52
639.80	1015.93
640.14	1009.50
640.49	1003.05
640.83	996.85
641.17	990.74
641.52	984.54
641.86	978.31
642.20	972.62
642.55	966.40
642.89	959.94
643.23	953.62
643.58	947.96
643.92	941.93
644.26	935.97
644.61	930.04
644.95	924.05
645.29	917.42
645.64	910.73
645.98	904.49
646.32	898.66
646.66	892.64
647.01	886.99
647.35	881.41
647.69	875.70
648.04	870.38
648.38	864.70
648.72	858.80
649.06	852.81
649.41	847.00
649.75	841.17
650.09	835.36
650.43	829.54
650.78	823.41
651.12	817.56
651.46	811.82
651.80	806.05
652.14	800.77
652.49	795.56
652.83	790.49
653.17	784.84
653.51	779.16
653.85	773.75
654.20	768.14
654.54	762.19
654.88	756.55
655.22	750.65
655.56	745.01
655.90	739.60
656.25	734.37
656.59	729.02
656.93	723.94
657.27	718.77
657.61	713.38
657.95	708.34
658.29	703.25
658.64	698.15
658.98	692.91
659.32	687.51
659.66	682.43
660.00	677.16
660.34	672.31
660.68	667.48
661.02	662.62
661.36	657.97
661.70	653.52
662.05	649.14
662.39	644.82
662.73	640.47
663.07	636.19
663.41	631.79
663.75	627.38
664.09	622.87
664.43	618.61
664.77	614.51
665.11	610.34
665.45	606.29
665.79	602.24
666.13	598.16
666.47	594.07
666.81	589.96
667.15	585.86
667.49	582.03
667.83	578.28
668.17	574.31
668.51	570.31
668.85	566.37
669.19	562.62
669.53	558.87
669.87	554.99
670.21	551.29
670.55	547.69
670.89	544.25
671.23	540.85
671.57	537.40
671.91	533.99
672.25	530.57
672.58	527.09
672.92	523.71
673.26	520.62
673.60	517.60
673.94	514.50
674.28	511.66
674.62	508.73
674.96	505.64
675.30	502.82
675.64	499.91
675.97	497.21
676.31	494.34
676.65	491.49
676.99	488.82
677.33	486.01
677.67	483.24
678.01	480.26
678.34	477.31
678.68	474.45
679.02	471.62
679.36	468.88
679.70	466.21
680.04	463.49
680.37	460.63
680.71	457.86
681.05	455.28
681.39	452.61
681.73	450.01
682.06	447.54
682.40	445.03
682.74	442.57
683.08	440.03
683.42	437.51
683.75	435.02
684.09	432.53
684.43	430.12
684.77	427.77
685.10	425.45
685.44	423.22
685.78	420.99
686.12	418.85
686.45	416.64
686.79	414.35
687.13	412.24
687.46	410.16
687.80	407.97
688.14	405.81
688.48	403.78
688.81	401.61
689.15	399.48
689.49	397.40
689.82	395.36
690.16	393.33
690.50	391.42
690.83	389.54
691.17	387.63
691.51	385.75
691.84	383.92
692.18	382.07
692.52	380.10
692.85	378.19
693.19	376.30
693.52	374.47
693.86	372.75
694.20	370.97
694.53	369.21
694.87	367.48
695.21	365.73
695.54	363.99
695.88	362.26
696.21	360.57
696.55	358.91
696.88	357.28
697.22	355.66
697.56	354.07
697.89	352.44
698.23	350.81
698.56	349.24
698.90	347.66
699.23	346.00
699.57	344.48
699.90	342.96
700.24	341.42
700.58	339.91
700.91	338.40
701.25	336.96
701.58	335.57
701.92	334.21
702.25	332.82
702.59	331.45
702.92	330.14
703.26	328.83
703.59	327.58
703.93	326.35
704.26	325.11
704.60	323.79
704.93	322.51
705.26	321.24
705.60	320.08
705.93	318.92
706.27	317.92
706.60	316.86
706.94	315.79
707.27	314.71
707.61	313.67
707.94	312.64
708.27	311.54
708.61	310.47
708.94	309.44
709.28	308.46
709.61	307.47
709.94	306.51
710.28	305.48
710.61	304.47
710.95	303.44
711.28	302.51
711.61	301.59
711.95	300.70
712.28	299.78
712.61	298.84
712.95	297.91
713.28	297.03
713.61	296.15
713.95	295.27
714.28	294.45
714.61	293.57
714.95	292.72
715.28	291.90
715.61	291.04
715.95	290.20
716.28	289.35
716.61	288.54
716.95	287.74
717.28	287.04
717.61	286.27
717.94	285.54
718.28	284.73
718.61	284.02
718.94	283.33
719.27	282.69
719.61	282.00
719.94	281.31
720.27	280.59
720.60	279.92
720.94	279.29
721.27	278.68
721.60	278.14
721.93	277.52
722.27	276.97
722.60	276.41
722.93	275.89
723.26	275.35
723.59	274.81
723.93	274.26
724.26	273.74
724.59	273.21
724.92	272.67
725.25	272.22
725.59	271.70
725.92	271.21
726.25	270.71
726.58	270.25
726.91	269.78
727.24	269.33
727.57	268.88
727.91	268.42
728.24	267.96
728.57	267.51
728.90	267.07
729.23	266.60
729.56	266.22
729.89	265.74
730.22	265.32
730.55	264.86
730.89	264.43
731.22	263.98
731.55	263.54
731.88	263.16
732.21	262.74
732.54	262.32
732.87	261.89
733.20	261.47
733.53	261.07
733.86	260.74
734.19	260.34
734.52	259.95
734.85	259.64
735.18	259.28
735.51	258.90
735.84	258.54
736.17	258.21
736.50	257.78
736.83	257.52
737.16	257.18
737.49	256.82
737.82	256.50
738.15	256.16
738.48	255.83
738.81	255.48
739.14	255.14
739.47	254.81
739.80	254.49
740.13	254.18
740.46	253.88
740.79	253.55
741.12	253.25
741.45	252.94
741.78	252.57
742.11	252.27
742.44	251.89
742.77	251.62
743.10	251.29
743.43	250.97
743.75	250.60
744.08	250.48
744.41	250.24
744.74	249.94
745.07	249.70
745.40	249.48
745.73	249.25
746.06	248.99
746.39	248.73
746.71	248.47
747.04	248.19
747.37	247.92
747.70	247.69
748.03	247.44
748.36	247.21
748.68	246.97
749.01	246.69
749.34	246.47
749.67	246.26
750.00	246.06
750.33	245.92
750.65	245.71
750.98	245.34
751.31	245.13
751.64	244.93
751.97	244.76
752.29	244.53
752.62	244.30
752.95	244.08
753.28	243.87
753.60	243.66
753.93	243.53
754.26	243.36
754.59	243.10
754.91	242.89
755.24	242.71
755.57	242.54
755.90	242.40
756.22	242.21
756.55	241.99
756.88	241.78
757.20	241.56
757.53	241.36
757.86	241.20
758.19	241.02
758.51	240.87
758.84	240.62
759.17	240.43
759.49	240.22
759.82	240.09
760.15	239.95
760.47	239.83
760.80	239.66
761.13	239.50
761.45	239.37
761.78	239.23
762.11	239.08
762.43	238.92
762.76	238.75
763.08	238.67
763.41	238.55
763.74	238.44
764.06	238.30
764.39	238.20
764.71	238.07
765.04	237.97
765.37	237.84
765.69	237.76
766.02	237.68
766.34	237.60
766.67	237.48
767.00	237.37
767.32	237.29
767.65	237.23
767.97	237.10
768.30	237.04
768.62	236.92
768.95	236.81
769.27	236.71
769.60	236.65
769.92	236.51
770.25	236.39
770.57	236.26
770.90	236.18
771.22	236.06
771.55	235.95
771.87	235.85
772.20	235.76
772.52	235.69
772.85	235.68
773.17	235.59
773.50	235.49
773.82	235.38
774.15	235.26
774.47	235.10
774.80	235.03
775.12	234.93
775.45	234.85
775.77	234.75
776.09	234.70
776.42	234.61
776.74	234.55
777.07	234.47
777.39	234.39
777.72	234.28
778.04	234.24
778.36	234.18
778.69	234.12
779.01	234.05
779.33	233.95
779.66	233.78
779.98	233.71
780.31	233.64
780.63	233.63
780.95	233.59
781.28	233.54
781.60	233.45
781.92	233.36
782.25	233.30
782.57	233.25
782.89	233.17
783.22	233.08
783.54	233.01
783.86	232.95
784.19	232.90
784.51	232.88
784.83	232.78
785.16	232.69
785.48	232.62
785.80	232.54
786.12	232.48
786.45	232.47
786.77	232.39
787.09	232.34
787.42	232.26
787.74	232.21
788.06	232.14
788.38	232.10
788.71	232.04
789.03	232.01
789.35	231.97
789.67	231.89
789.99	231.83
790.32	231.78
790.64	231.75
790.96	231.77
791.28	231.70
791.61	231.69
791.93	231.66
792.25	231.60
792.57	231.65
792.89	231.57
793.21	231.52
793.54	231.49
793.86	231.45
794.18	231.40
794.50	231.33
794.82	231.34
795.14	231.31
795.47	231.28
795.79	231.23
796.11	231.18
796.43	231.19
796.75	231.16
797.07	231.12
797.39	231.10
797.71	231.02
798.04	230.99
798.36	230.99
798.68	230.96
799.00	230.93
799.32	230.85
799.64	230.85
799.96	230.79
800.28	230.77
800.60	230.76
800.92	230.72
801.24	230.68
801.56	230.63
801.89	230.60
802.21	230.61
802.53	230.59
802.85	230.58
803.17	230.57
803.49	230.56
803.81	230.57
804.13	230.49
804.45	230.45
804.77	230.43
805.09	230.39
805.41	230.37
805.73	230.36
806.05	230.34
806.37	230.35
806.69	230.34
807.01	230.30
807.33	230.28
807.65	230.25
807.97	230.28
808.28	230.28
808.60	230.28
808.92	230.23
809.24	230.27
809.56	230.22
809.88	230.18
810.20	230.17
810.52	230.16
810.84	230.18
811.16	230.17
811.48	230.13
811.80	230.16
812.12	230.10
812.43	230.10
812.75	230.09
813.07	230.04
813.39	230.02
813.71	230.01
814.03	229.99
814.35	229.97
814.67	229.92
814.98	229.90
815.30	229.83
815.62	229.83
815.94	229.75
816.26	229.78
816.58	229.73
816.89	229.71
817.21	229.64
817.53	229.63
817.85	229.58
818.17	229.56
818.48	229.46
818.80	229.48
819.12	229.43
819.44	229.39
819.76	229.33
820.07	229.32
820.39	229.29
820.71	229.24
821.03	229.21
821.34	229.19
821.66	229.14
821.98	229.16
822.30	229.12
822.61	229.16
822.93	229.10
823.25	229.10
823.57	229.07
823.88	229.05
824.20	229.03
824.52	229.04
824.83	229.03
825.15	228.99
825.47	228.98
825.79	228.95
826.10	228.91
826.42	228.89
826.74	228.86
827.05	228.85
827.37	228.83
827.69	228.83
828.00	228.79
828.32	228.79
828.64	228.74
828.95	228.75
829.27	228.70
829.58	228.68
829.90	228.66
830.22	228.66
830.53	228.61
830.85	228.57
831.17	228.53
831.48	228.50
831.80	228.50
832.11	228.45
832.43	228.43
832.75	228.44
833.06	228.52
833.38	228.51
833.69	228.49
834.01	228.47
834.32	228.46
834.64	228.48
834.96	228.49
835.27	228.48
835.59	228.46
835.90	228.43
836.22	228.43
836.53	228.40
836.85	228.38
837.16	228.51
837.48	228.51
837.79	228.54
838.11	228.58
838.42	228.59
838.74	228.63
839.05	228.64
839.37	228.64
839.68	228.58
840.00	228.54
840.31	228.56
840.63	228.58
840.94	228.58
841.26	228.53
841.57	228.52
841.88	228.54
842.20	228.53
842.51	228.54
842.83	228.55
843.14	228.63
843.46	228.64
843.77	228.55
844.08	228.55
844.40	228.53
844.71	228.51
845.03	228.50
845.34	228.48
845.65	228.49
845.97	228.48
846.28	228.49
846.60	228.51
846.91	228.48
847.22	228.49
847.54	228.46
847.85	228.48
848.16	228.46
848.48	228.43
848.79	228.47
849.10	228.44
849.42	228.43
849.73	228.34
850.04	228.34
850.36	228.33
850.67	228.33
850.98	228.32
851.30	228.33
851.61	228.34
851.92	228.35
852.23	228.36
852.55	228.35
852.86	228.35
853.17	228.38
853.49	228.40
853.80	228.42
854.11	228.46
854.42	228.46
854.74	228.44
855.05	228.43
855.36	228.37
855.67	228.40
855.99	228.42
856.30	228.53
856.61	228.54
856.92	228.54
857.23	228.56
857.55	228.56
857.86	228.55
858.17	228.55
858.48	228.53
858.79	228.49
859.11	228.50
859.42	228.46
859.73	228.44
860.04	228.43
860.35	228.40
860.66	228.35
860.98	228.36
861.29	228.38
861.60	228.40
861.91	228.43
862.22	228.37
862.53	228.32
862.84	228.21
863.16	228.23
863.47	228.16
863.78	228.13
864.09	228.13
864.40	228.08
864.71	228.06
865.02	228.06
865.33	228.04
865.64	227.99
865.95	227.99
866.27	228.02
866.58	228.03
866.89	228.03
867.20	227.99
867.51	227.97
867.82	227.95
868.13	227.96
868.44	227.90
868.75	227.96
869.06	227.97
869.37	227.97
869.68	227.94
869.99	227.96
870.30	227.97
870.61	227.98
870.92	228.00
871.23	227.98
871.54	227.99
871.85	228.01
872.16	228.06
872.47	228.08
872.78	228.03
873.09	228.03
873.40	228.01
873.71	228.02
874.02	227.97
874.33	227.96
874.64	227.94
874.95	227.96
875.26	227.90
875.56	227.90
875.87	227.89
876.18	227.87
876.49	227.99
876.80	227.97
877.11	227.96
877.42	227.95
877.73	227.98
878.04	227.95
878.35	227.97
878.66	227.97
878.96	227.93
879.27	227.94
879.58	227.95
879.89	227.94
880.20	227.97
880.51	228.03
880.82	228.07
881.12	228.07
881.43	228.02
881.74	228.03
882.05	228.01
882.36	228.01
882.67	228.00
882.97	227.90
883.28	227.91
883.59	227.90
883.90	227.91
884.21	227.90
884.51	227.93
884.82	227.90
885.13	227.90
885.44	227.93
885.74	227.91
886.05	227.89
886.36	227.90
886.67	227.89
886.98	227.92
887.28	227.89
887.59	227.88
887.90	227.93
888.20	227.95
888.51	227.99
888.82	228.01
889.13	228.04
889.43	228.09
889.74	228.10
890.05	228.10
890.35	228.09
890.66	228.08
890.97	228.08
891.28	228.06
891.58	228.05
891.89	228.04
892.20	228.03
892.50	228.04
892.81	228.04
893.12	228.03
893.42	228.00
893.73	228.02
894.04	228.02
894.34	228.04
894.65	228.04
894.95	228.03
895.26	228.01
895.57	228.01
895.87	227.93
896.18	227.92
896.48	227.89
896.79	227.88
897.10	227.88
897.40	227.85
897.71	227.86
898.01	227.85
898.32	227.84
898.63	227.83
898.93	227.86
899.24	227.86
899.54	227.85
899.85	227.85
900.15	227.83
900.46	227.82
900.76	227.84
901.07	227.79
901.38	227.76
901.68	227.76
901.99	227.69
902.29	227.69
902.60	227.66
902.90	227.67
903.21	227.66
903.51	227.64
903.82	227.68
904.12	227.67
904.43	227.69
904.73	227.69
905.03	227.64
905.34	227.69
905.64	227.67
905.95	227.67
906.25	227.65
906.56	227.64
906.86	227.64
907.17	227.58
907.47	227.62
907.77	227.63
908.08	227.60
908.38	227.63
908.69	227.64
908.99	227.68
909.30	227.69
909.60	227.64
909.90	227.63
910.21	227.59
910.51	227.55
910.81	227.53
911.12	227.53
911.42	227.58
911.73	227.48
912.03	227.49
912.33	227.50
912.64	227.51
912.94	227.52
913.24	227.50
913.55	227.49
913.85	227.44
914.15	227.43
914.46	227.48
914.76	227.48
915.06	227.48
915.37	227.47
915.67	227.48
915.97	227.53
916.27	227.55
916.58	227.57
916.88	227.59
917.18	227.57
917.49	227.66
917.79	227.64
918.09	227.64
918.39	227.66
918.70	227.65
919.00	227.66
919.30	227.68
919.60	227.74
919.91	227.74
920.21	227.79
920.51	227.81
920.81	227.80
921.12	227.83
921.42	227.85
921.72	227.86
922.02	227.87
922.32	227.89
922.63	227.88
922.93	227.94
923.23	227.95
923.53	228.00
923.83	227.93
924.13	227.98
924.44	228.01
924.74	228.04
925.04	228.09
925.34	228.06
925.64	228.03
925.94	227.98
926.24	228.05
926.55	228.03
926.85	228.01
927.15	227.99
927.45	228.00
927.75	227.97
928.05	227.97
928.35	227.94
928.65	227.96
928.95	227.99
929.26	227.93
929.56	227.96
929.86	227.93
930.16	227.88
930.46	227.86
930.76	227.86
931.06	227.81
931.36	227.75
931.66	227.79
931.96	227.79
932.26	227.79
932.56	227.77
932.86	227.77
933.16	227.78
933.46	227.75
933.76	227.75
934.06	227.79
934.36	227.81
934.66	227.82
934.96	227.78
935.26	227.78
935.56	227.78
935.86	227.74
936.16	227.73
936.46	227.73
936.76	227.72
937.06	227.70
937.36	227.70
937.66	227.70
937.96	227.66
938.26	227.63
938.56	227.62
938.86	227.60
939.16	227.61
939.46	227.63
939.76	227.62
940.06	227.58
940.35	227.54
940.65	227.47
940.95	227.47
941.25	227.42
941.55	227.39
941.85	227.41
942.15	227.40
942.45	227.41
942.75	227.43
943.04	227.41
943.34	227.40
943.64	227.35
943.94	227.35
944.24	227.36
944.54	227.37
944.84	227.39
945.13	227.36
945.43	227.32
945.73	227.30
946.03	227.33
946.33	227.30
946.62	227.32
946.92	227.34
947.22	227.33
947.52	227.34
947.82	227.35
948.11	227.33
948.41	227.31
948.71	227.27
949.01	227.27
949.31	227.27
949.60	227.29
949.90	227.33
950.20	227.32
950.50	227.31
950.79	227.30
951.09	227.31
951.39	227.30
951.69	227.30
951.98	227.31
952.28	227.31
952.58	227.36
952.87	227.35
953.17	227.39
953.47	227.40
953.76	227.40
954.06	227.41
954.36	227.41
954.66	227.40
954.95	227.47
955.25	227.48
955.55	227.49
955.84	227.47
956.14	227.49
956.44	227.48
956.73	227.51
957.03	227.56
957.32	227.55
957.62	227.57
957.92	227.61
958.21	227.61
958.51	227.73
958.81	227.72
959.10	227.73
959.40	227.74
959.69	227.74
959.99	227.76
960.29	227.75
960.58	227.78
960.88	227.85
961.17	227.85
961.47	227.87
961.76	227.87
962.06	227.89
962.36	227.89
962.65	227.94
962.95	227.93
963.24	227.90
963.54	227.92
963.83	227.93
964.13	227.92
964.42	227.90
964.72	227.82
965.01	227.82
965.31	227.84
965.60	227.83
965.90	227.90
966.19	227.90
966.49	227.92
966.78	227.89
967.08	227.91
967.37	227.86
967.67	227.85
967.96	227.87
968.26	227.88
968.55	227.87
968.85	227.86
969.14	227.84
969.43	227.84
969.73	227.81
970.02	227.81
970.32	227.81
970.61	227.80
970.91	227.76
971.20	227.74
971.49	227.73
971.79	227.73
972.08	227.66
972.38	227.64
972.67	227.60
972.96	227.61
973.26	227.55
973.55	227.57
973.85	227.55
974.14	227.51
974.43	227.50
974.73	227.47
975.02	227.44
975.31	227.43
975.61	227.39
975.90	227.39
976.19	227.37
976.49	227.36
976.78	227.35
977.07	227.34
977.37	227.32
977.66	227.31
977.95	227.26
978.24	227.22
978.54	227.25
978.83	227.22
979.12	227.22
979.42	227.18
979.71	227.19
980.00	227.15
980.29	227.15
980.59	227.11
980.88	227.11
981.17	227.11
981.46	227.11
981.76	227.11
982.05	227.12
982.34	227.14
982.63	227.12
982.93	227.10
983.22	227.11
983.51	227.10
983.80	227.09
984.09	227.13
984.39	227.15
984.68	227.13
984.97	227.12
985.26	227.09
985.55	227.14
985.85	227.13
986.14	227.17
986.43	227.20
986.72	227.21
987.01	227.20
987.30	227.23
987.59	227.22
987.89	227.23
988.18	227.21
988.47	227.18
988.76	227.17
989.05	227.19
989.34	227.19
989.63	227.24
989.92	227.22
990.22	227.22
990.51	227.22
990.80	227.21
991.09	227.29
991.38	227.30
991.67	227.27
991.96	227.28
992.25	227.28
992.54	227.25
992.83	227.30
993.12	227.33
993.41	227.34
993.70	227.40
993.99	227.47
994.28	227.48
994.58	227.49
994.87	227.53
995.16	227.55
995.45	227.56
995.74	227.50
996.03	227.56
996.32	227.58
996.61	227.63
996.90	227.64
997.19	227.61
997.48	227.63
997.77	227.64
998.06	227.64
998.34	227.65
998.63	227.66
998.92	227.62
999.21	227.65
999.50	227.63
999.79	227.62
1000.08	227.59
1000.37	227.61
1000.66	227.60
1000.95	227.61
1001.24	227.63
1001.53	227.61
1001.82	227.63
1002.11	227.61
1002.40	227.61
1002.68	227.61
1002.97	227.68
1003.26	227.67
1003.55	227.65
1003.84	227.67
1004.13	227.69
1004.42	227.67
1004.71	227.69
1004.99	227.71
1005.28	227.70
1005.57	227.70
1005.86	227.69
1006.15	227.68
1006.44	227.67
1006.72	227.72
1007.01	227.68
1007.30	227.67
1007.59	227.69
1007.88	227.73
1008.17	227.72
1008.45	227.68
1008.74	227.65
1009.03	227.60
1009.32	227.59
1009.60	227.60
1009.89	227.58
1010.18	227.56
1010.47	227.55
1010.76	227.52
1011.04	227.49
1011.33	227.50
1011.62	227.47
1011.91	227.42
1012.19	227.43
1012.48	227.42
1012.77	227.39
1013.05	227.41
1013.34	227.37
1013.63	227.32
1013.92	227.30
1014.20	227.30
1014.49	227.30
1014.78	227.28
1015.06	227.25
1015.35	227.24
1015.64	227.24
1015.92	227.24
1016.21	227.20
1016.50	227.19
1016.78	227.19
1017.07	227.21
1017.36	227.15
1017.64	227.12
1017.93	227.13
1018.22	227.08
1018.50	227.05
1018.79	227.03
1019.08	226.99
1019.36	226.98
1019.65	226.99
1019.93	226.99
1020.22	226.99
1020.51	227.04
1020.79	227.00
1021.08	226.56
1021.36	226.90
1021.65	227.00
1021.94	226.42
1022.22	226.72
1022.51	227.21
1022.79	227.22
1023.08	227.59
1023.36	228.02
1023.65	226.48
>>>>>End Processed Spectral Data<<<<<
