SpectraSuite Data File
++++++++++++++++++++++++++++++++++++
Date: Fri Feb 01 16:01:35 EST 2013
User: group
Dark Spectrum Present: No
Reference Spectrum Present: No
Number of Sampled Component Spectra: 1
Spectrometers: USB2E7196
Integration Time (usec): 35000 (USB2E7196)
Spectra Averaged: 100 (USB2E7196)
Boxcar Smoothing: 10 (USB2E7196)
Correct for Electrical Dark: No (USB2E7196)
Strobe/Lamp Enabled: No (USB2E7196)
Correct for Detector Non-linearity: No (USB2E7196)
Correct for Stray Light: No (USB2E7196)
Number of Pixels in Processed Spectrum: 2048
>>>>>Begin Processed Spectral Data<<<<<
339.09	0.00
339.48	214.80
339.86	216.28
340.24	217.11
340.63	218.65
341.01	221.76
341.39	221.41
341.78	223.10
342.16	224.66
342.54	224.95
342.93	213.14
343.31	223.90
343.69	224.43
344.07	224.90
344.46	225.36
344.84	225.76
345.22	225.99
345.60	226.23
345.99	226.40
346.37	226.47
346.75	226.55
347.13	226.63
347.52	226.68
347.90	226.75
348.28	226.76
348.66	226.82
349.05	226.80
349.43	226.85
349.81	226.88
350.19	226.90
350.57	226.99
350.96	227.07
351.34	227.18
351.72	227.28
352.10	227.35
352.48	227.44
352.87	227.50
353.25	227.59
353.63	227.66
354.01	227.76
354.39	227.85
354.77	227.94
355.15	228.05
355.54	228.12
355.92	228.15
356.30	228.24
356.68	228.36
357.06	228.42
357.44	228.49
357.82	228.55
358.20	228.63
358.58	228.66
358.97	228.71
359.35	228.76
359.73	228.79
360.11	228.89
360.49	228.93
360.87	228.96
361.25	229.02
361.63	229.12
362.01	229.16
362.39	229.22
362.77	229.27
363.15	229.28
363.53	229.29
363.91	229.30
364.29	229.30
364.67	229.21
365.05	229.24
365.43	229.21
365.81	229.21
366.19	229.26
366.57	229.28
366.95	229.26
367.33	229.26
367.71	229.28
368.09	229.24
368.47	229.18
368.85	229.18
369.23	229.13
369.61	229.07
369.99	229.03
370.37	229.01
370.75	228.99
371.13	228.93
371.51	228.89
371.89	228.88
372.27	228.84
372.65	228.83
373.03	228.77
373.41	228.70
373.78	228.66
374.16	228.52
374.54	228.46
374.92	228.39
375.30	228.33
375.68	228.28
376.06	228.21
376.44	228.16
376.82	228.06
377.19	228.02
377.57	227.95
377.95	227.89
378.33	227.78
378.71	227.67
379.09	227.61
379.47	227.57
379.84	227.46
380.22	227.40
380.60	227.31
380.98	227.25
381.36	227.17
381.73	227.12
382.11	227.07
382.49	227.03
382.87	226.95
383.25	226.86
383.62	226.89
384.00	226.84
384.38	226.81
384.76	226.79
385.13	226.76
385.51	226.71
385.89	226.62
386.27	226.60
386.64	226.57
387.02	226.53
387.40	226.46
387.78	226.44
388.15	226.40
388.53	226.37
388.91	226.33
389.29	226.35
389.66	226.35
390.04	226.32
390.42	226.31
390.79	226.32
391.17	226.32
391.55	226.19
391.92	226.19
392.30	226.18
392.68	226.17
393.05	226.17
393.43	226.16
393.81	226.17
394.18	226.17
394.56	226.15
394.94	226.16
395.31	226.22
395.69	226.28
396.06	226.35
396.44	226.37
396.82	226.41
397.19	226.50
397.57	226.50
397.95	226.59
398.32	226.62
398.70	226.67
399.07	226.73
399.45	226.79
399.82	226.86
400.20	226.89
400.58	226.98
400.95	227.00
401.33	227.08
401.70	227.21
402.08	227.30
402.45	227.41
402.83	227.54
403.20	227.59
403.58	227.70
403.95	227.81
404.33	227.93
404.71	228.07
405.08	228.23
405.46	228.38
405.83	228.50
406.21	228.62
406.58	228.78
406.96	228.97
407.33	229.12
407.70	229.33
408.08	229.60
408.45	229.77
408.83	230.00
409.20	230.21
409.58	230.39
409.95	230.65
410.33	230.92
410.70	231.14
411.08	231.47
411.45	231.75
411.82	232.04
412.20	232.39
412.57	232.80
412.95	233.08
413.32	233.48
413.69	233.88
414.07	234.33
414.44	234.79
414.82	235.21
415.19	235.76
415.56	236.28
415.94	236.82
416.31	237.47
416.68	238.12
417.06	238.83
417.43	239.55
417.81	240.29
418.18	241.03
418.55	241.88
418.93	242.73
419.30	243.61
419.67	244.56
420.04	245.52
420.42	246.52
420.79	247.70
421.16	248.85
421.54	250.05
421.91	251.26
422.28	252.53
422.66	253.88
423.03	255.19
423.40	256.52
423.77	257.95
424.15	259.34
424.52	260.80
424.89	262.39
425.26	263.93
425.64	265.40
426.01	267.02
426.38	268.74
426.75	270.42
427.13	272.16
427.50	273.97
427.87	275.86
428.24	277.71
428.61	279.46
428.99	281.40
429.36	283.47
429.73	285.54
430.10	287.55
430.47	289.64
430.85	291.76
431.22	293.99
431.59	296.40
431.96	298.68
432.33	301.18
432.70	303.59
433.08	306.37
433.45	309.09
433.82	311.68
434.19	314.54
434.56	317.34
434.93	319.93
435.30	322.56
435.68	325.44
436.05	328.28
436.42	331.13
436.79	333.66
437.16	336.36
437.53	339.19
437.90	342.00
438.27	344.76
438.64	347.59
439.01	350.15
439.38	352.35
439.75	354.51
440.13	356.98
440.50	359.30
440.87	361.19
441.24	363.05
441.61	365.17
441.98	366.64
442.35	368.48
442.72	370.34
443.09	372.13
443.46	373.06
443.83	373.62
444.20	374.06
444.57	374.87
444.94	375.20
445.31	375.53
445.68	375.88
446.05	375.91
446.42	375.52
446.79	375.13
447.16	374.68
447.53	374.38
447.90	373.24
448.27	372.11
448.64	370.47
449.01	369.33
449.37	367.39
449.74	365.52
450.11	363.27
450.48	360.84
450.85	358.33
451.22	356.19
451.59	354.23
451.96	352.33
452.33	349.74
452.70	347.33
453.07	344.48
453.43	341.58
453.80	338.81
454.17	336.19
454.54	333.65
454.91	330.94
455.28	328.26
455.65	325.76
456.02	323.34
456.38	321.23
456.75	318.60
457.12	316.34
457.49	314.09
457.86	311.92
458.23	310.09
458.59	308.03
458.96	306.01
459.33	304.11
459.70	302.24
460.07	300.71
460.43	299.01
460.80	297.44
461.17	295.98
461.54	294.51
461.91	293.00
462.27	291.57
462.64	290.34
463.01	289.00
463.38	287.73
463.74	286.32
464.11	285.20
464.48	284.19
464.85	283.09
465.21	282.26
465.58	281.30
465.95	280.19
466.32	279.27
466.68	278.36
467.05	277.47
467.42	276.57
467.78	275.69
468.15	274.85
468.52	274.17
468.88	273.35
469.25	272.57
469.62	271.96
469.98	271.33
470.35	270.68
470.72	270.09
471.08	269.43
471.45	268.92
471.82	268.35
472.18	267.73
472.55	267.32
472.92	266.77
473.28	266.32
473.65	265.84
474.02	265.45
474.38	265.08
474.75	264.76
475.11	264.43
475.48	264.14
475.85	263.89
476.21	263.66
476.58	263.45
476.94	263.34
477.31	263.20
477.67	263.02
478.04	262.92
478.41	262.82
478.77	262.87
479.14	262.79
479.50	262.81
479.87	262.86
480.23	262.93
480.60	262.99
480.96	263.10
481.33	263.34
481.69	263.53
482.06	263.67
482.42	263.92
482.79	264.17
483.15	264.48
483.52	264.84
483.88	265.21
484.25	265.62
484.61	266.00
484.98	266.45
485.34	267.01
485.71	267.58
486.07	268.20
486.44	268.74
486.80	269.46
487.17	270.15
487.53	271.00
487.90	271.86
488.26	272.81
488.62	273.78
488.99	274.75
489.35	275.75
489.72	276.88
490.08	278.07
490.44	279.30
490.81	280.64
491.17	281.93
491.54	283.37
491.90	284.90
492.26	286.56
492.63	288.28
492.99	290.03
493.36	291.95
493.72	294.00
494.08	296.12
494.45	298.36
494.81	300.75
495.17	303.19
495.54	305.77
495.90	308.45
496.26	311.28
496.63	314.26
496.99	317.39
497.35	320.71
497.72	324.16
498.08	327.71
498.44	331.38
498.80	335.36
499.17	339.48
499.53	343.66
499.89	348.03
500.26	352.52
500.62	357.25
500.98	362.23
501.34	367.30
501.71	372.65
502.07	378.06
502.43	383.69
502.79	389.54
503.16	395.64
503.52	401.98
503.88	408.39
504.24	415.02
504.60	421.92
504.97	429.00
505.33	436.29
505.69	443.95
506.05	451.78
506.41	459.75
506.78	467.84
507.14	476.33
507.50	485.09
507.86	494.13
508.22	503.31
508.59	512.54
508.95	522.13
509.31	531.91
509.67	542.02
510.03	552.32
510.39	562.82
510.75	573.62
511.12	584.52
511.48	595.82
511.84	607.24
512.20	618.74
512.56	630.79
512.92	642.95
513.28	655.29
513.64	667.77
514.00	680.42
514.37	693.40
514.73	706.44
515.09	719.43
515.45	732.73
515.81	746.33
516.17	760.38
516.53	774.56
516.89	788.76
517.25	802.96
517.61	817.45
517.97	831.92
518.33	846.34
518.69	861.07
519.05	876.01
519.41	891.23
519.77	906.79
520.13	922.20
520.49	937.61
520.85	952.99
521.21	968.70
521.57	984.98
521.93	1000.69
522.29	1017.11
522.65	1033.32
523.01	1049.55
523.37	1065.61
523.73	1081.68
524.09	1097.80
524.45	1114.10
524.81	1130.76
525.17	1147.45
525.53	1164.34
525.89	1181.17
526.25	1198.05
526.61	1214.50
526.97	1231.32
527.33	1247.80
527.68	1264.32
528.04	1280.73
528.40	1297.36
528.76	1314.43
529.12	1330.94
529.48	1347.87
529.84	1363.86
530.20	1380.51
530.56	1397.45
530.91	1414.92
531.27	1431.54
531.63	1447.91
531.99	1464.49
532.35	1480.28
532.71	1496.08
533.07	1512.34
533.42	1528.14
533.78	1544.02
534.14	1560.29
534.50	1575.46
534.86	1591.27
535.21	1606.45
535.57	1622.35
535.93	1637.86
536.29	1652.59
536.65	1667.61
537.00	1682.29
537.36	1697.48
537.72	1711.95
538.08	1726.41
538.44	1740.11
538.79	1754.04
539.15	1767.70
539.51	1781.46
539.87	1795.79
540.22	1809.60
540.58	1823.25
540.94	1836.64
541.29	1849.51
541.65	1862.12
542.01	1875.31
542.37	1887.65
542.72	1900.09
543.08	1911.78
543.44	1924.04
543.79	1935.24
544.15	1946.14
544.51	1957.71
544.87	1968.72
545.22	1979.52
545.58	1989.63
545.94	1999.29
546.29	2009.16
546.65	2019.00
547.01	2028.15
547.36	2036.93
547.72	2045.23
548.07	2053.14
548.43	2061.32
548.79	2069.43
549.14	2076.92
549.50	2084.31
549.86	2091.77
550.21	2099.09
550.57	2106.39
550.92	2112.96
551.28	2119.99
551.64	2127.13
551.99	2133.68
552.35	2139.78
552.70	2146.01
553.06	2151.94
553.41	2158.15
553.77	2164.22
554.13	2170.36
554.48	2176.43
554.84	2181.94
555.19	2187.23
555.55	2192.27
555.90	2196.67
556.26	2201.50
556.61	2206.29
556.97	2210.37
557.32	2214.64
557.68	2218.74
558.03	2223.00
558.39	2226.77
558.74	2231.50
559.10	2235.25
559.45	2238.87
559.81	2243.24
560.16	2247.06
560.52	2250.42
560.87	2253.84
561.23	2256.42
561.58	2259.19
561.94	2261.80
562.29	2264.05
562.64	2266.85
563.00	2269.52
563.35	2273.03
563.71	2276.14
564.06	2279.31
564.42	2282.23
564.77	2284.70
565.12	2287.06
565.48	2288.96
565.83	2290.78
566.19	2291.97
566.54	2293.03
566.89	2294.14
567.25	2294.61
567.60	2295.90
567.96	2297.56
568.31	2298.54
568.66	2299.75
569.02	2300.28
569.37	2300.71
569.72	2301.62
570.08	2301.63
570.43	2301.76
570.78	2301.16
571.14	2299.71
571.49	2298.45
571.84	2298.25
572.20	2297.17
572.55	2295.99
572.90	2294.30
573.26	2293.09
573.61	2291.39
573.96	2289.55
574.31	2286.50
574.67	2283.66
575.02	2280.15
575.37	2276.82
575.72	2273.06
576.08	2269.64
576.43	2266.38
576.78	2262.57
577.13	2259.47
577.49	2256.61
577.84	2252.99
578.19	2249.42
578.54	2245.78
578.90	2241.51
579.25	2235.89
579.60	2230.88
579.95	2225.95
580.30	2221.02
580.66	2215.79
581.01	2210.91
581.36	2206.10
581.71	2202.08
582.06	2197.63
582.42	2193.05
582.77	2187.68
583.12	2182.99
583.47	2178.28
583.82	2173.28
584.17	2168.08
584.53	2162.58
584.88	2156.86
585.23	2151.17
585.58	2145.52
585.93	2140.02
586.28	2135.26
586.63	2130.31
586.98	2125.39
587.34	2120.60
587.69	2115.86
588.04	2110.55
588.39	2104.87
588.74	2098.33
589.09	2092.07
589.44	2085.13
589.79	2079.16
590.14	2073.69
590.49	2067.21
590.84	2060.93
591.19	2055.01
591.54	2048.45
591.89	2041.11
592.25	2034.35
592.60	2027.11
592.95	2019.71
593.30	2012.40
593.65	2004.80
594.00	1997.85
594.35	1990.62
594.70	1982.66
595.05	1975.32
595.40	1968.07
595.75	1960.59
596.10	1954.39
596.45	1947.78
596.80	1941.66
597.15	1934.95
597.50	1927.75
597.85	1921.30
598.19	1914.60
598.54	1907.25
598.89	1900.76
599.24	1894.85
599.59	1888.11
599.94	1882.05
600.29	1875.64
600.64	1869.03
600.99	1861.74
601.34	1854.79
601.69	1847.83
602.04	1840.84
602.39	1833.50
602.74	1826.60
603.08	1819.75
603.43	1813.01
603.78	1805.67
604.13	1798.60
604.48	1791.29
604.83	1784.50
605.18	1777.53
605.53	1769.45
605.87	1761.71
606.22	1754.51
606.57	1746.57
606.92	1739.36
607.27	1732.10
607.62	1725.22
607.96	1718.02
608.31	1711.25
608.66	1703.70
609.01	1696.03
609.36	1688.62
609.70	1680.63
610.05	1672.64
610.40	1664.90
610.75	1656.61
611.10	1648.88
611.44	1640.37
611.79	1632.46
612.14	1623.72
612.49	1614.62
612.83	1606.39
613.18	1598.22
613.53	1590.06
613.88	1581.50
614.22	1573.07
614.57	1564.41
614.92	1556.37
615.27	1548.79
615.61	1540.58
615.96	1532.49
616.31	1524.92
616.65	1517.43
617.00	1509.89
617.35	1502.24
617.70	1494.06
618.04	1485.58
618.39	1477.36
618.74	1469.80
619.08	1461.42
619.43	1453.90
619.78	1446.95
620.12	1439.70
620.47	1432.16
620.82	1424.04
621.16	1416.62
621.51	1409.10
621.85	1401.42
622.20	1392.80
622.55	1384.42
622.89	1376.42
623.24	1368.79
623.59	1361.32
623.93	1353.80
624.28	1346.48
624.62	1338.92
624.97	1331.72
625.32	1325.00
625.66	1318.09
626.01	1310.89
626.35	1303.46
626.70	1295.70
627.04	1287.95
627.39	1280.10
627.73	1272.70
628.08	1265.68
628.43	1258.33
628.77	1250.94
629.12	1243.44
629.46	1236.36
629.81	1228.89
630.15	1221.75
630.50	1214.27
630.84	1206.19
631.19	1198.31
631.53	1190.90
631.88	1183.29
632.22	1175.68
632.57	1168.30
632.91	1160.72
633.26	1153.28
633.60	1145.94
633.95	1138.86
634.29	1131.77
634.64	1125.12
634.98	1117.76
635.32	1110.62
635.67	1104.09
636.01	1097.33
636.36	1090.48
636.70	1083.95
637.05	1077.42
637.39	1070.92
637.73	1064.48
638.08	1058.47
638.42	1052.49
638.77	1046.06
639.11	1039.55
639.45	1033.20
639.80	1026.54
640.14	1020.12
640.49	1013.56
640.83	1007.30
641.17	1001.01
641.52	994.73
641.86	988.26
642.20	982.38
642.55	976.06
642.89	969.64
643.23	963.19
643.58	957.49
643.92	951.22
644.26	945.10
644.61	939.09
644.95	932.97
645.29	926.41
645.64	919.66
645.98	913.30
646.32	907.47
646.66	901.40
647.01	895.66
647.35	889.90
647.69	884.00
648.04	878.42
648.38	872.64
648.72	866.61
649.06	860.61
649.41	854.67
649.75	848.70
650.09	842.65
650.43	836.85
650.78	830.65
651.12	824.77
651.46	819.10
651.80	813.23
652.14	807.91
652.49	802.59
652.83	797.38
653.17	791.62
653.51	785.83
653.85	780.42
654.20	774.69
654.54	768.68
654.88	763.02
655.22	757.09
655.56	751.37
655.90	745.95
656.25	740.68
656.59	735.35
656.93	730.27
657.27	725.19
657.61	719.72
657.95	714.63
658.29	709.50
658.64	704.23
658.98	698.98
659.32	693.58
659.66	688.31
660.00	682.99
660.34	678.08
660.68	673.16
661.02	668.10
661.36	663.42
661.70	658.92
662.05	654.53
662.39	650.19
662.73	645.71
663.07	641.30
663.41	636.87
663.75	632.33
664.09	627.78
664.43	623.34
664.77	619.28
665.11	615.01
665.45	610.88
665.79	606.78
666.13	602.65
666.47	598.44
666.81	594.29
667.15	590.15
667.49	586.27
667.83	582.51
668.17	578.52
668.51	574.37
668.85	570.33
669.19	566.46
669.53	562.65
669.87	558.78
670.21	555.06
670.55	551.37
670.89	547.98
671.23	544.55
671.57	541.01
671.91	537.41
672.25	533.95
672.58	530.45
672.92	527.03
673.26	523.82
673.60	520.74
673.94	517.62
674.28	514.73
674.62	511.77
674.96	508.58
675.30	505.72
675.64	502.84
675.97	500.12
676.31	497.32
676.65	494.34
676.99	491.64
677.33	488.80
677.67	486.03
678.01	483.02
678.34	480.02
678.68	477.16
679.02	474.38
679.36	471.61
679.70	468.85
680.04	466.09
680.37	463.21
680.71	460.38
681.05	457.83
681.39	455.04
681.73	452.39
682.06	449.88
682.40	447.33
682.74	444.77
683.08	442.20
683.42	439.58
683.75	437.15
684.09	434.58
684.43	432.15
684.77	429.67
685.10	427.34
685.44	425.07
685.78	422.79
686.12	420.52
686.45	418.23
686.79	415.93
687.13	413.77
687.46	411.63
687.80	409.50
688.14	407.23
688.48	405.22
688.81	402.96
689.15	400.88
689.49	398.70
689.82	396.63
690.16	394.55
690.50	392.62
690.83	390.67
691.17	388.73
691.51	386.83
691.84	385.01
692.18	383.03
692.52	381.01
692.85	379.08
693.19	377.24
693.52	375.42
693.86	373.66
694.20	371.91
694.53	370.12
694.87	368.27
695.21	366.53
695.54	364.73
695.88	363.04
696.21	361.29
696.55	359.62
696.88	357.97
697.22	356.31
697.56	354.68
697.89	353.02
698.23	351.36
698.56	349.76
698.90	348.14
699.23	346.54
699.57	345.01
699.90	343.49
700.24	341.97
700.58	340.44
700.91	338.92
701.25	337.43
701.58	336.02
701.92	334.67
702.25	333.25
702.59	331.87
702.92	330.51
703.26	329.20
703.59	327.91
703.93	326.69
704.26	325.48
704.60	324.16
704.93	322.86
705.26	321.63
705.60	320.42
705.93	319.23
706.27	318.18
706.60	317.10
706.94	315.96
707.27	314.78
707.61	313.70
707.94	312.66
708.27	311.57
708.61	310.53
708.94	309.52
709.28	308.52
709.61	307.58
709.94	306.65
710.28	305.60
710.61	304.63
710.95	303.53
711.28	302.56
711.61	301.59
711.95	300.65
712.28	299.68
712.61	298.69
712.95	297.78
713.28	296.92
713.61	296.05
713.95	295.20
714.28	294.37
714.61	293.52
714.95	292.68
715.28	291.82
715.61	290.92
715.95	290.05
716.28	289.22
716.61	288.36
716.95	287.53
717.28	286.82
717.61	286.05
717.94	285.33
718.28	284.56
718.61	283.88
718.94	283.18
719.27	282.53
719.61	281.89
719.94	281.24
720.27	280.49
720.60	279.79
720.94	279.16
721.27	278.55
721.60	277.96
721.93	277.37
722.27	276.80
722.60	276.28
722.93	275.73
723.26	275.21
723.59	274.67
723.93	274.10
724.26	273.53
724.59	273.00
724.92	272.47
725.25	271.95
725.59	271.43
725.92	270.94
726.25	270.44
726.58	269.94
726.91	269.45
727.24	269.00
727.57	268.53
727.91	267.99
728.24	267.55
728.57	267.03
728.90	266.57
729.23	266.11
729.56	265.69
729.89	265.21
730.22	264.75
730.55	264.29
730.89	263.85
731.22	263.41
731.55	262.98
731.88	262.58
732.21	262.17
732.54	261.74
732.87	261.31
733.20	260.93
733.53	260.54
733.86	260.16
734.19	259.75
734.52	259.40
734.85	259.09
735.18	258.66
735.51	258.33
735.84	257.91
736.17	257.55
736.50	257.12
736.83	256.91
737.16	256.55
737.49	256.18
737.82	255.83
738.15	255.48
738.48	255.16
738.81	254.84
739.14	254.50
739.47	254.20
739.80	253.90
740.13	253.58
740.46	253.22
740.79	252.89
741.12	252.59
741.45	252.24
741.78	251.89
742.11	251.63
742.44	251.30
742.77	251.04
743.10	250.77
743.43	250.50
743.75	250.07
744.08	249.92
744.41	249.67
744.74	249.42
745.07	249.10
745.40	248.84
745.73	248.59
746.06	248.33
746.39	248.04
746.71	247.78
747.04	247.49
747.37	247.26
747.70	247.00
748.03	246.72
748.36	246.51
748.68	246.32
749.01	246.05
749.34	245.82
749.67	245.57
750.00	245.32
750.33	245.15
750.65	244.96
750.98	244.59
751.31	244.36
751.64	244.15
751.97	244.03
752.29	243.80
752.62	243.53
752.95	243.31
753.28	243.09
753.60	242.87
753.93	242.75
754.26	242.55
754.59	242.34
754.91	242.14
755.24	241.92
755.57	241.74
755.90	241.53
756.22	241.30
756.55	241.11
756.88	240.92
757.20	240.70
757.53	240.50
757.86	240.34
758.19	240.18
758.51	240.02
758.84	239.83
759.17	239.67
759.49	239.51
759.82	239.41
760.15	239.29
760.47	239.13
760.80	238.92
761.13	238.76
761.45	238.62
761.78	238.48
762.11	238.36
762.43	238.18
762.76	238.04
763.08	237.97
763.41	237.86
763.74	237.75
764.06	237.59
764.39	237.49
764.71	237.40
765.04	237.31
765.37	237.17
765.69	237.03
766.02	236.88
766.34	236.77
766.67	236.64
767.00	236.55
767.32	236.49
767.65	236.43
767.97	236.33
768.30	236.19
768.62	236.08
768.95	235.97
769.27	235.88
769.60	235.79
769.92	235.62
770.25	235.50
770.57	235.39
770.90	235.32
771.22	235.19
771.55	235.04
771.87	234.91
772.20	234.83
772.52	234.82
772.85	234.89
773.17	234.81
773.50	234.71
773.82	234.62
774.15	234.46
774.47	234.31
774.80	234.21
775.12	234.16
775.45	234.10
775.77	234.03
776.09	233.93
776.42	233.86
776.74	233.86
777.07	233.79
777.39	233.73
777.72	233.61
778.04	233.56
778.36	233.51
778.69	233.45
779.01	233.35
779.33	233.19
779.66	232.97
779.98	232.87
780.31	232.78
780.63	232.72
780.95	232.69
781.28	232.66
781.60	232.59
781.92	232.53
782.25	232.46
782.57	232.37
782.89	232.32
783.22	232.26
783.54	232.16
783.86	232.11
784.19	232.01
784.51	231.97
784.83	231.90
785.16	231.82
785.48	231.75
785.80	231.71
786.12	231.65
786.45	231.61
786.77	231.58
787.09	231.54
787.42	231.44
787.74	231.40
788.06	231.33
788.38	231.27
788.71	231.22
789.03	231.15
789.35	231.13
789.67	231.08
789.99	231.03
790.32	230.97
790.64	230.94
790.96	231.02
791.28	230.96
791.61	230.91
791.93	230.88
792.25	230.83
792.57	230.86
792.89	230.85
793.21	230.83
793.54	230.75
793.86	230.71
794.18	230.66
794.50	230.62
794.82	230.58
795.14	230.60
795.47	230.59
795.79	230.57
796.11	230.52
796.43	230.48
796.75	230.45
797.07	230.42
797.39	230.37
797.71	230.25
798.04	230.23
798.36	230.21
798.68	230.17
799.00	230.12
799.32	230.05
799.64	230.03
799.96	229.98
800.28	229.99
800.60	229.95
800.92	229.95
801.24	229.91
801.56	229.91
801.89	229.87
802.21	229.82
802.53	229.80
802.85	229.78
803.17	229.79
803.49	229.73
803.81	229.72
804.13	229.68
804.45	229.65
804.77	229.61
805.09	229.59
805.41	229.55
805.73	229.55
806.05	229.49
806.37	229.45
806.69	229.39
807.01	229.35
807.33	229.35
807.65	229.30
807.97	229.34
808.28	229.31
808.60	229.28
808.92	229.26
809.24	229.29
809.56	229.23
809.88	229.20
810.20	229.21
810.52	229.21
810.84	229.20
811.16	229.17
811.48	229.16
811.80	229.19
812.12	229.20
812.43	229.18
812.75	229.17
813.07	229.17
813.39	229.18
813.71	229.18
814.03	229.14
814.35	229.13
814.67	229.06
814.98	229.04
815.30	229.01
815.62	228.96
815.94	228.89
816.26	228.94
816.58	228.92
816.89	228.89
817.21	228.85
817.53	228.81
817.85	228.76
818.17	228.73
818.48	228.66
818.80	228.66
819.12	228.63
819.44	228.57
819.76	228.53
820.07	228.52
820.39	228.49
820.71	228.45
821.03	228.41
821.34	228.40
821.66	228.38
821.98	228.40
822.30	228.34
822.61	228.37
822.93	228.28
823.25	228.22
823.57	228.17
823.88	228.16
824.20	228.14
824.52	228.17
824.83	228.12
825.15	228.07
825.47	228.03
825.79	228.00
826.10	227.98
826.42	227.93
826.74	227.90
827.05	227.87
827.37	227.89
827.69	227.88
828.00	227.84
828.32	227.84
828.64	227.81
828.95	227.90
829.27	227.85
829.58	227.87
829.90	227.91
830.22	227.92
830.53	227.89
830.85	227.89
831.17	227.83
831.48	227.85
831.80	227.85
832.11	227.83
832.43	227.81
832.75	227.81
833.06	227.85
833.38	227.79
833.69	227.79
834.01	227.75
834.32	227.73
834.64	227.73
834.96	227.68
835.27	227.69
835.59	227.59
835.90	227.58
836.22	227.55
836.53	227.48
836.85	227.44
837.16	227.54
837.48	227.54
837.79	227.55
838.11	227.53
838.42	227.55
838.74	227.56
839.05	227.58
839.37	227.58
839.68	227.54
840.00	227.60
840.31	227.57
840.63	227.57
840.94	227.54
841.26	227.50
841.57	227.46
841.88	227.45
842.20	227.49
842.51	227.46
842.83	227.47
843.14	227.58
843.46	227.59
843.77	227.54
844.08	227.54
844.40	227.54
844.71	227.59
845.03	227.59
845.34	227.57
845.65	227.57
845.97	227.58
846.28	227.59
846.60	227.56
846.91	227.60
847.22	227.59
847.54	227.63
847.85	227.65
848.16	227.67
848.48	227.64
848.79	227.67
849.10	227.69
849.42	227.69
849.73	227.59
850.04	227.60
850.36	227.56
850.67	227.56
850.98	227.58
851.30	227.53
851.61	227.52
851.92	227.52
852.23	227.52
852.55	227.52
852.86	227.53
853.17	227.53
853.49	227.49
853.80	227.53
854.11	227.52
854.42	227.54
854.74	227.52
855.05	227.52
855.36	227.47
855.67	227.49
855.99	227.50
856.30	227.59
856.61	227.58
856.92	227.58
857.23	227.59
857.55	227.57
857.86	227.56
858.17	227.58
858.48	227.56
858.79	227.55
859.11	227.56
859.42	227.53
859.73	227.54
860.04	227.56
860.35	227.52
860.66	227.51
860.98	227.50
861.29	227.52
861.60	227.53
861.91	227.55
862.22	227.50
862.53	227.43
862.84	227.33
863.16	227.36
863.47	227.36
863.78	227.34
864.09	227.32
864.40	227.34
864.71	227.36
865.02	227.38
865.33	227.37
865.64	227.33
865.95	227.32
866.27	227.39
866.58	227.40
866.89	227.43
867.20	227.42
867.51	227.44
867.82	227.43
868.13	227.45
868.44	227.42
868.75	227.44
869.06	227.49
869.37	227.52
869.68	227.47
869.99	227.48
870.30	227.47
870.61	227.47
870.92	227.45
871.23	227.39
871.54	227.39
871.85	227.40
872.16	227.41
872.47	227.38
872.78	227.30
873.09	227.29
873.40	227.24
873.71	227.23
874.02	227.18
874.33	227.19
874.64	227.16
874.95	227.21
875.26	227.21
875.56	227.21
875.87	227.19
876.18	227.17
876.49	227.25
876.80	227.26
877.11	227.27
877.42	227.26
877.73	227.21
878.04	227.19
878.35	227.21
878.66	227.22
878.96	227.23
879.27	227.23
879.58	227.19
879.89	227.20
880.20	227.23
880.51	227.25
880.82	227.26
881.12	227.25
881.43	227.20
881.74	227.17
882.05	227.13
882.36	227.12
882.67	227.15
882.97	227.03
883.28	227.00
883.59	226.97
883.90	226.98
884.21	227.03
884.51	227.01
884.82	226.98
885.13	226.97
885.44	226.95
885.74	226.93
886.05	226.91
886.36	226.91
886.67	226.85
886.98	226.89
887.28	226.86
887.59	226.85
887.90	226.85
888.20	226.81
888.51	226.83
888.82	226.79
889.13	226.80
889.43	226.89
889.74	226.88
890.05	226.86
890.35	226.85
890.66	226.84
890.97	226.83
891.28	226.78
891.58	226.76
891.89	226.76
892.20	226.74
892.50	226.77
892.81	226.73
893.12	226.74
893.42	226.70
893.73	226.75
894.04	226.77
894.34	226.77
894.65	226.81
894.95	226.79
895.26	226.80
895.57	226.82
895.87	226.73
896.18	226.72
896.48	226.72
896.79	226.73
897.10	226.79
897.40	226.81
897.71	226.87
898.01	226.88
898.32	226.92
898.63	226.91
898.93	226.94
899.24	226.98
899.54	226.98
899.85	226.95
900.15	226.91
900.46	226.92
900.76	226.91
901.07	226.88
901.38	226.90
901.68	226.89
901.99	226.86
902.29	226.89
902.60	226.92
902.90	226.95
903.21	226.97
903.51	226.93
903.82	226.97
904.12	226.96
904.43	226.97
904.73	226.97
905.03	227.03
905.34	227.07
905.64	227.07
905.95	227.04
906.25	227.09
906.56	227.09
906.86	227.09
907.17	227.10
907.47	227.14
907.77	227.14
908.08	227.14
908.38	227.17
908.69	227.15
908.99	227.14
909.30	227.13
909.60	227.11
909.90	227.11
910.21	227.08
910.51	227.07
910.81	227.06
911.12	227.04
911.42	227.03
911.73	226.92
912.03	226.95
912.33	226.98
912.64	226.97
912.94	226.94
913.24	226.90
913.55	226.89
913.85	226.89
914.15	226.91
914.46	226.94
914.76	226.92
915.06	226.95
915.37	226.95
915.67	226.91
915.97	226.91
916.27	226.89
916.58	226.90
916.88	226.91
917.18	226.88
917.49	226.96
917.79	226.95
918.09	226.99
918.39	226.98
918.70	226.98
919.00	226.95
919.30	227.01
919.60	226.96
919.91	226.98
920.21	226.96
920.51	226.89
920.81	226.84
921.12	226.83
921.42	226.78
921.72	226.79
922.02	226.82
922.32	226.81
922.63	226.82
922.93	226.88
923.23	226.84
923.53	226.82
923.83	226.74
924.13	226.73
924.44	226.73
924.74	226.74
925.04	226.75
925.34	226.76
925.64	226.71
925.94	226.75
926.24	226.78
926.55	226.78
926.85	226.79
927.15	226.81
927.45	226.81
927.75	226.80
928.05	226.76
928.35	226.73
928.65	226.75
928.95	226.73
929.26	226.66
929.56	226.68
929.86	226.70
930.16	226.69
930.46	226.67
930.76	226.68
931.06	226.65
931.36	226.61
931.66	226.62
931.96	226.61
932.26	226.61
932.56	226.57
932.86	226.57
933.16	226.58
933.46	226.53
933.76	226.52
934.06	226.53
934.36	226.58
934.66	226.62
934.96	226.60
935.26	226.59
935.56	226.61
935.86	226.61
936.16	226.62
936.46	226.61
936.76	226.62
937.06	226.59
937.36	226.59
937.66	226.62
937.96	226.62
938.26	226.63
938.56	226.63
938.86	226.65
939.16	226.68
939.46	226.69
939.76	226.73
940.06	226.75
940.35	226.75
940.65	226.72
940.95	226.73
941.25	226.72
941.55	226.73
941.85	226.70
942.15	226.71
942.45	226.74
942.75	226.74
943.04	226.75
943.34	226.78
943.64	226.78
943.94	226.77
944.24	226.76
944.54	226.77
944.84	226.76
945.13	226.76
945.43	226.74
945.73	226.76
946.03	226.76
946.33	226.78
946.62	226.80
946.92	226.79
947.22	226.80
947.52	226.81
947.82	226.82
948.11	226.84
948.41	226.82
948.71	226.78
949.01	226.81
949.31	226.79
949.60	226.77
949.90	226.80
950.20	226.80
950.50	226.82
950.79	226.78
951.09	226.85
951.39	226.82
951.69	226.82
951.98	226.85
952.28	226.88
952.58	226.83
952.87	226.81
953.17	226.83
953.47	226.81
953.76	226.81
954.06	226.82
954.36	226.80
954.66	226.82
954.95	226.88
955.25	226.89
955.55	226.90
955.84	226.90
956.14	226.87
956.44	226.89
956.73	226.85
957.03	226.86
957.32	226.84
957.62	226.86
957.92	226.86
958.21	226.86
958.51	226.95
958.81	226.95
959.10	226.97
959.40	227.00
959.69	227.02
959.99	227.04
960.29	227.02
960.58	227.01
960.88	227.05
961.17	226.99
961.47	227.01
961.76	227.00
962.06	227.02
962.36	227.03
962.65	227.01
962.95	227.00
963.24	227.01
963.54	227.03
963.83	227.03
964.13	227.04
964.42	227.01
964.72	226.93
965.01	226.94
965.31	226.92
965.60	226.88
965.90	226.93
966.19	226.90
966.49	226.92
966.78	226.92
967.08	226.91
967.37	226.92
967.67	226.88
967.96	226.92
968.26	226.89
968.55	226.90
968.85	226.90
969.14	226.93
969.43	226.92
969.73	226.90
970.02	226.88
970.32	226.88
970.61	226.85
970.91	226.83
971.20	226.80
971.49	226.79
971.79	226.77
972.08	226.68
972.38	226.65
972.67	226.62
972.96	226.61
973.26	226.58
973.55	226.61
973.85	226.59
974.14	226.53
974.43	226.56
974.73	226.53
975.02	226.53
975.31	226.51
975.61	226.50
975.90	226.44
976.19	226.47
976.49	226.44
976.78	226.46
977.07	226.48
977.37	226.49
977.66	226.49
977.95	226.52
978.24	226.58
978.54	226.61
978.83	226.59
979.12	226.57
979.42	226.61
979.71	226.58
980.00	226.57
980.29	226.62
980.59	226.59
980.88	226.60
981.17	226.58
981.46	226.59
981.76	226.59
982.05	226.66
982.34	226.65
982.63	226.66
982.93	226.65
983.22	226.64
983.51	226.63
983.80	226.66
984.09	226.64
984.39	226.60
984.68	226.61
984.97	226.64
985.26	226.66
985.55	226.61
985.85	226.61
986.14	226.67
986.43	226.65
986.72	226.64
987.01	226.62
987.30	226.64
987.59	226.62
987.89	226.63
988.18	226.59
988.47	226.57
988.76	226.58
989.05	226.56
989.34	226.55
989.63	226.57
989.92	226.55
990.22	226.51
990.51	226.53
990.80	226.51
991.09	226.54
991.38	226.52
991.67	226.53
991.96	226.50
992.25	226.49
992.54	226.51
992.83	226.52
993.12	226.53
993.41	226.53
993.70	226.59
993.99	226.59
994.28	226.60
994.58	226.63
994.87	226.65
995.16	226.66
995.45	226.64
995.74	226.61
996.03	226.64
996.32	226.70
996.61	226.72
996.90	226.70
997.19	226.68
997.48	226.69
997.77	226.70
998.06	226.70
998.34	226.69
998.63	226.67
998.92	226.63
999.21	226.63
999.50	226.64
999.79	226.59
1000.08	226.59
1000.37	226.59
1000.66	226.53
1000.95	226.49
1001.24	226.51
1001.53	226.50
1001.82	226.51
1002.11	226.45
1002.40	226.45
1002.68	226.44
1002.97	226.52
1003.26	226.51
1003.55	226.49
1003.84	226.50
1004.13	226.52
1004.42	226.51
1004.71	226.48
1004.99	226.51
1005.28	226.52
1005.57	226.51
1005.86	226.50
1006.15	226.44
1006.44	226.40
1006.72	226.43
1007.01	226.42
1007.30	226.42
1007.59	226.44
1007.88	226.44
1008.17	226.49
1008.45	226.46
1008.74	226.47
1009.03	226.42
1009.32	226.41
1009.60	226.41
1009.89	226.39
1010.18	226.34
1010.47	226.35
1010.76	226.37
1011.04	226.37
1011.33	226.39
1011.62	226.40
1011.91	226.40
1012.19	226.43
1012.48	226.45
1012.77	226.45
1013.05	226.53
1013.34	226.52
1013.63	226.49
1013.92	226.49
1014.20	226.47
1014.49	226.47
1014.78	226.45
1015.06	226.47
1015.35	226.48
1015.64	226.51
1015.92	226.54
1016.21	226.58
1016.50	226.57
1016.78	226.60
1017.07	226.59
1017.36	226.58
1017.64	226.57
1017.93	226.62
1018.22	226.64
1018.50	226.64
1018.79	226.64
1019.08	226.60
1019.36	226.62
1019.65	226.65
1019.93	226.68
1020.22	226.71
1020.51	226.75
1020.79	226.72
1021.08	226.36
1021.36	226.41
1021.65	226.58
1021.94	226.66
1022.22	226.91
1022.51	226.50
1022.79	227.44
1023.08	226.60
1023.36	227.69
1023.65	226.03
>>>>>End Processed Spectral Data<<<<<
