SpectraSuite Data File
++++++++++++++++++++++++++++++++++++
Date: Fri Feb 01 15:19:07 EST 2013
User: group
Dark Spectrum Present: No
Reference Spectrum Present: No
Number of Sampled Component Spectra: 1
Spectrometers: USB2E7196
Integration Time (usec): 35000 (USB2E7196)
Spectra Averaged: 100 (USB2E7196)
Boxcar Smoothing: 10 (USB2E7196)
Correct for Electrical Dark: No (USB2E7196)
Strobe/Lamp Enabled: No (USB2E7196)
Correct for Detector Non-linearity: No (USB2E7196)
Correct for Stray Light: No (USB2E7196)
Number of Pixels in Processed Spectrum: 2048
>>>>>Begin Processed Spectral Data<<<<<
339.09	0.00
339.48	215.27
339.86	216.10
340.24	218.14
340.63	219.31
341.01	221.98
341.39	221.95
341.78	222.88
342.16	224.44
342.54	224.98
342.93	213.38
343.31	224.15
343.69	224.66
344.07	225.13
344.46	225.52
344.84	225.91
345.22	226.13
345.60	226.35
345.99	226.55
346.37	226.68
346.75	226.79
347.13	226.85
347.52	226.91
347.90	226.95
348.28	226.99
348.66	227.04
349.05	227.02
349.43	227.03
349.81	227.09
350.19	227.16
350.57	227.20
350.96	227.24
351.34	227.34
351.72	227.45
352.10	227.51
352.48	227.56
352.87	227.57
353.25	227.63
353.63	227.70
354.01	227.78
354.39	227.87
354.77	227.95
355.15	228.04
355.54	228.11
355.92	228.18
356.30	228.25
356.68	228.38
357.06	228.45
357.44	228.50
357.82	228.56
358.20	228.64
358.58	228.68
358.97	228.76
359.35	228.83
359.73	228.88
360.11	229.01
360.49	229.11
360.87	229.20
361.25	229.26
361.63	229.38
362.01	229.42
362.39	229.41
362.77	229.44
363.15	229.47
363.53	229.47
363.91	229.50
364.29	229.50
364.67	229.42
365.05	229.47
365.43	229.51
365.81	229.53
366.19	229.52
366.57	229.57
366.95	229.52
367.33	229.52
367.71	229.49
368.09	229.49
368.47	229.45
368.85	229.43
369.23	229.44
369.61	229.35
369.99	229.34
370.37	229.34
370.75	229.33
371.13	229.27
371.51	229.20
371.89	229.17
372.27	229.12
372.65	229.08
373.03	229.00
373.41	228.94
373.78	228.87
374.16	228.78
374.54	228.68
374.92	228.60
375.30	228.51
375.68	228.44
376.06	228.36
376.44	228.30
376.82	228.20
377.19	228.11
377.57	228.05
377.95	227.95
378.33	227.86
378.71	227.72
379.09	227.65
379.47	227.59
379.84	227.47
380.22	227.42
380.60	227.31
380.98	227.22
381.36	227.14
381.73	227.03
382.11	227.00
382.49	226.91
382.87	226.83
383.25	226.75
383.62	226.78
384.00	226.69
384.38	226.61
384.76	226.62
385.13	226.58
385.51	226.52
385.89	226.45
386.27	226.40
386.64	226.38
387.02	226.32
387.40	226.28
387.78	226.30
388.15	226.25
388.53	226.23
388.91	226.21
389.29	226.19
389.66	226.17
390.04	226.13
390.42	226.12
390.79	226.14
391.17	226.15
391.55	226.05
391.92	226.04
392.30	226.07
392.68	226.02
393.05	226.01
393.43	226.02
393.81	226.05
394.18	226.05
394.56	226.08
394.94	226.12
395.31	226.16
395.69	226.18
396.06	226.26
396.44	226.30
396.82	226.33
397.19	226.43
397.57	226.51
397.95	226.61
398.32	226.68
398.70	226.76
399.07	226.86
399.45	226.95
399.82	227.02
400.20	227.08
400.58	227.19
400.95	227.25
401.33	227.36
401.70	227.57
402.08	227.68
402.45	227.81
402.83	227.95
403.20	228.10
403.58	228.23
403.95	228.36
404.33	228.49
404.71	228.63
405.08	228.81
405.46	228.96
405.83	229.11
406.21	229.27
406.58	229.43
406.96	229.62
407.33	229.81
407.70	230.00
408.08	230.27
408.45	230.49
408.83	230.76
409.20	230.96
409.58	231.11
409.95	231.39
410.33	231.62
410.70	231.88
411.08	232.14
411.45	232.42
411.82	232.72
412.20	233.09
412.57	233.50
412.95	233.77
413.32	234.19
413.69	234.60
414.07	235.06
414.44	235.53
414.82	235.96
415.19	236.52
415.56	237.08
415.94	237.62
416.31	238.25
416.68	238.85
417.06	239.57
417.43	240.21
417.81	240.99
418.18	241.79
418.55	242.64
418.93	243.50
419.30	244.43
419.67	245.35
420.04	246.30
420.42	247.33
420.79	248.54
421.16	249.66
421.54	250.83
421.91	252.02
422.28	253.28
422.66	254.62
423.03	255.89
423.40	257.24
423.77	258.68
424.15	260.08
424.52	261.59
424.89	263.16
425.26	264.73
425.64	266.16
426.01	267.71
426.38	269.36
426.75	271.04
427.13	272.77
427.50	274.59
427.87	276.45
428.24	278.26
428.61	279.98
428.99	281.91
429.36	284.01
429.73	286.08
430.10	288.09
430.47	290.14
430.85	292.25
431.22	294.48
431.59	296.85
431.96	299.14
432.33	301.61
432.70	304.01
433.08	306.83
433.45	309.50
433.82	312.12
434.19	314.97
434.56	317.80
434.93	320.47
435.30	323.08
435.68	325.99
436.05	328.83
436.42	331.67
436.79	334.20
437.16	336.91
437.53	339.76
437.90	342.55
438.27	345.30
438.64	348.16
439.01	350.81
439.38	353.06
439.75	355.21
440.13	357.75
440.50	360.14
440.87	362.01
441.24	363.94
441.61	366.12
441.98	367.65
442.35	369.44
442.72	371.29
443.09	373.11
443.46	374.09
443.83	374.72
444.20	375.19
444.57	376.03
444.94	376.32
445.31	376.63
445.68	377.00
446.05	377.11
446.42	376.75
446.79	376.28
447.16	375.84
447.53	375.52
447.90	374.30
448.27	373.10
448.64	371.51
449.01	370.34
449.37	368.41
449.74	366.49
450.11	364.26
450.48	361.80
450.85	359.25
451.22	357.12
451.59	355.06
451.96	353.11
452.33	350.52
452.70	348.15
453.07	345.33
453.43	342.41
453.80	339.61
454.17	336.88
454.54	334.31
454.91	331.62
455.28	328.97
455.65	326.47
456.02	324.02
456.38	321.89
456.75	319.26
457.12	317.00
457.49	314.78
457.86	312.53
458.23	310.66
458.59	308.59
458.96	306.50
459.33	304.66
459.70	302.83
460.07	301.31
460.43	299.58
460.80	297.99
461.17	296.58
461.54	295.08
461.91	293.68
462.27	292.24
462.64	290.92
463.01	289.52
463.38	288.23
463.74	286.89
464.11	285.73
464.48	284.70
464.85	283.59
465.21	282.74
465.58	281.89
465.95	280.79
466.32	279.92
466.68	279.02
467.05	278.14
467.42	277.23
467.78	276.26
468.15	275.41
468.52	274.72
468.88	273.84
469.25	273.09
469.62	272.45
469.98	271.78
470.35	271.15
470.72	270.56
471.08	269.91
471.45	269.33
471.82	268.77
472.18	268.12
472.55	267.68
472.92	267.13
473.28	266.62
473.65	266.17
474.02	265.70
474.38	265.32
474.75	264.97
475.11	264.61
475.48	264.40
475.85	264.14
476.21	263.90
476.58	263.69
476.94	263.54
477.31	263.38
477.67	263.19
478.04	263.09
478.41	263.01
478.77	263.04
479.14	262.97
479.50	262.97
479.87	263.07
480.23	263.15
480.60	263.19
480.96	263.24
481.33	263.40
481.69	263.61
482.06	263.78
482.42	263.96
482.79	264.20
483.15	264.49
483.52	264.86
483.88	265.20
484.25	265.59
484.61	265.98
484.98	266.41
485.34	267.00
485.71	267.54
486.07	268.17
486.44	268.71
486.80	269.40
487.17	270.09
487.53	270.87
487.90	271.64
488.26	272.61
488.62	273.64
488.99	274.63
489.35	275.67
489.72	276.76
490.08	277.95
490.44	279.18
490.81	280.49
491.17	281.83
491.54	283.32
491.90	284.88
492.26	286.51
492.63	288.24
492.99	289.99
493.36	291.91
493.72	293.95
494.08	296.02
494.45	298.25
494.81	300.63
495.17	303.12
495.54	305.75
495.90	308.42
496.26	311.19
496.63	314.15
496.99	317.26
497.35	320.56
497.72	323.93
498.08	327.46
498.44	331.10
498.80	335.00
499.17	339.04
499.53	343.18
499.89	347.58
500.26	352.06
500.62	356.73
500.98	361.67
501.34	366.69
501.71	372.06
502.07	377.52
502.43	383.12
502.79	388.88
503.16	394.91
503.52	401.19
503.88	407.58
504.24	414.23
504.60	421.13
504.97	428.25
505.33	435.62
505.69	443.31
506.05	451.10
506.41	459.00
506.78	467.14
507.14	475.60
507.50	484.33
507.86	493.34
508.22	502.55
508.59	511.77
508.95	521.36
509.31	531.15
509.67	541.26
510.03	551.52
510.39	562.08
510.75	572.96
511.12	583.88
511.48	595.20
511.84	606.68
512.20	618.13
512.56	630.05
512.92	642.24
513.28	654.64
513.64	667.10
514.00	679.82
514.37	692.85
514.73	705.90
515.09	718.89
515.45	732.22
515.81	745.80
516.17	759.78
516.53	773.96
516.89	788.21
517.25	802.45
517.61	817.04
517.97	831.50
518.33	845.94
518.69	860.89
519.05	875.91
519.41	891.07
519.77	906.71
520.13	922.36
520.49	937.73
520.85	953.15
521.21	968.98
521.57	985.34
521.93	1001.09
522.29	1017.52
522.65	1033.86
523.01	1050.14
523.37	1066.22
523.73	1082.52
524.09	1098.70
524.45	1115.02
524.81	1131.67
525.17	1148.46
525.53	1165.43
525.89	1182.25
526.25	1198.94
526.61	1215.44
526.97	1232.27
527.33	1248.83
527.68	1265.29
528.04	1281.88
528.40	1298.63
528.76	1315.74
529.12	1332.27
529.48	1349.23
529.84	1365.34
530.20	1381.99
530.56	1399.05
530.91	1416.44
531.27	1433.21
531.63	1449.73
531.99	1466.41
532.35	1482.46
532.71	1498.44
533.07	1514.67
533.42	1530.69
533.78	1546.88
534.14	1563.14
534.50	1578.48
534.86	1594.43
535.21	1609.79
535.57	1625.70
535.93	1641.21
536.29	1656.10
536.65	1671.29
537.00	1686.29
537.36	1701.61
537.72	1716.22
538.08	1730.66
538.44	1744.62
538.79	1758.63
539.15	1772.40
539.51	1786.28
539.87	1800.69
540.22	1814.41
540.58	1828.41
540.94	1841.89
541.29	1854.90
541.65	1867.69
542.01	1881.02
542.37	1893.28
542.72	1905.75
543.08	1917.69
543.44	1930.20
543.79	1941.47
544.15	1952.57
544.51	1964.13
544.87	1975.21
545.22	1986.15
545.58	1996.70
545.94	2006.57
546.29	2016.43
546.65	2026.23
547.01	2035.42
547.36	2044.16
547.72	2052.71
548.07	2060.64
548.43	2068.83
548.79	2076.89
549.14	2084.49
549.50	2091.86
549.86	2099.73
550.21	2107.09
550.57	2114.30
550.92	2120.82
551.28	2127.88
551.64	2135.00
551.99	2141.53
552.35	2147.66
552.70	2153.65
553.06	2159.32
553.41	2165.57
553.77	2171.54
554.13	2177.64
554.48	2183.76
554.84	2189.05
555.19	2194.42
555.55	2199.29
555.90	2203.76
556.26	2208.50
556.61	2213.17
556.97	2217.37
557.32	2221.40
557.68	2225.47
558.03	2229.75
558.39	2233.53
558.74	2238.06
559.10	2241.88
559.45	2245.38
559.81	2249.76
560.16	2253.70
560.52	2257.02
560.87	2260.42
561.23	2263.05
561.58	2266.04
561.94	2268.54
562.29	2271.12
562.64	2273.80
563.00	2276.50
563.35	2279.93
563.71	2283.08
564.06	2286.24
564.42	2289.22
564.77	2291.70
565.12	2293.86
565.48	2295.70
565.83	2297.47
566.19	2298.70
566.54	2299.52
566.89	2300.55
567.25	2300.89
567.60	2302.14
567.96	2303.75
568.31	2304.58
568.66	2305.68
569.02	2306.07
569.37	2306.31
569.72	2306.96
570.08	2306.81
570.43	2306.75
570.78	2306.08
571.14	2304.52
571.49	2303.23
571.84	2302.68
572.20	2301.38
572.55	2300.28
572.90	2298.59
573.26	2297.01
573.61	2295.41
573.96	2293.58
574.31	2290.59
574.67	2287.58
575.02	2283.87
575.37	2280.31
575.72	2276.27
576.08	2272.91
576.43	2269.61
576.78	2265.79
577.13	2262.73
577.49	2259.76
577.84	2256.22
578.19	2252.54
578.54	2248.87
578.90	2244.40
579.25	2238.81
579.60	2233.80
579.95	2228.80
580.30	2223.73
580.66	2218.62
581.01	2213.48
581.36	2208.36
581.71	2204.09
582.06	2199.57
582.42	2195.03
582.77	2189.72
583.12	2185.17
583.47	2180.13
583.82	2174.99
584.17	2169.71
584.53	2164.06
584.88	2158.22
585.23	2152.33
585.58	2146.65
585.93	2141.05
586.28	2136.32
586.63	2131.08
586.98	2125.98
587.34	2121.18
587.69	2116.35
588.04	2110.91
588.39	2105.08
588.74	2098.68
589.09	2092.56
589.44	2085.80
589.79	2079.84
590.14	2074.28
590.49	2067.69
590.84	2061.46
591.19	2055.42
591.54	2048.95
591.89	2041.31
592.25	2034.55
592.60	2027.30
592.95	2019.61
593.30	2012.26
593.65	2004.52
594.00	1997.52
594.35	1990.12
594.70	1981.99
595.05	1974.45
595.40	1967.08
595.75	1959.67
596.10	1953.26
596.45	1946.36
596.80	1940.05
597.15	1933.16
597.50	1925.87
597.85	1919.40
598.19	1912.61
598.54	1905.43
598.89	1898.71
599.24	1892.89
599.59	1886.07
599.94	1879.83
600.29	1873.51
600.64	1866.78
600.99	1859.26
601.34	1852.28
601.69	1845.34
602.04	1838.48
602.39	1831.19
602.74	1824.42
603.08	1817.64
603.43	1810.93
603.78	1803.69
604.13	1796.42
604.48	1789.04
604.83	1782.23
605.18	1775.18
605.53	1767.09
605.87	1759.06
606.22	1751.79
606.57	1743.74
606.92	1736.47
607.27	1729.21
607.62	1722.15
607.96	1714.84
608.31	1708.16
608.66	1700.50
609.01	1692.90
609.36	1685.18
609.70	1677.13
610.05	1669.02
610.40	1661.16
610.75	1652.82
611.10	1644.98
611.44	1636.63
611.79	1628.74
612.14	1619.99
612.49	1610.86
612.83	1602.67
613.18	1594.46
613.53	1586.42
613.88	1577.96
614.22	1569.64
614.57	1561.15
614.92	1553.22
615.27	1545.62
615.61	1537.18
615.96	1529.26
616.31	1521.61
616.65	1514.36
617.00	1506.77
617.35	1499.07
617.70	1490.83
618.04	1482.19
618.39	1474.03
618.74	1466.41
619.08	1458.13
619.43	1450.66
619.78	1443.68
620.12	1436.38
620.47	1428.85
620.82	1420.73
621.16	1413.33
621.51	1405.73
621.85	1398.12
622.20	1389.51
622.55	1381.21
622.89	1373.53
623.24	1365.96
623.59	1358.67
623.93	1351.17
624.28	1343.98
624.62	1336.42
624.97	1329.25
625.32	1322.65
625.66	1315.63
626.01	1308.38
626.35	1300.84
626.70	1293.12
627.04	1285.37
627.39	1277.64
627.73	1270.24
628.08	1263.20
628.43	1255.86
628.77	1248.44
629.12	1240.76
629.46	1233.57
629.81	1226.12
630.15	1218.92
630.50	1211.45
630.84	1203.25
631.19	1195.24
631.53	1187.79
631.88	1180.24
632.22	1172.64
632.57	1165.33
632.91	1157.75
633.26	1150.34
633.60	1142.97
633.95	1135.96
634.29	1128.96
634.64	1122.31
634.98	1114.95
635.32	1107.83
635.67	1101.34
636.01	1094.82
636.36	1088.12
636.70	1081.78
637.05	1075.23
637.39	1068.70
637.73	1062.17
638.08	1056.35
638.42	1050.39
638.77	1043.91
639.11	1037.30
639.45	1030.88
639.80	1024.20
640.14	1017.87
640.49	1011.38
640.83	1005.17
641.17	998.72
641.52	992.45
641.86	986.05
642.20	980.30
642.55	974.08
642.89	967.50
643.23	960.89
643.58	955.11
643.92	948.78
644.26	942.74
644.61	936.82
644.95	930.87
645.29	924.15
645.64	917.37
645.98	911.05
646.32	905.24
646.66	899.30
647.01	893.46
647.35	887.76
647.69	881.96
648.04	876.49
648.38	870.80
648.72	864.72
649.06	858.60
649.41	852.71
649.75	846.73
650.09	840.78
650.43	834.98
650.78	828.77
651.12	822.87
651.46	817.08
651.80	811.19
652.14	805.78
652.49	800.51
652.83	795.41
653.17	789.70
653.51	784.03
653.85	778.56
654.20	772.95
654.54	766.95
654.88	761.21
655.22	755.26
655.56	749.56
655.90	744.18
656.25	738.94
656.59	733.52
656.93	728.47
657.27	723.32
657.61	717.93
657.95	712.83
658.29	707.83
658.64	702.63
658.98	697.47
659.32	692.01
659.66	686.76
660.00	681.45
660.34	676.58
660.68	671.64
661.02	666.61
661.36	661.97
661.70	657.46
662.05	653.10
662.39	648.82
662.73	644.41
663.07	640.04
663.41	635.58
663.75	631.13
664.09	626.58
664.43	622.27
664.77	618.18
665.11	613.96
665.45	609.80
665.79	605.80
666.13	601.63
666.47	597.57
666.81	593.43
667.15	589.33
667.49	585.42
667.83	581.69
668.17	577.83
668.51	573.79
668.85	569.82
669.19	565.96
669.53	562.09
669.87	558.18
670.21	554.49
670.55	550.87
670.89	547.43
671.23	543.95
671.57	540.39
671.91	536.87
672.25	533.41
672.58	529.98
672.92	526.57
673.26	523.50
673.60	520.41
673.94	517.28
674.28	514.37
674.62	511.42
674.96	508.27
675.30	505.36
675.64	502.45
675.97	499.69
676.31	496.84
676.65	493.92
676.99	491.20
677.33	488.38
677.67	485.60
678.01	482.54
678.34	479.55
678.68	476.68
679.02	473.82
679.36	471.12
679.70	468.35
680.04	465.56
680.37	462.67
680.71	459.88
681.05	457.30
681.39	454.62
681.73	451.97
682.06	449.52
682.40	447.01
682.74	444.47
683.08	441.95
683.42	439.36
683.75	436.92
684.09	434.42
684.43	431.91
684.77	429.41
685.10	427.15
685.44	424.89
685.78	422.61
686.12	420.39
686.45	418.05
686.79	415.74
687.13	413.59
687.46	411.41
687.80	409.20
688.14	406.95
688.48	404.86
688.81	402.64
689.15	400.48
689.49	398.32
689.82	396.25
690.16	394.10
690.50	392.17
690.83	390.18
691.17	388.23
691.51	386.38
691.84	384.61
692.18	382.68
692.52	380.67
692.85	378.79
693.19	376.90
693.52	375.13
693.86	373.36
694.20	371.58
694.53	369.78
694.87	367.96
695.21	366.26
695.54	364.49
695.88	362.76
696.21	361.03
696.55	359.36
696.88	357.66
697.22	356.07
697.56	354.46
697.89	352.83
698.23	351.18
698.56	349.50
698.90	347.90
699.23	346.25
699.57	344.73
699.90	343.19
700.24	341.66
700.58	340.12
700.91	338.61
701.25	337.15
701.58	335.77
701.92	334.38
702.25	332.98
702.59	331.59
702.92	330.27
703.26	328.99
703.59	327.68
703.93	326.50
704.26	325.27
704.60	323.97
704.93	322.69
705.26	321.46
705.60	320.35
705.93	319.17
706.27	318.14
706.60	317.07
706.94	316.04
707.27	314.92
707.61	313.85
707.94	312.85
708.27	311.77
708.61	310.74
708.94	309.77
709.28	308.75
709.61	307.79
709.94	306.86
710.28	305.78
710.61	304.82
710.95	303.73
711.28	302.80
711.61	301.86
711.95	300.95
712.28	300.03
712.61	299.03
712.95	298.09
713.28	297.19
713.61	296.31
713.95	295.34
714.28	294.47
714.61	293.62
714.95	292.77
715.28	291.94
715.61	291.08
715.95	290.19
716.28	289.38
716.61	288.57
716.95	287.77
717.28	287.10
717.61	286.33
717.94	285.63
718.28	284.84
718.61	284.09
718.94	283.38
719.27	282.71
719.61	282.08
719.94	281.43
720.27	280.73
720.60	280.07
720.94	279.49
721.27	278.92
721.60	278.33
721.93	277.72
722.27	277.19
722.60	276.61
722.93	276.08
723.26	275.53
723.59	274.94
723.93	274.38
724.26	273.78
724.59	273.22
724.92	272.70
725.25	272.18
725.59	271.68
725.92	271.18
726.25	270.67
726.58	270.16
726.91	269.71
727.24	269.24
727.57	268.77
727.91	268.27
728.24	267.81
728.57	267.34
728.90	266.88
729.23	266.36
729.56	265.92
729.89	265.45
730.22	264.98
730.55	264.56
730.89	264.09
731.22	263.67
731.55	263.25
731.88	262.80
732.21	262.39
732.54	261.91
732.87	261.50
733.20	261.09
733.53	260.72
733.86	260.33
734.19	259.94
734.52	259.55
734.85	259.22
735.18	258.80
735.51	258.44
735.84	258.07
736.17	257.73
736.50	257.34
736.83	257.12
737.16	256.74
737.49	256.41
737.82	256.08
738.15	255.76
738.48	255.37
738.81	255.03
739.14	254.71
739.47	254.42
739.80	254.11
740.13	253.83
740.46	253.48
740.79	253.12
741.12	252.78
741.45	252.46
741.78	252.17
742.11	251.87
742.44	251.52
742.77	251.20
743.10	250.90
743.43	250.59
743.75	250.15
744.08	250.03
744.41	249.70
744.74	249.44
745.07	249.12
745.40	248.90
745.73	248.66
746.06	248.36
746.39	248.11
746.71	247.80
747.04	247.52
747.37	247.27
747.70	247.03
748.03	246.79
748.36	246.56
748.68	246.30
749.01	246.04
749.34	245.85
749.67	245.60
750.00	245.39
750.33	245.23
750.65	245.08
750.98	244.73
751.31	244.52
751.64	244.32
751.97	244.16
752.29	243.96
752.62	243.74
752.95	243.54
753.28	243.34
753.60	243.17
753.93	243.00
754.26	242.83
754.59	242.63
754.91	242.41
755.24	242.21
755.57	242.00
755.90	241.85
756.22	241.66
756.55	241.51
756.88	241.31
757.20	241.10
757.53	240.89
757.86	240.73
758.19	240.60
758.51	240.45
758.84	240.27
759.17	240.15
759.49	239.97
759.82	239.87
760.15	239.70
760.47	239.54
760.80	239.35
761.13	239.21
761.45	239.07
761.78	238.93
762.11	238.80
762.43	238.65
762.76	238.50
763.08	238.38
763.41	238.23
763.74	238.09
764.06	237.92
764.39	237.79
764.71	237.66
765.04	237.50
765.37	237.34
765.69	237.21
766.02	237.03
766.34	236.90
766.67	236.74
767.00	236.64
767.32	236.58
767.65	236.53
767.97	236.41
768.30	236.32
768.62	236.24
768.95	236.13
769.27	236.01
769.60	235.90
769.92	235.77
770.25	235.67
770.57	235.57
770.90	235.47
771.22	235.35
771.55	235.27
771.87	235.17
772.20	235.06
772.52	235.06
772.85	235.10
773.17	235.00
773.50	234.92
773.82	234.82
774.15	234.69
774.47	234.53
774.80	234.43
775.12	234.31
775.45	234.21
775.77	234.13
776.09	234.06
776.42	233.97
776.74	233.89
777.07	233.78
777.39	233.71
777.72	233.62
778.04	233.56
778.36	233.47
778.69	233.44
779.01	233.38
779.33	233.19
779.66	232.98
779.98	232.92
780.31	232.84
780.63	232.79
780.95	232.73
781.28	232.69
781.60	232.57
781.92	232.49
782.25	232.41
782.57	232.34
782.89	232.25
783.22	232.20
783.54	232.15
783.86	232.11
784.19	232.06
784.51	232.03
784.83	231.97
785.16	231.91
785.48	231.81
785.80	231.80
786.12	231.76
786.45	231.76
786.77	231.70
787.09	231.65
787.42	231.60
787.74	231.56
788.06	231.54
788.38	231.50
788.71	231.47
789.03	231.44
789.35	231.43
789.67	231.39
789.99	231.38
790.32	231.30
790.64	231.27
790.96	231.28
791.28	231.23
791.61	231.17
791.93	231.15
792.25	231.12
792.57	231.10
792.89	231.07
793.21	230.99
793.54	230.96
793.86	230.90
794.18	230.86
794.50	230.81
794.82	230.76
795.14	230.77
795.47	230.75
795.79	230.73
796.11	230.68
796.43	230.66
796.75	230.61
797.07	230.57
797.39	230.50
797.71	230.43
798.04	230.40
798.36	230.35
798.68	230.31
799.00	230.30
799.32	230.23
799.64	230.25
799.96	230.23
800.28	230.23
800.60	230.21
800.92	230.18
801.24	230.15
801.56	230.08
801.89	230.02
802.21	230.01
802.53	229.99
802.85	229.95
803.17	229.96
803.49	229.93
803.81	229.90
804.13	229.90
804.45	229.87
804.77	229.82
805.09	229.82
805.41	229.82
805.73	229.81
806.05	229.76
806.37	229.67
806.69	229.64
807.01	229.60
807.33	229.63
807.65	229.57
807.97	229.60
808.28	229.60
808.60	229.58
808.92	229.54
809.24	229.54
809.56	229.49
809.88	229.42
810.20	229.41
810.52	229.45
810.84	229.41
811.16	229.38
811.48	229.36
811.80	229.35
812.12	229.30
812.43	229.25
812.75	229.26
813.07	229.24
813.39	229.23
813.71	229.20
814.03	229.13
814.35	229.13
814.67	229.06
814.98	229.04
815.30	229.01
815.62	228.97
815.94	228.90
816.26	228.92
816.58	228.88
816.89	228.85
817.21	228.79
817.53	228.77
817.85	228.77
818.17	228.76
818.48	228.71
818.80	228.72
819.12	228.69
819.44	228.65
819.76	228.65
820.07	228.62
820.39	228.59
820.71	228.57
821.03	228.52
821.34	228.49
821.66	228.48
821.98	228.50
822.30	228.48
822.61	228.53
822.93	228.51
823.25	228.50
823.57	228.47
823.88	228.48
824.20	228.48
824.52	228.44
824.83	228.45
825.15	228.44
825.47	228.41
825.79	228.44
826.10	228.41
826.42	228.39
826.74	228.38
827.05	228.39
827.37	228.41
827.69	228.42
828.00	228.40
828.32	228.38
828.64	228.32
828.95	228.36
829.27	228.35
829.58	228.32
829.90	228.36
830.22	228.38
830.53	228.37
830.85	228.35
831.17	228.31
831.48	228.30
831.80	228.27
832.11	228.23
832.43	228.19
832.75	228.19
833.06	228.23
833.38	228.20
833.69	228.18
834.01	228.20
834.32	228.18
834.64	228.18
834.96	228.18
835.27	228.20
835.59	228.16
835.90	228.11
836.22	228.11
836.53	228.07
836.85	228.06
837.16	228.13
837.48	228.09
837.79	228.15
838.11	228.15
838.42	228.15
838.74	228.19
839.05	228.18
839.37	228.18
839.68	228.13
840.00	228.13
840.31	228.14
840.63	228.09
840.94	228.06
841.26	228.05
841.57	228.09
841.88	228.10
842.20	228.06
842.51	228.06
842.83	228.06
843.14	228.12
843.46	228.10
843.77	228.03
844.08	228.03
844.40	227.98
844.71	227.96
845.03	227.95
845.34	227.89
845.65	227.88
845.97	227.86
846.28	227.82
846.60	227.83
846.91	227.78
847.22	227.74
847.54	227.76
847.85	227.76
848.16	227.70
848.48	227.69
848.79	227.71
849.10	227.72
849.42	227.69
849.73	227.61
850.04	227.61
850.36	227.58
850.67	227.58
850.98	227.61
851.30	227.62
851.61	227.60
851.92	227.60
852.23	227.62
852.55	227.61
852.86	227.64
853.17	227.63
853.49	227.66
853.80	227.68
854.11	227.68
854.42	227.71
854.74	227.71
855.05	227.70
855.36	227.65
855.67	227.62
855.99	227.61
856.30	227.72
856.61	227.68
856.92	227.67
857.23	227.68
857.55	227.65
857.86	227.59
858.17	227.60
858.48	227.63
858.79	227.60
859.11	227.63
859.42	227.63
859.73	227.59
860.04	227.59
860.35	227.57
860.66	227.54
860.98	227.52
861.29	227.53
861.60	227.49
861.91	227.51
862.22	227.50
862.53	227.52
862.84	227.40
863.16	227.47
863.47	227.43
863.78	227.42
864.09	227.41
864.40	227.45
864.71	227.46
865.02	227.46
865.33	227.47
865.64	227.41
865.95	227.44
866.27	227.50
866.58	227.48
866.89	227.52
867.20	227.52
867.51	227.54
867.82	227.55
868.13	227.58
868.44	227.58
868.75	227.57
869.06	227.60
869.37	227.61
869.68	227.57
869.99	227.60
870.30	227.60
870.61	227.63
870.92	227.59
871.23	227.59
871.54	227.63
871.85	227.64
872.16	227.68
872.47	227.65
872.78	227.61
873.09	227.61
873.40	227.58
873.71	227.61
874.02	227.59
874.33	227.57
874.64	227.55
874.95	227.55
875.26	227.57
875.56	227.51
875.87	227.48
876.18	227.48
876.49	227.56
876.80	227.55
877.11	227.53
877.42	227.55
877.73	227.56
878.04	227.52
878.35	227.51
878.66	227.50
878.96	227.49
879.27	227.48
879.58	227.50
879.89	227.48
880.20	227.47
880.51	227.47
880.82	227.47
881.12	227.43
881.43	227.41
881.74	227.37
882.05	227.38
882.36	227.39
882.67	227.39
882.97	227.31
883.28	227.30
883.59	227.30
883.90	227.31
884.21	227.30
884.51	227.29
884.82	227.27
885.13	227.26
885.44	227.24
885.74	227.26
886.05	227.25
886.36	227.28
886.67	227.23
886.98	227.25
887.28	227.24
887.59	227.27
887.90	227.29
888.20	227.31
888.51	227.33
888.82	227.31
889.13	227.32
889.43	227.38
889.74	227.35
890.05	227.34
890.35	227.33
890.66	227.31
890.97	227.34
891.28	227.34
891.58	227.33
891.89	227.35
892.20	227.31
892.50	227.28
892.81	227.26
893.12	227.26
893.42	227.22
893.73	227.22
894.04	227.22
894.34	227.20
894.65	227.19
894.95	227.15
895.26	227.17
895.57	227.20
895.87	227.11
896.18	227.15
896.48	227.16
896.79	227.14
897.10	227.17
897.40	227.13
897.71	227.11
898.01	227.10
898.32	227.11
898.63	227.13
898.93	227.13
899.24	227.11
899.54	227.10
899.85	227.09
900.15	227.11
900.46	227.09
900.76	227.12
901.07	227.12
901.38	227.12
901.68	227.11
901.99	227.04
902.29	227.04
902.60	227.02
902.90	227.00
903.21	226.97
903.51	226.96
903.82	226.96
904.12	227.00
904.43	227.05
904.73	227.03
905.03	227.02
905.34	227.11
905.64	227.12
905.95	227.15
906.25	227.15
906.56	227.14
906.86	227.17
907.17	227.14
907.47	227.16
907.77	227.14
908.08	227.15
908.38	227.18
908.69	227.19
908.99	227.19
909.30	227.23
909.60	227.25
909.90	227.25
910.21	227.24
910.51	227.20
910.81	227.12
911.12	227.13
911.42	227.15
911.73	227.06
912.03	227.11
912.33	227.08
912.64	227.09
912.94	227.06
913.24	227.02
913.55	227.05
913.85	227.04
914.15	227.07
914.46	227.12
914.76	227.09
915.06	227.12
915.37	227.12
915.67	227.08
915.97	227.08
916.27	227.07
916.58	227.07
916.88	227.07
917.18	227.10
917.49	227.17
917.79	227.15
918.09	227.17
918.39	227.16
918.70	227.18
919.00	227.20
919.30	227.27
919.60	227.30
919.91	227.25
920.21	227.24
920.51	227.20
920.81	227.17
921.12	227.20
921.42	227.18
921.72	227.17
922.02	227.21
922.32	227.19
922.63	227.20
922.93	227.23
923.23	227.24
923.53	227.25
923.83	227.17
924.13	227.19
924.44	227.16
924.74	227.16
925.04	227.18
925.34	227.16
925.64	227.10
925.94	227.11
926.24	227.19
926.55	227.17
926.85	227.22
927.15	227.20
927.45	227.21
927.75	227.20
928.05	227.17
928.35	227.13
928.65	227.16
928.95	227.16
929.26	227.16
929.56	227.19
929.86	227.19
930.16	227.20
930.46	227.17
930.76	227.20
931.06	227.17
931.36	227.13
931.66	227.13
931.96	227.12
932.26	227.13
932.56	227.07
932.86	227.08
933.16	227.07
933.46	227.06
933.76	227.02
934.06	227.07
934.36	227.10
934.66	227.12
934.96	227.13
935.26	227.14
935.56	227.12
935.86	227.08
936.16	227.08
936.46	227.06
936.76	227.07
937.06	227.07
937.36	227.07
937.66	227.07
937.96	227.08
938.26	227.08
938.56	227.06
938.86	227.06
939.16	227.08
939.46	227.08
939.76	227.09
940.06	227.09
940.35	227.07
940.65	227.05
940.95	227.08
941.25	227.03
941.55	227.00
941.85	227.01
942.15	227.07
942.45	227.09
942.75	227.10
943.04	227.12
943.34	227.13
943.64	227.12
943.94	227.11
944.24	227.11
944.54	227.10
944.84	227.12
945.13	227.10
945.43	227.08
945.73	227.09
946.03	227.10
946.33	227.10
946.62	227.07
946.92	227.06
947.22	227.02
947.52	227.05
947.82	227.08
948.11	227.08
948.41	227.07
948.71	227.03
949.01	227.04
949.31	227.01
949.60	226.97
949.90	227.00
950.20	227.01
950.50	226.98
950.79	227.01
951.09	227.00
951.39	227.01
951.69	227.02
951.98	227.00
952.28	226.99
952.58	226.97
952.87	226.96
953.17	226.98
953.47	226.98
953.76	226.98
954.06	226.95
954.36	226.93
954.66	226.91
954.95	226.96
955.25	226.95
955.55	226.97
955.84	226.99
956.14	226.96
956.44	226.99
956.73	227.01
957.03	227.00
957.32	226.99
957.62	226.98
957.92	227.00
958.21	226.97
958.51	227.09
958.81	227.13
959.10	227.16
959.40	227.19
959.69	227.18
959.99	227.18
960.29	227.18
960.58	227.15
960.88	227.17
961.17	227.16
961.47	227.18
961.76	227.17
962.06	227.19
962.36	227.22
962.65	227.19
962.95	227.17
963.24	227.15
963.54	227.15
963.83	227.11
964.13	227.07
964.42	227.09
964.72	226.99
965.01	226.96
965.31	226.96
965.60	226.90
965.90	226.98
966.19	226.95
966.49	226.98
966.78	226.99
967.08	226.96
967.37	226.97
967.67	226.92
967.96	226.90
968.26	226.85
968.55	226.81
968.85	226.81
969.14	226.81
969.43	226.79
969.73	226.81
970.02	226.85
970.32	226.86
970.61	226.84
970.91	226.81
971.20	226.81
971.49	226.78
971.79	226.81
972.08	226.70
972.38	226.70
972.67	226.68
972.96	226.71
973.26	226.68
973.55	226.66
973.85	226.66
974.14	226.69
974.43	226.72
974.73	226.73
975.02	226.71
975.31	226.71
975.61	226.71
975.90	226.69
976.19	226.70
976.49	226.71
976.78	226.72
977.07	226.73
977.37	226.74
977.66	226.77
977.95	226.73
978.24	226.77
978.54	226.81
978.83	226.77
979.12	226.76
979.42	226.77
979.71	226.79
980.00	226.78
980.29	226.76
980.59	226.74
980.88	226.78
981.17	226.79
981.46	226.80
981.76	226.82
982.05	226.83
982.34	226.82
982.63	226.84
982.93	226.84
983.22	226.90
983.51	226.88
983.80	226.92
984.09	226.94
984.39	226.93
984.68	226.91
984.97	226.95
985.26	226.95
985.55	226.95
985.85	226.89
986.14	226.96
986.43	226.99
986.72	226.98
987.01	226.95
987.30	226.96
987.59	226.96
987.89	226.99
988.18	226.99
988.47	226.99
988.76	226.95
989.05	226.97
989.34	226.92
989.63	226.93
989.92	226.91
990.22	226.91
990.51	226.91
990.80	226.89
991.09	226.87
991.38	226.88
991.67	226.90
991.96	226.91
992.25	226.87
992.54	226.85
992.83	226.86
993.12	226.84
993.41	226.87
993.70	226.91
993.99	226.90
994.28	226.89
994.58	226.92
994.87	226.93
995.16	226.92
995.45	226.93
995.74	226.90
996.03	226.92
996.32	226.93
996.61	226.95
996.90	226.97
997.19	226.97
997.48	226.98
997.77	226.97
998.06	226.95
998.34	226.94
998.63	226.93
998.92	226.89
999.21	226.91
999.50	226.89
999.79	226.84
1000.08	226.84
1000.37	226.85
1000.66	226.85
1000.95	226.87
1001.24	226.83
1001.53	226.81
1001.82	226.82
1002.11	226.77
1002.40	226.78
1002.68	226.76
1002.97	226.84
1003.26	226.82
1003.55	226.78
1003.84	226.78
1004.13	226.81
1004.42	226.79
1004.71	226.79
1004.99	226.81
1005.28	226.84
1005.57	226.83
1005.86	226.82
1006.15	226.80
1006.44	226.79
1006.72	226.76
1007.01	226.75
1007.30	226.73
1007.59	226.74
1007.88	226.73
1008.17	226.73
1008.45	226.71
1008.74	226.67
1009.03	226.58
1009.32	226.61
1009.60	226.62
1009.89	226.61
1010.18	226.57
1010.47	226.60
1010.76	226.60
1011.04	226.61
1011.33	226.60
1011.62	226.60
1011.91	226.61
1012.19	226.61
1012.48	226.58
1012.77	226.58
1013.05	226.64
1013.34	226.69
1013.63	226.67
1013.92	226.68
1014.20	226.72
1014.49	226.73
1014.78	226.78
1015.06	226.79
1015.35	226.76
1015.64	226.77
1015.92	226.81
1016.21	226.85
1016.50	226.84
1016.78	226.86
1017.07	226.88
1017.36	226.88
1017.64	226.91
1017.93	226.94
1018.22	226.94
1018.50	226.98
1018.79	227.01
1019.08	226.95
1019.36	226.94
1019.65	226.97
1019.93	227.02
1020.22	227.04
1020.51	227.08
1020.79	227.07
1021.08	226.79
1021.36	227.04
1021.65	227.37
1021.94	226.66
1022.22	226.91
1022.51	227.00
1022.79	227.74
1023.08	227.37
1023.36	228.11
1023.65	226.57
>>>>>End Processed Spectral Data<<<<<
