SpectraSuite Data File
++++++++++++++++++++++++++++++++++++
Date: Fri Feb 01 17:16:19 EST 2013
User: group
Dark Spectrum Present: No
Reference Spectrum Present: No
Number of Sampled Component Spectra: 1
Spectrometers: USB2E7196
Integration Time (usec): 35000 (USB2E7196)
Spectra Averaged: 100 (USB2E7196)
Boxcar Smoothing: 10 (USB2E7196)
Correct for Electrical Dark: No (USB2E7196)
Strobe/Lamp Enabled: No (USB2E7196)
Correct for Detector Non-linearity: No (USB2E7196)
Correct for Stray Light: No (USB2E7196)
Number of Pixels in Processed Spectrum: 2048
>>>>>Begin Processed Spectral Data<<<<<
339.09	0.00
339.48	212.82
339.86	214.90
340.24	215.61
340.63	217.66
341.01	220.54
341.39	220.26
341.78	221.11
342.16	222.58
342.54	222.59
342.93	211.46
343.31	222.14
343.69	222.70
344.07	223.14
344.46	223.58
344.84	223.93
345.22	224.15
345.60	224.38
345.99	224.57
346.37	224.67
346.75	224.78
347.13	224.83
347.52	224.87
347.90	224.95
348.28	224.96
348.66	225.00
349.05	224.99
349.43	225.04
349.81	225.10
350.19	225.13
350.57	225.20
350.96	225.25
351.34	225.34
351.72	225.42
352.10	225.53
352.48	225.60
352.87	225.67
353.25	225.74
353.63	225.81
354.01	225.88
354.39	225.98
354.77	226.07
355.15	226.21
355.54	226.28
355.92	226.30
356.30	226.41
356.68	226.54
357.06	226.63
357.44	226.68
357.82	226.72
358.20	226.80
358.58	226.85
358.97	226.98
359.35	227.07
359.73	227.15
360.11	227.18
360.49	227.22
360.87	227.29
361.25	227.31
361.63	227.39
362.01	227.45
362.39	227.50
362.77	227.53
363.15	227.53
363.53	227.57
363.91	227.61
364.29	227.61
364.67	227.51
365.05	227.53
365.43	227.57
365.81	227.61
366.19	227.64
366.57	227.69
366.95	227.67
367.33	227.62
367.71	227.59
368.09	227.61
368.47	227.59
368.85	227.55
369.23	227.58
369.61	227.48
369.99	227.48
370.37	227.44
370.75	227.47
371.13	227.42
371.51	227.36
371.89	227.35
372.27	227.33
372.65	227.31
373.03	227.27
373.41	227.20
373.78	227.13
374.16	227.05
374.54	226.95
374.92	226.86
375.30	226.83
375.68	226.77
376.06	226.71
376.44	226.69
376.82	226.61
377.19	226.53
377.57	226.51
377.95	226.36
378.33	226.28
378.71	226.15
379.09	226.08
379.47	226.00
379.84	225.89
380.22	225.81
380.60	225.75
380.98	225.65
381.36	225.60
381.73	225.53
382.11	225.51
382.49	225.45
382.87	225.39
383.25	225.32
383.62	225.36
384.00	225.29
384.38	225.21
384.76	225.19
385.13	225.18
385.51	225.12
385.89	225.08
386.27	225.06
386.64	225.04
387.02	225.00
387.40	225.00
387.78	224.98
388.15	224.91
388.53	224.87
388.91	224.85
389.29	224.84
389.66	224.78
390.04	224.72
390.42	224.72
390.79	224.73
391.17	224.72
391.55	224.60
391.92	224.61
392.30	224.60
392.68	224.58
393.05	224.57
393.43	224.58
393.81	224.62
394.18	224.63
394.56	224.65
394.94	224.67
395.31	224.68
395.69	224.73
396.06	224.82
396.44	224.85
396.82	224.89
397.19	224.95
397.57	224.99
397.95	225.07
398.32	225.07
398.70	225.12
399.07	225.18
399.45	225.22
399.82	225.26
400.20	225.32
400.58	225.37
400.95	225.40
401.33	225.49
401.70	225.59
402.08	225.65
402.45	225.73
402.83	225.84
403.20	225.94
403.58	226.04
403.95	226.14
404.33	226.26
404.71	226.41
405.08	226.56
405.46	226.69
405.83	226.77
406.21	226.92
406.58	227.05
406.96	227.22
407.33	227.41
407.70	227.58
408.08	227.86
408.45	228.09
408.83	228.34
409.20	228.52
409.58	228.72
409.95	228.98
410.33	229.24
410.70	229.49
411.08	229.78
411.45	230.05
411.82	230.37
412.20	230.73
412.57	231.10
412.95	231.40
413.32	231.84
413.69	232.30
414.07	232.77
414.44	233.24
414.82	233.74
415.19	234.26
415.56	234.85
415.94	235.39
416.31	236.05
416.68	236.66
417.06	237.45
417.43	238.15
417.81	238.95
418.18	239.79
418.55	240.65
418.93	241.51
419.30	242.46
419.67	243.41
420.04	244.39
420.42	245.42
420.79	246.64
421.16	247.83
421.54	249.06
421.91	250.29
422.28	251.60
422.66	252.95
423.03	254.29
423.40	255.65
423.77	257.12
424.15	258.56
424.52	260.10
424.89	261.69
425.26	263.28
425.64	264.78
426.01	266.37
426.38	268.06
426.75	269.82
427.13	271.62
427.50	273.49
427.87	275.46
428.24	277.37
428.61	279.14
428.99	281.12
429.36	283.26
429.73	285.37
430.10	287.43
430.47	289.56
430.85	291.71
431.22	294.03
431.59	296.45
431.96	298.78
432.33	301.33
432.70	303.75
433.08	306.62
433.45	309.35
433.82	312.05
434.19	315.01
434.56	317.87
434.93	320.50
435.30	323.15
435.68	326.06
436.05	328.94
436.42	331.87
436.79	334.44
437.16	337.18
437.53	340.10
437.90	342.99
438.27	345.77
438.64	348.69
439.01	351.35
439.38	353.63
439.75	355.87
440.13	358.43
440.50	360.86
440.87	362.77
441.24	364.73
441.61	366.96
441.98	368.47
442.35	370.35
442.72	372.32
443.09	374.21
443.46	375.20
443.83	375.86
444.20	376.33
444.57	377.25
444.94	377.55
445.31	377.92
445.68	378.29
446.05	378.39
446.42	378.01
446.79	377.58
447.16	377.13
447.53	376.78
447.90	375.61
448.27	374.42
448.64	372.83
449.01	371.70
449.37	369.68
449.74	367.76
450.11	365.44
450.48	362.90
450.85	360.34
451.22	358.20
451.59	356.13
451.96	354.17
452.33	351.50
452.70	349.12
453.07	346.23
453.43	343.29
453.80	340.47
454.17	337.73
454.54	335.09
454.91	332.32
455.28	329.58
455.65	327.04
456.02	324.56
456.38	322.34
456.75	319.63
457.12	317.30
457.49	315.06
457.86	312.83
458.23	310.97
458.59	308.87
458.96	306.77
459.33	304.85
459.70	302.91
460.07	301.33
460.43	299.56
460.80	297.90
461.17	296.40
461.54	294.87
461.91	293.41
462.27	291.95
462.64	290.65
463.01	289.27
463.38	287.93
463.74	286.56
464.11	285.39
464.48	284.34
464.85	283.25
465.21	282.36
465.58	281.42
465.95	280.24
466.32	279.31
466.68	278.34
467.05	277.42
467.42	276.56
467.78	275.65
468.15	274.77
468.52	274.10
468.88	273.23
469.25	272.42
469.62	271.77
469.98	271.13
470.35	270.51
470.72	269.91
471.08	269.23
471.45	268.65
471.82	268.06
472.18	267.42
472.55	266.94
472.92	266.36
473.28	265.91
473.65	265.49
474.02	265.04
474.38	264.71
474.75	264.39
475.11	263.99
475.48	263.74
475.85	263.50
476.21	263.24
476.58	263.07
476.94	262.93
477.31	262.76
477.67	262.61
478.04	262.52
478.41	262.46
478.77	262.52
479.14	262.44
479.50	262.47
479.87	262.56
480.23	262.63
480.60	262.73
480.96	262.83
481.33	263.02
481.69	263.22
482.06	263.38
482.42	263.58
482.79	263.85
483.15	264.12
483.52	264.53
483.88	264.90
484.25	265.28
484.61	265.72
484.98	266.21
485.34	266.76
485.71	267.36
486.07	267.97
486.44	268.52
486.80	269.27
487.17	270.01
487.53	270.78
487.90	271.60
488.26	272.56
488.62	273.55
488.99	274.53
489.35	275.59
489.72	276.73
490.08	277.91
490.44	279.18
490.81	280.47
491.17	281.80
491.54	283.31
491.90	284.82
492.26	286.46
492.63	288.15
492.99	289.91
493.36	291.79
493.72	293.81
494.08	295.91
494.45	298.10
494.81	300.47
495.17	302.94
495.54	305.54
495.90	308.17
496.26	310.95
496.63	313.90
496.99	316.96
497.35	320.20
497.72	323.59
498.08	327.05
498.44	330.71
498.80	334.62
499.17	338.60
499.53	342.77
499.89	347.13
500.26	351.62
500.62	356.25
500.98	361.20
501.34	366.24
501.71	371.54
502.07	376.95
502.43	382.53
502.79	388.30
503.16	394.30
503.52	400.52
503.88	406.88
504.24	413.43
504.60	420.20
504.97	427.26
505.33	434.55
505.69	442.21
506.05	449.93
506.41	457.68
506.78	465.69
507.14	474.00
507.50	482.65
507.86	491.51
508.22	500.59
508.59	509.66
508.95	519.12
509.31	528.77
509.67	538.70
510.03	548.84
510.39	559.21
510.75	569.83
511.12	580.60
511.48	591.73
511.84	603.07
512.20	614.46
512.56	626.24
512.92	638.13
513.28	650.27
513.64	662.58
514.00	675.18
514.37	688.03
514.73	700.90
515.09	713.70
515.45	726.78
515.81	740.16
516.17	753.86
516.53	767.78
516.89	781.76
517.25	795.76
517.61	809.89
517.97	824.11
518.33	838.30
518.69	852.86
519.05	867.52
519.41	882.33
519.77	897.56
520.13	912.65
520.49	927.87
520.85	942.93
521.21	958.27
521.57	974.00
521.93	989.42
522.29	1005.44
522.65	1021.31
523.01	1037.20
523.37	1052.88
523.73	1068.80
524.09	1084.52
524.45	1100.41
524.81	1116.51
525.17	1132.94
525.53	1149.36
525.89	1165.89
526.25	1182.32
526.61	1198.44
526.97	1214.84
527.33	1231.09
527.68	1247.38
528.04	1263.43
528.40	1279.69
528.76	1296.41
529.12	1312.79
529.48	1329.35
529.84	1345.08
530.20	1361.36
530.56	1378.04
530.91	1395.05
531.27	1411.44
531.63	1427.70
531.99	1444.02
532.35	1459.93
532.71	1475.56
533.07	1491.69
533.42	1507.45
533.78	1523.18
534.14	1539.04
534.50	1554.14
534.86	1569.74
535.21	1584.67
535.57	1600.47
535.93	1615.78
536.29	1630.37
536.65	1645.14
537.00	1659.65
537.36	1674.85
537.72	1689.14
538.08	1703.38
538.44	1717.06
538.79	1730.81
539.15	1744.14
539.51	1757.62
539.87	1771.79
540.22	1785.38
540.58	1798.94
540.94	1811.82
541.29	1824.59
541.65	1837.27
542.01	1850.29
542.37	1862.47
542.72	1874.74
543.08	1886.38
543.44	1898.61
543.79	1909.87
544.15	1920.83
544.51	1932.28
544.87	1943.12
545.22	1953.96
545.58	1964.03
545.94	1973.77
546.29	1983.70
546.65	1993.70
547.01	2003.11
547.36	2011.77
547.72	2020.29
548.07	2028.37
548.43	2036.75
548.79	2044.68
549.14	2052.36
549.50	2059.88
549.86	2067.37
550.21	2074.74
550.57	2082.03
550.92	2088.73
551.28	2095.85
551.64	2103.10
551.99	2109.86
552.35	2116.22
552.70	2122.53
553.06	2128.81
553.41	2135.24
553.77	2141.31
554.13	2147.44
554.48	2153.72
554.84	2159.52
555.19	2164.97
555.55	2170.24
555.90	2174.96
556.26	2180.26
556.61	2185.17
556.97	2189.71
557.32	2194.28
557.68	2198.82
558.03	2203.26
558.39	2207.09
558.74	2211.95
559.10	2216.08
559.45	2219.90
559.81	2224.16
560.16	2228.29
560.52	2231.88
560.87	2235.63
561.23	2238.58
561.58	2241.74
561.94	2244.60
562.29	2247.05
562.64	2250.20
563.00	2252.89
563.35	2256.58
563.71	2260.06
564.06	2263.49
564.42	2266.81
564.77	2269.74
565.12	2272.43
565.48	2274.68
565.83	2277.07
566.19	2278.80
566.54	2279.90
566.89	2281.54
567.25	2282.72
567.60	2284.32
567.96	2286.33
568.31	2287.58
568.66	2289.01
569.02	2290.03
569.37	2290.58
569.72	2291.96
570.08	2292.35
570.43	2292.80
570.78	2292.83
571.14	2291.54
571.49	2290.48
571.84	2290.18
572.20	2289.47
572.55	2288.61
572.90	2287.31
573.26	2286.13
573.61	2284.60
573.96	2283.31
574.31	2280.50
574.67	2277.87
575.02	2274.49
575.37	2271.34
575.72	2267.73
576.08	2264.54
576.43	2261.24
576.78	2258.02
577.13	2254.89
577.49	2251.91
577.84	2248.82
578.19	2245.18
578.54	2241.97
578.90	2238.22
579.25	2233.01
579.60	2228.17
579.95	2223.62
580.30	2218.93
580.66	2214.07
581.01	2209.32
581.36	2204.55
581.71	2200.73
582.06	2196.47
582.42	2192.46
582.77	2187.49
583.12	2183.28
583.47	2179.15
583.82	2174.78
584.17	2169.67
584.53	2164.40
584.88	2159.03
585.23	2153.54
585.58	2148.11
585.93	2142.75
586.28	2137.89
586.63	2133.23
586.98	2128.31
587.34	2123.63
587.69	2118.91
588.04	2114.05
588.39	2108.63
588.74	2102.44
589.09	2096.43
589.44	2089.93
589.79	2083.74
590.14	2078.15
590.49	2071.65
590.84	2065.20
591.19	2059.13
591.54	2052.94
591.89	2046.09
592.25	2039.63
592.60	2032.58
592.95	2025.56
593.30	2018.49
593.65	2011.01
594.00	2004.01
594.35	1996.95
594.70	1988.98
595.05	1982.03
595.40	1974.72
595.75	1967.28
596.10	1961.18
596.45	1954.63
596.80	1948.57
597.15	1942.28
597.50	1935.69
597.85	1929.43
598.19	1922.91
598.54	1916.18
598.89	1909.60
599.24	1903.56
599.59	1897.14
599.94	1890.84
600.29	1884.39
600.64	1877.75
600.99	1870.56
601.34	1863.82
601.69	1856.98
602.04	1850.28
602.39	1842.92
602.74	1836.21
603.08	1829.75
603.43	1822.92
603.78	1815.68
604.13	1808.43
604.48	1801.32
604.83	1794.39
605.18	1787.57
605.53	1779.77
605.87	1771.69
606.22	1764.40
606.57	1756.59
606.92	1748.90
607.27	1741.89
607.62	1735.02
607.96	1727.83
608.31	1721.48
608.66	1713.99
609.01	1706.44
609.36	1698.94
609.70	1691.00
610.05	1682.99
610.40	1675.32
610.75	1667.14
611.10	1659.46
611.44	1650.90
611.79	1642.71
612.14	1633.91
612.49	1624.61
612.83	1616.01
613.18	1607.65
613.53	1599.53
613.88	1590.94
614.22	1582.75
614.57	1573.89
614.92	1565.73
615.27	1558.30
615.61	1549.73
615.96	1541.55
616.31	1533.70
616.65	1526.23
617.00	1518.53
617.35	1510.70
617.70	1502.31
618.04	1493.85
618.39	1485.35
618.74	1477.85
619.08	1469.51
619.43	1461.97
619.78	1454.96
620.12	1447.82
620.47	1440.43
620.82	1432.15
621.16	1424.56
621.51	1416.85
621.85	1409.31
622.20	1400.85
622.55	1392.25
622.89	1384.35
623.24	1376.52
623.59	1369.01
623.93	1361.35
624.28	1354.16
624.62	1346.60
624.97	1339.33
625.32	1332.31
625.66	1325.37
626.01	1318.07
626.35	1310.76
626.70	1302.78
627.04	1295.06
627.39	1287.16
627.73	1279.57
628.08	1272.63
628.43	1265.39
628.77	1258.01
629.12	1250.36
629.46	1243.07
629.81	1235.43
630.15	1228.06
630.50	1220.74
630.84	1212.59
631.19	1204.51
631.53	1196.73
631.88	1188.99
632.22	1181.28
632.57	1173.85
632.91	1166.10
633.26	1158.65
633.60	1151.02
633.95	1143.80
634.29	1136.58
634.64	1129.75
634.98	1122.31
635.32	1115.13
635.67	1108.30
636.01	1101.56
636.36	1094.72
636.70	1088.11
637.05	1081.56
637.39	1075.03
637.73	1068.48
638.08	1062.52
638.42	1056.50
638.77	1050.04
639.11	1043.56
639.45	1037.11
639.80	1030.51
640.14	1024.20
640.49	1017.68
640.83	1011.27
641.17	1005.11
641.52	998.81
641.86	992.35
642.20	986.56
642.55	980.13
642.89	973.64
643.23	967.04
643.58	961.23
643.92	955.03
644.26	949.06
644.61	942.99
644.95	936.91
645.29	930.38
645.64	923.67
645.98	917.31
646.32	911.26
646.66	905.13
647.01	899.24
647.35	893.49
647.69	887.55
648.04	882.07
648.38	876.24
648.72	870.29
649.06	864.31
649.41	858.31
649.75	852.36
650.09	846.38
650.43	840.58
650.78	834.43
651.12	828.50
651.46	822.64
651.80	816.95
652.14	811.51
652.49	806.12
652.83	800.94
653.17	795.39
653.51	789.72
653.85	784.36
654.20	778.73
654.54	772.57
654.88	766.76
655.22	760.80
655.56	755.01
655.90	749.35
656.25	744.00
656.59	738.66
656.93	733.55
657.27	728.47
657.61	722.99
657.95	717.83
658.29	712.65
658.64	707.41
658.98	702.02
659.32	696.49
659.66	691.21
660.00	685.88
660.34	680.80
660.68	675.85
661.02	670.74
661.36	666.07
661.70	661.72
662.05	657.42
662.39	653.15
662.73	648.65
663.07	644.33
663.41	639.87
663.75	635.41
664.09	630.78
664.43	626.28
664.77	622.20
665.11	617.93
665.45	613.75
665.79	609.64
666.13	605.56
666.47	601.46
666.81	597.36
667.15	593.18
667.49	589.23
667.83	585.34
668.17	581.36
668.51	577.30
668.85	573.19
669.19	569.25
669.53	565.42
669.87	561.60
670.21	557.87
670.55	554.18
670.89	550.64
671.23	547.22
671.57	543.68
671.91	540.07
672.25	536.50
672.58	533.00
672.92	529.53
673.26	526.22
673.60	523.01
673.94	519.89
674.28	516.94
674.62	514.01
674.96	510.93
675.30	508.05
675.64	505.07
675.97	502.26
676.31	499.37
676.65	496.33
676.99	493.56
677.33	490.64
677.67	487.83
678.01	484.78
678.34	481.80
678.68	478.88
679.02	476.10
679.36	473.32
679.70	470.60
680.04	467.79
680.37	464.96
680.71	462.13
681.05	459.38
681.39	456.66
681.73	453.96
682.06	451.39
682.40	448.81
682.74	446.21
683.08	443.59
683.42	440.97
683.75	438.45
684.09	435.84
684.43	433.36
684.77	430.80
685.10	428.41
685.44	426.05
685.78	423.78
686.12	421.45
686.45	419.14
686.79	416.80
687.13	414.60
687.46	412.38
687.80	410.21
688.14	407.95
688.48	405.86
688.81	403.57
689.15	401.43
689.49	399.19
689.82	397.12
690.16	395.02
690.50	393.00
690.83	391.01
691.17	388.99
691.51	387.09
691.84	385.26
692.18	383.33
692.52	381.42
692.85	379.44
693.19	377.52
693.52	375.63
693.86	373.75
694.20	371.94
694.53	370.13
694.87	368.30
695.21	366.55
695.54	364.72
695.88	362.94
696.21	361.18
696.55	359.51
696.88	357.79
697.22	356.10
697.56	354.48
697.89	352.84
698.23	351.28
698.56	349.66
698.90	348.08
699.23	346.45
699.57	344.87
699.90	343.35
700.24	341.81
700.58	340.31
700.91	338.85
701.25	337.38
701.58	336.02
701.92	334.63
702.25	333.24
702.59	331.85
702.92	330.58
703.26	329.29
703.59	327.99
703.93	326.76
704.26	325.54
704.60	324.23
704.93	322.92
705.26	321.67
705.60	320.43
705.93	319.25
706.27	318.19
706.60	317.12
706.94	315.98
707.27	314.88
707.61	313.81
707.94	312.74
708.27	311.62
708.61	310.53
708.94	309.51
709.28	308.46
709.61	307.49
709.94	306.50
710.28	305.45
710.61	304.47
710.95	303.43
711.28	302.50
711.61	301.56
711.95	300.67
712.28	299.72
712.61	298.72
712.95	297.76
713.28	296.85
713.61	295.91
713.95	295.04
714.28	294.16
714.61	293.28
714.95	292.41
715.28	291.58
715.61	290.69
715.95	289.80
716.28	288.98
716.61	288.11
716.95	287.25
717.28	286.49
717.61	285.71
717.94	284.93
718.28	284.10
718.61	283.32
718.94	282.59
719.27	281.92
719.61	281.31
719.94	280.65
720.27	279.92
720.60	279.23
720.94	278.59
721.27	278.00
721.60	277.41
721.93	276.84
722.27	276.26
722.60	275.71
722.93	275.17
723.26	274.61
723.59	274.08
723.93	273.51
724.26	272.95
724.59	272.39
724.92	271.86
725.25	271.37
725.59	270.86
725.92	270.30
726.25	269.77
726.58	269.23
726.91	268.75
727.24	268.23
727.57	267.75
727.91	267.22
728.24	266.69
728.57	266.14
728.90	265.64
729.23	265.15
729.56	264.70
729.89	264.16
730.22	263.67
730.55	263.17
730.89	262.72
731.22	262.24
731.55	261.78
731.88	261.33
732.21	260.87
732.54	260.43
732.87	260.03
733.20	259.59
733.53	259.15
733.86	258.74
734.19	258.39
734.52	257.99
734.85	257.69
735.18	257.25
735.51	256.90
735.84	256.51
736.17	256.17
736.50	255.74
736.83	255.53
737.16	255.21
737.49	254.83
737.82	254.46
738.15	254.14
738.48	253.78
738.81	253.45
739.14	253.14
739.47	252.81
739.80	252.48
740.13	252.18
740.46	251.85
740.79	251.52
741.12	251.22
741.45	250.91
741.78	250.50
742.11	250.24
742.44	249.93
742.77	249.65
743.10	249.32
743.43	249.02
743.75	248.62
744.08	248.42
744.41	248.18
744.74	247.91
745.07	247.64
745.40	247.42
745.73	247.19
746.06	246.91
746.39	246.66
746.71	246.37
747.04	246.11
747.37	245.85
747.70	245.60
748.03	245.32
748.36	245.11
748.68	244.92
749.01	244.69
749.34	244.47
749.67	244.25
750.00	244.04
750.33	243.88
750.65	243.65
750.98	243.31
751.31	243.11
751.64	242.92
751.97	242.77
752.29	242.55
752.62	242.28
752.95	242.06
753.28	241.84
753.60	241.63
753.93	241.42
754.26	241.25
754.59	241.00
754.91	240.78
755.24	240.54
755.57	240.32
755.90	240.09
756.22	239.87
756.55	239.65
756.88	239.41
757.20	239.15
757.53	238.97
757.86	238.80
758.19	238.62
758.51	238.42
758.84	238.18
759.17	237.97
759.49	237.81
759.82	237.69
760.15	237.51
760.47	237.39
760.80	237.17
761.13	237.03
761.45	236.88
761.78	236.74
762.11	236.62
762.43	236.47
762.76	236.33
763.08	236.20
763.41	236.07
763.74	235.98
764.06	235.86
764.39	235.70
764.71	235.54
765.04	235.39
765.37	235.25
765.69	235.13
766.02	235.02
766.34	234.87
766.67	234.73
767.00	234.61
767.32	234.54
767.65	234.52
767.97	234.39
768.30	234.29
768.62	234.17
768.95	234.05
769.27	233.92
769.60	233.85
769.92	233.72
770.25	233.60
770.57	233.47
770.90	233.36
771.22	233.26
771.55	233.20
771.87	233.08
772.20	233.02
772.52	233.00
772.85	233.01
773.17	232.96
773.50	232.83
773.82	232.75
774.15	232.60
774.47	232.46
774.80	232.37
775.12	232.31
775.45	232.22
775.77	232.15
776.09	232.11
776.42	232.01
776.74	231.98
777.07	231.91
777.39	231.83
777.72	231.76
778.04	231.69
778.36	231.59
778.69	231.55
779.01	231.46
779.33	231.31
779.66	231.15
779.98	231.04
780.31	231.00
780.63	230.98
780.95	230.94
781.28	230.89
781.60	230.83
781.92	230.74
782.25	230.69
782.57	230.62
782.89	230.57
783.22	230.50
783.54	230.40
783.86	230.33
784.19	230.28
784.51	230.24
784.83	230.18
785.16	230.12
785.48	230.08
785.80	230.03
786.12	229.99
786.45	229.95
786.77	229.93
787.09	229.89
787.42	229.81
787.74	229.76
788.06	229.69
788.38	229.68
788.71	229.64
789.03	229.63
789.35	229.61
789.67	229.52
789.99	229.51
790.32	229.47
790.64	229.44
790.96	229.47
791.28	229.37
791.61	229.37
791.93	229.34
792.25	229.26
792.57	229.29
792.89	229.25
793.21	229.22
793.54	229.16
793.86	229.08
794.18	229.07
794.50	229.01
794.82	228.98
795.14	228.94
795.47	228.93
795.79	228.88
796.11	228.82
796.43	228.78
796.75	228.75
797.07	228.72
797.39	228.72
797.71	228.66
798.04	228.67
798.36	228.63
798.68	228.61
799.00	228.61
799.32	228.55
799.64	228.54
799.96	228.52
800.28	228.55
800.60	228.52
800.92	228.47
801.24	228.45
801.56	228.47
801.89	228.44
802.21	228.42
802.53	228.38
802.85	228.39
803.17	228.44
803.49	228.37
803.81	228.37
804.13	228.35
804.45	228.31
804.77	228.27
805.09	228.26
805.41	228.24
805.73	228.19
806.05	228.14
806.37	228.12
806.69	228.05
807.01	228.01
807.33	228.01
807.65	227.96
807.97	227.97
808.28	227.91
808.60	227.88
808.92	227.82
809.24	227.85
809.56	227.79
809.88	227.73
810.20	227.70
810.52	227.67
810.84	227.63
811.16	227.58
811.48	227.55
811.80	227.53
812.12	227.48
812.43	227.47
812.75	227.45
813.07	227.38
813.39	227.38
813.71	227.34
814.03	227.26
814.35	227.26
814.67	227.21
814.98	227.17
815.30	227.14
815.62	227.09
815.94	226.98
816.26	227.01
816.58	226.94
816.89	226.94
817.21	226.91
817.53	226.87
817.85	226.83
818.17	226.80
818.48	226.74
818.80	226.76
819.12	226.69
819.44	226.63
819.76	226.63
820.07	226.61
820.39	226.60
820.71	226.61
821.03	226.60
821.34	226.57
821.66	226.57
821.98	226.55
822.30	226.52
822.61	226.56
822.93	226.50
823.25	226.49
823.57	226.47
823.88	226.44
824.20	226.41
824.52	226.42
824.83	226.41
825.15	226.41
825.47	226.39
825.79	226.40
826.10	226.39
826.42	226.35
826.74	226.34
827.05	226.32
827.37	226.31
827.69	226.26
828.00	226.25
828.32	226.24
828.64	226.22
828.95	226.27
829.27	226.22
829.58	226.22
829.90	226.23
830.22	226.21
830.53	226.18
830.85	226.18
831.17	226.15
831.48	226.16
831.80	226.15
832.11	226.10
832.43	226.09
832.75	226.08
833.06	226.12
833.38	226.07
833.69	226.04
834.01	226.03
834.32	226.02
834.64	226.04
834.96	226.04
835.27	226.03
835.59	226.02
835.90	226.00
836.22	225.98
836.53	225.93
836.85	225.93
837.16	226.03
837.48	226.04
837.79	226.07
838.11	226.09
838.42	226.08
838.74	226.10
839.05	226.10
839.37	226.09
839.68	226.05
840.00	226.06
840.31	226.10
840.63	226.07
840.94	226.06
841.26	226.03
841.57	226.01
841.88	226.03
842.20	226.02
842.51	226.02
842.83	226.01
843.14	226.06
843.46	226.06
843.77	226.02
844.08	225.99
844.40	225.94
844.71	225.90
845.03	225.85
845.34	225.83
845.65	225.81
845.97	225.79
846.28	225.76
846.60	225.76
846.91	225.73
847.22	225.73
847.54	225.75
847.85	225.74
848.16	225.70
848.48	225.68
848.79	225.69
849.10	225.69
849.42	225.68
849.73	225.64
850.04	225.61
850.36	225.54
850.67	225.57
850.98	225.58
851.30	225.58
851.61	225.62
851.92	225.61
852.23	225.64
852.55	225.64
852.86	225.68
853.17	225.68
853.49	225.68
853.80	225.69
854.11	225.68
854.42	225.69
854.74	225.69
855.05	225.65
855.36	225.55
855.67	225.55
855.99	225.55
856.30	225.64
856.61	225.64
856.92	225.66
857.23	225.63
857.55	225.59
857.86	225.57
858.17	225.57
858.48	225.55
858.79	225.51
859.11	225.51
859.42	225.48
859.73	225.49
860.04	225.45
860.35	225.44
860.66	225.41
860.98	225.42
861.29	225.45
861.60	225.45
861.91	225.52
862.22	225.51
862.53	225.53
862.84	225.41
863.16	225.43
863.47	225.38
863.78	225.37
864.09	225.42
864.40	225.40
864.71	225.41
865.02	225.41
865.33	225.39
865.64	225.39
865.95	225.39
866.27	225.44
866.58	225.46
866.89	225.46
867.20	225.46
867.51	225.41
867.82	225.40
868.13	225.44
868.44	225.39
868.75	225.40
869.06	225.41
869.37	225.46
869.68	225.43
869.99	225.43
870.30	225.43
870.61	225.39
870.92	225.40
871.23	225.34
871.54	225.37
871.85	225.42
872.16	225.41
872.47	225.39
872.78	225.31
873.09	225.31
873.40	225.29
873.71	225.29
874.02	225.33
874.33	225.29
874.64	225.24
874.95	225.32
875.26	225.30
875.56	225.26
875.87	225.22
876.18	225.20
876.49	225.32
876.80	225.31
877.11	225.33
877.42	225.32
877.73	225.35
878.04	225.32
878.35	225.29
878.66	225.31
878.96	225.32
879.27	225.33
879.58	225.31
879.89	225.30
880.20	225.30
880.51	225.29
880.82	225.31
881.12	225.31
881.43	225.24
881.74	225.23
882.05	225.21
882.36	225.25
882.67	225.29
882.97	225.17
883.28	225.17
883.59	225.15
883.90	225.17
884.21	225.16
884.51	225.17
884.82	225.14
885.13	225.11
885.44	225.13
885.74	225.10
886.05	225.11
886.36	225.09
886.67	225.06
886.98	225.08
887.28	225.09
887.59	225.14
887.90	225.15
888.20	225.17
888.51	225.16
888.82	225.14
889.13	225.10
889.43	225.18
889.74	225.19
890.05	225.17
890.35	225.16
890.66	225.17
890.97	225.15
891.28	225.14
891.58	225.17
891.89	225.16
892.20	225.15
892.50	225.14
892.81	225.15
893.12	225.16
893.42	225.12
893.73	225.09
894.04	225.05
894.34	225.06
894.65	225.02
894.95	225.02
895.26	224.98
895.57	225.02
895.87	224.96
896.18	224.96
896.48	224.98
896.79	225.01
897.10	225.01
897.40	225.03
897.71	225.06
898.01	225.03
898.32	225.06
898.63	225.08
898.93	225.07
899.24	225.09
899.54	225.10
899.85	225.13
900.15	225.12
900.46	225.13
900.76	225.11
901.07	225.16
901.38	225.18
901.68	225.21
901.99	225.19
902.29	225.19
902.60	225.19
902.90	225.19
903.21	225.17
903.51	225.17
903.82	225.21
904.12	225.23
904.43	225.23
904.73	225.18
905.03	225.19
905.34	225.30
905.64	225.30
905.95	225.32
906.25	225.28
906.56	225.27
906.86	225.31
907.17	225.32
907.47	225.29
907.77	225.29
908.08	225.29
908.38	225.28
908.69	225.28
908.99	225.30
909.30	225.32
909.60	225.30
909.90	225.32
910.21	225.29
910.51	225.26
910.81	225.27
911.12	225.31
911.42	225.33
911.73	225.25
912.03	225.26
912.33	225.28
912.64	225.28
912.94	225.31
913.24	225.27
913.55	225.27
913.85	225.24
914.15	225.29
914.46	225.30
914.76	225.33
915.06	225.34
915.37	225.30
915.67	225.29
915.97	225.27
916.27	225.24
916.58	225.23
916.88	225.24
917.18	225.23
917.49	225.28
917.79	225.25
918.09	225.25
918.39	225.27
918.70	225.27
919.00	225.28
919.30	225.32
919.60	225.29
919.91	225.29
920.21	225.32
920.51	225.25
920.81	225.21
921.12	225.18
921.42	225.17
921.72	225.22
922.02	225.21
922.32	225.24
922.63	225.22
922.93	225.28
923.23	225.28
923.53	225.27
923.83	225.22
924.13	225.25
924.44	225.22
924.74	225.21
925.04	225.19
925.34	225.18
925.64	225.12
925.94	225.13
926.24	225.15
926.55	225.15
926.85	225.17
927.15	225.18
927.45	225.18
927.75	225.17
928.05	225.12
928.35	225.13
928.65	225.14
928.95	225.16
929.26	225.10
929.56	225.10
929.86	225.10
930.16	225.10
930.46	225.06
930.76	225.08
931.06	225.03
931.36	224.99
931.66	225.01
931.96	225.05
932.26	225.09
932.56	225.04
932.86	225.04
933.16	225.03
933.46	225.03
933.76	225.01
934.06	225.01
934.36	225.04
934.66	225.03
934.96	225.03
935.26	225.02
935.56	225.03
935.86	225.03
936.16	225.02
936.46	224.99
936.76	225.00
937.06	224.95
937.36	224.97
937.66	224.99
937.96	224.98
938.26	224.96
938.56	224.92
938.86	224.95
939.16	224.98
939.46	225.00
939.76	224.98
940.06	224.98
940.35	224.98
940.65	224.95
940.95	224.95
941.25	224.91
941.55	224.88
941.85	224.89
942.15	224.89
942.45	224.91
942.75	224.96
943.04	224.97
943.34	225.02
943.64	225.01
943.94	225.00
944.24	224.98
944.54	224.97
944.84	224.97
945.13	224.95
945.43	224.90
945.73	224.89
946.03	224.89
946.33	224.89
946.62	224.88
946.92	224.86
947.22	224.89
947.52	224.91
947.82	224.96
948.11	224.99
948.41	224.95
948.71	224.93
949.01	224.91
949.31	224.86
949.60	224.83
949.90	224.83
950.20	224.83
950.50	224.88
950.79	224.88
951.09	224.89
951.39	224.89
951.69	224.87
951.98	224.94
952.28	224.96
952.58	224.97
952.87	224.98
953.17	224.99
953.47	224.95
953.76	224.95
954.06	224.94
954.36	224.90
954.66	224.92
954.95	224.92
955.25	224.95
955.55	224.97
955.84	224.96
956.14	224.98
956.44	224.96
956.73	224.88
957.03	224.90
957.32	224.91
957.62	224.93
957.92	224.95
958.21	224.92
958.51	225.00
958.81	225.00
959.10	225.03
959.40	225.06
959.69	225.07
959.99	225.08
960.29	225.05
960.58	225.03
960.88	225.08
961.17	225.08
961.47	225.08
961.76	225.08
962.06	225.13
962.36	225.11
962.65	225.14
962.95	225.17
963.24	225.17
963.54	225.15
963.83	225.12
964.13	225.11
964.42	225.08
964.72	225.00
965.01	224.98
965.31	224.98
965.60	224.93
965.90	224.99
966.19	224.96
966.49	224.96
966.78	224.94
967.08	224.91
967.37	224.91
967.67	224.88
967.96	224.89
968.26	224.88
968.55	224.88
968.85	224.86
969.14	224.87
969.43	224.82
969.73	224.80
970.02	224.82
970.32	224.81
970.61	224.82
970.91	224.78
971.20	224.79
971.49	224.74
971.79	224.75
972.08	224.64
972.38	224.65
972.67	224.64
972.96	224.67
973.26	224.66
973.55	224.68
973.85	224.69
974.14	224.70
974.43	224.67
974.73	224.64
975.02	224.65
975.31	224.66
975.61	224.68
975.90	224.68
976.19	224.67
976.49	224.71
976.78	224.69
977.07	224.70
977.37	224.69
977.66	224.75
977.95	224.77
978.24	224.83
978.54	224.81
978.83	224.81
979.12	224.81
979.42	224.82
979.71	224.80
980.00	224.76
980.29	224.76
980.59	224.74
980.88	224.80
981.17	224.78
981.46	224.77
981.76	224.78
982.05	224.81
982.34	224.81
982.63	224.81
982.93	224.82
983.22	224.86
983.51	224.87
983.80	224.84
984.09	224.85
984.39	224.80
984.68	224.82
984.97	224.85
985.26	224.85
985.55	224.84
985.85	224.82
986.14	224.87
986.43	224.87
986.72	224.90
987.01	224.85
987.30	224.86
987.59	224.84
987.89	224.85
988.18	224.83
988.47	224.82
988.76	224.81
989.05	224.80
989.34	224.76
989.63	224.78
989.92	224.79
990.22	224.73
990.51	224.79
990.80	224.78
991.09	224.80
991.38	224.82
991.67	224.81
991.96	224.83
992.25	224.83
992.54	224.77
992.83	224.79
993.12	224.79
993.41	224.79
993.70	224.85
993.99	224.86
994.28	224.87
994.58	224.87
994.87	224.84
995.16	224.86
995.45	224.85
995.74	224.83
996.03	224.83
996.32	224.87
996.61	224.89
996.90	224.89
997.19	224.88
997.48	224.87
997.77	224.87
998.06	224.83
998.34	224.82
998.63	224.84
998.92	224.83
999.21	224.85
999.50	224.87
999.79	224.83
1000.08	224.83
1000.37	224.80
1000.66	224.78
1000.95	224.80
1001.24	224.78
1001.53	224.77
1001.82	224.76
1002.11	224.73
1002.40	224.74
1002.68	224.76
1002.97	224.83
1003.26	224.80
1003.55	224.77
1003.84	224.76
1004.13	224.81
1004.42	224.80
1004.71	224.83
1004.99	224.81
1005.28	224.81
1005.57	224.77
1005.86	224.75
1006.15	224.76
1006.44	224.78
1006.72	224.81
1007.01	224.83
1007.30	224.86
1007.59	224.90
1007.88	224.89
1008.17	224.92
1008.45	224.92
1008.74	224.87
1009.03	224.82
1009.32	224.85
1009.60	224.87
1009.89	224.89
1010.18	224.87
1010.47	224.90
1010.76	224.90
1011.04	224.92
1011.33	224.98
1011.62	225.02
1011.91	225.05
1012.19	225.05
1012.48	225.06
1012.77	225.05
1013.05	225.09
1013.34	225.08
1013.63	225.08
1013.92	225.10
1014.20	225.12
1014.49	225.11
1014.78	225.14
1015.06	225.10
1015.35	225.09
1015.64	225.08
1015.92	225.07
1016.21	225.07
1016.50	225.06
1016.78	225.05
1017.07	225.06
1017.36	225.03
1017.64	224.99
1017.93	224.98
1018.22	224.96
1018.50	224.95
1018.79	224.98
1019.08	224.93
1019.36	224.95
1019.65	224.93
1019.93	224.96
1020.22	224.94
1020.51	225.00
1020.79	224.96
1021.08	224.86
1021.36	224.70
1021.65	225.34
1021.94	225.10
1022.22	225.16
1022.51	224.67
1022.79	225.47
1023.08	225.04
1023.36	226.13
1023.65	224.48
>>>>>End Processed Spectral Data<<<<<
