SpectraSuite Data File
++++++++++++++++++++++++++++++++++++
Date: Fri Feb 01 15:24:49 EST 2013
User: group
Dark Spectrum Present: No
Reference Spectrum Present: No
Number of Sampled Component Spectra: 1
Spectrometers: USB2E7196
Integration Time (usec): 35000 (USB2E7196)
Spectra Averaged: 100 (USB2E7196)
Boxcar Smoothing: 10 (USB2E7196)
Correct for Electrical Dark: No (USB2E7196)
Strobe/Lamp Enabled: No (USB2E7196)
Correct for Detector Non-linearity: No (USB2E7196)
Correct for Stray Light: No (USB2E7196)
Number of Pixels in Processed Spectrum: 2048
>>>>>Begin Processed Spectral Data<<<<<
339.09	0.00
339.48	215.82
339.86	216.80
340.24	218.20
340.63	219.31
341.01	222.32
341.39	222.68
341.78	223.74
342.16	225.29
342.54	224.99
342.93	213.71
343.31	224.52
343.69	225.03
344.07	225.50
344.46	225.91
344.84	226.30
345.22	226.53
345.60	226.73
345.99	226.90
346.37	227.01
346.75	227.12
347.13	227.20
347.52	227.27
347.90	227.35
348.28	227.31
348.66	227.35
349.05	227.30
349.43	227.31
349.81	227.39
350.19	227.38
350.57	227.39
350.96	227.46
351.34	227.51
351.72	227.60
352.10	227.70
352.48	227.75
352.87	227.78
353.25	227.85
353.63	227.93
354.01	228.03
354.39	228.09
354.77	228.13
355.15	228.20
355.54	228.22
355.92	228.25
356.30	228.36
356.68	228.49
357.06	228.56
357.44	228.62
357.82	228.68
358.20	228.79
358.58	228.85
358.97	228.89
359.35	228.98
359.73	229.04
360.11	229.06
360.49	229.13
360.87	229.18
361.25	229.22
361.63	229.28
362.01	229.27
362.39	229.32
362.77	229.38
363.15	229.42
363.53	229.46
363.91	229.49
364.29	229.50
364.67	229.41
365.05	229.45
365.43	229.45
365.81	229.49
366.19	229.50
366.57	229.56
366.95	229.61
367.33	229.58
367.71	229.58
368.09	229.60
368.47	229.58
368.85	229.56
369.23	229.58
369.61	229.54
369.99	229.56
370.37	229.55
370.75	229.55
371.13	229.49
371.51	229.43
371.89	229.39
372.27	229.34
372.65	229.29
373.03	229.28
373.41	229.21
373.78	229.13
374.16	229.04
374.54	228.98
374.92	228.89
375.30	228.84
375.68	228.76
376.06	228.71
376.44	228.66
376.82	228.59
377.19	228.50
377.57	228.40
377.95	228.30
378.33	228.26
378.71	228.14
379.09	228.10
379.47	228.06
379.84	227.99
380.22	227.92
380.60	227.85
380.98	227.77
381.36	227.71
381.73	227.61
382.11	227.56
382.49	227.48
382.87	227.40
383.25	227.33
383.62	227.38
384.00	227.27
384.38	227.22
384.76	227.22
385.13	227.19
385.51	227.15
385.89	227.11
386.27	227.04
386.64	226.99
387.02	226.93
387.40	226.90
387.78	226.87
388.15	226.86
388.53	226.83
388.91	226.79
389.29	226.78
389.66	226.79
390.04	226.76
390.42	226.74
390.79	226.74
391.17	226.72
391.55	226.61
391.92	226.60
392.30	226.59
392.68	226.51
393.05	226.54
393.43	226.58
393.81	226.56
394.18	226.53
394.56	226.55
394.94	226.58
395.31	226.57
395.69	226.59
396.06	226.60
396.44	226.63
396.82	226.62
397.19	226.71
397.57	226.73
397.95	226.79
398.32	226.79
398.70	226.84
399.07	226.92
399.45	226.98
399.82	227.05
400.20	227.08
400.58	227.17
400.95	227.16
401.33	227.22
401.70	227.38
402.08	227.45
402.45	227.59
402.83	227.69
403.20	227.82
403.58	227.94
403.95	228.09
404.33	228.25
404.71	228.41
405.08	228.56
405.46	228.69
405.83	228.82
406.21	229.02
406.58	229.20
406.96	229.34
407.33	229.51
407.70	229.72
408.08	230.01
408.45	230.25
408.83	230.52
409.20	230.75
409.58	230.94
409.95	231.27
410.33	231.51
410.70	231.77
411.08	232.07
411.45	232.37
411.82	232.67
412.20	232.97
412.57	233.38
412.95	233.70
413.32	234.12
413.69	234.52
414.07	234.96
414.44	235.45
414.82	235.93
415.19	236.49
415.56	237.07
415.94	237.59
416.31	238.23
416.68	238.85
417.06	239.62
417.43	240.29
417.81	241.04
418.18	241.83
418.55	242.67
418.93	243.52
419.30	244.38
419.67	245.33
420.04	246.33
420.42	247.32
420.79	248.51
421.16	249.64
421.54	250.89
421.91	252.09
422.28	253.33
422.66	254.70
423.03	255.98
423.40	257.29
423.77	258.74
424.15	260.19
424.52	261.66
424.89	263.27
425.26	264.82
425.64	266.29
426.01	267.88
426.38	269.56
426.75	271.28
427.13	273.06
427.50	274.85
427.87	276.72
428.24	278.57
428.61	280.31
428.99	282.29
429.36	284.37
429.73	286.41
430.10	288.48
430.47	290.49
430.85	292.71
431.22	294.98
431.59	297.37
431.96	299.62
432.33	302.12
432.70	304.47
433.08	307.31
433.45	309.93
433.82	312.53
434.19	315.43
434.56	318.25
434.93	320.89
435.30	323.51
435.68	326.44
436.05	329.28
436.42	332.05
436.79	334.58
437.16	337.26
437.53	340.16
437.90	342.94
438.27	345.72
438.64	348.47
439.01	351.03
439.38	353.23
439.75	355.41
440.13	357.91
440.50	360.30
440.87	362.16
441.24	364.12
441.61	366.29
441.98	367.77
442.35	369.59
442.72	371.45
443.09	373.27
443.46	374.25
443.83	374.85
444.20	375.37
444.57	376.19
444.94	376.47
445.31	376.79
445.68	377.12
446.05	377.18
446.42	376.85
446.79	376.42
447.16	375.97
447.53	375.62
447.90	374.41
448.27	373.21
448.64	371.59
449.01	370.42
449.37	368.44
449.74	366.56
450.11	364.28
450.48	361.84
450.85	359.28
451.22	357.13
451.59	355.09
451.96	353.14
452.33	350.52
452.70	348.19
453.07	345.31
453.43	342.42
453.80	339.65
454.17	336.95
454.54	334.37
454.91	331.66
455.28	328.96
455.65	326.49
456.02	324.01
456.38	321.86
456.75	319.23
457.12	316.95
457.49	314.68
457.86	312.50
458.23	310.64
458.59	308.60
458.96	306.51
459.33	304.64
459.70	302.76
460.07	301.24
460.43	299.50
460.80	297.87
461.17	296.46
461.54	294.99
461.91	293.56
462.27	292.11
462.64	290.86
463.01	289.54
463.38	288.25
463.74	286.90
464.11	285.74
464.48	284.73
464.85	283.63
465.21	282.76
465.58	281.80
465.95	280.68
466.32	279.77
466.68	278.87
467.05	278.01
467.42	277.20
467.78	276.28
468.15	275.42
468.52	274.79
468.88	273.93
469.25	273.14
469.62	272.52
469.98	271.87
470.35	271.23
470.72	270.63
471.08	269.96
471.45	269.41
471.82	268.87
472.18	268.24
472.55	267.79
472.92	267.29
473.28	266.87
473.65	266.44
474.02	265.98
474.38	265.65
474.75	265.30
475.11	264.93
475.48	264.65
475.85	264.43
476.21	264.19
476.58	263.99
476.94	263.84
477.31	263.68
477.67	263.54
478.04	263.44
478.41	263.39
478.77	263.45
479.14	263.38
479.50	263.36
479.87	263.44
480.23	263.48
480.60	263.53
480.96	263.61
481.33	263.76
481.69	263.97
482.06	264.14
482.42	264.33
482.79	264.57
483.15	264.90
483.52	265.26
483.88	265.59
484.25	265.98
484.61	266.39
484.98	266.80
485.34	267.36
485.71	267.97
486.07	268.57
486.44	269.14
486.80	269.85
487.17	270.59
487.53	271.38
487.90	272.24
488.26	273.18
488.62	274.16
488.99	275.18
489.35	276.18
489.72	277.29
490.08	278.50
490.44	279.72
490.81	281.06
491.17	282.41
491.54	283.89
491.90	285.42
492.26	287.11
492.63	288.84
492.99	290.62
493.36	292.49
493.72	294.49
494.08	296.58
494.45	298.81
494.81	301.17
495.17	303.61
495.54	306.18
495.90	308.84
496.26	311.63
496.63	314.58
496.99	317.75
497.35	320.98
497.72	324.35
498.08	327.86
498.44	331.51
498.80	335.41
499.17	339.43
499.53	343.57
499.89	347.88
500.26	352.37
500.62	357.06
500.98	362.01
501.34	367.13
501.71	372.45
502.07	377.87
502.43	383.51
502.79	389.31
503.16	395.40
503.52	401.65
503.88	408.11
504.24	414.74
504.60	421.59
504.97	428.73
505.33	436.06
505.69	443.79
506.05	451.60
506.41	459.54
506.78	467.76
507.14	476.21
507.50	484.88
507.86	493.90
508.22	503.06
508.59	512.29
508.95	521.87
509.31	531.66
509.67	541.77
510.03	552.01
510.39	562.58
510.75	573.40
511.12	584.39
511.48	595.70
511.84	607.16
512.20	618.71
512.56	630.69
512.92	642.93
513.28	655.16
513.64	667.63
514.00	680.27
514.37	693.19
514.73	706.23
515.09	719.36
515.45	732.63
515.81	746.22
516.17	760.13
516.53	774.15
516.89	788.34
517.25	802.60
517.61	817.09
517.97	831.64
518.33	846.02
518.69	860.84
519.05	875.83
519.41	891.06
519.77	906.63
520.13	922.10
520.49	937.60
520.85	953.15
521.21	968.89
521.57	985.21
521.93	1000.97
522.29	1017.48
522.65	1033.79
523.01	1050.12
523.37	1066.22
523.73	1082.50
524.09	1098.69
524.45	1115.04
524.81	1131.72
525.17	1148.59
525.53	1165.50
525.89	1182.49
526.25	1199.41
526.61	1215.85
526.97	1232.58
527.33	1249.13
527.68	1265.78
528.04	1282.25
528.40	1298.83
528.76	1315.98
529.12	1332.63
529.48	1349.66
529.84	1365.73
530.20	1382.43
530.56	1399.61
530.91	1417.17
531.27	1433.98
531.63	1450.53
531.99	1467.25
532.35	1483.26
532.71	1499.24
533.07	1515.57
533.42	1531.51
533.78	1547.45
534.14	1563.78
534.50	1579.22
534.86	1595.21
535.21	1610.46
535.57	1626.61
535.93	1642.22
536.29	1656.99
536.65	1672.10
537.00	1686.97
537.36	1702.34
537.72	1717.01
538.08	1731.32
538.44	1745.09
538.79	1758.99
539.15	1772.85
539.51	1786.68
539.87	1800.98
540.22	1814.81
540.58	1828.70
540.94	1842.29
541.29	1855.46
541.65	1868.33
542.01	1881.73
542.37	1894.11
542.72	1906.59
543.08	1918.18
543.44	1930.75
543.79	1942.16
544.15	1953.29
544.51	1964.81
544.87	1975.91
545.22	1986.65
545.58	1996.93
545.94	2006.81
546.29	2016.85
546.65	2026.66
547.01	2035.77
547.36	2044.63
547.72	2053.04
548.07	2060.92
548.43	2069.10
548.79	2077.05
549.14	2084.54
549.50	2091.89
549.86	2099.54
550.21	2106.90
550.57	2114.02
550.92	2120.56
551.28	2127.59
551.64	2134.71
551.99	2141.25
552.35	2147.29
552.70	2153.47
553.06	2159.62
553.41	2165.96
553.77	2171.85
554.13	2177.99
554.48	2184.18
554.84	2189.65
555.19	2195.07
555.55	2200.07
555.90	2204.35
556.26	2209.15
556.61	2213.86
556.97	2218.06
557.32	2222.14
557.68	2226.21
558.03	2230.65
558.39	2234.41
558.74	2239.09
559.10	2242.84
559.45	2246.56
559.81	2250.81
560.16	2254.51
560.52	2257.78
560.87	2261.10
561.23	2263.74
561.58	2266.61
561.94	2269.09
562.29	2271.53
562.64	2274.09
563.00	2276.73
563.35	2280.36
563.71	2283.61
564.06	2286.85
564.42	2289.69
564.77	2292.23
565.12	2294.42
565.48	2296.33
565.83	2298.09
566.19	2299.34
566.54	2300.21
566.89	2301.29
567.25	2301.82
567.60	2303.30
567.96	2304.88
568.31	2305.75
568.66	2306.88
569.02	2307.39
569.37	2307.77
569.72	2308.55
570.08	2308.71
570.43	2308.67
570.78	2307.82
571.14	2306.21
571.49	2304.70
571.84	2304.36
572.20	2303.05
572.55	2302.01
572.90	2300.56
573.26	2299.09
573.61	2297.19
573.96	2295.28
574.31	2292.19
574.67	2289.26
575.02	2285.56
575.37	2281.96
575.72	2278.02
576.08	2274.57
576.43	2271.22
576.78	2267.49
577.13	2264.30
577.49	2260.93
577.84	2257.37
578.19	2253.63
578.54	2249.70
578.90	2245.35
579.25	2239.60
579.60	2234.61
579.95	2229.54
580.30	2224.32
580.66	2219.01
581.01	2213.99
581.36	2209.12
581.71	2204.81
582.06	2200.33
582.42	2195.63
582.77	2190.37
583.12	2185.70
583.47	2180.86
583.82	2175.66
584.17	2170.28
584.53	2164.51
584.88	2158.95
585.23	2153.10
585.58	2147.57
585.93	2142.20
586.28	2137.42
586.63	2132.29
586.98	2127.15
587.34	2122.44
587.69	2117.39
588.04	2112.09
588.39	2106.40
588.74	2099.79
589.09	2093.73
589.44	2086.77
589.79	2080.71
590.14	2075.02
590.49	2068.43
590.84	2062.13
591.19	2056.06
591.54	2049.55
591.89	2042.05
592.25	2035.17
592.60	2027.84
592.95	2020.22
593.30	2012.70
593.65	2005.02
594.00	1997.97
594.35	1990.73
594.70	1982.53
595.05	1975.16
595.40	1967.80
595.75	1960.30
596.10	1954.03
596.45	1947.02
596.80	1940.71
597.15	1933.98
597.50	1926.76
597.85	1920.31
598.19	1913.61
598.54	1906.45
598.89	1899.85
599.24	1894.05
599.59	1887.27
599.94	1881.11
600.29	1874.75
600.64	1868.22
600.99	1860.76
601.34	1853.79
601.69	1846.67
602.04	1839.61
602.39	1832.27
602.74	1825.39
603.08	1818.65
603.43	1811.87
603.78	1804.67
604.13	1797.50
604.48	1790.11
604.83	1783.22
605.18	1776.10
605.53	1767.90
605.87	1759.87
606.22	1752.57
606.57	1744.44
606.92	1737.07
607.27	1729.80
607.62	1722.81
607.96	1715.50
608.31	1708.74
608.66	1701.08
609.01	1693.51
609.36	1686.07
609.70	1677.92
610.05	1669.88
610.40	1662.08
610.75	1653.79
611.10	1646.07
611.44	1637.74
611.79	1629.88
612.14	1621.25
612.49	1612.25
612.83	1603.94
613.18	1595.90
613.53	1587.84
613.88	1579.37
614.22	1571.17
614.57	1562.68
614.92	1554.61
615.27	1547.01
615.61	1538.73
615.96	1530.75
616.31	1523.10
616.65	1515.76
617.00	1508.29
617.35	1500.72
617.70	1492.33
618.04	1483.72
618.39	1475.42
618.74	1467.74
619.08	1459.39
619.43	1451.76
619.78	1444.79
620.12	1437.55
620.47	1430.01
620.82	1421.84
621.16	1414.48
621.51	1406.80
621.85	1399.07
622.20	1390.65
622.55	1382.35
622.89	1374.58
623.24	1367.10
623.59	1359.86
623.93	1352.30
624.28	1345.08
624.62	1337.47
624.97	1330.30
625.32	1323.63
625.66	1316.69
626.01	1309.46
626.35	1302.02
626.70	1294.28
627.04	1286.54
627.39	1278.77
627.73	1271.31
628.08	1264.22
628.43	1256.84
628.77	1249.39
629.12	1241.85
629.46	1234.59
629.81	1227.23
630.15	1219.99
630.50	1212.48
630.84	1204.20
631.19	1196.35
631.53	1188.84
631.88	1181.27
632.22	1173.75
632.57	1166.59
632.91	1159.06
633.26	1151.69
633.60	1144.34
633.95	1137.25
634.29	1130.20
634.64	1123.65
634.98	1116.29
635.32	1109.30
635.67	1102.82
636.01	1096.22
636.36	1089.45
636.70	1082.97
637.05	1076.38
637.39	1069.85
637.73	1063.37
638.08	1057.45
638.42	1051.45
638.77	1045.03
639.11	1038.36
639.45	1031.99
639.80	1025.17
640.14	1018.75
640.49	1012.26
640.83	1005.90
641.17	999.58
641.52	993.27
641.86	986.78
642.20	981.03
642.55	974.69
642.89	968.15
643.23	961.63
643.58	955.86
643.92	949.64
644.26	943.52
644.61	937.68
644.95	931.67
645.29	925.13
645.64	918.39
645.98	911.96
646.32	906.25
646.66	900.15
647.01	894.36
647.35	888.66
647.69	882.83
648.04	877.41
648.38	871.71
648.72	865.67
649.06	859.66
649.41	853.74
649.75	847.76
650.09	841.81
650.43	836.05
650.78	829.90
651.12	824.01
651.46	818.31
651.80	812.38
652.14	807.03
652.49	801.71
652.83	796.57
653.17	790.95
653.51	785.10
653.85	779.73
654.20	774.08
654.54	768.03
654.88	762.28
655.22	756.39
655.56	750.67
655.90	745.28
656.25	740.01
656.59	734.73
656.93	729.68
657.27	724.54
657.61	719.13
657.95	714.02
658.29	708.96
658.64	703.71
658.98	698.52
659.32	693.01
659.66	687.71
660.00	682.39
660.34	677.49
660.68	672.65
661.02	667.68
661.36	663.03
661.70	658.60
662.05	654.24
662.39	649.86
662.73	645.42
663.07	640.95
663.41	636.47
663.75	631.85
664.09	627.24
664.43	622.88
664.77	618.76
665.11	614.53
665.45	610.38
665.79	606.29
666.13	602.13
666.47	597.98
666.81	593.85
667.15	589.74
667.49	585.88
667.83	582.10
668.17	578.14
668.51	574.05
668.85	570.10
669.19	566.24
669.53	562.41
669.87	558.56
670.21	554.90
670.55	551.28
670.89	547.91
671.23	544.54
671.57	541.04
671.91	537.48
672.25	534.01
672.58	530.53
672.92	527.12
673.26	523.93
673.60	520.85
673.94	517.77
674.28	514.88
674.62	511.92
674.96	508.80
675.30	505.89
675.64	502.91
675.97	500.09
676.31	497.28
676.65	494.32
676.99	491.64
677.33	488.82
677.67	486.00
678.01	483.00
678.34	479.90
678.68	477.05
679.02	474.20
679.36	471.45
679.70	468.70
680.04	465.95
680.37	463.14
680.71	460.33
681.05	457.68
681.39	454.95
681.73	452.26
682.06	449.74
682.40	447.16
682.74	444.71
683.08	442.16
683.42	439.52
683.75	437.09
684.09	434.54
684.43	432.10
684.77	429.64
685.10	427.23
685.44	425.00
685.78	422.70
686.12	420.55
686.45	418.31
686.79	416.01
687.13	413.79
687.46	411.57
687.80	409.47
688.14	407.31
688.48	405.20
688.81	403.01
689.15	400.86
689.49	398.72
689.82	396.56
690.16	394.46
690.50	392.50
690.83	390.55
691.17	388.59
691.51	386.65
691.84	384.77
692.18	382.87
692.52	380.90
692.85	379.00
693.19	377.09
693.52	375.20
693.86	373.43
694.20	371.70
694.53	369.96
694.87	368.09
695.21	366.25
695.54	364.48
695.88	362.73
696.21	360.97
696.55	359.31
696.88	357.73
697.22	356.13
697.56	354.50
697.89	352.84
698.23	351.20
698.56	349.59
698.90	348.01
699.23	346.36
699.57	344.81
699.90	343.24
700.24	341.70
700.58	340.17
700.91	338.66
701.25	337.18
701.58	335.81
701.92	334.47
702.25	333.10
702.59	331.73
702.92	330.40
703.26	329.14
703.59	327.94
703.93	326.73
704.26	325.47
704.60	324.19
704.93	322.93
705.26	321.67
705.60	320.53
705.93	319.41
706.27	318.39
706.60	317.34
706.94	316.26
707.27	315.12
707.61	314.11
707.94	313.10
708.27	312.01
708.61	310.95
708.94	309.93
709.28	309.00
709.61	308.06
709.94	307.12
710.28	306.09
710.61	305.06
710.95	303.97
711.28	303.02
711.61	302.06
711.95	301.15
712.28	300.24
712.61	299.26
712.95	298.30
713.28	297.39
713.61	296.51
713.95	295.63
714.28	294.85
714.61	293.96
714.95	293.08
715.28	292.20
715.61	291.29
715.95	290.42
716.28	289.53
716.61	288.69
716.95	287.86
717.28	287.11
717.61	286.33
717.94	285.59
718.28	284.80
718.61	284.08
718.94	283.40
719.27	282.72
719.61	282.03
719.94	281.39
720.27	280.69
720.60	280.02
720.94	279.42
721.27	278.77
721.60	278.23
721.93	277.64
722.27	277.12
722.60	276.61
722.93	276.04
723.26	275.51
723.59	274.95
723.93	274.43
724.26	273.91
724.59	273.36
724.92	272.85
725.25	272.38
725.59	271.89
725.92	271.38
726.25	270.87
726.58	270.43
726.91	269.91
727.24	269.45
727.57	269.02
727.91	268.51
728.24	268.06
728.57	267.55
728.90	267.12
729.23	266.64
729.56	266.22
729.89	265.74
730.22	265.29
730.55	264.85
730.89	264.43
731.22	263.97
731.55	263.50
731.88	263.08
732.21	262.64
732.54	262.18
732.87	261.75
733.20	261.34
733.53	260.93
733.86	260.58
734.19	260.18
734.52	259.79
734.85	259.47
735.18	259.05
735.51	258.69
735.84	258.30
736.17	257.95
736.50	257.54
736.83	257.31
737.16	256.95
737.49	256.63
737.82	256.25
738.15	255.95
738.48	255.63
738.81	255.31
739.14	254.99
739.47	254.66
739.80	254.35
740.13	254.07
740.46	253.74
740.79	253.41
741.12	253.07
741.45	252.75
741.78	252.41
742.11	252.12
742.44	251.81
742.77	251.56
743.10	251.22
743.43	250.92
743.75	250.55
744.08	250.44
744.41	250.15
744.74	249.86
745.07	249.56
745.40	249.33
745.73	249.08
746.06	248.81
746.39	248.56
746.71	248.28
747.04	248.02
747.37	247.74
747.70	247.46
748.03	247.22
748.36	247.00
748.68	246.72
749.01	246.47
749.34	246.22
749.67	245.98
750.00	245.78
750.33	245.61
750.65	245.39
750.98	245.03
751.31	244.81
751.64	244.64
751.97	244.47
752.29	244.25
752.62	244.02
752.95	243.80
753.28	243.59
753.60	243.42
753.93	243.22
754.26	243.02
754.59	242.83
754.91	242.64
755.24	242.42
755.57	242.26
755.90	242.07
756.22	241.91
756.55	241.67
756.88	241.51
757.20	241.29
757.53	241.10
757.86	240.93
758.19	240.74
758.51	240.56
758.84	240.36
759.17	240.24
759.49	240.08
759.82	240.00
760.15	239.88
760.47	239.74
760.80	239.58
761.13	239.49
761.45	239.36
761.78	239.21
762.11	239.13
762.43	238.98
762.76	238.85
763.08	238.74
763.41	238.62
763.74	238.47
764.06	238.37
764.39	238.24
764.71	238.13
765.04	238.03
765.37	237.90
765.69	237.77
766.02	237.63
766.34	237.50
766.67	237.33
767.00	237.22
767.32	237.13
767.65	237.05
767.97	236.93
768.30	236.83
768.62	236.73
768.95	236.59
769.27	236.49
769.60	236.38
769.92	236.26
770.25	236.14
770.57	236.03
770.90	235.91
771.22	235.79
771.55	235.71
771.87	235.60
772.20	235.50
772.52	235.46
772.85	235.49
773.17	235.38
773.50	235.28
773.82	235.17
774.15	235.06
774.47	234.92
774.80	234.83
775.12	234.74
775.45	234.67
775.77	234.58
776.09	234.51
776.42	234.44
776.74	234.37
777.07	234.31
777.39	234.23
777.72	234.14
778.04	234.09
778.36	233.98
778.69	233.89
779.01	233.85
779.33	233.74
779.66	233.54
779.98	233.46
780.31	233.38
780.63	233.36
780.95	233.27
781.28	233.21
781.60	233.10
781.92	233.03
782.25	232.95
782.57	232.87
782.89	232.76
783.22	232.71
783.54	232.62
783.86	232.56
784.19	232.48
784.51	232.45
784.83	232.37
785.16	232.33
785.48	232.30
785.80	232.19
786.12	232.11
786.45	232.06
786.77	232.01
787.09	231.97
787.42	231.87
787.74	231.83
788.06	231.78
788.38	231.74
788.71	231.71
789.03	231.62
789.35	231.62
789.67	231.58
789.99	231.53
790.32	231.46
790.64	231.41
790.96	231.46
791.28	231.40
791.61	231.33
791.93	231.28
792.25	231.24
792.57	231.28
792.89	231.23
793.21	231.15
793.54	231.11
793.86	231.06
794.18	231.04
794.50	230.98
794.82	230.96
795.14	230.94
795.47	230.88
795.79	230.88
796.11	230.78
796.43	230.74
796.75	230.71
797.07	230.69
797.39	230.67
797.71	230.61
798.04	230.57
798.36	230.57
798.68	230.52
799.00	230.47
799.32	230.40
799.64	230.37
799.96	230.37
800.28	230.35
800.60	230.33
800.92	230.28
801.24	230.27
801.56	230.25
801.89	230.21
802.21	230.22
802.53	230.17
802.85	230.18
803.17	230.22
803.49	230.18
803.81	230.16
804.13	230.12
804.45	230.07
804.77	230.06
805.09	230.03
805.41	230.01
805.73	230.01
806.05	229.97
806.37	229.95
806.69	229.93
807.01	229.94
807.33	229.92
807.65	229.90
807.97	229.91
808.28	229.88
808.60	229.88
808.92	229.84
809.24	229.90
809.56	229.90
809.88	229.81
810.20	229.79
810.52	229.75
810.84	229.71
811.16	229.70
811.48	229.69
811.80	229.69
812.12	229.69
812.43	229.65
812.75	229.64
813.07	229.64
813.39	229.63
813.71	229.57
814.03	229.54
814.35	229.53
814.67	229.47
814.98	229.44
815.30	229.41
815.62	229.38
815.94	229.28
816.26	229.28
816.58	229.26
816.89	229.25
817.21	229.22
817.53	229.21
817.85	229.18
818.17	229.11
818.48	229.06
818.80	229.04
819.12	229.01
819.44	228.99
819.76	228.96
820.07	228.89
820.39	228.84
820.71	228.86
821.03	228.81
821.34	228.80
821.66	228.76
821.98	228.73
822.30	228.69
822.61	228.74
822.93	228.68
823.25	228.70
823.57	228.65
823.88	228.65
824.20	228.65
824.52	228.62
824.83	228.62
825.15	228.57
825.47	228.55
825.79	228.53
826.10	228.50
826.42	228.45
826.74	228.46
827.05	228.45
827.37	228.40
827.69	228.37
828.00	228.35
828.32	228.36
828.64	228.33
828.95	228.38
829.27	228.30
829.58	228.28
829.90	228.26
830.22	228.30
830.53	228.27
830.85	228.24
831.17	228.19
831.48	228.20
831.80	228.22
832.11	228.19
832.43	228.18
832.75	228.19
833.06	228.26
833.38	228.26
833.69	228.26
834.01	228.24
834.32	228.27
834.64	228.25
834.96	228.23
835.27	228.22
835.59	228.14
835.90	228.15
836.22	228.15
836.53	228.12
836.85	228.08
837.16	228.17
837.48	228.15
837.79	228.19
838.11	228.19
838.42	228.17
838.74	228.20
839.05	228.17
839.37	228.15
839.68	228.07
840.00	228.04
840.31	228.07
840.63	228.07
840.94	228.05
841.26	228.02
841.57	228.02
841.88	228.05
842.20	228.09
842.51	228.06
842.83	228.04
843.14	228.14
843.46	228.13
843.77	228.07
844.08	228.10
844.40	228.08
844.71	228.03
845.03	228.02
845.34	228.03
845.65	228.05
845.97	228.05
846.28	228.06
846.60	228.09
846.91	228.05
847.22	228.09
847.54	228.13
847.85	228.12
848.16	228.13
848.48	228.08
848.79	228.10
849.10	228.13
849.42	228.16
849.73	228.06
850.04	228.07
850.36	228.06
850.67	228.06
850.98	228.07
851.30	228.09
851.61	228.11
851.92	228.07
852.23	228.10
852.55	228.10
852.86	228.07
853.17	228.07
853.49	228.11
853.80	228.08
854.11	228.07
854.42	228.11
854.74	228.08
855.05	228.08
855.36	228.01
855.67	228.00
855.99	227.95
856.30	228.07
856.61	228.04
856.92	228.00
857.23	227.98
857.55	227.96
857.86	227.94
858.17	227.95
858.48	227.94
858.79	227.90
859.11	227.92
859.42	227.91
859.73	227.89
860.04	227.87
860.35	227.85
860.66	227.82
860.98	227.79
861.29	227.82
861.60	227.81
861.91	227.83
862.22	227.81
862.53	227.81
862.84	227.67
863.16	227.68
863.47	227.66
863.78	227.62
864.09	227.62
864.40	227.58
864.71	227.55
865.02	227.57
865.33	227.53
865.64	227.46
865.95	227.47
866.27	227.53
866.58	227.51
866.89	227.51
867.20	227.48
867.51	227.45
867.82	227.41
868.13	227.44
868.44	227.39
868.75	227.39
869.06	227.39
869.37	227.39
869.68	227.36
869.99	227.39
870.30	227.39
870.61	227.42
870.92	227.43
871.23	227.45
871.54	227.44
871.85	227.48
872.16	227.52
872.47	227.51
872.78	227.44
873.09	227.42
873.40	227.41
873.71	227.42
874.02	227.43
874.33	227.42
874.64	227.39
874.95	227.44
875.26	227.41
875.56	227.42
875.87	227.44
876.18	227.45
876.49	227.57
876.80	227.57
877.11	227.55
877.42	227.58
877.73	227.57
878.04	227.56
878.35	227.56
878.66	227.54
878.96	227.56
879.27	227.56
879.58	227.55
879.89	227.53
880.20	227.60
880.51	227.59
880.82	227.60
881.12	227.62
881.43	227.60
881.74	227.59
882.05	227.60
882.36	227.60
882.67	227.61
882.97	227.49
883.28	227.50
883.59	227.49
883.90	227.47
884.21	227.48
884.51	227.48
884.82	227.48
885.13	227.51
885.44	227.49
885.74	227.48
886.05	227.46
886.36	227.49
886.67	227.45
886.98	227.49
887.28	227.50
887.59	227.48
887.90	227.49
888.20	227.50
888.51	227.51
888.82	227.47
889.13	227.45
889.43	227.52
889.74	227.49
890.05	227.48
890.35	227.49
890.66	227.48
890.97	227.45
891.28	227.45
891.58	227.44
891.89	227.45
892.20	227.47
892.50	227.49
892.81	227.45
893.12	227.46
893.42	227.46
893.73	227.47
894.04	227.47
894.34	227.48
894.65	227.48
894.95	227.44
895.26	227.47
895.57	227.51
895.87	227.43
896.18	227.45
896.48	227.45
896.79	227.43
897.10	227.45
897.40	227.47
897.71	227.45
898.01	227.42
898.32	227.40
898.63	227.42
898.93	227.42
899.24	227.43
899.54	227.43
899.85	227.43
900.15	227.40
900.46	227.39
900.76	227.40
901.07	227.40
901.38	227.40
901.68	227.37
901.99	227.33
902.29	227.33
902.60	227.31
902.90	227.30
903.21	227.32
903.51	227.27
903.82	227.26
904.12	227.30
904.43	227.30
904.73	227.31
905.03	227.28
905.34	227.36
905.64	227.34
905.95	227.34
906.25	227.28
906.56	227.28
906.86	227.27
907.17	227.25
907.47	227.28
907.77	227.27
908.08	227.27
908.38	227.27
908.69	227.31
908.99	227.32
909.30	227.29
909.60	227.29
909.90	227.33
910.21	227.31
910.51	227.28
910.81	227.33
911.12	227.34
911.42	227.34
911.73	227.24
912.03	227.26
912.33	227.27
912.64	227.31
912.94	227.30
913.24	227.33
913.55	227.29
913.85	227.24
914.15	227.29
914.46	227.29
914.76	227.30
915.06	227.28
915.37	227.26
915.67	227.28
915.97	227.30
916.27	227.27
916.58	227.27
916.88	227.28
917.18	227.25
917.49	227.31
917.79	227.32
918.09	227.35
918.39	227.38
918.70	227.37
919.00	227.36
919.30	227.39
919.60	227.39
919.91	227.40
920.21	227.45
920.51	227.40
920.81	227.44
921.12	227.44
921.42	227.43
921.72	227.49
922.02	227.50
922.32	227.52
922.63	227.53
922.93	227.58
923.23	227.59
923.53	227.58
923.83	227.48
924.13	227.50
924.44	227.51
924.74	227.51
925.04	227.51
925.34	227.50
925.64	227.50
925.94	227.49
926.24	227.54
926.55	227.53
926.85	227.57
927.15	227.57
927.45	227.58
927.75	227.57
928.05	227.58
928.35	227.61
928.65	227.63
928.95	227.62
929.26	227.57
929.56	227.59
929.86	227.62
930.16	227.65
930.46	227.64
930.76	227.64
931.06	227.61
931.36	227.60
931.66	227.62
931.96	227.61
932.26	227.62
932.56	227.60
932.86	227.58
933.16	227.58
933.46	227.57
933.76	227.55
934.06	227.58
934.36	227.58
934.66	227.53
934.96	227.53
935.26	227.54
935.56	227.57
935.86	227.50
936.16	227.48
936.46	227.44
936.76	227.43
937.06	227.39
937.36	227.38
937.66	227.40
937.96	227.39
938.26	227.38
938.56	227.39
938.86	227.36
939.16	227.37
939.46	227.35
939.76	227.35
940.06	227.36
940.35	227.32
940.65	227.28
940.95	227.29
941.25	227.22
941.55	227.17
941.85	227.13
942.15	227.19
942.45	227.19
942.75	227.21
943.04	227.21
943.34	227.23
943.64	227.22
943.94	227.19
944.24	227.16
944.54	227.17
944.84	227.14
945.13	227.13
945.43	227.14
945.73	227.11
946.03	227.07
946.33	227.05
946.62	227.02
946.92	227.01
947.22	227.01
947.52	227.02
947.82	227.03
948.11	227.02
948.41	226.95
948.71	226.95
949.01	226.91
949.31	226.90
949.60	226.86
949.90	226.87
950.20	226.85
950.50	226.88
950.79	226.85
951.09	226.87
951.39	226.87
951.69	226.84
951.98	226.88
952.28	226.88
952.58	226.89
952.87	226.88
953.17	226.91
953.47	226.89
953.76	226.90
954.06	226.91
954.36	226.92
954.66	226.93
954.95	226.94
955.25	226.94
955.55	226.95
955.84	226.96
956.14	226.98
956.44	227.01
956.73	226.96
957.03	226.99
957.32	226.98
957.62	226.96
957.92	226.99
958.21	226.99
958.51	227.14
958.81	227.15
959.10	227.19
959.40	227.22
959.69	227.24
959.99	227.26
960.29	227.27
960.58	227.26
960.88	227.30
961.17	227.31
961.47	227.34
961.76	227.34
962.06	227.39
962.36	227.38
962.65	227.36
962.95	227.38
963.24	227.39
963.54	227.41
963.83	227.44
964.13	227.45
964.42	227.42
964.72	227.35
965.01	227.33
965.31	227.31
965.60	227.28
965.90	227.36
966.19	227.36
966.49	227.35
966.78	227.34
967.08	227.34
967.37	227.36
967.67	227.37
967.96	227.39
968.26	227.38
968.55	227.36
968.85	227.40
969.14	227.38
969.43	227.38
969.73	227.37
970.02	227.39
970.32	227.37
970.61	227.37
970.91	227.34
971.20	227.33
971.49	227.33
971.79	227.35
972.08	227.29
972.38	227.29
972.67	227.28
972.96	227.32
973.26	227.32
973.55	227.34
973.85	227.30
974.14	227.29
974.43	227.30
974.73	227.31
975.02	227.29
975.31	227.28
975.61	227.27
975.90	227.24
976.19	227.22
976.49	227.22
976.78	227.22
977.07	227.22
977.37	227.21
977.66	227.20
977.95	227.18
978.24	227.16
978.54	227.16
978.83	227.18
979.12	227.16
979.42	227.13
979.71	227.11
980.00	227.09
980.29	227.07
980.59	227.02
980.88	227.03
981.17	227.04
981.46	227.06
981.76	227.04
982.05	227.06
982.34	227.07
982.63	227.07
982.93	227.05
983.22	227.07
983.51	227.07
983.80	227.06
984.09	227.07
984.39	227.06
984.68	227.05
984.97	227.02
985.26	227.00
985.55	226.98
985.85	226.96
986.14	227.01
986.43	227.02
986.72	227.03
987.01	226.98
987.30	226.98
987.59	226.96
987.89	226.98
988.18	226.96
988.47	226.95
988.76	226.94
989.05	226.95
989.34	226.94
989.63	226.96
989.92	226.95
990.22	226.93
990.51	226.93
990.80	226.94
991.09	226.95
991.38	226.99
991.67	227.00
991.96	226.95
992.25	226.95
992.54	226.93
992.83	226.92
993.12	226.93
993.41	226.93
993.70	226.97
993.99	226.94
994.28	226.96
994.58	226.99
994.87	226.97
995.16	226.94
995.45	226.92
995.74	226.89
996.03	226.89
996.32	226.90
996.61	226.94
996.90	226.94
997.19	226.93
997.48	226.89
997.77	226.90
998.06	226.91
998.34	226.90
998.63	226.91
998.92	226.92
999.21	226.97
999.50	226.97
999.79	226.95
1000.08	226.98
1000.37	226.96
1000.66	226.88
1000.95	226.91
1001.24	226.96
1001.53	226.99
1001.82	226.98
1002.11	226.97
1002.40	226.98
1002.68	226.97
1002.97	227.05
1003.26	227.04
1003.55	227.06
1003.84	227.05
1004.13	227.11
1004.42	227.12
1004.71	227.13
1004.99	227.12
1005.28	227.12
1005.57	227.13
1005.86	227.09
1006.15	227.10
1006.44	227.10
1006.72	227.14
1007.01	227.17
1007.30	227.15
1007.59	227.12
1007.88	227.13
1008.17	227.14
1008.45	227.16
1008.74	227.14
1009.03	227.07
1009.32	227.08
1009.60	227.09
1009.89	227.09
1010.18	227.06
1010.47	227.06
1010.76	227.06
1011.04	227.06
1011.33	227.04
1011.62	227.04
1011.91	227.08
1012.19	227.08
1012.48	227.08
1012.77	227.08
1013.05	227.09
1013.34	227.09
1013.63	227.07
1013.92	227.09
1014.20	227.08
1014.49	227.07
1014.78	227.05
1015.06	227.03
1015.35	227.02
1015.64	227.03
1015.92	227.01
1016.21	227.02
1016.50	227.00
1016.78	227.00
1017.07	227.01
1017.36	227.02
1017.64	226.97
1017.93	226.98
1018.22	226.95
1018.50	226.96
1018.79	226.98
1019.08	226.94
1019.36	226.94
1019.65	226.94
1019.93	226.99
1020.22	226.99
1020.51	227.02
1020.79	227.03
1021.08	226.90
1021.36	227.04
1021.65	227.18
1021.94	226.88
1022.22	226.90
1022.51	226.86
1022.79	227.78
1023.08	226.84
1023.36	227.98
1023.65	226.69
>>>>>End Processed Spectral Data<<<<<
