SpectraSuite Data File
++++++++++++++++++++++++++++++++++++
Date: Fri Feb 01 15:49:22 EST 2013
User: group
Dark Spectrum Present: No
Reference Spectrum Present: No
Number of Sampled Component Spectra: 1
Spectrometers: USB2E7196
Integration Time (usec): 35000 (USB2E7196)
Spectra Averaged: 100 (USB2E7196)
Boxcar Smoothing: 10 (USB2E7196)
Correct for Electrical Dark: No (USB2E7196)
Strobe/Lamp Enabled: No (USB2E7196)
Correct for Detector Non-linearity: No (USB2E7196)
Correct for Stray Light: No (USB2E7196)
Number of Pixels in Processed Spectrum: 2048
>>>>>Begin Processed Spectral Data<<<<<
339.09	0.00
339.48	214.81
339.86	216.17
340.24	218.40
340.63	219.08
341.01	222.17
341.39	222.21
341.78	223.08
342.16	224.20
342.54	224.17
342.93	213.24
343.31	224.01
343.69	224.53
344.07	225.00
344.46	225.38
344.84	225.76
345.22	225.98
345.60	226.22
345.99	226.40
346.37	226.52
346.75	226.61
347.13	226.66
347.52	226.73
347.90	226.78
348.28	226.78
348.66	226.83
349.05	226.83
349.43	226.85
349.81	226.84
350.19	226.88
350.57	226.94
350.96	227.02
351.34	227.14
351.72	227.20
352.10	227.27
352.48	227.35
352.87	227.38
353.25	227.44
353.63	227.48
354.01	227.55
354.39	227.63
354.77	227.75
355.15	227.89
355.54	227.97
355.92	227.99
356.30	228.09
356.68	228.20
357.06	228.31
357.44	228.35
357.82	228.41
358.20	228.45
358.58	228.53
358.97	228.62
359.35	228.68
359.73	228.81
360.11	228.87
360.49	228.92
360.87	228.98
361.25	229.02
361.63	229.11
362.01	229.15
362.39	229.17
362.77	229.21
363.15	229.22
363.53	229.22
363.91	229.25
364.29	229.26
364.67	229.18
365.05	229.16
365.43	229.20
365.81	229.22
366.19	229.29
366.57	229.34
366.95	229.29
367.33	229.24
367.71	229.20
368.09	229.21
368.47	229.21
368.85	229.20
369.23	229.21
369.61	229.15
369.99	229.14
370.37	229.16
370.75	229.14
371.13	229.12
371.51	229.05
371.89	229.04
372.27	228.99
372.65	228.98
373.03	228.96
373.41	228.88
373.78	228.87
374.16	228.77
374.54	228.65
374.92	228.62
375.30	228.58
375.68	228.49
376.06	228.43
376.44	228.37
376.82	228.31
377.19	228.23
377.57	228.16
377.95	228.10
378.33	228.03
378.71	227.93
379.09	227.86
379.47	227.80
379.84	227.71
380.22	227.66
380.60	227.57
380.98	227.47
381.36	227.44
381.73	227.35
382.11	227.30
382.49	227.25
382.87	227.18
383.25	227.11
383.62	227.19
384.00	227.10
384.38	227.07
384.76	227.04
385.13	227.04
385.51	227.00
385.89	226.90
386.27	226.86
386.64	226.84
387.02	226.80
387.40	226.77
387.78	226.73
388.15	226.70
388.53	226.66
388.91	226.63
389.29	226.56
389.66	226.55
390.04	226.49
390.42	226.50
390.79	226.49
391.17	226.50
391.55	226.39
391.92	226.41
392.30	226.39
392.68	226.34
393.05	226.30
393.43	226.30
393.81	226.35
394.18	226.30
394.56	226.31
394.94	226.35
395.31	226.35
395.69	226.40
396.06	226.40
396.44	226.40
396.82	226.42
397.19	226.54
397.57	226.55
397.95	226.61
398.32	226.60
398.70	226.65
399.07	226.73
399.45	226.74
399.82	226.79
400.20	226.83
400.58	226.93
400.95	226.99
401.33	227.10
401.70	227.24
402.08	227.32
402.45	227.41
402.83	227.49
403.20	227.61
403.58	227.72
403.95	227.87
404.33	228.03
404.71	228.15
405.08	228.34
405.46	228.47
405.83	228.63
406.21	228.78
406.58	228.92
406.96	229.07
407.33	229.24
407.70	229.44
408.08	229.70
408.45	229.90
408.83	230.13
409.20	230.31
409.58	230.48
409.95	230.78
410.33	231.04
410.70	231.31
411.08	231.59
411.45	231.90
411.82	232.21
412.20	232.52
412.57	232.94
412.95	233.21
413.32	233.64
413.69	234.04
414.07	234.47
414.44	234.93
414.82	235.36
415.19	235.91
415.56	236.43
415.94	236.97
416.31	237.60
416.68	238.22
417.06	238.95
417.43	239.62
417.81	240.36
418.18	241.14
418.55	241.97
418.93	242.85
419.30	243.70
419.67	244.62
420.04	245.59
420.42	246.60
420.79	247.79
421.16	248.96
421.54	250.14
421.91	251.36
422.28	252.65
422.66	254.01
423.03	255.32
423.40	256.69
423.77	258.10
424.15	259.53
424.52	261.04
424.89	262.63
425.26	264.19
425.64	265.68
426.01	267.27
426.38	268.93
426.75	270.58
427.13	272.33
427.50	274.11
427.87	276.02
428.24	277.87
428.61	279.59
428.99	281.50
429.36	283.58
429.73	285.64
430.10	287.66
430.47	289.73
430.85	291.85
431.22	294.09
431.59	296.49
431.96	298.73
432.33	301.22
432.70	303.61
433.08	306.44
433.45	309.00
433.82	311.60
434.19	314.52
434.56	317.33
434.93	319.95
435.30	322.62
435.68	325.50
436.05	328.31
436.42	331.11
436.79	333.67
437.16	336.37
437.53	339.19
437.90	342.03
438.27	344.73
438.64	347.51
439.01	350.11
439.38	352.37
439.75	354.51
440.13	356.95
440.50	359.28
440.87	361.11
441.24	363.08
441.61	365.24
441.98	366.66
442.35	368.51
442.72	370.40
443.09	372.17
443.46	373.17
443.83	373.79
444.20	374.32
444.57	375.13
444.94	375.43
445.31	375.77
445.68	376.08
446.05	376.21
446.42	375.88
446.79	375.43
447.16	374.92
447.53	374.69
447.90	373.53
448.27	372.33
448.64	370.78
449.01	369.62
449.37	367.65
449.74	365.79
450.11	363.54
450.48	361.09
450.85	358.59
451.22	356.46
451.59	354.44
451.96	352.48
452.33	349.88
452.70	347.51
453.07	344.68
453.43	341.81
453.80	339.05
454.17	336.36
454.54	333.85
454.91	331.13
455.28	328.40
455.65	325.98
456.02	323.58
456.38	321.43
456.75	318.79
457.12	316.56
457.49	314.34
457.86	312.17
458.23	310.28
458.59	308.21
458.96	306.09
459.33	304.26
459.70	302.38
460.07	300.86
460.43	299.16
460.80	297.56
461.17	296.10
461.54	294.57
461.91	293.14
462.27	291.72
462.64	290.49
463.01	289.16
463.38	287.85
463.74	286.50
464.11	285.32
464.48	284.32
464.85	283.19
465.21	282.33
465.58	281.41
465.95	280.32
466.32	279.40
466.68	278.52
467.05	277.60
467.42	276.74
467.78	275.86
468.15	274.98
468.52	274.32
468.88	273.47
469.25	272.71
469.62	272.11
469.98	271.44
470.35	270.84
470.72	270.22
471.08	269.56
471.45	269.01
471.82	268.47
472.18	267.88
472.55	267.46
472.92	266.93
473.28	266.47
473.65	266.03
474.02	265.61
474.38	265.21
474.75	264.87
475.11	264.47
475.48	264.21
475.85	264.00
476.21	263.76
476.58	263.60
476.94	263.47
477.31	263.29
477.67	263.09
478.04	262.97
478.41	262.94
478.77	262.97
479.14	262.89
479.50	262.91
479.87	262.94
480.23	263.00
480.60	263.10
480.96	263.18
481.33	263.39
481.69	263.61
482.06	263.81
482.42	264.05
482.79	264.39
483.15	264.69
483.52	265.06
483.88	265.41
484.25	265.82
484.61	266.25
484.98	266.70
485.34	267.28
485.71	267.87
486.07	268.48
486.44	269.04
486.80	269.75
487.17	270.48
487.53	271.29
487.90	272.19
488.26	273.15
488.62	274.10
488.99	275.07
489.35	276.13
489.72	277.28
490.08	278.46
490.44	279.69
490.81	281.04
491.17	282.39
491.54	283.88
491.90	285.40
492.26	287.05
492.63	288.83
492.99	290.61
493.36	292.48
493.72	294.50
494.08	296.60
494.45	298.85
494.81	301.21
495.17	303.64
495.54	306.19
495.90	308.83
496.26	311.65
496.63	314.59
496.99	317.68
497.35	320.97
497.72	324.34
498.08	327.87
498.44	331.57
498.80	335.45
499.17	339.46
499.53	343.66
499.89	348.02
500.26	352.51
500.62	357.19
500.98	362.16
501.34	367.26
501.71	372.60
502.07	378.05
502.43	383.68
502.79	389.53
503.16	395.59
503.52	401.88
503.88	408.37
504.24	415.04
504.60	421.98
504.97	429.02
505.33	436.37
505.69	444.06
506.05	451.81
506.41	459.70
506.78	467.90
507.14	476.34
507.50	485.06
507.86	494.09
508.22	503.23
508.59	512.37
508.95	521.95
509.31	531.78
509.67	541.85
510.03	552.12
510.39	562.66
510.75	573.47
511.12	584.38
511.48	595.61
511.84	607.03
512.20	618.50
512.56	630.51
512.92	642.72
513.28	655.06
513.64	667.59
514.00	680.32
514.37	693.21
514.73	706.28
515.09	719.34
515.45	732.59
515.81	746.27
516.17	760.28
516.53	774.35
516.89	788.56
517.25	802.73
517.61	817.15
517.97	831.58
518.33	845.92
518.69	860.65
519.05	875.62
519.41	890.82
519.77	906.40
520.13	921.82
520.49	937.16
520.85	952.58
521.21	968.28
521.57	984.49
521.93	1000.32
522.29	1016.67
522.65	1032.86
523.01	1049.17
523.37	1065.02
523.73	1081.25
524.09	1097.33
524.45	1113.51
524.81	1130.27
525.17	1147.12
525.53	1164.06
525.89	1180.96
526.25	1197.84
526.61	1214.24
526.97	1230.94
527.33	1247.45
527.68	1264.03
528.04	1280.44
528.40	1297.09
528.76	1314.21
529.12	1330.79
529.48	1347.59
529.84	1363.60
530.20	1380.27
530.56	1397.25
530.91	1414.74
531.27	1431.56
531.63	1448.05
531.99	1464.64
532.35	1480.49
532.71	1496.38
533.07	1512.56
533.42	1528.47
533.78	1544.46
534.14	1560.69
534.50	1576.07
534.86	1591.97
535.21	1607.09
535.57	1623.04
535.93	1638.44
536.29	1653.23
536.65	1668.24
537.00	1682.94
537.36	1698.25
537.72	1712.75
538.08	1727.10
538.44	1740.94
538.79	1754.68
539.15	1768.33
539.51	1782.12
539.87	1796.41
540.22	1810.16
540.58	1823.97
540.94	1837.32
541.29	1850.28
541.65	1863.04
542.01	1876.21
542.37	1888.34
542.72	1900.77
543.08	1912.56
543.44	1924.98
543.79	1936.09
544.15	1947.07
544.51	1958.79
544.87	1969.64
545.22	1980.46
545.58	1990.61
545.94	2000.40
546.29	2010.36
546.65	2020.26
547.01	2029.59
547.36	2038.40
547.72	2046.74
548.07	2054.49
548.43	2062.61
548.79	2070.62
549.14	2078.14
549.50	2085.32
549.86	2093.04
550.21	2100.28
550.57	2107.34
550.92	2113.86
551.28	2120.99
551.64	2128.09
551.99	2134.56
552.35	2140.86
552.70	2147.05
553.06	2152.99
553.41	2159.32
553.77	2165.39
554.13	2171.54
554.48	2177.61
554.84	2182.90
555.19	2188.30
555.55	2193.45
555.90	2197.83
556.26	2202.65
556.61	2207.38
556.97	2211.90
557.32	2216.09
557.68	2220.35
558.03	2224.63
558.39	2228.38
558.74	2232.89
559.10	2236.92
559.45	2240.54
559.81	2244.92
560.16	2248.62
560.52	2251.92
560.87	2255.38
561.23	2257.89
561.58	2260.76
561.94	2263.23
562.29	2265.62
562.64	2268.19
563.00	2270.83
563.35	2274.33
563.71	2277.43
564.06	2280.56
564.42	2283.31
564.77	2285.80
565.12	2288.10
565.48	2290.14
565.83	2291.96
566.19	2293.18
566.54	2294.06
566.89	2295.12
567.25	2295.56
567.60	2296.90
567.96	2298.68
568.31	2299.30
568.66	2300.36
569.02	2300.95
569.37	2301.34
569.72	2302.27
570.08	2302.34
570.43	2302.33
570.78	2301.84
571.14	2300.40
571.49	2299.14
571.84	2298.88
572.20	2297.61
572.55	2296.60
572.90	2295.07
573.26	2293.74
573.61	2292.24
573.96	2290.39
574.31	2287.50
574.67	2284.48
575.02	2280.90
575.37	2277.40
575.72	2273.64
576.08	2270.41
576.43	2266.98
576.78	2263.14
577.13	2259.91
577.49	2256.93
577.84	2253.40
578.19	2249.63
578.54	2246.03
578.90	2241.81
579.25	2236.17
579.60	2231.23
579.95	2226.04
580.30	2220.91
580.66	2215.81
581.01	2210.78
581.36	2205.72
581.71	2201.56
582.06	2197.08
582.42	2192.60
582.77	2187.41
583.12	2182.92
583.47	2178.07
583.82	2173.16
584.17	2168.14
584.53	2162.61
584.88	2156.95
585.23	2151.13
585.58	2145.64
585.93	2140.01
586.28	2135.21
586.63	2130.17
586.98	2125.21
587.34	2120.50
587.69	2115.66
588.04	2110.11
588.39	2104.43
588.74	2098.12
589.09	2091.95
589.44	2085.21
589.79	2079.24
590.14	2073.64
590.49	2067.09
590.84	2060.73
591.19	2054.59
591.54	2048.02
591.89	2040.61
592.25	2033.85
592.60	2026.69
592.95	2019.11
593.30	2011.80
593.65	2004.14
594.00	1997.16
594.35	1989.91
594.70	1981.90
595.05	1974.52
595.40	1967.41
595.75	1959.87
596.10	1953.56
596.45	1946.70
596.80	1940.54
597.15	1933.81
597.50	1926.61
597.85	1920.12
598.19	1913.45
598.54	1906.52
598.89	1899.91
599.24	1894.06
599.59	1887.31
599.94	1881.06
600.29	1874.87
600.64	1868.19
600.99	1860.75
601.34	1853.79
601.69	1846.87
602.04	1840.02
602.39	1832.78
602.74	1825.91
603.08	1819.15
603.43	1812.44
603.78	1805.14
604.13	1797.93
604.48	1790.54
604.83	1783.73
605.18	1776.80
605.53	1768.71
605.87	1760.51
606.22	1753.33
606.57	1745.39
606.92	1738.09
607.27	1730.89
607.62	1723.94
607.96	1716.73
608.31	1710.06
608.66	1702.53
609.01	1694.94
609.36	1687.32
609.70	1679.25
610.05	1671.21
610.40	1663.65
610.75	1655.22
611.10	1647.60
611.44	1639.12
611.79	1631.25
612.14	1622.48
612.49	1613.26
612.83	1605.07
613.18	1597.01
613.53	1588.84
613.88	1580.36
614.22	1572.05
614.57	1563.54
614.92	1555.46
615.27	1547.91
615.61	1539.56
615.96	1531.52
616.31	1523.82
616.65	1516.48
617.00	1508.96
617.35	1501.38
617.70	1492.91
618.04	1484.40
618.39	1476.19
618.74	1468.59
619.08	1460.31
619.43	1452.77
619.78	1445.94
620.12	1438.65
620.47	1431.01
620.82	1422.77
621.16	1415.43
621.51	1407.84
621.85	1400.21
622.20	1391.65
622.55	1383.32
622.89	1375.44
623.24	1367.84
623.59	1360.46
623.93	1352.91
624.28	1345.72
624.62	1338.09
624.97	1331.08
625.32	1324.48
625.66	1317.42
626.01	1310.31
626.35	1302.84
626.70	1295.11
627.04	1287.26
627.39	1279.50
627.73	1272.24
628.08	1265.38
628.43	1258.00
628.77	1250.64
629.12	1243.07
629.46	1236.02
629.81	1228.60
630.15	1221.41
630.50	1214.02
630.84	1205.84
631.19	1198.04
631.53	1190.53
631.88	1183.08
632.22	1175.41
632.57	1168.09
632.91	1160.58
633.26	1153.06
633.60	1145.62
633.95	1138.56
634.29	1131.64
634.64	1124.94
634.98	1117.56
635.32	1110.44
635.67	1103.88
636.01	1097.24
636.36	1090.43
636.70	1083.85
637.05	1077.33
637.39	1070.88
637.73	1064.42
638.08	1058.56
638.42	1052.52
638.77	1046.03
639.11	1039.41
639.45	1032.96
639.80	1026.21
640.14	1019.80
640.49	1013.31
640.83	1007.07
641.17	1000.68
641.52	994.17
641.86	987.70
642.20	981.84
642.55	975.50
642.89	968.99
643.23	962.45
643.58	956.63
643.92	950.44
644.26	944.31
644.61	938.32
644.95	932.10
645.29	925.46
645.64	918.72
645.98	912.40
646.32	906.59
646.66	900.46
647.01	894.67
647.35	888.87
647.69	883.14
648.04	877.61
648.38	871.93
648.72	865.99
649.06	859.94
649.41	854.02
649.75	848.00
650.09	842.00
650.43	836.22
650.78	830.04
651.12	824.10
651.46	818.38
651.80	812.50
652.14	807.16
652.49	801.77
652.83	796.59
653.17	790.86
653.51	785.10
653.85	779.82
654.20	774.25
654.54	768.31
654.88	762.52
655.22	756.59
655.56	750.86
655.90	745.45
656.25	740.23
656.59	734.91
656.93	729.85
657.27	724.75
657.61	719.31
657.95	714.39
658.29	709.22
658.64	703.98
658.98	698.78
659.32	693.35
659.66	688.12
660.00	682.81
660.34	677.89
660.68	672.91
661.02	667.82
661.36	663.08
661.70	658.58
662.05	654.16
662.39	649.85
662.73	645.43
663.07	641.04
663.41	636.63
663.75	632.16
664.09	627.62
664.43	623.18
664.77	619.05
665.11	614.67
665.45	610.64
665.79	606.59
666.13	602.47
666.47	598.36
666.81	594.23
667.15	590.08
667.49	586.19
667.83	582.43
668.17	578.54
668.51	574.38
668.85	570.34
669.19	566.56
669.53	562.76
669.87	558.83
670.21	555.14
670.55	551.47
670.89	548.00
671.23	544.58
671.57	541.08
671.91	537.56
672.25	534.08
672.58	530.52
672.92	527.10
673.26	523.98
673.60	520.81
673.94	517.66
674.28	514.78
674.62	511.84
674.96	508.67
675.30	505.69
675.64	502.84
675.97	500.09
676.31	497.18
676.65	494.17
676.99	491.55
677.33	488.72
677.67	485.94
678.01	482.96
678.34	479.98
678.68	477.09
679.02	474.29
679.36	471.54
679.70	468.83
680.04	466.02
680.37	463.12
680.71	460.36
681.05	457.79
681.39	455.07
681.73	452.41
682.06	449.85
682.40	447.35
682.74	444.79
683.08	442.25
683.42	439.68
683.75	437.22
684.09	434.63
684.43	432.16
684.77	429.70
685.10	427.30
685.44	424.95
685.78	422.73
686.12	420.49
686.45	418.20
686.79	415.89
687.13	413.72
687.46	411.57
687.80	409.44
688.14	407.19
688.48	405.14
688.81	402.89
689.15	400.78
689.49	398.66
689.82	396.60
690.16	394.51
690.50	392.58
690.83	390.64
691.17	388.66
691.51	386.74
691.84	384.86
692.18	382.94
692.52	380.99
692.85	379.01
693.19	377.10
693.52	375.28
693.86	373.46
694.20	371.70
694.53	369.89
694.87	368.02
695.21	366.27
695.54	364.42
695.88	362.72
696.21	360.99
696.55	359.28
696.88	357.62
697.22	356.00
697.56	354.32
697.89	352.66
698.23	351.03
698.56	349.37
698.90	347.78
699.23	346.11
699.57	344.55
699.90	343.02
700.24	341.52
700.58	339.99
700.91	338.51
701.25	337.03
701.58	335.66
701.92	334.31
702.25	332.96
702.59	331.59
702.92	330.23
703.26	328.94
703.59	327.65
703.93	326.45
704.26	325.19
704.60	323.95
704.93	322.65
705.26	321.44
705.60	320.32
705.93	319.18
706.27	318.16
706.60	317.12
706.94	316.02
707.27	314.85
707.61	313.77
707.94	312.74
708.27	311.70
708.61	310.64
708.94	309.60
709.28	308.61
709.61	307.68
709.94	306.77
710.28	305.76
710.61	304.81
710.95	303.75
711.28	302.85
711.61	301.87
711.95	300.98
712.28	300.04
712.61	299.08
712.95	298.15
713.28	297.33
713.61	296.47
713.95	295.62
714.28	294.82
714.61	293.98
714.95	293.14
715.28	292.27
715.61	291.42
715.95	290.52
716.28	289.67
716.61	288.81
716.95	288.00
717.28	287.28
717.61	286.54
717.94	285.80
718.28	284.98
718.61	284.25
718.94	283.56
719.27	282.91
719.61	282.24
719.94	281.58
720.27	280.85
720.60	280.15
720.94	279.50
721.27	278.90
721.60	278.34
721.93	277.72
722.27	277.16
722.60	276.56
722.93	276.03
723.26	275.49
723.59	274.93
723.93	274.37
724.26	273.79
724.59	273.22
724.92	272.69
725.25	272.20
725.59	271.68
725.92	271.17
726.25	270.64
726.58	270.12
726.91	269.61
727.24	269.11
727.57	268.64
727.91	268.15
728.24	267.66
728.57	267.15
728.90	266.74
729.23	266.24
729.56	265.86
729.89	265.38
730.22	264.92
730.55	264.48
730.89	264.03
731.22	263.61
731.55	263.14
731.88	262.70
732.21	262.29
732.54	261.88
732.87	261.46
733.20	261.06
733.53	260.70
733.86	260.32
734.19	259.92
734.52	259.51
734.85	259.17
735.18	258.76
735.51	258.37
735.84	257.96
736.17	257.63
736.50	257.22
736.83	257.00
737.16	256.65
737.49	256.32
737.82	255.94
738.15	255.59
738.48	255.29
738.81	254.96
739.14	254.61
739.47	254.28
739.80	253.96
740.13	253.63
740.46	253.30
740.79	253.00
741.12	252.66
741.45	252.34
741.78	251.98
742.11	251.69
742.44	251.38
742.77	251.12
743.10	250.77
743.43	250.45
743.75	250.09
744.08	249.95
744.41	249.67
744.74	249.44
745.07	249.15
745.40	248.87
745.73	248.64
746.06	248.37
746.39	248.12
746.71	247.85
747.04	247.58
747.37	247.31
747.70	247.04
748.03	246.80
748.36	246.61
748.68	246.41
749.01	246.14
749.34	245.94
749.67	245.69
750.00	245.49
750.33	245.34
750.65	245.12
750.98	244.79
751.31	244.57
751.64	244.36
751.97	244.24
752.29	244.01
752.62	243.77
752.95	243.57
753.28	243.34
753.60	243.14
753.93	242.96
754.26	242.80
754.59	242.59
754.91	242.40
755.24	242.19
755.57	241.99
755.90	241.83
756.22	241.64
756.55	241.41
756.88	241.23
757.20	241.02
757.53	240.79
757.86	240.58
758.19	240.42
758.51	240.25
758.84	240.02
759.17	239.90
759.49	239.73
759.82	239.63
760.15	239.49
760.47	239.33
760.80	239.18
761.13	239.04
761.45	238.89
761.78	238.75
762.11	238.62
762.43	238.46
762.76	238.30
763.08	238.18
763.41	238.10
763.74	237.96
764.06	237.82
764.39	237.71
764.71	237.60
765.04	237.47
765.37	237.37
765.69	237.21
766.02	237.05
766.34	236.94
766.67	236.77
767.00	236.63
767.32	236.56
767.65	236.49
767.97	236.37
768.30	236.28
768.62	236.16
768.95	236.00
769.27	235.90
769.60	235.84
769.92	235.71
770.25	235.60
770.57	235.47
770.90	235.41
771.22	235.28
771.55	235.17
771.87	235.06
772.20	234.91
772.52	234.93
772.85	234.97
773.17	234.85
773.50	234.78
773.82	234.70
774.15	234.56
774.47	234.39
774.80	234.30
775.12	234.19
775.45	234.11
775.77	234.10
776.09	234.00
776.42	233.93
776.74	233.88
777.07	233.77
777.39	233.71
777.72	233.61
778.04	233.59
778.36	233.51
778.69	233.44
779.01	233.40
779.33	233.24
779.66	233.06
779.98	232.97
780.31	232.87
780.63	232.86
780.95	232.83
781.28	232.80
781.60	232.72
781.92	232.66
782.25	232.56
782.57	232.46
782.89	232.39
783.22	232.28
783.54	232.21
783.86	232.16
784.19	232.12
784.51	232.08
784.83	231.97
785.16	231.95
785.48	231.93
785.80	231.90
786.12	231.81
786.45	231.76
786.77	231.76
787.09	231.69
787.42	231.59
787.74	231.53
788.06	231.48
788.38	231.44
788.71	231.40
789.03	231.39
789.35	231.36
789.67	231.33
789.99	231.34
790.32	231.24
790.64	231.19
790.96	231.22
791.28	231.11
791.61	231.09
791.93	231.05
792.25	230.98
792.57	230.97
792.89	230.93
793.21	230.87
793.54	230.80
793.86	230.76
794.18	230.72
794.50	230.66
794.82	230.61
795.14	230.58
795.47	230.56
795.79	230.47
796.11	230.40
796.43	230.36
796.75	230.30
797.07	230.29
797.39	230.24
797.71	230.11
798.04	230.11
798.36	230.06
798.68	230.01
799.00	230.01
799.32	229.95
799.64	229.93
799.96	229.91
800.28	229.92
800.60	229.88
800.92	229.85
801.24	229.84
801.56	229.84
801.89	229.80
802.21	229.78
802.53	229.77
802.85	229.80
803.17	229.81
803.49	229.73
803.81	229.67
804.13	229.65
804.45	229.60
804.77	229.60
805.09	229.55
805.41	229.51
805.73	229.41
806.05	229.38
806.37	229.37
806.69	229.34
807.01	229.27
807.33	229.30
807.65	229.28
807.97	229.31
808.28	229.23
808.60	229.21
808.92	229.17
809.24	229.20
809.56	229.15
809.88	229.08
810.20	229.09
810.52	229.12
810.84	229.08
811.16	229.06
811.48	229.00
811.80	229.01
812.12	228.97
812.43	228.96
812.75	228.90
813.07	228.86
813.39	228.87
813.71	228.87
814.03	228.81
814.35	228.77
814.67	228.72
814.98	228.69
815.30	228.67
815.62	228.66
815.94	228.57
816.26	228.60
816.58	228.60
816.89	228.58
817.21	228.56
817.53	228.56
817.85	228.57
818.17	228.59
818.48	228.55
818.80	228.60
819.12	228.55
819.44	228.54
819.76	228.52
820.07	228.50
820.39	228.45
820.71	228.41
821.03	228.40
821.34	228.36
821.66	228.39
821.98	228.39
822.30	228.35
822.61	228.40
822.93	228.35
823.25	228.31
823.57	228.31
823.88	228.30
824.20	228.26
824.52	228.24
824.83	228.24
825.15	228.21
825.47	228.19
825.79	228.22
826.10	228.20
826.42	228.17
826.74	228.16
827.05	228.15
827.37	228.16
827.69	228.14
828.00	228.12
828.32	228.10
828.64	228.05
828.95	228.08
829.27	228.08
829.58	228.08
829.90	228.10
830.22	228.12
830.53	228.08
830.85	228.06
831.17	228.04
831.48	228.01
831.80	227.98
832.11	227.95
832.43	227.93
832.75	227.95
833.06	228.02
833.38	227.99
833.69	227.99
834.01	228.00
834.32	228.00
834.64	227.99
834.96	227.99
835.27	228.00
835.59	227.94
835.90	227.92
836.22	227.89
836.53	227.84
836.85	227.81
837.16	227.92
837.48	227.93
837.79	227.98
838.11	227.97
838.42	227.98
838.74	227.97
839.05	227.97
839.37	227.93
839.68	227.85
840.00	227.84
840.31	227.85
840.63	227.83
840.94	227.81
841.26	227.83
841.57	227.80
841.88	227.81
842.20	227.83
842.51	227.81
842.83	227.79
843.14	227.87
843.46	227.86
843.77	227.78
844.08	227.77
844.40	227.74
844.71	227.72
845.03	227.72
845.34	227.71
845.65	227.70
845.97	227.72
846.28	227.72
846.60	227.75
846.91	227.73
847.22	227.74
847.54	227.77
847.85	227.75
848.16	227.73
848.48	227.72
848.79	227.73
849.10	227.73
849.42	227.72
849.73	227.63
850.04	227.65
850.36	227.58
850.67	227.62
850.98	227.61
851.30	227.61
851.61	227.59
851.92	227.60
852.23	227.60
852.55	227.63
852.86	227.62
853.17	227.60
853.49	227.59
853.80	227.56
854.11	227.56
854.42	227.59
854.74	227.58
855.05	227.55
855.36	227.50
855.67	227.48
855.99	227.49
856.30	227.61
856.61	227.58
856.92	227.60
857.23	227.57
857.55	227.55
857.86	227.53
858.17	227.55
858.48	227.51
858.79	227.49
859.11	227.44
859.42	227.44
859.73	227.42
860.04	227.41
860.35	227.38
860.66	227.38
860.98	227.32
861.29	227.30
861.60	227.30
861.91	227.32
862.22	227.30
862.53	227.26
862.84	227.13
863.16	227.15
863.47	227.13
863.78	227.09
864.09	227.06
864.40	227.05
864.71	227.03
865.02	227.02
865.33	226.97
865.64	226.96
865.95	226.92
866.27	226.96
866.58	226.94
866.89	226.94
867.20	226.92
867.51	226.93
867.82	226.91
868.13	226.92
868.44	226.89
868.75	226.90
869.06	226.94
869.37	226.95
869.68	226.87
869.99	226.90
870.30	226.92
870.61	226.97
870.92	226.97
871.23	227.00
871.54	227.00
871.85	227.03
872.16	227.03
872.47	227.02
872.78	226.98
873.09	226.99
873.40	227.00
873.71	226.97
874.02	226.95
874.33	226.95
874.64	226.91
874.95	226.97
875.26	226.95
875.56	226.94
875.87	226.92
876.18	226.96
876.49	227.04
876.80	227.00
877.11	226.97
877.42	226.99
877.73	226.98
878.04	226.96
878.35	226.97
878.66	226.98
878.96	227.01
879.27	226.98
879.58	226.95
879.89	226.95
880.20	226.97
880.51	227.01
880.82	226.99
881.12	227.01
881.43	226.93
881.74	226.92
882.05	226.89
882.36	226.91
882.67	226.92
882.97	226.81
883.28	226.83
883.59	226.84
883.90	226.86
884.21	226.88
884.51	226.90
884.82	226.90
885.13	226.91
885.44	226.91
885.74	226.96
886.05	226.99
886.36	227.00
886.67	226.97
886.98	227.03
887.28	227.09
887.59	227.12
887.90	227.16
888.20	227.16
888.51	227.17
888.82	227.14
889.13	227.13
889.43	227.22
889.74	227.20
890.05	227.20
890.35	227.18
890.66	227.18
890.97	227.18
891.28	227.15
891.58	227.15
891.89	227.16
892.20	227.13
892.50	227.11
892.81	227.10
893.12	227.13
893.42	227.05
893.73	227.05
894.04	227.05
894.34	227.09
894.65	227.09
894.95	227.08
895.26	227.08
895.57	227.13
895.87	227.04
896.18	227.09
896.48	227.06
896.79	227.05
897.10	227.02
897.40	227.05
897.71	227.06
898.01	227.06
898.32	227.03
898.63	227.03
898.93	227.02
899.24	227.04
899.54	227.02
899.85	227.03
900.15	227.00
900.46	226.98
900.76	226.96
901.07	226.96
901.38	226.96
901.68	227.02
901.99	226.96
902.29	226.99
902.60	226.93
902.90	226.94
903.21	226.89
903.51	226.88
903.82	226.87
904.12	226.84
904.43	226.83
904.73	226.83
905.03	226.84
905.34	226.91
905.64	226.91
905.95	226.91
906.25	226.89
906.56	226.91
906.86	226.92
907.17	226.90
907.47	226.90
907.77	226.90
908.08	226.85
908.38	226.83
908.69	226.81
908.99	226.85
909.30	226.85
909.60	226.88
909.90	226.87
910.21	226.86
910.51	226.81
910.81	226.82
911.12	226.83
911.42	226.81
911.73	226.73
912.03	226.72
912.33	226.74
912.64	226.73
912.94	226.71
913.24	226.68
913.55	226.68
913.85	226.66
914.15	226.68
914.46	226.68
914.76	226.67
915.06	226.67
915.37	226.63
915.67	226.63
915.97	226.63
916.27	226.62
916.58	226.62
916.88	226.64
917.18	226.60
917.49	226.68
917.79	226.72
918.09	226.73
918.39	226.74
918.70	226.74
919.00	226.76
919.30	226.81
919.60	226.79
919.91	226.80
920.21	226.82
920.51	226.79
920.81	226.78
921.12	226.80
921.42	226.81
921.72	226.84
922.02	226.86
922.32	226.88
922.63	226.88
922.93	226.96
923.23	227.01
923.53	227.03
923.83	226.97
924.13	226.94
924.44	226.98
924.74	227.01
925.04	227.07
925.34	227.05
925.64	227.02
925.94	227.02
926.24	227.07
926.55	227.03
926.85	227.09
927.15	227.11
927.45	227.14
927.75	227.12
928.05	227.14
928.35	227.14
928.65	227.15
928.95	227.20
929.26	227.15
929.56	227.16
929.86	227.20
930.16	227.19
930.46	227.23
930.76	227.22
931.06	227.13
931.36	227.07
931.66	227.10
931.96	227.11
932.26	227.13
932.56	227.11
932.86	227.12
933.16	227.12
933.46	227.10
933.76	227.06
934.06	227.10
934.36	227.13
934.66	227.12
934.96	227.11
935.26	227.06
935.56	227.09
935.86	227.07
936.16	227.04
936.46	227.01
936.76	226.99
937.06	226.97
937.36	227.00
937.66	227.01
937.96	226.95
938.26	226.94
938.56	226.95
938.86	226.95
939.16	227.00
939.46	226.99
939.76	226.97
940.06	226.99
940.35	226.95
940.65	226.91
940.95	226.92
941.25	226.91
941.55	226.92
941.85	226.89
942.15	226.89
942.45	226.91
942.75	226.91
943.04	226.90
943.34	226.90
943.64	226.88
943.94	226.85
944.24	226.88
944.54	226.90
944.84	226.86
945.13	226.84
945.43	226.81
945.73	226.80
946.03	226.80
946.33	226.77
946.62	226.75
946.92	226.72
947.22	226.70
947.52	226.71
947.82	226.72
948.11	226.70
948.41	226.68
948.71	226.68
949.01	226.68
949.31	226.68
949.60	226.68
949.90	226.70
950.20	226.71
950.50	226.72
950.79	226.68
951.09	226.68
951.39	226.69
951.69	226.68
951.98	226.67
952.28	226.65
952.58	226.66
952.87	226.65
953.17	226.68
953.47	226.69
953.76	226.65
954.06	226.61
954.36	226.59
954.66	226.60
954.95	226.59
955.25	226.59
955.55	226.60
955.84	226.59
956.14	226.58
956.44	226.59
956.73	226.58
957.03	226.58
957.32	226.61
957.62	226.55
957.92	226.59
958.21	226.59
958.51	226.73
958.81	226.75
959.10	226.77
959.40	226.77
959.69	226.80
959.99	226.83
960.29	226.83
960.58	226.86
960.88	226.89
961.17	226.90
961.47	226.94
961.76	226.94
962.06	226.98
962.36	226.98
962.65	226.99
962.95	226.98
963.24	226.99
963.54	226.98
963.83	227.02
964.13	227.00
964.42	226.97
964.72	226.91
965.01	226.92
965.31	226.90
965.60	226.90
965.90	226.90
966.19	226.89
966.49	226.91
966.78	226.91
967.08	226.92
967.37	226.90
967.67	226.89
967.96	226.89
968.26	226.85
968.55	226.85
968.85	226.84
969.14	226.83
969.43	226.83
969.73	226.85
970.02	226.82
970.32	226.86
970.61	226.85
970.91	226.84
971.20	226.78
971.49	226.80
971.79	226.80
972.08	226.80
972.38	226.82
972.67	226.80
972.96	226.80
973.26	226.78
973.55	226.83
973.85	226.81
974.14	226.82
974.43	226.83
974.73	226.85
975.02	226.83
975.31	226.86
975.61	226.88
975.90	226.86
976.19	226.85
976.49	226.85
976.78	226.87
977.07	226.83
977.37	226.87
977.66	226.89
977.95	226.86
978.24	226.86
978.54	226.87
978.83	226.88
979.12	226.87
979.42	226.85
979.71	226.81
980.00	226.78
980.29	226.76
980.59	226.73
980.88	226.72
981.17	226.73
981.46	226.73
981.76	226.72
982.05	226.74
982.34	226.76
982.63	226.72
982.93	226.71
983.22	226.74
983.51	226.72
983.80	226.74
984.09	226.78
984.39	226.76
984.68	226.72
984.97	226.70
985.26	226.70
985.55	226.71
985.85	226.69
986.14	226.77
986.43	226.80
986.72	226.81
987.01	226.81
987.30	226.80
987.59	226.79
987.89	226.77
988.18	226.78
988.47	226.77
988.76	226.79
989.05	226.81
989.34	226.79
989.63	226.82
989.92	226.79
990.22	226.73
990.51	226.74
990.80	226.76
991.09	226.74
991.38	226.76
991.67	226.74
991.96	226.76
992.25	226.71
992.54	226.71
992.83	226.73
993.12	226.73
993.41	226.76
993.70	226.79
993.99	226.81
994.28	226.76
994.58	226.75
994.87	226.73
995.16	226.74
995.45	226.74
995.74	226.71
996.03	226.73
996.32	226.76
996.61	226.80
996.90	226.80
997.19	226.80
997.48	226.83
997.77	226.82
998.06	226.82
998.34	226.84
998.63	226.81
998.92	226.83
999.21	226.81
999.50	226.78
999.79	226.80
1000.08	226.79
1000.37	226.81
1000.66	226.84
1000.95	226.88
1001.24	226.89
1001.53	226.91
1001.82	226.90
1002.11	226.89
1002.40	226.91
1002.68	226.88
1002.97	226.93
1003.26	226.92
1003.55	226.86
1003.84	226.88
1004.13	226.91
1004.42	226.90
1004.71	226.89
1004.99	226.83
1005.28	226.85
1005.57	226.86
1005.86	226.81
1006.15	226.80
1006.44	226.80
1006.72	226.79
1007.01	226.75
1007.30	226.71
1007.59	226.70
1007.88	226.69
1008.17	226.69
1008.45	226.70
1008.74	226.68
1009.03	226.61
1009.32	226.61
1009.60	226.64
1009.89	226.66
1010.18	226.61
1010.47	226.60
1010.76	226.61
1011.04	226.65
1011.33	226.65
1011.62	226.66
1011.91	226.68
1012.19	226.68
1012.48	226.69
1012.77	226.65
1013.05	226.71
1013.34	226.69
1013.63	226.68
1013.92	226.70
1014.20	226.67
1014.49	226.69
1014.78	226.71
1015.06	226.70
1015.35	226.71
1015.64	226.71
1015.92	226.71
1016.21	226.73
1016.50	226.73
1016.78	226.74
1017.07	226.74
1017.36	226.72
1017.64	226.69
1017.93	226.67
1018.22	226.65
1018.50	226.65
1018.79	226.71
1019.08	226.65
1019.36	226.67
1019.65	226.65
1019.93	226.64
1020.22	226.66
1020.51	226.68
1020.79	226.70
1021.08	226.21
1021.36	226.49
1021.65	227.27
1021.94	226.26
1022.22	226.67
1022.51	226.40
1022.79	226.23
1023.08	226.88
1023.36	227.94
1023.65	227.00
>>>>>End Processed Spectral Data<<<<<
