SpectraSuite Data File
++++++++++++++++++++++++++++++++++++
Date: Fri Feb 01 15:38:03 EST 2013
User: group
Dark Spectrum Present: No
Reference Spectrum Present: No
Number of Sampled Component Spectra: 1
Spectrometers: USB2E7196
Integration Time (usec): 35000 (USB2E7196)
Spectra Averaged: 100 (USB2E7196)
Boxcar Smoothing: 10 (USB2E7196)
Correct for Electrical Dark: No (USB2E7196)
Strobe/Lamp Enabled: No (USB2E7196)
Correct for Detector Non-linearity: No (USB2E7196)
Correct for Stray Light: No (USB2E7196)
Number of Pixels in Processed Spectrum: 2048
>>>>>Begin Processed Spectral Data<<<<<
339.09	0.00
339.48	215.29
339.86	216.21
340.24	217.09
340.63	219.17
341.01	222.10
341.39	221.85
341.78	222.39
342.16	224.45
342.54	225.56
342.93	213.16
343.31	223.94
343.69	224.46
344.07	224.92
344.46	225.36
344.84	225.73
345.22	225.94
345.60	226.16
345.99	226.37
346.37	226.48
346.75	226.55
347.13	226.62
347.52	226.68
347.90	226.74
348.28	226.78
348.66	226.81
349.05	226.78
349.43	226.83
349.81	226.87
350.19	226.91
350.57	226.97
350.96	227.02
351.34	227.11
351.72	227.18
352.10	227.29
352.48	227.37
352.87	227.41
353.25	227.49
353.63	227.56
354.01	227.64
354.39	227.75
354.77	227.81
355.15	227.91
355.54	227.98
355.92	228.05
356.30	228.12
356.68	228.26
357.06	228.33
357.44	228.39
357.82	228.49
358.20	228.55
358.58	228.60
358.97	228.69
359.35	228.75
359.73	228.80
360.11	228.86
360.49	228.94
360.87	229.01
361.25	229.05
361.63	229.12
362.01	229.15
362.39	229.16
362.77	229.17
363.15	229.17
363.53	229.18
363.91	229.20
364.29	229.24
364.67	229.15
365.05	229.16
365.43	229.19
365.81	229.22
366.19	229.27
366.57	229.29
366.95	229.27
367.33	229.22
367.71	229.25
368.09	229.22
368.47	229.17
368.85	229.14
369.23	229.17
369.61	229.13
369.99	229.13
370.37	229.12
370.75	229.15
371.13	229.11
371.51	229.07
371.89	229.05
372.27	229.01
372.65	229.02
373.03	228.97
373.41	228.95
373.78	228.86
374.16	228.76
374.54	228.67
374.92	228.62
375.30	228.60
375.68	228.50
376.06	228.49
376.44	228.45
376.82	228.39
377.19	228.30
377.57	228.23
377.95	228.14
378.33	228.07
378.71	227.94
379.09	227.88
379.47	227.82
379.84	227.74
380.22	227.67
380.60	227.52
380.98	227.47
381.36	227.36
381.73	227.29
382.11	227.22
382.49	227.23
382.87	227.15
383.25	227.10
383.62	227.17
384.00	227.08
384.38	227.01
384.76	226.99
385.13	226.97
385.51	226.94
385.89	226.87
386.27	226.81
386.64	226.79
387.02	226.74
387.40	226.68
387.78	226.65
388.15	226.62
388.53	226.61
388.91	226.54
389.29	226.54
389.66	226.50
390.04	226.47
390.42	226.41
390.79	226.42
391.17	226.40
391.55	226.24
391.92	226.25
392.30	226.25
392.68	226.21
393.05	226.19
393.43	226.17
393.81	226.19
394.18	226.22
394.56	226.21
394.94	226.26
395.31	226.28
395.69	226.32
396.06	226.35
396.44	226.42
396.82	226.46
397.19	226.54
397.57	226.58
397.95	226.66
398.32	226.72
398.70	226.74
399.07	226.80
399.45	226.85
399.82	226.91
400.20	226.97
400.58	227.04
400.95	227.08
401.33	227.18
401.70	227.31
402.08	227.42
402.45	227.54
402.83	227.63
403.20	227.75
403.58	227.84
403.95	227.96
404.33	228.10
404.71	228.22
405.08	228.41
405.46	228.56
405.83	228.68
406.21	228.81
406.58	229.02
406.96	229.20
407.33	229.41
407.70	229.64
408.08	229.91
408.45	230.17
408.83	230.43
409.20	230.68
409.58	230.86
409.95	231.11
410.33	231.38
410.70	231.63
411.08	231.93
411.45	232.25
411.82	232.59
412.20	232.92
412.57	233.36
412.95	233.64
413.32	234.01
413.69	234.43
414.07	234.89
414.44	235.37
414.82	235.84
415.19	236.38
415.56	236.89
415.94	237.44
416.31	238.05
416.68	238.66
417.06	239.35
417.43	240.06
417.81	240.83
418.18	241.64
418.55	242.49
418.93	243.38
419.30	244.28
419.67	245.21
420.04	246.15
420.42	247.15
420.79	248.36
421.16	249.53
421.54	250.77
421.91	251.97
422.28	253.19
422.66	254.52
423.03	255.85
423.40	257.21
423.77	258.64
424.15	260.09
424.52	261.61
424.89	263.21
425.26	264.78
425.64	266.22
426.01	267.79
426.38	269.42
426.75	271.13
427.13	272.87
427.50	274.68
427.87	276.55
428.24	278.40
428.61	280.14
428.99	282.13
429.36	284.19
429.73	286.27
430.10	288.27
430.47	290.37
430.85	292.48
431.22	294.69
431.59	297.05
431.96	299.27
432.33	301.72
432.70	304.13
433.08	306.91
433.45	309.56
433.82	312.14
434.19	315.04
434.56	317.83
434.93	320.47
435.30	323.09
435.68	326.01
436.05	328.83
436.42	331.66
436.79	334.19
437.16	336.91
437.53	339.71
437.90	342.55
438.27	345.26
438.64	348.09
439.01	350.67
439.38	352.94
439.75	355.13
440.13	357.62
440.50	359.96
440.87	361.83
441.24	363.78
441.61	365.96
441.98	367.42
442.35	369.18
442.72	371.07
443.09	372.86
443.46	373.82
443.83	374.41
444.20	374.88
444.57	375.65
444.94	375.89
445.31	376.21
445.68	376.54
446.05	376.58
446.42	376.17
446.79	375.76
447.16	375.29
447.53	374.95
447.90	373.76
448.27	372.56
448.64	370.97
449.01	369.81
449.37	367.84
449.74	366.00
450.11	363.73
450.48	361.22
450.85	358.72
451.22	356.55
451.59	354.54
451.96	352.62
452.33	350.02
452.70	347.71
453.07	344.93
453.43	342.03
453.80	339.27
454.17	336.60
454.54	334.08
454.91	331.35
455.28	328.66
455.65	326.22
456.02	323.73
456.38	321.58
456.75	318.92
457.12	316.70
457.49	314.48
457.86	312.34
458.23	310.47
458.59	308.38
458.96	306.34
459.33	304.49
459.70	302.60
460.07	301.10
460.43	299.34
460.80	297.68
461.17	296.25
461.54	294.77
461.91	293.36
462.27	291.88
462.64	290.64
463.01	289.28
463.38	287.97
463.74	286.63
464.11	285.46
464.48	284.43
464.85	283.31
465.21	282.40
465.58	281.46
465.95	280.38
466.32	279.51
466.68	278.60
467.05	277.68
467.42	276.81
467.78	275.91
468.15	275.04
468.52	274.40
468.88	273.52
469.25	272.73
469.62	272.11
469.98	271.45
470.35	270.82
470.72	270.23
471.08	269.63
471.45	269.10
471.82	268.57
472.18	267.95
472.55	267.53
472.92	267.04
473.28	266.57
473.65	266.10
474.02	265.64
474.38	265.26
474.75	264.95
475.11	264.58
475.48	264.29
475.85	264.09
476.21	263.87
476.58	263.69
476.94	263.56
477.31	263.38
477.67	263.23
478.04	263.11
478.41	263.04
478.77	263.04
479.14	263.00
479.50	263.04
479.87	263.12
480.23	263.15
480.60	263.21
480.96	263.31
481.33	263.53
481.69	263.70
482.06	263.92
482.42	264.09
482.79	264.38
483.15	264.70
483.52	265.07
483.88	265.40
484.25	265.81
484.61	266.26
484.98	266.69
485.34	267.24
485.71	267.82
486.07	268.43
486.44	268.97
486.80	269.66
487.17	270.37
487.53	271.19
487.90	272.06
488.26	272.93
488.62	273.95
488.99	274.92
489.35	275.98
489.72	277.13
490.08	278.30
490.44	279.51
490.81	280.83
491.17	282.15
491.54	283.67
491.90	285.17
492.26	286.80
492.63	288.50
492.99	290.29
493.36	292.22
493.72	294.26
494.08	296.37
494.45	298.59
494.81	300.95
495.17	303.36
495.54	305.90
495.90	308.64
496.26	311.39
496.63	314.35
496.99	317.44
497.35	320.68
497.72	324.11
498.08	327.67
498.44	331.37
498.80	335.33
499.17	339.35
499.53	343.55
499.89	347.93
500.26	352.46
500.62	357.12
500.98	362.04
501.34	367.13
501.71	372.48
502.07	377.87
502.43	383.47
502.79	389.31
503.16	395.40
503.52	401.73
503.88	408.20
504.24	414.83
504.60	421.71
504.97	428.82
505.33	436.17
505.69	443.91
506.05	451.69
506.41	459.51
506.78	467.68
507.14	476.14
507.50	484.92
507.86	493.93
508.22	503.11
508.59	512.37
508.95	522.01
509.31	531.81
509.67	542.02
510.03	552.34
510.39	562.88
510.75	573.65
511.12	584.51
511.48	595.79
511.84	607.27
512.20	618.80
512.56	630.78
512.92	642.88
513.28	655.18
513.64	667.66
514.00	680.43
514.37	693.35
514.73	706.41
515.09	719.32
515.45	732.66
515.81	746.31
516.17	760.27
516.53	774.38
516.89	788.59
517.25	802.70
517.61	817.19
517.97	831.68
518.33	846.15
518.69	860.93
519.05	875.97
519.41	891.14
519.77	906.69
520.13	922.11
520.49	937.55
520.85	953.05
521.21	968.79
521.57	984.98
521.93	1000.75
522.29	1017.07
522.65	1033.39
523.01	1049.59
523.37	1065.66
523.73	1081.78
524.09	1097.87
524.45	1114.12
524.81	1130.87
525.17	1147.74
525.53	1164.61
525.89	1181.62
526.25	1198.41
526.61	1214.90
526.97	1231.60
527.33	1248.07
527.68	1264.72
528.04	1281.22
528.40	1297.73
528.76	1314.89
529.12	1331.56
529.48	1348.49
529.84	1364.60
530.20	1381.33
530.56	1398.48
530.91	1415.91
531.27	1432.64
531.63	1449.13
531.99	1465.86
532.35	1481.66
532.71	1497.50
533.07	1513.77
533.42	1529.50
533.78	1545.59
534.14	1561.84
534.50	1577.29
534.86	1593.20
535.21	1608.32
535.57	1624.23
535.93	1639.79
536.29	1654.47
536.65	1669.68
537.00	1684.41
537.36	1699.80
537.72	1714.30
538.08	1728.54
538.44	1742.35
538.79	1756.35
539.15	1770.04
539.51	1783.92
539.87	1798.51
540.22	1812.26
540.58	1826.18
540.94	1839.58
541.29	1852.57
541.65	1865.19
542.01	1878.45
542.37	1890.87
542.72	1903.40
543.08	1915.29
543.44	1927.73
543.79	1938.98
544.15	1949.96
544.51	1961.63
544.87	1972.63
545.22	1983.36
545.58	1993.87
545.94	2003.56
546.29	2013.42
546.65	2023.30
547.01	2032.32
547.36	2041.06
547.72	2049.52
548.07	2057.40
548.43	2065.75
548.79	2073.83
549.14	2081.24
549.50	2088.65
549.86	2096.33
550.21	2103.64
550.57	2110.77
550.92	2117.31
551.28	2124.36
551.64	2131.32
551.99	2137.91
552.35	2143.90
552.70	2150.17
553.06	2155.89
553.41	2162.21
553.77	2168.28
554.13	2174.22
554.48	2180.38
554.84	2185.83
555.19	2191.16
555.55	2196.04
555.90	2200.35
556.26	2205.22
556.61	2210.15
556.97	2214.28
557.32	2218.36
557.68	2222.49
558.03	2226.91
558.39	2230.67
558.74	2235.21
559.10	2238.95
559.45	2242.55
559.81	2247.01
560.16	2250.80
560.52	2254.01
560.87	2257.48
561.23	2260.04
561.58	2263.10
561.94	2265.56
562.29	2267.84
562.64	2270.50
563.00	2273.39
563.35	2276.93
563.71	2280.13
564.06	2283.24
564.42	2286.08
564.77	2288.45
565.12	2290.76
565.48	2292.52
565.83	2294.27
566.19	2295.68
566.54	2296.75
566.89	2297.94
567.25	2298.39
567.60	2299.77
567.96	2301.51
568.31	2302.37
568.66	2303.63
569.02	2304.12
569.37	2304.56
569.72	2305.36
570.08	2305.37
570.43	2305.24
570.78	2304.51
571.14	2302.81
571.49	2301.66
571.84	2301.37
572.20	2300.23
572.55	2299.12
572.90	2297.58
573.26	2296.18
573.61	2294.44
573.96	2292.62
574.31	2289.47
574.67	2286.46
575.02	2282.72
575.37	2279.37
575.72	2275.54
576.08	2272.15
576.43	2268.85
576.78	2265.09
577.13	2261.97
577.49	2258.95
577.84	2255.33
578.19	2251.55
578.54	2247.96
578.90	2243.41
579.25	2237.72
579.60	2232.77
579.95	2227.67
580.30	2222.67
580.66	2217.47
581.01	2212.59
581.36	2207.62
581.71	2203.36
582.06	2198.83
582.42	2194.32
582.77	2189.00
583.12	2184.39
583.47	2179.53
583.82	2174.41
584.17	2169.18
584.53	2163.46
584.88	2157.70
585.23	2152.02
585.58	2146.69
585.93	2141.14
586.28	2136.44
586.63	2131.47
586.98	2126.45
587.34	2121.87
587.69	2116.93
588.04	2111.62
588.39	2105.85
588.74	2099.35
589.09	2093.29
589.44	2086.47
589.79	2080.52
590.14	2074.94
590.49	2068.35
590.84	2062.01
591.19	2056.03
591.54	2049.45
591.89	2042.13
592.25	2035.36
592.60	2028.06
592.95	2020.23
593.30	2012.83
593.65	2005.08
594.00	1997.99
594.35	1990.70
594.70	1982.46
595.05	1975.11
595.40	1967.78
595.75	1960.19
596.10	1953.91
596.45	1946.98
596.80	1940.95
597.15	1934.21
597.50	1926.92
597.85	1920.55
598.19	1913.77
598.54	1906.66
598.89	1900.01
599.24	1894.06
599.59	1887.17
599.94	1881.00
600.29	1874.79
600.64	1868.22
600.99	1860.83
601.34	1853.85
601.69	1846.85
602.04	1839.96
602.39	1832.59
602.74	1825.76
603.08	1818.86
603.43	1812.15
603.78	1804.83
604.13	1797.42
604.48	1789.97
604.83	1783.06
605.18	1775.93
605.53	1767.90
605.87	1759.79
606.22	1752.60
606.57	1744.72
606.92	1737.47
607.27	1730.14
607.62	1723.20
607.96	1715.78
608.31	1709.09
608.66	1701.55
609.01	1693.98
609.36	1686.46
609.70	1678.44
610.05	1670.22
610.40	1662.61
610.75	1654.21
611.10	1646.61
611.44	1638.20
611.79	1630.35
612.14	1621.65
612.49	1612.53
612.83	1604.19
613.18	1596.10
613.53	1587.95
613.88	1579.41
614.22	1571.18
614.57	1562.68
614.92	1554.58
615.27	1546.97
615.61	1538.79
615.96	1530.76
616.31	1523.13
616.65	1515.80
617.00	1508.23
617.35	1500.79
617.70	1492.41
618.04	1483.97
618.39	1475.79
618.74	1468.25
619.08	1459.89
619.43	1452.43
619.78	1445.51
620.12	1438.34
620.47	1430.91
620.82	1422.71
621.16	1415.33
621.51	1407.75
621.85	1400.16
622.20	1391.63
622.55	1383.45
622.89	1375.55
623.24	1368.06
623.59	1360.73
623.93	1353.11
624.28	1345.97
624.62	1338.36
624.97	1331.27
625.32	1324.53
625.66	1317.46
626.01	1310.16
626.35	1302.70
626.70	1294.85
627.04	1287.04
627.39	1279.22
627.73	1271.72
628.08	1264.92
628.43	1257.51
628.77	1250.05
629.12	1242.48
629.46	1235.34
629.81	1227.86
630.15	1220.63
630.50	1213.03
630.84	1204.76
631.19	1196.88
631.53	1189.30
631.88	1181.83
632.22	1174.24
632.57	1167.00
632.91	1159.44
633.26	1152.16
633.60	1144.91
633.95	1137.89
634.29	1130.91
634.64	1124.22
634.98	1116.79
635.32	1109.51
635.67	1102.91
636.01	1096.33
636.36	1089.59
636.70	1083.02
637.05	1076.47
637.39	1069.99
637.73	1063.49
638.08	1057.55
638.42	1051.55
638.77	1045.04
639.11	1038.28
639.45	1031.83
639.80	1025.03
640.14	1018.61
640.49	1012.06
640.83	1005.69
641.17	999.35
641.52	993.01
641.86	986.65
642.20	980.82
642.55	974.63
642.89	968.19
643.23	961.60
643.58	955.75
643.92	949.59
644.26	943.50
644.61	937.44
644.95	931.49
645.29	924.94
645.64	918.19
645.98	911.96
646.32	906.16
646.66	900.11
647.01	894.38
647.35	888.74
647.69	882.89
648.04	877.37
648.38	871.62
648.72	865.64
649.06	859.56
649.41	853.66
649.75	847.62
650.09	841.70
650.43	835.94
650.78	829.75
651.12	823.83
651.46	818.07
651.80	812.35
652.14	806.96
652.49	801.65
652.83	796.50
653.17	790.79
653.51	785.19
653.85	779.80
654.20	774.14
654.54	768.12
654.88	762.39
655.22	756.42
655.56	750.79
655.90	745.39
656.25	740.15
656.59	734.87
656.93	729.82
657.27	724.69
657.61	719.26
657.95	714.20
658.29	709.07
658.64	703.90
658.98	698.57
659.32	693.04
659.66	687.84
660.00	682.51
660.34	677.58
660.68	672.63
661.02	667.65
661.36	662.89
661.70	658.34
662.05	653.98
662.39	649.71
662.73	645.20
663.07	640.77
663.41	636.38
663.75	631.84
664.09	627.31
664.43	622.90
664.77	618.77
665.11	614.52
665.45	610.45
665.79	606.32
666.13	602.23
666.47	598.18
666.81	593.96
667.15	589.85
667.49	585.90
667.83	582.15
668.17	578.24
668.51	574.18
668.85	570.25
669.19	566.46
669.53	562.59
669.87	558.73
670.21	555.07
670.55	551.34
670.89	547.90
671.23	544.42
671.57	540.88
671.91	537.32
672.25	533.81
672.58	530.23
672.92	526.86
673.26	523.67
673.60	520.57
673.94	517.46
674.28	514.55
674.62	511.64
674.96	508.50
675.30	505.56
675.64	502.64
675.97	499.80
676.31	496.82
676.65	493.93
676.99	491.21
677.33	488.26
677.67	485.48
678.01	482.47
678.34	479.57
678.68	476.70
679.02	473.94
679.36	471.23
679.70	468.60
680.04	465.86
680.37	463.00
680.71	460.16
681.05	457.56
681.39	454.84
681.73	452.17
682.06	449.61
682.40	447.07
682.74	444.50
683.08	441.96
683.42	439.40
683.75	436.92
684.09	434.40
684.43	432.01
684.77	429.59
685.10	427.28
685.44	424.93
685.78	422.68
686.12	420.44
686.45	418.12
686.79	415.78
687.13	413.57
687.46	411.41
687.80	409.26
688.14	407.07
688.48	405.03
688.81	402.77
689.15	400.68
689.49	398.51
689.82	396.46
690.16	394.39
690.50	392.47
690.83	390.51
691.17	388.56
691.51	386.63
691.84	384.76
692.18	382.81
692.52	380.81
692.85	378.88
693.19	377.02
693.52	375.20
693.86	373.38
694.20	371.66
694.53	369.90
694.87	368.07
695.21	366.30
695.54	364.46
695.88	362.80
696.21	361.05
696.55	359.40
696.88	357.80
697.22	356.13
697.56	354.51
697.89	352.85
698.23	351.23
698.56	349.59
698.90	348.03
699.23	346.39
699.57	344.87
699.90	343.31
700.24	341.75
700.58	340.25
700.91	338.76
701.25	337.28
701.58	335.92
701.92	334.57
702.25	333.16
702.59	331.80
702.92	330.43
703.26	329.15
703.59	327.85
703.93	326.64
704.26	325.47
704.60	324.19
704.93	322.92
705.26	321.65
705.60	320.51
705.93	319.35
706.27	318.29
706.60	317.21
706.94	316.15
707.27	315.04
707.61	313.95
707.94	312.92
708.27	311.81
708.61	310.72
708.94	309.70
709.28	308.69
709.61	307.76
709.94	306.79
710.28	305.77
710.61	304.79
710.95	303.69
711.28	302.70
711.61	301.74
711.95	300.84
712.28	299.90
712.61	298.91
712.95	297.93
713.28	297.07
713.61	296.18
713.95	295.29
714.28	294.40
714.61	293.53
714.95	292.68
715.28	291.81
715.61	290.92
715.95	290.09
716.28	289.27
716.61	288.42
716.95	287.64
717.28	286.84
717.61	286.05
717.94	285.33
718.28	284.56
718.61	283.82
718.94	283.15
719.27	282.49
719.61	281.84
719.94	281.23
720.27	280.47
720.60	279.79
720.94	279.13
721.27	278.54
721.60	278.00
721.93	277.40
722.27	276.90
722.60	276.35
722.93	275.74
723.26	275.20
723.59	274.67
723.93	274.10
724.26	273.61
724.59	273.12
724.92	272.58
725.25	272.05
725.59	271.55
725.92	271.05
726.25	270.56
726.58	270.10
726.91	269.57
727.24	269.13
727.57	268.66
727.91	268.15
728.24	267.69
728.57	267.21
728.90	266.76
729.23	266.26
729.56	265.85
729.89	265.43
730.22	264.97
730.55	264.49
730.89	264.05
731.22	263.59
731.55	263.11
731.88	262.68
732.21	262.27
732.54	261.85
732.87	261.42
733.20	261.04
733.53	260.64
733.86	260.29
734.19	259.88
734.52	259.53
734.85	259.29
735.18	258.87
735.51	258.52
735.84	258.13
736.17	257.80
736.50	257.38
736.83	257.14
737.16	256.78
737.49	256.46
737.82	256.12
738.15	255.78
738.48	255.48
738.81	255.15
739.14	254.84
739.47	254.54
739.80	254.19
740.13	253.84
740.46	253.50
740.79	253.18
741.12	252.93
741.45	252.59
741.78	252.18
742.11	251.90
742.44	251.55
742.77	251.27
743.10	250.92
743.43	250.63
743.75	250.24
744.08	250.09
744.41	249.83
744.74	249.54
745.07	249.27
745.40	249.03
745.73	248.79
746.06	248.50
746.39	248.21
746.71	247.96
747.04	247.71
747.37	247.48
747.70	247.23
748.03	246.92
748.36	246.69
748.68	246.50
749.01	246.23
749.34	246.03
749.67	245.78
750.00	245.57
750.33	245.40
750.65	245.17
750.98	244.84
751.31	244.55
751.64	244.33
751.97	244.15
752.29	243.90
752.62	243.65
752.95	243.40
753.28	243.17
753.60	242.96
753.93	242.77
754.26	242.53
754.59	242.31
754.91	242.09
755.24	241.92
755.57	241.69
755.90	241.52
756.22	241.33
756.55	241.13
756.88	240.92
757.20	240.72
757.53	240.53
757.86	240.37
758.19	240.26
758.51	240.14
758.84	239.91
759.17	239.75
759.49	239.65
759.82	239.56
760.15	239.40
760.47	239.26
760.80	239.08
761.13	238.97
761.45	238.81
761.78	238.67
762.11	238.53
762.43	238.39
762.76	238.27
763.08	238.10
763.41	237.96
763.74	237.84
764.06	237.70
764.39	237.55
764.71	237.40
765.04	237.27
765.37	237.10
765.69	236.98
766.02	236.85
766.34	236.72
766.67	236.58
767.00	236.51
767.32	236.46
767.65	236.44
767.97	236.31
768.30	236.21
768.62	236.14
768.95	236.00
769.27	235.90
769.60	235.79
769.92	235.69
770.25	235.59
770.57	235.49
770.90	235.38
771.22	235.28
771.55	235.20
771.87	235.09
772.20	234.99
772.52	234.98
772.85	235.01
773.17	234.88
773.50	234.78
773.82	234.65
774.15	234.46
774.47	234.30
774.80	234.21
775.12	234.13
775.45	234.03
775.77	233.99
776.09	233.88
776.42	233.78
776.74	233.76
777.07	233.68
777.39	233.59
777.72	233.50
778.04	233.44
778.36	233.36
778.69	233.29
779.01	233.23
779.33	233.07
779.66	232.88
779.98	232.82
780.31	232.74
780.63	232.75
780.95	232.72
781.28	232.66
781.60	232.60
781.92	232.52
782.25	232.45
782.57	232.37
782.89	232.34
783.22	232.27
783.54	232.14
783.86	232.09
784.19	232.04
784.51	231.99
784.83	231.94
785.16	231.86
785.48	231.84
785.80	231.77
786.12	231.72
786.45	231.65
786.77	231.59
787.09	231.52
787.42	231.40
787.74	231.35
788.06	231.30
788.38	231.22
788.71	231.18
789.03	231.10
789.35	231.06
789.67	230.98
789.99	230.96
790.32	230.93
790.64	230.89
790.96	230.92
791.28	230.86
791.61	230.80
791.93	230.78
792.25	230.68
792.57	230.73
792.89	230.69
793.21	230.68
793.54	230.63
793.86	230.61
794.18	230.58
794.50	230.50
794.82	230.45
795.14	230.44
795.47	230.42
795.79	230.42
796.11	230.37
796.43	230.30
796.75	230.25
797.07	230.23
797.39	230.19
797.71	230.09
798.04	230.08
798.36	230.04
798.68	230.02
799.00	230.03
799.32	229.95
799.64	229.97
799.96	229.94
800.28	229.95
800.60	229.90
800.92	229.90
801.24	229.90
801.56	229.92
801.89	229.90
802.21	229.88
802.53	229.83
802.85	229.85
803.17	229.91
803.49	229.85
803.81	229.80
804.13	229.76
804.45	229.77
804.77	229.76
805.09	229.77
805.41	229.71
805.73	229.66
806.05	229.59
806.37	229.57
806.69	229.54
807.01	229.49
807.33	229.49
807.65	229.40
807.97	229.41
808.28	229.35
808.60	229.33
808.92	229.33
809.24	229.36
809.56	229.33
809.88	229.27
810.20	229.29
810.52	229.31
810.84	229.29
811.16	229.23
811.48	229.20
811.80	229.22
812.12	229.18
812.43	229.20
812.75	229.22
813.07	229.18
813.39	229.17
813.71	229.16
814.03	229.14
814.35	229.13
814.67	229.10
814.98	229.07
815.30	229.04
815.62	228.98
815.94	228.94
816.26	228.93
816.58	228.92
816.89	228.89
817.21	228.83
817.53	228.81
817.85	228.83
818.17	228.82
818.48	228.73
818.80	228.74
819.12	228.68
819.44	228.65
819.76	228.61
820.07	228.56
820.39	228.52
820.71	228.51
821.03	228.51
821.34	228.45
821.66	228.43
821.98	228.46
822.30	228.43
822.61	228.43
822.93	228.39
823.25	228.37
823.57	228.34
823.88	228.37
824.20	228.36
824.52	228.33
824.83	228.28
825.15	228.29
825.47	228.27
825.79	228.25
826.10	228.19
826.42	228.18
826.74	228.18
827.05	228.16
827.37	228.14
827.69	228.10
828.00	228.09
828.32	228.10
828.64	228.06
828.95	228.11
829.27	228.04
829.58	228.02
829.90	228.00
830.22	228.01
830.53	227.97
830.85	227.92
831.17	227.90
831.48	227.89
831.80	227.84
832.11	227.86
832.43	227.84
832.75	227.85
833.06	227.88
833.38	227.85
833.69	227.84
834.01	227.81
834.32	227.82
834.64	227.82
834.96	227.79
835.27	227.76
835.59	227.71
835.90	227.69
836.22	227.69
836.53	227.67
836.85	227.62
837.16	227.69
837.48	227.69
837.79	227.72
838.11	227.75
838.42	227.75
838.74	227.74
839.05	227.75
839.37	227.76
839.68	227.70
840.00	227.67
840.31	227.71
840.63	227.73
840.94	227.73
841.26	227.73
841.57	227.71
841.88	227.74
842.20	227.74
842.51	227.71
842.83	227.73
843.14	227.82
843.46	227.85
843.77	227.78
844.08	227.80
844.40	227.74
844.71	227.73
845.03	227.74
845.34	227.74
845.65	227.75
845.97	227.74
846.28	227.78
846.60	227.82
846.91	227.77
847.22	227.73
847.54	227.77
847.85	227.77
848.16	227.77
848.48	227.74
848.79	227.79
849.10	227.81
849.42	227.79
849.73	227.68
850.04	227.64
850.36	227.65
850.67	227.65
850.98	227.65
851.30	227.63
851.61	227.61
851.92	227.59
852.23	227.59
852.55	227.58
852.86	227.56
853.17	227.57
853.49	227.63
853.80	227.67
854.11	227.63
854.42	227.68
854.74	227.70
855.05	227.71
855.36	227.63
855.67	227.64
855.99	227.66
856.30	227.78
856.61	227.80
856.92	227.81
857.23	227.79
857.55	227.82
857.86	227.82
858.17	227.85
858.48	227.83
858.79	227.82
859.11	227.84
859.42	227.83
859.73	227.79
860.04	227.79
860.35	227.73
860.66	227.71
860.98	227.65
861.29	227.65
861.60	227.65
861.91	227.69
862.22	227.66
862.53	227.65
862.84	227.52
863.16	227.54
863.47	227.50
863.78	227.50
864.09	227.48
864.40	227.48
864.71	227.46
865.02	227.49
865.33	227.47
865.64	227.45
865.95	227.44
866.27	227.51
866.58	227.48
866.89	227.52
867.20	227.53
867.51	227.53
867.82	227.53
868.13	227.54
868.44	227.53
868.75	227.54
869.06	227.52
869.37	227.54
869.68	227.48
869.99	227.51
870.30	227.50
870.61	227.51
870.92	227.51
871.23	227.49
871.54	227.48
871.85	227.50
872.16	227.51
872.47	227.52
872.78	227.45
873.09	227.44
873.40	227.42
873.71	227.40
874.02	227.41
874.33	227.36
874.64	227.35
874.95	227.34
875.26	227.32
875.56	227.31
875.87	227.29
876.18	227.30
876.49	227.38
876.80	227.34
877.11	227.31
877.42	227.28
877.73	227.27
878.04	227.23
878.35	227.23
878.66	227.21
878.96	227.20
879.27	227.21
879.58	227.21
879.89	227.18
880.20	227.21
880.51	227.20
880.82	227.19
881.12	227.17
881.43	227.15
881.74	227.13
882.05	227.13
882.36	227.12
882.67	227.13
882.97	227.02
883.28	227.05
883.59	227.04
883.90	227.04
884.21	227.09
884.51	227.09
884.82	227.04
885.13	227.06
885.44	227.06
885.74	227.05
886.05	227.02
886.36	227.03
886.67	226.95
886.98	226.98
887.28	226.99
887.59	226.98
887.90	226.99
888.20	226.98
888.51	227.00
888.82	226.97
889.13	227.00
889.43	227.07
889.74	227.06
890.05	227.05
890.35	227.09
890.66	227.06
890.97	227.04
891.28	227.06
891.58	227.06
891.89	227.07
892.20	227.03
892.50	227.07
892.81	227.07
893.12	227.14
893.42	227.10
893.73	227.09
894.04	227.07
894.34	227.08
894.65	227.09
894.95	227.10
895.26	227.13
895.57	227.18
895.87	227.08
896.18	227.10
896.48	227.11
896.79	227.11
897.10	227.11
897.40	227.13
897.71	227.12
898.01	227.12
898.32	227.13
898.63	227.12
898.93	227.12
899.24	227.14
899.54	227.14
899.85	227.16
900.15	227.16
900.46	227.21
900.76	227.20
901.07	227.25
901.38	227.23
901.68	227.23
901.99	227.19
902.29	227.22
902.60	227.21
902.90	227.23
903.21	227.20
903.51	227.22
903.82	227.24
904.12	227.27
904.43	227.27
904.73	227.25
905.03	227.29
905.34	227.34
905.64	227.32
905.95	227.33
906.25	227.31
906.56	227.32
906.86	227.27
907.17	227.26
907.47	227.26
907.77	227.24
908.08	227.19
908.38	227.15
908.69	227.15
908.99	227.18
909.30	227.16
909.60	227.15
909.90	227.12
910.21	227.08
910.51	227.02
910.81	226.99
911.12	227.02
911.42	227.01
911.73	226.93
912.03	226.94
912.33	226.94
912.64	226.94
912.94	226.93
913.24	226.94
913.55	226.95
913.85	226.90
914.15	226.91
914.46	226.95
914.76	226.93
915.06	226.91
915.37	226.89
915.67	226.90
915.97	226.92
916.27	226.91
916.58	226.89
916.88	226.93
917.18	226.92
917.49	226.97
917.79	226.98
918.09	227.02
918.39	227.04
918.70	227.02
919.00	227.01
919.30	227.03
919.60	227.01
919.91	226.98
920.21	226.95
920.51	226.93
920.81	226.91
921.12	226.95
921.42	226.95
921.72	226.94
922.02	226.93
922.32	226.93
922.63	226.95
922.93	227.01
923.23	227.00
923.53	227.03
923.83	226.93
924.13	226.92
924.44	226.89
924.74	226.88
925.04	226.89
925.34	226.89
925.64	226.87
925.94	226.86
926.24	226.91
926.55	226.93
926.85	226.94
927.15	226.98
927.45	226.97
927.75	226.95
928.05	226.95
928.35	226.93
928.65	226.92
928.95	226.92
929.26	226.87
929.56	226.89
929.86	226.84
930.16	226.83
930.46	226.83
930.76	226.83
931.06	226.79
931.36	226.79
931.66	226.78
931.96	226.77
932.26	226.79
932.56	226.73
932.86	226.75
933.16	226.80
933.46	226.78
933.76	226.77
934.06	226.77
934.36	226.80
934.66	226.80
934.96	226.80
935.26	226.80
935.56	226.80
935.86	226.79
936.16	226.78
936.46	226.78
936.76	226.77
937.06	226.76
937.36	226.79
937.66	226.79
937.96	226.82
938.26	226.86
938.56	226.85
938.86	226.87
939.16	226.89
939.46	226.87
939.76	226.86
940.06	226.88
940.35	226.91
940.65	226.86
940.95	226.85
941.25	226.82
941.55	226.81
941.85	226.85
942.15	226.85
942.45	226.93
942.75	226.92
943.04	226.93
943.34	226.94
943.64	226.93
943.94	226.90
944.24	226.91
944.54	226.87
944.84	226.90
945.13	226.92
945.43	226.92
945.73	226.91
946.03	226.92
946.33	226.88
946.62	226.85
946.92	226.88
947.22	226.91
947.52	226.93
947.82	226.95
948.11	226.92
948.41	226.89
948.71	226.84
949.01	226.88
949.31	226.86
949.60	226.83
949.90	226.82
950.20	226.81
950.50	226.82
950.79	226.81
951.09	226.79
951.39	226.76
951.69	226.72
951.98	226.71
952.28	226.70
952.58	226.72
952.87	226.71
953.17	226.69
953.47	226.66
953.76	226.65
954.06	226.61
954.36	226.60
954.66	226.62
954.95	226.66
955.25	226.65
955.55	226.67
955.84	226.70
956.14	226.75
956.44	226.76
956.73	226.70
957.03	226.74
957.32	226.75
957.62	226.77
957.92	226.80
958.21	226.82
958.51	226.92
958.81	226.92
959.10	226.96
959.40	226.97
959.69	227.01
959.99	227.00
960.29	227.05
960.58	227.03
960.88	227.07
961.17	227.04
961.47	227.04
961.76	227.05
962.06	227.07
962.36	227.02
962.65	227.01
962.95	227.01
963.24	227.04
963.54	227.04
963.83	227.05
964.13	227.05
964.42	226.99
964.72	226.91
965.01	226.93
965.31	226.91
965.60	226.87
965.90	226.90
966.19	226.91
966.49	226.89
966.78	226.93
967.08	226.92
967.37	226.91
967.67	226.90
967.96	226.90
968.26	226.89
968.55	226.92
968.85	226.92
969.14	226.92
969.43	226.87
969.73	226.86
970.02	226.83
970.32	226.85
970.61	226.90
970.91	226.87
971.20	226.85
971.49	226.85
971.79	226.86
972.08	226.83
972.38	226.85
972.67	226.84
972.96	226.85
973.26	226.82
973.55	226.86
973.85	226.83
974.14	226.83
974.43	226.84
974.73	226.81
975.02	226.82
975.31	226.84
975.61	226.85
975.90	226.85
976.19	226.83
976.49	226.83
976.78	226.83
977.07	226.85
977.37	226.86
977.66	226.87
977.95	226.90
978.24	226.90
978.54	226.88
978.83	226.86
979.12	226.83
979.42	226.84
979.71	226.78
980.00	226.80
980.29	226.81
980.59	226.80
980.88	226.84
981.17	226.84
981.46	226.82
981.76	226.83
982.05	226.83
982.34	226.86
982.63	226.83
982.93	226.81
983.22	226.81
983.51	226.80
983.80	226.78
984.09	226.74
984.39	226.72
984.68	226.75
984.97	226.79
985.26	226.79
985.55	226.79
985.85	226.80
986.14	226.80
986.43	226.81
986.72	226.77
987.01	226.72
987.30	226.67
987.59	226.65
987.89	226.64
988.18	226.62
988.47	226.60
988.76	226.63
989.05	226.62
989.34	226.62
989.63	226.68
989.92	226.69
990.22	226.73
990.51	226.71
990.80	226.69
991.09	226.68
991.38	226.67
991.67	226.70
991.96	226.71
992.25	226.72
992.54	226.68
992.83	226.70
993.12	226.70
993.41	226.74
993.70	226.80
993.99	226.80
994.28	226.81
994.58	226.82
994.87	226.78
995.16	226.78
995.45	226.73
995.74	226.67
996.03	226.70
996.32	226.70
996.61	226.74
996.90	226.73
997.19	226.71
997.48	226.70
997.77	226.63
998.06	226.63
998.34	226.63
998.63	226.63
998.92	226.62
999.21	226.62
999.50	226.66
999.79	226.63
1000.08	226.65
1000.37	226.66
1000.66	226.63
1000.95	226.68
1001.24	226.69
1001.53	226.73
1001.82	226.72
1002.11	226.68
1002.40	226.69
1002.68	226.67
1002.97	226.74
1003.26	226.73
1003.55	226.75
1003.84	226.78
1004.13	226.83
1004.42	226.84
1004.71	226.85
1004.99	226.87
1005.28	226.92
1005.57	226.90
1005.86	226.89
1006.15	226.88
1006.44	226.90
1006.72	226.93
1007.01	226.91
1007.30	226.92
1007.59	226.93
1007.88	226.99
1008.17	226.99
1008.45	226.98
1008.74	226.98
1009.03	226.95
1009.32	226.97
1009.60	226.98
1009.89	226.98
1010.18	226.94
1010.47	226.92
1010.76	226.93
1011.04	226.93
1011.33	226.93
1011.62	226.95
1011.91	226.96
1012.19	226.99
1012.48	226.98
1012.77	227.01
1013.05	227.07
1013.34	227.08
1013.63	227.08
1013.92	227.07
1014.20	227.08
1014.49	227.10
1014.78	227.09
1015.06	227.09
1015.35	227.08
1015.64	227.09
1015.92	227.10
1016.21	227.07
1016.50	227.06
1016.78	227.08
1017.07	227.07
1017.36	227.06
1017.64	227.02
1017.93	227.03
1018.22	227.00
1018.50	227.01
1018.79	226.98
1019.08	226.94
1019.36	226.94
1019.65	226.93
1019.93	226.93
1020.22	226.95
1020.51	226.98
1020.79	226.99
1021.08	226.53
1021.36	227.15
1021.65	226.92
1021.94	227.23
1022.22	227.10
1022.51	227.17
1022.79	227.36
1023.08	226.99
1023.36	228.03
1023.65	226.95
>>>>>End Processed Spectral Data<<<<<
