SpectraSuite Data File
++++++++++++++++++++++++++++++++++++
Date: Fri Feb 01 15:14:40 EST 2013
User: group
Dark Spectrum Present: No
Reference Spectrum Present: No
Number of Sampled Component Spectra: 1
Spectrometers: USB2E7196
Integration Time (usec): 35000 (USB2E7196)
Spectra Averaged: 100 (USB2E7196)
Boxcar Smoothing: 10 (USB2E7196)
Correct for Electrical Dark: No (USB2E7196)
Strobe/Lamp Enabled: No (USB2E7196)
Correct for Detector Non-linearity: No (USB2E7196)
Correct for Stray Light: No (USB2E7196)
Number of Pixels in Processed Spectrum: 2048
>>>>>Begin Processed Spectral Data<<<<<
339.09	0.00
339.48	215.17
339.86	217.22
340.24	217.44
340.63	219.53
341.01	222.67
341.39	222.62
341.78	223.33
342.16	225.07
342.54	225.59
342.93	213.77
343.31	224.57
343.69	225.11
344.07	225.59
344.46	226.04
344.84	226.45
345.22	226.68
345.60	226.90
345.99	227.08
346.37	227.18
346.75	227.27
347.13	227.33
347.52	227.38
347.90	227.43
348.28	227.47
348.66	227.52
349.05	227.51
349.43	227.54
349.81	227.59
350.19	227.65
350.57	227.70
350.96	227.79
351.34	227.87
351.72	227.96
352.10	228.02
352.48	228.10
352.87	228.13
353.25	228.19
353.63	228.27
354.01	228.37
354.39	228.46
354.77	228.53
355.15	228.61
355.54	228.66
355.92	228.71
356.30	228.79
356.68	228.90
357.06	228.97
357.44	229.00
357.82	229.04
358.20	229.08
358.58	229.13
358.97	229.18
359.35	229.24
359.73	229.33
360.11	229.37
360.49	229.43
360.87	229.50
361.25	229.54
361.63	229.59
362.01	229.58
362.39	229.61
362.77	229.64
363.15	229.65
363.53	229.64
363.91	229.66
364.29	229.65
364.67	229.55
365.05	229.56
365.43	229.59
365.81	229.60
366.19	229.63
366.57	229.66
366.95	229.62
367.33	229.58
367.71	229.52
368.09	229.51
368.47	229.47
368.85	229.41
369.23	229.38
369.61	229.34
369.99	229.32
370.37	229.28
370.75	229.28
371.13	229.23
371.51	229.19
371.89	229.12
372.27	229.06
372.65	229.01
373.03	228.92
373.41	228.82
373.78	228.76
374.16	228.67
374.54	228.59
374.92	228.55
375.30	228.46
375.68	228.40
376.06	228.34
376.44	228.25
376.82	228.19
377.19	228.11
377.57	228.04
377.95	227.96
378.33	227.86
378.71	227.74
379.09	227.68
379.47	227.60
379.84	227.57
380.22	227.52
380.60	227.43
380.98	227.39
381.36	227.33
381.73	227.24
382.11	227.22
382.49	227.14
382.87	227.06
383.25	227.03
383.62	227.06
384.00	226.99
384.38	226.95
384.76	226.93
385.13	226.93
385.51	226.88
385.89	226.83
386.27	226.78
386.64	226.74
387.02	226.70
387.40	226.68
387.78	226.63
388.15	226.59
388.53	226.56
388.91	226.53
389.29	226.53
389.66	226.54
390.04	226.49
390.42	226.47
390.79	226.46
391.17	226.44
391.55	226.34
391.92	226.31
392.30	226.32
392.68	226.28
393.05	226.27
393.43	226.29
393.81	226.31
394.18	226.33
394.56	226.36
394.94	226.36
395.31	226.39
395.69	226.44
396.06	226.50
396.44	226.58
396.82	226.57
397.19	226.64
397.57	226.68
397.95	226.72
398.32	226.75
398.70	226.81
399.07	226.89
399.45	226.96
399.82	227.06
400.20	227.11
400.58	227.21
400.95	227.23
401.33	227.35
401.70	227.50
402.08	227.61
402.45	227.71
402.83	227.86
403.20	227.96
403.58	228.07
403.95	228.21
404.33	228.34
404.71	228.49
405.08	228.69
405.46	228.82
405.83	228.98
406.21	229.16
406.58	229.37
406.96	229.52
407.33	229.71
407.70	229.91
408.08	230.17
408.45	230.42
408.83	230.66
409.20	230.84
409.58	231.03
409.95	231.29
410.33	231.59
410.70	231.85
411.08	232.14
411.45	232.45
411.82	232.74
412.20	233.08
412.57	233.51
412.95	233.82
413.32	234.25
413.69	234.67
414.07	235.10
414.44	235.51
414.82	236.01
415.19	236.57
415.56	237.09
415.94	237.66
416.31	238.25
416.68	238.87
417.06	239.61
417.43	240.29
417.81	241.06
418.18	241.81
418.55	242.65
418.93	243.55
419.30	244.44
419.67	245.42
420.04	246.40
420.42	247.38
420.79	248.54
421.16	249.71
421.54	250.89
421.91	252.10
422.28	253.37
422.66	254.70
423.03	255.98
423.40	257.35
423.77	258.73
424.15	260.16
424.52	261.64
424.89	263.25
425.26	264.80
425.64	266.25
426.01	267.84
426.38	269.47
426.75	271.16
427.13	272.89
427.50	274.66
427.87	276.53
428.24	278.39
428.61	280.15
428.99	282.04
429.36	284.12
429.73	286.19
430.10	288.22
430.47	290.25
430.85	292.39
431.22	294.60
431.59	297.01
431.96	299.31
432.33	301.84
432.70	304.25
433.08	307.10
433.45	309.75
433.82	312.35
434.19	315.26
434.56	318.03
434.93	320.70
435.30	323.34
435.68	326.24
436.05	329.09
436.42	331.87
436.79	334.45
437.16	337.21
437.53	340.05
437.90	342.88
438.27	345.65
438.64	348.47
439.01	351.12
439.38	353.39
439.75	355.57
440.13	358.08
440.50	360.37
440.87	362.17
441.24	364.12
441.61	366.30
441.98	367.73
442.35	369.60
442.72	371.46
443.09	373.26
443.46	374.23
443.83	374.79
444.20	375.31
444.57	376.12
444.94	376.34
445.31	376.71
445.68	377.04
446.05	377.14
446.42	376.79
446.79	376.35
447.16	375.86
447.53	375.49
447.90	374.32
448.27	373.16
448.64	371.61
449.01	370.49
449.37	368.53
449.74	366.71
450.11	364.42
450.48	361.89
450.85	359.36
451.22	357.24
451.59	355.22
451.96	353.26
452.33	350.62
452.70	348.31
453.07	345.43
453.43	342.53
453.80	339.75
454.17	337.00
454.54	334.46
454.91	331.74
455.28	329.09
455.65	326.57
456.02	324.11
456.38	321.93
456.75	319.22
457.12	316.92
457.49	314.69
457.86	312.53
458.23	310.69
458.59	308.64
458.96	306.55
459.33	304.73
459.70	302.84
460.07	301.36
460.43	299.63
460.80	297.99
461.17	296.55
461.54	295.06
461.91	293.70
462.27	292.25
462.64	290.99
463.01	289.64
463.38	288.34
463.74	287.01
464.11	285.84
464.48	284.83
464.85	283.75
465.21	282.84
465.58	281.90
465.95	280.80
466.32	279.90
466.68	278.96
467.05	278.04
467.42	277.18
467.78	276.23
468.15	275.38
468.52	274.77
468.88	273.93
469.25	273.11
469.62	272.44
469.98	271.76
470.35	271.15
470.72	270.51
471.08	269.87
471.45	269.32
471.82	268.76
472.18	268.18
472.55	267.74
472.92	267.18
473.28	266.74
473.65	266.27
474.02	265.83
474.38	265.48
474.75	265.17
475.11	264.85
475.48	264.59
475.85	264.32
476.21	264.06
476.58	263.86
476.94	263.71
477.31	263.52
477.67	263.37
478.04	263.19
478.41	263.15
478.77	263.16
479.14	263.08
479.50	263.11
479.87	263.15
480.23	263.24
480.60	263.33
480.96	263.40
481.33	263.61
481.69	263.77
482.06	263.96
482.42	264.14
482.79	264.35
483.15	264.65
483.52	265.00
483.88	265.31
484.25	265.68
484.61	266.10
484.98	266.59
485.34	267.14
485.71	267.75
486.07	268.38
486.44	268.95
486.80	269.64
487.17	270.34
487.53	271.15
487.90	271.98
488.26	272.92
488.62	273.92
488.99	274.87
489.35	275.90
489.72	277.04
490.08	278.25
490.44	279.51
490.81	280.82
491.17	282.16
491.54	283.67
491.90	285.18
492.26	286.82
492.63	288.56
492.99	290.34
493.36	292.22
493.72	294.20
494.08	296.30
494.45	298.52
494.81	300.85
495.17	303.23
495.54	305.77
495.90	308.44
496.26	311.20
496.63	314.17
496.99	317.28
497.35	320.52
497.72	323.87
498.08	327.36
498.44	331.05
498.80	335.01
499.17	339.02
499.53	343.14
499.89	347.53
500.26	351.98
500.62	356.66
500.98	361.64
501.34	366.73
501.71	372.03
502.07	377.50
502.43	383.14
502.79	389.01
503.16	395.07
503.52	401.29
503.88	407.70
504.24	414.37
504.60	421.24
504.97	428.33
505.33	435.64
505.69	443.33
506.05	451.14
506.41	458.98
506.78	467.15
507.14	475.68
507.50	484.40
507.86	493.45
508.22	502.60
508.59	511.76
508.95	521.41
509.31	531.23
509.67	541.30
510.03	551.60
510.39	562.14
510.75	572.97
511.12	584.00
511.48	595.33
511.84	606.75
512.20	618.33
512.56	630.30
512.92	642.46
513.28	654.82
513.64	667.26
514.00	680.01
514.37	692.96
514.73	706.10
515.09	719.15
515.45	732.48
515.81	746.10
516.17	760.20
516.53	774.33
516.89	788.49
517.25	802.68
517.61	817.17
517.97	831.66
518.33	846.18
518.69	860.98
519.05	876.03
519.41	891.28
519.77	906.89
520.13	922.39
520.49	937.85
520.85	953.26
521.21	969.03
521.57	985.32
521.93	1001.15
522.29	1017.47
522.65	1033.78
523.01	1050.00
523.37	1066.10
523.73	1082.29
524.09	1098.42
524.45	1114.79
524.81	1131.53
525.17	1148.35
525.53	1165.35
525.89	1182.23
526.25	1199.01
526.61	1215.53
526.97	1232.27
527.33	1248.75
527.68	1265.46
528.04	1282.12
528.40	1298.89
528.76	1315.92
529.12	1332.60
529.48	1349.48
529.84	1365.54
530.20	1382.24
530.56	1399.31
530.91	1416.71
531.27	1433.46
531.63	1449.91
531.99	1466.60
532.35	1482.60
532.71	1498.61
533.07	1514.93
533.42	1530.76
533.78	1547.00
534.14	1563.22
534.50	1578.57
534.86	1594.46
535.21	1609.69
535.57	1625.57
535.93	1641.15
536.29	1656.12
536.65	1671.22
537.00	1686.16
537.36	1701.58
537.72	1716.13
538.08	1730.60
538.44	1744.51
538.79	1758.32
539.15	1772.09
539.51	1785.80
539.87	1800.15
540.22	1813.91
540.58	1827.91
540.94	1841.43
541.29	1854.43
541.65	1867.23
542.01	1880.68
542.37	1893.04
542.72	1905.58
543.08	1917.41
543.44	1929.76
543.79	1940.92
544.15	1951.87
544.51	1963.39
544.87	1974.54
545.22	1985.47
545.58	1995.74
545.94	2005.53
546.29	2015.55
546.65	2025.32
547.01	2034.69
547.36	2043.67
547.72	2052.14
548.07	2059.88
548.43	2068.13
548.79	2076.10
549.14	2083.57
549.50	2090.92
549.86	2098.65
550.21	2105.81
550.57	2113.03
550.92	2119.65
551.28	2126.98
551.64	2134.05
551.99	2140.64
552.35	2146.65
552.70	2152.65
553.06	2158.64
553.41	2165.03
553.77	2171.15
554.13	2177.43
554.48	2183.53
554.84	2188.73
555.19	2194.11
555.55	2199.17
555.90	2203.59
556.26	2208.32
556.61	2213.19
556.97	2217.39
557.32	2221.57
557.68	2225.77
558.03	2230.09
558.39	2233.86
558.74	2238.35
559.10	2242.23
559.45	2245.86
559.81	2250.08
560.16	2253.91
560.52	2257.18
560.87	2260.58
561.23	2263.06
561.58	2266.10
561.94	2268.63
562.29	2271.10
562.64	2273.67
563.00	2276.38
563.35	2280.10
563.71	2283.33
564.06	2286.27
564.42	2289.06
564.77	2291.47
565.12	2293.55
565.48	2295.44
565.83	2297.17
566.19	2298.37
566.54	2299.15
566.89	2300.31
567.25	2300.96
567.60	2302.34
567.96	2303.99
568.31	2304.83
568.66	2305.91
569.02	2306.29
569.37	2306.40
569.72	2307.13
570.08	2307.07
570.43	2306.94
570.78	2305.99
571.14	2304.32
571.49	2303.04
571.84	2302.64
572.20	2301.28
572.55	2300.18
572.90	2298.46
573.26	2296.89
573.61	2295.00
573.96	2293.22
574.31	2290.10
574.67	2286.92
575.02	2283.12
575.37	2279.51
575.72	2275.51
576.08	2272.21
576.43	2268.86
576.78	2265.25
577.13	2262.17
577.49	2259.14
577.84	2255.56
578.19	2251.71
578.54	2247.97
578.90	2243.53
579.25	2237.97
579.60	2233.05
579.95	2228.11
580.30	2222.96
580.66	2217.76
581.01	2212.80
581.36	2207.69
581.71	2203.36
582.06	2198.84
582.42	2194.28
582.77	2189.03
583.12	2184.32
583.47	2179.36
583.82	2174.03
584.17	2168.61
584.53	2162.90
584.88	2157.06
585.23	2151.06
585.58	2145.51
585.93	2140.13
586.28	2135.21
586.63	2129.92
586.98	2124.73
587.34	2119.90
587.69	2114.89
588.04	2109.69
588.39	2103.89
588.74	2097.44
589.09	2091.25
589.44	2084.24
589.79	2078.21
590.14	2072.54
590.49	2066.01
590.84	2059.54
591.19	2053.47
591.54	2046.93
591.89	2039.19
592.25	2032.31
592.60	2025.16
592.95	2017.57
593.30	2010.00
593.65	2002.43
594.00	1995.39
594.35	1988.12
594.70	1980.04
595.05	1972.73
595.40	1965.19
595.75	1957.61
596.10	1951.33
596.45	1944.27
596.80	1938.20
597.15	1931.35
597.50	1924.06
597.85	1917.64
598.19	1911.02
598.54	1903.95
598.89	1897.30
599.24	1891.59
599.59	1884.86
599.94	1878.56
600.29	1872.13
600.64	1865.49
600.99	1858.02
601.34	1851.06
601.69	1844.04
602.04	1837.04
602.39	1829.74
602.74	1822.99
603.08	1816.38
603.43	1809.62
603.78	1802.57
604.13	1795.25
604.48	1787.92
604.83	1781.06
605.18	1773.95
605.53	1765.87
605.87	1757.80
606.22	1750.40
606.57	1742.48
606.92	1735.15
607.27	1727.86
607.62	1720.93
607.96	1713.65
608.31	1707.06
608.66	1699.41
609.01	1691.83
609.36	1684.27
609.70	1676.21
610.05	1668.09
610.40	1660.31
610.75	1651.99
611.10	1644.20
611.44	1635.97
611.79	1627.93
612.14	1619.20
612.49	1610.04
612.83	1601.71
613.18	1593.53
613.53	1585.59
613.88	1576.97
614.22	1568.72
614.57	1560.20
614.92	1552.14
615.27	1544.55
615.61	1536.17
615.96	1528.18
616.31	1520.56
616.65	1513.13
617.00	1505.65
617.35	1498.00
617.70	1489.54
618.04	1480.94
618.39	1472.60
618.74	1464.86
619.08	1456.70
619.43	1449.10
619.78	1442.02
620.12	1434.85
620.47	1427.34
620.82	1419.11
621.16	1411.78
621.51	1404.16
621.85	1396.53
622.20	1387.97
622.55	1379.74
622.89	1371.87
623.24	1364.29
623.59	1356.99
623.93	1349.50
624.28	1342.20
624.62	1334.65
624.97	1327.59
625.32	1320.99
625.66	1314.14
626.01	1306.99
626.35	1299.49
626.70	1291.87
627.04	1284.28
627.39	1276.54
627.73	1269.20
628.08	1262.38
628.43	1255.04
628.77	1247.65
629.12	1240.13
629.46	1232.96
629.81	1225.44
630.15	1218.30
630.50	1210.87
630.84	1202.67
631.19	1194.79
631.53	1187.36
631.88	1179.85
632.22	1172.34
632.57	1165.04
632.91	1157.45
633.26	1150.09
633.60	1142.84
633.95	1135.75
634.29	1128.77
634.64	1122.14
634.98	1114.80
635.32	1107.63
635.67	1101.12
636.01	1094.54
636.36	1087.76
636.70	1081.34
637.05	1074.91
637.39	1068.49
637.73	1062.02
638.08	1056.21
638.42	1050.27
638.77	1043.78
639.11	1037.24
639.45	1030.82
639.80	1024.12
640.14	1017.72
640.49	1011.14
640.83	1004.87
641.17	998.70
641.52	992.36
641.86	985.93
642.20	980.06
642.55	973.80
642.89	967.32
643.23	960.88
643.58	955.02
643.92	948.79
644.26	942.61
644.61	936.55
644.95	930.55
645.29	923.88
645.64	917.20
645.98	910.97
646.32	905.12
646.66	899.07
647.01	893.33
647.35	887.65
647.69	881.87
648.04	876.34
648.38	870.56
648.72	864.52
649.06	858.48
649.41	852.69
649.75	846.70
650.09	840.81
650.43	835.04
650.78	828.94
651.12	822.98
651.46	817.33
651.80	811.50
652.14	806.16
652.49	800.81
652.83	795.60
653.17	789.81
653.51	784.02
653.85	778.66
654.20	772.92
654.54	766.99
654.88	761.27
655.22	755.38
655.56	749.64
655.90	744.30
656.25	739.07
656.59	733.69
656.93	728.62
657.27	723.38
657.61	717.88
657.95	712.82
658.29	707.80
658.64	702.55
658.98	697.34
659.32	691.87
659.66	686.66
660.00	681.33
660.34	676.48
660.68	671.64
661.02	666.62
661.36	661.96
661.70	657.47
662.05	653.09
662.39	648.77
662.73	644.38
663.07	639.93
663.41	635.50
663.75	631.01
664.09	626.41
664.43	622.06
664.77	617.93
665.11	613.67
665.45	609.57
665.79	605.53
666.13	601.38
666.47	597.31
666.81	593.14
667.15	589.03
667.49	585.17
667.83	581.37
668.17	577.45
668.51	573.39
668.85	569.38
669.19	565.54
669.53	561.70
669.87	557.81
670.21	554.13
670.55	550.49
670.89	547.09
671.23	543.72
671.57	540.22
671.91	536.69
672.25	533.22
672.58	529.72
672.92	526.33
673.26	523.20
673.60	520.06
673.94	517.03
674.28	514.16
674.62	511.14
674.96	508.00
675.30	505.12
675.64	502.23
675.97	499.50
676.31	496.65
676.65	493.72
676.99	491.03
677.33	488.17
677.67	485.31
678.01	482.30
678.34	479.33
678.68	476.48
679.02	473.73
679.36	470.99
679.70	468.34
680.04	465.61
680.37	462.75
680.71	459.92
681.05	457.26
681.39	454.53
681.73	451.92
682.06	449.43
682.40	446.85
682.74	444.37
683.08	441.82
683.42	439.26
683.75	436.80
684.09	434.29
684.43	431.85
684.77	429.45
685.10	427.10
685.44	424.84
685.78	422.55
686.12	420.31
686.45	418.02
686.79	415.70
687.13	413.47
687.46	411.31
687.80	409.21
688.14	407.07
688.48	405.02
688.81	402.79
689.15	400.67
689.49	398.52
689.82	396.42
690.16	394.32
690.50	392.40
690.83	390.45
691.17	388.48
691.51	386.56
691.84	384.70
692.18	382.77
692.52	380.76
692.85	378.81
693.19	376.94
693.52	375.14
693.86	373.35
694.20	371.60
694.53	369.80
694.87	367.97
695.21	366.19
695.54	364.38
695.88	362.67
696.21	360.98
696.55	359.31
696.88	357.61
697.22	355.97
697.56	354.33
697.89	352.64
698.23	350.99
698.56	349.36
698.90	347.75
699.23	346.10
699.57	344.52
699.90	342.98
700.24	341.39
700.58	339.87
700.91	338.38
701.25	336.90
701.58	335.53
701.92	334.17
702.25	332.77
702.59	331.43
702.92	330.08
703.26	328.74
703.59	327.47
703.93	326.32
704.26	325.07
704.60	323.80
704.93	322.59
705.26	321.37
705.60	320.26
705.93	319.14
706.27	318.13
706.60	317.11
706.94	316.05
707.27	314.95
707.61	313.85
707.94	312.82
708.27	311.75
708.61	310.66
708.94	309.68
709.28	308.68
709.61	307.73
709.94	306.78
710.28	305.75
710.61	304.77
710.95	303.71
711.28	302.85
711.61	301.89
711.95	300.97
712.28	300.01
712.61	298.98
712.95	298.04
713.28	297.17
713.61	296.28
713.95	295.42
714.28	294.55
714.61	293.73
714.95	292.87
715.28	292.02
715.61	291.17
715.95	290.29
716.28	289.47
716.61	288.65
716.95	287.88
717.28	287.15
717.61	286.42
717.94	285.69
718.28	284.86
718.61	284.12
718.94	283.44
719.27	282.79
719.61	282.17
719.94	281.52
720.27	280.77
720.60	280.09
720.94	279.43
721.27	278.90
721.60	278.33
721.93	277.76
722.27	277.20
722.60	276.69
722.93	276.13
723.26	275.57
723.59	275.01
723.93	274.43
724.26	273.87
724.59	273.35
724.92	272.82
725.25	272.33
725.59	271.84
725.92	271.31
726.25	270.81
726.58	270.34
726.91	269.86
727.24	269.39
727.57	268.92
727.91	268.45
728.24	267.95
728.57	267.47
728.90	267.00
729.23	266.54
729.56	266.09
729.89	265.65
730.22	265.19
730.55	264.74
730.89	264.32
731.22	263.88
731.55	263.42
731.88	262.98
732.21	262.55
732.54	262.11
732.87	261.68
733.20	261.30
733.53	260.93
733.86	260.53
734.19	260.16
734.52	259.81
734.85	259.47
735.18	259.04
735.51	258.67
735.84	258.35
736.17	258.01
736.50	257.59
736.83	257.34
737.16	257.02
737.49	256.65
737.82	256.30
738.15	255.99
738.48	255.65
738.81	255.29
739.14	254.96
739.47	254.69
739.80	254.40
740.13	254.08
740.46	253.70
740.79	253.38
741.12	253.09
741.45	252.77
741.78	252.46
742.11	252.19
742.44	251.85
742.77	251.54
743.10	251.22
743.43	250.93
743.75	250.52
744.08	250.37
744.41	250.11
744.74	249.84
745.07	249.56
745.40	249.30
745.73	249.10
746.06	248.81
746.39	248.52
746.71	248.23
747.04	247.93
747.37	247.69
747.70	247.42
748.03	247.17
748.36	246.95
748.68	246.73
749.01	246.45
749.34	246.21
749.67	245.98
750.00	245.76
750.33	245.63
750.65	245.43
750.98	245.10
751.31	244.87
751.64	244.65
751.97	244.48
752.29	244.27
752.62	244.00
752.95	243.79
753.28	243.57
753.60	243.36
753.93	243.22
754.26	243.01
754.59	242.85
754.91	242.64
755.24	242.42
755.57	242.19
755.90	242.02
756.22	241.82
756.55	241.63
756.88	241.42
757.20	241.18
757.53	240.97
757.86	240.77
758.19	240.63
758.51	240.48
758.84	240.29
759.17	240.12
759.49	239.99
759.82	239.87
760.15	239.73
760.47	239.59
760.80	239.42
761.13	239.31
761.45	239.13
761.78	238.95
762.11	238.80
762.43	238.69
762.76	238.55
763.08	238.44
763.41	238.32
763.74	238.17
764.06	238.04
764.39	237.95
764.71	237.82
765.04	237.67
765.37	237.51
765.69	237.37
766.02	237.24
766.34	237.08
766.67	236.94
767.00	236.85
767.32	236.77
767.65	236.69
767.97	236.55
768.30	236.42
768.62	236.34
768.95	236.22
769.27	236.07
769.60	235.99
769.92	235.89
770.25	235.78
770.57	235.69
770.90	235.59
771.22	235.45
771.55	235.37
771.87	235.31
772.20	235.24
772.52	235.20
772.85	235.22
773.17	235.14
773.50	235.02
773.82	234.95
774.15	234.84
774.47	234.71
774.80	234.65
775.12	234.59
775.45	234.50
775.77	234.45
776.09	234.40
776.42	234.33
776.74	234.28
777.07	234.18
777.39	234.08
777.72	234.01
778.04	233.94
778.36	233.84
778.69	233.73
779.01	233.65
779.33	233.56
779.66	233.42
779.98	233.37
780.31	233.32
780.63	233.26
780.95	233.20
781.28	233.13
781.60	233.03
781.92	232.98
782.25	232.94
782.57	232.89
782.89	232.83
783.22	232.77
783.54	232.66
783.86	232.62
784.19	232.59
784.51	232.55
784.83	232.51
785.16	232.46
785.48	232.44
785.80	232.39
786.12	232.34
786.45	232.27
786.77	232.23
787.09	232.18
787.42	232.07
787.74	232.03
788.06	231.98
788.38	231.93
788.71	231.86
789.03	231.83
789.35	231.78
789.67	231.72
789.99	231.69
790.32	231.63
790.64	231.61
790.96	231.64
791.28	231.54
791.61	231.49
791.93	231.46
792.25	231.36
792.57	231.38
792.89	231.30
793.21	231.23
793.54	231.18
793.86	231.14
794.18	231.15
794.50	231.08
794.82	231.03
795.14	230.99
795.47	230.98
795.79	230.94
796.11	230.86
796.43	230.79
796.75	230.74
797.07	230.73
797.39	230.68
797.71	230.58
798.04	230.61
798.36	230.56
798.68	230.53
799.00	230.50
799.32	230.42
799.64	230.41
799.96	230.38
800.28	230.32
800.60	230.29
800.92	230.24
801.24	230.20
801.56	230.20
801.89	230.19
802.21	230.15
802.53	230.10
802.85	230.13
803.17	230.13
803.49	230.06
803.81	230.02
804.13	230.01
804.45	229.95
804.77	229.89
805.09	229.87
805.41	229.82
805.73	229.77
806.05	229.71
806.37	229.68
806.69	229.65
807.01	229.63
807.33	229.60
807.65	229.55
807.97	229.57
808.28	229.53
808.60	229.49
808.92	229.45
809.24	229.48
809.56	229.42
809.88	229.41
810.20	229.40
810.52	229.42
810.84	229.34
811.16	229.30
811.48	229.25
811.80	229.25
812.12	229.22
812.43	229.22
812.75	229.20
813.07	229.16
813.39	229.16
813.71	229.12
814.03	229.10
814.35	229.09
814.67	229.01
814.98	228.97
815.30	228.97
815.62	228.98
815.94	228.90
816.26	228.90
816.58	228.86
816.89	228.83
817.21	228.79
817.53	228.80
817.85	228.80
818.17	228.83
818.48	228.79
818.80	228.81
819.12	228.76
819.44	228.73
819.76	228.71
820.07	228.68
820.39	228.70
820.71	228.69
821.03	228.65
821.34	228.63
821.66	228.63
821.98	228.64
822.30	228.59
822.61	228.62
822.93	228.56
823.25	228.54
823.57	228.52
823.88	228.52
824.20	228.48
824.52	228.48
824.83	228.43
825.15	228.39
825.47	228.35
825.79	228.37
826.10	228.37
826.42	228.31
826.74	228.30
827.05	228.27
827.37	228.27
827.69	228.29
828.00	228.30
828.32	228.28
828.64	228.22
828.95	228.27
829.27	228.25
829.58	228.24
829.90	228.27
830.22	228.29
830.53	228.26
830.85	228.28
831.17	228.21
831.48	228.22
831.80	228.26
832.11	228.24
832.43	228.25
832.75	228.22
833.06	228.30
833.38	228.28
833.69	228.28
834.01	228.24
834.32	228.22
834.64	228.22
834.96	228.21
835.27	228.15
835.59	228.11
835.90	228.09
836.22	228.06
836.53	228.02
836.85	227.98
837.16	228.07
837.48	228.05
837.79	228.10
838.11	228.13
838.42	228.12
838.74	228.16
839.05	228.15
839.37	228.16
839.68	228.11
840.00	228.12
840.31	228.11
840.63	228.11
840.94	228.06
841.26	228.05
841.57	228.06
841.88	228.09
842.20	228.03
842.51	228.03
842.83	228.06
843.14	228.17
843.46	228.18
843.77	228.11
844.08	228.11
844.40	228.08
844.71	228.02
845.03	228.01
845.34	227.97
845.65	227.96
845.97	227.94
846.28	227.93
846.60	227.88
846.91	227.91
847.22	227.89
847.54	227.92
847.85	227.93
848.16	227.91
848.48	227.91
848.79	227.99
849.10	227.97
849.42	227.97
849.73	227.86
850.04	227.85
850.36	227.83
850.67	227.85
850.98	227.84
851.30	227.84
851.61	227.82
851.92	227.81
852.23	227.84
852.55	227.84
852.86	227.83
853.17	227.88
853.49	227.82
853.80	227.87
854.11	227.90
854.42	227.88
854.74	227.85
855.05	227.83
855.36	227.77
855.67	227.75
855.99	227.75
856.30	227.86
856.61	227.84
856.92	227.83
857.23	227.83
857.55	227.83
857.86	227.83
858.17	227.84
858.48	227.84
858.79	227.79
859.11	227.79
859.42	227.82
859.73	227.80
860.04	227.84
860.35	227.79
860.66	227.74
860.98	227.79
861.29	227.80
861.60	227.82
861.91	227.83
862.22	227.81
862.53	227.80
862.84	227.70
863.16	227.71
863.47	227.68
863.78	227.66
864.09	227.68
864.40	227.71
864.71	227.71
865.02	227.71
865.33	227.75
865.64	227.76
865.95	227.76
866.27	227.83
866.58	227.80
866.89	227.80
867.20	227.80
867.51	227.78
867.82	227.79
868.13	227.80
868.44	227.79
868.75	227.82
869.06	227.81
869.37	227.82
869.68	227.80
869.99	227.83
870.30	227.85
870.61	227.85
870.92	227.81
871.23	227.81
871.54	227.86
871.85	227.88
872.16	227.88
872.47	227.84
872.78	227.79
873.09	227.80
873.40	227.79
873.71	227.81
874.02	227.80
874.33	227.75
874.64	227.76
874.95	227.75
875.26	227.71
875.56	227.72
875.87	227.68
876.18	227.68
876.49	227.74
876.80	227.72
877.11	227.69
877.42	227.66
877.73	227.66
878.04	227.60
878.35	227.55
878.66	227.52
878.96	227.53
879.27	227.48
879.58	227.47
879.89	227.46
880.20	227.46
880.51	227.44
880.82	227.48
881.12	227.45
881.43	227.45
881.74	227.46
882.05	227.44
882.36	227.46
882.67	227.46
882.97	227.35
883.28	227.35
883.59	227.34
883.90	227.36
884.21	227.36
884.51	227.34
884.82	227.32
885.13	227.34
885.44	227.32
885.74	227.37
886.05	227.37
886.36	227.41
886.67	227.38
886.98	227.44
887.28	227.42
887.59	227.43
887.90	227.40
888.20	227.37
888.51	227.38
888.82	227.36
889.13	227.34
889.43	227.43
889.74	227.42
890.05	227.45
890.35	227.45
890.66	227.43
890.97	227.43
891.28	227.43
891.58	227.43
891.89	227.43
892.20	227.42
892.50	227.39
892.81	227.38
893.12	227.38
893.42	227.35
893.73	227.35
894.04	227.36
894.34	227.39
894.65	227.42
894.95	227.44
895.26	227.45
895.57	227.54
895.87	227.47
896.18	227.49
896.48	227.50
896.79	227.51
897.10	227.53
897.40	227.57
897.71	227.57
898.01	227.54
898.32	227.59
898.63	227.59
898.93	227.65
899.24	227.65
899.54	227.66
899.85	227.62
900.15	227.61
900.46	227.61
900.76	227.64
901.07	227.64
901.38	227.63
901.68	227.63
901.99	227.57
902.29	227.60
902.60	227.60
902.90	227.57
903.21	227.57
903.51	227.54
903.82	227.57
904.12	227.58
904.43	227.62
904.73	227.58
905.03	227.59
905.34	227.63
905.64	227.65
905.95	227.66
906.25	227.67
906.56	227.71
906.86	227.71
907.17	227.70
907.47	227.69
907.77	227.67
908.08	227.64
908.38	227.66
908.69	227.65
908.99	227.67
909.30	227.66
909.60	227.65
909.90	227.67
910.21	227.63
910.51	227.60
910.81	227.58
911.12	227.57
911.42	227.51
911.73	227.41
912.03	227.40
912.33	227.39
912.64	227.40
912.94	227.38
913.24	227.35
913.55	227.33
913.85	227.30
914.15	227.30
914.46	227.35
914.76	227.31
915.06	227.30
915.37	227.26
915.67	227.27
915.97	227.27
916.27	227.22
916.58	227.20
916.88	227.19
917.18	227.15
917.49	227.21
917.79	227.25
918.09	227.29
918.39	227.27
918.70	227.28
919.00	227.27
919.30	227.29
919.60	227.28
919.91	227.27
920.21	227.27
920.51	227.24
920.81	227.20
921.12	227.21
921.42	227.16
921.72	227.18
922.02	227.15
922.32	227.12
922.63	227.13
922.93	227.16
923.23	227.17
923.53	227.16
923.83	227.07
924.13	227.05
924.44	227.03
924.74	227.06
925.04	227.06
925.34	227.04
925.64	226.99
925.94	226.97
926.24	226.99
926.55	226.99
926.85	227.02
927.15	227.03
927.45	227.01
927.75	227.06
928.05	227.05
928.35	227.03
928.65	227.07
928.95	227.08
929.26	227.07
929.56	227.08
929.86	227.12
930.16	227.16
930.46	227.16
930.76	227.18
931.06	227.15
931.36	227.16
931.66	227.20
931.96	227.22
932.26	227.25
932.56	227.22
932.86	227.23
933.16	227.24
933.46	227.23
933.76	227.24
934.06	227.28
934.36	227.33
934.66	227.36
934.96	227.34
935.26	227.38
935.56	227.41
935.86	227.42
936.16	227.41
936.46	227.40
936.76	227.42
937.06	227.38
937.36	227.37
937.66	227.37
937.96	227.31
938.26	227.29
938.56	227.28
938.86	227.31
939.16	227.35
939.46	227.37
939.76	227.36
940.06	227.38
940.35	227.32
940.65	227.27
940.95	227.27
941.25	227.27
941.55	227.23
941.85	227.20
942.15	227.23
942.45	227.26
942.75	227.26
943.04	227.28
943.34	227.31
943.64	227.31
943.94	227.28
944.24	227.32
944.54	227.29
944.84	227.31
945.13	227.29
945.43	227.22
945.73	227.20
946.03	227.23
946.33	227.22
946.62	227.21
946.92	227.21
947.22	227.22
947.52	227.23
947.82	227.25
948.11	227.24
948.41	227.22
948.71	227.15
949.01	227.18
949.31	227.15
949.60	227.12
949.90	227.14
950.20	227.12
950.50	227.11
950.79	227.12
951.09	227.13
951.39	227.14
951.69	227.16
951.98	227.18
952.28	227.16
952.58	227.14
952.87	227.16
953.17	227.17
953.47	227.15
953.76	227.15
954.06	227.12
954.36	227.10
954.66	227.08
954.95	227.13
955.25	227.09
955.55	227.09
955.84	227.10
956.14	227.10
956.44	227.10
956.73	227.11
957.03	227.11
957.32	227.11
957.62	227.09
957.92	227.09
958.21	227.04
958.51	227.12
958.81	227.12
959.10	227.12
959.40	227.15
959.69	227.13
959.99	227.11
960.29	227.12
960.58	227.11
960.88	227.14
961.17	227.18
961.47	227.20
961.76	227.20
962.06	227.22
962.36	227.21
962.65	227.23
962.95	227.23
963.24	227.23
963.54	227.23
963.83	227.24
964.13	227.26
964.42	227.25
964.72	227.21
965.01	227.23
965.31	227.20
965.60	227.18
965.90	227.25
966.19	227.26
966.49	227.27
966.78	227.29
967.08	227.29
967.37	227.25
967.67	227.25
967.96	227.26
968.26	227.27
968.55	227.27
968.85	227.26
969.14	227.25
969.43	227.24
969.73	227.24
970.02	227.25
970.32	227.22
970.61	227.23
970.91	227.20
971.20	227.17
971.49	227.19
971.79	227.17
972.08	227.10
972.38	227.09
972.67	227.09
972.96	227.10
973.26	227.08
973.55	227.10
973.85	227.08
974.14	227.07
974.43	227.05
974.73	227.01
975.02	226.99
975.31	227.00
975.61	227.01
975.90	227.03
976.19	227.03
976.49	227.07
976.78	227.09
977.07	227.08
977.37	227.07
977.66	227.05
977.95	227.08
978.24	227.11
978.54	227.13
978.83	227.12
979.12	227.11
979.42	227.12
979.71	227.11
980.00	227.11
980.29	227.12
980.59	227.10
980.88	227.16
981.17	227.18
981.46	227.18
981.76	227.19
982.05	227.20
982.34	227.19
982.63	227.16
982.93	227.13
983.22	227.17
983.51	227.20
983.80	227.21
984.09	227.20
984.39	227.16
984.68	227.13
984.97	227.11
985.26	227.11
985.55	227.10
985.85	227.07
986.14	227.08
986.43	227.09
986.72	227.07
987.01	227.01
987.30	227.00
987.59	226.99
987.89	226.96
988.18	226.91
988.47	226.87
988.76	226.87
989.05	226.87
989.34	226.86
989.63	226.90
989.92	226.89
990.22	226.90
990.51	226.88
990.80	226.87
991.09	226.89
991.38	226.92
991.67	226.91
991.96	226.90
992.25	226.90
992.54	226.87
992.83	226.88
993.12	226.89
993.41	226.89
993.70	226.92
993.99	226.95
994.28	226.96
994.58	227.00
994.87	227.01
995.16	227.02
995.45	226.98
995.74	226.92
996.03	226.95
996.32	226.91
996.61	226.95
996.90	226.98
997.19	226.99
997.48	226.96
997.77	226.93
998.06	226.92
998.34	226.92
998.63	226.90
998.92	226.91
999.21	226.93
999.50	226.95
999.79	226.91
1000.08	226.93
1000.37	226.92
1000.66	226.90
1000.95	226.91
1001.24	226.88
1001.53	226.94
1001.82	226.93
1002.11	226.90
1002.40	226.92
1002.68	226.95
1002.97	227.02
1003.26	227.00
1003.55	226.97
1003.84	227.01
1004.13	227.05
1004.42	227.06
1004.71	227.09
1004.99	227.10
1005.28	227.09
1005.57	227.10
1005.86	227.14
1006.15	227.10
1006.44	227.10
1006.72	227.11
1007.01	227.08
1007.30	227.13
1007.59	227.11
1007.88	227.11
1008.17	227.11
1008.45	227.11
1008.74	227.08
1009.03	227.05
1009.32	227.06
1009.60	227.09
1009.89	227.09
1010.18	227.08
1010.47	227.05
1010.76	227.05
1011.04	227.05
1011.33	227.08
1011.62	227.10
1011.91	227.11
1012.19	227.11
1012.48	227.16
1012.77	227.12
1013.05	227.18
1013.34	227.17
1013.63	227.16
1013.92	227.17
1014.20	227.15
1014.49	227.14
1014.78	227.14
1015.06	227.10
1015.35	227.11
1015.64	227.14
1015.92	227.16
1016.21	227.17
1016.50	227.19
1016.78	227.21
1017.07	227.22
1017.36	227.18
1017.64	227.14
1017.93	227.14
1018.22	227.14
1018.50	227.12
1018.79	227.13
1019.08	227.06
1019.36	227.08
1019.65	227.07
1019.93	227.11
1020.22	227.17
1020.51	227.21
1020.79	227.19
1021.08	226.79
1021.36	226.89
1021.65	226.67
1021.94	226.69
1022.22	227.47
1022.51	226.71
1022.79	227.56
1023.08	227.72
1023.36	227.92
1023.65	226.77
>>>>>End Processed Spectral Data<<<<<
