SpectraSuite Data File
++++++++++++++++++++++++++++++++++++
Date: Fri Feb 01 14:59:05 EST 2013
User: group
Dark Spectrum Present: No
Reference Spectrum Present: No
Number of Sampled Component Spectra: 1
Spectrometers: USB2E7196
Integration Time (usec): 35000 (USB2E7196)
Spectra Averaged: 100 (USB2E7196)
Boxcar Smoothing: 10 (USB2E7196)
Correct for Electrical Dark: No (USB2E7196)
Strobe/Lamp Enabled: No (USB2E7196)
Correct for Detector Non-linearity: No (USB2E7196)
Correct for Stray Light: No (USB2E7196)
Number of Pixels in Processed Spectrum: 2048
>>>>>Begin Processed Spectral Data<<<<<
339.09	0.00
339.48	215.51
339.86	216.52
340.24	218.19
340.63	219.65
341.01	222.85
341.39	222.13
341.78	223.67
342.16	224.32
342.54	225.24
342.93	213.71
343.31	224.53
343.69	225.06
344.07	225.54
344.46	225.95
344.84	226.36
345.22	226.58
345.60	226.84
345.99	227.04
346.37	227.22
346.75	227.34
347.13	227.40
347.52	227.49
347.90	227.57
348.28	227.57
348.66	227.61
349.05	227.64
349.43	227.68
349.81	227.74
350.19	227.78
350.57	227.83
350.96	227.93
351.34	227.99
351.72	228.07
352.10	228.16
352.48	228.24
352.87	228.25
353.25	228.31
353.63	228.38
354.01	228.45
354.39	228.51
354.77	228.59
355.15	228.69
355.54	228.72
355.92	228.79
356.30	228.88
356.68	229.04
357.06	229.10
357.44	229.15
357.82	229.24
358.20	229.34
358.58	229.40
358.97	229.44
359.35	229.50
359.73	229.59
360.11	229.65
360.49	229.67
360.87	229.73
361.25	229.81
361.63	229.87
362.01	229.89
362.39	229.91
362.77	229.93
363.15	229.93
363.53	229.95
363.91	229.94
364.29	229.94
364.67	229.83
365.05	229.83
365.43	229.81
365.81	229.82
366.19	229.82
366.57	229.85
366.95	229.83
367.33	229.80
367.71	229.74
368.09	229.76
368.47	229.76
368.85	229.73
369.23	229.71
369.61	229.65
369.99	229.64
370.37	229.62
370.75	229.60
371.13	229.56
371.51	229.51
371.89	229.47
372.27	229.40
372.65	229.36
373.03	229.29
373.41	229.22
373.78	229.15
374.16	229.03
374.54	228.93
374.92	228.85
375.30	228.78
375.68	228.75
376.06	228.63
376.44	228.59
376.82	228.50
377.19	228.36
377.57	228.30
377.95	228.22
378.33	228.13
378.71	228.02
379.09	227.94
379.47	227.85
379.84	227.75
380.22	227.66
380.60	227.54
380.98	227.45
381.36	227.39
381.73	227.30
382.11	227.29
382.49	227.23
382.87	227.13
383.25	227.06
383.62	227.07
384.00	227.01
384.38	226.95
384.76	226.91
385.13	226.92
385.51	226.84
385.89	226.76
386.27	226.72
386.64	226.68
387.02	226.63
387.40	226.58
387.78	226.55
388.15	226.51
388.53	226.51
388.91	226.48
389.29	226.43
389.66	226.42
390.04	226.38
390.42	226.36
390.79	226.35
391.17	226.32
391.55	226.20
391.92	226.16
392.30	226.13
392.68	226.13
393.05	226.15
393.43	226.16
393.81	226.18
394.18	226.18
394.56	226.19
394.94	226.22
395.31	226.24
395.69	226.34
396.06	226.43
396.44	226.44
396.82	226.52
397.19	226.62
397.57	226.65
397.95	226.69
398.32	226.73
398.70	226.82
399.07	226.95
399.45	227.05
399.82	227.17
400.20	227.30
400.58	227.37
400.95	227.43
401.33	227.52
401.70	227.68
402.08	227.76
402.45	227.87
402.83	227.98
403.20	228.11
403.58	228.19
403.95	228.34
404.33	228.51
404.71	228.63
405.08	228.81
405.46	228.97
405.83	229.13
406.21	229.29
406.58	229.45
406.96	229.61
407.33	229.78
407.70	230.00
408.08	230.26
408.45	230.46
408.83	230.67
409.20	230.93
409.58	231.12
409.95	231.42
410.33	231.70
410.70	232.00
411.08	232.28
411.45	232.60
411.82	232.87
412.20	233.21
412.57	233.62
412.95	233.94
413.32	234.35
413.69	234.77
414.07	235.22
414.44	235.69
414.82	236.18
415.19	236.74
415.56	237.27
415.94	237.80
416.31	238.47
416.68	239.15
417.06	239.83
417.43	240.51
417.81	241.22
418.18	242.00
418.55	242.82
418.93	243.73
419.30	244.62
419.67	245.57
420.04	246.51
420.42	247.52
420.79	248.68
421.16	249.82
421.54	251.02
421.91	252.24
422.28	253.48
422.66	254.80
423.03	256.07
423.40	257.38
423.77	258.77
424.15	260.17
424.52	261.61
424.89	263.22
425.26	264.77
425.64	266.24
426.01	267.82
426.38	269.47
426.75	271.07
427.13	272.79
427.50	274.61
427.87	276.52
428.24	278.39
428.61	280.11
428.99	282.07
429.36	284.18
429.73	286.24
430.10	288.29
430.47	290.30
430.85	292.45
431.22	294.68
431.59	297.08
431.96	299.32
432.33	301.82
432.70	304.21
433.08	307.04
433.45	309.69
433.82	312.29
434.19	315.20
434.56	318.03
434.93	320.72
435.30	323.36
435.68	326.27
436.05	329.05
436.42	331.88
436.79	334.35
437.16	337.05
437.53	339.91
437.90	342.75
438.27	345.52
438.64	348.39
439.01	351.09
439.38	353.38
439.75	355.59
440.13	358.08
440.50	360.41
440.87	362.28
441.24	364.25
441.61	366.37
441.98	367.85
442.35	369.70
442.72	371.59
443.09	373.40
443.46	374.39
443.83	375.02
444.20	375.53
444.57	376.42
444.94	376.71
445.31	377.05
445.68	377.42
446.05	377.51
446.42	377.09
446.79	376.61
447.16	376.14
447.53	375.82
447.90	374.68
448.27	373.56
448.64	371.97
449.01	370.83
449.37	368.92
449.74	367.09
450.11	364.86
450.48	362.36
450.85	359.81
451.22	357.64
451.59	355.63
451.96	353.69
452.33	351.12
452.70	348.76
453.07	345.93
453.43	343.02
453.80	340.28
454.17	337.63
454.54	335.05
454.91	332.34
455.28	329.65
455.65	327.14
456.02	324.68
456.38	322.53
456.75	319.86
457.12	317.60
457.49	315.30
457.86	313.16
458.23	311.25
458.59	309.21
458.96	307.12
459.33	305.25
459.70	303.38
460.07	301.80
460.43	300.07
460.80	298.44
461.17	296.97
461.54	295.48
461.91	294.00
462.27	292.56
462.64	291.27
463.01	289.89
463.38	288.61
463.74	287.16
464.11	285.98
464.48	284.94
464.85	283.82
465.21	282.92
465.58	281.96
465.95	280.90
466.32	279.99
466.68	279.06
467.05	278.15
467.42	277.24
467.78	276.32
468.15	275.44
468.52	274.78
468.88	273.90
469.25	273.09
469.62	272.49
469.98	271.82
470.35	271.17
470.72	270.56
471.08	269.86
471.45	269.37
471.82	268.84
472.18	268.23
472.55	267.79
472.92	267.27
473.28	266.78
473.65	266.29
474.02	265.82
474.38	265.45
474.75	265.09
475.11	264.73
475.48	264.46
475.85	264.21
476.21	263.93
476.58	263.75
476.94	263.59
477.31	263.38
477.67	263.21
478.04	263.11
478.41	263.05
478.77	263.09
479.14	262.98
479.50	262.97
479.87	263.05
480.23	263.13
480.60	263.17
480.96	263.26
481.33	263.47
481.69	263.65
482.06	263.85
482.42	264.08
482.79	264.35
483.15	264.65
483.52	265.03
483.88	265.36
484.25	265.73
484.61	266.14
484.98	266.60
485.34	267.16
485.71	267.75
486.07	268.36
486.44	268.96
486.80	269.64
487.17	270.36
487.53	271.15
487.90	272.00
488.26	272.97
488.62	273.95
488.99	274.94
489.35	276.01
489.72	277.11
490.08	278.27
490.44	279.53
490.81	280.87
491.17	282.19
491.54	283.70
491.90	285.26
492.26	286.91
492.63	288.62
492.99	290.39
493.36	292.26
493.72	294.32
494.08	296.36
494.45	298.65
494.81	300.98
495.17	303.42
495.54	305.94
495.90	308.64
496.26	311.45
496.63	314.38
496.99	317.48
497.35	320.71
497.72	324.10
498.08	327.57
498.44	331.17
498.80	335.09
499.17	339.11
499.53	343.19
499.89	347.53
500.26	352.00
500.62	356.65
500.98	361.55
501.34	366.64
501.71	371.99
502.07	377.38
502.43	383.00
502.79	388.80
503.16	394.89
503.52	401.11
503.88	407.43
504.24	414.09
504.60	420.95
504.97	428.10
505.33	435.44
505.69	443.13
506.05	450.90
506.41	458.74
506.78	466.92
507.14	475.36
507.50	484.12
507.86	493.11
508.22	502.28
508.59	511.42
508.95	520.98
509.31	530.71
509.67	540.80
510.03	551.04
510.39	561.58
510.75	572.35
511.12	583.24
511.48	594.54
511.84	605.92
512.20	617.47
512.56	629.36
512.92	641.47
513.28	653.70
513.64	666.25
514.00	678.92
514.37	691.84
514.73	704.87
515.09	717.87
515.45	731.22
515.81	744.81
516.17	758.89
516.53	772.99
516.89	787.13
517.25	801.30
517.61	815.76
517.97	830.24
518.33	844.65
518.69	859.36
519.05	874.35
519.41	889.52
519.77	905.03
520.13	920.56
520.49	935.99
520.85	951.62
521.21	967.42
521.57	983.65
521.93	999.41
522.29	1015.85
522.65	1032.15
523.01	1048.40
523.37	1064.55
523.73	1080.79
524.09	1096.85
524.45	1113.34
524.81	1130.09
525.17	1147.00
525.53	1163.90
525.89	1180.89
526.25	1197.93
526.61	1214.37
526.97	1231.17
527.33	1247.73
527.68	1264.34
528.04	1280.89
528.40	1297.53
528.76	1314.59
529.12	1331.37
529.48	1348.36
529.84	1364.58
530.20	1381.37
530.56	1398.54
530.91	1415.94
531.27	1432.72
531.63	1449.35
531.99	1465.98
532.35	1482.02
532.71	1497.92
533.07	1514.36
533.42	1530.29
533.78	1546.42
534.14	1562.86
534.50	1578.34
534.86	1594.34
535.21	1609.54
535.57	1625.64
535.93	1641.13
536.29	1656.00
536.65	1671.13
537.00	1686.07
537.36	1701.49
537.72	1715.99
538.08	1730.38
538.44	1744.38
538.79	1758.41
539.15	1772.33
539.51	1786.23
539.87	1800.72
540.22	1814.52
540.58	1828.31
540.94	1841.82
541.29	1854.82
541.65	1867.64
542.01	1880.97
542.37	1893.26
542.72	1905.79
543.08	1917.63
543.44	1930.20
543.79	1941.38
544.15	1952.40
544.51	1963.96
544.87	1974.87
545.22	1985.74
545.58	1996.01
545.94	2005.79
546.29	2015.75
546.65	2025.40
547.01	2034.60
547.36	2043.35
547.72	2051.89
548.07	2059.80
548.43	2067.98
548.79	2076.11
549.14	2083.63
549.50	2091.13
549.86	2099.01
550.21	2106.49
550.57	2113.75
550.92	2120.30
551.28	2127.58
551.64	2134.72
551.99	2141.29
552.35	2147.49
552.70	2153.62
553.06	2159.52
553.41	2165.85
553.77	2171.87
554.13	2178.03
554.48	2184.05
554.84	2189.37
555.19	2194.70
555.55	2199.72
555.90	2204.17
556.26	2209.03
556.61	2213.57
556.97	2217.49
557.32	2221.59
557.68	2225.65
558.03	2229.81
558.39	2233.51
558.74	2237.97
559.10	2241.67
559.45	2245.22
559.81	2249.63
560.16	2253.28
560.52	2256.63
560.87	2259.95
561.23	2262.45
561.58	2265.36
561.94	2267.85
562.29	2270.22
562.64	2272.70
563.00	2275.43
563.35	2278.83
563.71	2281.59
564.06	2284.73
564.42	2287.72
564.77	2290.02
565.12	2292.07
565.48	2293.69
565.83	2295.28
566.19	2296.36
566.54	2297.31
566.89	2298.38
567.25	2298.77
567.60	2300.20
567.96	2301.65
568.31	2302.45
568.66	2303.40
569.02	2303.75
569.37	2303.94
569.72	2304.59
570.08	2304.66
570.43	2304.41
570.78	2303.64
571.14	2302.20
571.49	2300.76
571.84	2300.16
572.20	2298.78
572.55	2297.67
572.90	2296.12
573.26	2294.80
573.61	2293.01
573.96	2290.93
574.31	2287.80
574.67	2284.45
575.02	2280.55
575.37	2277.06
575.72	2272.95
576.08	2269.58
576.43	2266.17
576.78	2262.36
577.13	2259.13
577.49	2255.94
577.84	2252.33
578.19	2248.48
578.54	2244.45
578.90	2240.04
579.25	2234.37
579.60	2229.24
579.95	2223.92
580.30	2218.80
580.66	2213.35
581.01	2208.48
581.36	2203.46
581.71	2199.09
582.06	2194.56
582.42	2189.90
582.77	2184.56
583.12	2179.90
583.47	2174.94
583.82	2169.74
584.17	2164.42
584.53	2158.73
584.88	2152.97
585.23	2146.99
585.58	2141.46
585.93	2135.99
586.28	2131.23
586.63	2126.03
586.98	2120.98
587.34	2116.33
587.69	2111.35
588.04	2106.01
588.39	2100.18
588.74	2093.62
589.09	2087.39
589.44	2080.46
589.79	2074.42
590.14	2068.58
590.49	2061.92
590.84	2055.35
591.19	2049.17
591.54	2042.60
591.89	2035.07
592.25	2028.09
592.60	2020.87
592.95	2013.10
593.30	2005.67
593.65	1997.88
594.00	1990.81
594.35	1983.46
594.70	1975.34
595.05	1967.89
595.40	1960.65
595.75	1953.03
596.10	1946.69
596.45	1939.80
596.80	1933.57
597.15	1926.72
597.50	1919.54
597.85	1913.04
598.19	1906.42
598.54	1899.37
598.89	1892.68
599.24	1886.77
599.59	1880.00
599.94	1873.73
600.29	1867.42
600.64	1860.83
600.99	1853.31
601.34	1846.37
601.69	1839.35
602.04	1832.37
602.39	1824.91
602.74	1817.90
603.08	1811.12
603.43	1804.30
603.78	1796.89
604.13	1789.55
604.48	1782.34
604.83	1775.51
605.18	1768.41
605.53	1760.44
605.87	1752.22
606.22	1744.90
606.57	1736.94
606.92	1729.81
607.27	1722.54
607.62	1715.58
607.96	1708.25
608.31	1701.60
608.66	1694.01
609.01	1686.34
609.36	1678.83
609.70	1670.98
610.05	1662.85
610.40	1655.14
610.75	1646.91
611.10	1639.41
611.44	1631.19
611.79	1623.15
612.14	1614.36
612.49	1605.26
612.83	1596.88
613.18	1589.07
613.53	1581.01
613.88	1572.53
614.22	1564.12
614.57	1555.58
614.92	1547.49
615.27	1539.89
615.61	1531.68
615.96	1523.66
616.31	1516.12
616.65	1508.68
617.00	1501.11
617.35	1493.51
617.70	1485.09
618.04	1476.66
618.39	1468.42
618.74	1460.86
619.08	1452.76
619.43	1445.36
619.78	1438.60
620.12	1431.35
620.47	1423.66
620.82	1415.55
621.16	1408.23
621.51	1400.65
621.85	1393.17
622.20	1384.74
622.55	1376.40
622.89	1368.58
623.24	1361.07
623.59	1353.76
623.93	1346.31
624.28	1339.05
624.62	1331.51
624.97	1324.48
625.32	1317.84
625.66	1310.85
626.01	1303.59
626.35	1296.00
626.70	1288.30
627.04	1280.48
627.39	1272.88
627.73	1265.62
628.08	1258.72
628.43	1251.32
628.77	1243.98
629.12	1236.30
629.46	1229.17
629.81	1221.91
630.15	1214.74
630.50	1207.33
630.84	1199.16
631.19	1191.32
631.53	1183.95
631.88	1176.46
632.22	1168.87
632.57	1161.55
632.91	1154.09
633.26	1146.84
633.60	1139.65
633.95	1132.68
634.29	1125.79
634.64	1119.08
634.98	1111.71
635.32	1104.63
635.67	1098.22
636.01	1091.67
636.36	1084.92
636.70	1078.50
637.05	1071.95
637.39	1065.44
637.73	1058.95
638.08	1053.16
638.42	1047.18
638.77	1040.69
639.11	1034.18
639.45	1027.81
639.80	1021.20
640.14	1014.72
640.49	1008.16
640.83	1001.89
641.17	995.65
641.52	989.32
641.86	983.02
642.20	977.31
642.55	971.12
642.89	964.56
643.23	958.00
643.58	952.36
643.92	946.09
644.26	940.06
644.61	934.14
644.95	928.21
645.29	921.64
645.64	914.93
645.98	908.71
646.32	902.95
646.66	897.01
647.01	891.21
647.35	885.59
647.69	879.84
648.04	874.32
648.38	868.48
648.72	862.50
649.06	856.43
649.41	850.52
649.75	844.50
650.09	838.64
650.43	832.86
650.78	826.66
651.12	820.73
651.46	814.93
651.80	809.12
652.14	803.72
652.49	798.33
652.83	793.22
653.17	787.46
653.51	781.71
653.85	776.30
654.20	770.64
654.54	764.60
654.88	758.98
655.22	753.16
655.56	747.53
655.90	742.10
656.25	736.88
656.59	731.53
656.93	726.47
657.27	721.30
657.61	715.93
657.95	710.90
658.29	705.86
658.64	700.71
658.98	695.54
659.32	690.07
659.66	684.95
660.00	679.65
660.34	674.84
660.68	669.99
661.02	665.04
661.36	660.38
661.70	656.02
662.05	651.61
662.39	647.21
662.73	642.82
663.07	638.47
663.41	633.98
663.75	629.47
664.09	624.93
664.43	620.61
664.77	616.56
665.11	612.32
665.45	608.28
665.79	604.30
666.13	600.12
666.47	596.03
666.81	591.87
667.15	587.81
667.49	583.93
667.83	580.13
668.17	576.18
668.51	572.16
668.85	568.12
669.19	564.29
669.53	560.47
669.87	556.57
670.21	552.91
670.55	549.35
670.89	545.98
671.23	542.66
671.57	539.17
671.91	535.64
672.25	532.24
672.58	528.74
672.92	525.35
673.26	522.27
673.60	519.16
673.94	516.07
674.28	513.21
674.62	510.26
674.96	507.18
675.30	504.33
675.64	501.41
675.97	498.70
676.31	495.86
676.65	493.01
676.99	490.31
677.33	487.50
677.67	484.69
678.01	481.68
678.34	478.67
678.68	475.83
679.02	473.01
679.36	470.25
679.70	467.54
680.04	464.75
680.37	461.90
680.71	459.19
681.05	456.66
681.39	453.94
681.73	451.32
682.06	448.79
682.40	446.22
682.74	443.77
683.08	441.26
683.42	438.71
683.75	436.27
684.09	433.77
684.43	431.27
684.77	428.85
685.10	426.54
685.44	424.29
685.78	421.97
686.12	419.81
686.45	417.53
686.79	415.23
687.13	413.05
687.46	410.89
687.80	408.71
688.14	406.53
688.48	404.43
688.81	402.21
689.15	400.08
689.49	398.00
689.82	395.88
690.16	393.78
690.50	391.83
690.83	389.85
691.17	387.89
691.51	386.00
691.84	384.15
692.18	382.18
692.52	380.21
692.85	378.35
693.19	376.46
693.52	374.69
693.86	372.94
694.20	371.15
694.53	369.43
694.87	367.62
695.21	365.81
695.54	364.02
695.88	362.32
696.21	360.61
696.55	358.92
696.88	357.24
697.22	355.58
697.56	353.93
697.89	352.28
698.23	350.68
698.56	349.07
698.90	347.45
699.23	345.85
699.57	344.25
699.90	342.66
700.24	341.08
700.58	339.46
700.91	337.93
701.25	336.53
701.58	335.15
701.92	333.79
702.25	332.39
702.59	331.00
702.92	329.66
703.26	328.36
703.59	327.10
703.93	325.90
704.26	324.67
704.60	323.41
704.93	322.13
705.26	320.89
705.60	319.77
705.93	318.62
706.27	317.58
706.60	316.56
706.94	315.52
707.27	314.44
707.61	313.47
707.94	312.46
708.27	311.38
708.61	310.30
708.94	309.31
709.28	308.36
709.61	307.44
709.94	306.53
710.28	305.57
710.61	304.57
710.95	303.56
711.28	302.65
711.61	301.69
711.95	300.81
712.28	299.88
712.61	298.87
712.95	298.00
713.28	297.16
713.61	296.24
713.95	295.37
714.28	294.58
714.61	293.70
714.95	292.88
715.28	292.02
715.61	291.18
715.95	290.35
716.28	289.55
716.61	288.76
716.95	287.98
717.28	287.26
717.61	286.55
717.94	285.82
718.28	285.02
718.61	284.33
718.94	283.68
719.27	283.04
719.61	282.45
719.94	281.81
720.27	281.08
720.60	280.49
720.94	279.86
721.27	279.22
721.60	278.64
721.93	278.06
722.27	277.54
722.60	276.98
722.93	276.42
723.26	275.85
723.59	275.30
723.93	274.70
724.26	274.11
724.59	273.57
724.92	273.06
725.25	272.59
725.59	272.06
725.92	271.53
726.25	271.03
726.58	270.57
726.91	270.04
727.24	269.57
727.57	269.10
727.91	268.61
728.24	268.17
728.57	267.70
728.90	267.27
729.23	266.77
729.56	266.41
729.89	265.93
730.22	265.42
730.55	264.94
730.89	264.53
731.22	264.08
731.55	263.62
731.88	263.23
732.21	262.76
732.54	262.36
732.87	261.95
733.20	261.54
733.53	261.12
733.86	260.77
734.19	260.37
734.52	259.98
734.85	259.66
735.18	259.23
735.51	258.85
735.84	258.45
736.17	258.08
736.50	257.59
736.83	257.35
737.16	257.04
737.49	256.68
737.82	256.30
738.15	255.94
738.48	255.60
738.81	255.25
739.14	254.96
739.47	254.59
739.80	254.26
740.13	253.94
740.46	253.61
740.79	253.26
741.12	252.94
741.45	252.58
741.78	252.22
742.11	251.93
742.44	251.63
742.77	251.33
743.10	251.02
743.43	250.77
743.75	250.36
744.08	250.20
744.41	249.92
744.74	249.65
745.07	249.40
745.40	249.14
745.73	248.90
746.06	248.59
746.39	248.36
746.71	248.05
747.04	247.79
747.37	247.53
747.70	247.27
748.03	247.04
748.36	246.86
748.68	246.62
749.01	246.37
749.34	246.12
749.67	245.89
750.00	245.69
750.33	245.51
750.65	245.32
750.98	244.98
751.31	244.81
751.64	244.62
751.97	244.47
752.29	244.27
752.62	244.01
752.95	243.78
753.28	243.59
753.60	243.41
753.93	243.27
754.26	243.07
754.59	242.87
754.91	242.64
755.24	242.45
755.57	242.26
755.90	242.10
756.22	241.89
756.55	241.75
756.88	241.56
757.20	241.36
757.53	241.16
757.86	241.04
758.19	240.86
758.51	240.73
758.84	240.53
759.17	240.37
759.49	240.24
759.82	240.18
760.15	240.03
760.47	239.92
760.80	239.71
761.13	239.62
761.45	239.50
761.78	239.37
762.11	239.22
762.43	239.09
762.76	238.96
763.08	238.87
763.41	238.71
763.74	238.60
764.06	238.44
764.39	238.31
764.71	238.13
765.04	238.02
765.37	237.88
765.69	237.74
766.02	237.61
766.34	237.49
766.67	237.29
767.00	237.22
767.32	237.15
767.65	237.11
767.97	236.98
768.30	236.87
768.62	236.77
768.95	236.66
769.27	236.56
769.60	236.45
769.92	236.34
770.25	236.24
770.57	236.11
770.90	236.00
771.22	235.91
771.55	235.84
771.87	235.74
772.20	235.63
772.52	235.64
772.85	235.63
773.17	235.52
773.50	235.43
773.82	235.29
774.15	235.12
774.47	234.96
774.80	234.86
775.12	234.78
775.45	234.66
775.77	234.55
776.09	234.47
776.42	234.39
776.74	234.35
777.07	234.24
777.39	234.16
777.72	234.05
778.04	233.99
778.36	233.86
778.69	233.78
779.01	233.70
779.33	233.49
779.66	233.32
779.98	233.22
780.31	233.20
780.63	233.16
780.95	233.11
781.28	233.06
781.60	232.96
781.92	232.83
782.25	232.74
782.57	232.69
782.89	232.61
783.22	232.53
783.54	232.40
783.86	232.33
784.19	232.27
784.51	232.25
784.83	232.16
785.16	232.11
785.48	232.02
785.80	231.95
786.12	231.93
786.45	231.91
786.77	231.86
787.09	231.75
787.42	231.66
787.74	231.58
788.06	231.51
788.38	231.48
788.71	231.44
789.03	231.45
789.35	231.41
789.67	231.31
789.99	231.30
790.32	231.27
790.64	231.25
790.96	231.29
791.28	231.22
791.61	231.21
791.93	231.21
792.25	231.19
792.57	231.27
792.89	231.18
793.21	231.14
793.54	231.13
793.86	231.12
794.18	231.09
794.50	231.09
794.82	231.07
795.14	231.06
795.47	231.10
795.79	231.07
796.11	231.05
796.43	231.06
796.75	231.03
797.07	231.00
797.39	230.98
797.71	230.90
798.04	230.93
798.36	230.88
798.68	230.82
799.00	230.81
799.32	230.73
799.64	230.75
799.96	230.75
800.28	230.73
800.60	230.69
800.92	230.70
801.24	230.68
801.56	230.66
801.89	230.63
802.21	230.59
802.53	230.56
802.85	230.54
803.17	230.58
803.49	230.55
803.81	230.53
804.13	230.48
804.45	230.46
804.77	230.44
805.09	230.48
805.41	230.48
805.73	230.45
806.05	230.40
806.37	230.36
806.69	230.33
807.01	230.31
807.33	230.32
807.65	230.27
807.97	230.29
808.28	230.24
808.60	230.20
808.92	230.14
809.24	230.14
809.56	230.11
809.88	230.02
810.20	229.97
810.52	229.96
810.84	229.95
811.16	229.89
811.48	229.85
811.80	229.83
812.12	229.79
812.43	229.80
812.75	229.78
813.07	229.77
813.39	229.75
813.71	229.68
814.03	229.61
814.35	229.58
814.67	229.50
814.98	229.45
815.30	229.47
815.62	229.46
815.94	229.36
816.26	229.36
816.58	229.31
816.89	229.31
817.21	229.24
817.53	229.19
817.85	229.17
818.17	229.12
818.48	229.01
818.80	229.02
819.12	228.96
819.44	228.90
819.76	228.88
820.07	228.82
820.39	228.83
820.71	228.82
821.03	228.80
821.34	228.79
821.66	228.77
821.98	228.73
822.30	228.68
822.61	228.73
822.93	228.66
823.25	228.66
823.57	228.63
823.88	228.66
824.20	228.66
824.52	228.67
824.83	228.63
825.15	228.64
825.47	228.60
825.79	228.57
826.10	228.57
826.42	228.55
826.74	228.56
827.05	228.53
827.37	228.52
827.69	228.49
828.00	228.46
828.32	228.47
828.64	228.43
828.95	228.49
829.27	228.47
829.58	228.48
829.90	228.48
830.22	228.47
830.53	228.41
830.85	228.40
831.17	228.35
831.48	228.34
831.80	228.33
832.11	228.30
832.43	228.31
832.75	228.32
833.06	228.32
833.38	228.30
833.69	228.24
834.01	228.25
834.32	228.24
834.64	228.24
834.96	228.23
835.27	228.24
835.59	228.23
835.90	228.25
836.22	228.26
836.53	228.23
836.85	228.22
837.16	228.31
837.48	228.33
837.79	228.38
838.11	228.40
838.42	228.38
838.74	228.46
839.05	228.44
839.37	228.44
839.68	228.38
840.00	228.37
840.31	228.45
840.63	228.44
840.94	228.47
841.26	228.46
841.57	228.43
841.88	228.44
842.20	228.38
842.51	228.34
842.83	228.35
843.14	228.47
843.46	228.50
843.77	228.49
844.08	228.50
844.40	228.48
844.71	228.45
845.03	228.46
845.34	228.40
845.65	228.40
845.97	228.38
846.28	228.43
846.60	228.43
846.91	228.40
847.22	228.40
847.54	228.41
847.85	228.44
848.16	228.47
848.48	228.46
848.79	228.52
849.10	228.53
849.42	228.52
849.73	228.42
850.04	228.39
850.36	228.30
850.67	228.30
850.98	228.28
851.30	228.29
851.61	228.30
851.92	228.27
852.23	228.30
852.55	228.32
852.86	228.28
853.17	228.30
853.49	228.29
853.80	228.28
854.11	228.27
854.42	228.25
854.74	228.23
855.05	228.22
855.36	228.14
855.67	228.12
855.99	228.11
856.30	228.22
856.61	228.21
856.92	228.23
857.23	228.20
857.55	228.15
857.86	228.14
858.17	228.14
858.48	228.13
858.79	228.09
859.11	228.08
859.42	228.07
859.73	228.04
860.04	228.01
860.35	227.96
860.66	227.91
860.98	227.90
861.29	227.89
861.60	227.85
861.91	227.85
862.22	227.81
862.53	227.76
862.84	227.62
863.16	227.62
863.47	227.57
863.78	227.56
864.09	227.54
864.40	227.55
864.71	227.53
865.02	227.57
865.33	227.56
865.64	227.53
865.95	227.50
866.27	227.56
866.58	227.54
866.89	227.56
867.20	227.59
867.51	227.54
867.82	227.50
868.13	227.54
868.44	227.53
868.75	227.55
869.06	227.57
869.37	227.56
869.68	227.56
869.99	227.57
870.30	227.60
870.61	227.62
870.92	227.60
871.23	227.61
871.54	227.60
871.85	227.58
872.16	227.61
872.47	227.64
872.78	227.58
873.09	227.63
873.40	227.61
873.71	227.59
874.02	227.62
874.33	227.63
874.64	227.61
874.95	227.67
875.26	227.64
875.56	227.66
875.87	227.65
876.18	227.63
876.49	227.75
876.80	227.74
877.11	227.77
877.42	227.79
877.73	227.79
878.04	227.79
878.35	227.82
878.66	227.80
878.96	227.78
879.27	227.78
879.58	227.78
879.89	227.82
880.20	227.87
880.51	227.87
880.82	227.88
881.12	227.90
881.43	227.86
881.74	227.87
882.05	227.88
882.36	227.92
882.67	227.92
882.97	227.84
883.28	227.83
883.59	227.81
883.90	227.80
884.21	227.80
884.51	227.78
884.82	227.80
885.13	227.81
885.44	227.84
885.74	227.85
886.05	227.86
886.36	227.82
886.67	227.79
886.98	227.86
887.28	227.87
887.59	227.86
887.90	227.87
888.20	227.87
888.51	227.88
888.82	227.86
889.13	227.90
889.43	227.93
889.74	227.92
890.05	227.91
890.35	227.91
890.66	227.89
890.97	227.88
891.28	227.86
891.58	227.83
891.89	227.80
892.20	227.78
892.50	227.75
892.81	227.74
893.12	227.73
893.42	227.67
893.73	227.67
894.04	227.64
894.34	227.64
894.65	227.63
894.95	227.59
895.26	227.59
895.57	227.60
895.87	227.51
896.18	227.50
896.48	227.49
896.79	227.47
897.10	227.46
897.40	227.46
897.71	227.44
898.01	227.43
898.32	227.46
898.63	227.46
898.93	227.46
899.24	227.45
899.54	227.44
899.85	227.37
900.15	227.35
900.46	227.38
900.76	227.37
901.07	227.36
901.38	227.34
901.68	227.33
901.99	227.28
902.29	227.28
902.60	227.26
902.90	227.29
903.21	227.29
903.51	227.29
903.82	227.29
904.12	227.29
904.43	227.29
904.73	227.27
905.03	227.25
905.34	227.33
905.64	227.35
905.95	227.36
906.25	227.37
906.56	227.35
906.86	227.32
907.17	227.31
907.47	227.29
907.77	227.30
908.08	227.28
908.38	227.27
908.69	227.31
908.99	227.34
909.30	227.32
909.60	227.33
909.90	227.35
910.21	227.34
910.51	227.32
910.81	227.33
911.12	227.34
911.42	227.34
911.73	227.24
912.03	227.26
912.33	227.24
912.64	227.22
912.94	227.25
913.24	227.24
913.55	227.20
913.85	227.24
914.15	227.25
914.46	227.24
914.76	227.26
915.06	227.25
915.37	227.25
915.67	227.22
915.97	227.19
916.27	227.16
916.58	227.16
916.88	227.17
917.18	227.15
917.49	227.21
917.79	227.21
918.09	227.23
918.39	227.27
918.70	227.28
919.00	227.27
919.30	227.32
919.60	227.32
919.91	227.33
920.21	227.32
920.51	227.31
920.81	227.34
921.12	227.36
921.42	227.38
921.72	227.38
922.02	227.39
922.32	227.44
922.63	227.44
922.93	227.47
923.23	227.46
923.53	227.47
923.83	227.42
924.13	227.44
924.44	227.41
924.74	227.38
925.04	227.41
925.34	227.43
925.64	227.38
925.94	227.38
926.24	227.44
926.55	227.43
926.85	227.41
927.15	227.39
927.45	227.37
927.75	227.31
928.05	227.31
928.35	227.34
928.65	227.33
928.95	227.35
929.26	227.32
929.56	227.38
929.86	227.39
930.16	227.37
930.46	227.35
930.76	227.38
931.06	227.37
931.36	227.36
931.66	227.40
931.96	227.41
932.26	227.42
932.56	227.34
932.86	227.34
933.16	227.35
933.46	227.37
933.76	227.36
934.06	227.40
934.36	227.43
934.66	227.41
934.96	227.44
935.26	227.44
935.56	227.43
935.86	227.39
936.16	227.38
936.46	227.41
936.76	227.39
937.06	227.36
937.36	227.34
937.66	227.34
937.96	227.32
938.26	227.31
938.56	227.31
938.86	227.35
939.16	227.38
939.46	227.40
939.76	227.38
940.06	227.37
940.35	227.38
940.65	227.32
940.95	227.31
941.25	227.27
941.55	227.30
941.85	227.30
942.15	227.30
942.45	227.32
942.75	227.32
943.04	227.33
943.34	227.36
943.64	227.37
943.94	227.35
944.24	227.32
944.54	227.34
944.84	227.35
945.13	227.34
945.43	227.33
945.73	227.31
946.03	227.28
946.33	227.30
946.62	227.28
946.92	227.28
947.22	227.26
947.52	227.27
947.82	227.25
948.11	227.24
948.41	227.23
948.71	227.23
949.01	227.22
949.31	227.21
949.60	227.20
949.90	227.20
950.20	227.21
950.50	227.17
950.79	227.15
951.09	227.14
951.39	227.11
951.69	227.12
951.98	227.15
952.28	227.14
952.58	227.14
952.87	227.13
953.17	227.13
953.47	227.14
953.76	227.14
954.06	227.13
954.36	227.11
954.66	227.11
954.95	227.10
955.25	227.12
955.55	227.12
955.84	227.12
956.14	227.15
956.44	227.16
956.73	227.21
957.03	227.22
957.32	227.21
957.62	227.23
957.92	227.23
958.21	227.20
958.51	227.35
958.81	227.37
959.10	227.38
959.40	227.42
959.69	227.43
959.99	227.45
960.29	227.46
960.58	227.47
960.88	227.50
961.17	227.49
961.47	227.48
961.76	227.45
962.06	227.47
962.36	227.46
962.65	227.49
962.95	227.50
963.24	227.51
963.54	227.52
963.83	227.52
964.13	227.51
964.42	227.50
964.72	227.39
965.01	227.35
965.31	227.33
965.60	227.29
965.90	227.35
966.19	227.32
966.49	227.32
966.78	227.32
967.08	227.29
967.37	227.31
967.67	227.31
967.96	227.37
968.26	227.36
968.55	227.35
968.85	227.30
969.14	227.28
969.43	227.28
969.73	227.29
970.02	227.27
970.32	227.27
970.61	227.26
970.91	227.25
971.20	227.28
971.49	227.30
971.79	227.33
972.08	227.27
972.38	227.27
972.67	227.25
972.96	227.23
973.26	227.23
973.55	227.24
973.85	227.23
974.14	227.22
974.43	227.22
974.73	227.17
975.02	227.15
975.31	227.14
975.61	227.10
975.90	227.06
976.19	227.08
976.49	227.08
976.78	227.09
977.07	227.08
977.37	227.06
977.66	227.05
977.95	227.05
978.24	227.09
978.54	227.08
978.83	227.05
979.12	227.06
979.42	227.07
979.71	227.05
980.00	227.02
980.29	227.00
980.59	226.98
980.88	227.01
981.17	227.03
981.46	227.04
981.76	227.02
982.05	227.08
982.34	227.09
982.63	227.08
982.93	227.07
983.22	227.10
983.51	227.11
983.80	227.13
984.09	227.11
984.39	227.06
984.68	227.10
984.97	227.14
985.26	227.12
985.55	227.12
985.85	227.11
986.14	227.12
986.43	227.16
986.72	227.17
987.01	227.16
987.30	227.15
987.59	227.14
987.89	227.15
988.18	227.09
988.47	227.04
988.76	227.06
989.05	227.06
989.34	227.03
989.63	227.03
989.92	227.00
990.22	227.00
990.51	227.01
990.80	226.99
991.09	226.99
991.38	227.02
991.67	227.00
991.96	227.00
992.25	227.03
992.54	226.99
992.83	227.00
993.12	226.99
993.41	226.99
993.70	227.05
993.99	227.09
994.28	227.09
994.58	227.14
994.87	227.14
995.16	227.16
995.45	227.17
995.74	227.16
996.03	227.19
996.32	227.20
996.61	227.26
996.90	227.27
997.19	227.27
997.48	227.26
997.77	227.27
998.06	227.26
998.34	227.25
998.63	227.25
998.92	227.24
999.21	227.26
999.50	227.28
999.79	227.25
1000.08	227.23
1000.37	227.26
1000.66	227.27
1000.95	227.28
1001.24	227.27
1001.53	227.28
1001.82	227.27
1002.11	227.25
1002.40	227.28
1002.68	227.27
1002.97	227.32
1003.26	227.32
1003.55	227.29
1003.84	227.29
1004.13	227.35
1004.42	227.36
1004.71	227.37
1004.99	227.37
1005.28	227.40
1005.57	227.40
1005.86	227.38
1006.15	227.39
1006.44	227.37
1006.72	227.38
1007.01	227.37
1007.30	227.38
1007.59	227.36
1007.88	227.36
1008.17	227.38
1008.45	227.33
1008.74	227.28
1009.03	227.25
1009.32	227.25
1009.60	227.30
1009.89	227.29
1010.18	227.25
1010.47	227.24
1010.76	227.25
1011.04	227.24
1011.33	227.24
1011.62	227.25
1011.91	227.24
1012.19	227.26
1012.48	227.29
1012.77	227.26
1013.05	227.29
1013.34	227.29
1013.63	227.30
1013.92	227.30
1014.20	227.26
1014.49	227.29
1014.78	227.30
1015.06	227.24
1015.35	227.23
1015.64	227.22
1015.92	227.23
1016.21	227.22
1016.50	227.22
1016.78	227.22
1017.07	227.18
1017.36	227.17
1017.64	227.13
1017.93	227.17
1018.22	227.14
1018.50	227.12
1018.79	227.12
1019.08	227.08
1019.36	227.08
1019.65	227.05
1019.93	227.05
1020.22	227.08
1020.51	227.14
1020.79	227.12
1021.08	226.68
1021.36	227.17
1021.65	227.02
1021.94	227.35
1022.22	227.10
1022.51	226.69
1022.79	226.95
1023.08	227.32
1023.36	228.51
1023.65	226.81
>>>>>End Processed Spectral Data<<<<<
