SpectraSuite Data File
++++++++++++++++++++++++++++++++++++
Date: Fri Feb 01 16:25:29 EST 2013
User: group
Dark Spectrum Present: No
Reference Spectrum Present: No
Number of Sampled Component Spectra: 1
Spectrometers: USB2E7196
Integration Time (usec): 35000 (USB2E7196)
Spectra Averaged: 100 (USB2E7196)
Boxcar Smoothing: 10 (USB2E7196)
Correct for Electrical Dark: No (USB2E7196)
Strobe/Lamp Enabled: No (USB2E7196)
Correct for Detector Non-linearity: No (USB2E7196)
Correct for Stray Light: No (USB2E7196)
Number of Pixels in Processed Spectrum: 2048
>>>>>Begin Processed Spectral Data<<<<<
339.09	0.00
339.48	213.83
339.86	215.42
340.24	216.60
340.63	218.38
341.01	220.73
341.39	220.46
341.78	222.48
342.16	223.49
342.54	224.15
342.93	212.39
343.31	223.13
343.69	223.67
344.07	224.15
344.46	224.59
344.84	224.94
345.22	225.19
345.60	225.49
345.99	225.65
346.37	225.75
346.75	225.85
347.13	225.98
347.52	226.01
347.90	226.05
348.28	226.10
348.66	226.14
349.05	226.17
349.43	226.19
349.81	226.19
350.19	226.18
350.57	226.24
350.96	226.30
351.34	226.37
351.72	226.46
352.10	226.52
352.48	226.62
352.87	226.70
353.25	226.75
353.63	226.76
354.01	226.84
354.39	226.92
354.77	226.98
355.15	227.05
355.54	227.10
355.92	227.14
356.30	227.20
356.68	227.32
357.06	227.35
357.44	227.40
357.82	227.46
358.20	227.57
358.58	227.61
358.97	227.69
359.35	227.74
359.73	227.83
360.11	227.88
360.49	227.91
360.87	227.92
361.25	227.97
361.63	228.05
362.01	228.07
362.39	228.11
362.77	228.15
363.15	228.17
363.53	228.22
363.91	228.28
364.29	228.29
364.67	228.21
365.05	228.25
365.43	228.26
365.81	228.28
366.19	228.29
366.57	228.34
366.95	228.31
367.33	228.27
367.71	228.25
368.09	228.25
368.47	228.21
368.85	228.22
369.23	228.25
369.61	228.19
369.99	228.20
370.37	228.23
370.75	228.24
371.13	228.17
371.51	228.12
371.89	228.05
372.27	228.02
372.65	227.99
373.03	227.92
373.41	227.87
373.78	227.80
374.16	227.72
374.54	227.63
374.92	227.58
375.30	227.54
375.68	227.47
376.06	227.41
376.44	227.38
376.82	227.32
377.19	227.23
377.57	227.19
377.95	227.10
378.33	226.97
378.71	226.86
379.09	226.81
379.47	226.78
379.84	226.72
380.22	226.65
380.60	226.55
380.98	226.51
381.36	226.46
381.73	226.35
382.11	226.31
382.49	226.25
382.87	226.19
383.25	226.13
383.62	226.18
384.00	226.13
384.38	226.05
384.76	226.01
385.13	226.01
385.51	225.97
385.89	225.91
386.27	225.91
386.64	225.88
387.02	225.85
387.40	225.81
387.78	225.77
388.15	225.75
388.53	225.71
388.91	225.69
389.29	225.66
389.66	225.69
390.04	225.67
390.42	225.66
390.79	225.64
391.17	225.65
391.55	225.53
391.92	225.52
392.30	225.55
392.68	225.54
393.05	225.56
393.43	225.53
393.81	225.53
394.18	225.53
394.56	225.52
394.94	225.57
395.31	225.59
395.69	225.64
396.06	225.69
396.44	225.74
396.82	225.75
397.19	225.84
397.57	225.87
397.95	225.90
398.32	225.93
398.70	226.01
399.07	226.04
399.45	226.10
399.82	226.15
400.20	226.21
400.58	226.28
400.95	226.29
401.33	226.43
401.70	226.58
402.08	226.68
402.45	226.76
402.83	226.87
403.20	226.96
403.58	227.02
403.95	227.14
404.33	227.27
404.71	227.38
405.08	227.58
405.46	227.72
405.83	227.90
406.21	228.01
406.58	228.16
406.96	228.34
407.33	228.55
407.70	228.76
408.08	229.03
408.45	229.22
408.83	229.47
409.20	229.68
409.58	229.86
409.95	230.12
410.33	230.41
410.70	230.65
411.08	230.96
411.45	231.29
411.82	231.59
412.20	231.96
412.57	232.39
412.95	232.68
413.32	233.10
413.69	233.48
414.07	233.94
414.44	234.39
414.82	234.83
415.19	235.36
415.56	235.91
415.94	236.42
416.31	237.05
416.68	237.63
417.06	238.33
417.43	239.02
417.81	239.74
418.18	240.50
418.55	241.30
418.93	242.13
419.30	243.05
419.67	243.99
420.04	244.93
420.42	245.92
420.79	247.07
421.16	248.23
421.54	249.44
421.91	250.64
422.28	251.91
422.66	253.29
423.03	254.56
423.40	255.90
423.77	257.30
424.15	258.72
424.52	260.22
424.89	261.78
425.26	263.37
425.64	264.83
426.01	266.42
426.38	268.09
426.75	269.79
427.13	271.48
427.50	273.28
427.87	275.18
428.24	277.05
428.61	278.77
428.99	280.65
429.36	282.76
429.73	284.84
430.10	286.84
430.47	288.86
430.85	291.01
431.22	293.18
431.59	295.51
431.96	297.76
432.33	300.24
432.70	302.63
433.08	305.37
433.45	308.04
433.82	310.67
434.19	313.55
434.56	316.30
434.93	318.89
435.30	321.51
435.68	324.36
436.05	327.14
436.42	329.94
436.79	332.43
437.16	335.07
437.53	337.88
437.90	340.68
438.27	343.40
438.64	346.19
439.01	348.81
439.38	351.08
439.75	353.25
440.13	355.73
440.50	358.04
440.87	359.81
441.24	361.71
441.61	363.84
441.98	365.31
442.35	367.12
442.72	369.02
443.09	370.82
443.46	371.81
443.83	372.44
444.20	372.96
444.57	373.84
444.94	374.13
445.31	374.43
445.68	374.77
446.05	374.86
446.42	374.49
446.79	374.07
447.16	373.64
447.53	373.32
447.90	372.13
448.27	371.01
448.64	369.49
449.01	368.33
449.37	366.38
449.74	364.53
450.11	362.32
450.48	359.86
450.85	357.35
451.22	355.21
451.59	353.20
451.96	351.25
452.33	348.63
452.70	346.34
453.07	343.53
453.43	340.65
453.80	337.90
454.17	335.22
454.54	332.71
454.91	330.01
455.28	327.34
455.65	324.88
456.02	322.41
456.38	320.25
456.75	317.62
457.12	315.37
457.49	313.15
457.86	310.96
458.23	309.10
458.59	307.08
458.96	305.04
459.33	303.22
459.70	301.40
460.07	299.94
460.43	298.20
460.80	296.58
461.17	295.18
461.54	293.67
461.91	292.28
462.27	290.85
462.64	289.61
463.01	288.31
463.38	287.03
463.74	285.70
464.11	284.59
464.48	283.58
464.85	282.47
465.21	281.60
465.58	280.72
465.95	279.63
466.32	278.71
466.68	277.80
467.05	276.84
467.42	275.95
467.78	275.01
468.15	274.15
468.52	273.51
468.88	272.65
469.25	271.90
469.62	271.28
469.98	270.60
470.35	269.96
470.72	269.30
471.08	268.67
471.45	268.13
471.82	267.57
472.18	266.99
472.55	266.57
472.92	266.06
473.28	265.57
473.65	265.16
474.02	264.72
474.38	264.34
474.75	264.06
475.11	263.69
475.48	263.46
475.85	263.20
476.21	262.97
476.58	262.81
476.94	262.66
477.31	262.51
477.67	262.38
478.04	262.25
478.41	262.24
478.77	262.28
479.14	262.22
479.50	262.24
479.87	262.28
480.23	262.34
480.60	262.41
480.96	262.52
481.33	262.72
481.69	262.93
482.06	263.12
482.42	263.31
482.79	263.58
483.15	263.87
483.52	264.27
483.88	264.62
484.25	265.00
484.61	265.44
484.98	265.86
485.34	266.40
485.71	267.02
486.07	267.61
486.44	268.16
486.80	268.85
487.17	269.58
487.53	270.43
487.90	271.30
488.26	272.25
488.62	273.24
488.99	274.20
489.35	275.24
489.72	276.39
490.08	277.55
490.44	278.78
490.81	280.12
491.17	281.44
491.54	282.93
491.90	284.44
492.26	286.07
492.63	287.85
492.99	289.65
493.36	291.52
493.72	293.57
494.08	295.70
494.45	297.97
494.81	300.37
495.17	302.77
495.54	305.36
495.90	308.01
496.26	310.79
496.63	313.83
496.99	316.95
497.35	320.18
497.72	323.60
498.08	327.12
498.44	330.84
498.80	334.79
499.17	338.83
499.53	343.03
499.89	347.41
500.26	351.93
500.62	356.59
500.98	361.59
501.34	366.66
501.71	371.96
502.07	377.46
502.43	383.07
502.79	388.95
503.16	394.98
503.52	401.33
503.88	407.83
504.24	414.39
504.60	421.29
504.97	428.48
505.33	435.86
505.69	443.60
506.05	451.35
506.41	459.23
506.78	467.44
507.14	475.92
507.50	484.65
507.86	493.69
508.22	502.92
508.59	512.08
508.95	521.66
509.31	531.52
509.67	541.59
510.03	551.86
510.39	562.36
510.75	573.25
511.12	584.22
511.48	595.40
511.84	606.88
512.20	618.40
512.56	630.34
512.92	642.48
513.28	654.81
513.64	667.26
514.00	679.94
514.37	692.87
514.73	705.92
515.09	718.92
515.45	732.15
515.81	745.67
516.17	759.64
516.53	773.74
516.89	787.86
517.25	801.97
517.61	816.38
517.97	830.77
518.33	845.13
518.69	859.83
519.05	874.74
519.41	889.82
519.77	905.33
520.13	920.78
520.49	936.12
520.85	951.52
521.21	967.25
521.57	983.51
521.93	999.23
522.29	1015.59
522.65	1031.84
523.01	1048.06
523.37	1064.04
523.73	1080.18
524.09	1096.27
524.45	1112.55
524.81	1129.16
525.17	1145.91
525.53	1162.83
525.89	1179.61
526.25	1196.30
526.61	1212.69
526.97	1229.53
527.33	1245.83
527.68	1262.33
528.04	1278.75
528.40	1295.22
528.76	1312.11
529.12	1328.56
529.48	1345.33
529.84	1361.23
530.20	1377.63
530.56	1394.58
530.91	1411.99
531.27	1428.70
531.63	1445.05
531.99	1461.53
532.35	1477.45
532.71	1493.28
533.07	1509.49
533.42	1525.28
533.78	1541.23
534.14	1557.43
534.50	1572.61
534.86	1588.45
535.21	1603.42
535.57	1619.22
535.93	1634.67
536.29	1649.40
536.65	1664.40
537.00	1678.98
537.36	1694.16
537.72	1708.72
538.08	1722.93
538.44	1736.57
538.79	1750.33
539.15	1763.88
539.51	1777.42
539.87	1791.59
540.22	1805.28
540.58	1818.72
540.94	1832.06
541.29	1844.89
541.65	1857.51
542.01	1870.65
542.37	1882.99
542.72	1895.44
543.08	1907.13
543.44	1919.31
543.79	1930.62
544.15	1941.56
544.51	1953.20
544.87	1964.08
545.22	1974.79
545.58	1985.10
545.94	1994.77
546.29	2004.59
546.65	2014.37
547.01	2023.68
547.36	2032.27
547.72	2040.59
548.07	2048.45
548.43	2056.43
548.79	2064.44
549.14	2071.90
549.50	2079.13
549.86	2086.64
550.21	2093.97
550.57	2101.11
550.92	2107.78
551.28	2114.65
551.64	2121.71
551.99	2128.14
552.35	2134.24
552.70	2140.35
553.06	2146.27
553.41	2152.65
553.77	2158.77
554.13	2164.91
554.48	2171.13
554.84	2176.79
555.19	2182.13
555.55	2187.35
555.90	2191.84
556.26	2196.67
556.61	2201.32
556.97	2205.66
557.32	2209.79
557.68	2213.71
558.03	2217.96
558.39	2221.74
558.74	2226.35
559.10	2230.07
559.45	2233.71
559.81	2238.09
560.16	2241.96
560.52	2245.12
560.87	2248.55
561.23	2251.09
561.58	2254.02
561.94	2256.39
562.29	2258.74
562.64	2261.41
563.00	2263.98
563.35	2267.57
563.71	2270.69
564.06	2273.93
564.42	2276.71
564.77	2279.19
565.12	2281.69
565.48	2283.69
565.83	2285.44
566.19	2286.84
566.54	2287.74
566.89	2288.78
567.25	2289.26
567.60	2290.60
567.96	2292.39
568.31	2293.22
568.66	2294.41
569.02	2294.97
569.37	2295.36
569.72	2296.15
570.08	2296.36
570.43	2296.56
570.78	2295.95
571.14	2294.46
571.49	2293.24
571.84	2293.02
572.20	2292.11
572.55	2291.05
572.90	2289.51
573.26	2288.34
573.61	2286.74
573.96	2285.16
574.31	2282.54
574.67	2279.69
575.02	2276.14
575.37	2272.70
575.72	2269.00
576.08	2265.60
576.43	2262.38
576.78	2258.67
577.13	2255.57
577.49	2252.50
577.84	2248.95
578.19	2245.37
578.54	2241.94
578.90	2237.67
579.25	2232.18
579.60	2227.10
579.95	2222.02
580.30	2217.04
580.66	2211.86
581.01	2206.82
581.36	2201.81
581.71	2197.55
582.06	2193.18
582.42	2188.73
582.77	2183.64
583.12	2179.16
583.47	2174.74
583.82	2169.82
584.17	2164.84
584.53	2159.38
584.88	2153.81
585.23	2148.16
585.58	2142.68
585.93	2137.24
586.28	2132.75
586.63	2127.63
586.98	2122.71
587.34	2118.20
587.69	2113.43
588.04	2108.21
588.39	2102.61
588.74	2096.27
589.09	2090.14
589.44	2083.31
589.79	2077.44
590.14	2071.78
590.49	2065.12
590.84	2058.57
591.19	2052.63
591.54	2046.21
591.89	2038.94
592.25	2032.08
592.60	2024.86
592.95	2017.44
593.30	2010.10
593.65	2002.53
594.00	1995.68
594.35	1988.69
594.70	1980.74
595.05	1973.53
595.40	1966.36
595.75	1958.96
596.10	1952.82
596.45	1946.20
596.80	1940.22
597.15	1933.58
597.50	1926.58
597.85	1920.30
598.19	1913.72
598.54	1906.49
598.89	1899.83
599.24	1893.98
599.59	1887.52
599.94	1881.43
600.29	1875.09
600.64	1868.47
600.99	1861.14
601.34	1854.36
601.69	1847.26
602.04	1840.53
602.39	1833.35
602.74	1826.46
603.08	1819.71
603.43	1812.99
603.78	1805.73
604.13	1798.48
604.48	1791.15
604.83	1784.39
605.18	1777.45
605.53	1769.51
605.87	1761.72
606.22	1754.48
606.57	1746.52
606.92	1739.18
607.27	1732.01
607.62	1725.16
607.96	1718.06
608.31	1711.44
608.66	1703.81
609.01	1696.30
609.36	1688.64
609.70	1680.57
610.05	1672.59
610.40	1664.94
610.75	1656.62
611.10	1648.95
611.44	1640.51
611.79	1632.57
612.14	1623.92
612.49	1614.61
612.83	1606.22
613.18	1597.98
613.53	1589.91
613.88	1581.36
614.22	1572.84
614.57	1564.23
614.92	1556.06
615.27	1548.42
615.61	1539.94
615.96	1531.90
616.31	1524.19
616.65	1516.72
617.00	1509.08
617.35	1501.44
617.70	1493.14
618.04	1484.56
618.39	1476.24
618.74	1468.71
619.08	1460.34
619.43	1452.49
619.78	1445.66
620.12	1438.45
620.47	1430.87
620.82	1422.68
621.16	1415.33
621.51	1407.89
621.85	1400.26
622.20	1391.74
622.55	1383.28
622.89	1375.46
623.24	1367.83
623.59	1360.39
623.93	1352.86
624.28	1345.60
624.62	1337.97
624.97	1330.77
625.32	1324.12
625.66	1317.14
626.01	1309.94
626.35	1302.46
626.70	1294.87
627.04	1287.10
627.39	1279.40
627.73	1272.10
628.08	1265.28
628.43	1257.99
628.77	1250.68
629.12	1243.15
629.46	1236.10
629.81	1228.75
630.15	1221.50
630.50	1214.11
630.84	1205.94
631.19	1198.07
631.53	1190.58
631.88	1183.09
632.22	1175.49
632.57	1168.17
632.91	1160.60
633.26	1153.24
633.60	1145.93
633.95	1138.88
634.29	1131.83
634.64	1125.16
634.98	1117.80
635.32	1110.49
635.67	1103.83
636.01	1097.12
636.36	1090.26
636.70	1083.59
637.05	1077.06
637.39	1070.57
637.73	1064.07
638.08	1058.14
638.42	1052.09
638.77	1045.67
639.11	1039.02
639.45	1032.61
639.80	1025.94
640.14	1019.58
640.49	1013.04
640.83	1006.72
641.17	1000.39
641.52	994.08
641.86	987.48
642.20	981.60
642.55	975.39
642.89	968.90
643.23	962.33
643.58	956.60
643.92	950.47
644.26	944.38
644.61	938.33
644.95	932.35
645.29	925.79
645.64	919.06
645.98	912.72
646.32	906.87
646.66	900.82
647.01	895.04
647.35	889.31
647.69	883.45
648.04	877.95
648.38	872.27
648.72	866.32
649.06	860.31
649.41	854.53
649.75	848.55
650.09	842.59
650.43	836.86
650.78	830.69
651.12	824.74
651.46	819.03
651.80	813.32
652.14	807.84
652.49	802.40
652.83	797.27
653.17	791.54
653.51	785.85
653.85	780.43
654.20	774.83
654.54	768.82
654.88	763.04
655.22	757.13
655.56	751.39
655.90	745.96
656.25	740.76
656.59	735.25
656.93	730.13
657.27	724.99
657.61	719.44
657.95	714.35
658.29	709.29
658.64	703.98
658.98	698.63
659.32	693.24
659.66	688.09
660.00	682.76
660.34	677.86
660.68	672.90
661.02	667.89
661.36	663.07
661.70	658.53
662.05	654.17
662.39	649.82
662.73	645.28
663.07	640.83
663.41	636.32
663.75	631.82
664.09	627.23
664.43	622.79
664.77	618.78
665.11	614.44
665.45	610.28
665.79	606.23
666.13	602.08
666.47	597.93
666.81	593.73
667.15	589.57
667.49	585.62
667.83	581.79
668.17	577.84
668.51	573.79
668.85	569.81
669.19	566.00
669.53	562.10
669.87	558.30
670.21	554.59
670.55	550.95
670.89	547.56
671.23	544.18
671.57	540.66
671.91	537.06
672.25	533.63
672.58	530.05
672.92	526.61
673.26	523.42
673.60	520.25
673.94	517.13
674.28	514.23
674.62	511.25
674.96	508.15
675.30	505.29
675.64	502.37
675.97	499.62
676.31	496.72
676.65	493.85
676.99	491.09
677.33	488.17
677.67	485.36
678.01	482.29
678.34	479.24
678.68	476.39
679.02	473.58
679.36	470.81
679.70	468.13
680.04	465.39
680.37	462.52
680.71	459.73
681.05	457.10
681.39	454.39
681.73	451.76
682.06	449.27
682.40	446.68
682.74	444.16
683.08	441.59
683.42	438.98
683.75	436.46
684.09	433.96
684.43	431.52
684.77	429.07
685.10	426.71
685.44	424.43
685.78	422.15
686.12	419.88
686.45	417.58
686.79	415.27
687.13	413.09
687.46	410.90
687.80	408.78
688.14	406.64
688.48	404.61
688.81	402.36
689.15	400.18
689.49	398.04
689.82	395.94
690.16	393.85
690.50	391.93
690.83	390.07
691.17	388.10
691.51	386.25
691.84	384.38
692.18	382.48
692.52	380.52
692.85	378.58
693.19	376.70
693.52	374.89
693.86	373.10
694.20	371.32
694.53	369.58
694.87	367.66
695.21	365.85
695.54	364.01
695.88	362.28
696.21	360.55
696.55	358.86
696.88	357.15
697.22	355.45
697.56	353.80
697.89	352.13
698.23	350.47
698.56	348.87
698.90	347.26
699.23	345.58
699.57	344.02
699.90	342.47
700.24	340.97
700.58	339.41
700.91	337.86
701.25	336.39
701.58	335.05
701.92	333.69
702.25	332.28
702.59	330.97
702.92	329.66
703.26	328.39
703.59	327.13
703.93	325.96
704.26	324.75
704.60	323.43
704.93	322.15
705.26	320.93
705.60	319.76
705.93	318.62
706.27	317.64
706.60	316.54
706.94	315.49
707.27	314.34
707.61	313.28
707.94	312.26
708.27	311.18
708.61	310.07
708.94	309.09
709.28	308.13
709.61	307.08
709.94	306.16
710.28	305.11
710.61	304.16
710.95	303.09
711.28	302.19
711.61	301.25
711.95	300.27
712.28	299.33
712.61	298.32
712.95	297.34
713.28	296.45
713.61	295.56
713.95	294.64
714.28	293.80
714.61	292.96
714.95	292.13
715.28	291.28
715.61	290.40
715.95	289.52
716.28	288.66
716.61	287.89
716.95	287.06
717.28	286.32
717.61	285.50
717.94	284.76
718.28	283.92
718.61	283.19
718.94	282.53
719.27	281.82
719.61	281.16
719.94	280.52
720.27	279.79
720.60	279.14
720.94	278.50
721.27	277.91
721.60	277.31
721.93	276.71
722.27	276.18
722.60	275.62
722.93	275.04
723.26	274.53
723.59	273.95
723.93	273.37
724.26	272.81
724.59	272.29
724.92	271.76
725.25	271.28
725.59	270.78
725.92	270.27
726.25	269.76
726.58	269.30
726.91	268.82
727.24	268.36
727.57	267.89
727.91	267.41
728.24	266.95
728.57	266.47
728.90	266.01
729.23	265.50
729.56	265.06
729.89	264.60
730.22	264.09
730.55	263.61
730.89	263.18
731.22	262.75
731.55	262.34
731.88	261.90
732.21	261.46
732.54	261.02
732.87	260.60
733.20	260.25
733.53	259.88
733.86	259.49
734.19	259.12
734.52	258.75
734.85	258.43
735.18	257.99
735.51	257.62
735.84	257.23
736.17	256.89
736.50	256.51
736.83	256.27
737.16	255.96
737.49	255.65
737.82	255.30
738.15	254.96
738.48	254.59
738.81	254.30
739.14	254.00
739.47	253.69
739.80	253.39
740.13	253.08
740.46	252.72
740.79	252.36
741.12	252.03
741.45	251.74
741.78	251.40
742.11	251.17
742.44	250.84
742.77	250.58
743.10	250.29
743.43	249.99
743.75	249.62
744.08	249.45
744.41	249.16
744.74	248.88
745.07	248.60
745.40	248.38
745.73	248.10
746.06	247.84
746.39	247.59
746.71	247.33
747.04	247.03
747.37	246.80
747.70	246.59
748.03	246.36
748.36	246.11
748.68	245.86
749.01	245.58
749.34	245.38
749.67	245.10
750.00	244.88
750.33	244.73
750.65	244.49
750.98	244.16
751.31	243.92
751.64	243.70
751.97	243.53
752.29	243.26
752.62	242.99
752.95	242.76
753.28	242.50
753.60	242.31
753.93	242.12
754.26	241.87
754.59	241.64
754.91	241.40
755.24	241.16
755.57	240.95
755.90	240.75
756.22	240.51
756.55	240.33
756.88	240.11
757.20	239.85
757.53	239.66
757.86	239.50
758.19	239.32
758.51	239.15
758.84	238.93
759.17	238.78
759.49	238.64
759.82	238.49
760.15	238.35
760.47	238.15
760.80	237.98
761.13	237.84
761.45	237.70
761.78	237.54
762.11	237.41
762.43	237.27
762.76	237.13
763.08	237.03
763.41	236.88
763.74	236.80
764.06	236.68
764.39	236.56
764.71	236.42
765.04	236.31
765.37	236.18
765.69	236.07
766.02	235.94
766.34	235.83
766.67	235.68
767.00	235.59
767.32	235.50
767.65	235.48
767.97	235.37
768.30	235.22
768.62	235.15
768.95	235.05
769.27	234.92
769.60	234.83
769.92	234.69
770.25	234.58
770.57	234.43
770.90	234.31
771.22	234.18
771.55	234.08
771.87	234.01
772.20	233.92
772.52	233.93
772.85	233.96
773.17	233.87
773.50	233.78
773.82	233.68
774.15	233.60
774.47	233.44
774.80	233.38
775.12	233.33
775.45	233.25
775.77	233.17
776.09	233.13
776.42	233.06
776.74	233.00
777.07	232.93
777.39	232.86
777.72	232.80
778.04	232.74
778.36	232.67
778.69	232.60
779.01	232.56
779.33	232.38
779.66	232.23
779.98	232.16
780.31	232.09
780.63	232.06
780.95	231.99
781.28	231.89
781.60	231.82
781.92	231.76
782.25	231.68
782.57	231.59
782.89	231.52
783.22	231.43
783.54	231.39
783.86	231.35
784.19	231.27
784.51	231.25
784.83	231.18
785.16	231.13
785.48	231.06
785.80	230.98
786.12	230.93
786.45	230.87
786.77	230.84
787.09	230.85
787.42	230.77
787.74	230.67
788.06	230.67
788.38	230.60
788.71	230.53
789.03	230.45
789.35	230.46
789.67	230.39
789.99	230.39
790.32	230.32
790.64	230.26
790.96	230.30
791.28	230.22
791.61	230.18
791.93	230.11
792.25	230.07
792.57	230.06
792.89	230.02
793.21	229.99
793.54	229.91
793.86	229.80
794.18	229.75
794.50	229.72
794.82	229.66
795.14	229.65
795.47	229.61
795.79	229.60
796.11	229.53
796.43	229.49
796.75	229.45
797.07	229.45
797.39	229.41
797.71	229.35
798.04	229.28
798.36	229.25
798.68	229.23
799.00	229.21
799.32	229.14
799.64	229.09
799.96	229.04
800.28	229.00
800.60	229.00
800.92	228.96
801.24	228.94
801.56	228.90
801.89	228.84
802.21	228.85
802.53	228.82
802.85	228.81
803.17	228.86
803.49	228.77
803.81	228.73
804.13	228.69
804.45	228.63
804.77	228.63
805.09	228.61
805.41	228.57
805.73	228.52
806.05	228.46
806.37	228.45
806.69	228.43
807.01	228.40
807.33	228.36
807.65	228.32
807.97	228.35
808.28	228.32
808.60	228.32
808.92	228.28
809.24	228.30
809.56	228.26
809.88	228.22
810.20	228.23
810.52	228.19
810.84	228.16
811.16	228.11
811.48	228.06
811.80	228.10
812.12	228.09
812.43	228.11
812.75	228.11
813.07	228.08
813.39	228.04
813.71	228.04
814.03	228.01
814.35	228.00
814.67	227.92
814.98	227.90
815.30	227.88
815.62	227.88
815.94	227.81
816.26	227.86
816.58	227.78
816.89	227.78
817.21	227.77
817.53	227.79
817.85	227.82
818.17	227.84
818.48	227.78
818.80	227.77
819.12	227.71
819.44	227.73
819.76	227.71
820.07	227.73
820.39	227.73
820.71	227.77
821.03	227.74
821.34	227.77
821.66	227.78
821.98	227.78
822.30	227.77
822.61	227.80
822.93	227.75
823.25	227.74
823.57	227.72
823.88	227.73
824.20	227.72
824.52	227.70
824.83	227.65
825.15	227.66
825.47	227.63
825.79	227.65
826.10	227.61
826.42	227.60
826.74	227.58
827.05	227.58
827.37	227.54
827.69	227.54
828.00	227.50
828.32	227.52
828.64	227.51
828.95	227.53
829.27	227.51
829.58	227.48
829.90	227.48
830.22	227.48
830.53	227.43
830.85	227.39
831.17	227.36
831.48	227.36
831.80	227.33
832.11	227.31
832.43	227.28
832.75	227.27
833.06	227.32
833.38	227.29
833.69	227.27
834.01	227.24
834.32	227.24
834.64	227.25
834.96	227.21
835.27	227.14
835.59	227.11
835.90	227.10
836.22	227.08
836.53	227.07
836.85	227.05
837.16	227.14
837.48	227.14
837.79	227.14
838.11	227.13
838.42	227.08
838.74	227.11
839.05	227.08
839.37	227.04
839.68	226.98
840.00	226.97
840.31	226.95
840.63	226.95
840.94	226.92
841.26	226.88
841.57	226.89
841.88	226.91
842.20	226.86
842.51	226.81
842.83	226.80
843.14	226.88
843.46	226.89
843.77	226.83
844.08	226.82
844.40	226.82
844.71	226.79
845.03	226.78
845.34	226.77
845.65	226.78
845.97	226.81
846.28	226.80
846.60	226.81
846.91	226.77
847.22	226.75
847.54	226.77
847.85	226.78
848.16	226.74
848.48	226.73
848.79	226.77
849.10	226.78
849.42	226.79
849.73	226.69
850.04	226.67
850.36	226.60
850.67	226.61
850.98	226.61
851.30	226.64
851.61	226.66
851.92	226.64
852.23	226.66
852.55	226.65
852.86	226.63
853.17	226.63
853.49	226.70
853.80	226.74
854.11	226.76
854.42	226.76
854.74	226.75
855.05	226.78
855.36	226.72
855.67	226.73
855.99	226.73
856.30	226.83
856.61	226.83
856.92	226.89
857.23	226.88
857.55	226.87
857.86	226.86
858.17	226.85
858.48	226.87
858.79	226.84
859.11	226.86
859.42	226.89
859.73	226.84
860.04	226.82
860.35	226.76
860.66	226.71
860.98	226.72
861.29	226.72
861.60	226.69
861.91	226.71
862.22	226.71
862.53	226.70
862.84	226.61
863.16	226.63
863.47	226.58
863.78	226.61
864.09	226.61
864.40	226.61
864.71	226.60
865.02	226.60
865.33	226.65
865.64	226.61
865.95	226.60
866.27	226.69
866.58	226.66
866.89	226.70
867.20	226.69
867.51	226.66
867.82	226.66
868.13	226.68
868.44	226.66
868.75	226.68
869.06	226.66
869.37	226.64
869.68	226.63
869.99	226.64
870.30	226.62
870.61	226.61
870.92	226.58
871.23	226.58
871.54	226.56
871.85	226.52
872.16	226.54
872.47	226.50
872.78	226.44
873.09	226.45
873.40	226.41
873.71	226.40
874.02	226.42
874.33	226.41
874.64	226.37
874.95	226.40
875.26	226.35
875.56	226.38
875.87	226.38
876.18	226.32
876.49	226.39
876.80	226.39
877.11	226.38
877.42	226.37
877.73	226.35
878.04	226.37
878.35	226.36
878.66	226.31
878.96	226.30
879.27	226.29
879.58	226.29
879.89	226.27
880.20	226.29
880.51	226.30
880.82	226.27
881.12	226.27
881.43	226.23
881.74	226.21
882.05	226.17
882.36	226.16
882.67	226.18
882.97	226.07
883.28	226.03
883.59	225.99
883.90	226.00
884.21	226.02
884.51	225.99
884.82	225.98
885.13	226.01
885.44	226.03
885.74	226.02
886.05	226.01
886.36	226.03
886.67	225.98
886.98	226.01
887.28	226.05
887.59	226.05
887.90	226.06
888.20	226.08
888.51	226.09
888.82	226.10
889.13	226.12
889.43	226.23
889.74	226.23
890.05	226.29
890.35	226.29
890.66	226.25
890.97	226.24
891.28	226.25
891.58	226.22
891.89	226.22
892.20	226.23
892.50	226.24
892.81	226.26
893.12	226.28
893.42	226.23
893.73	226.20
894.04	226.22
894.34	226.23
894.65	226.21
894.95	226.23
895.26	226.23
895.57	226.32
895.87	226.23
896.18	226.29
896.48	226.28
896.79	226.29
897.10	226.33
897.40	226.36
897.71	226.40
898.01	226.42
898.32	226.47
898.63	226.46
898.93	226.47
899.24	226.46
899.54	226.45
899.85	226.46
900.15	226.49
900.46	226.50
900.76	226.49
901.07	226.51
901.38	226.51
901.68	226.50
901.99	226.44
902.29	226.44
902.60	226.40
902.90	226.39
903.21	226.39
903.51	226.37
903.82	226.40
904.12	226.40
904.43	226.39
904.73	226.36
905.03	226.35
905.34	226.44
905.64	226.43
905.95	226.41
906.25	226.41
906.56	226.40
906.86	226.37
907.17	226.38
907.47	226.38
907.77	226.36
908.08	226.36
908.38	226.34
908.69	226.32
908.99	226.31
909.30	226.31
909.60	226.31
909.90	226.31
910.21	226.25
910.51	226.19
910.81	226.20
911.12	226.20
911.42	226.20
911.73	226.04
912.03	226.07
912.33	226.09
912.64	226.09
912.94	226.08
913.24	226.05
913.55	226.00
913.85	225.99
914.15	225.98
914.46	225.97
914.76	225.93
915.06	225.93
915.37	225.90
915.67	225.87
915.97	225.84
916.27	225.82
916.58	225.81
916.88	225.83
917.18	225.78
917.49	225.83
917.79	225.83
918.09	225.83
918.39	225.82
918.70	225.78
919.00	225.73
919.30	225.78
919.60	225.81
919.91	225.80
920.21	225.81
920.51	225.78
920.81	225.75
921.12	225.78
921.42	225.77
921.72	225.73
922.02	225.77
922.32	225.80
922.63	225.80
922.93	225.87
923.23	225.84
923.53	225.85
923.83	225.80
924.13	225.79
924.44	225.80
924.74	225.85
925.04	225.89
925.34	225.93
925.64	225.91
925.94	225.86
926.24	225.92
926.55	225.89
926.85	225.89
927.15	225.91
927.45	225.89
927.75	225.89
928.05	225.94
928.35	225.91
928.65	225.93
928.95	225.94
929.26	225.88
929.56	225.90
929.86	225.89
930.16	225.88
930.46	225.89
930.76	225.92
931.06	225.84
931.36	225.84
931.66	225.84
931.96	225.84
932.26	225.88
932.56	225.86
932.86	225.87
933.16	225.91
933.46	225.94
933.76	225.95
934.06	225.98
934.36	226.04
934.66	226.04
934.96	226.02
935.26	226.05
935.56	226.06
935.86	226.06
936.16	226.07
936.46	226.07
936.76	226.08
937.06	226.06
937.36	226.09
937.66	226.12
937.96	226.14
938.26	226.12
938.56	226.13
938.86	226.15
939.16	226.19
939.46	226.21
939.76	226.22
940.06	226.23
940.35	226.23
940.65	226.17
940.95	226.20
941.25	226.19
941.55	226.17
941.85	226.19
942.15	226.22
942.45	226.25
942.75	226.28
943.04	226.28
943.34	226.29
943.64	226.30
943.94	226.28
944.24	226.27
944.54	226.28
944.84	226.23
945.13	226.22
945.43	226.21
945.73	226.19
946.03	226.17
946.33	226.17
946.62	226.16
946.92	226.16
947.22	226.16
947.52	226.16
947.82	226.17
948.11	226.17
948.41	226.15
948.71	226.10
949.01	226.07
949.31	226.05
949.60	226.02
949.90	226.01
950.20	226.01
950.50	225.98
950.79	225.98
951.09	226.03
951.39	226.01
951.69	225.99
951.98	225.97
952.28	225.98
952.58	225.94
952.87	225.91
953.17	225.89
953.47	225.86
953.76	225.85
954.06	225.84
954.36	225.80
954.66	225.80
954.95	225.82
955.25	225.84
955.55	225.87
955.84	225.87
956.14	225.88
956.44	225.84
956.73	225.81
957.03	225.79
957.32	225.75
957.62	225.74
957.92	225.75
958.21	225.76
958.51	225.83
958.81	225.86
959.10	225.85
959.40	225.85
959.69	225.88
959.99	225.87
960.29	225.88
960.58	225.87
960.88	225.88
961.17	225.88
961.47	225.89
961.76	225.83
962.06	225.84
962.36	225.81
962.65	225.85
962.95	225.87
963.24	225.86
963.54	225.89
963.83	225.92
964.13	225.94
964.42	225.92
964.72	225.86
965.01	225.84
965.31	225.88
965.60	225.89
965.90	225.94
966.19	225.94
966.49	225.91
966.78	225.92
967.08	225.94
967.37	225.94
967.67	225.91
967.96	225.96
968.26	225.96
968.55	226.01
968.85	226.01
969.14	226.05
969.43	226.07
969.73	226.08
970.02	226.06
970.32	226.04
970.61	226.04
970.91	226.02
971.20	226.03
971.49	226.05
971.79	226.06
972.08	226.02
972.38	226.04
972.67	226.07
972.96	226.12
973.26	226.12
973.55	226.14
973.85	226.16
974.14	226.18
974.43	226.21
974.73	226.18
975.02	226.15
975.31	226.16
975.61	226.19
975.90	226.16
976.19	226.15
976.49	226.21
976.78	226.25
977.07	226.28
977.37	226.28
977.66	226.28
977.95	226.28
978.24	226.28
978.54	226.31
978.83	226.32
979.12	226.29
979.42	226.29
979.71	226.26
980.00	226.25
980.29	226.25
980.59	226.23
980.88	226.24
981.17	226.24
981.46	226.22
981.76	226.23
982.05	226.27
982.34	226.26
982.63	226.24
982.93	226.22
983.22	226.24
983.51	226.24
983.80	226.26
984.09	226.26
984.39	226.22
984.68	226.18
984.97	226.18
985.26	226.16
985.55	226.18
985.85	226.19
986.14	226.20
986.43	226.19
986.72	226.15
987.01	226.12
987.30	226.11
987.59	226.09
987.89	226.05
988.18	226.01
988.47	226.00
988.76	225.97
989.05	225.94
989.34	225.89
989.63	225.93
989.92	225.90
990.22	225.90
990.51	225.92
990.80	225.90
991.09	225.86
991.38	225.86
991.67	225.79
991.96	225.74
992.25	225.74
992.54	225.73
992.83	225.73
993.12	225.71
993.41	225.71
993.70	225.76
993.99	225.77
994.28	225.78
994.58	225.79
994.87	225.78
995.16	225.79
995.45	225.76
995.74	225.72
996.03	225.73
996.32	225.69
996.61	225.69
996.90	225.69
997.19	225.69
997.48	225.71
997.77	225.72
998.06	225.74
998.34	225.73
998.63	225.71
998.92	225.73
999.21	225.77
999.50	225.77
999.79	225.71
1000.08	225.72
1000.37	225.71
1000.66	225.68
1000.95	225.69
1001.24	225.69
1001.53	225.74
1001.82	225.72
1002.11	225.67
1002.40	225.71
1002.68	225.76
1002.97	225.84
1003.26	225.83
1003.55	225.80
1003.84	225.81
1004.13	225.86
1004.42	225.85
1004.71	225.85
1004.99	225.84
1005.28	225.89
1005.57	225.91
1005.86	225.91
1006.15	225.90
1006.44	225.90
1006.72	225.91
1007.01	225.91
1007.30	225.93
1007.59	225.91
1007.88	225.93
1008.17	225.96
1008.45	225.93
1008.74	225.88
1009.03	225.85
1009.32	225.87
1009.60	225.90
1009.89	225.89
1010.18	225.88
1010.47	225.91
1010.76	225.97
1011.04	225.98
1011.33	225.99
1011.62	226.02
1011.91	226.04
1012.19	226.06
1012.48	226.11
1012.77	226.12
1013.05	226.18
1013.34	226.17
1013.63	226.18
1013.92	226.20
1014.20	226.22
1014.49	226.22
1014.78	226.21
1015.06	226.18
1015.35	226.19
1015.64	226.19
1015.92	226.23
1016.21	226.21
1016.50	226.18
1016.78	226.14
1017.07	226.13
1017.36	226.09
1017.64	226.06
1017.93	226.07
1018.22	226.04
1018.50	226.03
1018.79	226.06
1019.08	225.99
1019.36	225.98
1019.65	226.00
1019.93	226.01
1020.22	226.02
1020.51	226.09
1020.79	226.10
1021.08	225.66
1021.36	226.14
1021.65	226.55
1021.94	225.66
1022.22	225.90
1022.51	226.59
1022.79	226.36
1023.08	226.32
1023.36	227.27
1023.65	225.76
>>>>>End Processed Spectral Data<<<<<
