SpectraSuite Data File
++++++++++++++++++++++++++++++++++++
Date: Fri Feb 01 16:29:03 EST 2013
User: group
Dark Spectrum Present: No
Reference Spectrum Present: No
Number of Sampled Component Spectra: 1
Spectrometers: USB2E7196
Integration Time (usec): 35000 (USB2E7196)
Spectra Averaged: 100 (USB2E7196)
Boxcar Smoothing: 10 (USB2E7196)
Correct for Electrical Dark: No (USB2E7196)
Strobe/Lamp Enabled: No (USB2E7196)
Correct for Detector Non-linearity: No (USB2E7196)
Correct for Stray Light: No (USB2E7196)
Number of Pixels in Processed Spectrum: 2048
>>>>>Begin Processed Spectral Data<<<<<
339.09	0.00
339.48	213.51
339.86	215.22
340.24	216.79
340.63	218.14
341.01	220.83
341.39	219.98
341.78	221.90
342.16	223.11
342.54	223.63
342.93	212.13
343.31	222.84
343.69	223.40
344.07	223.90
344.46	224.33
344.84	224.70
345.22	224.94
345.60	225.23
345.99	225.40
346.37	225.54
346.75	225.67
347.13	225.76
347.52	225.84
347.90	225.89
348.28	225.92
348.66	225.99
349.05	225.98
349.43	226.01
349.81	226.06
350.19	226.12
350.57	226.19
350.96	226.27
351.34	226.35
351.72	226.43
352.10	226.51
352.48	226.56
352.87	226.64
353.25	226.71
353.63	226.76
354.01	226.86
354.39	226.94
354.77	226.97
355.15	227.08
355.54	227.16
355.92	227.23
356.30	227.30
356.68	227.39
357.06	227.47
357.44	227.55
357.82	227.63
358.20	227.71
358.58	227.76
358.97	227.83
359.35	227.93
359.73	227.99
360.11	228.02
360.49	228.10
360.87	228.11
361.25	228.17
361.63	228.27
362.01	228.35
362.39	228.40
362.77	228.49
363.15	228.49
363.53	228.48
363.91	228.51
364.29	228.55
364.67	228.51
365.05	228.56
365.43	228.60
365.81	228.63
366.19	228.63
366.57	228.71
366.95	228.70
367.33	228.68
367.71	228.70
368.09	228.74
368.47	228.73
368.85	228.75
369.23	228.77
369.61	228.71
369.99	228.68
370.37	228.69
370.75	228.69
371.13	228.63
371.51	228.63
371.89	228.60
372.27	228.59
372.65	228.55
373.03	228.47
373.41	228.42
373.78	228.35
374.16	228.28
374.54	228.20
374.92	228.11
375.30	228.04
375.68	227.95
376.06	227.89
376.44	227.80
376.82	227.74
377.19	227.68
377.57	227.60
377.95	227.48
378.33	227.37
378.71	227.25
379.09	227.25
379.47	227.15
379.84	227.07
380.22	226.98
380.60	226.92
380.98	226.84
381.36	226.74
381.73	226.64
382.11	226.57
382.49	226.48
382.87	226.43
383.25	226.37
383.62	226.41
384.00	226.32
384.38	226.28
384.76	226.22
385.13	226.17
385.51	226.15
385.89	226.11
386.27	226.05
386.64	226.02
387.02	225.92
387.40	225.87
387.78	225.82
388.15	225.78
388.53	225.70
388.91	225.67
389.29	225.62
389.66	225.63
390.04	225.60
390.42	225.62
390.79	225.59
391.17	225.58
391.55	225.47
391.92	225.47
392.30	225.44
392.68	225.41
393.05	225.38
393.43	225.38
393.81	225.39
394.18	225.41
394.56	225.42
394.94	225.47
395.31	225.49
395.69	225.53
396.06	225.56
396.44	225.61
396.82	225.60
397.19	225.70
397.57	225.74
397.95	225.79
398.32	225.76
398.70	225.81
399.07	225.90
399.45	225.94
399.82	226.00
400.20	226.06
400.58	226.15
400.95	226.20
401.33	226.26
401.70	226.36
402.08	226.45
402.45	226.50
402.83	226.62
403.20	226.73
403.58	226.79
403.95	226.93
404.33	227.06
404.71	227.19
405.08	227.34
405.46	227.45
405.83	227.57
406.21	227.72
406.58	227.88
406.96	228.05
407.33	228.22
407.70	228.43
408.08	228.75
408.45	228.94
408.83	229.16
409.20	229.39
409.58	229.59
409.95	229.84
410.33	230.11
410.70	230.33
411.08	230.61
411.45	230.94
411.82	231.22
412.20	231.58
412.57	232.02
412.95	232.33
413.32	232.75
413.69	233.17
414.07	233.65
414.44	234.10
414.82	234.58
415.19	235.15
415.56	235.68
415.94	236.19
416.31	236.87
416.68	237.52
417.06	238.22
417.43	238.92
417.81	239.73
418.18	240.52
418.55	241.38
418.93	242.27
419.30	243.18
419.67	244.13
420.04	245.08
420.42	246.08
420.79	247.22
421.16	248.39
421.54	249.56
421.91	250.77
422.28	252.05
422.66	253.37
423.03	254.67
423.40	256.02
423.77	257.43
424.15	258.85
424.52	260.34
424.89	261.97
425.26	263.49
425.64	264.93
426.01	266.49
426.38	268.14
426.75	269.81
427.13	271.52
427.50	273.31
427.87	275.17
428.24	277.00
428.61	278.75
428.99	280.67
429.36	282.77
429.73	284.79
430.10	286.79
430.47	288.83
430.85	290.97
431.22	293.22
431.59	295.62
431.96	297.84
432.33	300.30
432.70	302.64
433.08	305.44
433.45	308.04
433.82	310.61
434.19	313.49
434.56	316.28
434.93	318.94
435.30	321.49
435.68	324.37
436.05	327.17
436.42	329.94
436.79	332.46
437.16	335.15
437.53	337.96
437.90	340.78
438.27	343.47
438.64	346.23
439.01	348.72
439.38	350.88
439.75	353.02
440.13	355.48
440.50	357.83
440.87	359.65
441.24	361.60
441.61	363.78
441.98	365.29
442.35	367.03
442.72	368.84
443.09	370.70
443.46	371.70
443.83	372.30
444.20	372.83
444.57	373.61
444.94	373.91
445.31	374.28
445.68	374.61
446.05	374.73
446.42	374.40
446.79	374.01
447.16	373.59
447.53	373.24
447.90	372.09
448.27	370.92
448.64	369.40
449.01	368.23
449.37	366.29
449.74	364.35
450.11	362.14
450.48	359.70
450.85	357.18
451.22	355.02
451.59	353.03
451.96	351.09
452.33	348.50
452.70	346.15
453.07	343.31
453.43	340.45
453.80	337.68
454.17	334.99
454.54	332.49
454.91	329.80
455.28	327.20
455.65	324.74
456.02	322.33
456.38	320.13
456.75	317.51
457.12	315.26
457.49	313.07
457.86	310.93
458.23	309.12
458.59	307.11
458.96	305.06
459.33	303.24
459.70	301.37
460.07	299.91
460.43	298.23
460.80	296.64
461.17	295.19
461.54	293.72
461.91	292.26
462.27	290.82
462.64	289.58
463.01	288.21
463.38	286.95
463.74	285.58
464.11	284.47
464.48	283.49
464.85	282.39
465.21	281.52
465.58	280.60
465.95	279.51
466.32	278.58
466.68	277.70
467.05	276.81
467.42	275.97
467.78	275.05
468.15	274.15
468.52	273.47
468.88	272.65
469.25	271.86
469.62	271.27
469.98	270.59
470.35	269.96
470.72	269.40
471.08	268.71
471.45	268.18
471.82	267.65
472.18	267.06
472.55	266.65
472.92	266.15
473.28	265.72
473.65	265.26
474.02	264.87
474.38	264.48
474.75	264.17
475.11	263.80
475.48	263.54
475.85	263.33
476.21	263.13
476.58	262.89
476.94	262.79
477.31	262.65
477.67	262.51
478.04	262.40
478.41	262.34
478.77	262.40
479.14	262.31
479.50	262.30
479.87	262.38
480.23	262.48
480.60	262.56
480.96	262.62
481.33	262.86
481.69	263.05
482.06	263.24
482.42	263.44
482.79	263.73
483.15	264.07
483.52	264.44
483.88	264.80
484.25	265.23
484.61	265.63
484.98	266.06
485.34	266.63
485.71	267.19
486.07	267.78
486.44	268.35
486.80	269.10
487.17	269.81
487.53	270.61
487.90	271.43
488.26	272.34
488.62	273.35
488.99	274.32
489.35	275.33
489.72	276.50
490.08	277.68
490.44	278.93
490.81	280.25
491.17	281.61
491.54	283.11
491.90	284.63
492.26	286.30
492.63	288.07
492.99	289.84
493.36	291.78
493.72	293.80
494.08	295.90
494.45	298.15
494.81	300.51
495.17	302.96
495.54	305.53
495.90	308.24
496.26	311.01
496.63	313.97
496.99	317.08
497.35	320.30
497.72	323.69
498.08	327.24
498.44	330.86
498.80	334.75
499.17	338.78
499.53	342.98
499.89	347.34
500.26	351.82
500.62	356.52
500.98	361.47
501.34	366.59
501.71	371.93
502.07	377.36
502.43	383.05
502.79	388.86
503.16	394.95
503.52	401.21
503.88	407.64
504.24	414.29
504.60	421.21
504.97	428.37
505.33	435.73
505.69	443.42
506.05	451.25
506.41	459.20
506.78	467.31
507.14	475.73
507.50	484.42
507.86	493.44
508.22	502.65
508.59	511.90
508.95	521.52
509.31	531.32
509.67	541.43
510.03	551.78
510.39	562.33
510.75	573.14
511.12	584.07
511.48	595.39
511.84	606.85
512.20	618.29
512.56	630.27
512.92	642.50
513.28	654.81
513.64	667.26
514.00	680.03
514.37	692.98
514.73	706.13
515.09	719.17
515.45	732.50
515.81	745.99
516.17	759.89
516.53	774.01
516.89	788.14
517.25	802.24
517.61	816.48
517.97	830.93
518.33	845.25
518.69	859.95
519.05	874.90
519.41	889.90
519.77	905.47
520.13	920.81
520.49	936.06
520.85	951.55
521.21	967.21
521.57	983.33
521.93	999.07
522.29	1015.33
522.65	1031.48
523.01	1047.55
523.37	1063.54
523.73	1079.63
524.09	1095.59
524.45	1111.90
524.81	1128.48
525.17	1145.16
525.53	1162.03
525.89	1178.80
526.25	1195.62
526.61	1211.85
526.97	1228.62
527.33	1244.95
527.68	1261.50
528.04	1277.89
528.40	1294.25
528.76	1311.20
529.12	1327.71
529.48	1344.50
529.84	1360.43
530.20	1377.07
530.56	1394.02
530.91	1411.33
531.27	1428.05
531.63	1444.53
531.99	1460.98
532.35	1476.78
532.71	1492.60
533.07	1508.68
533.42	1524.59
533.78	1540.52
534.14	1556.78
534.50	1572.08
534.86	1587.92
535.21	1603.04
535.57	1619.04
535.93	1634.48
536.29	1649.21
536.65	1664.07
537.00	1678.69
537.36	1693.93
537.72	1708.33
538.08	1722.71
538.44	1736.41
538.79	1750.14
539.15	1763.57
539.51	1777.25
539.87	1791.55
540.22	1805.26
540.58	1818.86
540.94	1832.14
541.29	1844.96
541.65	1857.51
542.01	1870.54
542.37	1882.78
542.72	1895.18
543.08	1906.76
543.44	1919.01
543.79	1930.08
544.15	1941.00
544.51	1952.52
544.87	1963.29
545.22	1974.01
545.58	1984.16
545.94	1993.81
546.29	2003.72
546.65	2013.45
547.01	2022.65
547.36	2031.32
547.72	2039.77
548.07	2047.59
548.43	2055.62
548.79	2063.51
549.14	2070.96
549.50	2078.30
549.86	2085.88
550.21	2093.00
550.57	2100.07
550.92	2106.58
551.28	2113.70
551.64	2120.65
551.99	2127.08
552.35	2133.25
552.70	2139.35
553.06	2145.16
553.41	2151.56
553.77	2157.38
554.13	2163.55
554.48	2169.59
554.84	2175.07
555.19	2180.25
555.55	2185.49
555.90	2190.00
556.26	2194.77
556.61	2199.53
556.97	2203.75
557.32	2207.85
557.68	2211.95
558.03	2216.20
558.39	2219.92
558.74	2224.52
559.10	2228.47
559.45	2232.30
559.81	2236.64
560.16	2240.59
560.52	2243.84
560.87	2247.19
561.23	2249.95
561.58	2252.81
561.94	2255.36
562.29	2257.76
562.64	2260.44
563.00	2262.98
563.35	2266.37
563.71	2269.59
564.06	2272.85
564.42	2275.70
564.77	2278.24
565.12	2280.61
565.48	2282.74
565.83	2284.75
566.19	2285.94
566.54	2286.89
566.89	2287.75
567.25	2288.34
567.60	2289.49
567.96	2291.37
568.31	2292.21
568.66	2293.48
569.02	2294.04
569.37	2294.36
569.72	2295.29
570.08	2295.48
570.43	2295.68
570.78	2295.22
571.14	2293.78
571.49	2292.45
571.84	2292.40
572.20	2291.37
572.55	2290.37
572.90	2288.78
573.26	2287.33
573.61	2285.83
573.96	2284.14
574.31	2281.54
574.67	2278.75
575.02	2275.28
575.37	2271.82
575.72	2268.18
576.08	2264.71
576.43	2261.57
576.78	2258.02
577.13	2254.92
577.49	2251.93
577.84	2248.52
578.19	2244.96
578.54	2241.51
578.90	2237.42
579.25	2231.88
579.60	2227.01
579.95	2222.09
580.30	2217.16
580.66	2212.18
581.01	2207.29
581.36	2202.41
581.71	2198.29
582.06	2193.79
582.42	2189.44
582.77	2184.44
583.12	2180.00
583.47	2175.37
583.82	2170.45
584.17	2165.21
584.53	2159.83
584.88	2154.26
585.23	2148.41
585.58	2143.14
585.93	2137.67
586.28	2132.96
586.63	2127.87
586.98	2122.93
587.34	2118.20
587.69	2113.38
588.04	2108.12
588.39	2102.61
588.74	2096.30
589.09	2090.19
589.44	2083.50
589.79	2077.53
590.14	2071.87
590.49	2065.35
590.84	2059.19
591.19	2053.28
591.54	2046.95
591.89	2039.47
592.25	2032.75
592.60	2025.58
592.95	2017.88
593.30	2010.65
593.65	2003.16
594.00	1996.18
594.35	1988.84
594.70	1980.97
595.05	1973.78
595.40	1966.56
595.75	1959.04
596.10	1952.76
596.45	1945.91
596.80	1939.68
597.15	1933.08
597.50	1926.03
597.85	1919.60
598.19	1912.76
598.54	1905.59
598.89	1898.90
599.24	1893.20
599.59	1886.57
599.94	1880.48
600.29	1874.08
600.64	1867.43
600.99	1860.00
601.34	1853.22
601.69	1846.30
602.04	1839.52
602.39	1832.13
602.74	1825.22
603.08	1818.48
603.43	1811.68
603.78	1804.49
604.13	1797.44
604.48	1790.20
604.83	1783.36
605.18	1776.40
605.53	1768.64
605.87	1760.75
606.22	1753.60
606.57	1745.65
606.92	1738.36
607.27	1731.19
607.62	1724.35
607.96	1717.01
608.31	1710.39
608.66	1702.65
609.01	1695.10
609.36	1687.46
609.70	1679.37
610.05	1671.53
610.40	1663.76
610.75	1655.62
611.10	1647.98
611.44	1639.57
611.79	1631.50
612.14	1622.72
612.49	1613.52
612.83	1605.12
613.18	1596.93
613.53	1588.86
613.88	1580.25
614.22	1571.90
614.57	1563.29
614.92	1555.29
615.27	1547.87
615.61	1539.48
615.96	1531.64
616.31	1524.16
616.65	1516.73
617.00	1509.12
617.35	1501.45
617.70	1493.16
618.04	1484.69
618.39	1476.49
618.74	1468.86
619.08	1460.68
619.43	1453.27
619.78	1446.44
620.12	1439.15
620.47	1431.76
620.82	1423.53
621.16	1416.20
621.51	1408.64
621.85	1401.09
622.20	1392.49
622.55	1384.04
622.89	1376.18
623.24	1368.45
623.59	1360.95
623.93	1353.56
624.28	1346.54
624.62	1338.94
624.97	1331.85
625.32	1325.15
625.66	1318.16
626.01	1310.99
626.35	1303.48
626.70	1295.66
627.04	1287.89
627.39	1280.21
627.73	1272.86
628.08	1266.06
628.43	1258.72
628.77	1251.38
629.12	1243.82
629.46	1236.73
629.81	1229.40
630.15	1222.24
630.50	1214.80
630.84	1206.64
631.19	1198.60
631.53	1191.02
631.88	1183.42
632.22	1175.76
632.57	1168.29
632.91	1160.72
633.26	1153.27
633.60	1145.89
633.95	1138.76
634.29	1131.65
634.64	1124.86
634.98	1117.35
635.32	1110.06
635.67	1103.48
636.01	1096.77
636.36	1089.99
636.70	1083.40
637.05	1076.80
637.39	1070.24
637.73	1063.73
638.08	1057.84
638.42	1051.81
638.77	1045.34
639.11	1038.82
639.45	1032.42
639.80	1025.80
640.14	1019.29
640.49	1012.72
640.83	1006.40
641.17	1000.14
641.52	993.86
641.86	987.44
642.20	981.62
642.55	975.27
642.89	968.70
643.23	962.16
643.58	956.25
643.92	950.15
644.26	944.03
644.61	938.07
644.95	932.12
645.29	925.54
645.64	918.91
645.98	912.61
646.32	906.74
646.66	900.77
647.01	894.96
647.35	889.26
647.69	883.42
648.04	877.89
648.38	872.10
648.72	866.11
649.06	860.02
649.41	854.08
649.75	848.14
650.09	842.23
650.43	836.46
650.78	830.37
651.12	824.33
651.46	818.61
651.80	812.87
652.14	807.48
652.49	802.07
652.83	796.84
653.17	791.08
653.51	785.32
653.85	779.81
654.20	774.27
654.54	768.30
654.88	762.54
655.22	756.64
655.56	750.99
655.90	745.50
656.25	740.30
656.59	735.00
656.93	730.00
657.27	724.80
657.61	719.39
657.95	714.23
658.29	709.15
658.64	703.95
658.98	698.69
659.32	693.19
659.66	687.99
660.00	682.70
660.34	677.80
660.68	672.89
661.02	667.97
661.36	663.19
661.70	658.72
662.05	654.40
662.39	650.14
662.73	645.63
663.07	641.30
663.41	636.87
663.75	632.34
664.09	627.73
664.43	623.30
664.77	619.14
665.11	614.87
665.45	610.81
665.79	606.67
666.13	602.50
666.47	598.43
666.81	594.25
667.15	590.09
667.49	586.22
667.83	582.43
668.17	578.45
668.51	574.33
668.85	570.30
669.19	566.43
669.53	562.55
669.87	558.71
670.21	554.94
670.55	551.19
670.89	547.74
671.23	544.30
671.57	540.82
671.91	537.30
672.25	533.81
672.58	530.28
672.92	526.87
673.26	523.66
673.60	520.47
673.94	517.37
674.28	514.51
674.62	511.48
674.96	508.35
675.30	505.40
675.64	502.51
675.97	499.72
676.31	496.85
676.65	493.88
676.99	491.15
677.33	488.31
677.67	485.55
678.01	482.50
678.34	479.55
678.68	476.66
679.02	473.83
679.36	471.07
679.70	468.31
680.04	465.56
680.37	462.65
680.71	459.85
681.05	457.25
681.39	454.46
681.73	451.85
682.06	449.31
682.40	446.75
682.74	444.21
683.08	441.69
683.42	439.07
683.75	436.56
684.09	434.00
684.43	431.53
684.77	429.02
685.10	426.77
685.44	424.44
685.78	422.22
686.12	419.96
686.45	417.63
686.79	415.32
687.13	413.12
687.46	410.97
687.80	408.85
688.14	406.63
688.48	404.58
688.81	402.29
689.15	400.15
689.49	398.01
689.82	395.91
690.16	393.78
690.50	391.85
690.83	389.92
691.17	387.97
691.51	386.07
691.84	384.29
692.18	382.30
692.52	380.31
692.85	378.35
693.19	376.49
693.52	374.72
693.86	372.92
694.20	371.13
694.53	369.32
694.87	367.49
695.21	365.67
695.54	363.87
695.88	362.16
696.21	360.42
696.55	358.79
696.88	357.11
697.22	355.50
697.56	353.86
697.89	352.22
698.23	350.62
698.56	349.01
698.90	347.42
699.23	345.81
699.57	344.28
699.90	342.77
700.24	341.25
700.58	339.77
700.91	338.31
701.25	336.91
701.58	335.60
701.92	334.26
702.25	332.91
702.59	331.53
702.92	330.23
703.26	328.98
703.59	327.71
703.93	326.56
704.26	325.31
704.60	324.01
704.93	322.72
705.26	321.45
705.60	320.30
705.93	319.12
706.27	318.02
706.60	316.98
706.94	315.88
707.27	314.73
707.61	313.62
707.94	312.57
708.27	311.45
708.61	310.34
708.94	309.28
709.28	308.30
709.61	307.40
709.94	306.46
710.28	305.42
710.61	304.42
710.95	303.36
711.28	302.44
711.61	301.51
711.95	300.65
712.28	299.71
712.61	298.70
712.95	297.77
713.28	296.92
713.61	296.01
713.95	295.10
714.28	294.24
714.61	293.35
714.95	292.52
715.28	291.64
715.61	290.76
715.95	289.94
716.28	289.06
716.61	288.18
716.95	287.34
717.28	286.61
717.61	285.81
717.94	285.07
718.28	284.25
718.61	283.51
718.94	282.77
719.27	282.10
719.61	281.46
719.94	280.80
720.27	280.09
720.60	279.39
720.94	278.75
721.27	278.14
721.60	277.57
721.93	276.95
722.27	276.42
722.60	275.82
722.93	275.21
723.26	274.66
723.59	274.07
723.93	273.49
724.26	272.87
724.59	272.29
724.92	271.74
725.25	271.20
725.59	270.67
725.92	270.17
726.25	269.66
726.58	269.15
726.91	268.65
727.24	268.14
727.57	267.66
727.91	267.13
728.24	266.68
728.57	266.15
728.90	265.70
729.23	265.17
729.56	264.78
729.89	264.31
730.22	263.83
730.55	263.38
730.89	262.91
731.22	262.46
731.55	262.03
731.88	261.61
732.21	261.19
732.54	260.75
732.87	260.33
733.20	259.91
733.53	259.49
733.86	259.08
734.19	258.69
734.52	258.36
734.85	258.08
735.18	257.63
735.51	257.28
735.84	256.89
736.17	256.57
736.50	256.16
736.83	255.93
737.16	255.58
737.49	255.24
737.82	254.92
738.15	254.63
738.48	254.31
738.81	253.97
739.14	253.66
739.47	253.32
739.80	253.01
740.13	252.72
740.46	252.38
740.79	252.09
741.12	251.79
741.45	251.44
741.78	251.11
742.11	250.85
742.44	250.55
742.77	250.26
743.10	249.95
743.43	249.68
743.75	249.32
744.08	249.21
744.41	248.95
744.74	248.70
745.07	248.44
745.40	248.22
745.73	248.02
746.06	247.77
746.39	247.52
746.71	247.25
747.04	246.96
747.37	246.76
747.70	246.49
748.03	246.23
748.36	246.05
748.68	245.81
749.01	245.53
749.34	245.29
749.67	245.08
750.00	244.87
750.33	244.71
750.65	244.49
750.98	244.15
751.31	243.94
751.64	243.76
751.97	243.56
752.29	243.33
752.62	243.05
752.95	242.81
753.28	242.61
753.60	242.40
753.93	242.23
754.26	242.03
754.59	241.84
754.91	241.62
755.24	241.41
755.57	241.22
755.90	241.07
756.22	240.89
756.55	240.69
756.88	240.47
757.20	240.21
757.53	239.99
757.86	239.81
758.19	239.63
758.51	239.42
758.84	239.19
759.17	239.01
759.49	238.87
759.82	238.73
760.15	238.61
760.47	238.45
760.80	238.27
761.13	238.09
761.45	237.91
761.78	237.76
762.11	237.58
762.43	237.42
762.76	237.24
763.08	237.08
763.41	236.94
763.74	236.80
764.06	236.63
764.39	236.52
764.71	236.32
765.04	236.17
765.37	236.06
765.69	235.91
766.02	235.78
766.34	235.61
766.67	235.43
767.00	235.29
767.32	235.22
767.65	235.16
767.97	235.08
768.30	234.99
768.62	234.89
768.95	234.76
769.27	234.64
769.60	234.54
769.92	234.43
770.25	234.35
770.57	234.27
770.90	234.20
771.22	234.06
771.55	233.99
771.87	233.90
772.20	233.76
772.52	233.77
772.85	233.76
773.17	233.71
773.50	233.63
773.82	233.52
774.15	233.38
774.47	233.24
774.80	233.10
775.12	233.03
775.45	232.95
775.77	232.86
776.09	232.81
776.42	232.75
776.74	232.70
777.07	232.59
777.39	232.47
777.72	232.40
778.04	232.34
778.36	232.28
778.69	232.22
779.01	232.18
779.33	232.04
779.66	231.87
779.98	231.78
780.31	231.73
780.63	231.74
780.95	231.72
781.28	231.68
781.60	231.65
781.92	231.60
782.25	231.55
782.57	231.52
782.89	231.42
783.22	231.35
783.54	231.28
783.86	231.24
784.19	231.23
784.51	231.21
784.83	231.16
785.16	231.11
785.48	231.10
785.80	231.08
786.12	231.04
786.45	231.02
786.77	230.99
787.09	230.95
787.42	230.90
787.74	230.85
788.06	230.78
788.38	230.70
788.71	230.66
789.03	230.61
789.35	230.57
789.67	230.55
789.99	230.54
790.32	230.51
790.64	230.51
790.96	230.53
791.28	230.48
791.61	230.42
791.93	230.37
792.25	230.31
792.57	230.33
792.89	230.26
793.21	230.25
793.54	230.23
793.86	230.19
794.18	230.13
794.50	230.05
794.82	230.02
795.14	230.02
795.47	229.99
795.79	229.96
796.11	229.91
796.43	229.89
796.75	229.81
797.07	229.80
797.39	229.76
797.71	229.65
798.04	229.61
798.36	229.60
798.68	229.56
799.00	229.52
799.32	229.42
799.64	229.44
799.96	229.39
800.28	229.38
800.60	229.33
800.92	229.32
801.24	229.30
801.56	229.24
801.89	229.21
802.21	229.20
802.53	229.13
802.85	229.14
803.17	229.18
803.49	229.15
803.81	229.08
804.13	229.00
804.45	228.96
804.77	228.94
805.09	228.91
805.41	228.89
805.73	228.86
806.05	228.83
806.37	228.79
806.69	228.74
807.01	228.68
807.33	228.63
807.65	228.56
807.97	228.55
808.28	228.55
808.60	228.52
808.92	228.41
809.24	228.45
809.56	228.38
809.88	228.32
810.20	228.28
810.52	228.28
810.84	228.25
811.16	228.23
811.48	228.21
811.80	228.23
812.12	228.20
812.43	228.21
812.75	228.18
813.07	228.09
813.39	228.07
813.71	228.06
814.03	228.05
814.35	228.07
814.67	228.02
814.98	227.98
815.30	227.97
815.62	227.98
815.94	227.89
816.26	227.91
816.58	227.85
816.89	227.83
817.21	227.78
817.53	227.79
817.85	227.75
818.17	227.72
818.48	227.63
818.80	227.64
819.12	227.59
819.44	227.55
819.76	227.55
820.07	227.54
820.39	227.52
820.71	227.51
821.03	227.47
821.34	227.45
821.66	227.46
821.98	227.44
822.30	227.42
822.61	227.49
822.93	227.40
823.25	227.39
823.57	227.37
823.88	227.41
824.20	227.41
824.52	227.42
824.83	227.40
825.15	227.42
825.47	227.39
825.79	227.40
826.10	227.39
826.42	227.42
826.74	227.40
827.05	227.39
827.37	227.39
827.69	227.39
828.00	227.38
828.32	227.38
828.64	227.35
828.95	227.41
829.27	227.35
829.58	227.38
829.90	227.35
830.22	227.37
830.53	227.33
830.85	227.34
831.17	227.29
831.48	227.29
831.80	227.28
832.11	227.26
832.43	227.25
832.75	227.23
833.06	227.28
833.38	227.25
833.69	227.26
834.01	227.25
834.32	227.22
834.64	227.22
834.96	227.21
835.27	227.21
835.59	227.15
835.90	227.12
836.22	227.09
836.53	227.09
836.85	227.06
837.16	227.12
837.48	227.06
837.79	227.10
838.11	227.08
838.42	227.04
838.74	227.04
839.05	227.01
839.37	227.01
839.68	226.94
840.00	226.94
840.31	226.95
840.63	226.92
840.94	226.91
841.26	226.87
841.57	226.89
841.88	226.92
842.20	226.90
842.51	226.90
842.83	226.92
843.14	226.98
843.46	226.98
843.77	226.94
844.08	226.93
844.40	226.90
844.71	226.87
845.03	226.86
845.34	226.85
845.65	226.86
845.97	226.86
846.28	226.83
846.60	226.85
846.91	226.78
847.22	226.80
847.54	226.79
847.85	226.82
848.16	226.77
848.48	226.73
848.79	226.77
849.10	226.75
849.42	226.74
849.73	226.68
850.04	226.67
850.36	226.63
850.67	226.65
850.98	226.64
851.30	226.66
851.61	226.69
851.92	226.70
852.23	226.69
852.55	226.67
852.86	226.67
853.17	226.64
853.49	226.67
853.80	226.67
854.11	226.68
854.42	226.67
854.74	226.64
855.05	226.63
855.36	226.58
855.67	226.58
855.99	226.58
856.30	226.65
856.61	226.64
856.92	226.64
857.23	226.64
857.55	226.63
857.86	226.63
858.17	226.63
858.48	226.63
858.79	226.62
859.11	226.65
859.42	226.63
859.73	226.64
860.04	226.62
860.35	226.59
860.66	226.57
860.98	226.57
861.29	226.58
861.60	226.59
861.91	226.63
862.22	226.62
862.53	226.59
862.84	226.49
863.16	226.53
863.47	226.48
863.78	226.47
864.09	226.46
864.40	226.44
864.71	226.42
865.02	226.40
865.33	226.39
865.64	226.34
865.95	226.36
866.27	226.43
866.58	226.41
866.89	226.43
867.20	226.41
867.51	226.37
867.82	226.37
868.13	226.40
868.44	226.38
868.75	226.41
869.06	226.41
869.37	226.44
869.68	226.39
869.99	226.41
870.30	226.38
870.61	226.40
870.92	226.40
871.23	226.37
871.54	226.37
871.85	226.36
872.16	226.37
872.47	226.35
872.78	226.25
873.09	226.24
873.40	226.24
873.71	226.28
874.02	226.30
874.33	226.31
874.64	226.25
874.95	226.27
875.26	226.25
875.56	226.27
875.87	226.26
876.18	226.25
876.49	226.34
876.80	226.35
877.11	226.32
877.42	226.30
877.73	226.32
878.04	226.30
878.35	226.34
878.66	226.34
878.96	226.37
879.27	226.37
879.58	226.39
879.89	226.37
880.20	226.38
880.51	226.38
880.82	226.37
881.12	226.40
881.43	226.36
881.74	226.35
882.05	226.34
882.36	226.33
882.67	226.36
882.97	226.29
883.28	226.28
883.59	226.30
883.90	226.30
884.21	226.31
884.51	226.33
884.82	226.26
885.13	226.24
885.44	226.23
885.74	226.27
886.05	226.23
886.36	226.24
886.67	226.22
886.98	226.25
887.28	226.24
887.59	226.23
887.90	226.21
888.20	226.20
888.51	226.20
888.82	226.19
889.13	226.17
889.43	226.23
889.74	226.25
890.05	226.23
890.35	226.22
890.66	226.22
890.97	226.21
891.28	226.22
891.58	226.25
891.89	226.23
892.20	226.21
892.50	226.18
892.81	226.16
893.12	226.14
893.42	226.10
893.73	226.12
894.04	226.16
894.34	226.19
894.65	226.19
894.95	226.21
895.26	226.19
895.57	226.24
895.87	226.16
896.18	226.16
896.48	226.17
896.79	226.21
897.10	226.22
897.40	226.22
897.71	226.26
898.01	226.25
898.32	226.31
898.63	226.31
898.93	226.37
899.24	226.39
899.54	226.38
899.85	226.40
900.15	226.39
900.46	226.36
900.76	226.39
901.07	226.39
901.38	226.39
901.68	226.41
901.99	226.36
902.29	226.37
902.60	226.36
902.90	226.37
903.21	226.36
903.51	226.35
903.82	226.39
904.12	226.37
904.43	226.36
904.73	226.31
905.03	226.29
905.34	226.39
905.64	226.37
905.95	226.38
906.25	226.35
906.56	226.37
906.86	226.37
907.17	226.37
907.47	226.36
907.77	226.37
908.08	226.36
908.38	226.39
908.69	226.40
908.99	226.40
909.30	226.41
909.60	226.39
909.90	226.41
910.21	226.35
910.51	226.35
910.81	226.37
911.12	226.37
911.42	226.40
911.73	226.26
912.03	226.28
912.33	226.29
912.64	226.29
912.94	226.24
913.24	226.21
913.55	226.18
913.85	226.19
914.15	226.17
914.46	226.18
914.76	226.16
915.06	226.14
915.37	226.12
915.67	226.08
915.97	226.06
916.27	226.05
916.58	226.08
916.88	226.06
917.18	226.06
917.49	226.12
917.79	226.10
918.09	226.12
918.39	226.12
918.70	226.12
919.00	226.10
919.30	226.15
919.60	226.13
919.91	226.12
920.21	226.09
920.51	226.07
920.81	226.05
921.12	226.05
921.42	226.03
921.72	226.01
922.02	226.03
922.32	226.06
922.63	226.03
922.93	226.05
923.23	226.06
923.53	226.03
923.83	225.96
924.13	225.96
924.44	225.95
924.74	225.95
925.04	225.99
925.34	225.97
925.64	226.00
925.94	226.01
926.24	226.07
926.55	226.07
926.85	226.08
927.15	226.08
927.45	226.06
927.75	226.07
928.05	226.08
928.35	226.10
928.65	226.11
928.95	226.13
929.26	226.12
929.56	226.12
929.86	226.15
930.16	226.15
930.46	226.14
930.76	226.14
931.06	226.13
931.36	226.08
931.66	226.15
931.96	226.10
932.26	226.09
932.56	226.04
932.86	226.05
933.16	226.07
933.46	226.08
933.76	226.07
934.06	226.09
934.36	226.13
934.66	226.11
934.96	226.10
935.26	226.09
935.56	226.11
935.86	226.09
936.16	226.08
936.46	226.07
936.76	226.09
937.06	226.08
937.36	226.10
937.66	226.12
937.96	226.08
938.26	226.07
938.56	226.10
938.86	226.12
939.16	226.12
939.46	226.13
939.76	226.15
940.06	226.17
940.35	226.17
940.65	226.11
940.95	226.14
941.25	226.16
941.55	226.17
941.85	226.14
942.15	226.16
942.45	226.18
942.75	226.20
943.04	226.18
943.34	226.20
943.64	226.21
943.94	226.18
944.24	226.22
944.54	226.23
944.84	226.22
945.13	226.18
945.43	226.21
945.73	226.19
946.03	226.17
946.33	226.18
946.62	226.17
946.92	226.19
947.22	226.21
947.52	226.23
947.82	226.21
948.11	226.20
948.41	226.19
948.71	226.15
949.01	226.15
949.31	226.17
949.60	226.16
949.90	226.16
950.20	226.19
950.50	226.12
950.79	226.10
951.09	226.10
951.39	226.12
951.69	226.09
951.98	226.10
952.28	226.10
952.58	226.07
952.87	226.08
953.17	226.10
953.47	226.05
953.76	226.01
954.06	226.01
954.36	225.98
954.66	225.94
954.95	225.96
955.25	225.94
955.55	225.94
955.84	225.92
956.14	225.91
956.44	225.86
956.73	225.84
957.03	225.87
957.32	225.85
957.62	225.85
957.92	225.84
958.21	225.85
958.51	225.95
958.81	225.94
959.10	225.94
959.40	225.94
959.69	225.92
959.99	225.94
960.29	225.92
960.58	225.93
960.88	226.01
961.17	226.01
961.47	226.02
961.76	226.00
962.06	226.03
962.36	226.01
962.65	226.04
962.95	226.04
963.24	226.03
963.54	226.04
963.83	226.02
964.13	226.05
964.42	226.01
964.72	225.94
965.01	225.94
965.31	225.91
965.60	225.88
965.90	225.96
966.19	225.94
966.49	225.96
966.78	225.96
967.08	225.92
967.37	225.91
967.67	225.90
967.96	225.89
968.26	225.85
968.55	225.89
968.85	225.90
969.14	225.90
969.43	225.88
969.73	225.86
970.02	225.89
970.32	225.85
970.61	225.86
970.91	225.82
971.20	225.79
971.49	225.80
971.79	225.81
972.08	225.73
972.38	225.76
972.67	225.74
972.96	225.77
973.26	225.76
973.55	225.80
973.85	225.80
974.14	225.82
974.43	225.84
974.73	225.83
975.02	225.79
975.31	225.80
975.61	225.82
975.90	225.84
976.19	225.85
976.49	225.89
976.78	225.92
977.07	225.96
977.37	225.98
977.66	226.00
977.95	226.00
978.24	226.05
978.54	226.07
978.83	226.05
979.12	226.06
979.42	226.07
979.71	226.05
980.00	226.04
980.29	226.06
980.59	226.06
980.88	226.05
981.17	226.06
981.46	226.10
981.76	226.15
982.05	226.21
982.34	226.19
982.63	226.17
982.93	226.18
983.22	226.19
983.51	226.19
983.80	226.23
984.09	226.26
984.39	226.24
984.68	226.22
984.97	226.25
985.26	226.22
985.55	226.23
985.85	226.19
986.14	226.20
986.43	226.19
986.72	226.18
987.01	226.17
987.30	226.20
987.59	226.17
987.89	226.13
988.18	226.10
988.47	226.08
988.76	226.07
989.05	226.02
989.34	225.99
989.63	226.02
989.92	225.99
990.22	225.96
990.51	225.95
990.80	225.93
991.09	225.95
991.38	225.95
991.67	225.95
991.96	225.97
992.25	225.97
992.54	225.97
992.83	225.99
993.12	225.97
993.41	226.01
993.70	226.03
993.99	226.06
994.28	226.06
994.58	226.08
994.87	226.07
995.16	226.09
995.45	226.12
995.74	226.10
996.03	226.12
996.32	226.12
996.61	226.16
996.90	226.18
997.19	226.15
997.48	226.14
997.77	226.12
998.06	226.12
998.34	226.14
998.63	226.10
998.92	226.09
999.21	226.12
999.50	226.08
999.79	226.06
1000.08	226.03
1000.37	226.00
1000.66	225.99
1000.95	226.01
1001.24	226.03
1001.53	226.03
1001.82	225.99
1002.11	225.97
1002.40	225.98
1002.68	225.96
1002.97	226.02
1003.26	226.03
1003.55	226.01
1003.84	226.03
1004.13	226.06
1004.42	226.04
1004.71	226.05
1004.99	226.05
1005.28	226.04
1005.57	226.02
1005.86	226.00
1006.15	225.99
1006.44	225.96
1006.72	225.95
1007.01	225.95
1007.30	225.92
1007.59	225.94
1007.88	225.94
1008.17	225.92
1008.45	225.92
1008.74	225.88
1009.03	225.81
1009.32	225.81
1009.60	225.86
1009.89	225.83
1010.18	225.77
1010.47	225.76
1010.76	225.77
1011.04	225.74
1011.33	225.77
1011.62	225.76
1011.91	225.78
1012.19	225.80
1012.48	225.82
1012.77	225.83
1013.05	225.85
1013.34	225.88
1013.63	225.84
1013.92	225.87
1014.20	225.88
1014.49	225.88
1014.78	225.93
1015.06	225.90
1015.35	225.89
1015.64	225.89
1015.92	225.94
1016.21	225.97
1016.50	226.00
1016.78	226.02
1017.07	226.02
1017.36	225.99
1017.64	226.01
1017.93	226.02
1018.22	226.03
1018.50	226.04
1018.79	226.03
1019.08	225.99
1019.36	226.00
1019.65	226.00
1019.93	225.99
1020.22	226.00
1020.51	226.04
1020.79	226.00
1021.08	226.30
1021.36	225.96
1021.65	225.68
1021.94	225.89
1022.22	226.31
1022.51	225.67
1022.79	225.95
1023.08	225.97
1023.36	227.41
1023.65	225.50
>>>>>End Processed Spectral Data<<<<<
