SpectraSuite Data File
++++++++++++++++++++++++++++++++++++
Date: Fri Feb 01 15:57:32 EST 2013
User: group
Dark Spectrum Present: No
Reference Spectrum Present: No
Number of Sampled Component Spectra: 1
Spectrometers: USB2E7196
Integration Time (usec): 35000 (USB2E7196)
Spectra Averaged: 100 (USB2E7196)
Boxcar Smoothing: 10 (USB2E7196)
Correct for Electrical Dark: No (USB2E7196)
Strobe/Lamp Enabled: No (USB2E7196)
Correct for Detector Non-linearity: No (USB2E7196)
Correct for Stray Light: No (USB2E7196)
Number of Pixels in Processed Spectrum: 2048
>>>>>Begin Processed Spectral Data<<<<<
339.09	0.00
339.48	215.44
339.86	216.18
340.24	217.43
340.63	218.63
341.01	221.62
341.39	221.42
341.78	223.60
342.16	224.10
342.54	224.60
342.93	213.02
343.31	223.79
343.69	224.29
344.07	224.74
344.46	225.17
344.84	225.54
345.22	225.77
345.60	226.03
345.99	226.20
346.37	226.34
346.75	226.45
347.13	226.49
347.52	226.57
347.90	226.64
348.28	226.66
348.66	226.72
349.05	226.71
349.43	226.73
349.81	226.80
350.19	226.84
350.57	226.91
350.96	226.97
351.34	227.09
351.72	227.15
352.10	227.27
352.48	227.34
352.87	227.41
353.25	227.48
353.63	227.56
354.01	227.63
354.39	227.71
354.77	227.78
355.15	227.92
355.54	227.96
355.92	228.05
356.30	228.13
356.68	228.33
357.06	228.41
357.44	228.50
357.82	228.55
358.20	228.61
358.58	228.68
358.97	228.76
359.35	228.84
359.73	228.96
360.11	229.00
360.49	229.08
360.87	229.18
361.25	229.25
361.63	229.32
362.01	229.35
362.39	229.35
362.77	229.42
363.15	229.44
363.53	229.50
363.91	229.48
364.29	229.49
364.67	229.36
365.05	229.37
365.43	229.40
365.81	229.45
366.19	229.50
366.57	229.48
366.95	229.47
367.33	229.41
367.71	229.40
368.09	229.40
368.47	229.39
368.85	229.35
369.23	229.33
369.61	229.29
369.99	229.30
370.37	229.30
370.75	229.29
371.13	229.28
371.51	229.21
371.89	229.20
372.27	229.20
372.65	229.19
373.03	229.17
373.41	229.08
373.78	229.03
374.16	228.96
374.54	228.91
374.92	228.84
375.30	228.80
375.68	228.70
376.06	228.64
376.44	228.54
376.82	228.45
377.19	228.39
377.57	228.32
377.95	228.26
378.33	228.19
378.71	228.05
379.09	227.96
379.47	227.91
379.84	227.84
380.22	227.72
380.60	227.62
380.98	227.53
381.36	227.46
381.73	227.37
382.11	227.32
382.49	227.25
382.87	227.18
383.25	227.12
383.62	227.18
384.00	227.09
384.38	227.05
384.76	227.01
385.13	227.00
385.51	226.89
385.89	226.80
386.27	226.73
386.64	226.71
387.02	226.64
387.40	226.58
387.78	226.55
388.15	226.52
388.53	226.49
388.91	226.47
389.29	226.43
389.66	226.42
390.04	226.40
390.42	226.40
390.79	226.40
391.17	226.36
391.55	226.23
391.92	226.24
392.30	226.22
392.68	226.20
393.05	226.17
393.43	226.23
393.81	226.22
394.18	226.21
394.56	226.22
394.94	226.29
395.31	226.29
395.69	226.32
396.06	226.35
396.44	226.38
396.82	226.39
397.19	226.46
397.57	226.49
397.95	226.52
398.32	226.51
398.70	226.56
399.07	226.64
399.45	226.71
399.82	226.75
400.20	226.81
400.58	226.90
400.95	226.88
401.33	226.97
401.70	227.11
402.08	227.22
402.45	227.28
402.83	227.38
403.20	227.50
403.58	227.61
403.95	227.72
404.33	227.86
404.71	227.97
405.08	228.13
405.46	228.25
405.83	228.44
406.21	228.62
406.58	228.77
406.96	228.93
407.33	229.08
407.70	229.30
408.08	229.58
408.45	229.82
408.83	230.07
409.20	230.29
409.58	230.48
409.95	230.74
410.33	231.05
410.70	231.28
411.08	231.57
411.45	231.86
411.82	232.20
412.20	232.54
412.57	232.97
412.95	233.28
413.32	233.71
413.69	234.08
414.07	234.51
414.44	235.00
414.82	235.47
415.19	236.02
415.56	236.57
415.94	237.11
416.31	237.71
416.68	238.37
417.06	239.07
417.43	239.77
417.81	240.56
418.18	241.30
418.55	242.14
418.93	243.02
419.30	243.93
419.67	244.83
420.04	245.77
420.42	246.75
420.79	247.93
421.16	249.04
421.54	250.22
421.91	251.44
422.28	252.68
422.66	254.02
423.03	255.31
423.40	256.63
423.77	258.05
424.15	259.51
424.52	260.97
424.89	262.58
425.26	264.10
425.64	265.53
426.01	267.18
426.38	268.84
426.75	270.54
427.13	272.25
427.50	274.07
427.87	276.00
428.24	277.89
428.61	279.62
428.99	281.61
429.36	283.74
429.73	285.82
430.10	287.83
430.47	289.89
430.85	292.04
431.22	294.29
431.59	296.69
431.96	298.89
432.33	301.38
432.70	303.78
433.08	306.64
433.45	309.29
433.82	311.88
434.19	314.73
434.56	317.51
434.93	320.16
435.30	322.79
435.68	325.65
436.05	328.46
436.42	331.28
436.79	333.78
437.16	336.43
437.53	339.20
437.90	341.99
438.27	344.75
438.64	347.59
439.01	350.14
439.38	352.37
439.75	354.57
440.13	357.07
440.50	359.36
440.87	361.17
441.24	363.08
441.61	365.23
441.98	366.73
442.35	368.51
442.72	370.36
443.09	372.14
443.46	373.13
443.83	373.73
444.20	374.22
444.57	375.08
444.94	375.40
445.31	375.78
445.68	376.17
446.05	376.26
446.42	375.83
446.79	375.41
447.16	374.91
447.53	374.58
447.90	373.40
448.27	372.28
448.64	370.72
449.01	369.58
449.37	367.62
449.74	365.76
450.11	363.54
450.48	361.11
450.85	358.58
451.22	356.46
451.59	354.44
451.96	352.50
452.33	349.90
452.70	347.53
453.07	344.70
453.43	341.78
453.80	339.00
454.17	336.39
454.54	333.86
454.91	331.16
455.28	328.50
455.65	326.06
456.02	323.65
456.38	321.50
456.75	318.87
457.12	316.61
457.49	314.39
457.86	312.21
458.23	310.34
458.59	308.28
458.96	306.18
459.33	304.33
459.70	302.48
460.07	300.94
460.43	299.20
460.80	297.57
461.17	296.14
461.54	294.64
461.91	293.17
462.27	291.74
462.64	290.53
463.01	289.20
463.38	287.88
463.74	286.46
464.11	285.27
464.48	284.24
464.85	283.14
465.21	282.30
465.58	281.40
465.95	280.30
466.32	279.41
466.68	278.51
467.05	277.62
467.42	276.71
467.78	275.77
468.15	274.95
468.52	274.32
468.88	273.44
469.25	272.66
469.62	272.05
469.98	271.38
470.35	270.74
470.72	270.09
471.08	269.45
471.45	268.92
471.82	268.39
472.18	267.78
472.55	267.34
472.92	266.79
473.28	266.31
473.65	265.86
474.02	265.45
474.38	265.06
474.75	264.72
475.11	264.38
475.48	264.13
475.85	263.91
476.21	263.61
476.58	263.43
476.94	263.28
477.31	263.11
477.67	262.95
478.04	262.82
478.41	262.75
478.77	262.77
479.14	262.73
479.50	262.77
479.87	262.84
480.23	262.93
480.60	263.00
480.96	263.09
481.33	263.30
481.69	263.52
482.06	263.74
482.42	263.98
482.79	264.25
483.15	264.60
483.52	264.96
483.88	265.38
484.25	265.80
484.61	266.24
484.98	266.69
485.34	267.27
485.71	267.87
486.07	268.49
486.44	269.07
486.80	269.73
487.17	270.47
487.53	271.31
487.90	272.14
488.26	273.06
488.62	274.03
488.99	275.03
489.35	276.08
489.72	277.20
490.08	278.37
490.44	279.63
490.81	280.96
491.17	282.26
491.54	283.76
491.90	285.28
492.26	286.92
492.63	288.68
492.99	290.45
493.36	292.38
493.72	294.45
494.08	296.59
494.45	298.86
494.81	301.20
495.17	303.64
495.54	306.20
495.90	308.87
496.26	311.70
496.63	314.64
496.99	317.70
497.35	320.95
497.72	324.36
498.08	327.87
498.44	331.52
498.80	335.48
499.17	339.53
499.53	343.68
499.89	348.04
500.26	352.56
500.62	357.25
500.98	362.17
501.34	367.22
501.71	372.58
502.07	378.03
502.43	383.66
502.79	389.53
503.16	395.62
503.52	401.93
503.88	408.32
504.24	414.97
504.60	421.88
504.97	429.05
505.33	436.38
505.69	444.10
506.05	451.91
506.41	459.77
506.78	467.93
507.14	476.39
507.50	485.14
507.86	494.12
508.22	503.32
508.59	512.51
508.95	522.07
509.31	531.84
509.67	541.90
510.03	552.15
510.39	562.65
510.75	573.46
511.12	584.39
511.48	595.69
511.84	607.12
512.20	618.63
512.56	630.60
512.92	642.76
513.28	655.08
513.64	667.52
514.00	680.24
514.37	693.20
514.73	706.29
515.09	719.27
515.45	732.55
515.81	746.05
516.17	760.03
516.53	774.17
516.89	788.36
517.25	802.55
517.61	817.04
517.97	831.49
518.33	845.87
518.69	860.63
519.05	875.55
519.41	890.73
519.77	906.24
520.13	921.54
520.49	936.99
520.85	952.37
521.21	968.18
521.57	984.47
521.93	1000.24
522.29	1016.59
522.65	1032.84
523.01	1049.00
523.37	1065.12
523.73	1081.29
524.09	1097.42
524.45	1113.69
524.81	1130.23
525.17	1147.00
525.53	1163.88
525.89	1180.72
526.25	1197.51
526.61	1214.00
526.97	1230.70
527.33	1247.17
527.68	1263.80
528.04	1280.16
528.40	1296.59
528.76	1313.61
529.12	1330.05
529.48	1346.81
529.84	1362.83
530.20	1379.40
530.56	1396.49
530.91	1413.79
531.27	1430.58
531.63	1447.00
531.99	1463.52
532.35	1479.55
532.71	1495.36
533.07	1511.58
533.42	1527.46
533.78	1543.51
534.14	1559.75
534.50	1575.10
534.86	1590.99
535.21	1606.31
535.57	1622.36
535.93	1637.93
536.29	1652.69
536.65	1667.69
537.00	1682.39
537.36	1697.64
537.72	1712.25
538.08	1726.57
538.44	1740.41
538.79	1754.27
539.15	1767.92
539.51	1781.61
539.87	1795.88
540.22	1809.56
540.58	1823.29
540.94	1836.65
541.29	1849.45
541.65	1862.16
542.01	1875.26
542.37	1887.40
542.72	1899.64
543.08	1911.18
543.44	1923.58
543.79	1934.67
544.15	1945.71
544.51	1957.40
544.87	1968.33
545.22	1979.11
545.58	1989.25
545.94	1998.91
546.29	2008.65
546.65	2018.50
547.01	2027.68
547.36	2036.31
547.72	2044.82
548.07	2052.67
548.43	2060.75
548.79	2068.83
549.14	2076.19
549.50	2083.61
549.86	2091.33
550.21	2098.58
550.57	2105.80
550.92	2112.14
551.28	2119.27
551.64	2126.30
551.99	2132.65
552.35	2138.80
552.70	2144.72
553.06	2150.77
553.41	2157.08
553.77	2163.13
554.13	2169.04
554.48	2175.37
554.84	2180.81
555.19	2186.11
555.55	2191.15
555.90	2195.57
556.26	2200.46
556.61	2205.26
556.97	2209.50
557.32	2213.68
557.68	2217.94
558.03	2222.28
558.39	2226.24
558.74	2230.90
559.10	2234.82
559.45	2238.54
559.81	2242.76
560.16	2246.72
560.52	2249.89
560.87	2253.32
561.23	2256.04
561.58	2259.02
561.94	2261.38
562.29	2263.75
562.64	2266.31
563.00	2268.90
563.35	2272.40
563.71	2275.49
564.06	2278.66
564.42	2281.46
564.77	2284.01
565.12	2286.20
565.48	2288.09
565.83	2289.81
566.19	2290.94
566.54	2291.84
566.89	2292.88
567.25	2293.53
567.60	2294.86
567.96	2296.73
568.31	2297.64
568.66	2298.71
569.02	2299.41
569.37	2299.72
569.72	2300.62
570.08	2300.91
570.43	2301.03
570.78	2300.55
571.14	2299.02
571.49	2297.74
571.84	2297.40
572.20	2296.27
572.55	2295.23
572.90	2293.78
573.26	2292.56
573.61	2291.00
573.96	2289.17
574.31	2286.40
574.67	2283.51
575.02	2279.89
575.37	2276.31
575.72	2272.52
576.08	2269.24
576.43	2265.89
576.78	2262.24
577.13	2259.17
577.49	2256.03
577.84	2252.47
578.19	2248.74
578.54	2245.25
578.90	2241.00
579.25	2235.51
579.60	2230.55
579.95	2225.59
580.30	2220.44
580.66	2215.21
581.01	2210.19
581.36	2205.30
581.71	2201.05
582.06	2196.40
582.42	2191.94
582.77	2186.71
583.12	2182.13
583.47	2177.38
583.82	2172.41
584.17	2167.18
584.53	2161.65
584.88	2155.95
585.23	2150.30
585.58	2144.82
585.93	2139.23
586.28	2134.54
586.63	2129.44
586.98	2124.35
587.34	2119.63
587.69	2114.89
588.04	2109.55
588.39	2103.96
588.74	2097.56
589.09	2091.40
589.44	2084.79
589.79	2078.92
590.14	2073.44
590.49	2066.97
590.84	2060.55
591.19	2054.53
591.54	2048.11
591.89	2040.65
592.25	2033.83
592.60	2026.52
592.95	2018.87
593.30	2011.49
593.65	2003.88
594.00	1996.90
594.35	1989.67
594.70	1981.65
595.05	1974.28
595.40	1966.99
595.75	1959.52
596.10	1953.15
596.45	1946.35
596.80	1940.14
597.15	1933.36
597.50	1926.19
597.85	1919.70
598.19	1913.05
598.54	1905.80
598.89	1899.11
599.24	1893.31
599.59	1886.64
599.94	1880.46
600.29	1874.30
600.64	1867.79
600.99	1860.28
601.34	1853.45
601.69	1846.49
602.04	1839.71
602.39	1832.44
602.74	1825.76
603.08	1819.06
603.43	1812.49
603.78	1805.26
604.13	1798.08
604.48	1790.65
604.83	1783.77
605.18	1776.63
605.53	1768.61
605.87	1760.74
606.22	1753.50
606.57	1745.47
606.92	1738.24
607.27	1731.17
607.62	1724.17
607.96	1716.82
608.31	1710.25
608.66	1702.68
609.01	1695.10
609.36	1687.36
609.70	1679.31
610.05	1671.17
610.40	1663.44
610.75	1655.05
611.10	1647.44
611.44	1638.92
611.79	1631.06
612.14	1622.33
612.49	1613.31
612.83	1605.05
613.18	1596.90
613.53	1588.78
613.88	1580.30
614.22	1571.87
614.57	1563.32
614.92	1555.12
615.27	1547.45
615.61	1539.05
615.96	1530.98
616.31	1523.42
616.65	1516.07
617.00	1508.49
617.35	1500.91
617.70	1492.45
618.04	1484.03
618.39	1475.77
618.74	1468.28
619.08	1460.08
619.43	1452.54
619.78	1445.70
620.12	1438.35
620.47	1430.80
620.82	1422.76
621.16	1415.46
621.51	1407.98
621.85	1400.24
622.20	1391.94
622.55	1383.74
622.89	1375.99
623.24	1368.44
623.59	1361.05
623.93	1353.56
624.28	1346.41
624.62	1338.91
624.97	1331.92
625.32	1325.09
625.66	1318.06
626.01	1310.80
626.35	1303.27
626.70	1295.59
627.04	1287.85
627.39	1280.22
627.73	1272.84
628.08	1265.94
628.43	1258.53
628.77	1251.14
629.12	1243.67
629.46	1236.41
629.81	1228.96
630.15	1221.67
630.50	1214.21
630.84	1205.94
631.19	1198.06
631.53	1190.53
631.88	1183.00
632.22	1175.15
632.57	1167.88
632.91	1160.29
633.26	1152.89
633.60	1145.63
633.95	1138.55
634.29	1131.54
634.64	1124.79
634.98	1117.42
635.32	1110.19
635.67	1103.61
636.01	1096.98
636.36	1090.06
636.70	1083.62
637.05	1077.09
637.39	1070.55
637.73	1064.04
638.08	1058.20
638.42	1052.14
638.77	1045.68
639.11	1039.04
639.45	1032.81
639.80	1026.13
640.14	1019.74
640.49	1013.23
640.83	1006.88
641.17	1000.57
641.52	994.18
641.86	987.76
642.20	981.91
642.55	975.65
642.89	969.19
643.23	962.58
643.58	956.92
643.92	950.64
644.26	944.47
644.61	938.49
644.95	932.41
645.29	925.75
645.64	919.03
645.98	912.64
646.32	906.70
646.66	900.70
647.01	894.91
647.35	889.17
647.69	883.27
648.04	877.74
648.38	871.90
648.72	865.90
649.06	859.83
649.41	854.00
649.75	847.92
650.09	841.92
650.43	836.17
650.78	829.95
651.12	823.95
651.46	818.30
651.80	812.52
652.14	807.13
652.49	801.80
652.83	796.66
653.17	790.95
653.51	785.26
653.85	779.84
654.20	774.22
654.54	768.27
654.88	762.59
655.22	756.70
655.56	751.08
655.90	745.66
656.25	740.41
656.59	735.01
656.93	730.02
657.27	724.93
657.61	719.51
657.95	714.43
658.29	709.41
658.64	704.24
658.98	698.96
659.32	693.51
659.66	688.31
660.00	683.01
660.34	678.17
660.68	673.30
661.02	668.25
661.36	663.51
661.70	658.97
662.05	654.62
662.39	650.29
662.73	645.83
663.07	641.43
663.41	637.05
663.75	632.52
664.09	627.96
664.43	623.61
664.77	619.48
665.11	615.22
665.45	611.08
665.79	606.93
666.13	602.78
666.47	598.75
666.81	594.57
667.15	590.41
667.49	586.47
667.83	582.62
668.17	578.71
668.51	574.57
668.85	570.56
669.19	566.75
669.53	562.87
669.87	558.94
670.21	555.21
670.55	551.50
670.89	548.12
671.23	544.67
671.57	541.06
671.91	537.55
672.25	534.11
672.58	530.59
672.92	527.18
673.26	524.03
673.60	520.83
673.94	517.75
674.28	514.86
674.62	511.90
674.96	508.77
675.30	505.85
675.64	502.96
675.97	500.19
676.31	497.24
676.65	494.29
676.99	491.62
677.33	488.72
677.67	485.86
678.01	482.79
678.34	479.87
678.68	477.00
679.02	474.17
679.36	471.35
679.70	468.63
680.04	465.87
680.37	462.98
680.71	460.18
681.05	457.56
681.39	454.84
681.73	452.21
682.06	449.74
682.40	447.17
682.74	444.59
683.08	442.09
683.42	439.48
683.75	436.99
684.09	434.46
684.43	431.97
684.77	429.58
685.10	427.27
685.44	424.94
685.78	422.62
686.12	420.42
686.45	418.15
686.79	415.89
687.13	413.73
687.46	411.54
687.80	409.40
688.14	407.12
688.48	405.03
688.81	402.74
689.15	400.54
689.49	398.38
689.82	396.35
690.16	394.25
690.50	392.32
690.83	390.38
691.17	388.38
691.51	386.53
691.84	384.66
692.18	382.69
692.52	380.70
692.85	378.83
693.19	376.90
693.52	375.06
693.86	373.23
694.20	371.40
694.53	369.62
694.87	367.77
695.21	366.06
695.54	364.27
695.88	362.57
696.21	360.87
696.55	359.19
696.88	357.55
697.22	355.91
697.56	354.33
697.89	352.70
698.23	351.09
698.56	349.45
698.90	347.87
699.23	346.26
699.57	344.72
699.90	343.18
700.24	341.65
700.58	340.08
700.91	338.60
701.25	337.19
701.58	335.87
701.92	334.55
702.25	333.17
702.59	331.79
702.92	330.47
703.26	329.20
703.59	327.96
703.93	326.73
704.26	325.48
704.60	324.14
704.93	322.86
705.26	321.60
705.60	320.49
705.93	319.35
706.27	318.27
706.60	317.18
706.94	316.08
707.27	314.97
707.61	313.95
707.94	312.95
708.27	311.89
708.61	310.81
708.94	309.79
709.28	308.78
709.61	307.84
709.94	306.90
710.28	305.86
710.61	304.88
710.95	303.81
711.28	302.92
711.61	302.00
711.95	301.08
712.28	300.15
712.61	299.16
712.95	298.18
713.28	297.34
713.61	296.43
713.95	295.57
714.28	294.74
714.61	293.86
714.95	293.03
715.28	292.14
715.61	291.23
715.95	290.35
716.28	289.48
716.61	288.65
716.95	287.83
717.28	287.12
717.61	286.32
717.94	285.61
718.28	284.79
718.61	284.10
718.94	283.44
719.27	282.78
719.61	282.14
719.94	281.47
720.27	280.74
720.60	280.07
720.94	279.46
721.27	278.87
721.60	278.31
721.93	277.69
722.27	277.13
722.60	276.62
722.93	276.08
723.26	275.57
723.59	275.01
723.93	274.47
724.26	273.87
724.59	273.34
724.92	272.79
725.25	272.29
725.59	271.74
725.92	271.22
726.25	270.74
726.58	270.24
726.91	269.78
727.24	269.31
727.57	268.86
727.91	268.35
728.24	267.85
728.57	267.33
728.90	266.86
729.23	266.36
729.56	265.90
729.89	265.40
730.22	264.93
730.55	264.45
730.89	263.98
731.22	263.57
731.55	263.12
731.88	262.71
732.21	262.28
732.54	261.85
732.87	261.41
733.20	260.99
733.53	260.61
733.86	260.21
734.19	259.82
734.52	259.45
734.85	259.10
735.18	258.66
735.51	258.33
735.84	257.95
736.17	257.59
736.50	257.20
736.83	256.98
737.16	256.67
737.49	256.32
737.82	255.97
738.15	255.63
738.48	255.29
738.81	254.94
739.14	254.60
739.47	254.30
739.80	253.98
740.13	253.66
740.46	253.31
740.79	252.98
741.12	252.69
741.45	252.36
741.78	252.02
742.11	251.80
742.44	251.44
742.77	251.16
743.10	250.92
743.43	250.62
743.75	250.22
744.08	250.05
744.41	249.76
744.74	249.49
745.07	249.22
745.40	248.98
745.73	248.74
746.06	248.47
746.39	248.20
746.71	247.94
747.04	247.68
747.37	247.43
747.70	247.21
748.03	246.94
748.36	246.72
748.68	246.52
749.01	246.25
749.34	246.02
749.67	245.80
750.00	245.56
750.33	245.41
750.65	245.18
750.98	244.84
751.31	244.64
751.64	244.42
751.97	244.24
752.29	244.01
752.62	243.77
752.95	243.59
753.28	243.38
753.60	243.18
753.93	243.02
754.26	242.83
754.59	242.60
754.91	242.41
755.24	242.21
755.57	242.00
755.90	241.83
756.22	241.65
756.55	241.45
756.88	241.26
757.20	241.06
757.53	240.87
757.86	240.75
758.19	240.63
758.51	240.42
758.84	240.24
759.17	240.11
759.49	239.93
759.82	239.81
760.15	239.66
760.47	239.50
760.80	239.34
761.13	239.21
761.45	239.05
761.78	238.89
762.11	238.73
762.43	238.60
762.76	238.46
763.08	238.35
763.41	238.21
763.74	238.07
764.06	237.91
764.39	237.80
764.71	237.62
765.04	237.49
765.37	237.38
765.69	237.23
766.02	237.07
766.34	236.97
766.67	236.80
767.00	236.70
767.32	236.66
767.65	236.57
767.97	236.42
768.30	236.29
768.62	236.18
768.95	236.05
769.27	235.90
769.60	235.75
769.92	235.61
770.25	235.51
770.57	235.36
770.90	235.29
771.22	235.17
771.55	235.03
771.87	234.90
772.20	234.81
772.52	234.78
772.85	234.82
773.17	234.73
773.50	234.62
773.82	234.51
774.15	234.37
774.47	234.19
774.80	234.08
775.12	234.02
775.45	233.94
775.77	233.86
776.09	233.80
776.42	233.73
776.74	233.69
777.07	233.59
777.39	233.52
777.72	233.41
778.04	233.36
778.36	233.31
778.69	233.23
779.01	233.15
779.33	233.03
779.66	232.85
779.98	232.77
780.31	232.72
780.63	232.68
780.95	232.62
781.28	232.54
781.60	232.50
781.92	232.44
782.25	232.37
782.57	232.31
782.89	232.23
783.22	232.17
783.54	232.10
783.86	232.07
784.19	232.02
784.51	231.98
784.83	231.88
785.16	231.83
785.48	231.80
785.80	231.78
786.12	231.71
786.45	231.66
786.77	231.67
787.09	231.59
787.42	231.52
787.74	231.48
788.06	231.48
788.38	231.45
788.71	231.38
789.03	231.34
789.35	231.32
789.67	231.26
789.99	231.24
790.32	231.17
790.64	231.13
790.96	231.17
791.28	231.12
791.61	231.10
791.93	231.07
792.25	231.01
792.57	231.00
792.89	230.96
793.21	230.94
793.54	230.86
793.86	230.83
794.18	230.77
794.50	230.70
794.82	230.65
795.14	230.62
795.47	230.60
795.79	230.58
796.11	230.52
796.43	230.49
796.75	230.47
797.07	230.45
797.39	230.43
797.71	230.33
798.04	230.29
798.36	230.26
798.68	230.23
799.00	230.22
799.32	230.15
799.64	230.14
799.96	230.07
800.28	230.07
800.60	230.06
800.92	230.06
801.24	230.01
801.56	230.02
801.89	229.97
802.21	229.95
802.53	229.89
802.85	229.93
803.17	229.98
803.49	229.88
803.81	229.84
804.13	229.81
804.45	229.79
804.77	229.77
805.09	229.74
805.41	229.69
805.73	229.63
806.05	229.61
806.37	229.53
806.69	229.51
807.01	229.47
807.33	229.41
807.65	229.35
807.97	229.36
808.28	229.32
808.60	229.31
808.92	229.26
809.24	229.29
809.56	229.21
809.88	229.10
810.20	229.14
810.52	229.14
810.84	229.09
811.16	229.04
811.48	229.02
811.80	229.04
812.12	229.02
812.43	229.01
812.75	228.97
813.07	228.97
813.39	228.97
813.71	228.94
814.03	228.92
814.35	228.92
814.67	228.91
814.98	228.89
815.30	228.87
815.62	228.82
815.94	228.72
816.26	228.76
816.58	228.77
816.89	228.74
817.21	228.70
817.53	228.69
817.85	228.69
818.17	228.64
818.48	228.61
818.80	228.60
819.12	228.61
819.44	228.58
819.76	228.54
820.07	228.51
820.39	228.48
820.71	228.47
821.03	228.45
821.34	228.38
821.66	228.36
821.98	228.34
822.30	228.34
822.61	228.44
822.93	228.38
823.25	228.34
823.57	228.33
823.88	228.34
824.20	228.31
824.52	228.28
824.83	228.31
825.15	228.26
825.47	228.25
825.79	228.21
826.10	228.23
826.42	228.23
826.74	228.23
827.05	228.22
827.37	228.21
827.69	228.22
828.00	228.25
828.32	228.25
828.64	228.25
828.95	228.29
829.27	228.19
829.58	228.21
829.90	228.20
830.22	228.18
830.53	228.15
830.85	228.14
831.17	228.13
831.48	228.10
831.80	228.11
832.11	228.09
832.43	228.08
832.75	228.08
833.06	228.11
833.38	228.08
833.69	228.08
834.01	228.08
834.32	228.07
834.64	228.04
834.96	228.02
835.27	228.01
835.59	227.98
835.90	227.96
836.22	227.93
836.53	227.92
836.85	227.92
837.16	227.99
837.48	227.98
837.79	228.00
838.11	227.98
838.42	227.95
838.74	227.98
839.05	227.94
839.37	227.92
839.68	227.84
840.00	227.80
840.31	227.81
840.63	227.75
840.94	227.73
841.26	227.71
841.57	227.69
841.88	227.68
842.20	227.67
842.51	227.66
842.83	227.68
843.14	227.72
843.46	227.70
843.77	227.62
844.08	227.60
844.40	227.55
844.71	227.56
845.03	227.57
845.34	227.51
845.65	227.50
845.97	227.48
846.28	227.49
846.60	227.49
846.91	227.44
847.22	227.48
847.54	227.49
847.85	227.48
848.16	227.49
848.48	227.47
848.79	227.50
849.10	227.48
849.42	227.48
849.73	227.40
850.04	227.39
850.36	227.38
850.67	227.39
850.98	227.38
851.30	227.38
851.61	227.34
851.92	227.34
852.23	227.35
852.55	227.35
852.86	227.36
853.17	227.38
853.49	227.39
853.80	227.39
854.11	227.37
854.42	227.38
854.74	227.32
855.05	227.30
855.36	227.25
855.67	227.25
855.99	227.22
856.30	227.29
856.61	227.31
856.92	227.31
857.23	227.30
857.55	227.32
857.86	227.32
858.17	227.35
858.48	227.31
858.79	227.31
859.11	227.31
859.42	227.31
859.73	227.28
860.04	227.32
860.35	227.30
860.66	227.31
860.98	227.29
861.29	227.33
861.60	227.32
861.91	227.35
862.22	227.35
862.53	227.35
862.84	227.28
863.16	227.29
863.47	227.27
863.78	227.28
864.09	227.25
864.40	227.26
864.71	227.27
865.02	227.31
865.33	227.30
865.64	227.30
865.95	227.33
866.27	227.40
866.58	227.33
866.89	227.33
867.20	227.31
867.51	227.33
867.82	227.31
868.13	227.35
868.44	227.32
868.75	227.36
869.06	227.38
869.37	227.36
869.68	227.31
869.99	227.32
870.30	227.32
870.61	227.31
870.92	227.28
871.23	227.26
871.54	227.28
871.85	227.30
872.16	227.31
872.47	227.27
872.78	227.19
873.09	227.25
873.40	227.25
873.71	227.26
874.02	227.25
874.33	227.26
874.64	227.23
874.95	227.25
875.26	227.22
875.56	227.18
875.87	227.20
876.18	227.23
876.49	227.35
876.80	227.36
877.11	227.38
877.42	227.37
877.73	227.38
878.04	227.35
878.35	227.34
878.66	227.32
878.96	227.31
879.27	227.33
879.58	227.28
879.89	227.27
880.20	227.32
880.51	227.29
880.82	227.26
881.12	227.27
881.43	227.24
881.74	227.25
882.05	227.26
882.36	227.24
882.67	227.23
882.97	227.09
883.28	227.08
883.59	227.03
883.90	227.03
884.21	227.03
884.51	226.99
884.82	226.98
885.13	227.00
885.44	227.02
885.74	227.02
886.05	227.03
886.36	227.00
886.67	226.96
886.98	227.04
887.28	227.03
887.59	227.01
887.90	227.03
888.20	226.99
888.51	227.01
888.82	227.00
889.13	226.98
889.43	227.04
889.74	227.02
890.05	226.99
890.35	227.01
890.66	226.96
890.97	226.96
891.28	226.96
891.58	226.94
891.89	226.90
892.20	226.88
892.50	226.85
892.81	226.85
893.12	226.84
893.42	226.75
893.73	226.77
894.04	226.80
894.34	226.77
894.65	226.77
894.95	226.77
895.26	226.76
895.57	226.82
895.87	226.78
896.18	226.82
896.48	226.84
896.79	226.85
897.10	226.90
897.40	226.93
897.71	226.90
898.01	226.93
898.32	226.95
898.63	226.96
898.93	226.99
899.24	227.02
899.54	227.03
899.85	227.06
900.15	227.05
900.46	227.04
900.76	227.07
901.07	227.09
901.38	227.10
901.68	227.13
901.99	227.06
902.29	227.07
902.60	227.06
902.90	227.13
903.21	227.16
903.51	227.18
903.82	227.22
904.12	227.29
904.43	227.27
904.73	227.28
905.03	227.31
905.34	227.39
905.64	227.40
905.95	227.40
906.25	227.41
906.56	227.41
906.86	227.42
907.17	227.42
907.47	227.41
907.77	227.38
908.08	227.37
908.38	227.39
908.69	227.37
908.99	227.40
909.30	227.36
909.60	227.35
909.90	227.34
910.21	227.32
910.51	227.27
910.81	227.29
911.12	227.29
911.42	227.27
911.73	227.19
912.03	227.19
912.33	227.20
912.64	227.16
912.94	227.15
913.24	227.13
913.55	227.15
913.85	227.16
914.15	227.18
914.46	227.18
914.76	227.16
915.06	227.17
915.37	227.14
915.67	227.15
915.97	227.11
916.27	227.08
916.58	227.06
916.88	227.06
917.18	227.03
917.49	227.07
917.79	227.06
918.09	227.02
918.39	227.06
918.70	227.03
919.00	227.04
919.30	227.09
919.60	227.09
919.91	227.06
920.21	227.05
920.51	227.02
920.81	227.00
921.12	227.04
921.42	227.03
921.72	227.01
922.02	226.96
922.32	226.96
922.63	226.93
922.93	226.98
923.23	226.96
923.53	226.96
923.83	226.87
924.13	226.87
924.44	226.88
924.74	226.87
925.04	226.90
925.34	226.89
925.64	226.85
925.94	226.82
926.24	226.86
926.55	226.88
926.85	226.90
927.15	226.89
927.45	226.86
927.75	226.83
928.05	226.85
928.35	226.88
928.65	226.89
928.95	226.92
929.26	226.89
929.56	226.90
929.86	226.91
930.16	226.94
930.46	226.93
930.76	226.94
931.06	226.86
931.36	226.82
931.66	226.84
931.96	226.86
932.26	226.88
932.56	226.84
932.86	226.80
933.16	226.79
933.46	226.80
933.76	226.79
934.06	226.82
934.36	226.84
934.66	226.83
934.96	226.81
935.26	226.80
935.56	226.78
935.86	226.76
936.16	226.75
936.46	226.74
936.76	226.75
937.06	226.74
937.36	226.78
937.66	226.80
937.96	226.80
938.26	226.75
938.56	226.76
938.86	226.76
939.16	226.79
939.46	226.79
939.76	226.83
940.06	226.82
940.35	226.83
940.65	226.79
940.95	226.82
941.25	226.82
941.55	226.81
941.85	226.83
942.15	226.88
942.45	226.91
942.75	226.91
943.04	226.88
943.34	226.88
943.64	226.88
943.94	226.83
944.24	226.86
944.54	226.89
944.84	226.86
945.13	226.82
945.43	226.81
945.73	226.84
946.03	226.79
946.33	226.80
946.62	226.79
946.92	226.78
947.22	226.78
947.52	226.77
947.82	226.76
948.11	226.72
948.41	226.69
948.71	226.67
949.01	226.68
949.31	226.70
949.60	226.72
949.90	226.70
950.20	226.73
950.50	226.68
950.79	226.66
951.09	226.66
951.39	226.66
951.69	226.63
951.98	226.62
952.28	226.64
952.58	226.60
952.87	226.57
953.17	226.60
953.47	226.56
953.76	226.52
954.06	226.54
954.36	226.53
954.66	226.53
954.95	226.54
955.25	226.55
955.55	226.54
955.84	226.50
956.14	226.53
956.44	226.56
956.73	226.54
957.03	226.56
957.32	226.59
957.62	226.62
957.92	226.66
958.21	226.64
958.51	226.74
958.81	226.79
959.10	226.80
959.40	226.81
959.69	226.83
959.99	226.88
960.29	226.89
960.58	226.90
960.88	226.99
961.17	226.97
961.47	226.99
961.76	226.98
962.06	227.00
962.36	226.97
962.65	226.93
962.95	226.95
963.24	226.93
963.54	226.92
963.83	226.90
964.13	226.88
964.42	226.83
964.72	226.74
965.01	226.75
965.31	226.75
965.60	226.73
965.90	226.78
966.19	226.78
966.49	226.80
966.78	226.80
967.08	226.73
967.37	226.73
967.67	226.71
967.96	226.77
968.26	226.79
968.55	226.82
968.85	226.86
969.14	226.84
969.43	226.87
969.73	226.86
970.02	226.87
970.32	226.90
970.61	226.94
970.91	226.93
971.20	226.94
971.49	226.92
971.79	226.94
972.08	226.85
972.38	226.86
972.67	226.85
972.96	226.88
973.26	226.88
973.55	226.88
973.85	226.86
974.14	226.83
974.43	226.83
974.73	226.80
975.02	226.76
975.31	226.82
975.61	226.83
975.90	226.85
976.19	226.85
976.49	226.84
976.78	226.86
977.07	226.87
977.37	226.85
977.66	226.86
977.95	226.87
978.24	226.91
978.54	226.93
978.83	226.92
979.12	226.93
979.42	226.92
979.71	226.89
980.00	226.90
980.29	226.90
980.59	226.86
980.88	226.91
981.17	226.92
981.46	226.89
981.76	226.88
982.05	226.91
982.34	226.91
982.63	226.92
982.93	226.92
983.22	226.94
983.51	226.93
983.80	226.96
984.09	226.95
984.39	226.95
984.68	226.92
984.97	226.91
985.26	226.87
985.55	226.87
985.85	226.86
986.14	226.89
986.43	226.87
986.72	226.89
987.01	226.84
987.30	226.83
987.59	226.80
987.89	226.79
988.18	226.73
988.47	226.72
988.76	226.72
989.05	226.68
989.34	226.61
989.63	226.61
989.92	226.60
990.22	226.57
990.51	226.52
990.80	226.52
991.09	226.52
991.38	226.53
991.67	226.54
991.96	226.54
992.25	226.53
992.54	226.53
992.83	226.51
993.12	226.51
993.41	226.50
993.70	226.52
993.99	226.54
994.28	226.55
994.58	226.55
994.87	226.50
995.16	226.51
995.45	226.51
995.74	226.51
996.03	226.48
996.32	226.50
996.61	226.54
996.90	226.53
997.19	226.50
997.48	226.51
997.77	226.49
998.06	226.51
998.34	226.51
998.63	226.51
998.92	226.55
999.21	226.57
999.50	226.59
999.79	226.55
1000.08	226.54
1000.37	226.55
1000.66	226.54
1000.95	226.59
1001.24	226.60
1001.53	226.63
1001.82	226.62
1002.11	226.62
1002.40	226.63
1002.68	226.68
1002.97	226.76
1003.26	226.79
1003.55	226.76
1003.84	226.78
1004.13	226.80
1004.42	226.78
1004.71	226.76
1004.99	226.74
1005.28	226.77
1005.57	226.75
1005.86	226.78
1006.15	226.78
1006.44	226.80
1006.72	226.82
1007.01	226.83
1007.30	226.83
1007.59	226.85
1007.88	226.86
1008.17	226.90
1008.45	226.89
1008.74	226.84
1009.03	226.79
1009.32	226.80
1009.60	226.80
1009.89	226.79
1010.18	226.73
1010.47	226.77
1010.76	226.77
1011.04	226.77
1011.33	226.84
1011.62	226.85
1011.91	226.84
1012.19	226.83
1012.48	226.82
1012.77	226.82
1013.05	226.84
1013.34	226.84
1013.63	226.81
1013.92	226.81
1014.20	226.79
1014.49	226.78
1014.78	226.77
1015.06	226.73
1015.35	226.71
1015.64	226.75
1015.92	226.77
1016.21	226.79
1016.50	226.76
1016.78	226.75
1017.07	226.78
1017.36	226.70
1017.64	226.69
1017.93	226.69
1018.22	226.70
1018.50	226.71
1018.79	226.70
1019.08	226.63
1019.36	226.63
1019.65	226.61
1019.93	226.64
1020.22	226.67
1020.51	226.70
1020.79	226.67
1021.08	226.64
1021.36	227.00
1021.65	226.66
1021.94	226.15
1022.22	226.64
1022.51	226.50
1022.79	227.12
1023.08	227.02
1023.36	227.52
1023.65	225.70
>>>>>End Processed Spectral Data<<<<<
