SpectraSuite Data File
++++++++++++++++++++++++++++++++++++
Date: Fri Feb 01 16:11:19 EST 2013
User: group
Dark Spectrum Present: No
Reference Spectrum Present: No
Number of Sampled Component Spectra: 1
Spectrometers: USB2E7196
Integration Time (usec): 35000 (USB2E7196)
Spectra Averaged: 100 (USB2E7196)
Boxcar Smoothing: 10 (USB2E7196)
Correct for Electrical Dark: No (USB2E7196)
Strobe/Lamp Enabled: No (USB2E7196)
Correct for Detector Non-linearity: No (USB2E7196)
Correct for Stray Light: No (USB2E7196)
Number of Pixels in Processed Spectrum: 2048
>>>>>Begin Processed Spectral Data<<<<<
339.09	0.00
339.48	214.90
339.86	215.76
340.24	217.52
340.63	218.38
341.01	222.12
341.39	221.45
341.78	223.10
342.16	223.89
342.54	224.33
342.93	212.90
343.31	223.65
343.69	224.16
344.07	224.64
344.46	225.06
344.84	225.46
345.22	225.66
345.60	225.93
345.99	226.09
346.37	226.22
346.75	226.32
347.13	226.39
347.52	226.45
347.90	226.52
348.28	226.50
348.66	226.54
349.05	226.55
349.43	226.58
349.81	226.63
350.19	226.63
350.57	226.69
350.96	226.76
351.34	226.86
351.72	226.97
352.10	227.06
352.48	227.13
352.87	227.19
353.25	227.26
353.63	227.31
354.01	227.35
354.39	227.45
354.77	227.54
355.15	227.67
355.54	227.72
355.92	227.71
356.30	227.82
356.68	227.95
357.06	228.00
357.44	228.02
357.82	228.09
358.20	228.20
358.58	228.28
358.97	228.33
359.35	228.40
359.73	228.45
360.11	228.49
360.49	228.56
360.87	228.62
361.25	228.70
361.63	228.75
362.01	228.84
362.39	228.83
362.77	228.86
363.15	228.83
363.53	228.86
363.91	228.93
364.29	228.96
364.67	228.86
365.05	228.88
365.43	228.94
365.81	228.95
366.19	228.98
366.57	229.00
366.95	228.97
367.33	228.92
367.71	228.89
368.09	228.93
368.47	228.89
368.85	228.85
369.23	228.85
369.61	228.78
369.99	228.74
370.37	228.72
370.75	228.71
371.13	228.68
371.51	228.65
371.89	228.61
372.27	228.56
372.65	228.52
373.03	228.49
373.41	228.44
373.78	228.41
374.16	228.30
374.54	228.20
374.92	228.14
375.30	228.09
375.68	228.01
376.06	227.89
376.44	227.80
376.82	227.72
377.19	227.63
377.57	227.58
377.95	227.49
378.33	227.45
378.71	227.34
379.09	227.25
379.47	227.18
379.84	227.09
380.22	227.01
380.60	226.95
380.98	226.88
381.36	226.77
381.73	226.65
382.11	226.59
382.49	226.53
382.87	226.50
383.25	226.43
383.62	226.48
384.00	226.42
384.38	226.39
384.76	226.40
385.13	226.38
385.51	226.32
385.89	226.29
386.27	226.27
386.64	226.26
387.02	226.22
387.40	226.18
387.78	226.14
388.15	226.09
388.53	226.06
388.91	226.02
389.29	226.02
389.66	226.04
390.04	226.03
390.42	226.01
390.79	226.00
391.17	225.99
391.55	225.90
391.92	225.90
392.30	225.87
392.68	225.82
393.05	225.83
393.43	225.86
393.81	225.86
394.18	225.82
394.56	225.83
394.94	225.87
395.31	225.90
395.69	225.97
396.06	226.06
396.44	226.11
396.82	226.14
397.19	226.23
397.57	226.28
397.95	226.32
398.32	226.37
398.70	226.46
399.07	226.54
399.45	226.62
399.82	226.70
400.20	226.79
400.58	226.87
400.95	226.91
401.33	227.01
401.70	227.15
402.08	227.27
402.45	227.39
402.83	227.50
403.20	227.61
403.58	227.73
403.95	227.82
404.33	227.95
404.71	228.09
405.08	228.26
405.46	228.38
405.83	228.55
406.21	228.69
406.58	228.85
406.96	229.01
407.33	229.18
407.70	229.37
408.08	229.66
408.45	229.91
408.83	230.11
409.20	230.32
409.58	230.51
409.95	230.76
410.33	231.00
410.70	231.27
411.08	231.53
411.45	231.82
411.82	232.12
412.20	232.45
412.57	232.87
412.95	233.14
413.32	233.58
413.69	233.98
414.07	234.42
414.44	234.89
414.82	235.38
415.19	235.91
415.56	236.45
415.94	236.94
416.31	237.54
416.68	238.20
417.06	238.91
417.43	239.60
417.81	240.36
418.18	241.16
418.55	241.99
418.93	242.90
419.30	243.77
419.67	244.72
420.04	245.66
420.42	246.64
420.79	247.83
421.16	248.96
421.54	250.13
421.91	251.34
422.28	252.57
422.66	253.88
423.03	255.14
423.40	256.47
423.77	257.92
424.15	259.36
424.52	260.83
424.89	262.42
425.26	263.96
425.64	265.38
426.01	266.97
426.38	268.60
426.75	270.21
427.13	271.94
427.50	273.71
427.87	275.60
428.24	277.50
428.61	279.19
428.99	281.12
429.36	283.22
429.73	285.29
430.10	287.30
430.47	289.35
430.85	291.53
431.22	293.78
431.59	296.10
431.96	298.33
432.33	300.80
432.70	303.19
433.08	305.99
433.45	308.65
433.82	311.23
434.19	314.11
434.56	316.96
434.93	319.63
435.30	322.22
435.68	325.11
436.05	327.87
436.42	330.73
436.79	333.21
437.16	335.90
437.53	338.72
437.90	341.51
438.27	344.24
438.64	347.01
439.01	349.55
439.38	351.80
439.75	353.93
440.13	356.36
440.50	358.64
440.87	360.48
441.24	362.39
441.61	364.53
441.98	366.03
442.35	367.80
442.72	369.65
443.09	371.50
443.46	372.51
443.83	373.07
444.20	373.55
444.57	374.35
444.94	374.61
445.31	374.93
445.68	375.27
446.05	375.34
446.42	374.95
446.79	374.59
447.16	374.12
447.53	373.77
447.90	372.68
448.27	371.55
448.64	369.99
449.01	368.85
449.37	366.93
449.74	365.03
450.11	362.83
450.48	360.35
450.85	357.84
451.22	355.66
451.59	353.63
451.96	351.68
452.33	349.12
452.70	346.77
453.07	343.98
453.43	341.12
453.80	338.37
454.17	335.76
454.54	333.23
454.91	330.56
455.28	327.92
455.65	325.43
456.02	322.98
456.38	320.79
456.75	318.11
457.12	315.84
457.49	313.62
457.86	311.42
458.23	309.59
458.59	307.54
458.96	305.49
459.33	303.68
459.70	301.83
460.07	300.34
460.43	298.65
460.80	297.02
461.17	295.56
461.54	294.07
461.91	292.59
462.27	291.14
462.64	289.87
463.01	288.53
463.38	287.27
463.74	285.95
464.11	284.80
464.48	283.82
464.85	282.73
465.21	281.88
465.58	280.96
465.95	279.85
466.32	278.93
466.68	278.02
467.05	277.15
467.42	276.27
467.78	275.33
468.15	274.46
468.52	273.75
468.88	272.91
469.25	272.14
469.62	271.56
469.98	270.85
470.35	270.19
470.72	269.54
471.08	268.86
471.45	268.29
471.82	267.76
472.18	267.17
472.55	266.70
472.92	266.16
473.28	265.71
473.65	265.26
474.02	264.79
474.38	264.40
474.75	264.07
475.11	263.67
475.48	263.41
475.85	263.17
476.21	262.95
476.58	262.77
476.94	262.63
477.31	262.45
477.67	262.31
478.04	262.20
478.41	262.19
478.77	262.25
479.14	262.18
479.50	262.17
479.87	262.23
480.23	262.31
480.60	262.37
480.96	262.44
481.33	262.65
481.69	262.89
482.06	263.11
482.42	263.31
482.79	263.63
483.15	263.99
483.52	264.39
483.88	264.76
484.25	265.18
484.61	265.63
484.98	266.08
485.34	266.64
485.71	267.27
486.07	267.87
486.44	268.40
486.80	269.13
487.17	269.87
487.53	270.67
487.90	271.51
488.26	272.47
488.62	273.51
488.99	274.52
489.35	275.56
489.72	276.69
490.08	277.89
490.44	279.14
490.81	280.47
491.17	281.84
491.54	283.35
491.90	284.87
492.26	286.47
492.63	288.19
492.99	290.00
493.36	291.89
493.72	293.98
494.08	296.13
494.45	298.40
494.81	300.77
495.17	303.26
495.54	305.84
495.90	308.53
496.26	311.35
496.63	314.30
496.99	317.46
497.35	320.76
497.72	324.18
498.08	327.68
498.44	331.39
498.80	335.32
499.17	339.36
499.53	343.53
499.89	347.94
500.26	352.51
500.62	357.17
500.98	362.14
501.34	367.19
501.71	372.56
502.07	378.02
502.43	383.71
502.79	389.52
503.16	395.66
503.52	401.99
503.88	408.38
504.24	415.05
504.60	421.95
504.97	429.06
505.33	436.39
505.69	444.10
506.05	451.88
506.41	459.76
506.78	467.98
507.14	476.49
507.50	485.18
507.86	494.17
508.22	503.42
508.59	512.63
508.95	522.19
509.31	532.00
509.67	542.08
510.03	552.29
510.39	562.83
510.75	573.57
511.12	584.50
511.48	595.79
511.84	607.25
512.20	618.74
512.56	630.67
512.92	642.75
513.28	655.11
513.64	667.54
514.00	680.27
514.37	693.11
514.73	706.14
515.09	719.25
515.45	732.54
515.81	746.06
516.17	760.09
516.53	774.30
516.89	788.40
517.25	802.54
517.61	817.01
517.97	831.48
518.33	845.89
518.69	860.58
519.05	875.53
519.41	890.63
519.77	906.14
520.13	921.64
520.49	937.05
520.85	952.45
521.21	968.17
521.57	984.39
521.93	1000.13
522.29	1016.51
522.65	1032.61
523.01	1048.74
523.37	1064.77
523.73	1080.84
524.09	1096.88
524.45	1113.12
524.81	1129.70
525.17	1146.35
525.53	1163.22
525.89	1179.94
526.25	1196.83
526.61	1213.22
526.97	1229.89
527.33	1246.36
527.68	1262.77
528.04	1279.26
528.40	1295.74
528.76	1312.75
529.12	1329.23
529.48	1346.07
529.84	1362.01
530.20	1378.54
530.56	1395.53
530.91	1412.87
531.27	1429.69
531.63	1446.09
531.99	1462.67
532.35	1478.60
532.71	1494.48
533.07	1510.74
533.42	1526.83
533.78	1542.80
534.14	1559.03
534.50	1574.43
534.86	1590.12
535.21	1605.37
535.57	1621.22
535.93	1636.55
536.29	1651.25
536.65	1666.21
537.00	1680.94
537.36	1696.19
537.72	1710.71
538.08	1725.20
538.44	1738.88
538.79	1752.69
539.15	1766.23
539.51	1779.88
539.87	1794.18
540.22	1807.84
540.58	1821.39
540.94	1834.44
541.29	1847.19
541.65	1859.73
542.01	1872.79
542.37	1885.17
542.72	1897.47
543.08	1909.24
543.44	1921.62
543.79	1932.80
544.15	1943.83
544.51	1955.34
544.87	1966.18
545.22	1977.02
545.58	1987.14
545.94	1996.91
546.29	2006.72
546.65	2016.63
547.01	2026.00
547.36	2034.75
547.72	2043.29
548.07	2051.22
548.43	2059.46
548.79	2067.41
549.14	2074.94
549.50	2082.24
549.86	2089.77
550.21	2097.07
550.57	2104.20
550.92	2110.86
551.28	2117.94
551.64	2124.87
551.99	2131.45
552.35	2137.82
552.70	2143.97
553.06	2149.91
553.41	2156.26
553.77	2162.20
554.13	2168.18
554.48	2174.26
554.84	2179.81
555.19	2185.09
555.55	2190.31
555.90	2194.75
556.26	2199.69
556.61	2204.40
556.97	2208.88
557.32	2213.09
557.68	2217.39
558.03	2221.59
558.39	2225.16
558.74	2229.75
559.10	2233.79
559.45	2237.41
559.81	2241.48
560.16	2245.31
560.52	2248.48
560.87	2251.85
561.23	2254.58
561.58	2257.47
561.94	2259.95
562.29	2262.04
562.64	2264.65
563.00	2267.06
563.35	2270.62
563.71	2273.75
564.06	2277.04
564.42	2279.72
564.77	2282.31
565.12	2284.44
565.48	2286.51
565.83	2288.59
566.19	2290.00
566.54	2290.69
566.89	2291.87
567.25	2292.52
567.60	2293.79
567.96	2295.62
568.31	2296.45
568.66	2297.56
569.02	2298.06
569.37	2298.29
569.72	2299.28
570.08	2299.46
570.43	2299.60
570.78	2299.01
571.14	2297.51
571.49	2296.10
571.84	2295.90
572.20	2294.79
572.55	2293.85
572.90	2292.20
573.26	2290.64
573.61	2288.86
573.96	2287.28
574.31	2284.38
574.67	2281.38
575.02	2277.74
575.37	2274.33
575.72	2270.69
576.08	2267.22
576.43	2264.00
576.78	2260.42
577.13	2257.37
577.49	2254.40
577.84	2250.81
578.19	2247.06
578.54	2243.46
578.90	2239.39
579.25	2233.83
579.60	2228.87
579.95	2223.81
580.30	2218.87
580.66	2213.91
581.01	2209.00
581.36	2204.11
581.71	2199.79
582.06	2195.46
582.42	2191.23
582.77	2186.08
583.12	2181.55
583.47	2176.89
583.82	2172.12
584.17	2166.94
584.53	2161.41
584.88	2155.76
585.23	2150.19
585.58	2144.71
585.93	2139.21
586.28	2134.38
586.63	2129.28
586.98	2124.28
587.34	2119.61
587.69	2114.60
588.04	2109.33
588.39	2103.72
588.74	2097.14
589.09	2091.01
589.44	2084.32
589.79	2078.12
590.14	2072.47
590.49	2065.74
590.84	2059.36
591.19	2053.27
591.54	2046.92
591.89	2039.66
592.25	2032.87
592.60	2025.61
592.95	2018.12
593.30	2010.91
593.65	2003.27
594.00	1996.22
594.35	1988.95
594.70	1980.89
595.05	1973.97
595.40	1966.68
595.75	1959.24
596.10	1953.17
596.45	1946.52
596.80	1940.32
597.15	1933.74
597.50	1926.78
597.85	1920.31
598.19	1913.75
598.54	1906.81
598.89	1900.09
599.24	1894.14
599.59	1887.50
599.94	1881.34
600.29	1875.01
600.64	1868.48
600.99	1861.09
601.34	1854.48
601.69	1847.38
602.04	1840.61
602.39	1833.21
602.74	1826.46
603.08	1819.70
603.43	1813.13
603.78	1805.88
604.13	1798.62
604.48	1791.36
604.83	1784.40
605.18	1777.60
605.53	1769.62
605.87	1761.46
606.22	1754.25
606.57	1746.29
606.92	1738.91
607.27	1731.79
607.62	1724.98
607.96	1717.75
608.31	1711.30
608.66	1703.64
609.01	1696.30
609.36	1688.82
609.70	1680.87
610.05	1672.80
610.40	1665.07
610.75	1656.60
611.10	1648.91
611.44	1640.40
611.79	1632.47
612.14	1623.85
612.49	1614.70
612.83	1606.28
613.18	1598.15
613.53	1590.02
613.88	1581.42
614.22	1573.20
614.57	1564.50
614.92	1556.54
615.27	1548.98
615.61	1540.66
615.96	1532.59
616.31	1524.81
616.65	1517.33
617.00	1509.76
617.35	1502.05
617.70	1493.82
618.04	1485.32
618.39	1477.11
618.74	1469.61
619.08	1461.19
619.43	1453.61
619.78	1446.67
620.12	1439.60
620.47	1432.11
620.82	1423.89
621.16	1416.50
621.51	1408.82
621.85	1401.15
622.20	1392.59
622.55	1384.09
622.89	1376.12
623.24	1368.40
623.59	1361.11
623.93	1353.54
624.28	1346.24
624.62	1338.73
624.97	1331.53
625.32	1324.75
625.66	1317.76
626.01	1310.68
626.35	1303.39
626.70	1295.62
627.04	1287.99
627.39	1280.12
627.73	1272.68
628.08	1265.78
628.43	1258.62
628.77	1251.29
629.12	1243.77
629.46	1236.62
629.81	1229.21
630.15	1222.02
630.50	1214.65
630.84	1206.40
631.19	1198.60
631.53	1191.03
631.88	1183.43
632.22	1175.77
632.57	1168.49
632.91	1160.92
633.26	1153.48
633.60	1145.96
633.95	1138.77
634.29	1131.52
634.64	1124.93
634.98	1117.62
635.32	1110.54
635.67	1103.81
636.01	1097.15
636.36	1090.37
636.70	1083.76
637.05	1077.22
637.39	1070.75
637.73	1064.25
638.08	1058.39
638.42	1052.22
638.77	1045.82
639.11	1039.29
639.45	1032.91
639.80	1026.17
640.14	1019.80
640.49	1013.21
640.83	1006.92
641.17	1000.73
641.52	994.42
641.86	987.83
642.20	981.92
642.55	975.44
642.89	969.06
643.23	962.47
643.58	956.69
643.92	950.51
644.26	944.38
644.61	938.34
644.95	932.40
645.29	925.84
645.64	919.15
645.98	912.83
646.32	906.99
646.66	900.93
647.01	895.16
647.35	889.39
647.69	883.56
648.04	878.01
648.38	872.22
648.72	866.27
649.06	860.30
649.41	854.43
649.75	848.57
650.09	842.54
650.43	836.81
650.78	830.67
651.12	824.68
651.46	818.98
651.80	813.32
652.14	807.91
652.49	802.47
652.83	797.32
653.17	791.59
653.51	785.78
653.85	780.30
654.20	774.68
654.54	768.73
654.88	762.95
655.22	757.08
655.56	751.34
655.90	745.85
656.25	740.63
656.59	735.25
656.93	730.15
657.27	724.99
657.61	719.50
657.95	714.37
658.29	709.36
658.64	704.05
658.98	698.66
659.32	693.14
659.66	687.96
660.00	682.63
660.34	677.69
660.68	672.80
661.02	667.88
661.36	663.11
661.70	658.60
662.05	654.24
662.39	649.94
662.73	645.50
663.07	641.20
663.41	636.74
663.75	632.22
664.09	627.66
664.43	623.25
664.77	619.17
665.11	614.91
665.45	610.74
665.79	606.65
666.13	602.51
666.47	598.36
666.81	594.16
667.15	590.03
667.49	586.09
667.83	582.30
668.17	578.34
668.51	574.36
668.85	570.27
669.19	566.43
669.53	562.61
669.87	558.78
670.21	555.07
670.55	551.43
670.89	547.99
671.23	544.55
671.57	541.09
671.91	537.60
672.25	534.12
672.58	530.63
672.92	527.26
673.26	524.09
673.60	520.97
673.94	517.90
674.28	514.98
674.62	512.08
674.96	508.97
675.30	506.00
675.64	503.11
675.97	500.38
676.31	497.54
676.65	494.61
676.99	491.85
677.33	488.96
677.67	486.13
678.01	483.15
678.34	480.19
678.68	477.32
679.02	474.45
679.36	471.67
679.70	468.89
680.04	466.15
680.37	463.29
680.71	460.47
681.05	457.86
681.39	455.13
681.73	452.46
682.06	449.94
682.40	447.46
682.74	444.85
683.08	442.24
683.42	439.63
683.75	437.11
684.09	434.54
684.43	432.07
684.77	429.61
685.10	427.28
685.44	425.00
685.78	422.66
686.12	420.41
686.45	418.14
686.79	415.88
687.13	413.69
687.46	411.52
687.80	409.37
688.14	407.10
688.48	405.07
688.81	402.81
689.15	400.68
689.49	398.47
689.82	396.42
690.16	394.37
690.50	392.43
690.83	390.55
691.17	388.56
691.51	386.69
691.84	384.84
692.18	382.87
692.52	380.88
692.85	378.94
693.19	377.07
693.52	375.22
693.86	373.41
694.20	371.60
694.53	369.82
694.87	368.00
695.21	366.24
695.54	364.39
695.88	362.71
696.21	360.94
696.55	359.32
696.88	357.57
697.22	355.88
697.56	354.22
697.89	352.52
698.23	350.96
698.56	349.27
698.90	347.70
699.23	346.09
699.57	344.58
699.90	343.03
700.24	341.48
700.58	340.00
700.91	338.50
701.25	337.05
701.58	335.66
701.92	334.24
702.25	332.90
702.59	331.53
702.92	330.14
703.26	328.85
703.59	327.51
703.93	326.34
704.26	325.09
704.60	323.75
704.93	322.45
705.26	321.17
705.60	320.01
705.93	318.82
706.27	317.75
706.60	316.63
706.94	315.53
707.27	314.37
707.61	313.30
707.94	312.26
708.27	311.17
708.61	310.06
708.94	309.10
709.28	308.11
709.61	307.17
709.94	306.27
710.28	305.25
710.61	304.29
710.95	303.23
711.28	302.34
711.61	301.43
711.95	300.54
712.28	299.61
712.61	298.65
712.95	297.74
713.28	296.87
713.61	295.99
713.95	295.11
714.28	294.30
714.61	293.43
714.95	292.56
715.28	291.70
715.61	290.84
715.95	289.95
716.28	289.08
716.61	288.25
716.95	287.38
717.28	286.65
717.61	285.86
717.94	285.14
718.28	284.31
718.61	283.59
718.94	282.89
719.27	282.21
719.61	281.57
719.94	280.92
720.27	280.18
720.60	279.52
720.94	278.93
721.27	278.34
721.60	277.74
721.93	277.13
722.27	276.58
722.60	276.02
722.93	275.47
723.26	274.94
723.59	274.33
723.93	273.78
724.26	273.19
724.59	272.64
724.92	272.10
725.25	271.64
725.59	271.11
725.92	270.59
726.25	270.10
726.58	269.62
726.91	269.15
727.24	268.70
727.57	268.23
727.91	267.70
728.24	267.23
728.57	266.76
728.90	266.33
729.23	265.89
729.56	265.47
729.89	265.01
730.22	264.53
730.55	264.09
730.89	263.66
731.22	263.22
731.55	262.78
731.88	262.34
732.21	261.90
732.54	261.48
732.87	261.06
733.20	260.64
733.53	260.25
733.86	259.82
734.19	259.40
734.52	259.00
734.85	258.69
735.18	258.27
735.51	257.88
735.84	257.48
736.17	257.10
736.50	256.66
736.83	256.42
737.16	256.08
737.49	255.74
737.82	255.38
738.15	255.09
738.48	254.75
738.81	254.43
739.14	254.07
739.47	253.79
739.80	253.47
740.13	253.17
740.46	252.84
740.79	252.51
741.12	252.21
741.45	251.90
741.78	251.60
742.11	251.30
742.44	250.97
742.77	250.71
743.10	250.37
743.43	250.08
743.75	249.66
744.08	249.55
744.41	249.30
744.74	249.02
745.07	248.70
745.40	248.47
745.73	248.22
746.06	247.97
746.39	247.68
746.71	247.40
747.04	247.13
747.37	246.83
747.70	246.57
748.03	246.33
748.36	246.08
748.68	245.80
749.01	245.54
749.34	245.33
749.67	245.14
750.00	244.94
750.33	244.80
750.65	244.62
750.98	244.24
751.31	244.03
751.64	243.86
751.97	243.70
752.29	243.48
752.62	243.26
752.95	243.07
753.28	242.85
753.60	242.68
753.93	242.50
754.26	242.33
754.59	242.13
754.91	241.92
755.24	241.76
755.57	241.56
755.90	241.40
756.22	241.17
756.55	240.93
756.88	240.72
757.20	240.49
757.53	240.27
757.86	240.12
758.19	239.95
758.51	239.79
758.84	239.60
759.17	239.42
759.49	239.25
759.82	239.12
760.15	238.99
760.47	238.81
760.80	238.67
761.13	238.50
761.45	238.36
761.78	238.19
762.11	238.04
762.43	237.92
762.76	237.80
763.08	237.70
763.41	237.58
763.74	237.44
764.06	237.29
764.39	237.21
764.71	237.06
765.04	236.91
765.37	236.77
765.69	236.65
766.02	236.56
766.34	236.43
766.67	236.31
767.00	236.22
767.32	236.19
767.65	236.14
767.97	236.05
768.30	235.96
768.62	235.89
768.95	235.77
769.27	235.68
769.60	235.58
769.92	235.48
770.25	235.38
770.57	235.29
770.90	235.21
771.22	235.06
771.55	235.02
771.87	234.93
772.20	234.83
772.52	234.79
772.85	234.81
773.17	234.71
773.50	234.58
773.82	234.46
774.15	234.32
774.47	234.18
774.80	234.09
775.12	234.03
775.45	233.93
775.77	233.87
776.09	233.79
776.42	233.66
776.74	233.60
777.07	233.53
777.39	233.46
777.72	233.37
778.04	233.34
778.36	233.22
778.69	233.13
779.01	233.08
779.33	232.93
779.66	232.75
779.98	232.69
780.31	232.61
780.63	232.56
780.95	232.47
781.28	232.37
781.60	232.31
781.92	232.22
782.25	232.18
782.57	232.07
782.89	231.98
783.22	231.93
783.54	231.85
783.86	231.79
784.19	231.71
784.51	231.67
784.83	231.55
785.16	231.49
785.48	231.42
785.80	231.35
786.12	231.29
786.45	231.23
786.77	231.21
787.09	231.17
787.42	231.09
787.74	231.04
788.06	230.99
788.38	230.93
788.71	230.87
789.03	230.81
789.35	230.78
789.67	230.72
789.99	230.68
790.32	230.62
790.64	230.58
790.96	230.61
791.28	230.50
791.61	230.49
791.93	230.45
792.25	230.43
792.57	230.47
792.89	230.39
793.21	230.33
793.54	230.24
793.86	230.21
794.18	230.18
794.50	230.12
794.82	230.08
795.14	230.04
795.47	230.02
795.79	229.96
796.11	229.90
796.43	229.87
796.75	229.81
797.07	229.78
797.39	229.73
797.71	229.64
798.04	229.61
798.36	229.58
798.68	229.58
799.00	229.59
799.32	229.49
799.64	229.50
799.96	229.49
800.28	229.49
800.60	229.43
800.92	229.40
801.24	229.34
801.56	229.34
801.89	229.33
802.21	229.33
802.53	229.32
802.85	229.34
803.17	229.31
803.49	229.31
803.81	229.30
804.13	229.26
804.45	229.24
804.77	229.26
805.09	229.26
805.41	229.21
805.73	229.14
806.05	229.13
806.37	229.10
806.69	229.09
807.01	229.08
807.33	229.10
807.65	229.06
807.97	229.14
808.28	229.11
808.60	229.08
808.92	229.03
809.24	229.07
809.56	229.01
809.88	229.00
810.20	228.98
810.52	228.98
810.84	228.97
811.16	228.93
811.48	228.88
811.80	228.87
812.12	228.83
812.43	228.88
812.75	228.86
813.07	228.85
813.39	228.81
813.71	228.77
814.03	228.69
814.35	228.68
814.67	228.61
814.98	228.59
815.30	228.58
815.62	228.55
815.94	228.46
816.26	228.49
816.58	228.48
816.89	228.44
817.21	228.37
817.53	228.34
817.85	228.36
818.17	228.33
818.48	228.31
818.80	228.29
819.12	228.22
819.44	228.17
819.76	228.13
820.07	228.14
820.39	228.09
820.71	228.12
821.03	228.08
821.34	228.03
821.66	228.02
821.98	227.99
822.30	227.95
822.61	227.99
822.93	227.93
823.25	227.90
823.57	227.87
823.88	227.88
824.20	227.87
824.52	227.88
824.83	227.85
825.15	227.82
825.47	227.82
825.79	227.80
826.10	227.76
826.42	227.73
826.74	227.68
827.05	227.67
827.37	227.65
827.69	227.65
828.00	227.66
828.32	227.63
828.64	227.59
828.95	227.62
829.27	227.59
829.58	227.55
829.90	227.50
830.22	227.50
830.53	227.49
830.85	227.47
831.17	227.41
831.48	227.44
831.80	227.44
832.11	227.43
832.43	227.38
832.75	227.38
833.06	227.45
833.38	227.41
833.69	227.43
834.01	227.41
834.32	227.39
834.64	227.40
834.96	227.39
835.27	227.41
835.59	227.38
835.90	227.33
836.22	227.37
836.53	227.38
836.85	227.39
837.16	227.47
837.48	227.45
837.79	227.47
838.11	227.46
838.42	227.44
838.74	227.45
839.05	227.43
839.37	227.41
839.68	227.35
840.00	227.36
840.31	227.38
840.63	227.38
840.94	227.38
841.26	227.32
841.57	227.34
841.88	227.34
842.20	227.32
842.51	227.35
842.83	227.32
843.14	227.40
843.46	227.39
843.77	227.33
844.08	227.34
844.40	227.29
844.71	227.27
845.03	227.26
845.34	227.26
845.65	227.28
845.97	227.29
846.28	227.29
846.60	227.30
846.91	227.29
847.22	227.27
847.54	227.28
847.85	227.32
848.16	227.29
848.48	227.27
848.79	227.34
849.10	227.34
849.42	227.36
849.73	227.25
850.04	227.26
850.36	227.23
850.67	227.23
850.98	227.25
851.30	227.23
851.61	227.23
851.92	227.22
852.23	227.25
852.55	227.24
852.86	227.22
853.17	227.22
853.49	227.20
853.80	227.25
854.11	227.22
854.42	227.26
854.74	227.22
855.05	227.21
855.36	227.09
855.67	227.08
855.99	227.08
856.30	227.17
856.61	227.15
856.92	227.13
857.23	227.11
857.55	227.11
857.86	227.10
858.17	227.10
858.48	227.07
858.79	227.05
859.11	227.08
859.42	227.09
859.73	227.06
860.04	227.05
860.35	226.99
860.66	227.01
860.98	226.96
861.29	227.00
861.60	227.00
861.91	227.06
862.22	227.07
862.53	227.02
862.84	226.93
863.16	226.96
863.47	226.95
863.78	226.95
864.09	226.96
864.40	226.97
864.71	226.94
865.02	226.96
865.33	226.93
865.64	226.93
865.95	226.90
866.27	226.95
866.58	226.94
866.89	226.97
867.20	226.95
867.51	226.92
867.82	226.91
868.13	226.95
868.44	226.90
868.75	226.90
869.06	226.90
869.37	226.92
869.68	226.89
869.99	226.93
870.30	226.94
870.61	226.92
870.92	226.92
871.23	226.94
871.54	226.95
871.85	226.96
872.16	226.97
872.47	226.96
872.78	226.88
873.09	226.90
873.40	226.89
873.71	226.89
874.02	226.89
874.33	226.86
874.64	226.84
874.95	226.85
875.26	226.83
875.56	226.85
875.87	226.84
876.18	226.85
876.49	226.94
876.80	226.91
877.11	226.92
877.42	226.94
877.73	226.91
878.04	226.89
878.35	226.91
878.66	226.90
878.96	226.92
879.27	226.93
879.58	226.91
879.89	226.88
880.20	226.90
880.51	226.90
880.82	226.93
881.12	226.92
881.43	226.91
881.74	226.89
882.05	226.85
882.36	226.84
882.67	226.85
882.97	226.72
883.28	226.71
883.59	226.69
883.90	226.73
884.21	226.75
884.51	226.69
884.82	226.67
885.13	226.65
885.44	226.65
885.74	226.68
886.05	226.69
886.36	226.71
886.67	226.67
886.98	226.74
887.28	226.76
887.59	226.77
887.90	226.77
888.20	226.78
888.51	226.80
888.82	226.79
889.13	226.79
889.43	226.88
889.74	226.90
890.05	226.91
890.35	226.88
890.66	226.88
890.97	226.92
891.28	226.92
891.58	226.94
891.89	226.94
892.20	226.94
892.50	226.95
892.81	226.93
893.12	226.93
893.42	226.89
893.73	226.86
894.04	226.86
894.34	226.87
894.65	226.87
894.95	226.87
895.26	226.88
895.57	226.90
895.87	226.84
896.18	226.83
896.48	226.84
896.79	226.83
897.10	226.83
897.40	226.83
897.71	226.84
898.01	226.83
898.32	226.82
898.63	226.79
898.93	226.73
899.24	226.73
899.54	226.73
899.85	226.68
900.15	226.64
900.46	226.61
900.76	226.62
901.07	226.61
901.38	226.58
901.68	226.60
901.99	226.57
902.29	226.57
902.60	226.58
902.90	226.57
903.21	226.53
903.51	226.49
903.82	226.51
904.12	226.49
904.43	226.49
904.73	226.46
905.03	226.43
905.34	226.56
905.64	226.54
905.95	226.54
906.25	226.54
906.56	226.54
906.86	226.55
907.17	226.51
907.47	226.52
907.77	226.55
908.08	226.50
908.38	226.49
908.69	226.45
908.99	226.43
909.30	226.42
909.60	226.44
909.90	226.48
910.21	226.44
910.51	226.43
910.81	226.43
911.12	226.47
911.42	226.45
911.73	226.34
912.03	226.37
912.33	226.37
912.64	226.41
912.94	226.40
913.24	226.39
913.55	226.41
913.85	226.37
914.15	226.39
914.46	226.38
914.76	226.39
915.06	226.39
915.37	226.39
915.67	226.39
915.97	226.41
916.27	226.38
916.58	226.39
916.88	226.37
917.18	226.36
917.49	226.44
917.79	226.48
918.09	226.49
918.39	226.49
918.70	226.51
919.00	226.50
919.30	226.58
919.60	226.55
919.91	226.55
920.21	226.58
920.51	226.57
920.81	226.59
921.12	226.62
921.42	226.62
921.72	226.62
922.02	226.62
922.32	226.62
922.63	226.63
922.93	226.68
923.23	226.70
923.53	226.69
923.83	226.62
924.13	226.63
924.44	226.66
924.74	226.68
925.04	226.69
925.34	226.67
925.64	226.63
925.94	226.64
926.24	226.71
926.55	226.71
926.85	226.70
927.15	226.71
927.45	226.70
927.75	226.73
928.05	226.74
928.35	226.75
928.65	226.81
928.95	226.81
929.26	226.76
929.56	226.79
929.86	226.83
930.16	226.81
930.46	226.81
930.76	226.83
931.06	226.77
931.36	226.78
931.66	226.83
931.96	226.84
932.26	226.86
932.56	226.81
932.86	226.83
933.16	226.82
933.46	226.81
933.76	226.81
934.06	226.82
934.36	226.87
934.66	226.86
934.96	226.78
935.26	226.78
935.56	226.81
935.86	226.81
936.16	226.78
936.46	226.79
936.76	226.78
937.06	226.76
937.36	226.79
937.66	226.79
937.96	226.78
938.26	226.76
938.56	226.73
938.86	226.76
939.16	226.74
939.46	226.74
939.76	226.74
940.06	226.71
940.35	226.69
940.65	226.65
940.95	226.63
941.25	226.64
941.55	226.63
941.85	226.62
942.15	226.62
942.45	226.61
942.75	226.61
943.04	226.60
943.34	226.58
943.64	226.55
943.94	226.51
944.24	226.49
944.54	226.53
944.84	226.51
945.13	226.46
945.43	226.45
945.73	226.42
946.03	226.38
946.33	226.36
946.62	226.34
946.92	226.30
947.22	226.31
947.52	226.31
947.82	226.32
948.11	226.29
948.41	226.24
948.71	226.26
949.01	226.25
949.31	226.25
949.60	226.27
949.90	226.24
950.20	226.24
950.50	226.24
950.79	226.20
951.09	226.20
951.39	226.20
951.69	226.21
951.98	226.23
952.28	226.24
952.58	226.22
952.87	226.21
953.17	226.24
953.47	226.24
953.76	226.23
954.06	226.22
954.36	226.24
954.66	226.25
954.95	226.26
955.25	226.28
955.55	226.26
955.84	226.23
956.14	226.25
956.44	226.24
956.73	226.23
957.03	226.22
957.32	226.25
957.62	226.23
957.92	226.26
958.21	226.25
958.51	226.36
958.81	226.39
959.10	226.42
959.40	226.44
959.69	226.42
959.99	226.46
960.29	226.45
960.58	226.43
960.88	226.48
961.17	226.47
961.47	226.45
961.76	226.49
962.06	226.54
962.36	226.55
962.65	226.58
962.95	226.58
963.24	226.58
963.54	226.57
963.83	226.57
964.13	226.57
964.42	226.54
964.72	226.51
965.01	226.56
965.31	226.55
965.60	226.53
965.90	226.61
966.19	226.57
966.49	226.58
966.78	226.60
967.08	226.58
967.37	226.58
967.67	226.58
967.96	226.59
968.26	226.57
968.55	226.60
968.85	226.59
969.14	226.63
969.43	226.64
969.73	226.64
970.02	226.66
970.32	226.66
970.61	226.69
970.91	226.62
971.20	226.58
971.49	226.57
971.79	226.57
972.08	226.52
972.38	226.55
972.67	226.52
972.96	226.52
973.26	226.50
973.55	226.52
973.85	226.56
974.14	226.55
974.43	226.54
974.73	226.49
975.02	226.47
975.31	226.45
975.61	226.47
975.90	226.48
976.19	226.46
976.49	226.44
976.78	226.41
977.07	226.40
977.37	226.39
977.66	226.40
977.95	226.35
978.24	226.32
978.54	226.32
978.83	226.34
979.12	226.34
979.42	226.31
979.71	226.29
980.00	226.23
980.29	226.21
980.59	226.19
980.88	226.23
981.17	226.23
981.46	226.20
981.76	226.14
982.05	226.15
982.34	226.17
982.63	226.17
982.93	226.16
983.22	226.17
983.51	226.19
983.80	226.20
984.09	226.23
984.39	226.23
984.68	226.24
984.97	226.26
985.26	226.24
985.55	226.25
985.85	226.23
986.14	226.25
986.43	226.26
986.72	226.23
987.01	226.21
987.30	226.22
987.59	226.22
987.89	226.27
988.18	226.23
988.47	226.23
988.76	226.24
989.05	226.25
989.34	226.23
989.63	226.26
989.92	226.25
990.22	226.26
990.51	226.28
990.80	226.24
991.09	226.22
991.38	226.24
991.67	226.25
991.96	226.26
992.25	226.24
992.54	226.23
992.83	226.26
993.12	226.24
993.41	226.27
993.70	226.28
993.99	226.29
994.28	226.30
994.58	226.29
994.87	226.28
995.16	226.28
995.45	226.27
995.74	226.20
996.03	226.21
996.32	226.22
996.61	226.26
996.90	226.27
997.19	226.24
997.48	226.26
997.77	226.24
998.06	226.20
998.34	226.22
998.63	226.25
998.92	226.24
999.21	226.24
999.50	226.20
999.79	226.20
1000.08	226.20
1000.37	226.21
1000.66	226.22
1000.95	226.23
1001.24	226.26
1001.53	226.30
1001.82	226.32
1002.11	226.30
1002.40	226.26
1002.68	226.26
1002.97	226.34
1003.26	226.35
1003.55	226.31
1003.84	226.31
1004.13	226.39
1004.42	226.40
1004.71	226.37
1004.99	226.37
1005.28	226.41
1005.57	226.40
1005.86	226.39
1006.15	226.39
1006.44	226.39
1006.72	226.40
1007.01	226.39
1007.30	226.37
1007.59	226.36
1007.88	226.33
1008.17	226.35
1008.45	226.38
1008.74	226.33
1009.03	226.29
1009.32	226.30
1009.60	226.29
1009.89	226.28
1010.18	226.24
1010.47	226.20
1010.76	226.18
1011.04	226.16
1011.33	226.16
1011.62	226.19
1011.91	226.20
1012.19	226.18
1012.48	226.16
1012.77	226.13
1013.05	226.18
1013.34	226.17
1013.63	226.18
1013.92	226.19
1014.20	226.18
1014.49	226.18
1014.78	226.16
1015.06	226.12
1015.35	226.12
1015.64	226.14
1015.92	226.18
1016.21	226.16
1016.50	226.18
1016.78	226.22
1017.07	226.24
1017.36	226.20
1017.64	226.19
1017.93	226.20
1018.22	226.19
1018.50	226.19
1018.79	226.19
1019.08	226.15
1019.36	226.20
1019.65	226.17
1019.93	226.20
1020.22	226.20
1020.51	226.26
1020.79	226.26
1021.08	225.87
1021.36	225.67
1021.65	226.06
1021.94	226.22
1022.22	227.12
1022.51	225.94
1022.79	226.44
1023.08	226.26
1023.36	227.67
1023.65	225.72
>>>>>End Processed Spectral Data<<<<<
