SpectraSuite Data File
++++++++++++++++++++++++++++++++++++
Date: Fri Feb 01 16:02:26 EST 2013
User: group
Dark Spectrum Present: No
Reference Spectrum Present: No
Number of Sampled Component Spectra: 1
Spectrometers: USB2E7196
Integration Time (usec): 35000 (USB2E7196)
Spectra Averaged: 100 (USB2E7196)
Boxcar Smoothing: 10 (USB2E7196)
Correct for Electrical Dark: No (USB2E7196)
Strobe/Lamp Enabled: No (USB2E7196)
Correct for Detector Non-linearity: No (USB2E7196)
Correct for Stray Light: No (USB2E7196)
Number of Pixels in Processed Spectrum: 2048
>>>>>Begin Processed Spectral Data<<<<<
339.09	0.00
339.48	214.26
339.86	216.06
340.24	217.48
340.63	218.47
341.01	221.81
341.39	221.66
341.78	222.62
342.16	224.04
342.54	225.09
342.93	213.00
343.31	223.75
343.69	224.30
344.07	224.77
344.46	225.21
344.84	225.60
345.22	225.84
345.60	226.07
345.99	226.26
346.37	226.39
346.75	226.46
347.13	226.53
347.52	226.60
347.90	226.67
348.28	226.70
348.66	226.74
349.05	226.72
349.43	226.74
349.81	226.77
350.19	226.82
350.57	226.82
350.96	226.87
351.34	226.95
351.72	227.04
352.10	227.11
352.48	227.14
352.87	227.18
353.25	227.21
353.63	227.26
354.01	227.33
354.39	227.41
354.77	227.53
355.15	227.63
355.54	227.69
355.92	227.71
356.30	227.78
356.68	227.90
357.06	227.97
357.44	228.02
357.82	228.09
358.20	228.16
358.58	228.25
358.97	228.31
359.35	228.38
359.73	228.42
360.11	228.50
360.49	228.59
360.87	228.67
361.25	228.76
361.63	228.87
362.01	228.91
362.39	228.92
362.77	228.91
363.15	228.92
363.53	228.92
363.91	228.97
364.29	229.00
364.67	228.93
365.05	228.97
365.43	228.99
365.81	229.01
366.19	229.06
366.57	229.12
366.95	229.15
367.33	229.15
367.71	229.17
368.09	229.16
368.47	229.14
368.85	229.12
369.23	229.11
369.61	229.04
369.99	229.06
370.37	229.06
370.75	229.10
371.13	229.05
371.51	229.01
371.89	228.94
372.27	228.88
372.65	228.83
373.03	228.77
373.41	228.75
373.78	228.69
374.16	228.59
374.54	228.50
374.92	228.42
375.30	228.35
375.68	228.31
376.06	228.26
376.44	228.20
376.82	228.13
377.19	228.08
377.57	228.01
377.95	227.90
378.33	227.81
378.71	227.69
379.09	227.64
379.47	227.62
379.84	227.53
380.22	227.48
380.60	227.42
380.98	227.35
381.36	227.25
381.73	227.18
382.11	227.16
382.49	227.10
382.87	227.01
383.25	226.96
383.62	227.00
384.00	226.90
384.38	226.83
384.76	226.80
385.13	226.75
385.51	226.73
385.89	226.66
386.27	226.65
386.64	226.61
387.02	226.58
387.40	226.53
387.78	226.51
388.15	226.50
388.53	226.46
388.91	226.42
389.29	226.39
389.66	226.36
390.04	226.29
390.42	226.27
390.79	226.25
391.17	226.21
391.55	226.09
391.92	226.11
392.30	226.12
392.68	226.10
393.05	226.13
393.43	226.09
393.81	226.09
394.18	226.08
394.56	226.08
394.94	226.09
395.31	226.10
395.69	226.19
396.06	226.20
396.44	226.25
396.82	226.29
397.19	226.39
397.57	226.43
397.95	226.50
398.32	226.55
398.70	226.59
399.07	226.68
399.45	226.71
399.82	226.78
400.20	226.82
400.58	226.90
400.95	226.89
401.33	227.01
401.70	227.18
402.08	227.26
402.45	227.33
402.83	227.44
403.20	227.54
403.58	227.60
403.95	227.70
404.33	227.80
404.71	227.90
405.08	228.08
405.46	228.20
405.83	228.36
406.21	228.50
406.58	228.72
406.96	228.89
407.33	229.08
407.70	229.27
408.08	229.54
408.45	229.75
408.83	229.99
409.20	230.20
409.58	230.39
409.95	230.65
410.33	230.96
410.70	231.20
411.08	231.49
411.45	231.80
411.82	232.15
412.20	232.54
412.57	232.97
412.95	233.26
413.32	233.66
413.69	234.07
414.07	234.47
414.44	234.90
414.82	235.40
415.19	235.97
415.56	236.52
415.94	237.05
416.31	237.69
416.68	238.33
417.06	239.04
417.43	239.74
417.81	240.53
418.18	241.31
418.55	242.17
418.93	243.06
419.30	243.98
419.67	244.92
420.04	245.84
420.42	246.83
420.79	248.01
421.16	249.16
421.54	250.34
421.91	251.61
422.28	252.88
422.66	254.19
423.03	255.46
423.40	256.77
423.77	258.20
424.15	259.64
424.52	261.08
424.89	262.70
425.26	264.26
425.64	265.70
426.01	267.25
426.38	268.92
426.75	270.58
427.13	272.27
427.50	274.07
427.87	275.97
428.24	277.85
428.61	279.58
428.99	281.50
429.36	283.61
429.73	285.67
430.10	287.69
430.47	289.76
430.85	291.87
431.22	294.12
431.59	296.50
431.96	298.75
432.33	301.24
432.70	303.62
433.08	306.41
433.45	309.05
433.82	311.66
434.19	314.50
434.56	317.33
434.93	320.00
435.30	322.61
435.68	325.52
436.05	328.38
436.42	331.17
436.79	333.70
437.16	336.35
437.53	339.14
437.90	341.98
438.27	344.71
438.64	347.54
439.01	350.12
439.38	352.33
439.75	354.47
440.13	356.92
440.50	359.20
440.87	361.02
441.24	362.93
441.61	365.10
441.98	366.59
442.35	368.37
442.72	370.20
443.09	372.01
443.46	372.95
443.83	373.48
444.20	373.99
444.57	374.83
444.94	375.13
445.31	375.48
445.68	375.82
446.05	375.85
446.42	375.48
446.79	375.09
447.16	374.64
447.53	374.31
447.90	373.18
448.27	372.08
448.64	370.49
449.01	369.38
449.37	367.39
449.74	365.50
450.11	363.22
450.48	360.80
450.85	358.28
451.22	356.13
451.59	354.09
451.96	352.12
452.33	349.51
452.70	347.19
453.07	344.35
453.43	341.40
453.80	338.65
454.17	335.98
454.54	333.42
454.91	330.67
455.28	328.00
455.65	325.53
456.02	323.07
456.38	320.94
456.75	318.29
457.12	316.05
457.49	313.82
457.86	311.67
458.23	309.76
458.59	307.67
458.96	305.60
459.33	303.73
459.70	301.90
460.07	300.37
460.43	298.62
460.80	296.98
461.17	295.55
461.54	294.08
461.91	292.64
462.27	291.16
462.64	289.96
463.01	288.62
463.38	287.34
463.74	285.99
464.11	284.80
464.48	283.79
464.85	282.67
465.21	281.77
465.58	280.85
465.95	279.77
466.32	278.90
466.68	277.97
467.05	277.10
467.42	276.18
467.78	275.28
468.15	274.43
468.52	273.82
468.88	272.98
469.25	272.20
469.62	271.57
469.98	270.92
470.35	270.27
470.72	269.67
471.08	269.00
471.45	268.43
471.82	267.92
472.18	267.31
472.55	266.89
472.92	266.41
473.28	266.01
473.65	265.58
474.02	265.15
474.38	264.81
474.75	264.49
475.11	264.20
475.48	263.96
475.85	263.72
476.21	263.47
476.58	263.30
476.94	263.19
477.31	263.05
477.67	262.94
478.04	262.83
478.41	262.79
478.77	262.83
479.14	262.80
479.50	262.80
479.87	262.90
480.23	262.97
480.60	263.06
480.96	263.13
481.33	263.34
481.69	263.57
482.06	263.77
482.42	263.99
482.79	264.27
483.15	264.61
483.52	265.00
483.88	265.38
484.25	265.81
484.61	266.21
484.98	266.69
485.34	267.23
485.71	267.81
486.07	268.41
486.44	269.00
486.80	269.70
487.17	270.40
487.53	271.20
487.90	272.02
488.26	272.97
488.62	273.94
488.99	274.90
489.35	275.93
489.72	277.08
490.08	278.28
490.44	279.50
490.81	280.82
491.17	282.14
491.54	283.61
491.90	285.13
492.26	286.79
492.63	288.51
492.99	290.32
493.36	292.25
493.72	294.28
494.08	296.39
494.45	298.63
494.81	301.05
495.17	303.47
495.54	306.08
495.90	308.77
496.26	311.58
496.63	314.57
496.99	317.65
497.35	320.88
497.72	324.34
498.08	327.88
498.44	331.54
498.80	335.47
499.17	339.51
499.53	343.65
499.89	348.05
500.26	352.55
500.62	357.22
500.98	362.16
501.34	367.22
501.71	372.55
502.07	377.98
502.43	383.60
502.79	389.44
503.16	395.50
503.52	401.77
503.88	408.21
504.24	414.82
504.60	421.71
504.97	428.87
505.33	436.17
505.69	443.85
506.05	451.62
506.41	459.53
506.78	467.72
507.14	476.20
507.50	484.92
507.86	493.96
508.22	503.12
508.59	512.35
508.95	521.96
509.31	531.77
509.67	541.95
510.03	552.26
510.39	562.80
510.75	573.64
511.12	584.57
511.48	595.93
511.84	607.37
512.20	618.94
512.56	630.83
512.92	643.05
513.28	655.36
513.64	667.85
514.00	680.53
514.37	693.51
514.73	706.51
515.09	719.55
515.45	732.84
515.81	746.42
516.17	760.44
516.53	774.51
516.89	788.71
517.25	802.88
517.61	817.22
517.97	831.70
518.33	846.12
518.69	860.94
519.05	875.91
519.41	891.17
519.77	906.61
520.13	922.11
520.49	937.46
520.85	952.87
521.21	968.72
521.57	984.99
521.93	1000.76
522.29	1017.19
522.65	1033.43
523.01	1049.58
523.37	1065.61
523.73	1081.76
524.09	1097.78
524.45	1113.96
524.81	1130.55
525.17	1147.40
525.53	1164.30
525.89	1181.09
526.25	1197.85
526.61	1214.05
526.97	1230.75
527.33	1247.26
527.68	1263.71
528.04	1280.25
528.40	1296.80
528.76	1313.68
529.12	1330.22
529.48	1347.06
529.84	1363.01
530.20	1379.60
530.56	1396.64
530.91	1414.05
531.27	1430.65
531.63	1447.16
531.99	1463.73
532.35	1479.63
532.71	1495.47
533.07	1511.66
533.42	1527.54
533.78	1543.49
534.14	1559.81
534.50	1574.98
534.86	1590.89
535.21	1606.05
535.57	1621.91
535.93	1637.39
536.29	1652.15
536.65	1667.09
537.00	1681.76
537.36	1697.00
537.72	1711.51
538.08	1725.87
538.44	1739.51
538.79	1753.42
539.15	1767.06
539.51	1780.68
539.87	1794.94
540.22	1808.65
540.58	1822.26
540.94	1835.59
541.29	1848.50
541.65	1861.16
542.01	1874.39
542.37	1886.68
542.72	1899.16
543.08	1910.77
543.44	1923.11
543.79	1934.22
544.15	1945.16
544.51	1956.66
544.87	1967.60
545.22	1978.40
545.58	1988.58
545.94	1998.37
546.29	2008.26
546.65	2018.07
547.01	2027.33
547.36	2036.03
547.72	2044.49
548.07	2052.41
548.43	2060.62
548.79	2068.64
549.14	2076.07
549.50	2083.44
549.86	2091.03
550.21	2098.37
550.57	2105.54
550.92	2112.13
551.28	2119.27
551.64	2126.34
551.99	2132.95
552.35	2139.14
552.70	2145.24
553.06	2151.25
553.41	2157.61
553.77	2163.52
554.13	2169.67
554.48	2175.93
554.84	2181.42
555.19	2186.61
555.55	2191.78
555.90	2196.14
556.26	2200.97
556.61	2205.88
556.97	2210.14
557.32	2214.11
557.68	2218.18
558.03	2222.57
558.39	2226.24
558.74	2230.93
559.10	2234.93
559.45	2238.53
559.81	2242.81
560.16	2246.68
560.52	2249.89
560.87	2253.29
561.23	2256.02
561.58	2258.99
561.94	2261.56
562.29	2264.05
562.64	2266.74
563.00	2269.33
563.35	2272.84
563.71	2276.01
564.06	2279.15
564.42	2282.03
564.77	2284.52
565.12	2286.78
565.48	2288.67
565.83	2290.73
566.19	2292.00
566.54	2292.93
566.89	2294.03
567.25	2294.65
567.60	2295.79
567.96	2297.27
568.31	2298.35
568.66	2299.49
569.02	2299.93
569.37	2300.23
569.72	2301.01
570.08	2301.17
570.43	2301.26
570.78	2300.72
571.14	2299.12
571.49	2297.77
571.84	2297.54
572.20	2296.59
572.55	2295.58
572.90	2294.01
573.26	2292.56
573.61	2291.02
573.96	2289.28
574.31	2286.28
574.67	2283.29
575.02	2279.89
575.37	2276.71
575.72	2272.71
576.08	2269.40
576.43	2266.22
576.78	2262.48
577.13	2259.43
577.49	2256.50
577.84	2252.90
578.19	2249.27
578.54	2245.83
578.90	2241.62
579.25	2235.94
579.60	2230.85
579.95	2225.77
580.30	2220.85
580.66	2215.60
581.01	2210.59
581.36	2205.66
581.71	2201.71
582.06	2197.33
582.42	2192.88
582.77	2187.79
583.12	2183.29
583.47	2178.53
583.82	2173.54
584.17	2168.39
584.53	2162.82
584.88	2157.15
585.23	2151.54
585.58	2146.00
585.93	2140.47
586.28	2135.81
586.63	2130.77
586.98	2125.84
587.34	2121.17
587.69	2116.22
588.04	2110.97
588.39	2105.25
588.74	2098.84
589.09	2092.57
589.44	2085.73
589.79	2079.73
590.14	2074.09
590.49	2067.44
590.84	2061.11
591.19	2055.10
591.54	2048.68
591.89	2041.29
592.25	2034.47
592.60	2027.30
592.95	2019.64
593.30	2012.30
593.65	2004.73
594.00	1997.77
594.35	1990.61
594.70	1982.58
595.05	1975.29
595.40	1968.12
595.75	1960.65
596.10	1954.23
596.45	1947.49
596.80	1941.34
597.15	1934.72
597.50	1927.48
597.85	1921.11
598.19	1914.50
598.54	1907.27
598.89	1900.49
599.24	1894.55
599.59	1887.72
599.94	1881.47
600.29	1875.20
600.64	1868.73
600.99	1861.21
601.34	1854.34
601.69	1847.42
602.04	1840.69
602.39	1833.47
602.74	1826.44
603.08	1819.63
603.43	1812.94
603.78	1805.66
604.13	1798.42
604.48	1790.95
604.83	1784.13
605.18	1777.10
605.53	1768.95
605.87	1760.99
606.22	1753.87
606.57	1745.94
606.92	1738.68
607.27	1731.45
607.62	1724.59
607.96	1717.20
608.31	1710.57
608.66	1702.98
609.01	1695.35
609.36	1687.73
609.70	1679.67
610.05	1671.76
610.40	1663.98
610.75	1655.73
611.10	1648.06
611.44	1639.65
611.79	1631.74
612.14	1623.16
612.49	1614.03
612.83	1605.67
613.18	1597.62
613.53	1589.58
613.88	1581.04
614.22	1572.78
614.57	1564.28
614.92	1556.12
615.27	1548.52
615.61	1540.10
615.96	1532.14
616.31	1524.49
616.65	1517.13
617.00	1509.64
617.35	1501.96
617.70	1493.65
618.04	1485.24
618.39	1477.08
618.74	1469.52
619.08	1461.19
619.43	1453.50
619.78	1446.63
620.12	1439.52
620.47	1431.95
620.82	1423.73
621.16	1416.34
621.51	1408.78
621.85	1401.12
622.20	1392.64
622.55	1384.30
622.89	1376.59
623.24	1369.00
623.59	1361.62
623.93	1354.04
624.28	1346.82
624.62	1339.24
624.97	1332.12
625.32	1325.32
625.66	1318.29
626.01	1311.06
626.35	1303.61
626.70	1295.95
627.04	1288.09
627.39	1280.30
627.73	1272.92
628.08	1266.02
628.43	1258.73
628.77	1251.31
629.12	1243.66
629.46	1236.62
629.81	1229.15
630.15	1221.83
630.50	1214.35
630.84	1206.14
631.19	1198.27
631.53	1190.72
631.88	1183.13
632.22	1175.54
632.57	1168.20
632.91	1160.64
633.26	1153.16
633.60	1145.84
633.95	1138.73
634.29	1131.85
634.64	1125.19
634.98	1117.85
635.32	1110.62
635.67	1104.06
636.01	1097.42
636.36	1090.62
636.70	1084.00
637.05	1077.54
637.39	1071.08
637.73	1064.47
638.08	1058.57
638.42	1052.55
638.77	1046.03
639.11	1039.46
639.45	1033.04
639.80	1026.40
640.14	1019.97
640.49	1013.47
640.83	1007.18
641.17	1000.90
641.52	994.45
641.86	988.09
642.20	982.16
642.55	975.86
642.89	969.35
643.23	962.84
643.58	957.17
643.92	950.99
644.26	944.87
644.61	938.79
644.95	932.86
645.29	926.29
645.64	919.64
645.98	913.37
646.32	907.58
646.66	901.60
647.01	895.71
647.35	889.99
647.69	884.16
648.04	878.59
648.38	872.70
648.72	866.67
649.06	860.52
649.41	854.71
649.75	848.76
650.09	842.79
650.43	836.95
650.78	830.75
651.12	824.77
651.46	819.01
651.80	813.22
652.14	807.80
652.49	802.39
652.83	797.12
653.17	791.36
653.51	785.63
653.85	780.20
654.20	774.52
654.54	768.49
654.88	762.77
655.22	756.84
655.56	751.25
655.90	745.91
656.25	740.67
656.59	735.24
656.93	730.12
657.27	724.91
657.61	719.51
657.95	714.41
658.29	709.34
658.64	704.11
658.98	698.88
659.32	693.45
659.66	688.26
660.00	682.89
660.34	677.92
660.68	673.01
661.02	668.00
661.36	663.32
661.70	658.83
662.05	654.49
662.39	650.19
662.73	645.71
663.07	641.28
663.41	636.83
663.75	632.30
664.09	627.76
664.43	623.40
664.77	619.26
665.11	614.99
665.45	610.92
665.79	606.85
666.13	602.69
666.47	598.52
666.81	594.34
667.15	590.29
667.49	586.43
667.83	582.64
668.17	578.69
668.51	574.60
668.85	570.51
669.19	566.62
669.53	562.74
669.87	558.84
670.21	555.18
670.55	551.53
670.89	548.12
671.23	544.67
671.57	541.12
671.91	537.57
672.25	534.07
672.58	530.48
672.92	527.08
673.26	523.91
673.60	520.83
673.94	517.75
674.28	514.84
674.62	511.85
674.96	508.68
675.30	505.76
675.64	502.87
675.97	500.16
676.31	497.29
676.65	494.39
676.99	491.71
677.33	488.80
677.67	485.96
678.01	482.93
678.34	479.99
678.68	477.17
679.02	474.39
679.36	471.61
679.70	468.94
680.04	466.14
680.37	463.29
680.71	460.46
681.05	457.83
681.39	455.03
681.73	452.43
682.06	449.90
682.40	447.37
682.74	444.82
683.08	442.26
683.42	439.73
683.75	437.24
684.09	434.66
684.43	432.22
684.77	429.78
685.10	427.46
685.44	425.21
685.78	422.88
686.12	420.63
686.45	418.33
686.79	415.98
687.13	413.77
687.46	411.61
687.80	409.47
688.14	407.29
688.48	405.27
688.81	403.00
689.15	400.86
689.49	398.75
689.82	396.63
690.16	394.61
690.50	392.64
690.83	390.70
691.17	388.72
691.51	386.81
691.84	384.96
692.18	383.00
692.52	380.98
692.85	379.06
693.19	377.20
693.52	375.38
693.86	373.56
694.20	371.78
694.53	369.97
694.87	368.12
695.21	366.33
695.54	364.50
695.88	362.79
696.21	361.06
696.55	359.33
696.88	357.64
697.22	355.94
697.56	354.28
697.89	352.59
698.23	350.99
698.56	349.37
698.90	347.77
699.23	346.15
699.57	344.56
699.90	343.07
700.24	341.49
700.58	339.96
700.91	338.46
701.25	337.07
701.58	335.70
701.92	334.36
702.25	332.95
702.59	331.62
702.92	330.28
703.26	328.97
703.59	327.66
703.93	326.49
704.26	325.23
704.60	323.96
704.93	322.71
705.26	321.46
705.60	320.28
705.93	319.12
706.27	318.06
706.60	317.01
706.94	315.91
707.27	314.77
707.61	313.75
707.94	312.76
708.27	311.63
708.61	310.52
708.94	309.48
709.28	308.48
709.61	307.51
709.94	306.60
710.28	305.55
710.61	304.62
710.95	303.53
711.28	302.62
711.61	301.66
711.95	300.76
712.28	299.79
712.61	298.79
712.95	297.86
713.28	296.94
713.61	296.07
713.95	295.17
714.28	294.35
714.61	293.45
714.95	292.62
715.28	291.72
715.61	290.82
715.95	289.98
716.28	289.11
716.61	288.29
716.95	287.41
717.28	286.68
717.61	285.90
717.94	285.18
718.28	284.39
718.61	283.66
718.94	282.98
719.27	282.33
719.61	281.71
719.94	281.03
720.27	280.34
720.60	279.65
720.94	279.03
721.27	278.44
721.60	277.87
721.93	277.23
722.27	276.70
722.60	276.19
722.93	275.60
723.26	275.10
723.59	274.53
723.93	274.00
724.26	273.47
724.59	272.93
724.92	272.39
725.25	271.89
725.59	271.39
725.92	270.83
726.25	270.33
726.58	269.82
726.91	269.34
727.24	268.91
727.57	268.45
727.91	267.95
728.24	267.48
728.57	267.00
728.90	266.60
729.23	266.14
729.56	265.75
729.89	265.28
730.22	264.80
730.55	264.34
730.89	263.92
731.22	263.46
731.55	263.06
731.88	262.63
732.21	262.21
732.54	261.78
732.87	261.34
733.20	260.96
733.53	260.61
733.86	260.23
734.19	259.81
734.52	259.44
734.85	259.17
735.18	258.74
735.51	258.39
735.84	258.01
736.17	257.66
736.50	257.21
736.83	257.00
737.16	256.64
737.49	256.33
737.82	255.97
738.15	255.65
738.48	255.33
738.81	255.04
739.14	254.71
739.47	254.40
739.80	254.13
740.13	253.82
740.46	253.49
740.79	253.16
741.12	252.86
741.45	252.51
741.78	252.15
742.11	251.87
742.44	251.52
742.77	251.23
743.10	250.92
743.43	250.67
743.75	250.27
744.08	250.13
744.41	249.83
744.74	249.59
745.07	249.29
745.40	249.03
745.73	248.79
746.06	248.51
746.39	248.22
746.71	247.96
747.04	247.69
747.37	247.39
747.70	247.15
748.03	246.90
748.36	246.72
748.68	246.48
749.01	246.23
749.34	246.02
749.67	245.77
750.00	245.57
750.33	245.41
750.65	245.24
750.98	244.89
751.31	244.68
751.64	244.45
751.97	244.29
752.29	244.09
752.62	243.81
752.95	243.57
753.28	243.38
753.60	243.16
753.93	242.99
754.26	242.83
754.59	242.60
754.91	242.37
755.24	242.15
755.57	241.93
755.90	241.74
756.22	241.52
756.55	241.32
756.88	241.12
757.20	240.85
757.53	240.60
757.86	240.42
758.19	240.25
758.51	240.04
758.84	239.86
759.17	239.66
759.49	239.51
759.82	239.40
760.15	239.23
760.47	239.08
760.80	238.88
761.13	238.74
761.45	238.60
761.78	238.46
762.11	238.34
762.43	238.21
762.76	238.10
763.08	237.99
763.41	237.90
763.74	237.75
764.06	237.65
764.39	237.53
764.71	237.42
765.04	237.29
765.37	237.17
765.69	237.02
766.02	236.85
766.34	236.69
766.67	236.52
767.00	236.45
767.32	236.39
767.65	236.32
767.97	236.16
768.30	236.05
768.62	235.89
768.95	235.71
769.27	235.59
769.60	235.44
769.92	235.31
770.25	235.16
770.57	235.05
770.90	234.88
771.22	234.79
771.55	234.71
771.87	234.65
772.20	234.55
772.52	234.54
772.85	234.59
773.17	234.54
773.50	234.47
773.82	234.34
774.15	234.18
774.47	234.02
774.80	233.95
775.12	233.85
775.45	233.80
775.77	233.71
776.09	233.64
776.42	233.57
776.74	233.54
777.07	233.46
777.39	233.40
777.72	233.35
778.04	233.29
778.36	233.20
778.69	233.10
779.01	233.06
779.33	232.92
779.66	232.75
779.98	232.68
780.31	232.62
780.63	232.62
780.95	232.60
781.28	232.55
781.60	232.49
781.92	232.47
782.25	232.37
782.57	232.36
782.89	232.26
783.22	232.21
783.54	232.11
783.86	232.08
784.19	232.01
784.51	231.98
784.83	231.93
785.16	231.90
785.48	231.86
785.80	231.79
786.12	231.74
786.45	231.68
786.77	231.62
787.09	231.60
787.42	231.51
787.74	231.43
788.06	231.41
788.38	231.36
788.71	231.29
789.03	231.29
789.35	231.25
789.67	231.25
789.99	231.24
790.32	231.18
790.64	231.13
790.96	231.18
791.28	231.11
791.61	231.05
791.93	230.96
792.25	230.93
792.57	230.95
792.89	230.88
793.21	230.85
793.54	230.83
793.86	230.75
794.18	230.72
794.50	230.68
794.82	230.66
795.14	230.63
795.47	230.58
795.79	230.52
796.11	230.44
796.43	230.38
796.75	230.35
797.07	230.32
797.39	230.26
797.71	230.15
798.04	230.09
798.36	230.05
798.68	230.01
799.00	229.96
799.32	229.87
799.64	229.87
799.96	229.83
800.28	229.78
800.60	229.74
800.92	229.71
801.24	229.65
801.56	229.61
801.89	229.53
802.21	229.54
802.53	229.50
802.85	229.49
803.17	229.50
803.49	229.43
803.81	229.36
804.13	229.34
804.45	229.29
804.77	229.29
805.09	229.26
805.41	229.23
805.73	229.17
806.05	229.12
806.37	229.04
806.69	229.00
807.01	228.97
807.33	228.94
807.65	228.87
807.97	228.91
808.28	228.86
808.60	228.85
808.92	228.77
809.24	228.80
809.56	228.77
809.88	228.70
810.20	228.67
810.52	228.68
810.84	228.65
811.16	228.60
811.48	228.58
811.80	228.57
812.12	228.52
812.43	228.53
812.75	228.49
813.07	228.48
813.39	228.46
813.71	228.41
814.03	228.37
814.35	228.37
814.67	228.26
814.98	228.28
815.30	228.26
815.62	228.25
815.94	228.21
816.26	228.22
816.58	228.20
816.89	228.22
817.21	228.19
817.53	228.19
817.85	228.18
818.17	228.15
818.48	228.10
818.80	228.13
819.12	228.07
819.44	228.06
819.76	228.05
820.07	228.03
820.39	228.06
820.71	228.08
821.03	228.07
821.34	228.09
821.66	228.05
821.98	228.06
822.30	228.03
822.61	228.02
822.93	227.99
823.25	227.96
823.57	227.89
823.88	227.87
824.20	227.87
824.52	227.87
824.83	227.88
825.15	227.89
825.47	227.87
825.79	227.89
826.10	227.89
826.42	227.86
826.74	227.83
827.05	227.81
827.37	227.78
827.69	227.74
828.00	227.73
828.32	227.70
828.64	227.67
828.95	227.71
829.27	227.68
829.58	227.66
829.90	227.68
830.22	227.69
830.53	227.66
830.85	227.64
831.17	227.63
831.48	227.61
831.80	227.61
832.11	227.61
832.43	227.59
832.75	227.55
833.06	227.59
833.38	227.57
833.69	227.53
834.01	227.50
834.32	227.53
834.64	227.52
834.96	227.55
835.27	227.54
835.59	227.52
835.90	227.50
836.22	227.50
836.53	227.48
836.85	227.46
837.16	227.56
837.48	227.56
837.79	227.58
838.11	227.58
838.42	227.56
838.74	227.55
839.05	227.55
839.37	227.55
839.68	227.51
840.00	227.51
840.31	227.55
840.63	227.56
840.94	227.50
841.26	227.48
841.57	227.47
841.88	227.49
842.20	227.45
842.51	227.44
842.83	227.41
843.14	227.48
843.46	227.49
843.77	227.43
844.08	227.39
844.40	227.37
844.71	227.37
845.03	227.34
845.34	227.35
845.65	227.32
845.97	227.31
846.28	227.29
846.60	227.30
846.91	227.30
847.22	227.29
847.54	227.32
847.85	227.33
848.16	227.30
848.48	227.28
848.79	227.31
849.10	227.34
849.42	227.35
849.73	227.25
850.04	227.21
850.36	227.18
850.67	227.17
850.98	227.12
851.30	227.08
851.61	227.09
851.92	227.09
852.23	227.11
852.55	227.14
852.86	227.14
853.17	227.13
853.49	227.11
853.80	227.13
854.11	227.15
854.42	227.13
854.74	227.13
855.05	227.10
855.36	227.05
855.67	227.03
855.99	227.02
856.30	227.19
856.61	227.21
856.92	227.23
857.23	227.27
857.55	227.31
857.86	227.30
858.17	227.32
858.48	227.29
858.79	227.29
859.11	227.27
859.42	227.27
859.73	227.25
860.04	227.24
860.35	227.20
860.66	227.18
860.98	227.16
861.29	227.14
861.60	227.16
861.91	227.22
862.22	227.23
862.53	227.21
862.84	227.09
863.16	227.13
863.47	227.09
863.78	227.05
864.09	227.03
864.40	227.02
864.71	227.02
865.02	227.02
865.33	227.01
865.64	227.00
865.95	227.02
866.27	227.12
866.58	227.15
866.89	227.17
867.20	227.17
867.51	227.19
867.82	227.17
868.13	227.20
868.44	227.16
868.75	227.16
869.06	227.17
869.37	227.17
869.68	227.14
869.99	227.14
870.30	227.19
870.61	227.21
870.92	227.20
871.23	227.19
871.54	227.22
871.85	227.25
872.16	227.23
872.47	227.21
872.78	227.16
873.09	227.15
873.40	227.16
873.71	227.16
874.02	227.15
874.33	227.18
874.64	227.16
874.95	227.19
875.26	227.17
875.56	227.18
875.87	227.16
876.18	227.15
876.49	227.21
876.80	227.17
877.11	227.16
877.42	227.19
877.73	227.20
878.04	227.20
878.35	227.17
878.66	227.24
878.96	227.23
879.27	227.20
879.58	227.21
879.89	227.20
880.20	227.21
880.51	227.22
880.82	227.21
881.12	227.22
881.43	227.18
881.74	227.14
882.05	227.14
882.36	227.15
882.67	227.15
882.97	227.07
883.28	227.07
883.59	227.06
883.90	227.07
884.21	227.07
884.51	227.05
884.82	227.03
885.13	227.00
885.44	227.00
885.74	226.99
886.05	226.95
886.36	226.93
886.67	226.91
886.98	226.92
887.28	226.94
887.59	226.92
887.90	226.91
888.20	226.93
888.51	226.94
888.82	226.90
889.13	226.91
889.43	226.99
889.74	226.96
890.05	226.95
890.35	226.92
890.66	226.90
890.97	226.88
891.28	226.91
891.58	226.92
891.89	226.92
892.20	226.90
892.50	226.89
892.81	226.88
893.12	226.88
893.42	226.84
893.73	226.86
894.04	226.87
894.34	226.89
894.65	226.88
894.95	226.86
895.26	226.87
895.57	226.90
895.87	226.79
896.18	226.84
896.48	226.83
896.79	226.82
897.10	226.86
897.40	226.87
897.71	226.82
898.01	226.79
898.32	226.78
898.63	226.78
898.93	226.81
899.24	226.81
899.54	226.81
899.85	226.83
900.15	226.80
900.46	226.81
900.76	226.83
901.07	226.83
901.38	226.85
901.68	226.89
901.99	226.83
902.29	226.86
902.60	226.87
902.90	226.87
903.21	226.87
903.51	226.84
903.82	226.86
904.12	226.90
904.43	226.94
904.73	226.94
905.03	226.99
905.34	227.10
905.64	227.08
905.95	227.06
906.25	227.08
906.56	227.09
906.86	227.10
907.17	227.07
907.47	227.09
907.77	227.11
908.08	227.06
908.38	227.10
908.69	227.11
908.99	227.13
909.30	227.12
909.60	227.14
909.90	227.18
910.21	227.14
910.51	227.14
910.81	227.14
911.12	227.17
911.42	227.14
911.73	227.05
912.03	227.05
912.33	227.05
912.64	227.04
912.94	227.01
913.24	226.98
913.55	226.99
913.85	226.97
914.15	226.94
914.46	226.95
914.76	226.96
915.06	226.96
915.37	226.92
915.67	226.94
915.97	226.95
916.27	226.92
916.58	226.91
916.88	226.89
917.18	226.85
917.49	226.93
917.79	226.95
918.09	226.91
918.39	226.97
918.70	226.98
919.00	226.98
919.30	227.01
919.60	226.99
919.91	226.99
920.21	227.00
920.51	227.00
920.81	227.01
921.12	227.02
921.42	227.02
921.72	227.03
922.02	227.05
922.32	227.06
922.63	227.04
922.93	227.11
923.23	227.12
923.53	227.11
923.83	227.03
924.13	227.04
924.44	227.02
924.74	227.00
925.04	227.02
925.34	227.02
925.64	227.00
925.94	227.02
926.24	227.08
926.55	227.04
926.85	227.02
927.15	227.01
927.45	226.99
927.75	226.99
928.05	226.97
928.35	226.94
928.65	226.93
928.95	226.95
929.26	226.90
929.56	226.91
929.86	226.90
930.16	226.87
930.46	226.84
930.76	226.86
931.06	226.85
931.36	226.81
931.66	226.81
931.96	226.80
932.26	226.78
932.56	226.73
932.86	226.75
933.16	226.78
933.46	226.75
933.76	226.76
934.06	226.75
934.36	226.79
934.66	226.77
934.96	226.77
935.26	226.76
935.56	226.78
935.86	226.76
936.16	226.78
936.46	226.77
936.76	226.79
937.06	226.79
937.36	226.78
937.66	226.80
937.96	226.80
938.26	226.80
938.56	226.79
938.86	226.79
939.16	226.80
939.46	226.80
939.76	226.81
940.06	226.84
940.35	226.82
940.65	226.76
940.95	226.79
941.25	226.77
941.55	226.75
941.85	226.75
942.15	226.78
942.45	226.78
942.75	226.81
943.04	226.79
943.34	226.79
943.64	226.77
943.94	226.77
944.24	226.74
944.54	226.74
944.84	226.75
945.13	226.72
945.43	226.71
945.73	226.70
946.03	226.68
946.33	226.62
946.62	226.61
946.92	226.62
947.22	226.61
947.52	226.59
947.82	226.59
948.11	226.56
948.41	226.52
948.71	226.52
949.01	226.48
949.31	226.49
949.60	226.48
949.90	226.50
950.20	226.49
950.50	226.51
950.79	226.50
951.09	226.54
951.39	226.54
951.69	226.52
951.98	226.54
952.28	226.54
952.58	226.53
952.87	226.51
953.17	226.50
953.47	226.50
953.76	226.54
954.06	226.52
954.36	226.52
954.66	226.50
954.95	226.52
955.25	226.55
955.55	226.57
955.84	226.53
956.14	226.53
956.44	226.53
956.73	226.51
957.03	226.50
957.32	226.47
957.62	226.47
957.92	226.48
958.21	226.45
958.51	226.55
958.81	226.60
959.10	226.61
959.40	226.66
959.69	226.65
959.99	226.64
960.29	226.61
960.58	226.59
960.88	226.64
961.17	226.61
961.47	226.62
961.76	226.60
962.06	226.63
962.36	226.61
962.65	226.65
962.95	226.63
963.24	226.64
963.54	226.64
963.83	226.65
964.13	226.67
964.42	226.65
964.72	226.56
965.01	226.54
965.31	226.56
965.60	226.54
965.90	226.62
966.19	226.59
966.49	226.65
966.78	226.66
967.08	226.68
967.37	226.67
967.67	226.66
967.96	226.66
968.26	226.69
968.55	226.69
968.85	226.69
969.14	226.71
969.43	226.69
969.73	226.68
970.02	226.68
970.32	226.68
970.61	226.68
970.91	226.69
971.20	226.70
971.49	226.70
971.79	226.72
972.08	226.67
972.38	226.70
972.67	226.65
972.96	226.69
973.26	226.66
973.55	226.72
973.85	226.71
974.14	226.69
974.43	226.68
974.73	226.71
975.02	226.71
975.31	226.72
975.61	226.74
975.90	226.72
976.19	226.72
976.49	226.74
976.78	226.74
977.07	226.74
977.37	226.71
977.66	226.72
977.95	226.67
978.24	226.65
978.54	226.63
978.83	226.65
979.12	226.62
979.42	226.62
979.71	226.61
980.00	226.62
980.29	226.62
980.59	226.62
980.88	226.62
981.17	226.58
981.46	226.58
981.76	226.57
982.05	226.65
982.34	226.66
982.63	226.69
982.93	226.70
983.22	226.74
983.51	226.76
983.80	226.76
984.09	226.79
984.39	226.80
984.68	226.82
984.97	226.83
985.26	226.85
985.55	226.83
985.85	226.77
986.14	226.78
986.43	226.79
986.72	226.78
987.01	226.76
987.30	226.78
987.59	226.78
987.89	226.78
988.18	226.70
988.47	226.70
988.76	226.67
989.05	226.65
989.34	226.60
989.63	226.63
989.92	226.63
990.22	226.63
990.51	226.65
990.80	226.62
991.09	226.63
991.38	226.60
991.67	226.60
991.96	226.63
992.25	226.64
992.54	226.62
992.83	226.61
993.12	226.60
993.41	226.63
993.70	226.66
993.99	226.68
994.28	226.70
994.58	226.68
994.87	226.63
995.16	226.66
995.45	226.66
995.74	226.62
996.03	226.60
996.32	226.62
996.61	226.59
996.90	226.62
997.19	226.59
997.48	226.60
997.77	226.60
998.06	226.60
998.34	226.57
998.63	226.60
998.92	226.59
999.21	226.63
999.50	226.63
999.79	226.60
1000.08	226.62
1000.37	226.60
1000.66	226.60
1000.95	226.64
1001.24	226.66
1001.53	226.68
1001.82	226.68
1002.11	226.65
1002.40	226.64
1002.68	226.67
1002.97	226.72
1003.26	226.72
1003.55	226.71
1003.84	226.70
1004.13	226.71
1004.42	226.70
1004.71	226.70
1004.99	226.66
1005.28	226.67
1005.57	226.63
1005.86	226.61
1006.15	226.57
1006.44	226.57
1006.72	226.58
1007.01	226.55
1007.30	226.53
1007.59	226.52
1007.88	226.55
1008.17	226.56
1008.45	226.53
1008.74	226.50
1009.03	226.46
1009.32	226.46
1009.60	226.45
1009.89	226.44
1010.18	226.41
1010.47	226.42
1010.76	226.42
1011.04	226.46
1011.33	226.46
1011.62	226.43
1011.91	226.42
1012.19	226.44
1012.48	226.47
1012.77	226.45
1013.05	226.53
1013.34	226.51
1013.63	226.49
1013.92	226.47
1014.20	226.46
1014.49	226.48
1014.78	226.48
1015.06	226.46
1015.35	226.48
1015.64	226.50
1015.92	226.55
1016.21	226.57
1016.50	226.56
1016.78	226.54
1017.07	226.55
1017.36	226.56
1017.64	226.60
1017.93	226.60
1018.22	226.60
1018.50	226.58
1018.79	226.60
1019.08	226.52
1019.36	226.53
1019.65	226.54
1019.93	226.57
1020.22	226.57
1020.51	226.62
1020.79	226.59
1021.08	226.52
1021.36	226.60
1021.65	226.67
1021.94	226.16
1022.22	226.54
1022.51	226.29
1022.79	227.07
1023.08	226.32
1023.36	227.89
1023.65	225.75
>>>>>End Processed Spectral Data<<<<<
