SpectraSuite Data File
++++++++++++++++++++++++++++++++++++
Date: Fri Feb 01 15:59:47 EST 2013
User: group
Dark Spectrum Present: No
Reference Spectrum Present: No
Number of Sampled Component Spectra: 1
Spectrometers: USB2E7196
Integration Time (usec): 35000 (USB2E7196)
Spectra Averaged: 100 (USB2E7196)
Boxcar Smoothing: 10 (USB2E7196)
Correct for Electrical Dark: No (USB2E7196)
Strobe/Lamp Enabled: No (USB2E7196)
Correct for Detector Non-linearity: No (USB2E7196)
Correct for Stray Light: No (USB2E7196)
Number of Pixels in Processed Spectrum: 2048
>>>>>Begin Processed Spectral Data<<<<<
339.09	0.00
339.48	214.74
339.86	215.98
340.24	217.61
340.63	218.67
341.01	221.81
341.39	221.52
341.78	222.93
342.16	224.61
342.54	224.85
342.93	213.14
343.31	223.92
343.69	224.45
344.07	224.90
344.46	225.33
344.84	225.71
345.22	225.95
345.60	226.22
345.99	226.42
346.37	226.57
346.75	226.66
347.13	226.71
347.52	226.73
347.90	226.78
348.28	226.82
348.66	226.83
349.05	226.79
349.43	226.87
349.81	226.91
350.19	226.92
350.57	226.97
350.96	227.03
351.34	227.09
351.72	227.17
352.10	227.27
352.48	227.33
352.87	227.40
353.25	227.46
353.63	227.51
354.01	227.55
354.39	227.59
354.77	227.66
355.15	227.77
355.54	227.84
355.92	227.86
356.30	227.92
356.68	228.06
357.06	228.16
357.44	228.18
357.82	228.23
358.20	228.30
358.58	228.40
358.97	228.46
359.35	228.53
359.73	228.59
360.11	228.66
360.49	228.72
360.87	228.73
361.25	228.78
361.63	228.87
362.01	228.91
362.39	228.91
362.77	228.95
363.15	228.96
363.53	228.97
363.91	229.00
364.29	229.02
364.67	228.92
365.05	228.95
365.43	228.99
365.81	228.99
366.19	229.05
366.57	229.05
366.95	229.05
367.33	229.02
367.71	229.02
368.09	229.01
368.47	229.01
368.85	229.02
369.23	229.02
369.61	228.91
369.99	228.93
370.37	228.91
370.75	228.90
371.13	228.87
371.51	228.83
371.89	228.82
372.27	228.76
372.65	228.75
373.03	228.72
373.41	228.67
373.78	228.62
374.16	228.50
374.54	228.41
374.92	228.34
375.30	228.29
375.68	228.20
376.06	228.17
376.44	228.06
376.82	227.99
377.19	227.91
377.57	227.86
377.95	227.78
378.33	227.70
378.71	227.62
379.09	227.55
379.47	227.51
379.84	227.40
380.22	227.33
380.60	227.24
380.98	227.17
381.36	227.08
381.73	227.02
382.11	226.97
382.49	226.93
382.87	226.86
383.25	226.81
383.62	226.85
384.00	226.77
384.38	226.74
384.76	226.69
385.13	226.67
385.51	226.62
385.89	226.53
386.27	226.51
386.64	226.47
387.02	226.41
387.40	226.36
387.78	226.36
388.15	226.34
388.53	226.27
388.91	226.21
389.29	226.16
389.66	226.15
390.04	226.14
390.42	226.13
390.79	226.14
391.17	226.11
391.55	226.00
391.92	225.98
392.30	225.96
392.68	225.97
393.05	225.96
393.43	226.00
393.81	226.05
394.18	226.03
394.56	226.05
394.94	226.10
395.31	226.12
395.69	226.19
396.06	226.22
396.44	226.28
396.82	226.31
397.19	226.41
397.57	226.44
397.95	226.48
398.32	226.52
398.70	226.58
399.07	226.65
399.45	226.70
399.82	226.79
400.20	226.88
400.58	226.95
400.95	226.99
401.33	227.05
401.70	227.19
402.08	227.30
402.45	227.39
402.83	227.50
403.20	227.58
403.58	227.66
403.95	227.80
404.33	227.94
404.71	228.10
405.08	228.28
405.46	228.40
405.83	228.55
406.21	228.70
406.58	228.86
406.96	229.05
407.33	229.27
407.70	229.45
408.08	229.73
408.45	229.94
408.83	230.20
409.20	230.45
409.58	230.64
409.95	230.87
410.33	231.13
410.70	231.37
411.08	231.67
411.45	231.97
411.82	232.31
412.20	232.66
412.57	233.10
412.95	233.43
413.32	233.86
413.69	234.28
414.07	234.71
414.44	235.17
414.82	235.62
415.19	236.14
415.56	236.70
415.94	237.21
416.31	237.90
416.68	238.51
417.06	239.22
417.43	239.90
417.81	240.67
418.18	241.45
418.55	242.28
418.93	243.18
419.30	244.12
419.67	245.00
420.04	245.97
420.42	246.92
420.79	248.07
421.16	249.23
421.54	250.43
421.91	251.66
422.28	252.86
422.66	254.19
423.03	255.48
423.40	256.81
423.77	258.20
424.15	259.58
424.52	261.05
424.89	262.65
425.26	264.18
425.64	265.68
426.01	267.27
426.38	268.96
426.75	270.64
427.13	272.30
427.50	274.13
427.87	276.02
428.24	277.88
428.61	279.59
428.99	281.51
429.36	283.60
429.73	285.67
430.10	287.70
430.47	289.81
430.85	291.95
431.22	294.18
431.59	296.59
431.96	298.81
432.33	301.29
432.70	303.65
433.08	306.43
433.45	309.00
433.82	311.59
434.19	314.43
434.56	317.22
434.93	319.86
435.30	322.49
435.68	325.33
436.05	328.17
436.42	330.93
436.79	333.45
437.16	336.15
437.53	338.98
437.90	341.81
438.27	344.47
438.64	347.29
439.01	349.90
439.38	352.13
439.75	354.34
440.13	356.86
440.50	359.21
440.87	361.07
441.24	363.03
441.61	365.18
441.98	366.65
442.35	368.41
442.72	370.25
443.09	372.04
443.46	373.02
443.83	373.59
444.20	374.13
444.57	374.92
444.94	375.20
445.31	375.54
445.68	375.89
446.05	376.00
446.42	375.62
446.79	375.16
447.16	374.72
447.53	374.39
447.90	373.21
448.27	372.04
448.64	370.43
449.01	369.29
449.37	367.31
449.74	365.46
450.11	363.26
450.48	360.85
450.85	358.28
451.22	356.18
451.59	354.21
451.96	352.25
452.33	349.67
452.70	347.29
453.07	344.45
453.43	341.55
453.80	338.77
454.17	336.09
454.54	333.55
454.91	330.81
455.28	328.12
455.65	325.63
456.02	323.19
456.38	321.06
456.75	318.43
457.12	316.20
457.49	313.94
457.86	311.77
458.23	309.94
458.59	307.91
458.96	305.80
459.33	303.92
459.70	302.06
460.07	300.60
460.43	298.91
460.80	297.28
461.17	295.88
461.54	294.39
461.91	293.01
462.27	291.55
462.64	290.33
463.01	288.98
463.38	287.72
463.74	286.35
464.11	285.21
464.48	284.20
464.85	283.15
465.21	282.32
465.58	281.43
465.95	280.31
466.32	279.44
466.68	278.55
467.05	277.69
467.42	276.83
467.78	275.89
468.15	275.02
468.52	274.38
468.88	273.53
469.25	272.77
469.62	272.11
469.98	271.46
470.35	270.84
470.72	270.26
471.08	269.60
471.45	269.07
471.82	268.50
472.18	267.92
472.55	267.43
472.92	266.91
473.28	266.44
473.65	266.02
474.02	265.60
474.38	265.23
474.75	264.89
475.11	264.51
475.48	264.22
475.85	263.99
476.21	263.74
476.58	263.57
476.94	263.42
477.31	263.25
477.67	263.13
478.04	263.00
478.41	262.91
478.77	262.92
479.14	262.89
479.50	262.92
479.87	262.93
480.23	262.98
480.60	263.09
480.96	263.17
481.33	263.35
481.69	263.51
482.06	263.74
482.42	263.93
482.79	264.21
483.15	264.55
483.52	264.94
483.88	265.23
484.25	265.59
484.61	266.01
484.98	266.50
485.34	267.00
485.71	267.59
486.07	268.21
486.44	268.79
486.80	269.48
487.17	270.22
487.53	271.06
487.90	271.95
488.26	272.85
488.62	273.81
488.99	274.80
489.35	275.87
489.72	276.96
490.08	278.17
490.44	279.40
490.81	280.73
491.17	282.11
491.54	283.62
491.90	285.17
492.26	286.82
492.63	288.53
492.99	290.33
493.36	292.21
493.72	294.28
494.08	296.38
494.45	298.62
494.81	300.97
495.17	303.41
495.54	305.98
495.90	308.64
496.26	311.43
496.63	314.35
496.99	317.46
497.35	320.72
497.72	324.12
498.08	327.66
498.44	331.32
498.80	335.26
499.17	339.31
499.53	343.48
499.89	347.87
500.26	352.38
500.62	357.09
500.98	362.09
501.34	367.13
501.71	372.51
502.07	377.98
502.43	383.61
502.79	389.47
503.16	395.52
503.52	401.87
503.88	408.27
504.24	414.91
504.60	421.77
504.97	428.92
505.33	436.23
505.69	443.91
506.05	451.66
506.41	459.59
506.78	467.78
507.14	476.29
507.50	484.98
507.86	493.96
508.22	503.15
508.59	512.39
508.95	522.01
509.31	531.85
509.67	542.00
510.03	552.25
510.39	562.72
510.75	573.56
511.12	584.44
511.48	595.82
511.84	607.31
512.20	618.83
512.56	630.79
512.92	643.03
513.28	655.47
513.64	668.00
514.00	680.73
514.37	693.63
514.73	706.66
515.09	719.69
515.45	733.07
515.81	746.61
516.17	760.60
516.53	774.73
516.89	788.81
517.25	802.91
517.61	817.38
517.97	831.85
518.33	846.26
518.69	861.05
519.05	876.01
519.41	891.17
519.77	906.73
520.13	922.13
520.49	937.44
520.85	952.87
521.21	968.54
521.57	984.69
521.93	1000.41
522.29	1016.85
522.65	1033.09
523.01	1049.20
523.37	1065.28
523.73	1081.35
524.09	1097.33
524.45	1113.70
524.81	1130.27
525.17	1147.05
525.53	1163.90
525.89	1180.79
526.25	1197.56
526.61	1213.84
526.97	1230.47
527.33	1246.83
527.68	1263.41
528.04	1279.87
528.40	1296.34
528.76	1313.39
529.12	1329.85
529.48	1346.67
529.84	1362.52
530.20	1379.05
530.56	1396.08
530.91	1413.51
531.27	1430.21
531.63	1446.73
531.99	1463.14
532.35	1479.07
532.71	1494.83
533.07	1511.06
533.42	1526.91
533.78	1542.94
534.14	1559.28
534.50	1574.64
534.86	1590.60
535.21	1605.72
535.57	1621.70
535.93	1637.20
536.29	1651.91
536.65	1667.08
537.00	1681.89
537.36	1697.27
537.72	1711.76
538.08	1726.13
538.44	1739.82
538.79	1753.71
539.15	1767.32
539.51	1781.12
539.87	1795.44
540.22	1809.31
540.58	1823.07
540.94	1836.43
541.29	1849.34
541.65	1861.97
542.01	1875.15
542.37	1887.45
542.72	1899.89
543.08	1911.50
543.44	1923.86
543.79	1935.15
544.15	1946.01
544.51	1957.53
544.87	1968.50
545.22	1979.43
545.58	1989.45
545.94	1998.98
546.29	2008.84
546.65	2018.70
547.01	2027.96
547.36	2036.77
547.72	2045.13
548.07	2052.83
548.43	2060.93
548.79	2068.87
549.14	2076.38
549.50	2083.66
549.86	2091.31
550.21	2098.54
550.57	2105.76
550.92	2112.37
551.28	2119.34
551.64	2126.53
551.99	2133.15
552.35	2139.26
552.70	2145.33
553.06	2151.43
553.41	2158.02
553.77	2164.04
554.13	2170.20
554.48	2176.44
554.84	2181.79
555.19	2187.05
555.55	2192.40
555.90	2196.81
556.26	2201.80
556.61	2206.56
556.97	2210.94
557.32	2214.98
557.68	2219.19
558.03	2223.58
558.39	2227.21
558.74	2231.87
559.10	2235.73
559.45	2239.30
559.81	2243.66
560.16	2247.64
560.52	2251.08
560.87	2254.39
561.23	2256.93
561.58	2259.92
561.94	2262.28
562.29	2264.72
562.64	2267.35
563.00	2269.76
563.35	2273.30
563.71	2276.37
564.06	2279.66
564.42	2282.39
564.77	2284.78
565.12	2287.01
565.48	2288.87
565.83	2290.72
566.19	2291.90
566.54	2292.75
566.89	2293.88
567.25	2294.36
567.60	2295.56
567.96	2297.08
568.31	2297.96
568.66	2299.13
569.02	2299.57
569.37	2299.86
569.72	2300.63
570.08	2300.87
570.43	2301.03
570.78	2300.43
571.14	2298.84
571.49	2297.46
571.84	2297.29
572.20	2296.28
572.55	2295.34
572.90	2293.77
573.26	2292.51
573.61	2290.90
573.96	2289.20
574.31	2286.27
574.67	2283.28
575.02	2279.81
575.37	2276.47
575.72	2272.74
576.08	2269.63
576.43	2266.42
576.78	2262.82
577.13	2259.78
577.49	2256.74
577.84	2253.24
578.19	2249.61
578.54	2245.96
578.90	2241.78
579.25	2236.15
579.60	2231.20
579.95	2226.13
580.30	2221.14
580.66	2216.05
581.01	2211.19
581.36	2206.22
581.71	2202.06
582.06	2197.61
582.42	2193.00
582.77	2187.66
583.12	2183.08
583.47	2178.23
583.82	2173.14
584.17	2167.94
584.53	2162.32
584.88	2156.63
585.23	2150.94
585.58	2145.45
585.93	2140.06
586.28	2135.19
586.63	2130.17
586.98	2125.15
587.34	2120.41
587.69	2115.48
588.04	2110.02
588.39	2104.24
588.74	2097.72
589.09	2091.63
589.44	2084.88
589.79	2079.00
590.14	2073.44
590.49	2066.90
590.84	2060.48
591.19	2054.45
591.54	2048.04
591.89	2040.70
592.25	2033.91
592.60	2026.72
592.95	2019.09
593.30	2011.80
593.65	2004.17
594.00	1997.16
594.35	1989.91
594.70	1981.99
595.05	1974.74
595.40	1967.48
595.75	1960.04
596.10	1953.93
596.45	1947.10
596.80	1940.94
597.15	1934.17
597.50	1927.13
597.85	1920.79
598.19	1914.16
598.54	1906.96
598.89	1900.28
599.24	1894.39
599.59	1887.72
599.94	1881.49
600.29	1875.20
600.64	1868.67
600.99	1861.28
601.34	1854.54
601.69	1847.68
602.04	1840.80
602.39	1833.48
602.74	1826.67
603.08	1819.95
603.43	1813.10
603.78	1805.74
604.13	1798.56
604.48	1791.22
604.83	1784.30
605.18	1777.18
605.53	1769.10
605.87	1761.18
606.22	1753.89
606.57	1745.99
606.92	1738.67
607.27	1731.40
607.62	1724.46
607.96	1716.99
608.31	1710.46
608.66	1702.75
609.01	1694.97
609.36	1687.35
609.70	1679.21
610.05	1671.16
610.40	1663.36
610.75	1655.00
611.10	1647.32
611.44	1638.92
611.79	1630.96
612.14	1622.34
612.49	1613.21
612.83	1604.86
613.18	1596.72
613.53	1588.57
613.88	1579.94
614.22	1571.66
614.57	1563.21
614.92	1555.11
615.27	1547.60
615.61	1539.09
615.96	1531.04
616.31	1523.48
616.65	1516.11
617.00	1508.69
617.35	1501.05
617.70	1492.73
618.04	1484.28
618.39	1476.07
618.74	1468.42
619.08	1460.22
619.43	1452.52
619.78	1445.69
620.12	1438.60
620.47	1431.18
620.82	1423.04
621.16	1415.70
621.51	1408.17
621.85	1400.40
622.20	1391.84
622.55	1383.51
622.89	1375.76
623.24	1368.17
623.59	1360.88
623.93	1353.28
624.28	1345.99
624.62	1338.40
624.97	1331.27
625.32	1324.59
625.66	1317.64
626.01	1310.43
626.35	1302.88
626.70	1295.21
627.04	1287.38
627.39	1279.52
627.73	1272.01
628.08	1265.18
628.43	1257.84
628.77	1250.39
629.12	1242.87
629.46	1235.77
629.81	1228.41
630.15	1221.20
630.50	1213.80
630.84	1205.63
631.19	1197.72
631.53	1190.35
631.88	1182.85
632.22	1175.24
632.57	1167.90
632.91	1160.27
633.26	1152.78
633.60	1145.53
633.95	1138.50
634.29	1131.52
634.64	1124.94
634.98	1117.60
635.32	1110.35
635.67	1103.86
636.01	1097.31
636.36	1090.57
636.70	1084.08
637.05	1077.41
637.39	1070.96
637.73	1064.43
638.08	1058.57
638.42	1052.60
638.77	1046.10
639.11	1039.47
639.45	1033.10
639.80	1026.52
640.14	1020.18
640.49	1013.69
640.83	1007.33
641.17	1000.97
641.52	994.58
641.86	988.10
642.20	982.18
642.55	976.02
642.89	969.48
643.23	962.80
643.58	957.03
643.92	950.85
644.26	944.80
644.61	938.73
644.95	932.68
645.29	925.98
645.64	919.23
645.98	912.90
646.32	907.11
646.66	901.12
647.01	895.23
647.35	889.46
647.69	883.62
648.04	878.10
648.38	872.37
648.72	866.30
649.06	860.18
649.41	854.37
649.75	848.31
650.09	842.37
650.43	836.65
650.78	830.41
651.12	824.43
651.46	818.75
651.80	813.02
652.14	807.51
652.49	802.16
652.83	797.04
653.17	791.22
653.51	785.41
653.85	780.01
654.20	774.42
654.54	768.45
654.88	762.71
655.22	756.71
655.56	751.02
655.90	745.65
656.25	740.39
656.59	734.94
656.93	729.79
657.27	724.58
657.61	719.11
657.95	714.09
658.29	709.00
658.64	703.79
658.98	698.53
659.32	693.22
659.66	688.12
660.00	682.75
660.34	677.90
660.68	672.97
661.02	667.95
661.36	663.20
661.70	658.70
662.05	654.36
662.39	650.08
662.73	645.63
663.07	641.25
663.41	636.89
663.75	632.46
664.09	627.92
664.43	623.54
664.77	619.44
665.11	615.18
665.45	611.06
665.79	606.89
666.13	602.71
666.47	598.52
666.81	594.28
667.15	590.23
667.49	586.34
667.83	582.56
668.17	578.51
668.51	574.42
668.85	570.41
669.19	566.62
669.53	562.79
669.87	558.94
670.21	555.17
670.55	551.54
670.89	548.10
671.23	544.70
671.57	541.20
671.91	537.61
672.25	534.07
672.58	530.59
672.92	527.25
673.26	524.14
673.60	521.04
673.94	517.93
674.28	515.01
674.62	512.02
674.96	508.97
675.30	506.16
675.64	503.30
675.97	500.54
676.31	497.66
676.65	494.72
676.99	491.98
677.33	489.19
677.67	486.32
678.01	483.38
678.34	480.49
678.68	477.63
679.02	474.86
679.36	472.15
679.70	469.42
680.04	466.63
680.37	463.71
680.71	460.93
681.05	458.28
681.39	455.53
681.73	452.93
682.06	450.39
682.40	447.87
682.74	445.30
683.08	442.76
683.42	440.11
683.75	437.68
684.09	435.12
684.43	432.67
684.77	430.18
685.10	427.80
685.44	425.40
685.78	423.11
686.12	420.90
686.45	418.61
686.79	416.26
687.13	414.02
687.46	411.92
687.80	409.71
688.14	407.52
688.48	405.46
688.81	403.20
689.15	401.02
689.49	398.83
689.82	396.78
690.16	394.66
690.50	392.74
690.83	390.75
691.17	388.79
691.51	386.83
691.84	385.02
692.18	383.09
692.52	381.12
692.85	379.17
693.19	377.27
693.52	375.41
693.86	373.61
694.20	371.85
694.53	370.01
694.87	368.15
695.21	366.37
695.54	364.55
695.88	362.81
696.21	361.09
696.55	359.40
696.88	357.67
697.22	356.01
697.56	354.37
697.89	352.69
698.23	351.08
698.56	349.47
698.90	347.86
699.23	346.17
699.57	344.58
699.90	343.07
700.24	341.53
700.58	339.96
700.91	338.43
701.25	336.99
701.58	335.61
701.92	334.26
702.25	332.86
702.59	331.53
702.92	330.19
703.26	328.87
703.59	327.57
703.93	326.38
704.26	325.15
704.60	323.87
704.93	322.65
705.26	321.40
705.60	320.22
705.93	319.07
706.27	318.05
706.60	317.02
706.94	315.90
707.27	314.74
707.61	313.72
707.94	312.71
708.27	311.63
708.61	310.56
708.94	309.54
709.28	308.62
709.61	307.66
709.94	306.72
710.28	305.74
710.61	304.77
710.95	303.70
711.28	302.75
711.61	301.78
711.95	300.86
712.28	299.90
712.61	298.93
712.95	297.99
713.28	297.12
713.61	296.25
713.95	295.41
714.28	294.59
714.61	293.71
714.95	292.92
715.28	292.04
715.61	291.15
715.95	290.33
716.28	289.46
716.61	288.62
716.95	287.81
717.28	287.06
717.61	286.31
717.94	285.58
718.28	284.80
718.61	284.11
718.94	283.43
719.27	282.78
719.61	282.12
719.94	281.47
720.27	280.73
720.60	280.08
720.94	279.43
721.27	278.84
721.60	278.25
721.93	277.61
722.27	277.10
722.60	276.55
722.93	276.00
723.26	275.47
723.59	274.91
723.93	274.33
724.26	273.80
724.59	273.26
724.92	272.76
725.25	272.28
725.59	271.75
725.92	271.21
726.25	270.71
726.58	270.24
726.91	269.72
727.24	269.28
727.57	268.81
727.91	268.29
728.24	267.82
728.57	267.29
728.90	266.88
729.23	266.35
729.56	265.95
729.89	265.44
730.22	264.94
730.55	264.47
730.89	264.05
731.22	263.56
731.55	263.10
731.88	262.68
732.21	262.26
732.54	261.80
732.87	261.39
733.20	260.97
733.53	260.59
733.86	260.22
734.19	259.79
734.52	259.38
734.85	259.06
735.18	258.66
735.51	258.36
735.84	257.95
736.17	257.59
736.50	257.15
736.83	256.94
737.16	256.61
737.49	256.25
737.82	255.87
738.15	255.56
738.48	255.23
738.81	254.89
739.14	254.56
739.47	254.27
739.80	253.93
740.13	253.61
740.46	253.25
740.79	252.93
741.12	252.64
741.45	252.30
741.78	251.96
742.11	251.63
742.44	251.28
742.77	250.98
743.10	250.70
743.43	250.44
743.75	250.05
744.08	249.90
744.41	249.62
744.74	249.38
745.07	249.10
745.40	248.87
745.73	248.61
746.06	248.32
746.39	248.06
746.71	247.79
747.04	247.55
747.37	247.33
747.70	247.07
748.03	246.80
748.36	246.62
748.68	246.42
749.01	246.20
749.34	245.99
749.67	245.78
750.00	245.56
750.33	245.42
750.65	245.21
750.98	244.88
751.31	244.65
751.64	244.45
751.97	244.31
752.29	244.08
752.62	243.83
752.95	243.62
753.28	243.37
753.60	243.15
753.93	242.97
754.26	242.77
754.59	242.58
754.91	242.37
755.24	242.17
755.57	241.96
755.90	241.81
756.22	241.61
756.55	241.40
756.88	241.21
757.20	240.94
757.53	240.74
757.86	240.56
758.19	240.42
758.51	240.26
758.84	240.00
759.17	239.87
759.49	239.69
759.82	239.59
760.15	239.46
760.47	239.32
760.80	239.11
761.13	238.98
761.45	238.78
761.78	238.63
762.11	238.45
762.43	238.29
762.76	238.10
763.08	237.99
763.41	237.84
763.74	237.70
764.06	237.57
764.39	237.41
764.71	237.27
765.04	237.12
765.37	236.92
765.69	236.79
766.02	236.64
766.34	236.53
766.67	236.34
767.00	236.25
767.32	236.17
767.65	236.12
767.97	235.98
768.30	235.89
768.62	235.78
768.95	235.63
769.27	235.54
769.60	235.45
769.92	235.29
770.25	235.16
770.57	235.03
770.90	234.90
771.22	234.81
771.55	234.72
771.87	234.62
772.20	234.53
772.52	234.51
772.85	234.52
773.17	234.42
773.50	234.35
773.82	234.24
774.15	234.10
774.47	233.96
774.80	233.85
775.12	233.76
775.45	233.70
775.77	233.67
776.09	233.55
776.42	233.48
776.74	233.43
777.07	233.38
777.39	233.34
777.72	233.31
778.04	233.25
778.36	233.18
778.69	233.10
779.01	233.10
779.33	232.96
779.66	232.83
779.98	232.79
780.31	232.70
780.63	232.66
780.95	232.62
781.28	232.56
781.60	232.49
781.92	232.45
782.25	232.42
782.57	232.34
782.89	232.28
783.22	232.23
783.54	232.15
783.86	232.16
784.19	232.10
784.51	232.05
784.83	232.01
785.16	231.99
785.48	232.00
785.80	231.91
786.12	231.87
786.45	231.83
786.77	231.78
787.09	231.75
787.42	231.71
787.74	231.64
788.06	231.64
788.38	231.66
788.71	231.58
789.03	231.54
789.35	231.52
789.67	231.51
789.99	231.51
790.32	231.47
790.64	231.42
790.96	231.45
791.28	231.39
791.61	231.34
791.93	231.26
792.25	231.19
792.57	231.25
792.89	231.20
793.21	231.17
793.54	231.15
793.86	231.08
794.18	231.04
794.50	231.00
794.82	230.95
795.14	230.90
795.47	230.93
795.79	230.90
796.11	230.85
796.43	230.83
796.75	230.76
797.07	230.74
797.39	230.71
797.71	230.58
798.04	230.56
798.36	230.53
798.68	230.52
799.00	230.49
799.32	230.38
799.64	230.37
799.96	230.31
800.28	230.27
800.60	230.24
800.92	230.18
801.24	230.16
801.56	230.09
801.89	230.04
802.21	229.97
802.53	229.93
802.85	229.89
803.17	229.89
803.49	229.79
803.81	229.76
804.13	229.71
804.45	229.65
804.77	229.62
805.09	229.57
805.41	229.53
805.73	229.45
806.05	229.39
806.37	229.34
806.69	229.29
807.01	229.25
807.33	229.25
807.65	229.22
807.97	229.24
808.28	229.21
808.60	229.18
808.92	229.13
809.24	229.13
809.56	229.10
809.88	229.03
810.20	229.03
810.52	229.02
810.84	228.98
811.16	228.94
811.48	228.90
811.80	228.92
812.12	228.88
812.43	228.91
812.75	228.91
813.07	228.86
813.39	228.86
813.71	228.80
814.03	228.74
814.35	228.73
814.67	228.64
814.98	228.65
815.30	228.64
815.62	228.65
815.94	228.55
816.26	228.56
816.58	228.56
816.89	228.58
817.21	228.54
817.53	228.50
817.85	228.50
818.17	228.46
818.48	228.41
818.80	228.41
819.12	228.35
819.44	228.33
819.76	228.33
820.07	228.34
820.39	228.36
820.71	228.40
821.03	228.36
821.34	228.38
821.66	228.37
821.98	228.41
822.30	228.41
822.61	228.50
822.93	228.48
823.25	228.47
823.57	228.43
823.88	228.47
824.20	228.51
824.52	228.49
824.83	228.51
825.15	228.49
825.47	228.52
825.79	228.55
826.10	228.53
826.42	228.55
826.74	228.53
827.05	228.50
827.37	228.47
827.69	228.50
828.00	228.48
828.32	228.48
828.64	228.42
828.95	228.45
829.27	228.41
829.58	228.39
829.90	228.37
830.22	228.40
830.53	228.34
830.85	228.31
831.17	228.32
831.48	228.31
831.80	228.29
832.11	228.28
832.43	228.24
832.75	228.24
833.06	228.25
833.38	228.20
833.69	228.21
834.01	228.20
834.32	228.16
834.64	228.12
834.96	228.07
835.27	228.04
835.59	227.99
835.90	227.93
836.22	227.93
836.53	227.88
836.85	227.82
837.16	227.92
837.48	227.92
837.79	227.89
838.11	227.85
838.42	227.85
838.74	227.83
839.05	227.81
839.37	227.80
839.68	227.73
840.00	227.71
840.31	227.72
840.63	227.70
840.94	227.70
841.26	227.67
841.57	227.68
841.88	227.67
842.20	227.66
842.51	227.63
842.83	227.59
843.14	227.67
843.46	227.69
843.77	227.59
844.08	227.56
844.40	227.55
844.71	227.56
845.03	227.56
845.34	227.54
845.65	227.54
845.97	227.53
846.28	227.53
846.60	227.52
846.91	227.49
847.22	227.47
847.54	227.47
847.85	227.48
848.16	227.45
848.48	227.43
848.79	227.48
849.10	227.54
849.42	227.54
849.73	227.47
850.04	227.44
850.36	227.42
850.67	227.41
850.98	227.40
851.30	227.46
851.61	227.45
851.92	227.44
852.23	227.46
852.55	227.49
852.86	227.48
853.17	227.53
853.49	227.53
853.80	227.57
854.11	227.59
854.42	227.59
854.74	227.59
855.05	227.61
855.36	227.52
855.67	227.47
855.99	227.50
856.30	227.59
856.61	227.58
856.92	227.62
857.23	227.59
857.55	227.62
857.86	227.56
858.17	227.59
858.48	227.56
858.79	227.54
859.11	227.51
859.42	227.52
859.73	227.46
860.04	227.48
860.35	227.45
860.66	227.42
860.98	227.44
861.29	227.45
861.60	227.45
861.91	227.47
862.22	227.47
862.53	227.44
862.84	227.34
863.16	227.37
863.47	227.34
863.78	227.35
864.09	227.34
864.40	227.34
864.71	227.31
865.02	227.34
865.33	227.34
865.64	227.32
865.95	227.34
866.27	227.42
866.58	227.38
866.89	227.38
867.20	227.36
867.51	227.33
867.82	227.33
868.13	227.34
868.44	227.32
868.75	227.34
869.06	227.33
869.37	227.35
869.68	227.33
869.99	227.35
870.30	227.38
870.61	227.40
870.92	227.41
871.23	227.39
871.54	227.37
871.85	227.37
872.16	227.39
872.47	227.34
872.78	227.29
873.09	227.28
873.40	227.28
873.71	227.30
874.02	227.29
874.33	227.27
874.64	227.23
874.95	227.27
875.26	227.26
875.56	227.25
875.87	227.23
876.18	227.22
876.49	227.30
876.80	227.29
877.11	227.25
877.42	227.23
877.73	227.22
878.04	227.22
878.35	227.23
878.66	227.22
878.96	227.20
879.27	227.17
879.58	227.16
879.89	227.17
880.20	227.18
880.51	227.18
880.82	227.17
881.12	227.19
881.43	227.17
881.74	227.14
882.05	227.14
882.36	227.14
882.67	227.15
882.97	227.05
883.28	227.04
883.59	227.05
883.90	227.06
884.21	227.07
884.51	227.08
884.82	227.02
885.13	227.06
885.44	227.07
885.74	227.08
886.05	227.07
886.36	227.07
886.67	227.03
886.98	227.08
887.28	227.10
887.59	227.10
887.90	227.11
888.20	227.10
888.51	227.15
888.82	227.12
889.13	227.14
889.43	227.20
889.74	227.18
890.05	227.16
890.35	227.14
890.66	227.14
890.97	227.13
891.28	227.12
891.58	227.12
891.89	227.12
892.20	227.11
892.50	227.11
892.81	227.10
893.12	227.11
893.42	227.06
893.73	227.04
894.04	227.04
894.34	227.03
894.65	227.00
894.95	226.95
895.26	226.97
895.57	227.03
895.87	226.94
896.18	226.97
896.48	226.97
896.79	226.97
897.10	226.97
897.40	227.00
897.71	227.05
898.01	227.04
898.32	227.05
898.63	227.06
898.93	227.09
899.24	227.09
899.54	227.09
899.85	227.10
900.15	227.13
900.46	227.13
900.76	227.16
901.07	227.19
901.38	227.21
901.68	227.24
901.99	227.18
902.29	227.17
902.60	227.16
902.90	227.18
903.21	227.20
903.51	227.21
903.82	227.20
904.12	227.18
904.43	227.17
904.73	227.20
905.03	227.23
905.34	227.32
905.64	227.31
905.95	227.32
906.25	227.32
906.56	227.29
906.86	227.28
907.17	227.25
907.47	227.23
907.77	227.23
908.08	227.19
908.38	227.21
908.69	227.22
908.99	227.25
909.30	227.21
909.60	227.16
909.90	227.17
910.21	227.12
910.51	227.12
910.81	227.13
911.12	227.09
911.42	227.11
911.73	226.97
912.03	226.98
912.33	226.97
912.64	226.95
912.94	226.95
913.24	226.95
913.55	226.94
913.85	226.97
914.15	226.96
914.46	226.96
914.76	226.91
915.06	226.89
915.37	226.81
915.67	226.84
915.97	226.87
916.27	226.83
916.58	226.86
916.88	226.82
917.18	226.79
917.49	226.85
917.79	226.84
918.09	226.88
918.39	226.90
918.70	226.88
919.00	226.88
919.30	226.90
919.60	226.86
919.91	226.85
920.21	226.82
920.51	226.78
920.81	226.80
921.12	226.83
921.42	226.84
921.72	226.90
922.02	226.91
922.32	226.94
922.63	226.93
922.93	226.99
923.23	226.99
923.53	226.98
923.83	226.90
924.13	226.87
924.44	226.83
924.74	226.87
925.04	226.87
925.34	226.90
925.64	226.84
925.94	226.86
926.24	226.91
926.55	226.91
926.85	226.92
927.15	226.88
927.45	226.90
927.75	226.90
928.05	226.91
928.35	226.87
928.65	226.86
928.95	226.87
929.26	226.81
929.56	226.83
929.86	226.84
930.16	226.85
930.46	226.83
930.76	226.85
931.06	226.78
931.36	226.79
931.66	226.78
931.96	226.81
932.26	226.80
932.56	226.76
932.86	226.77
933.16	226.80
933.46	226.85
933.76	226.78
934.06	226.81
934.36	226.81
934.66	226.83
934.96	226.81
935.26	226.84
935.56	226.85
935.86	226.85
936.16	226.85
936.46	226.83
936.76	226.84
937.06	226.83
937.36	226.84
937.66	226.82
937.96	226.83
938.26	226.82
938.56	226.82
938.86	226.82
939.16	226.85
939.46	226.85
939.76	226.81
940.06	226.86
940.35	226.82
940.65	226.79
940.95	226.81
941.25	226.78
941.55	226.77
941.85	226.76
942.15	226.81
942.45	226.85
942.75	226.87
943.04	226.90
943.34	226.90
943.64	226.90
943.94	226.88
944.24	226.89
944.54	226.91
944.84	226.93
945.13	226.94
945.43	226.90
945.73	226.89
946.03	226.89
946.33	226.89
946.62	226.86
946.92	226.87
947.22	226.87
947.52	226.91
947.82	226.91
948.11	226.89
948.41	226.85
948.71	226.83
949.01	226.83
949.31	226.79
949.60	226.80
949.90	226.78
950.20	226.76
950.50	226.76
950.79	226.74
951.09	226.75
951.39	226.71
951.69	226.70
951.98	226.72
952.28	226.73
952.58	226.70
952.87	226.72
953.17	226.71
953.47	226.67
953.76	226.65
954.06	226.60
954.36	226.59
954.66	226.56
954.95	226.56
955.25	226.52
955.55	226.56
955.84	226.56
956.14	226.58
956.44	226.60
956.73	226.58
957.03	226.58
957.32	226.56
957.62	226.56
957.92	226.57
958.21	226.56
958.51	226.66
958.81	226.65
959.10	226.64
959.40	226.65
959.69	226.67
959.99	226.68
960.29	226.69
960.58	226.68
960.88	226.72
961.17	226.69
961.47	226.70
961.76	226.65
962.06	226.64
962.36	226.62
962.65	226.62
962.95	226.62
963.24	226.62
963.54	226.62
963.83	226.64
964.13	226.62
964.42	226.60
964.72	226.55
965.01	226.57
965.31	226.57
965.60	226.56
965.90	226.61
966.19	226.60
966.49	226.60
966.78	226.61
967.08	226.62
967.37	226.62
967.67	226.62
967.96	226.65
968.26	226.67
968.55	226.69
968.85	226.71
969.14	226.66
969.43	226.65
969.73	226.66
970.02	226.64
970.32	226.64
970.61	226.65
970.91	226.63
971.20	226.59
971.49	226.60
971.79	226.62
972.08	226.58
972.38	226.56
972.67	226.60
972.96	226.61
973.26	226.57
973.55	226.63
973.85	226.66
974.14	226.66
974.43	226.64
974.73	226.61
975.02	226.58
975.31	226.64
975.61	226.67
975.90	226.64
976.19	226.66
976.49	226.68
976.78	226.69
977.07	226.69
977.37	226.72
977.66	226.73
977.95	226.72
978.24	226.72
978.54	226.76
978.83	226.74
979.12	226.73
979.42	226.75
979.71	226.72
980.00	226.70
980.29	226.69
980.59	226.71
980.88	226.73
981.17	226.76
981.46	226.75
981.76	226.73
982.05	226.78
982.34	226.79
982.63	226.77
982.93	226.76
983.22	226.78
983.51	226.81
983.80	226.81
984.09	226.82
984.39	226.80
984.68	226.79
984.97	226.79
985.26	226.77
985.55	226.79
985.85	226.78
986.14	226.81
986.43	226.85
986.72	226.83
987.01	226.82
987.30	226.82
987.59	226.79
987.89	226.83
988.18	226.78
988.47	226.79
988.76	226.81
989.05	226.84
989.34	226.81
989.63	226.79
989.92	226.78
990.22	226.72
990.51	226.73
990.80	226.72
991.09	226.78
991.38	226.78
991.67	226.79
991.96	226.79
992.25	226.78
992.54	226.73
992.83	226.72
993.12	226.72
993.41	226.70
993.70	226.73
993.99	226.71
994.28	226.71
994.58	226.68
994.87	226.65
995.16	226.61
995.45	226.61
995.74	226.59
996.03	226.58
996.32	226.60
996.61	226.63
996.90	226.63
997.19	226.54
997.48	226.56
997.77	226.51
998.06	226.51
998.34	226.49
998.63	226.51
998.92	226.55
999.21	226.55
999.50	226.53
999.79	226.51
1000.08	226.50
1000.37	226.50
1000.66	226.49
1000.95	226.50
1001.24	226.51
1001.53	226.48
1001.82	226.49
1002.11	226.46
1002.40	226.51
1002.68	226.49
1002.97	226.55
1003.26	226.53
1003.55	226.47
1003.84	226.47
1004.13	226.49
1004.42	226.46
1004.71	226.46
1004.99	226.42
1005.28	226.45
1005.57	226.46
1005.86	226.42
1006.15	226.42
1006.44	226.41
1006.72	226.42
1007.01	226.43
1007.30	226.42
1007.59	226.43
1007.88	226.44
1008.17	226.46
1008.45	226.40
1008.74	226.37
1009.03	226.30
1009.32	226.32
1009.60	226.35
1009.89	226.34
1010.18	226.32
1010.47	226.32
1010.76	226.30
1011.04	226.30
1011.33	226.30
1011.62	226.30
1011.91	226.31
1012.19	226.32
1012.48	226.34
1012.77	226.35
1013.05	226.40
1013.34	226.43
1013.63	226.42
1013.92	226.44
1014.20	226.45
1014.49	226.49
1014.78	226.50
1015.06	226.50
1015.35	226.51
1015.64	226.55
1015.92	226.58
1016.21	226.57
1016.50	226.57
1016.78	226.60
1017.07	226.64
1017.36	226.61
1017.64	226.62
1017.93	226.66
1018.22	226.67
1018.50	226.68
1018.79	226.68
1019.08	226.65
1019.36	226.65
1019.65	226.67
1019.93	226.70
1020.22	226.72
1020.51	226.74
1020.79	226.76
1021.08	226.88
1021.36	226.49
1021.65	226.80
1021.94	227.03
1022.22	226.78
1022.51	226.83
1022.79	227.27
1023.08	227.24
1023.36	227.52
1023.65	226.94
>>>>>End Processed Spectral Data<<<<<
