SpectraSuite Data File
++++++++++++++++++++++++++++++++++++
Date: Fri Feb 01 14:57:42 EST 2013
User: group
Dark Spectrum Present: No
Reference Spectrum Present: No
Number of Sampled Component Spectra: 1
Spectrometers: USB2E7196
Integration Time (usec): 35000 (USB2E7196)
Spectra Averaged: 100 (USB2E7196)
Boxcar Smoothing: 10 (USB2E7196)
Correct for Electrical Dark: No (USB2E7196)
Strobe/Lamp Enabled: No (USB2E7196)
Correct for Detector Non-linearity: No (USB2E7196)
Correct for Stray Light: No (USB2E7196)
Number of Pixels in Processed Spectrum: 2048
>>>>>Begin Processed Spectral Data<<<<<
339.09	0.00
339.48	215.25
339.86	217.37
340.24	217.62
340.63	220.11
341.01	222.02
341.39	222.73
341.78	223.94
342.16	224.34
342.54	225.17
342.93	213.79
343.31	224.61
343.69	225.18
344.07	225.62
344.46	226.08
344.84	226.44
345.22	226.70
345.60	226.94
345.99	227.14
346.37	227.30
346.75	227.42
347.13	227.47
347.52	227.52
347.90	227.57
348.28	227.60
348.66	227.66
349.05	227.68
349.43	227.72
349.81	227.74
350.19	227.79
350.57	227.83
350.96	227.90
351.34	227.95
351.72	228.04
352.10	228.13
352.48	228.21
352.87	228.28
353.25	228.32
353.63	228.40
354.01	228.45
354.39	228.51
354.77	228.59
355.15	228.72
355.54	228.77
355.92	228.82
356.30	228.89
356.68	229.01
357.06	229.08
357.44	229.12
357.82	229.15
358.20	229.19
358.58	229.25
358.97	229.32
359.35	229.40
359.73	229.47
360.11	229.53
360.49	229.53
360.87	229.51
361.25	229.57
361.63	229.62
362.01	229.65
362.39	229.68
362.77	229.72
363.15	229.70
363.53	229.73
363.91	229.73
364.29	229.74
364.67	229.63
365.05	229.60
365.43	229.61
365.81	229.63
366.19	229.65
366.57	229.65
366.95	229.60
367.33	229.55
367.71	229.48
368.09	229.45
368.47	229.45
368.85	229.45
369.23	229.42
369.61	229.32
369.99	229.30
370.37	229.26
370.75	229.21
371.13	229.12
371.51	229.03
371.89	228.97
372.27	228.92
372.65	228.89
373.03	228.81
373.41	228.74
373.78	228.68
374.16	228.56
374.54	228.46
374.92	228.38
375.30	228.32
375.68	228.23
376.06	228.16
376.44	228.07
376.82	227.96
377.19	227.87
377.57	227.79
377.95	227.65
378.33	227.57
378.71	227.45
379.09	227.38
379.47	227.32
379.84	227.23
380.22	227.14
380.60	227.04
380.98	227.00
381.36	226.95
381.73	226.86
382.11	226.82
382.49	226.75
382.87	226.69
383.25	226.61
383.62	226.66
384.00	226.56
384.38	226.53
384.76	226.53
385.13	226.53
385.51	226.48
385.89	226.44
386.27	226.41
386.64	226.38
387.02	226.34
387.40	226.29
387.78	226.25
388.15	226.25
388.53	226.21
388.91	226.14
389.29	226.10
389.66	226.10
390.04	226.07
390.42	226.10
390.79	226.06
391.17	226.08
391.55	225.98
391.92	226.02
392.30	226.05
392.68	226.02
393.05	225.98
393.43	226.01
393.81	226.05
394.18	226.05
394.56	226.06
394.94	226.14
395.31	226.19
395.69	226.30
396.06	226.34
396.44	226.39
396.82	226.47
397.19	226.60
397.57	226.65
397.95	226.73
398.32	226.77
398.70	226.85
399.07	226.96
399.45	227.02
399.82	227.08
400.20	227.16
400.58	227.24
400.95	227.34
401.33	227.44
401.70	227.59
402.08	227.72
402.45	227.86
402.83	227.99
403.20	228.09
403.58	228.18
403.95	228.33
404.33	228.52
404.71	228.65
405.08	228.82
405.46	228.96
405.83	229.15
406.21	229.31
406.58	229.49
406.96	229.66
407.33	229.88
407.70	230.08
408.08	230.31
408.45	230.53
408.83	230.78
409.20	231.02
409.58	231.25
409.95	231.52
410.33	231.80
410.70	231.99
411.08	232.28
411.45	232.59
411.82	232.93
412.20	233.24
412.57	233.65
412.95	233.93
413.32	234.34
413.69	234.73
414.07	235.16
414.44	235.66
414.82	236.12
415.19	236.65
415.56	237.22
415.94	237.75
416.31	238.42
416.68	239.05
417.06	239.76
417.43	240.42
417.81	241.17
418.18	241.94
418.55	242.79
418.93	243.70
419.30	244.57
419.67	245.44
420.04	246.40
420.42	247.42
420.79	248.58
421.16	249.70
421.54	250.87
421.91	252.11
422.28	253.31
422.66	254.60
423.03	255.90
423.40	257.21
423.77	258.62
424.15	260.02
424.52	261.50
424.89	263.13
425.26	264.66
425.64	266.10
426.01	267.65
426.38	269.31
426.75	270.99
427.13	272.75
427.50	274.57
427.87	276.48
428.24	278.30
428.61	280.04
428.99	282.00
429.36	284.09
429.73	286.11
430.10	288.16
430.47	290.25
430.85	292.36
431.22	294.62
431.59	296.99
431.96	299.26
432.33	301.72
432.70	304.07
433.08	306.89
433.45	309.55
433.82	312.15
434.19	315.04
434.56	317.80
434.93	320.41
435.30	323.03
435.68	325.91
436.05	328.70
436.42	331.54
436.79	334.05
437.16	336.75
437.53	339.62
437.90	342.43
438.27	345.24
438.64	348.07
439.01	350.66
439.38	352.89
439.75	355.05
440.13	357.60
440.50	359.97
440.87	361.81
441.24	363.74
441.61	365.96
441.98	367.46
442.35	369.34
442.72	371.25
443.09	373.11
443.46	374.13
443.83	374.77
444.20	375.34
444.57	376.22
444.94	376.54
445.31	376.90
445.68	377.24
446.05	377.25
446.42	376.93
446.79	376.56
447.16	376.15
447.53	375.84
447.90	374.62
448.27	373.43
448.64	371.88
449.01	370.81
449.37	368.85
449.74	367.01
450.11	364.75
450.48	362.28
450.85	359.75
451.22	357.59
451.59	355.59
451.96	353.63
452.33	351.00
452.70	348.67
453.07	345.86
453.43	342.96
453.80	340.19
454.17	337.48
454.54	334.91
454.91	332.20
455.28	329.52
455.65	327.06
456.02	324.66
456.38	322.54
456.75	319.80
457.12	317.52
457.49	315.25
457.86	313.07
458.23	311.18
458.59	309.12
458.96	307.03
459.33	305.14
459.70	303.20
460.07	301.71
460.43	299.95
460.80	298.31
461.17	296.85
461.54	295.37
461.91	293.92
462.27	292.42
462.64	291.10
463.01	289.74
463.38	288.43
463.74	287.04
464.11	285.84
464.48	284.80
464.85	283.70
465.21	282.82
465.58	281.90
465.95	280.78
466.32	279.84
466.68	278.91
467.05	277.99
467.42	277.10
467.78	276.10
468.15	275.18
468.52	274.47
468.88	273.60
469.25	272.80
469.62	272.15
469.98	271.47
470.35	270.87
470.72	270.25
471.08	269.57
471.45	269.03
471.82	268.45
472.18	267.86
472.55	267.37
472.92	266.83
473.28	266.32
473.65	265.85
474.02	265.40
474.38	264.99
474.75	264.66
475.11	264.31
475.48	264.07
475.85	263.87
476.21	263.65
476.58	263.45
476.94	263.31
477.31	263.13
477.67	262.95
478.04	262.80
478.41	262.75
478.77	262.76
479.14	262.64
479.50	262.65
479.87	262.72
480.23	262.80
480.60	262.84
480.96	262.92
481.33	263.15
481.69	263.33
482.06	263.54
482.42	263.74
482.79	263.99
483.15	264.31
483.52	264.69
483.88	265.02
484.25	265.37
484.61	265.80
484.98	266.25
485.34	266.84
485.71	267.42
486.07	268.02
486.44	268.62
486.80	269.35
487.17	270.05
487.53	270.89
487.90	271.77
488.26	272.75
488.62	273.76
488.99	274.77
489.35	275.85
489.72	276.96
490.08	278.17
490.44	279.44
490.81	280.75
491.17	282.09
491.54	283.60
491.90	285.16
492.26	286.79
492.63	288.53
492.99	290.29
493.36	292.18
493.72	294.20
494.08	296.28
494.45	298.51
494.81	300.89
495.17	303.28
495.54	305.82
495.90	308.47
496.26	311.29
496.63	314.19
496.99	317.22
497.35	320.47
497.72	323.86
498.08	327.34
498.44	330.95
498.80	334.84
499.17	338.79
499.53	342.98
499.89	347.33
500.26	351.79
500.62	356.44
500.98	361.41
501.34	366.42
501.71	371.75
502.07	377.17
502.43	382.76
502.79	388.55
503.16	394.60
503.52	400.81
503.88	407.17
504.24	413.73
504.60	420.63
504.97	427.74
505.33	434.99
505.69	442.63
506.05	450.39
506.41	458.23
506.78	466.36
507.14	474.75
507.50	483.49
507.86	492.46
508.22	501.63
508.59	510.75
508.95	520.33
509.31	530.10
509.67	540.13
510.03	550.35
510.39	560.82
510.75	571.56
511.12	582.49
511.48	593.74
511.84	605.17
512.20	616.62
512.56	628.47
512.92	640.61
513.28	652.88
513.64	665.39
514.00	678.13
514.37	691.03
514.73	704.09
515.09	717.07
515.45	730.38
515.81	744.02
516.17	758.05
516.53	772.20
516.89	786.34
517.25	800.51
517.61	814.91
517.97	829.41
518.33	843.85
518.69	858.66
519.05	873.74
519.41	888.94
519.77	904.56
520.13	919.99
520.49	935.43
520.85	951.03
521.21	966.77
521.57	982.96
521.93	998.86
522.29	1015.32
522.65	1031.65
523.01	1047.98
523.37	1064.01
523.73	1080.32
524.09	1096.42
524.45	1112.85
524.81	1129.58
525.17	1146.56
525.53	1163.61
525.89	1180.63
526.25	1197.54
526.61	1213.93
526.97	1230.76
527.33	1247.17
527.68	1264.07
528.04	1280.71
528.40	1297.36
528.76	1314.58
529.12	1331.34
529.48	1348.30
529.84	1364.48
530.20	1381.24
530.56	1398.35
530.91	1415.90
531.27	1432.59
531.63	1449.09
531.99	1465.73
532.35	1481.87
532.71	1497.80
533.07	1514.12
533.42	1530.08
533.78	1546.13
534.14	1562.54
534.50	1577.95
534.86	1594.01
535.21	1609.16
535.57	1625.16
535.93	1640.72
536.29	1655.51
536.65	1670.79
537.00	1685.73
537.36	1700.98
537.72	1715.57
538.08	1730.10
538.44	1743.97
538.79	1757.94
539.15	1771.94
539.51	1785.77
539.87	1800.19
540.22	1814.02
540.58	1828.00
540.94	1841.52
541.29	1854.68
541.65	1867.49
542.01	1880.90
542.37	1893.43
542.72	1905.96
543.08	1917.87
543.44	1930.40
543.79	1941.69
544.15	1952.62
544.51	1964.12
544.87	1975.29
545.22	1986.19
545.58	1996.42
545.94	2006.30
546.29	2016.34
546.65	2026.06
547.01	2035.23
547.36	2043.96
547.72	2052.38
548.07	2060.06
548.43	2068.16
548.79	2076.18
549.14	2083.72
549.50	2090.97
549.86	2098.58
550.21	2105.90
550.57	2113.05
550.92	2119.62
551.28	2126.58
551.64	2133.66
551.99	2140.28
552.35	2146.30
552.70	2152.41
553.06	2158.28
553.41	2164.48
553.77	2170.54
554.13	2176.69
554.48	2182.99
554.84	2188.21
555.19	2193.59
555.55	2198.67
555.90	2203.11
556.26	2207.83
556.61	2212.53
556.97	2216.72
557.32	2220.70
557.68	2224.72
558.03	2229.01
558.39	2232.63
558.74	2237.25
559.10	2241.03
559.45	2244.51
559.81	2248.85
560.16	2252.43
560.52	2255.57
560.87	2258.97
561.23	2261.50
561.58	2264.39
561.94	2266.61
562.29	2269.16
562.64	2271.81
563.00	2274.43
563.35	2277.82
563.71	2280.88
564.06	2283.75
564.42	2286.53
564.77	2289.01
565.12	2291.12
565.48	2292.64
565.83	2294.43
566.19	2295.69
566.54	2296.51
566.89	2297.41
567.25	2297.71
567.60	2298.94
567.96	2300.45
568.31	2301.29
568.66	2302.04
569.02	2302.43
569.37	2302.68
569.72	2303.28
570.08	2303.15
570.43	2302.88
570.78	2302.06
571.14	2300.38
571.49	2299.18
571.84	2298.64
572.20	2297.19
572.55	2296.14
572.90	2294.56
573.26	2292.94
573.61	2290.92
573.96	2288.91
574.31	2285.78
574.67	2282.71
575.02	2278.96
575.37	2275.54
575.72	2271.32
576.08	2268.00
576.43	2264.52
576.78	2260.79
577.13	2257.56
577.49	2254.34
577.84	2250.78
578.19	2247.01
578.54	2243.08
578.90	2238.44
579.25	2232.91
579.60	2227.80
579.95	2222.51
580.30	2217.31
580.66	2211.92
581.01	2206.91
581.36	2201.91
581.71	2197.75
582.06	2193.09
582.42	2188.51
582.77	2183.06
583.12	2178.39
583.47	2173.42
583.82	2168.17
584.17	2162.80
584.53	2156.98
584.88	2151.15
585.23	2145.19
585.58	2139.58
585.93	2134.09
586.28	2129.31
586.63	2124.18
586.98	2119.22
587.34	2114.55
587.69	2109.66
588.04	2104.23
588.39	2098.44
588.74	2091.91
589.09	2085.63
589.44	2078.69
589.79	2072.55
590.14	2066.84
590.49	2060.11
590.84	2053.70
591.19	2047.56
591.54	2040.95
591.89	2033.34
592.25	2026.53
592.60	2019.27
592.95	2011.46
593.30	2004.05
593.65	1996.33
594.00	1989.11
594.35	1981.64
594.70	1973.54
595.05	1966.07
595.40	1958.81
595.75	1951.22
596.10	1944.73
596.45	1937.68
596.80	1931.39
597.15	1924.72
597.50	1917.46
597.85	1911.06
598.19	1904.28
598.54	1897.28
598.89	1890.60
599.24	1884.79
599.59	1877.89
599.94	1871.63
600.29	1865.43
600.64	1858.83
600.99	1851.37
601.34	1844.43
601.69	1837.52
602.04	1830.36
602.39	1823.04
602.74	1816.08
603.08	1809.44
603.43	1802.81
603.78	1795.66
604.13	1788.46
604.48	1781.04
604.83	1774.27
605.18	1767.15
605.53	1759.04
605.87	1750.91
606.22	1743.57
606.57	1735.72
606.92	1728.50
607.27	1721.20
607.62	1714.19
607.96	1706.83
608.31	1700.15
608.66	1692.47
609.01	1684.87
609.36	1677.40
609.70	1669.37
610.05	1661.38
610.40	1653.72
610.75	1645.37
611.10	1637.79
611.44	1629.63
611.79	1621.77
612.14	1613.03
612.49	1604.10
612.83	1595.90
613.18	1587.85
613.53	1579.93
613.88	1571.46
614.22	1563.24
614.57	1554.81
614.92	1546.79
615.27	1539.30
615.61	1531.08
615.96	1523.20
616.31	1515.73
616.65	1508.43
617.00	1500.89
617.35	1493.24
617.70	1484.91
618.04	1476.37
618.39	1468.12
618.74	1460.44
619.08	1452.14
619.43	1444.64
619.78	1437.77
620.12	1430.59
620.47	1423.12
620.82	1414.84
621.16	1407.37
621.51	1399.74
621.85	1392.19
622.20	1383.72
622.55	1375.46
622.89	1367.72
623.24	1360.10
623.59	1352.71
623.93	1345.14
624.28	1338.03
624.62	1330.61
624.97	1323.38
625.32	1316.77
625.66	1309.79
626.01	1302.65
626.35	1295.22
626.70	1287.43
627.04	1279.60
627.39	1271.88
627.73	1264.40
628.08	1257.59
628.43	1250.37
628.77	1243.10
629.12	1235.56
629.46	1228.46
629.81	1221.15
630.15	1213.92
630.50	1206.59
630.84	1198.30
631.19	1190.57
631.53	1183.18
631.88	1175.71
632.22	1168.17
632.57	1160.89
632.91	1153.42
633.26	1146.01
633.60	1138.72
633.95	1131.90
634.29	1125.06
634.64	1118.44
634.98	1111.23
635.32	1104.24
635.67	1097.78
636.01	1091.15
636.36	1084.39
636.70	1077.89
637.05	1071.30
637.39	1064.97
637.73	1058.50
638.08	1052.79
638.42	1046.85
638.77	1040.34
639.11	1033.75
639.45	1027.46
639.80	1020.76
640.14	1014.33
640.49	1007.84
640.83	1001.63
641.17	995.27
641.52	988.86
641.86	982.53
642.20	976.74
642.55	970.44
642.89	963.93
643.23	957.47
643.58	951.82
643.92	945.70
644.26	939.62
644.61	933.56
644.95	927.58
645.29	920.96
645.64	914.24
645.98	907.96
646.32	902.19
646.66	896.14
647.01	890.46
647.35	884.79
647.69	879.01
648.04	873.50
648.38	867.74
648.72	861.79
649.06	855.75
649.41	849.87
649.75	843.83
650.09	837.92
650.43	832.14
650.78	825.95
651.12	819.97
651.46	814.23
651.80	808.49
652.14	803.09
652.49	797.69
652.83	792.49
653.17	786.86
653.51	781.15
653.85	775.84
654.20	770.21
654.54	764.29
654.88	758.61
655.22	752.81
655.56	747.25
655.90	741.83
656.25	736.66
656.59	731.27
656.93	726.28
657.27	721.16
657.61	715.77
657.95	710.69
658.29	705.67
658.64	700.57
658.98	695.31
659.32	689.87
659.66	684.73
660.00	679.45
660.34	674.56
660.68	669.74
661.02	664.71
661.36	660.05
661.70	655.59
662.05	651.23
662.39	646.86
662.73	642.41
663.07	638.07
663.41	633.56
663.75	629.10
664.09	624.53
664.43	620.20
664.77	616.08
665.11	611.91
665.45	607.79
665.79	603.69
666.13	599.60
666.47	595.58
666.81	591.41
667.15	587.34
667.49	583.43
667.83	579.65
668.17	575.75
668.51	571.71
668.85	567.72
669.19	563.95
669.53	560.13
669.87	556.28
670.21	552.62
670.55	549.03
670.89	545.70
671.23	542.33
671.57	538.86
671.91	535.39
672.25	531.90
672.58	528.43
672.92	525.14
673.26	522.02
673.60	518.92
673.94	515.85
674.28	513.04
674.62	510.12
674.96	506.99
675.30	504.14
675.64	501.28
675.97	498.58
676.31	495.72
676.65	492.83
676.99	490.15
677.33	487.32
677.67	484.51
678.01	481.42
678.34	478.44
678.68	475.59
679.02	472.75
679.36	469.99
679.70	467.26
680.04	464.45
680.37	461.57
680.71	458.80
681.05	456.27
681.39	453.55
681.73	450.94
682.06	448.46
682.40	445.89
682.74	443.36
683.08	440.82
683.42	438.25
683.75	435.74
684.09	433.26
684.43	430.87
684.77	428.43
685.10	426.21
685.44	423.96
685.78	421.72
686.12	419.55
686.45	417.35
686.79	415.09
687.13	412.94
687.46	410.81
687.80	408.66
688.14	406.47
688.48	404.40
688.81	402.23
689.15	400.10
689.49	397.98
689.82	395.92
690.16	393.84
690.50	391.88
690.83	389.96
691.17	388.03
691.51	386.09
691.84	384.31
692.18	382.35
692.52	380.37
692.85	378.45
693.19	376.59
693.52	374.78
693.86	373.00
694.20	371.22
694.53	369.42
694.87	367.61
695.21	365.88
695.54	364.11
695.88	362.32
696.21	360.59
696.55	358.93
696.88	357.24
697.22	355.60
697.56	354.05
697.89	352.44
698.23	350.83
698.56	349.24
698.90	347.64
699.23	346.02
699.57	344.48
699.90	342.91
700.24	341.34
700.58	339.77
700.91	338.29
701.25	336.82
701.58	335.46
701.92	334.10
702.25	332.67
702.59	331.29
702.92	330.00
703.26	328.69
703.59	327.41
703.93	326.23
704.26	324.97
704.60	323.63
704.93	322.37
705.26	321.08
705.60	319.91
705.93	318.76
706.27	317.69
706.60	316.65
706.94	315.62
707.27	314.48
707.61	313.45
707.94	312.40
708.27	311.35
708.61	310.31
708.94	309.32
709.28	308.34
709.61	307.39
709.94	306.44
710.28	305.43
710.61	304.47
710.95	303.41
711.28	302.50
711.61	301.59
711.95	300.67
712.28	299.69
712.61	298.71
712.95	297.78
713.28	296.94
713.61	296.04
713.95	295.13
714.28	294.34
714.61	293.47
714.95	292.66
715.28	291.81
715.61	290.91
715.95	290.04
716.28	289.18
716.61	288.35
716.95	287.54
717.28	286.83
717.61	286.04
717.94	285.35
718.28	284.56
718.61	283.83
718.94	283.15
719.27	282.57
719.61	281.95
719.94	281.30
720.27	280.56
720.60	279.93
720.94	279.31
721.27	278.70
721.60	278.14
721.93	277.56
722.27	277.04
722.60	276.52
722.93	275.96
723.26	275.48
723.59	274.93
723.93	274.44
724.26	273.89
724.59	273.36
724.92	272.83
725.25	272.36
725.59	271.85
725.92	271.35
726.25	270.84
726.58	270.36
726.91	269.88
727.24	269.46
727.57	269.01
727.91	268.54
728.24	268.08
728.57	267.61
728.90	267.15
729.23	266.61
729.56	266.21
729.89	265.73
730.22	265.21
730.55	264.78
730.89	264.31
731.22	263.88
731.55	263.46
731.88	263.03
732.21	262.56
732.54	262.15
732.87	261.74
733.20	261.34
733.53	260.95
733.86	260.59
734.19	260.16
734.52	259.75
734.85	259.42
735.18	259.04
735.51	258.67
735.84	258.30
736.17	258.01
736.50	257.60
736.83	257.39
737.16	257.09
737.49	256.74
737.82	256.36
738.15	256.00
738.48	255.67
738.81	255.34
739.14	255.04
739.47	254.70
739.80	254.39
740.13	254.07
740.46	253.78
740.79	253.40
741.12	253.10
741.45	252.81
741.78	252.48
742.11	252.17
742.44	251.83
742.77	251.57
743.10	251.22
743.43	250.92
743.75	250.52
744.08	250.36
744.41	250.07
744.74	249.83
745.07	249.56
745.40	249.30
745.73	249.07
746.06	248.80
746.39	248.54
746.71	248.26
747.04	247.98
747.37	247.68
747.70	247.46
748.03	247.22
748.36	246.97
748.68	246.72
749.01	246.45
749.34	246.25
749.67	245.96
750.00	245.74
750.33	245.57
750.65	245.39
750.98	245.05
751.31	244.82
751.64	244.62
751.97	244.45
752.29	244.20
752.62	243.94
752.95	243.71
753.28	243.49
753.60	243.31
753.93	243.14
754.26	242.97
754.59	242.74
754.91	242.52
755.24	242.32
755.57	242.15
755.90	242.00
756.22	241.79
756.55	241.65
756.88	241.47
757.20	241.29
757.53	241.06
757.86	240.92
758.19	240.78
758.51	240.62
758.84	240.43
759.17	240.29
759.49	240.20
759.82	240.11
760.15	239.97
760.47	239.83
760.80	239.66
761.13	239.54
761.45	239.40
761.78	239.29
762.11	239.17
762.43	239.01
762.76	238.88
763.08	238.77
763.41	238.61
763.74	238.49
764.06	238.33
764.39	238.21
764.71	238.06
765.04	237.92
765.37	237.80
765.69	237.66
766.02	237.56
766.34	237.40
766.67	237.25
767.00	237.17
767.32	237.11
767.65	237.07
767.97	236.94
768.30	236.83
768.62	236.72
768.95	236.59
769.27	236.49
769.60	236.43
769.92	236.29
770.25	236.20
770.57	236.07
770.90	235.99
771.22	235.91
771.55	235.82
771.87	235.75
772.20	235.63
772.52	235.65
772.85	235.61
773.17	235.53
773.50	235.43
773.82	235.30
774.15	235.16
774.47	235.01
774.80	234.90
775.12	234.82
775.45	234.69
775.77	234.60
776.09	234.50
776.42	234.37
776.74	234.30
777.07	234.19
777.39	234.11
777.72	234.05
778.04	233.94
778.36	233.83
778.69	233.72
779.01	233.67
779.33	233.49
779.66	233.33
779.98	233.24
780.31	233.15
780.63	233.15
780.95	233.06
781.28	233.00
781.60	232.93
781.92	232.85
782.25	232.83
782.57	232.77
782.89	232.71
783.22	232.64
783.54	232.58
783.86	232.52
784.19	232.43
784.51	232.34
784.83	232.31
785.16	232.26
785.48	232.23
785.80	232.19
786.12	232.13
786.45	232.06
786.77	232.03
787.09	231.97
787.42	231.87
787.74	231.81
788.06	231.76
788.38	231.71
788.71	231.65
789.03	231.58
789.35	231.56
789.67	231.50
789.99	231.46
790.32	231.39
790.64	231.34
790.96	231.36
791.28	231.33
791.61	231.25
791.93	231.22
792.25	231.14
792.57	231.15
792.89	231.09
793.21	231.06
793.54	231.00
793.86	230.96
794.18	230.94
794.50	230.91
794.82	230.84
795.14	230.78
795.47	230.77
795.79	230.74
796.11	230.68
796.43	230.67
796.75	230.61
797.07	230.59
797.39	230.58
797.71	230.52
798.04	230.51
798.36	230.49
798.68	230.46
799.00	230.50
799.32	230.43
799.64	230.44
799.96	230.45
800.28	230.45
800.60	230.38
800.92	230.35
801.24	230.32
801.56	230.32
801.89	230.32
802.21	230.31
802.53	230.28
802.85	230.28
803.17	230.28
803.49	230.25
803.81	230.25
804.13	230.21
804.45	230.17
804.77	230.13
805.09	230.10
805.41	230.03
805.73	229.97
806.05	229.93
806.37	229.90
806.69	229.87
807.01	229.83
807.33	229.85
807.65	229.78
807.97	229.81
808.28	229.79
808.60	229.79
808.92	229.74
809.24	229.78
809.56	229.75
809.88	229.71
810.20	229.70
810.52	229.68
810.84	229.63
811.16	229.63
811.48	229.62
811.80	229.63
812.12	229.62
812.43	229.60
812.75	229.55
813.07	229.51
813.39	229.46
813.71	229.46
814.03	229.40
814.35	229.41
814.67	229.35
814.98	229.31
815.30	229.28
815.62	229.24
815.94	229.17
816.26	229.18
816.58	229.13
816.89	229.13
817.21	229.07
817.53	229.06
817.85	229.00
818.17	228.97
818.48	228.93
818.80	228.93
819.12	228.90
819.44	228.90
819.76	228.88
820.07	228.88
820.39	228.83
820.71	228.85
821.03	228.80
821.34	228.77
821.66	228.76
821.98	228.75
822.30	228.73
822.61	228.73
822.93	228.66
823.25	228.65
823.57	228.58
823.88	228.60
824.20	228.61
824.52	228.61
824.83	228.58
825.15	228.54
825.47	228.53
825.79	228.49
826.10	228.50
826.42	228.47
826.74	228.46
827.05	228.44
827.37	228.38
827.69	228.36
828.00	228.35
828.32	228.33
828.64	228.30
828.95	228.33
829.27	228.31
829.58	228.31
829.90	228.32
830.22	228.31
830.53	228.27
830.85	228.24
831.17	228.19
831.48	228.15
831.80	228.14
832.11	228.13
832.43	228.09
832.75	228.05
833.06	228.06
833.38	228.02
833.69	228.03
834.01	228.02
834.32	228.02
834.64	227.98
834.96	227.96
835.27	227.95
835.59	227.93
835.90	227.92
836.22	227.90
836.53	227.88
836.85	227.89
837.16	227.97
837.48	227.96
837.79	227.99
838.11	228.01
838.42	227.99
838.74	228.01
839.05	228.04
839.37	228.03
839.68	228.00
840.00	227.98
840.31	228.00
840.63	228.01
840.94	227.99
841.26	227.97
841.57	227.96
841.88	227.97
842.20	227.90
842.51	227.89
842.83	227.87
843.14	227.97
843.46	228.01
843.77	227.94
844.08	227.96
844.40	227.92
844.71	227.91
845.03	227.91
845.34	227.90
845.65	227.90
845.97	227.91
846.28	227.90
846.60	227.92
846.91	227.88
847.22	227.90
847.54	227.95
847.85	227.98
848.16	227.98
848.48	227.95
848.79	228.01
849.10	228.02
849.42	228.03
849.73	227.89
850.04	227.85
850.36	227.82
850.67	227.85
850.98	227.86
851.30	227.90
851.61	227.90
851.92	227.88
852.23	227.91
852.55	227.89
852.86	227.91
853.17	227.90
853.49	227.91
853.80	227.93
854.11	227.92
854.42	227.94
854.74	227.91
855.05	227.93
855.36	227.89
855.67	227.89
855.99	227.88
856.30	227.99
856.61	228.00
856.92	227.97
857.23	227.92
857.55	227.91
857.86	227.87
858.17	227.89
858.48	227.86
858.79	227.80
859.11	227.80
859.42	227.78
859.73	227.77
860.04	227.75
860.35	227.69
860.66	227.64
860.98	227.65
861.29	227.66
861.60	227.62
861.91	227.61
862.22	227.60
862.53	227.60
862.84	227.52
863.16	227.51
863.47	227.52
863.78	227.52
864.09	227.50
864.40	227.52
864.71	227.45
865.02	227.45
865.33	227.47
865.64	227.45
865.95	227.44
866.27	227.49
866.58	227.49
866.89	227.51
867.20	227.52
867.51	227.45
867.82	227.47
868.13	227.50
868.44	227.50
868.75	227.50
869.06	227.48
869.37	227.47
869.68	227.45
869.99	227.47
870.30	227.47
870.61	227.49
870.92	227.45
871.23	227.49
871.54	227.51
871.85	227.49
872.16	227.50
872.47	227.47
872.78	227.39
873.09	227.39
873.40	227.40
873.71	227.38
874.02	227.42
874.33	227.37
874.64	227.34
874.95	227.36
875.26	227.33
875.56	227.33
875.87	227.34
876.18	227.35
876.49	227.44
876.80	227.44
877.11	227.42
877.42	227.44
877.73	227.42
878.04	227.40
878.35	227.42
878.66	227.45
878.96	227.49
879.27	227.50
879.58	227.50
879.89	227.52
880.20	227.55
880.51	227.55
880.82	227.56
881.12	227.58
881.43	227.55
881.74	227.56
882.05	227.59
882.36	227.57
882.67	227.58
882.97	227.47
883.28	227.45
883.59	227.47
883.90	227.47
884.21	227.48
884.51	227.50
884.82	227.47
885.13	227.49
885.44	227.47
885.74	227.48
886.05	227.47
886.36	227.44
886.67	227.40
886.98	227.46
887.28	227.48
887.59	227.47
887.90	227.48
888.20	227.46
888.51	227.44
888.82	227.43
889.13	227.43
889.43	227.51
889.74	227.51
890.05	227.49
890.35	227.47
890.66	227.48
890.97	227.49
891.28	227.49
891.58	227.46
891.89	227.49
892.20	227.48
892.50	227.47
892.81	227.49
893.12	227.50
893.42	227.44
893.73	227.45
894.04	227.46
894.34	227.46
894.65	227.48
894.95	227.47
895.26	227.49
895.57	227.53
895.87	227.46
896.18	227.49
896.48	227.48
896.79	227.49
897.10	227.49
897.40	227.46
897.71	227.51
898.01	227.51
898.32	227.51
898.63	227.49
898.93	227.50
899.24	227.48
899.54	227.47
899.85	227.48
900.15	227.45
900.46	227.44
900.76	227.44
901.07	227.40
901.38	227.39
901.68	227.36
901.99	227.32
902.29	227.29
902.60	227.26
902.90	227.29
903.21	227.29
903.51	227.31
903.82	227.32
904.12	227.29
904.43	227.28
904.73	227.26
905.03	227.30
905.34	227.40
905.64	227.37
905.95	227.39
906.25	227.39
906.56	227.37
906.86	227.37
907.17	227.36
907.47	227.37
907.77	227.39
908.08	227.38
908.38	227.37
908.69	227.36
908.99	227.37
909.30	227.33
909.60	227.32
909.90	227.31
910.21	227.23
910.51	227.17
910.81	227.18
911.12	227.17
911.42	227.13
911.73	227.02
912.03	227.04
912.33	227.02
912.64	227.01
912.94	227.00
913.24	226.99
913.55	227.00
913.85	227.01
914.15	227.01
914.46	227.02
914.76	226.97
915.06	226.99
915.37	226.97
915.67	226.99
915.97	226.98
916.27	226.95
916.58	227.02
916.88	227.04
917.18	227.01
917.49	227.08
917.79	227.08
918.09	227.09
918.39	227.13
918.70	227.15
919.00	227.13
919.30	227.16
919.60	227.13
919.91	227.11
920.21	227.10
920.51	227.10
920.81	227.11
921.12	227.15
921.42	227.15
921.72	227.16
922.02	227.14
922.32	227.14
922.63	227.14
922.93	227.18
923.23	227.17
923.53	227.17
923.83	227.13
924.13	227.14
924.44	227.16
924.74	227.14
925.04	227.14
925.34	227.15
925.64	227.13
925.94	227.18
926.24	227.27
926.55	227.27
926.85	227.27
927.15	227.26
927.45	227.30
927.75	227.31
928.05	227.32
928.35	227.35
928.65	227.38
928.95	227.39
929.26	227.34
929.56	227.36
929.86	227.38
930.16	227.36
930.46	227.35
930.76	227.35
931.06	227.33
931.36	227.34
931.66	227.33
931.96	227.37
932.26	227.35
932.56	227.27
932.86	227.27
933.16	227.28
933.46	227.27
933.76	227.24
934.06	227.26
934.36	227.29
934.66	227.26
934.96	227.26
935.26	227.27
935.56	227.24
935.86	227.27
936.16	227.26
936.46	227.24
936.76	227.26
937.06	227.26
937.36	227.25
937.66	227.23
937.96	227.24
938.26	227.19
938.56	227.18
938.86	227.23
939.16	227.26
939.46	227.24
939.76	227.23
940.06	227.23
940.35	227.22
940.65	227.15
940.95	227.17
941.25	227.14
941.55	227.13
941.85	227.17
942.15	227.15
942.45	227.15
942.75	227.17
943.04	227.17
943.34	227.18
943.64	227.18
943.94	227.18
944.24	227.16
944.54	227.16
944.84	227.15
945.13	227.14
945.43	227.13
945.73	227.13
946.03	227.12
946.33	227.11
946.62	227.10
946.92	227.12
947.22	227.13
947.52	227.16
947.82	227.13
948.11	227.11
948.41	227.12
948.71	227.09
949.01	227.06
949.31	227.05
949.60	227.02
949.90	227.04
950.20	227.05
950.50	227.06
950.79	227.06
951.09	227.08
951.39	227.07
951.69	227.04
951.98	227.06
952.28	227.09
952.58	227.06
952.87	227.02
953.17	227.01
953.47	227.03
953.76	227.02
954.06	227.03
954.36	227.02
954.66	227.00
954.95	227.07
955.25	227.07
955.55	227.08
955.84	227.07
956.14	227.04
956.44	227.02
956.73	227.02
957.03	227.04
957.32	227.06
957.62	227.05
957.92	227.09
958.21	227.08
958.51	227.17
958.81	227.20
959.10	227.24
959.40	227.25
959.69	227.21
959.99	227.21
960.29	227.21
960.58	227.23
960.88	227.27
961.17	227.25
961.47	227.30
961.76	227.30
962.06	227.31
962.36	227.30
962.65	227.31
962.95	227.31
963.24	227.31
963.54	227.29
963.83	227.27
964.13	227.21
964.42	227.17
964.72	227.10
965.01	227.11
965.31	227.10
965.60	227.10
965.90	227.17
966.19	227.14
966.49	227.16
966.78	227.11
967.08	227.13
967.37	227.12
967.67	227.07
967.96	227.09
968.26	227.08
968.55	227.11
968.85	227.12
969.14	227.12
969.43	227.08
969.73	227.08
970.02	227.11
970.32	227.16
970.61	227.16
970.91	227.14
971.20	227.10
971.49	227.08
971.79	227.08
972.08	227.01
972.38	227.04
972.67	227.03
972.96	227.05
973.26	227.03
973.55	227.05
973.85	227.04
974.14	227.02
974.43	227.01
974.73	226.98
975.02	226.96
975.31	226.95
975.61	226.96
975.90	226.95
976.19	226.93
976.49	226.94
976.78	226.97
977.07	226.97
977.37	227.01
977.66	227.03
977.95	227.04
978.24	227.03
978.54	227.05
978.83	227.06
979.12	227.07
979.42	227.04
979.71	227.03
980.00	227.01
980.29	227.02
980.59	227.01
980.88	227.08
981.17	227.11
981.46	227.14
981.76	227.17
982.05	227.18
982.34	227.19
982.63	227.17
982.93	227.16
983.22	227.19
983.51	227.19
983.80	227.20
984.09	227.23
984.39	227.27
984.68	227.27
984.97	227.27
985.26	227.26
985.55	227.30
985.85	227.26
986.14	227.30
986.43	227.33
986.72	227.35
987.01	227.31
987.30	227.28
987.59	227.27
987.89	227.26
988.18	227.25
988.47	227.27
988.76	227.27
989.05	227.25
989.34	227.21
989.63	227.22
989.92	227.21
990.22	227.15
990.51	227.14
990.80	227.12
991.09	227.16
991.38	227.15
991.67	227.11
991.96	227.14
992.25	227.14
992.54	227.12
992.83	227.12
993.12	227.10
993.41	227.12
993.70	227.16
993.99	227.18
994.28	227.21
994.58	227.21
994.87	227.22
995.16	227.21
995.45	227.23
995.74	227.18
996.03	227.22
996.32	227.27
996.61	227.25
996.90	227.24
997.19	227.20
997.48	227.21
997.77	227.22
998.06	227.16
998.34	227.15
998.63	227.13
998.92	227.13
999.21	227.17
999.50	227.16
999.79	227.11
1000.08	227.08
1000.37	227.04
1000.66	227.02
1000.95	227.03
1001.24	227.04
1001.53	227.04
1001.82	227.07
1002.11	227.02
1002.40	226.99
1002.68	227.03
1002.97	227.10
1003.26	227.08
1003.55	227.05
1003.84	227.06
1004.13	227.11
1004.42	227.13
1004.71	227.15
1004.99	227.17
1005.28	227.18
1005.57	227.18
1005.86	227.20
1006.15	227.18
1006.44	227.18
1006.72	227.18
1007.01	227.17
1007.30	227.18
1007.59	227.14
1007.88	227.11
1008.17	227.14
1008.45	227.13
1008.74	227.05
1009.03	227.01
1009.32	227.03
1009.60	227.05
1009.89	227.04
1010.18	227.01
1010.47	227.01
1010.76	226.98
1011.04	226.93
1011.33	226.90
1011.62	226.89
1011.91	226.90
1012.19	226.95
1012.48	226.95
1012.77	226.95
1013.05	227.00
1013.34	226.97
1013.63	226.99
1013.92	227.03
1014.20	227.04
1014.49	227.01
1014.78	227.02
1015.06	227.02
1015.35	227.00
1015.64	227.00
1015.92	227.00
1016.21	227.03
1016.50	227.01
1016.78	227.01
1017.07	227.04
1017.36	227.04
1017.64	227.04
1017.93	227.05
1018.22	227.02
1018.50	227.01
1018.79	227.01
1019.08	226.93
1019.36	226.99
1019.65	226.97
1019.93	226.98
1020.22	226.98
1020.51	227.07
1020.79	227.07
1021.08	227.01
1021.36	226.70
1021.65	227.04
1021.94	226.66
1022.22	227.51
1022.51	226.49
1022.79	227.83
1023.08	227.23
1023.36	228.07
1023.65	226.71
>>>>>End Processed Spectral Data<<<<<
