SpectraSuite Data File
++++++++++++++++++++++++++++++++++++
Date: Fri Feb 01 15:27:04 EST 2013
User: group
Dark Spectrum Present: No
Reference Spectrum Present: No
Number of Sampled Component Spectra: 1
Spectrometers: USB2E7196
Integration Time (usec): 35000 (USB2E7196)
Spectra Averaged: 100 (USB2E7196)
Boxcar Smoothing: 10 (USB2E7196)
Correct for Electrical Dark: No (USB2E7196)
Strobe/Lamp Enabled: No (USB2E7196)
Correct for Detector Non-linearity: No (USB2E7196)
Correct for Stray Light: No (USB2E7196)
Number of Pixels in Processed Spectrum: 2048
>>>>>Begin Processed Spectral Data<<<<<
339.09	0.00
339.48	215.19
339.86	216.92
340.24	218.22
340.63	219.78
341.01	221.96
341.39	222.22
341.78	223.27
342.16	224.70
342.54	224.73
342.93	213.47
343.31	224.25
343.69	224.77
344.07	225.21
344.46	225.63
344.84	225.98
345.22	226.17
345.60	226.40
345.99	226.60
346.37	226.72
346.75	226.82
347.13	226.87
347.52	226.90
347.90	226.97
348.28	227.05
348.66	227.07
349.05	227.04
349.43	227.10
349.81	227.13
350.19	227.18
350.57	227.23
350.96	227.31
351.34	227.40
351.72	227.49
352.10	227.58
352.48	227.64
352.87	227.68
353.25	227.80
353.63	227.87
354.01	227.94
354.39	228.01
354.77	228.09
355.15	228.20
355.54	228.29
355.92	228.29
356.30	228.35
356.68	228.51
357.06	228.57
357.44	228.60
357.82	228.64
358.20	228.69
358.58	228.75
358.97	228.83
359.35	228.92
359.73	229.03
360.11	229.10
360.49	229.14
360.87	229.20
361.25	229.23
361.63	229.31
362.01	229.31
362.39	229.35
362.77	229.38
363.15	229.39
363.53	229.41
363.91	229.45
364.29	229.45
364.67	229.33
365.05	229.35
365.43	229.35
365.81	229.38
366.19	229.44
366.57	229.50
366.95	229.46
367.33	229.41
367.71	229.33
368.09	229.30
368.47	229.32
368.85	229.28
369.23	229.31
369.61	229.24
369.99	229.27
370.37	229.23
370.75	229.22
371.13	229.16
371.51	229.10
371.89	229.05
372.27	229.02
372.65	229.01
373.03	228.95
373.41	228.90
373.78	228.84
374.16	228.71
374.54	228.60
374.92	228.55
375.30	228.48
375.68	228.43
376.06	228.36
376.44	228.24
376.82	228.20
377.19	228.13
377.57	228.07
377.95	227.98
378.33	227.91
378.71	227.82
379.09	227.78
379.47	227.73
379.84	227.66
380.22	227.57
380.60	227.50
380.98	227.42
381.36	227.36
381.73	227.28
382.11	227.26
382.49	227.19
382.87	227.10
383.25	227.01
383.62	227.08
384.00	227.01
384.38	226.96
384.76	226.90
385.13	226.85
385.51	226.80
385.89	226.70
386.27	226.64
386.64	226.58
387.02	226.53
387.40	226.46
387.78	226.44
388.15	226.39
388.53	226.34
388.91	226.31
389.29	226.28
389.66	226.27
390.04	226.21
390.42	226.23
390.79	226.24
391.17	226.25
391.55	226.10
391.92	226.13
392.30	226.15
392.68	226.14
393.05	226.14
393.43	226.14
393.81	226.20
394.18	226.21
394.56	226.23
394.94	226.27
395.31	226.31
395.69	226.36
396.06	226.44
396.44	226.49
396.82	226.52
397.19	226.63
397.57	226.68
397.95	226.75
398.32	226.77
398.70	226.84
399.07	226.91
399.45	226.97
399.82	227.04
400.20	227.11
400.58	227.18
400.95	227.24
401.33	227.33
401.70	227.47
402.08	227.58
402.45	227.69
402.83	227.80
403.20	227.95
403.58	228.05
403.95	228.17
404.33	228.29
404.71	228.44
405.08	228.60
405.46	228.76
405.83	228.92
406.21	229.10
406.58	229.28
406.96	229.44
407.33	229.65
407.70	229.86
408.08	230.12
408.45	230.35
408.83	230.61
409.20	230.82
409.58	231.00
409.95	231.30
410.33	231.58
410.70	231.84
411.08	232.12
411.45	232.41
411.82	232.71
412.20	233.08
412.57	233.51
412.95	233.80
413.32	234.18
413.69	234.59
414.07	235.02
414.44	235.47
414.82	235.95
415.19	236.47
415.56	237.03
415.94	237.59
416.31	238.23
416.68	238.85
417.06	239.59
417.43	240.27
417.81	241.00
418.18	241.75
418.55	242.55
418.93	243.41
419.30	244.32
419.67	245.30
420.04	246.26
420.42	247.23
420.79	248.41
421.16	249.58
421.54	250.77
421.91	251.97
422.28	253.21
422.66	254.53
423.03	255.85
423.40	257.13
423.77	258.53
424.15	259.94
424.52	261.43
424.89	263.04
425.26	264.59
425.64	266.03
426.01	267.64
426.38	269.34
426.75	270.99
427.13	272.75
427.50	274.52
427.87	276.38
428.24	278.26
428.61	279.98
428.99	281.91
429.36	284.03
429.73	286.12
430.10	288.17
430.47	290.25
430.85	292.35
431.22	294.64
431.59	297.04
431.96	299.29
432.33	301.78
432.70	304.16
433.08	307.02
433.45	309.65
433.82	312.27
434.19	315.16
434.56	317.98
434.93	320.63
435.30	323.26
435.68	326.16
436.05	329.01
436.42	331.86
436.79	334.39
437.16	337.09
437.53	339.94
437.90	342.70
438.27	345.42
438.64	348.30
439.01	350.89
439.38	353.13
439.75	355.35
440.13	357.83
440.50	360.13
440.87	361.98
441.24	363.97
441.61	366.12
441.98	367.60
442.35	369.39
442.72	371.29
443.09	373.07
443.46	374.06
443.83	374.61
444.20	375.10
444.57	376.01
444.94	376.29
445.31	376.54
445.68	376.97
446.05	377.03
446.42	376.65
446.79	376.23
447.16	375.75
447.53	375.41
447.90	374.23
448.27	373.07
448.64	371.46
449.01	370.25
449.37	368.30
449.74	366.40
450.11	364.14
450.48	361.62
450.85	359.10
451.22	356.94
451.59	354.89
451.96	352.93
452.33	350.26
452.70	347.89
453.07	345.09
453.43	342.16
453.80	339.43
454.17	336.74
454.54	334.16
454.91	331.44
455.28	328.76
455.65	326.31
456.02	323.85
456.38	321.69
456.75	319.06
457.12	316.81
457.49	314.60
457.86	312.44
458.23	310.62
458.59	308.57
458.96	306.50
459.33	304.69
459.70	302.86
460.07	301.35
460.43	299.64
460.80	298.07
461.17	296.60
461.54	295.11
461.91	293.66
462.27	292.23
462.64	290.96
463.01	289.59
463.38	288.27
463.74	286.92
464.11	285.81
464.48	284.77
464.85	283.69
465.21	282.82
465.58	281.85
465.95	280.72
466.32	279.77
466.68	278.90
467.05	277.97
467.42	277.03
467.78	276.09
468.15	275.21
468.52	274.54
468.88	273.69
469.25	272.93
469.62	272.32
469.98	271.62
470.35	271.00
470.72	270.42
471.08	269.73
471.45	269.15
471.82	268.55
472.18	267.93
472.55	267.44
472.92	266.85
473.28	266.42
473.65	265.95
474.02	265.52
474.38	265.15
474.75	264.83
475.11	264.48
475.48	264.22
475.85	263.95
476.21	263.67
476.58	263.47
476.94	263.32
477.31	263.09
477.67	262.98
478.04	262.86
478.41	262.77
478.77	262.85
479.14	262.81
479.50	262.80
479.87	262.88
480.23	262.97
480.60	263.07
480.96	263.14
481.33	263.37
481.69	263.58
482.06	263.73
482.42	263.93
482.79	264.20
483.15	264.53
483.52	264.89
483.88	265.28
484.25	265.66
484.61	266.07
484.98	266.54
485.34	267.07
485.71	267.68
486.07	268.26
486.44	268.82
486.80	269.52
487.17	270.29
487.53	271.10
487.90	271.94
488.26	272.88
488.62	273.89
488.99	274.84
489.35	275.88
489.72	276.99
490.08	278.19
490.44	279.44
490.81	280.74
491.17	282.11
491.54	283.56
491.90	285.08
492.26	286.72
492.63	288.47
492.99	290.25
493.36	292.13
493.72	294.18
494.08	296.30
494.45	298.52
494.81	300.84
495.17	303.25
495.54	305.81
495.90	308.50
496.26	311.29
496.63	314.22
496.99	317.35
497.35	320.64
497.72	324.03
498.08	327.54
498.44	331.24
498.80	335.18
499.17	339.20
499.53	343.39
499.89	347.78
500.26	352.29
500.62	356.91
500.98	361.86
501.34	366.98
501.71	372.30
502.07	377.78
502.43	383.36
502.79	389.24
503.16	395.32
503.52	401.61
503.88	408.02
504.24	414.74
504.60	421.63
504.97	428.77
505.33	436.08
505.69	443.73
506.05	451.52
506.41	459.37
506.78	467.53
507.14	475.99
507.50	484.70
507.86	493.67
508.22	502.90
508.59	512.13
508.95	521.74
509.31	531.53
509.67	541.59
510.03	551.91
510.39	562.45
510.75	573.29
511.12	584.23
511.48	595.52
511.84	606.94
512.20	618.48
512.56	630.41
512.92	642.58
513.28	654.94
513.64	667.46
514.00	680.25
514.37	693.22
514.73	706.29
515.09	719.34
515.45	732.72
515.81	746.37
516.17	760.39
516.53	774.50
516.89	788.67
517.25	802.96
517.61	817.46
517.97	831.92
518.33	846.35
518.69	861.21
519.05	876.33
519.41	891.57
519.77	907.20
520.13	922.67
520.49	938.14
520.85	953.60
521.21	969.30
521.57	985.57
521.93	1001.51
522.29	1018.02
522.65	1034.35
523.01	1050.68
523.37	1066.73
523.73	1082.97
524.09	1099.04
524.45	1115.50
524.81	1132.24
525.17	1149.11
525.53	1166.12
525.89	1182.97
526.25	1199.77
526.61	1216.24
526.97	1233.02
527.33	1249.50
527.68	1266.27
528.04	1282.79
528.40	1299.50
528.76	1316.61
529.12	1333.25
529.48	1350.17
529.84	1366.17
530.20	1382.82
530.56	1399.86
530.91	1417.38
531.27	1434.16
531.63	1450.70
531.99	1467.37
532.35	1483.26
532.71	1499.20
533.07	1515.50
533.42	1531.40
533.78	1547.43
534.14	1563.61
534.50	1578.95
534.86	1594.80
535.21	1609.89
535.57	1625.96
535.93	1641.51
536.29	1656.36
536.65	1671.47
537.00	1686.22
537.36	1701.61
537.72	1716.39
538.08	1730.75
538.44	1744.54
538.79	1758.45
539.15	1772.26
539.51	1785.95
539.87	1800.46
540.22	1814.33
540.58	1828.19
540.94	1841.83
541.29	1854.89
541.65	1867.72
542.01	1881.11
542.37	1893.47
542.72	1905.92
543.08	1917.65
543.44	1930.14
543.79	1941.34
544.15	1952.35
544.51	1964.03
544.87	1975.04
545.22	1985.69
545.58	1996.04
545.94	2005.85
546.29	2015.90
546.65	2025.65
547.01	2034.79
547.36	2043.52
547.72	2052.04
548.07	2059.84
548.43	2068.03
548.79	2076.13
549.14	2083.68
549.50	2091.14
549.86	2099.01
550.21	2106.47
550.57	2113.63
550.92	2120.21
551.28	2127.40
551.64	2134.56
551.99	2141.12
552.35	2147.24
552.70	2153.47
553.06	2159.41
553.41	2165.79
553.77	2171.66
554.13	2177.76
554.48	2184.07
554.84	2189.46
555.19	2194.71
555.55	2199.88
555.90	2204.24
556.26	2208.96
556.61	2213.81
556.97	2217.86
557.32	2221.96
557.68	2226.13
558.03	2230.50
558.39	2234.37
558.74	2239.07
559.10	2242.83
559.45	2246.34
559.81	2250.71
560.16	2254.58
560.52	2257.88
560.87	2261.34
561.23	2264.05
561.58	2267.23
561.94	2269.75
562.29	2272.15
562.64	2274.82
563.00	2277.53
563.35	2281.20
563.71	2284.51
564.06	2287.66
564.42	2290.43
564.77	2292.93
565.12	2295.10
565.48	2296.93
565.83	2298.52
566.19	2299.63
566.54	2300.56
566.89	2301.78
567.25	2302.30
567.60	2303.58
567.96	2305.19
568.31	2306.00
568.66	2307.03
569.02	2307.51
569.37	2307.85
569.72	2308.59
570.08	2308.64
570.43	2308.48
570.78	2307.72
571.14	2306.06
571.49	2304.65
571.84	2304.35
572.20	2303.03
572.55	2301.91
572.90	2300.43
573.26	2299.04
573.61	2297.46
573.96	2295.55
574.31	2292.48
574.67	2289.42
575.02	2285.61
575.37	2282.09
575.72	2278.10
576.08	2274.75
576.43	2271.38
576.78	2267.60
577.13	2264.56
577.49	2261.43
577.84	2257.92
578.19	2254.11
578.54	2250.35
578.90	2246.03
579.25	2240.53
579.60	2235.47
579.95	2230.44
580.30	2225.33
580.66	2220.11
581.01	2214.98
581.36	2210.03
581.71	2205.67
582.06	2201.09
582.42	2196.57
582.77	2191.21
583.12	2186.64
583.47	2181.73
583.82	2176.48
584.17	2171.01
584.53	2165.36
584.88	2159.51
585.23	2153.57
585.58	2147.94
585.93	2142.47
586.28	2137.61
586.63	2132.40
586.98	2127.23
587.34	2122.51
587.69	2117.47
588.04	2112.11
588.39	2106.35
588.74	2099.85
589.09	2093.71
589.44	2086.77
589.79	2080.66
590.14	2075.01
590.49	2068.32
590.84	2061.81
591.19	2055.77
591.54	2049.39
591.89	2041.74
592.25	2035.04
592.60	2027.86
592.95	2020.21
593.30	2012.84
593.65	2005.10
594.00	1997.94
594.35	1990.75
594.70	1982.54
595.05	1975.21
595.40	1967.92
595.75	1960.33
596.10	1954.03
596.45	1947.14
596.80	1940.98
597.15	1934.36
597.50	1927.17
597.85	1920.71
598.19	1914.09
598.54	1907.02
598.89	1900.32
599.24	1894.45
599.59	1887.61
599.94	1881.49
600.29	1875.25
600.64	1868.60
600.99	1861.15
601.34	1854.23
601.69	1847.23
602.04	1840.28
602.39	1832.92
602.74	1826.09
603.08	1819.45
603.43	1812.70
603.78	1805.43
604.13	1798.27
604.48	1790.98
604.83	1784.14
605.18	1777.09
605.53	1769.09
605.87	1760.80
606.22	1753.51
606.57	1745.65
606.92	1738.33
607.27	1731.01
607.62	1723.93
607.96	1716.54
608.31	1709.93
608.66	1702.29
609.01	1694.61
609.36	1687.12
609.70	1679.15
610.05	1670.96
610.40	1663.02
610.75	1654.62
611.10	1646.99
611.44	1638.70
611.79	1630.51
612.14	1621.80
612.49	1612.76
612.83	1604.41
613.18	1596.53
613.53	1588.46
613.88	1579.94
614.22	1571.63
614.57	1563.01
614.92	1554.96
615.27	1547.35
615.61	1538.93
615.96	1531.10
616.31	1523.59
616.65	1516.17
617.00	1508.66
617.35	1501.08
617.70	1492.80
618.04	1484.31
618.39	1476.05
618.74	1468.33
619.08	1460.09
619.43	1452.50
619.78	1445.51
620.12	1438.30
620.47	1430.71
620.82	1422.48
621.16	1414.96
621.51	1407.28
621.85	1399.61
622.20	1391.04
622.55	1382.80
622.89	1375.02
623.24	1367.23
623.59	1359.84
623.93	1352.23
624.28	1344.92
624.62	1337.34
624.97	1330.14
625.32	1323.41
625.66	1316.42
626.01	1309.15
626.35	1301.60
626.70	1293.75
627.04	1286.02
627.39	1278.26
627.73	1270.85
628.08	1263.89
628.43	1256.58
628.77	1249.26
629.12	1241.66
629.46	1234.53
629.81	1227.05
630.15	1219.82
630.50	1212.46
630.84	1204.21
631.19	1196.39
631.53	1188.91
631.88	1181.38
632.22	1173.89
632.57	1166.53
632.91	1158.92
633.26	1151.60
633.60	1144.34
633.95	1137.43
634.29	1130.50
634.64	1123.80
634.98	1116.41
635.32	1109.35
635.67	1102.85
636.01	1096.23
636.36	1089.53
636.70	1083.12
637.05	1076.61
637.39	1070.12
637.73	1063.66
638.08	1057.76
638.42	1051.76
638.77	1045.28
639.11	1038.62
639.45	1032.26
639.80	1025.60
640.14	1019.17
640.49	1012.53
640.83	1006.22
641.17	999.98
641.52	993.58
641.86	987.29
642.20	981.46
642.55	975.15
642.89	968.63
643.23	962.12
643.58	956.33
643.92	950.04
644.26	944.00
644.61	938.00
644.95	931.92
645.29	925.39
645.64	918.67
645.98	912.38
646.32	906.60
646.66	900.49
647.01	894.73
647.35	889.12
647.69	883.38
648.04	877.89
648.38	872.06
648.72	865.94
649.06	859.79
649.41	853.96
649.75	847.86
650.09	841.94
650.43	836.14
650.78	829.96
651.12	824.03
651.46	818.22
651.80	812.41
652.14	807.03
652.49	801.66
652.83	796.42
653.17	790.66
653.51	784.90
653.85	779.50
654.20	773.88
654.54	767.87
654.88	762.14
655.22	756.24
655.56	750.51
655.90	745.18
656.25	739.84
656.59	734.46
656.93	729.44
657.27	724.24
657.61	718.77
657.95	713.69
658.29	708.56
658.64	703.40
658.98	698.17
659.32	692.70
659.66	687.48
660.00	682.23
660.34	677.31
660.68	672.40
661.02	667.38
661.36	662.62
661.70	658.03
662.05	653.67
662.39	649.37
662.73	644.91
663.07	640.46
663.41	636.05
663.75	631.60
664.09	627.06
664.43	622.71
664.77	618.60
665.11	614.31
665.45	610.21
665.79	606.07
666.13	601.93
666.47	597.82
666.81	593.63
667.15	589.52
667.49	585.66
667.83	581.84
668.17	577.95
668.51	573.89
668.85	569.94
669.19	566.10
669.53	562.19
669.87	558.36
670.21	554.70
670.55	551.05
670.89	547.59
671.23	544.16
671.57	540.69
671.91	537.15
672.25	533.65
672.58	530.17
672.92	526.79
673.26	523.63
673.60	520.53
673.94	517.47
674.28	514.59
674.62	511.65
674.96	508.59
675.30	505.60
675.64	502.68
675.97	499.92
676.31	497.01
676.65	494.15
676.99	491.46
677.33	488.66
677.67	485.86
678.01	482.79
678.34	479.80
678.68	476.89
679.02	474.12
679.36	471.38
679.70	468.67
680.04	465.92
680.37	463.00
680.71	460.20
681.05	457.57
681.39	454.84
681.73	452.19
682.06	449.62
682.40	447.11
682.74	444.60
683.08	442.06
683.42	439.47
683.75	436.98
684.09	434.45
684.43	431.94
684.77	429.51
685.10	427.24
685.44	424.99
685.78	422.73
686.12	420.51
686.45	418.24
686.79	415.91
687.13	413.72
687.46	411.60
687.80	409.46
688.14	407.25
688.48	405.19
688.81	402.95
689.15	400.81
689.49	398.73
689.82	396.63
690.16	394.53
690.50	392.63
690.83	390.68
691.17	388.65
691.51	386.75
691.84	384.91
692.18	382.94
692.52	380.91
692.85	378.99
693.19	377.07
693.52	375.26
693.86	373.49
694.20	371.72
694.53	369.90
694.87	368.06
695.21	366.28
695.54	364.43
695.88	362.72
696.21	361.01
696.55	359.32
696.88	357.64
697.22	356.00
697.56	354.36
697.89	352.69
698.23	351.07
698.56	349.45
698.90	347.81
699.23	346.16
699.57	344.63
699.90	343.08
700.24	341.56
700.58	339.98
700.91	338.50
701.25	337.04
701.58	335.65
701.92	334.29
702.25	332.88
702.59	331.54
702.92	330.19
703.26	328.87
703.59	327.57
703.93	326.42
704.26	325.20
704.60	323.88
704.93	322.63
705.26	321.42
705.60	320.27
705.93	319.15
706.27	318.12
706.60	317.09
706.94	316.02
707.27	314.86
707.61	313.86
707.94	312.82
708.27	311.69
708.61	310.66
708.94	309.66
709.28	308.71
709.61	307.77
709.94	306.83
710.28	305.81
710.61	304.80
710.95	303.74
711.28	302.83
711.61	301.89
711.95	301.00
712.28	300.04
712.61	299.02
712.95	298.08
713.28	297.17
713.61	296.27
713.95	295.34
714.28	294.52
714.61	293.66
714.95	292.80
715.28	291.99
715.61	291.07
715.95	290.23
716.28	289.38
716.61	288.55
716.95	287.72
717.28	287.02
717.61	286.30
717.94	285.54
718.28	284.73
718.61	284.07
718.94	283.34
719.27	282.73
719.61	282.12
719.94	281.48
720.27	280.78
720.60	280.15
720.94	279.55
721.27	278.95
721.60	278.34
721.93	277.77
722.27	277.23
722.60	276.72
722.93	276.13
723.26	275.58
723.59	275.02
723.93	274.51
724.26	273.96
724.59	273.38
724.92	272.90
725.25	272.40
725.59	271.85
725.92	271.35
726.25	270.83
726.58	270.33
726.91	269.82
727.24	269.36
727.57	268.88
727.91	268.42
728.24	267.97
728.57	267.49
728.90	267.07
729.23	266.57
729.56	266.15
729.89	265.71
730.22	265.20
730.55	264.75
730.89	264.32
731.22	263.86
731.55	263.44
731.88	262.99
732.21	262.55
732.54	262.09
732.87	261.64
733.20	261.23
733.53	260.83
733.86	260.47
734.19	260.09
734.52	259.69
734.85	259.32
735.18	258.91
735.51	258.55
735.84	258.12
736.17	257.79
736.50	257.41
736.83	257.18
737.16	256.88
737.49	256.52
737.82	256.16
738.15	255.83
738.48	255.49
738.81	255.15
739.14	254.82
739.47	254.53
739.80	254.27
740.13	253.95
740.46	253.61
740.79	253.24
741.12	252.91
741.45	252.59
741.78	252.26
742.11	251.94
742.44	251.59
742.77	251.32
743.10	251.00
743.43	250.69
743.75	250.30
744.08	250.11
744.41	249.82
744.74	249.51
745.07	249.20
745.40	248.98
745.73	248.72
746.06	248.45
746.39	248.21
746.71	247.91
747.04	247.64
747.37	247.38
747.70	247.19
748.03	246.93
748.36	246.69
748.68	246.45
749.01	246.19
749.34	246.00
749.67	245.80
750.00	245.60
750.33	245.39
750.65	245.17
750.98	244.87
751.31	244.69
751.64	244.50
751.97	244.37
752.29	244.14
752.62	243.92
752.95	243.72
753.28	243.51
753.60	243.29
753.93	243.13
754.26	242.91
754.59	242.68
754.91	242.50
755.24	242.28
755.57	242.11
755.90	241.96
756.22	241.76
756.55	241.53
756.88	241.31
757.20	241.08
757.53	240.90
757.86	240.72
758.19	240.55
758.51	240.37
758.84	240.16
759.17	239.96
759.49	239.78
759.82	239.64
760.15	239.49
760.47	239.33
760.80	239.17
761.13	239.09
761.45	238.94
761.78	238.80
762.11	238.70
762.43	238.54
762.76	238.40
763.08	238.28
763.41	238.20
763.74	238.11
764.06	237.99
764.39	237.83
764.71	237.70
765.04	237.53
765.37	237.43
765.69	237.31
766.02	237.17
766.34	237.07
766.67	236.95
767.00	236.82
767.32	236.82
767.65	236.77
767.97	236.63
768.30	236.52
768.62	236.37
768.95	236.25
769.27	236.12
769.60	236.01
769.92	235.85
770.25	235.71
770.57	235.57
770.90	235.49
771.22	235.40
771.55	235.32
771.87	235.28
772.20	235.14
772.52	235.13
772.85	235.19
773.17	235.12
773.50	235.01
773.82	234.91
774.15	234.75
774.47	234.60
774.80	234.49
775.12	234.43
775.45	234.37
775.77	234.32
776.09	234.26
776.42	234.20
776.74	234.18
777.07	234.09
777.39	234.02
777.72	233.93
778.04	233.89
778.36	233.82
778.69	233.75
779.01	233.70
779.33	233.54
779.66	233.37
779.98	233.31
780.31	233.23
780.63	233.23
780.95	233.17
781.28	233.13
781.60	233.07
781.92	233.02
782.25	232.94
782.57	232.85
782.89	232.79
783.22	232.74
783.54	232.68
783.86	232.60
784.19	232.54
784.51	232.52
784.83	232.43
785.16	232.33
785.48	232.23
785.80	232.18
786.12	232.12
786.45	232.05
786.77	231.99
787.09	231.94
787.42	231.86
787.74	231.84
788.06	231.78
788.38	231.73
788.71	231.63
789.03	231.61
789.35	231.57
789.67	231.51
789.99	231.46
790.32	231.39
790.64	231.37
790.96	231.41
791.28	231.30
791.61	231.22
791.93	231.20
792.25	231.18
792.57	231.18
792.89	231.14
793.21	231.09
793.54	231.02
793.86	230.97
794.18	230.91
794.50	230.80
794.82	230.72
795.14	230.71
795.47	230.68
795.79	230.63
796.11	230.56
796.43	230.51
796.75	230.45
797.07	230.39
797.39	230.33
797.71	230.21
798.04	230.19
798.36	230.17
798.68	230.11
799.00	230.08
799.32	230.02
799.64	229.99
799.96	229.97
800.28	229.95
800.60	229.90
800.92	229.87
801.24	229.83
801.56	229.82
801.89	229.76
802.21	229.72
802.53	229.67
802.85	229.68
803.17	229.72
803.49	229.71
803.81	229.66
804.13	229.65
804.45	229.63
804.77	229.63
805.09	229.63
805.41	229.62
805.73	229.56
806.05	229.50
806.37	229.47
806.69	229.43
807.01	229.44
807.33	229.43
807.65	229.40
807.97	229.45
808.28	229.42
808.60	229.41
808.92	229.43
809.24	229.48
809.56	229.43
809.88	229.37
810.20	229.34
810.52	229.36
810.84	229.33
811.16	229.29
811.48	229.27
811.80	229.27
812.12	229.26
812.43	229.26
812.75	229.26
813.07	229.25
813.39	229.23
813.71	229.19
814.03	229.16
814.35	229.15
814.67	229.11
814.98	229.10
815.30	229.10
815.62	229.03
815.94	228.95
816.26	228.98
816.58	228.93
816.89	228.94
817.21	228.93
817.53	228.91
817.85	228.89
818.17	228.88
818.48	228.83
818.80	228.80
819.12	228.80
819.44	228.78
819.76	228.75
820.07	228.75
820.39	228.71
820.71	228.73
821.03	228.69
821.34	228.66
821.66	228.66
821.98	228.65
822.30	228.66
822.61	228.73
822.93	228.68
823.25	228.69
823.57	228.62
823.88	228.62
824.20	228.61
824.52	228.63
824.83	228.59
825.15	228.54
825.47	228.53
825.79	228.52
826.10	228.52
826.42	228.48
826.74	228.47
827.05	228.48
827.37	228.46
827.69	228.48
828.00	228.47
828.32	228.41
828.64	228.33
828.95	228.35
829.27	228.29
829.58	228.27
829.90	228.23
830.22	228.25
830.53	228.18
830.85	228.17
831.17	228.14
831.48	228.14
831.80	228.14
832.11	228.15
832.43	228.13
832.75	228.11
833.06	228.17
833.38	228.13
833.69	228.12
834.01	228.10
834.32	228.04
834.64	228.00
834.96	228.01
835.27	228.04
835.59	227.97
835.90	227.96
836.22	227.95
836.53	227.94
836.85	227.92
837.16	228.05
837.48	228.06
837.79	228.04
838.11	228.03
838.42	228.04
838.74	227.99
839.05	227.97
839.37	227.92
839.68	227.84
840.00	227.87
840.31	227.85
840.63	227.85
840.94	227.86
841.26	227.85
841.57	227.87
841.88	227.87
842.20	227.86
842.51	227.82
842.83	227.83
843.14	227.91
843.46	227.90
843.77	227.82
844.08	227.82
844.40	227.78
844.71	227.77
845.03	227.73
845.34	227.76
845.65	227.76
845.97	227.78
846.28	227.80
846.60	227.80
846.91	227.79
847.22	227.75
847.54	227.77
847.85	227.78
848.16	227.74
848.48	227.73
848.79	227.79
849.10	227.83
849.42	227.81
849.73	227.74
850.04	227.74
850.36	227.70
850.67	227.73
850.98	227.75
851.30	227.76
851.61	227.77
851.92	227.77
852.23	227.81
852.55	227.83
852.86	227.82
853.17	227.81
853.49	227.84
853.80	227.88
854.11	227.89
854.42	227.89
854.74	227.90
855.05	227.92
855.36	227.86
855.67	227.86
855.99	227.87
856.30	227.97
856.61	227.98
856.92	227.96
857.23	227.92
857.55	227.92
857.86	227.94
858.17	227.93
858.48	227.92
858.79	227.89
859.11	227.88
859.42	227.87
859.73	227.88
860.04	227.88
860.35	227.87
860.66	227.84
860.98	227.85
861.29	227.86
861.60	227.85
861.91	227.85
862.22	227.82
862.53	227.78
862.84	227.67
863.16	227.70
863.47	227.70
863.78	227.68
864.09	227.70
864.40	227.70
864.71	227.72
865.02	227.72
865.33	227.69
865.64	227.67
865.95	227.66
866.27	227.70
866.58	227.67
866.89	227.68
867.20	227.65
867.51	227.63
867.82	227.60
868.13	227.61
868.44	227.61
868.75	227.62
869.06	227.64
869.37	227.63
869.68	227.56
869.99	227.56
870.30	227.54
870.61	227.52
870.92	227.47
871.23	227.42
871.54	227.42
871.85	227.43
872.16	227.43
872.47	227.40
872.78	227.32
873.09	227.32
873.40	227.27
873.71	227.25
874.02	227.25
874.33	227.23
874.64	227.21
874.95	227.19
875.26	227.16
875.56	227.15
875.87	227.15
876.18	227.18
876.49	227.28
876.80	227.29
877.11	227.27
877.42	227.26
877.73	227.30
878.04	227.29
878.35	227.27
878.66	227.26
878.96	227.28
879.27	227.26
879.58	227.29
879.89	227.32
880.20	227.38
880.51	227.37
880.82	227.39
881.12	227.36
881.43	227.34
881.74	227.35
882.05	227.37
882.36	227.36
882.67	227.34
882.97	227.22
883.28	227.17
883.59	227.18
883.90	227.21
884.21	227.20
884.51	227.17
884.82	227.19
885.13	227.19
885.44	227.20
885.74	227.22
886.05	227.16
886.36	227.16
886.67	227.10
886.98	227.14
887.28	227.15
887.59	227.18
887.90	227.19
888.20	227.20
888.51	227.17
888.82	227.16
889.13	227.19
889.43	227.28
889.74	227.31
890.05	227.37
890.35	227.36
890.66	227.34
890.97	227.33
891.28	227.30
891.58	227.32
891.89	227.32
892.20	227.32
892.50	227.35
892.81	227.34
893.12	227.34
893.42	227.29
893.73	227.27
894.04	227.27
894.34	227.29
894.65	227.27
894.95	227.28
895.26	227.26
895.57	227.30
895.87	227.23
896.18	227.28
896.48	227.22
896.79	227.23
897.10	227.26
897.40	227.29
897.71	227.30
898.01	227.23
898.32	227.27
898.63	227.26
898.93	227.24
899.24	227.21
899.54	227.22
899.85	227.24
900.15	227.24
900.46	227.23
900.76	227.23
901.07	227.22
901.38	227.21
901.68	227.23
901.99	227.18
902.29	227.16
902.60	227.15
902.90	227.13
903.21	227.10
903.51	227.09
903.82	227.09
904.12	227.12
904.43	227.16
904.73	227.14
905.03	227.14
905.34	227.23
905.64	227.24
905.95	227.26
906.25	227.26
906.56	227.28
906.86	227.26
907.17	227.28
907.47	227.27
907.77	227.28
908.08	227.24
908.38	227.23
908.69	227.25
908.99	227.24
909.30	227.29
909.60	227.30
909.90	227.30
910.21	227.29
910.51	227.27
910.81	227.27
911.12	227.27
911.42	227.24
911.73	227.17
912.03	227.19
912.33	227.18
912.64	227.17
912.94	227.16
913.24	227.16
913.55	227.15
913.85	227.14
914.15	227.15
914.46	227.20
914.76	227.20
915.06	227.15
915.37	227.12
915.67	227.10
915.97	227.10
916.27	227.09
916.58	227.09
916.88	227.08
917.18	227.06
917.49	227.09
917.79	227.11
918.09	227.13
918.39	227.14
918.70	227.16
919.00	227.19
919.30	227.24
919.60	227.23
919.91	227.22
920.21	227.27
920.51	227.24
920.81	227.22
921.12	227.24
921.42	227.28
921.72	227.30
922.02	227.30
922.32	227.32
922.63	227.34
922.93	227.37
923.23	227.38
923.53	227.39
923.83	227.33
924.13	227.33
924.44	227.34
924.74	227.31
925.04	227.29
925.34	227.24
925.64	227.19
925.94	227.19
926.24	227.21
926.55	227.20
926.85	227.23
927.15	227.17
927.45	227.15
927.75	227.12
928.05	227.11
928.35	227.11
928.65	227.11
928.95	227.08
929.26	227.03
929.56	227.06
929.86	227.03
930.16	227.03
930.46	227.02
930.76	226.98
931.06	226.97
931.36	226.95
931.66	226.96
931.96	226.96
932.26	226.93
932.56	226.91
932.86	226.91
933.16	226.86
933.46	226.91
933.76	226.92
934.06	226.96
934.36	227.00
934.66	226.97
934.96	226.93
935.26	226.94
935.56	226.98
935.86	226.92
936.16	226.93
936.46	226.93
936.76	226.93
937.06	226.91
937.36	226.93
937.66	226.91
937.96	226.90
938.26	226.90
938.56	226.90
938.86	226.88
939.16	226.88
939.46	226.90
939.76	226.89
940.06	226.86
940.35	226.82
940.65	226.74
940.95	226.77
941.25	226.78
941.55	226.77
941.85	226.71
942.15	226.74
942.45	226.79
942.75	226.80
943.04	226.81
943.34	226.84
943.64	226.81
943.94	226.85
944.24	226.85
944.54	226.85
944.84	226.86
945.13	226.89
945.43	226.86
945.73	226.86
946.03	226.88
946.33	226.90
946.62	226.94
946.92	226.95
947.22	226.96
947.52	226.95
947.82	226.99
948.11	227.02
948.41	227.02
948.71	227.02
949.01	226.99
949.31	226.96
949.60	226.93
949.90	226.97
950.20	226.95
950.50	226.96
950.79	226.98
951.09	227.01
951.39	227.01
951.69	227.00
951.98	227.01
952.28	227.04
952.58	227.01
952.87	226.98
953.17	227.00
953.47	227.00
953.76	227.01
954.06	227.00
954.36	226.99
954.66	226.97
954.95	226.95
955.25	226.98
955.55	227.03
955.84	227.04
956.14	227.07
956.44	227.07
956.73	227.02
957.03	227.02
957.32	226.99
957.62	226.97
957.92	227.03
958.21	227.00
958.51	227.09
958.81	227.13
959.10	227.15
959.40	227.15
959.69	227.12
959.99	227.12
960.29	227.10
960.58	227.09
960.88	227.12
961.17	227.08
961.47	227.11
961.76	227.07
962.06	227.07
962.36	227.01
962.65	227.03
962.95	227.07
963.24	227.06
963.54	227.06
963.83	227.05
964.13	227.01
964.42	227.00
964.72	226.90
965.01	226.88
965.31	226.85
965.60	226.84
965.90	226.89
966.19	226.87
966.49	226.87
966.78	226.85
967.08	226.85
967.37	226.87
967.67	226.85
967.96	226.88
968.26	226.86
968.55	226.91
968.85	226.88
969.14	226.84
969.43	226.84
969.73	226.82
970.02	226.81
970.32	226.82
970.61	226.83
970.91	226.81
971.20	226.79
971.49	226.80
971.79	226.81
972.08	226.75
972.38	226.75
972.67	226.76
972.96	226.77
973.26	226.76
973.55	226.80
973.85	226.76
974.14	226.72
974.43	226.72
974.73	226.69
975.02	226.69
975.31	226.71
975.61	226.67
975.90	226.67
976.19	226.69
976.49	226.70
976.78	226.71
977.07	226.69
977.37	226.69
977.66	226.68
977.95	226.70
978.24	226.71
978.54	226.70
978.83	226.68
979.12	226.69
979.42	226.67
979.71	226.63
980.00	226.70
980.29	226.73
980.59	226.75
980.88	226.77
981.17	226.79
981.46	226.80
981.76	226.83
982.05	226.86
982.34	226.88
982.63	226.87
982.93	226.87
983.22	226.92
983.51	226.93
983.80	226.97
984.09	226.95
984.39	226.92
984.68	226.96
984.97	227.00
985.26	227.00
985.55	227.02
985.85	227.00
986.14	226.97
986.43	226.99
986.72	226.97
987.01	226.98
987.30	226.96
987.59	226.95
987.89	226.97
988.18	226.95
988.47	226.93
988.76	226.93
989.05	226.92
989.34	226.93
989.63	226.96
989.92	226.95
990.22	226.96
990.51	226.97
990.80	226.99
991.09	226.99
991.38	227.00
991.67	227.00
991.96	227.01
992.25	227.03
992.54	227.02
992.83	227.05
993.12	227.03
993.41	227.08
993.70	227.09
993.99	227.09
994.28	227.09
994.58	227.10
994.87	227.06
995.16	227.08
995.45	227.06
995.74	227.03
996.03	227.03
996.32	227.08
996.61	227.09
996.90	227.07
997.19	227.03
997.48	227.03
997.77	227.00
998.06	226.98
998.34	226.96
998.63	226.93
998.92	226.91
999.21	226.90
999.50	226.86
999.79	226.83
1000.08	226.85
1000.37	226.89
1000.66	226.89
1000.95	226.95
1001.24	226.92
1001.53	226.93
1001.82	226.90
1002.11	226.89
1002.40	226.86
1002.68	226.89
1002.97	226.95
1003.26	226.92
1003.55	226.89
1003.84	226.92
1004.13	226.95
1004.42	226.94
1004.71	226.92
1004.99	226.93
1005.28	226.95
1005.57	226.94
1005.86	226.94
1006.15	226.92
1006.44	226.88
1006.72	226.86
1007.01	226.83
1007.30	226.82
1007.59	226.80
1007.88	226.79
1008.17	226.78
1008.45	226.77
1008.74	226.71
1009.03	226.65
1009.32	226.70
1009.60	226.69
1009.89	226.67
1010.18	226.65
1010.47	226.64
1010.76	226.63
1011.04	226.62
1011.33	226.63
1011.62	226.65
1011.91	226.65
1012.19	226.65
1012.48	226.67
1012.77	226.67
1013.05	226.69
1013.34	226.73
1013.63	226.73
1013.92	226.76
1014.20	226.77
1014.49	226.79
1014.78	226.82
1015.06	226.79
1015.35	226.77
1015.64	226.80
1015.92	226.82
1016.21	226.81
1016.50	226.81
1016.78	226.85
1017.07	226.86
1017.36	226.84
1017.64	226.81
1017.93	226.81
1018.22	226.79
1018.50	226.80
1018.79	226.81
1019.08	226.79
1019.36	226.77
1019.65	226.76
1019.93	226.80
1020.22	226.79
1020.51	226.81
1020.79	226.81
1021.08	226.33
1021.36	227.22
1021.65	226.87
1021.94	226.68
1022.22	226.58
1022.51	226.57
1022.79	227.79
1023.08	226.80
1023.36	227.92
1023.65	226.78
>>>>>End Processed Spectral Data<<<<<
