SpectraSuite Data File
++++++++++++++++++++++++++++++++++++
Date: Fri Feb 01 17:20:26 EST 2013
User: group
Dark Spectrum Present: No
Reference Spectrum Present: No
Number of Sampled Component Spectra: 1
Spectrometers: USB2E7196
Integration Time (usec): 35000 (USB2E7196)
Spectra Averaged: 100 (USB2E7196)
Boxcar Smoothing: 10 (USB2E7196)
Correct for Electrical Dark: No (USB2E7196)
Strobe/Lamp Enabled: No (USB2E7196)
Correct for Detector Non-linearity: No (USB2E7196)
Correct for Stray Light: No (USB2E7196)
Number of Pixels in Processed Spectrum: 2048
>>>>>Begin Processed Spectral Data<<<<<
339.09	0.00
339.48	212.66
339.86	214.32
340.24	215.76
340.63	217.13
341.01	220.31
341.39	219.61
341.78	221.20
342.16	221.83
342.54	222.69
342.93	211.23
343.31	221.92
343.69	222.45
344.07	222.95
344.46	223.36
344.84	223.74
345.22	223.96
345.60	224.22
345.99	224.41
346.37	224.57
346.75	224.67
347.13	224.75
347.52	224.83
347.90	224.91
348.28	224.94
348.66	225.02
349.05	225.03
349.43	225.06
349.81	225.13
350.19	225.19
350.57	225.24
350.96	225.34
351.34	225.41
351.72	225.51
352.10	225.56
352.48	225.68
352.87	225.75
353.25	225.82
353.63	225.90
354.01	225.99
354.39	226.07
354.77	226.18
355.15	226.27
355.54	226.35
355.92	226.37
356.30	226.42
356.68	226.55
357.06	226.62
357.44	226.70
357.82	226.76
358.20	226.84
358.58	226.93
358.97	226.98
359.35	227.05
359.73	227.11
360.11	227.20
360.49	227.21
360.87	227.26
361.25	227.32
361.63	227.41
362.01	227.46
362.39	227.49
362.77	227.54
363.15	227.56
363.53	227.61
363.91	227.62
364.29	227.68
364.67	227.58
365.05	227.59
365.43	227.63
365.81	227.66
366.19	227.70
366.57	227.69
366.95	227.69
367.33	227.69
367.71	227.68
368.09	227.67
368.47	227.68
368.85	227.63
369.23	227.61
369.61	227.51
369.99	227.47
370.37	227.41
370.75	227.39
371.13	227.35
371.51	227.27
371.89	227.26
372.27	227.21
372.65	227.18
373.03	227.14
373.41	227.06
373.78	227.00
374.16	226.86
374.54	226.78
374.92	226.70
375.30	226.64
375.68	226.59
376.06	226.54
376.44	226.47
376.82	226.42
377.19	226.35
377.57	226.29
377.95	226.19
378.33	226.17
378.71	226.05
379.09	225.99
379.47	225.94
379.84	225.87
380.22	225.78
380.60	225.70
380.98	225.65
381.36	225.61
381.73	225.54
382.11	225.54
382.49	225.48
382.87	225.45
383.25	225.39
383.62	225.43
384.00	225.37
384.38	225.31
384.76	225.28
385.13	225.30
385.51	225.26
385.89	225.20
386.27	225.15
386.64	225.14
387.02	225.08
387.40	225.04
387.78	224.99
388.15	224.97
388.53	224.93
388.91	224.90
389.29	224.85
389.66	224.84
390.04	224.79
390.42	224.81
390.79	224.75
391.17	224.72
391.55	224.58
391.92	224.55
392.30	224.56
392.68	224.58
393.05	224.53
393.43	224.54
393.81	224.57
394.18	224.54
394.56	224.53
394.94	224.57
395.31	224.57
395.69	224.59
396.06	224.62
396.44	224.66
396.82	224.66
397.19	224.74
397.57	224.73
397.95	224.78
398.32	224.81
398.70	224.91
399.07	225.00
399.45	225.04
399.82	225.08
400.20	225.09
400.58	225.13
400.95	225.15
401.33	225.25
401.70	225.36
402.08	225.45
402.45	225.55
402.83	225.64
403.20	225.72
403.58	225.83
403.95	225.96
404.33	226.09
404.71	226.20
405.08	226.37
405.46	226.52
405.83	226.65
406.21	226.79
406.58	226.92
406.96	227.05
407.33	227.19
407.70	227.42
408.08	227.70
408.45	227.90
408.83	228.17
409.20	228.37
409.58	228.55
409.95	228.79
410.33	229.07
410.70	229.32
411.08	229.65
411.45	229.92
411.82	230.20
412.20	230.54
412.57	230.98
412.95	231.26
413.32	231.69
413.69	232.13
414.07	232.58
414.44	233.06
414.82	233.55
415.19	234.18
415.56	234.74
415.94	235.28
416.31	235.95
416.68	236.56
417.06	237.28
417.43	238.00
417.81	238.78
418.18	239.58
418.55	240.43
418.93	241.33
419.30	242.30
419.67	243.26
420.04	244.24
420.42	245.26
420.79	246.48
421.16	247.65
421.54	248.86
421.91	250.09
422.28	251.38
422.66	252.75
423.03	254.07
423.40	255.43
423.77	256.89
424.15	258.37
424.52	259.91
424.89	261.57
425.26	263.13
425.64	264.64
426.01	266.27
426.38	268.02
426.75	269.71
427.13	271.46
427.50	273.33
427.87	275.28
428.24	277.20
428.61	278.99
428.99	281.02
429.36	283.21
429.73	285.39
430.10	287.50
430.47	289.62
430.85	291.85
431.22	294.15
431.59	296.62
431.96	298.93
432.33	301.48
432.70	303.96
433.08	306.91
433.45	309.67
433.82	312.36
434.19	315.29
434.56	318.24
434.93	320.98
435.30	323.71
435.68	326.70
436.05	329.60
436.42	332.48
436.79	335.03
437.16	337.84
437.53	340.75
437.90	343.62
438.27	346.48
438.64	349.38
439.01	352.10
439.38	354.42
439.75	356.66
440.13	359.27
440.50	361.69
440.87	363.60
441.24	365.59
441.61	367.85
441.98	369.48
442.35	371.36
442.72	373.33
443.09	375.22
443.46	376.25
443.83	376.90
444.20	377.47
444.57	378.39
444.94	378.67
445.31	379.00
445.68	379.41
446.05	379.42
446.42	379.06
446.79	378.65
447.16	378.14
447.53	377.82
447.90	376.67
448.27	375.49
448.64	373.90
449.01	372.75
449.37	370.72
449.74	368.75
450.11	366.43
450.48	363.89
450.85	361.31
451.22	359.11
451.59	357.07
451.96	355.05
452.33	352.35
452.70	349.91
453.07	347.02
453.43	344.04
453.80	341.24
454.17	338.49
454.54	335.82
454.91	333.09
455.28	330.35
455.65	327.74
456.02	325.22
456.38	322.94
456.75	320.18
457.12	317.80
457.49	315.46
457.86	313.21
458.23	311.27
458.59	309.11
458.96	306.97
459.33	305.04
459.70	303.13
460.07	301.59
460.43	299.82
460.80	298.14
461.17	296.63
461.54	295.12
461.91	293.63
462.27	292.16
462.64	290.86
463.01	289.48
463.38	288.15
463.74	286.74
464.11	285.59
464.48	284.52
464.85	283.39
465.21	282.54
465.58	281.60
465.95	280.46
466.32	279.53
466.68	278.56
467.05	277.60
467.42	276.67
467.78	275.69
468.15	274.82
468.52	274.13
468.88	273.26
469.25	272.43
469.62	271.80
469.98	271.10
470.35	270.43
470.72	269.81
471.08	269.11
471.45	268.55
471.82	267.98
472.18	267.38
472.55	266.96
472.92	266.40
473.28	265.90
473.65	265.46
474.02	265.01
474.38	264.67
474.75	264.33
475.11	264.02
475.48	263.75
475.85	263.48
476.21	263.27
476.58	263.13
476.94	263.01
477.31	262.79
477.67	262.62
478.04	262.53
478.41	262.47
478.77	262.51
479.14	262.44
479.50	262.44
479.87	262.54
480.23	262.63
480.60	262.69
480.96	262.78
481.33	263.02
481.69	263.24
482.06	263.46
482.42	263.68
482.79	263.91
483.15	264.23
483.52	264.62
483.88	264.97
484.25	265.33
484.61	265.77
484.98	266.25
485.34	266.85
485.71	267.39
486.07	268.01
486.44	268.61
486.80	269.31
487.17	270.10
487.53	270.89
487.90	271.75
488.26	272.69
488.62	273.71
488.99	274.65
489.35	275.71
489.72	276.86
490.08	278.04
490.44	279.27
490.81	280.62
491.17	281.96
491.54	283.46
491.90	284.97
492.26	286.57
492.63	288.29
492.99	290.04
493.36	291.96
493.72	294.00
494.08	296.10
494.45	298.37
494.81	300.65
495.17	303.08
495.54	305.63
495.90	308.30
496.26	311.06
496.63	313.99
496.99	317.04
497.35	320.24
497.72	323.63
498.08	327.14
498.44	330.75
498.80	334.65
499.17	338.60
499.53	342.79
499.89	347.16
500.26	351.60
500.62	356.22
500.98	361.13
501.34	366.16
501.71	371.38
502.07	376.76
502.43	382.33
502.79	388.08
503.16	394.10
503.52	400.31
503.88	406.70
504.24	413.23
504.60	420.08
504.97	427.11
505.33	434.34
505.69	441.96
506.05	449.68
506.41	457.47
506.78	465.50
507.14	473.76
507.50	482.35
507.86	491.26
508.22	500.38
508.59	509.47
508.95	518.92
509.31	528.58
509.67	538.54
510.03	548.69
510.39	559.06
510.75	569.64
511.12	580.41
511.48	591.43
511.84	602.73
512.20	613.96
512.56	625.70
512.92	637.62
513.28	649.74
513.64	661.96
514.00	674.43
514.37	687.13
514.73	699.97
515.09	712.70
515.45	725.75
515.81	739.11
516.17	752.78
516.53	766.57
516.89	780.51
517.25	794.32
517.61	808.41
517.97	822.56
518.33	836.67
518.69	851.13
519.05	865.84
519.41	880.64
519.77	895.92
520.13	910.99
520.49	926.03
520.85	941.04
521.21	956.38
521.57	972.16
521.93	987.65
522.29	1003.66
522.65	1019.54
523.01	1035.29
523.37	1050.92
523.73	1066.74
524.09	1082.45
524.45	1098.34
524.81	1114.60
525.17	1130.94
525.53	1147.47
525.89	1163.95
526.25	1180.45
526.61	1196.46
526.97	1212.87
527.33	1228.95
527.68	1245.33
528.04	1261.49
528.40	1277.64
528.76	1294.41
529.12	1310.68
529.48	1327.16
529.84	1342.72
530.20	1359.02
530.56	1375.64
530.91	1392.59
531.27	1409.10
531.63	1425.28
531.99	1441.61
532.35	1457.34
532.71	1473.07
533.07	1489.00
533.42	1504.64
533.78	1520.35
534.14	1536.26
534.50	1551.36
534.86	1566.92
535.21	1581.78
535.57	1597.37
535.93	1612.74
536.29	1627.19
536.65	1642.01
537.00	1656.52
537.36	1671.77
537.72	1686.07
538.08	1700.43
538.44	1714.06
538.79	1727.72
539.15	1741.11
539.51	1754.45
539.87	1768.59
540.22	1782.10
540.58	1795.62
540.94	1808.61
541.29	1821.20
541.65	1833.70
542.01	1846.79
542.37	1859.10
542.72	1871.37
543.08	1883.19
543.44	1895.43
543.79	1906.63
544.15	1917.64
544.51	1929.17
544.87	1940.11
545.22	1950.96
545.58	1961.10
545.94	1970.93
546.29	1980.78
546.65	1990.79
547.01	2000.39
547.36	2009.25
547.72	2017.79
548.07	2025.93
548.43	2034.21
548.79	2042.29
549.14	2050.05
549.50	2057.30
549.86	2065.04
550.21	2072.52
550.57	2079.82
550.92	2086.71
551.28	2094.05
551.64	2101.25
551.99	2107.85
552.35	2114.16
552.70	2120.53
553.06	2126.72
553.41	2133.12
553.77	2139.28
554.13	2145.56
554.48	2151.75
554.84	2157.58
555.19	2163.00
555.55	2168.31
555.90	2173.18
556.26	2178.52
556.61	2183.42
556.97	2188.31
557.32	2192.77
557.68	2197.18
558.03	2201.63
558.39	2205.31
558.74	2210.16
559.10	2214.31
559.45	2218.45
559.81	2222.96
560.16	2227.10
560.52	2230.74
560.87	2234.52
561.23	2237.61
561.58	2240.69
561.94	2243.54
562.29	2246.00
562.64	2249.24
563.00	2252.18
563.35	2256.07
563.71	2259.61
564.06	2263.22
564.42	2266.32
564.77	2269.19
565.12	2272.01
565.48	2274.35
565.83	2276.93
566.19	2278.64
566.54	2279.79
566.89	2281.26
567.25	2282.24
567.60	2283.77
567.96	2285.77
568.31	2286.98
568.66	2288.46
569.02	2289.49
569.37	2290.25
569.72	2291.53
570.08	2291.95
570.43	2292.26
570.78	2292.20
571.14	2291.05
571.49	2290.00
571.84	2289.89
572.20	2289.29
572.55	2288.39
572.90	2287.16
573.26	2286.08
573.61	2284.70
573.96	2283.56
574.31	2281.03
574.67	2278.48
575.02	2275.25
575.37	2272.16
575.72	2268.89
576.08	2265.71
576.43	2262.64
576.78	2259.36
577.13	2256.46
577.49	2253.52
577.84	2250.44
578.19	2246.76
578.54	2243.51
578.90	2239.71
579.25	2234.56
579.60	2229.86
579.95	2225.20
580.30	2220.37
580.66	2215.31
581.01	2210.61
581.36	2205.79
581.71	2201.96
582.06	2197.92
582.42	2193.80
582.77	2188.88
583.12	2184.74
583.47	2180.52
583.82	2175.93
584.17	2171.00
584.53	2165.72
584.88	2160.54
585.23	2155.16
585.58	2149.97
585.93	2144.59
586.28	2139.92
586.63	2135.16
586.98	2130.33
587.34	2125.83
587.69	2121.16
588.04	2116.30
588.39	2110.79
588.74	2104.59
589.09	2098.57
589.44	2091.94
589.79	2085.91
590.14	2080.51
590.49	2073.80
590.84	2067.51
591.19	2061.78
591.54	2055.45
591.89	2048.52
592.25	2042.06
592.60	2034.97
592.95	2027.69
593.30	2020.57
593.65	2013.22
594.00	2006.15
594.35	1998.83
594.70	1990.92
595.05	1984.18
595.40	1976.95
595.75	1969.55
596.10	1963.57
596.45	1957.14
596.80	1951.12
597.15	1944.72
597.50	1937.80
597.85	1931.46
598.19	1924.84
598.54	1917.89
598.89	1911.30
599.24	1905.33
599.59	1898.67
599.94	1892.45
600.29	1886.11
600.64	1879.57
600.99	1872.32
601.34	1865.72
601.69	1858.77
602.04	1852.01
602.39	1844.50
602.74	1837.78
603.08	1831.36
603.43	1824.60
603.78	1817.10
604.13	1809.83
604.48	1802.79
604.83	1795.95
605.18	1789.14
605.53	1781.22
605.87	1773.10
606.22	1765.92
606.57	1758.05
606.92	1750.48
607.27	1743.41
607.62	1736.67
607.96	1729.47
608.31	1722.99
608.66	1715.46
609.01	1708.14
609.36	1700.68
609.70	1692.68
610.05	1684.61
610.40	1676.78
610.75	1668.42
611.10	1660.81
611.44	1652.23
611.79	1643.90
612.14	1635.11
612.49	1625.91
612.83	1617.50
613.18	1609.42
613.53	1601.24
613.88	1592.68
614.22	1584.35
614.57	1575.53
614.92	1567.40
615.27	1559.74
615.61	1551.16
615.96	1542.97
616.31	1534.99
616.65	1527.42
617.00	1519.95
617.35	1512.11
617.70	1503.79
618.04	1495.30
618.39	1486.95
618.74	1479.40
619.08	1471.13
619.43	1463.48
619.78	1456.39
620.12	1449.24
620.47	1441.48
620.82	1433.02
621.16	1425.32
621.51	1417.77
621.85	1410.08
622.20	1401.44
622.55	1392.88
622.89	1384.90
623.24	1377.09
623.59	1369.64
623.93	1362.03
624.28	1354.61
624.62	1347.14
624.97	1339.75
625.32	1332.82
625.66	1325.71
626.01	1318.45
626.35	1311.10
626.70	1303.17
627.04	1295.47
627.39	1287.45
627.73	1279.95
628.08	1273.04
628.43	1265.93
628.77	1258.51
629.12	1250.92
629.46	1243.63
629.81	1236.10
630.15	1228.79
630.50	1221.39
630.84	1213.28
631.19	1205.24
631.53	1197.56
631.88	1189.86
632.22	1182.27
632.57	1174.82
632.91	1167.11
633.26	1159.68
633.60	1152.10
633.95	1144.97
634.29	1137.84
634.64	1131.13
634.98	1123.71
635.32	1116.56
635.67	1109.66
636.01	1102.80
636.36	1095.92
636.70	1089.32
637.05	1082.75
637.39	1076.28
637.73	1069.74
638.08	1063.74
638.42	1057.66
638.77	1051.18
639.11	1044.60
639.45	1038.07
639.80	1031.46
640.14	1025.07
640.49	1018.48
640.83	1012.10
641.17	1005.97
641.52	999.55
641.86	992.98
642.20	987.09
642.55	980.63
642.89	974.21
643.23	967.66
643.58	961.89
643.92	955.58
644.26	949.57
644.61	943.43
644.95	937.37
645.29	930.75
645.64	923.95
645.98	917.61
646.32	911.57
646.66	905.51
647.01	899.74
647.35	894.01
647.69	888.05
648.04	882.51
648.38	876.63
648.72	870.68
649.06	864.70
649.41	858.75
649.75	852.78
650.09	846.79
650.43	840.94
650.78	834.79
651.12	828.95
651.46	823.09
651.80	817.40
652.14	811.90
652.49	806.55
652.83	801.38
653.17	795.69
653.51	790.10
653.85	784.66
654.20	778.90
654.54	772.86
654.88	767.15
655.22	761.24
655.56	755.41
655.90	749.87
656.25	744.55
656.59	739.22
656.93	734.14
657.27	728.99
657.61	723.55
657.95	718.38
658.29	713.15
658.64	707.82
658.98	702.35
659.32	696.90
659.66	691.67
660.00	686.39
660.34	681.37
660.68	676.37
661.02	671.33
661.36	666.63
661.70	662.10
662.05	657.70
662.39	653.35
662.73	648.85
663.07	644.45
663.41	640.02
663.75	635.51
664.09	630.96
664.43	626.50
664.77	622.47
665.11	618.21
665.45	614.02
665.79	610.01
666.13	605.98
666.47	601.81
666.81	597.62
667.15	593.41
667.49	589.52
667.83	585.65
668.17	581.68
668.51	577.54
668.85	573.47
669.19	569.55
669.53	565.65
669.87	561.80
670.21	558.07
670.55	554.37
670.89	550.89
671.23	547.37
671.57	543.86
671.91	540.33
672.25	536.77
672.58	533.29
672.92	529.88
673.26	526.64
673.60	523.46
673.94	520.34
674.28	517.38
674.62	514.40
674.96	511.26
675.30	508.26
675.64	505.39
675.97	502.56
676.31	499.70
676.65	496.77
676.99	494.05
677.33	491.17
677.67	488.34
678.01	485.29
678.34	482.37
678.68	479.44
679.02	476.51
679.36	473.69
679.70	470.97
680.04	468.09
680.37	465.26
680.71	462.47
681.05	459.78
681.39	457.09
681.73	454.39
682.06	451.86
682.40	449.36
682.74	446.78
683.08	444.22
683.42	441.52
683.75	439.00
684.09	436.37
684.43	433.86
684.77	431.36
685.10	428.97
685.44	426.62
685.78	424.32
686.12	422.00
686.45	419.72
686.79	417.41
687.13	415.19
687.46	412.93
687.80	410.70
688.14	408.44
688.48	406.33
688.81	404.11
689.15	401.90
689.49	399.69
689.82	397.53
690.16	395.39
690.50	393.41
690.83	391.42
691.17	389.40
691.51	387.44
691.84	385.57
692.18	383.66
692.52	381.69
692.85	379.69
693.19	377.81
693.52	375.92
693.86	374.03
694.20	372.24
694.53	370.46
694.87	368.58
695.21	366.73
695.54	364.90
695.88	363.11
696.21	361.40
696.55	359.68
696.88	357.96
697.22	356.27
697.56	354.65
697.89	353.00
698.23	351.43
698.56	349.79
698.90	348.19
699.23	346.48
699.57	344.89
699.90	343.37
700.24	341.80
700.58	340.23
700.91	338.75
701.25	337.32
701.58	335.90
701.92	334.53
702.25	333.16
702.59	331.79
702.92	330.46
703.26	329.13
703.59	327.83
703.93	326.61
704.26	325.40
704.60	324.08
704.93	322.80
705.26	321.52
705.60	320.36
705.93	319.15
706.27	318.11
706.60	317.02
706.94	315.92
707.27	314.79
707.61	313.71
707.94	312.66
708.27	311.49
708.61	310.41
708.94	309.43
709.28	308.41
709.61	307.39
709.94	306.44
710.28	305.41
710.61	304.44
710.95	303.34
711.28	302.42
711.61	301.48
711.95	300.55
712.28	299.64
712.61	298.65
712.95	297.70
713.28	296.79
713.61	295.88
713.95	294.94
714.28	294.06
714.61	293.23
714.95	292.41
715.28	291.55
715.61	290.70
715.95	289.80
716.28	288.95
716.61	288.12
716.95	287.25
717.28	286.50
717.61	285.71
717.94	284.97
718.28	284.11
718.61	283.34
718.94	282.65
719.27	281.95
719.61	281.29
719.94	280.60
720.27	279.87
720.60	279.23
720.94	278.59
721.27	277.98
721.60	277.37
721.93	276.75
722.27	276.21
722.60	275.61
722.93	275.02
723.26	274.47
723.59	273.88
723.93	273.32
724.26	272.73
724.59	272.17
724.92	271.64
725.25	271.13
725.59	270.63
725.92	270.07
726.25	269.51
726.58	269.01
726.91	268.55
727.24	268.06
727.57	267.55
727.91	267.02
728.24	266.56
728.57	266.05
728.90	265.52
729.23	264.98
729.56	264.54
729.89	264.08
730.22	263.58
730.55	263.13
730.89	262.67
731.22	262.20
731.55	261.76
731.88	261.32
732.21	260.89
732.54	260.44
732.87	260.01
733.20	259.64
733.53	259.20
733.86	258.78
734.19	258.38
734.52	258.01
734.85	257.70
735.18	257.29
735.51	256.92
735.84	256.58
736.17	256.24
736.50	255.85
736.83	255.57
737.16	255.25
737.49	254.89
737.82	254.57
738.15	254.25
738.48	253.90
738.81	253.55
739.14	253.23
739.47	252.87
739.80	252.56
740.13	252.20
740.46	251.87
740.79	251.51
741.12	251.20
741.45	250.85
741.78	250.49
742.11	250.21
742.44	249.90
742.77	249.57
743.10	249.27
743.43	248.98
743.75	248.62
744.08	248.49
744.41	248.23
744.74	247.93
745.07	247.68
745.40	247.44
745.73	247.23
746.06	246.94
746.39	246.68
746.71	246.40
747.04	246.14
747.37	245.90
747.70	245.68
748.03	245.45
748.36	245.22
748.68	245.01
749.01	244.74
749.34	244.47
749.67	244.27
750.00	244.06
750.33	243.88
750.65	243.63
750.98	243.26
751.31	243.02
751.64	242.83
751.97	242.66
752.29	242.41
752.62	242.12
752.95	241.88
753.28	241.70
753.60	241.49
753.93	241.33
754.26	241.12
754.59	240.90
754.91	240.66
755.24	240.44
755.57	240.24
755.90	240.07
756.22	239.91
756.55	239.71
756.88	239.52
757.20	239.31
757.53	239.14
757.86	238.96
758.19	238.87
758.51	238.71
758.84	238.44
759.17	238.29
759.49	238.17
759.82	238.06
760.15	237.91
760.47	237.76
760.80	237.63
761.13	237.54
761.45	237.39
761.78	237.32
762.11	237.20
762.43	237.06
762.76	236.93
763.08	236.79
763.41	236.65
763.74	236.52
764.06	236.36
764.39	236.23
764.71	236.11
765.04	235.96
765.37	235.80
765.69	235.70
766.02	235.59
766.34	235.45
766.67	235.29
767.00	235.17
767.32	235.13
767.65	235.03
767.97	234.86
768.30	234.78
768.62	234.58
768.95	234.45
769.27	234.30
769.60	234.20
769.92	234.09
770.25	234.00
770.57	233.86
770.90	233.74
771.22	233.64
771.55	233.51
771.87	233.37
772.20	233.29
772.52	233.29
772.85	233.31
773.17	233.22
773.50	233.11
773.82	232.97
774.15	232.80
774.47	232.63
774.80	232.58
775.12	232.48
775.45	232.40
775.77	232.34
776.09	232.27
776.42	232.17
776.74	232.09
777.07	231.98
777.39	231.92
777.72	231.83
778.04	231.75
778.36	231.69
778.69	231.61
779.01	231.54
779.33	231.35
779.66	231.14
779.98	231.04
780.31	231.00
780.63	231.03
780.95	230.99
781.28	230.93
781.60	230.83
781.92	230.76
782.25	230.69
782.57	230.62
782.89	230.55
783.22	230.49
783.54	230.42
783.86	230.36
784.19	230.32
784.51	230.33
784.83	230.28
785.16	230.21
785.48	230.17
785.80	230.10
786.12	230.02
786.45	229.99
786.77	229.95
787.09	229.90
787.42	229.80
787.74	229.75
788.06	229.69
788.38	229.64
788.71	229.58
789.03	229.54
789.35	229.54
789.67	229.45
789.99	229.38
790.32	229.31
790.64	229.26
790.96	229.24
791.28	229.13
791.61	229.08
791.93	229.05
792.25	229.01
792.57	229.06
792.89	229.03
793.21	229.01
793.54	228.99
793.86	228.91
794.18	228.87
794.50	228.81
794.82	228.76
795.14	228.75
795.47	228.70
795.79	228.67
796.11	228.55
796.43	228.55
796.75	228.54
797.07	228.51
797.39	228.50
797.71	228.41
798.04	228.39
798.36	228.35
798.68	228.27
799.00	228.23
799.32	228.12
799.64	228.11
799.96	228.07
800.28	228.02
800.60	228.03
800.92	228.03
801.24	227.99
801.56	227.96
801.89	227.91
802.21	227.90
802.53	227.84
802.85	227.88
803.17	227.90
803.49	227.83
803.81	227.79
804.13	227.74
804.45	227.69
804.77	227.66
805.09	227.64
805.41	227.60
805.73	227.57
806.05	227.54
806.37	227.47
806.69	227.45
807.01	227.43
807.33	227.38
807.65	227.32
807.97	227.30
808.28	227.25
808.60	227.24
808.92	227.21
809.24	227.25
809.56	227.22
809.88	227.13
810.20	227.14
810.52	227.18
810.84	227.16
811.16	227.15
811.48	227.11
811.80	227.13
812.12	227.11
812.43	227.11
812.75	227.09
813.07	227.08
813.39	227.06
813.71	227.02
814.03	226.98
814.35	226.95
814.67	226.91
814.98	226.90
815.30	226.85
815.62	226.81
815.94	226.73
816.26	226.76
816.58	226.75
816.89	226.74
817.21	226.71
817.53	226.70
817.85	226.71
818.17	226.71
818.48	226.66
818.80	226.68
819.12	226.65
819.44	226.63
819.76	226.61
820.07	226.59
820.39	226.59
820.71	226.60
821.03	226.59
821.34	226.59
821.66	226.59
821.98	226.59
822.30	226.59
822.61	226.65
822.93	226.57
823.25	226.57
823.57	226.55
823.88	226.56
824.20	226.53
824.52	226.50
824.83	226.49
825.15	226.46
825.47	226.41
825.79	226.42
826.10	226.40
826.42	226.38
826.74	226.39
827.05	226.37
827.37	226.34
827.69	226.32
828.00	226.29
828.32	226.27
828.64	226.23
828.95	226.26
829.27	226.22
829.58	226.17
829.90	226.17
830.22	226.15
830.53	226.06
830.85	226.05
831.17	226.04
831.48	226.01
831.80	226.00
832.11	226.00
832.43	225.97
832.75	225.94
833.06	226.01
833.38	225.99
833.69	225.96
834.01	225.93
834.32	225.92
834.64	225.92
834.96	225.95
835.27	225.94
835.59	225.88
835.90	225.85
836.22	225.89
836.53	225.85
836.85	225.83
837.16	225.92
837.48	225.90
837.79	225.93
838.11	225.94
838.42	225.95
838.74	225.92
839.05	225.87
839.37	225.85
839.68	225.77
840.00	225.71
840.31	225.71
840.63	225.73
840.94	225.75
841.26	225.69
841.57	225.66
841.88	225.66
842.20	225.68
842.51	225.65
842.83	225.59
843.14	225.66
843.46	225.64
843.77	225.59
844.08	225.57
844.40	225.51
844.71	225.51
845.03	225.50
845.34	225.50
845.65	225.50
845.97	225.51
846.28	225.50
846.60	225.49
846.91	225.48
847.22	225.45
847.54	225.43
847.85	225.49
848.16	225.46
848.48	225.44
848.79	225.44
849.10	225.46
849.42	225.50
849.73	225.40
850.04	225.39
850.36	225.35
850.67	225.35
850.98	225.36
851.30	225.33
851.61	225.28
851.92	225.30
852.23	225.33
852.55	225.32
852.86	225.33
853.17	225.36
853.49	225.39
853.80	225.42
854.11	225.42
854.42	225.45
854.74	225.44
855.05	225.45
855.36	225.42
855.67	225.43
855.99	225.45
856.30	225.54
856.61	225.56
856.92	225.57
857.23	225.60
857.55	225.62
857.86	225.64
858.17	225.68
858.48	225.65
858.79	225.64
859.11	225.68
859.42	225.65
859.73	225.65
860.04	225.64
860.35	225.61
860.66	225.60
860.98	225.58
861.29	225.59
861.60	225.57
861.91	225.63
862.22	225.60
862.53	225.58
862.84	225.51
863.16	225.55
863.47	225.59
863.78	225.59
864.09	225.57
864.40	225.56
864.71	225.59
865.02	225.63
865.33	225.63
865.64	225.61
865.95	225.65
866.27	225.72
866.58	225.70
866.89	225.71
867.20	225.72
867.51	225.70
867.82	225.70
868.13	225.75
868.44	225.71
868.75	225.72
869.06	225.71
869.37	225.68
869.68	225.66
869.99	225.61
870.30	225.60
870.61	225.60
870.92	225.63
871.23	225.60
871.54	225.58
871.85	225.59
872.16	225.62
872.47	225.61
872.78	225.56
873.09	225.56
873.40	225.57
873.71	225.54
874.02	225.55
874.33	225.55
874.64	225.51
874.95	225.53
875.26	225.47
875.56	225.45
875.87	225.48
876.18	225.46
876.49	225.54
876.80	225.52
877.11	225.51
877.42	225.48
877.73	225.46
878.04	225.44
878.35	225.45
878.66	225.42
878.96	225.39
879.27	225.37
879.58	225.35
879.89	225.34
880.20	225.38
880.51	225.34
880.82	225.35
881.12	225.35
881.43	225.31
881.74	225.33
882.05	225.34
882.36	225.33
882.67	225.34
882.97	225.26
883.28	225.26
883.59	225.22
883.90	225.22
884.21	225.25
884.51	225.26
884.82	225.19
885.13	225.19
885.44	225.20
885.74	225.21
886.05	225.24
886.36	225.21
886.67	225.14
886.98	225.20
887.28	225.18
887.59	225.17
887.90	225.17
888.20	225.19
888.51	225.20
888.82	225.20
889.13	225.16
889.43	225.23
889.74	225.20
890.05	225.23
890.35	225.21
890.66	225.17
890.97	225.18
891.28	225.21
891.58	225.19
891.89	225.16
892.20	225.14
892.50	225.12
892.81	225.13
893.12	225.14
893.42	225.10
893.73	225.12
894.04	225.11
894.34	225.12
894.65	225.10
894.95	225.06
895.26	225.03
895.57	225.09
895.87	224.99
896.18	225.04
896.48	225.03
896.79	225.01
897.10	225.03
897.40	225.00
897.71	224.99
898.01	225.00
898.32	225.04
898.63	225.02
898.93	225.02
899.24	225.02
899.54	225.00
899.85	225.02
900.15	224.99
900.46	225.01
900.76	225.01
901.07	225.04
901.38	225.04
901.68	225.06
901.99	225.04
902.29	225.06
902.60	225.04
902.90	225.06
903.21	225.09
903.51	225.10
903.82	225.12
904.12	225.12
904.43	225.11
904.73	225.08
905.03	225.07
905.34	225.16
905.64	225.13
905.95	225.12
906.25	225.11
906.56	225.10
906.86	225.11
907.17	225.11
907.47	225.06
907.77	225.07
908.08	225.05
908.38	225.04
908.69	225.05
908.99	225.08
909.30	225.09
909.60	225.07
909.90	225.10
910.21	225.09
910.51	225.10
910.81	225.13
911.12	225.13
911.42	225.13
911.73	225.04
912.03	225.08
912.33	225.10
912.64	225.11
912.94	225.12
913.24	225.09
913.55	225.07
913.85	225.06
914.15	225.06
914.46	225.06
914.76	225.06
915.06	225.07
915.37	225.03
915.67	224.99
915.97	224.99
916.27	224.96
916.58	224.94
916.88	224.95
917.18	224.91
917.49	224.98
917.79	225.01
918.09	225.03
918.39	225.02
918.70	225.05
919.00	225.04
919.30	225.05
919.60	225.06
919.91	225.06
920.21	225.11
920.51	225.10
920.81	225.10
921.12	225.08
921.42	225.06
921.72	225.07
922.02	225.08
922.32	225.08
922.63	225.13
922.93	225.15
923.23	225.13
923.53	225.14
923.83	225.05
924.13	225.07
924.44	225.05
924.74	225.06
925.04	225.08
925.34	225.10
925.64	225.10
925.94	225.09
926.24	225.16
926.55	225.12
926.85	225.12
927.15	225.13
927.45	225.14
927.75	225.13
928.05	225.15
928.35	225.11
928.65	225.13
928.95	225.10
929.26	225.10
929.56	225.12
929.86	225.12
930.16	225.13
930.46	225.09
930.76	225.07
931.06	225.03
931.36	224.97
931.66	224.95
931.96	224.94
932.26	224.96
932.56	224.90
932.86	224.91
933.16	224.94
933.46	224.92
933.76	224.90
934.06	224.92
934.36	224.93
934.66	224.93
934.96	224.92
935.26	224.90
935.56	224.87
935.86	224.82
936.16	224.82
936.46	224.79
936.76	224.80
937.06	224.82
937.36	224.82
937.66	224.87
937.96	224.88
938.26	224.84
938.56	224.81
938.86	224.79
939.16	224.82
939.46	224.79
939.76	224.83
940.06	224.82
940.35	224.80
940.65	224.77
940.95	224.78
941.25	224.75
941.55	224.74
941.85	224.74
942.15	224.75
942.45	224.78
942.75	224.78
943.04	224.80
943.34	224.80
943.64	224.80
943.94	224.72
944.24	224.71
944.54	224.73
944.84	224.75
945.13	224.77
945.43	224.75
945.73	224.75
946.03	224.71
946.33	224.72
946.62	224.73
946.92	224.72
947.22	224.75
947.52	224.75
947.82	224.78
948.11	224.79
948.41	224.80
948.71	224.79
949.01	224.82
949.31	224.78
949.60	224.77
949.90	224.80
950.20	224.83
950.50	224.82
950.79	224.85
951.09	224.84
951.39	224.85
951.69	224.84
951.98	224.88
952.28	224.91
952.58	224.93
952.87	224.93
953.17	224.97
953.47	224.95
953.76	224.97
954.06	224.95
954.36	224.92
954.66	224.89
954.95	224.90
955.25	224.89
955.55	224.94
955.84	224.94
956.14	224.96
956.44	224.98
956.73	224.96
957.03	224.97
957.32	224.99
957.62	224.99
957.92	224.97
958.21	224.97
958.51	225.08
958.81	225.07
959.10	225.07
959.40	225.08
959.69	225.09
959.99	225.07
960.29	225.07
960.58	225.10
960.88	225.13
961.17	225.13
961.47	225.15
961.76	225.13
962.06	225.14
962.36	225.08
962.65	225.08
962.95	225.06
963.24	225.01
963.54	224.99
963.83	224.97
964.13	224.97
964.42	224.92
964.72	224.79
965.01	224.78
965.31	224.76
965.60	224.74
965.90	224.77
966.19	224.73
966.49	224.72
966.78	224.66
967.08	224.65
967.37	224.63
967.67	224.59
967.96	224.61
968.26	224.60
968.55	224.64
968.85	224.62
969.14	224.62
969.43	224.63
969.73	224.62
970.02	224.58
970.32	224.61
970.61	224.59
970.91	224.56
971.20	224.51
971.49	224.48
971.79	224.44
972.08	224.38
972.38	224.41
972.67	224.40
972.96	224.44
973.26	224.39
973.55	224.44
973.85	224.45
974.14	224.40
974.43	224.40
974.73	224.40
975.02	224.39
975.31	224.41
975.61	224.40
975.90	224.38
976.19	224.41
976.49	224.43
976.78	224.46
977.07	224.48
977.37	224.52
977.66	224.58
977.95	224.59
978.24	224.60
978.54	224.63
978.83	224.64
979.12	224.62
979.42	224.67
979.71	224.62
980.00	224.61
980.29	224.64
980.59	224.64
980.88	224.66
981.17	224.67
981.46	224.65
981.76	224.66
982.05	224.70
982.34	224.70
982.63	224.70
982.93	224.71
983.22	224.72
983.51	224.73
983.80	224.74
984.09	224.77
984.39	224.78
984.68	224.76
984.97	224.75
985.26	224.76
985.55	224.75
985.85	224.76
986.14	224.81
986.43	224.79
986.72	224.80
987.01	224.76
987.30	224.78
987.59	224.80
987.89	224.82
988.18	224.77
988.47	224.76
988.76	224.74
989.05	224.74
989.34	224.73
989.63	224.77
989.92	224.77
990.22	224.76
990.51	224.75
990.80	224.79
991.09	224.81
991.38	224.85
991.67	224.84
991.96	224.86
992.25	224.86
992.54	224.88
992.83	224.87
993.12	224.87
993.41	224.87
993.70	224.91
993.99	224.94
994.28	224.98
994.58	225.02
994.87	225.05
995.16	225.06
995.45	225.05
995.74	225.01
996.03	225.00
996.32	225.00
996.61	225.01
996.90	224.96
997.19	224.94
997.48	224.92
997.77	224.90
998.06	224.87
998.34	224.82
998.63	224.81
998.92	224.79
999.21	224.80
999.50	224.77
999.79	224.69
1000.08	224.65
1000.37	224.62
1000.66	224.60
1000.95	224.53
1001.24	224.50
1001.53	224.52
1001.82	224.52
1002.11	224.48
1002.40	224.49
1002.68	224.54
1002.97	224.62
1003.26	224.62
1003.55	224.59
1003.84	224.60
1004.13	224.61
1004.42	224.62
1004.71	224.60
1004.99	224.61
1005.28	224.60
1005.57	224.62
1005.86	224.66
1006.15	224.65
1006.44	224.66
1006.72	224.69
1007.01	224.71
1007.30	224.73
1007.59	224.69
1007.88	224.67
1008.17	224.70
1008.45	224.65
1008.74	224.57
1009.03	224.54
1009.32	224.54
1009.60	224.55
1009.89	224.57
1010.18	224.57
1010.47	224.57
1010.76	224.58
1011.04	224.59
1011.33	224.67
1011.62	224.66
1011.91	224.65
1012.19	224.67
1012.48	224.67
1012.77	224.67
1013.05	224.72
1013.34	224.69
1013.63	224.70
1013.92	224.69
1014.20	224.67
1014.49	224.67
1014.78	224.71
1015.06	224.66
1015.35	224.64
1015.64	224.67
1015.92	224.69
1016.21	224.68
1016.50	224.69
1016.78	224.72
1017.07	224.71
1017.36	224.61
1017.64	224.60
1017.93	224.62
1018.22	224.58
1018.50	224.60
1018.79	224.61
1019.08	224.54
1019.36	224.57
1019.65	224.58
1019.93	224.62
1020.22	224.65
1020.51	224.73
1020.79	224.75
1021.08	224.23
1021.36	224.90
1021.65	224.89
1021.94	224.21
1022.22	224.74
1022.51	224.46
1022.79	225.30
1023.08	224.82
1023.36	226.05
1023.65	225.21
>>>>>End Processed Spectral Data<<<<<
