SpectraSuite Data File
++++++++++++++++++++++++++++++++++++
Date: Fri Feb 01 18:03:28 EST 2013
User: group
Dark Spectrum Present: No
Reference Spectrum Present: No
Number of Sampled Component Spectra: 1
Spectrometers: USB2E7196
Integration Time (usec): 35000 (USB2E7196)
Spectra Averaged: 100 (USB2E7196)
Boxcar Smoothing: 10 (USB2E7196)
Correct for Electrical Dark: No (USB2E7196)
Strobe/Lamp Enabled: No (USB2E7196)
Correct for Detector Non-linearity: No (USB2E7196)
Correct for Stray Light: No (USB2E7196)
Number of Pixels in Processed Spectrum: 2048
>>>>>Begin Processed Spectral Data<<<<<
339.09	0.00
339.48	212.60
339.86	214.27
340.24	215.66
340.63	217.11
341.01	219.58
341.39	219.40
341.78	221.27
342.16	222.09
342.54	222.13
342.93	211.11
343.31	221.80
343.69	222.31
344.07	222.75
344.46	223.16
344.84	223.53
345.22	223.75
345.60	224.01
345.99	224.17
346.37	224.30
346.75	224.43
347.13	224.45
347.52	224.51
347.90	224.58
348.28	224.62
348.66	224.67
349.05	224.69
349.43	224.75
349.81	224.83
350.19	224.90
350.57	224.94
350.96	225.03
351.34	225.09
351.72	225.22
352.10	225.35
352.48	225.46
352.87	225.52
353.25	225.62
353.63	225.65
354.01	225.72
354.39	225.84
354.77	225.93
355.15	226.07
355.54	226.16
355.92	226.19
356.30	226.29
356.68	226.45
357.06	226.51
357.44	226.56
357.82	226.62
358.20	226.69
358.58	226.78
358.97	226.83
359.35	226.92
359.73	227.01
360.11	227.07
360.49	227.14
360.87	227.19
361.25	227.27
361.63	227.38
362.01	227.48
362.39	227.50
362.77	227.56
363.15	227.58
363.53	227.59
363.91	227.65
364.29	227.66
364.67	227.59
365.05	227.65
365.43	227.70
365.81	227.75
366.19	227.84
366.57	227.85
366.95	227.86
367.33	227.85
367.71	227.85
368.09	227.87
368.47	227.85
368.85	227.85
369.23	227.83
369.61	227.80
369.99	227.78
370.37	227.78
370.75	227.83
371.13	227.78
371.51	227.75
371.89	227.70
372.27	227.69
372.65	227.65
373.03	227.62
373.41	227.53
373.78	227.46
374.16	227.35
374.54	227.28
374.92	227.24
375.30	227.18
375.68	227.10
376.06	227.06
376.44	226.97
376.82	226.91
377.19	226.85
377.57	226.81
377.95	226.73
378.33	226.65
378.71	226.50
379.09	226.46
379.47	226.38
379.84	226.33
380.22	226.24
380.60	226.16
380.98	226.10
381.36	226.03
381.73	225.97
382.11	225.91
382.49	225.85
382.87	225.78
383.25	225.73
383.62	225.79
384.00	225.71
384.38	225.68
384.76	225.64
385.13	225.62
385.51	225.56
385.89	225.50
386.27	225.48
386.64	225.49
387.02	225.41
387.40	225.39
387.78	225.39
388.15	225.37
388.53	225.30
388.91	225.27
389.29	225.25
389.66	225.18
390.04	225.15
390.42	225.14
390.79	225.13
391.17	225.09
391.55	224.96
391.92	224.92
392.30	224.90
392.68	224.86
393.05	224.84
393.43	224.85
393.81	224.84
394.18	224.81
394.56	224.81
394.94	224.84
395.31	224.81
395.69	224.83
396.06	224.86
396.44	224.90
396.82	224.88
397.19	224.97
397.57	225.01
397.95	225.04
398.32	225.09
398.70	225.12
399.07	225.22
399.45	225.28
399.82	225.35
400.20	225.39
400.58	225.48
400.95	225.52
401.33	225.58
401.70	225.74
402.08	225.84
402.45	225.94
402.83	226.07
403.20	226.22
403.58	226.30
403.95	226.44
404.33	226.60
404.71	226.75
405.08	226.90
405.46	227.07
405.83	227.25
406.21	227.40
406.58	227.58
406.96	227.73
407.33	227.94
407.70	228.16
408.08	228.52
408.45	228.81
408.83	229.11
409.20	229.38
409.58	229.63
409.95	229.93
410.33	230.23
410.70	230.55
411.08	230.89
411.45	231.29
411.82	231.67
412.20	232.11
412.57	232.66
412.95	233.11
413.32	233.64
413.69	234.22
414.07	234.80
414.44	235.42
414.82	236.07
415.19	236.81
415.56	237.55
415.94	238.25
416.31	239.06
416.68	239.90
417.06	240.86
417.43	241.75
417.81	242.79
418.18	243.85
418.55	244.96
418.93	246.15
419.30	247.39
419.67	248.65
420.04	249.95
420.42	251.29
420.79	252.86
421.16	254.42
421.54	255.97
421.91	257.60
422.28	259.31
422.66	261.13
423.03	262.87
423.40	264.68
423.77	266.64
424.15	268.61
424.52	270.60
424.89	272.77
425.26	274.87
425.64	276.84
426.01	279.03
426.38	281.32
426.75	283.62
427.13	285.95
427.50	288.41
427.87	290.96
428.24	293.47
428.61	295.89
428.99	298.50
429.36	301.37
429.73	304.21
430.10	306.95
430.47	309.74
430.85	312.66
431.22	315.71
431.59	318.83
431.96	321.87
432.33	325.19
432.70	328.42
433.08	332.24
433.45	335.80
433.82	339.32
434.19	343.24
434.56	346.99
434.93	350.61
435.30	354.15
435.68	358.07
436.05	361.91
436.42	365.67
436.79	369.09
437.16	372.69
437.53	376.48
437.90	380.30
438.27	384.02
438.64	387.80
439.01	391.32
439.38	394.40
439.75	397.35
440.13	400.83
440.50	404.02
440.87	406.52
441.24	409.17
441.61	412.12
441.98	414.16
442.35	416.68
442.72	419.25
443.09	421.74
443.46	423.11
443.83	423.92
444.20	424.64
444.57	425.84
444.94	426.28
445.31	426.78
445.68	427.21
446.05	427.35
446.42	426.82
446.79	426.31
447.16	425.78
447.53	425.34
447.90	423.74
448.27	422.20
448.64	420.05
449.01	418.55
449.37	415.82
449.74	413.25
450.11	410.15
450.48	406.73
450.85	403.29
451.22	400.37
451.59	397.62
451.96	395.01
452.33	391.44
452.70	388.29
453.07	384.46
453.43	380.59
453.80	376.80
454.17	373.22
454.54	369.72
454.91	365.98
455.28	362.35
455.65	358.97
456.02	355.53
456.38	352.62
456.75	348.97
457.12	345.94
457.49	342.90
457.86	339.99
458.23	337.45
458.59	334.64
458.96	331.77
459.33	329.28
459.70	326.71
460.07	324.66
460.43	322.26
460.80	320.03
461.17	318.04
461.54	315.99
461.91	314.02
462.27	312.02
462.64	310.31
463.01	308.43
463.38	306.64
463.74	304.85
464.11	303.26
464.48	301.83
464.85	300.28
465.21	299.08
465.58	297.77
465.95	296.28
466.32	295.02
466.68	293.83
467.05	292.58
467.42	291.37
467.78	290.08
468.15	288.85
468.52	287.92
468.88	286.77
469.25	285.70
469.62	284.84
469.98	283.92
470.35	283.02
470.72	282.21
471.08	281.29
471.45	280.55
471.82	279.77
472.18	278.95
472.55	278.36
472.92	277.63
473.28	276.99
473.65	276.34
474.02	275.73
474.38	275.19
474.75	274.67
475.11	274.15
475.48	273.76
475.85	273.44
476.21	273.12
476.58	272.78
476.94	272.57
477.31	272.27
477.67	271.99
478.04	271.82
478.41	271.64
478.77	271.62
479.14	271.46
479.50	271.41
479.87	271.45
480.23	271.45
480.60	271.46
480.96	271.48
481.33	271.68
481.69	271.86
482.06	271.95
482.42	272.11
482.79	272.32
483.15	272.61
483.52	272.96
483.88	273.31
484.25	273.71
484.61	274.08
484.98	274.52
485.34	275.11
485.71	275.68
486.07	276.28
486.44	276.82
486.80	277.54
487.17	278.30
487.53	279.10
487.90	279.99
488.26	280.96
488.62	281.99
488.99	282.98
489.35	284.04
489.72	285.26
490.08	286.52
490.44	287.81
490.81	289.21
491.17	290.57
491.54	292.11
491.90	293.72
492.26	295.43
492.63	297.23
492.99	299.12
493.36	301.10
493.72	303.28
494.08	305.52
494.45	307.85
494.81	310.36
495.17	312.93
495.54	315.62
495.90	318.42
496.26	321.38
496.63	324.53
496.99	327.85
497.35	331.30
497.72	334.94
498.08	338.66
498.44	342.50
498.80	346.69
499.17	350.96
499.53	355.39
499.89	360.03
500.26	364.82
500.62	369.71
500.98	375.00
501.34	380.39
501.71	386.04
502.07	391.88
502.43	397.80
502.79	403.96
503.16	410.43
503.52	417.10
503.88	423.92
504.24	430.96
504.60	438.23
504.97	445.80
505.33	453.52
505.69	461.73
506.05	470.07
506.41	478.46
506.78	487.12
507.14	496.15
507.50	505.41
507.86	515.04
508.22	524.94
508.59	534.74
508.95	544.98
509.31	555.53
509.67	566.35
510.03	577.30
510.39	588.62
510.75	600.13
511.12	611.90
511.48	624.01
511.84	636.33
512.20	648.68
512.56	661.56
512.92	674.70
513.28	688.06
513.64	701.53
514.00	715.24
514.37	729.20
514.73	743.26
515.09	757.41
515.45	771.72
515.81	786.33
516.17	801.46
516.53	816.76
516.89	832.07
517.25	847.42
517.61	863.13
517.97	878.88
518.33	894.57
518.69	910.61
519.05	926.86
519.41	943.33
519.77	960.35
520.13	977.11
520.49	993.87
520.85	1010.53
521.21	1027.62
521.57	1045.28
521.93	1062.60
522.29	1080.52
522.65	1098.31
523.01	1116.11
523.37	1133.76
523.73	1151.49
524.09	1169.22
524.45	1187.22
524.81	1205.48
525.17	1223.99
525.53	1242.57
525.89	1261.19
526.25	1279.84
526.61	1297.98
526.97	1316.56
527.33	1334.83
527.68	1353.18
528.04	1371.62
528.40	1390.16
528.76	1409.22
529.12	1427.80
529.48	1446.58
529.84	1464.40
530.20	1482.89
530.56	1501.84
530.91	1521.34
531.27	1540.20
531.63	1558.77
531.99	1577.35
532.35	1595.45
532.71	1613.39
533.07	1631.75
533.42	1649.75
533.78	1667.81
534.14	1686.34
534.50	1703.71
534.86	1721.66
535.21	1739.21
535.57	1757.28
535.93	1774.92
536.29	1791.71
536.65	1808.94
537.00	1825.91
537.36	1843.63
537.72	1860.41
538.08	1877.07
538.44	1892.99
538.79	1908.99
539.15	1924.71
539.51	1940.71
539.87	1957.29
540.22	1973.33
540.58	1989.43
540.94	2005.05
541.29	2020.18
541.65	2035.01
542.01	2050.57
542.37	2065.19
542.72	2079.92
543.08	2094.03
543.44	2108.86
543.79	2122.38
544.15	2135.72
544.51	2149.57
544.87	2162.78
545.22	2175.95
545.58	2188.44
545.94	2200.51
546.29	2212.76
546.65	2224.96
547.01	2236.37
547.36	2247.18
547.72	2257.86
548.07	2267.84
548.43	2278.11
548.79	2288.21
549.14	2297.73
549.50	2307.15
549.86	2316.88
550.21	2325.99
550.57	2335.15
550.92	2343.74
551.28	2352.86
551.64	2361.90
551.99	2370.46
552.35	2378.63
552.70	2386.71
553.06	2394.74
553.41	2403.10
553.77	2411.07
554.13	2418.85
554.48	2426.84
554.84	2434.42
555.19	2441.33
555.55	2448.24
555.90	2454.43
556.26	2461.30
556.61	2467.79
556.97	2473.87
557.32	2479.83
557.68	2485.71
558.03	2491.64
558.39	2496.69
558.74	2502.89
559.10	2508.39
559.45	2513.43
559.81	2519.21
560.16	2524.53
560.52	2529.27
560.87	2534.00
561.23	2537.88
561.58	2542.30
561.94	2546.34
562.29	2549.86
562.64	2553.92
563.00	2557.77
563.35	2562.66
563.71	2567.08
564.06	2571.83
564.42	2575.98
564.77	2579.74
565.12	2583.31
565.48	2586.51
565.83	2590.02
566.19	2592.76
566.54	2594.53
566.89	2596.91
567.25	2598.51
567.60	2600.87
567.96	2603.65
568.31	2605.52
568.66	2607.89
569.02	2609.47
569.37	2610.59
569.72	2612.39
570.08	2613.50
570.43	2614.52
570.78	2614.76
571.14	2613.70
571.49	2612.85
571.84	2613.18
572.20	2612.72
572.55	2612.38
572.90	2611.06
573.26	2609.94
573.61	2608.40
573.96	2607.27
574.31	2604.54
574.67	2601.83
575.02	2598.50
575.37	2595.10
575.72	2591.34
576.08	2587.88
576.43	2584.62
576.78	2581.03
577.13	2577.96
577.49	2574.82
577.84	2571.24
578.19	2567.45
578.54	2564.02
578.90	2559.76
579.25	2553.84
579.60	2548.56
579.95	2543.19
580.30	2538.01
580.66	2532.40
581.01	2527.17
581.36	2521.87
581.71	2517.57
582.06	2512.86
582.42	2507.96
582.77	2502.43
583.12	2497.64
583.47	2492.71
583.82	2487.49
584.17	2481.95
584.53	2476.00
584.88	2469.93
585.23	2463.65
585.58	2457.67
585.93	2451.64
586.28	2446.46
586.63	2441.07
586.98	2435.42
587.34	2430.26
587.69	2424.88
588.04	2419.26
588.39	2412.97
588.74	2405.77
589.09	2398.84
589.44	2391.37
589.79	2384.62
590.14	2378.38
590.49	2371.03
590.84	2363.83
591.19	2356.96
591.54	2349.68
591.89	2341.48
592.25	2333.85
592.60	2325.62
592.95	2317.20
593.30	2308.77
593.65	2300.05
594.00	2291.91
594.35	2283.67
594.70	2274.44
595.05	2266.29
595.40	2257.90
595.75	2249.32
596.10	2242.17
596.45	2234.55
596.80	2227.45
597.15	2219.94
597.50	2211.95
597.85	2204.28
598.19	2196.52
598.54	2188.51
598.89	2180.77
599.24	2173.84
599.59	2166.40
599.94	2159.39
600.29	2151.97
600.64	2144.29
600.99	2135.68
601.34	2127.86
601.69	2119.80
602.04	2111.89
602.39	2103.37
602.74	2095.46
603.08	2087.76
603.43	2080.03
603.78	2071.46
604.13	2063.04
604.48	2054.66
604.83	2046.47
605.18	2038.68
605.53	2029.54
605.87	2020.08
606.22	2011.56
606.57	2002.18
606.92	1993.24
607.27	1984.89
607.62	1976.77
607.96	1968.32
608.31	1960.83
608.66	1951.98
609.01	1943.23
609.36	1934.30
609.70	1924.86
610.05	1915.47
610.40	1906.56
610.75	1896.76
611.10	1887.71
611.44	1877.70
611.79	1868.13
612.14	1858.10
612.49	1847.19
612.83	1837.26
613.18	1827.65
613.53	1818.17
613.88	1808.30
614.22	1798.58
614.57	1788.23
614.92	1778.63
615.27	1769.93
615.61	1759.96
615.96	1750.37
616.31	1741.24
616.65	1732.50
617.00	1723.61
617.35	1714.51
617.70	1704.71
618.04	1694.64
618.39	1684.93
618.74	1675.96
619.08	1666.29
619.43	1657.22
619.78	1649.02
620.12	1640.66
620.47	1631.74
620.82	1622.06
621.16	1613.12
621.51	1604.11
621.85	1595.04
622.20	1585.20
622.55	1575.16
622.89	1565.87
623.24	1556.74
623.59	1547.97
623.93	1539.10
624.28	1530.58
624.62	1521.68
624.97	1513.04
625.32	1505.05
625.66	1496.80
626.01	1488.54
626.35	1479.78
626.70	1470.61
627.04	1461.55
627.39	1452.32
627.73	1443.70
628.08	1435.62
628.43	1427.07
628.77	1418.54
629.12	1409.77
629.46	1401.31
629.81	1392.56
630.15	1383.99
630.50	1375.35
630.84	1365.71
631.19	1356.47
631.53	1347.54
631.88	1338.61
632.22	1329.75
632.57	1321.19
632.91	1312.26
633.26	1303.47
633.60	1294.61
633.95	1286.19
634.29	1277.85
634.64	1269.94
634.98	1261.19
635.32	1252.63
635.67	1244.88
636.01	1236.99
636.36	1229.05
636.70	1221.21
637.05	1213.53
637.39	1205.92
637.73	1198.34
638.08	1191.47
638.42	1184.35
638.77	1176.79
639.11	1169.19
639.45	1161.58
639.80	1153.68
640.14	1146.22
640.49	1138.62
640.83	1131.32
641.17	1124.08
641.52	1116.63
641.86	1108.99
642.20	1102.16
642.55	1094.83
642.89	1087.25
643.23	1079.58
643.58	1072.81
643.92	1065.69
644.26	1058.61
644.61	1051.61
644.95	1044.64
645.29	1037.03
645.64	1029.23
645.98	1021.89
646.32	1015.08
646.66	1008.01
647.01	1001.31
647.35	994.61
647.69	987.61
648.04	981.09
648.38	974.36
648.72	967.58
649.06	960.61
649.41	953.80
649.75	946.99
650.09	940.08
650.43	933.39
650.78	926.28
651.12	919.32
651.46	912.59
651.80	905.94
652.14	899.66
652.49	893.34
652.83	887.36
653.17	880.69
653.51	873.99
653.85	867.79
654.20	861.28
654.54	854.33
654.88	847.69
655.22	840.87
655.56	834.28
655.90	827.82
656.25	821.74
656.59	815.46
656.93	809.46
657.27	803.57
657.61	797.29
657.95	791.29
658.29	785.48
658.64	779.40
658.98	773.25
659.32	766.87
659.66	760.91
660.00	754.74
660.34	749.05
660.68	743.29
661.02	737.49
661.36	732.02
661.70	726.82
662.05	721.81
662.39	716.87
662.73	711.70
663.07	706.65
663.41	701.48
663.75	696.30
664.09	690.99
664.43	685.79
664.77	681.01
665.11	676.11
665.45	671.24
665.79	666.52
666.13	661.77
666.47	657.08
666.81	652.21
667.15	647.51
667.49	642.97
667.83	638.58
668.17	634.05
668.51	629.36
668.85	624.65
669.19	620.16
669.53	615.71
669.87	611.22
670.21	606.90
670.55	602.63
670.89	598.63
671.23	594.67
671.57	590.58
671.91	586.45
672.25	582.37
672.58	578.32
672.92	574.34
673.26	570.64
673.60	566.89
673.94	563.26
674.28	559.81
674.62	556.39
674.96	552.78
675.30	549.38
675.64	545.96
675.97	542.73
676.31	539.45
676.65	536.08
676.99	532.96
677.33	529.66
677.67	526.45
678.01	523.01
678.34	519.63
678.68	516.31
679.02	513.14
679.36	509.94
679.70	506.77
680.04	503.59
680.37	500.30
680.71	497.09
681.05	494.08
681.39	490.96
681.73	487.87
682.06	484.92
682.40	481.97
682.74	479.03
683.08	476.11
683.42	473.12
683.75	470.20
684.09	467.22
684.43	464.39
684.77	461.53
685.10	458.79
685.44	456.05
685.78	453.44
686.12	450.78
686.45	448.13
686.79	445.44
687.13	442.86
687.46	440.30
687.80	437.78
688.14	435.17
688.48	432.71
688.81	430.14
689.15	427.71
689.49	425.18
689.82	422.74
690.16	420.28
690.50	417.96
690.83	415.65
691.17	413.32
691.51	411.13
691.84	408.99
692.18	406.69
692.52	404.43
692.85	402.13
693.19	399.98
693.52	397.89
693.86	395.80
694.20	393.77
694.53	391.67
694.87	389.55
695.21	387.53
695.54	385.45
695.88	383.42
696.21	381.38
696.55	379.48
696.88	377.56
697.22	375.63
697.56	373.77
697.89	371.90
698.23	370.07
698.56	368.15
698.90	366.33
699.23	364.47
699.57	362.67
699.90	360.88
700.24	359.07
700.58	357.27
700.91	355.54
701.25	353.83
701.58	352.25
701.92	350.71
702.25	349.09
702.59	347.51
702.92	346.00
703.26	344.50
703.59	343.01
703.93	341.63
704.26	340.24
704.60	338.72
704.93	337.22
705.26	335.73
705.60	334.38
705.93	332.99
706.27	331.76
706.60	330.51
706.94	329.25
707.27	327.90
707.61	326.61
707.94	325.42
708.27	324.18
708.61	322.91
708.94	321.69
709.28	320.53
709.61	319.39
709.94	318.25
710.28	317.06
710.61	315.87
710.95	314.57
711.28	313.48
711.61	312.38
711.95	311.32
712.28	310.20
712.61	309.05
712.95	307.96
713.28	306.91
713.61	305.86
713.95	304.86
714.28	303.90
714.61	302.89
714.95	301.86
715.28	300.84
715.61	299.82
715.95	298.79
716.28	297.80
716.61	296.80
716.95	295.80
717.28	294.89
717.61	293.99
717.94	293.14
718.28	292.19
718.61	291.32
718.94	290.50
719.27	289.75
719.61	288.95
719.94	288.17
720.27	287.34
720.60	286.57
720.94	285.83
721.27	285.12
721.60	284.46
721.93	283.77
722.27	283.11
722.60	282.47
722.93	281.81
723.26	281.18
723.59	280.55
723.93	279.93
724.26	279.31
724.59	278.63
724.92	278.02
725.25	277.43
725.59	276.82
725.92	276.19
726.25	275.58
726.58	275.04
726.91	274.51
727.24	273.94
727.57	273.38
727.91	272.80
728.24	272.26
728.57	271.69
728.90	271.19
729.23	270.65
729.56	270.15
729.89	269.61
730.22	269.02
730.55	268.48
730.89	267.97
731.22	267.42
731.55	266.95
731.88	266.48
732.21	265.99
732.54	265.48
732.87	265.01
733.20	264.59
733.53	264.12
733.86	263.65
734.19	263.19
734.52	262.74
734.85	262.35
735.18	261.86
735.51	261.44
735.84	261.00
736.17	260.59
736.50	260.11
736.83	259.84
737.16	259.48
737.49	259.09
737.82	258.70
738.15	258.32
738.48	257.93
738.81	257.57
739.14	257.18
739.47	256.82
739.80	256.44
740.13	256.04
740.46	255.66
740.79	255.26
741.12	254.93
741.45	254.57
741.78	254.18
742.11	253.84
742.44	253.47
742.77	253.11
743.10	252.76
743.43	252.44
743.75	252.02
744.08	251.82
744.41	251.51
744.74	251.17
745.07	250.87
745.40	250.62
745.73	250.31
746.06	250.00
746.39	249.71
746.71	249.45
747.04	249.15
747.37	248.81
747.70	248.53
748.03	248.19
748.36	247.94
748.68	247.64
749.01	247.36
749.34	247.10
749.67	246.83
750.00	246.57
750.33	246.38
750.65	246.12
750.98	245.74
751.31	245.50
751.64	245.30
751.97	245.05
752.29	244.79
752.62	244.55
752.95	244.30
753.28	244.05
753.60	243.78
753.93	243.57
754.26	243.40
754.59	243.15
754.91	242.97
755.24	242.71
755.57	242.49
755.90	242.30
756.22	242.08
756.55	241.84
756.88	241.59
757.20	241.31
757.53	241.10
757.86	240.91
758.19	240.68
758.51	240.46
758.84	240.26
759.17	240.05
759.49	239.83
759.82	239.70
760.15	239.54
760.47	239.37
760.80	239.18
761.13	239.03
761.45	238.84
761.78	238.61
762.11	238.47
762.43	238.30
762.76	238.09
763.08	237.93
763.41	237.80
763.74	237.66
764.06	237.48
764.39	237.32
764.71	237.15
765.04	237.03
765.37	236.85
765.69	236.69
766.02	236.49
766.34	236.33
766.67	236.16
767.00	236.02
767.32	235.95
767.65	235.88
767.97	235.70
768.30	235.58
768.62	235.48
768.95	235.33
769.27	235.18
769.60	235.05
769.92	234.94
770.25	234.77
770.57	234.63
770.90	234.51
771.22	234.37
771.55	234.25
771.87	234.12
772.20	234.02
772.52	234.02
772.85	234.06
773.17	233.99
773.50	233.86
773.82	233.72
774.15	233.56
774.47	233.38
774.80	233.26
775.12	233.16
775.45	233.06
775.77	233.00
776.09	232.92
776.42	232.85
776.74	232.77
777.07	232.71
777.39	232.64
777.72	232.55
778.04	232.45
778.36	232.34
778.69	232.29
779.01	232.22
779.33	232.05
779.66	231.83
779.98	231.71
780.31	231.64
780.63	231.63
780.95	231.59
781.28	231.56
781.60	231.47
781.92	231.45
782.25	231.37
782.57	231.27
782.89	231.24
783.22	231.16
783.54	231.04
783.86	230.96
784.19	230.89
784.51	230.85
784.83	230.81
785.16	230.79
785.48	230.72
785.80	230.67
786.12	230.59
786.45	230.56
786.77	230.53
787.09	230.45
787.42	230.34
787.74	230.28
788.06	230.22
788.38	230.18
788.71	230.09
789.03	230.06
789.35	230.02
789.67	229.97
789.99	229.97
790.32	229.93
790.64	229.88
790.96	229.92
791.28	229.88
791.61	229.84
791.93	229.78
792.25	229.72
792.57	229.71
792.89	229.64
793.21	229.59
793.54	229.49
793.86	229.45
794.18	229.42
794.50	229.36
794.82	229.30
795.14	229.28
795.47	229.24
795.79	229.18
796.11	229.13
796.43	229.04
796.75	228.97
797.07	228.95
797.39	228.92
797.71	228.80
798.04	228.76
798.36	228.74
798.68	228.70
799.00	228.68
799.32	228.63
799.64	228.64
799.96	228.61
800.28	228.66
800.60	228.62
800.92	228.57
801.24	228.53
801.56	228.51
801.89	228.46
802.21	228.45
802.53	228.44
802.85	228.45
803.17	228.48
803.49	228.43
803.81	228.40
804.13	228.37
804.45	228.34
804.77	228.33
805.09	228.27
805.41	228.26
805.73	228.23
806.05	228.19
806.37	228.14
806.69	228.11
807.01	228.04
807.33	228.05
807.65	228.03
807.97	228.05
808.28	228.01
808.60	228.00
808.92	227.92
809.24	227.95
809.56	227.90
809.88	227.83
810.20	227.82
810.52	227.81
810.84	227.77
811.16	227.75
811.48	227.65
811.80	227.65
812.12	227.58
812.43	227.54
812.75	227.49
813.07	227.43
813.39	227.40
813.71	227.38
814.03	227.32
814.35	227.26
814.67	227.18
814.98	227.14
815.30	227.10
815.62	227.07
815.94	226.96
816.26	226.97
816.58	226.93
816.89	226.92
817.21	226.86
817.53	226.82
817.85	226.78
818.17	226.80
818.48	226.71
818.80	226.73
819.12	226.71
819.44	226.68
819.76	226.66
820.07	226.62
820.39	226.60
820.71	226.61
821.03	226.60
821.34	226.58
821.66	226.56
821.98	226.58
822.30	226.56
822.61	226.63
822.93	226.55
823.25	226.55
823.57	226.49
823.88	226.51
824.20	226.53
824.52	226.53
824.83	226.52
825.15	226.54
825.47	226.51
825.79	226.48
826.10	226.44
826.42	226.44
826.74	226.48
827.05	226.47
827.37	226.45
827.69	226.45
828.00	226.44
828.32	226.41
828.64	226.38
828.95	226.43
829.27	226.37
829.58	226.37
829.90	226.34
830.22	226.37
830.53	226.32
830.85	226.25
831.17	226.23
831.48	226.21
831.80	226.21
832.11	226.22
832.43	226.20
832.75	226.22
833.06	226.26
833.38	226.22
833.69	226.21
834.01	226.20
834.32	226.16
834.64	226.15
834.96	226.18
835.27	226.16
835.59	226.11
835.90	226.09
836.22	226.08
836.53	226.08
836.85	226.04
837.16	226.15
837.48	226.18
837.79	226.18
838.11	226.18
838.42	226.15
838.74	226.14
839.05	226.14
839.37	226.14
839.68	226.09
840.00	226.07
840.31	226.06
840.63	226.03
840.94	226.03
841.26	226.02
841.57	226.00
841.88	225.99
842.20	225.98
842.51	225.94
842.83	225.89
843.14	225.97
843.46	225.96
843.77	225.88
844.08	225.83
844.40	225.80
844.71	225.82
845.03	225.79
845.34	225.78
845.65	225.75
845.97	225.69
846.28	225.70
846.60	225.70
846.91	225.68
847.22	225.68
847.54	225.69
847.85	225.67
848.16	225.65
848.48	225.62
848.79	225.63
849.10	225.65
849.42	225.71
849.73	225.63
850.04	225.63
850.36	225.57
850.67	225.60
850.98	225.60
851.30	225.56
851.61	225.56
851.92	225.53
852.23	225.56
852.55	225.60
852.86	225.57
853.17	225.57
853.49	225.60
853.80	225.63
854.11	225.62
854.42	225.63
854.74	225.63
855.05	225.63
855.36	225.59
855.67	225.60
855.99	225.56
856.30	225.66
856.61	225.65
856.92	225.70
857.23	225.69
857.55	225.69
857.86	225.70
858.17	225.71
858.48	225.70
858.79	225.67
859.11	225.66
859.42	225.65
859.73	225.65
860.04	225.61
860.35	225.57
860.66	225.53
860.98	225.53
861.29	225.54
861.60	225.54
861.91	225.56
862.22	225.56
862.53	225.57
862.84	225.46
863.16	225.48
863.47	225.42
863.78	225.44
864.09	225.45
864.40	225.44
864.71	225.43
865.02	225.45
865.33	225.47
865.64	225.47
865.95	225.49
866.27	225.55
866.58	225.57
866.89	225.57
867.20	225.56
867.51	225.55
867.82	225.50
868.13	225.54
868.44	225.48
868.75	225.49
869.06	225.48
869.37	225.49
869.68	225.49
869.99	225.51
870.30	225.53
870.61	225.50
870.92	225.51
871.23	225.51
871.54	225.49
871.85	225.50
872.16	225.50
872.47	225.49
872.78	225.42
873.09	225.41
873.40	225.41
873.71	225.44
874.02	225.45
874.33	225.47
874.64	225.43
874.95	225.49
875.26	225.46
875.56	225.41
875.87	225.40
876.18	225.39
876.49	225.47
876.80	225.43
877.11	225.42
877.42	225.41
877.73	225.40
878.04	225.39
878.35	225.40
878.66	225.39
878.96	225.38
879.27	225.38
879.58	225.38
879.89	225.37
880.20	225.36
880.51	225.34
880.82	225.30
881.12	225.32
881.43	225.27
881.74	225.27
882.05	225.29
882.36	225.30
882.67	225.31
882.97	225.20
883.28	225.18
883.59	225.16
883.90	225.17
884.21	225.19
884.51	225.21
884.82	225.18
885.13	225.17
885.44	225.16
885.74	225.15
886.05	225.16
886.36	225.14
886.67	225.16
886.98	225.21
887.28	225.23
887.59	225.21
887.90	225.20
888.20	225.19
888.51	225.21
888.82	225.18
889.13	225.17
889.43	225.26
889.74	225.27
890.05	225.29
890.35	225.25
890.66	225.24
890.97	225.22
891.28	225.23
891.58	225.22
891.89	225.23
892.20	225.22
892.50	225.20
892.81	225.21
893.12	225.16
893.42	225.13
893.73	225.12
894.04	225.13
894.34	225.15
894.65	225.16
894.95	225.15
895.26	225.15
895.57	225.21
895.87	225.12
896.18	225.17
896.48	225.15
896.79	225.17
897.10	225.15
897.40	225.15
897.71	225.14
898.01	225.12
898.32	225.13
898.63	225.13
898.93	225.12
899.24	225.11
899.54	225.14
899.85	225.15
900.15	225.16
900.46	225.16
900.76	225.15
901.07	225.13
901.38	225.13
901.68	225.14
901.99	225.10
902.29	225.08
902.60	225.03
902.90	225.04
903.21	225.05
903.51	225.07
903.82	225.08
904.12	225.09
904.43	225.12
904.73	225.13
905.03	225.12
905.34	225.24
905.64	225.24
905.95	225.23
906.25	225.23
906.56	225.24
906.86	225.23
907.17	225.23
907.47	225.27
907.77	225.24
908.08	225.23
908.38	225.21
908.69	225.26
908.99	225.28
909.30	225.26
909.60	225.23
909.90	225.22
910.21	225.21
910.51	225.19
910.81	225.17
911.12	225.12
911.42	225.14
911.73	224.99
912.03	225.00
912.33	225.01
912.64	224.98
912.94	224.99
913.24	224.94
913.55	224.91
913.85	224.89
914.15	224.91
914.46	224.92
914.76	224.91
915.06	224.87
915.37	224.85
915.67	224.83
915.97	224.85
916.27	224.83
916.58	224.81
916.88	224.83
917.18	224.83
917.49	224.94
917.79	224.96
918.09	225.03
918.39	225.08
918.70	225.06
919.00	225.04
919.30	225.08
919.60	225.08
919.91	225.09
920.21	225.09
920.51	225.06
920.81	225.07
921.12	225.09
921.42	225.05
921.72	225.05
922.02	225.08
922.32	225.09
922.63	225.10
922.93	225.17
923.23	225.16
923.53	225.18
923.83	225.10
924.13	225.11
924.44	225.07
924.74	225.08
925.04	225.13
925.34	225.13
925.64	225.07
925.94	225.10
926.24	225.15
926.55	225.13
926.85	225.16
927.15	225.11
927.45	225.10
927.75	225.13
928.05	225.15
928.35	225.12
928.65	225.13
928.95	225.09
929.26	225.03
929.56	225.06
929.86	225.03
930.16	225.02
930.46	224.97
930.76	224.98
931.06	224.91
931.36	224.87
931.66	224.89
931.96	224.89
932.26	224.86
932.56	224.84
932.86	224.86
933.16	224.84
933.46	224.84
933.76	224.82
934.06	224.82
934.36	224.81
934.66	224.81
934.96	224.77
935.26	224.82
935.56	224.87
935.86	224.81
936.16	224.80
936.46	224.79
936.76	224.77
937.06	224.74
937.36	224.74
937.66	224.71
937.96	224.70
938.26	224.68
938.56	224.69
938.86	224.65
939.16	224.67
939.46	224.65
939.76	224.69
940.06	224.70
940.35	224.72
940.65	224.67
940.95	224.69
941.25	224.71
941.55	224.64
941.85	224.60
942.15	224.64
942.45	224.68
942.75	224.68
943.04	224.68
943.34	224.70
943.64	224.69
943.94	224.72
944.24	224.72
944.54	224.73
944.84	224.75
945.13	224.76
945.43	224.75
945.73	224.78
946.03	224.74
946.33	224.75
946.62	224.73
946.92	224.74
947.22	224.72
947.52	224.70
947.82	224.76
948.11	224.77
948.41	224.77
948.71	224.76
949.01	224.77
949.31	224.78
949.60	224.79
949.90	224.81
950.20	224.80
950.50	224.80
950.79	224.78
951.09	224.79
951.39	224.81
951.69	224.84
951.98	224.86
952.28	224.88
952.58	224.87
952.87	224.87
953.17	224.89
953.47	224.89
953.76	224.88
954.06	224.85
954.36	224.84
954.66	224.85
954.95	224.87
955.25	224.89
955.55	224.90
955.84	224.88
956.14	224.90
956.44	224.92
956.73	224.94
957.03	224.97
957.32	224.95
957.62	224.93
957.92	224.95
958.21	224.94
958.51	225.05
958.81	225.05
959.10	225.07
959.40	225.10
959.69	225.11
959.99	225.15
960.29	225.15
960.58	225.15
960.88	225.17
961.17	225.16
961.47	225.15
961.76	225.15
962.06	225.21
962.36	225.19
962.65	225.21
962.95	225.18
963.24	225.15
963.54	225.17
963.83	225.17
964.13	225.15
964.42	225.11
964.72	225.05
965.01	225.04
965.31	225.05
965.60	225.03
965.90	225.10
966.19	225.09
966.49	225.10
966.78	225.11
967.08	225.13
967.37	225.12
967.67	225.10
967.96	225.15
968.26	225.09
968.55	225.10
968.85	225.08
969.14	225.09
969.43	225.10
969.73	225.09
970.02	225.08
970.32	225.04
970.61	225.05
970.91	225.02
971.20	224.99
971.49	224.99
971.79	224.98
972.08	224.93
972.38	224.92
972.67	224.92
972.96	224.94
973.26	224.88
973.55	224.90
973.85	224.89
974.14	224.86
974.43	224.87
974.73	224.85
975.02	224.81
975.31	224.82
975.61	224.83
975.90	224.82
976.19	224.82
976.49	224.80
976.78	224.80
977.07	224.81
977.37	224.84
977.66	224.82
977.95	224.78
978.24	224.76
978.54	224.79
978.83	224.81
979.12	224.79
979.42	224.79
979.71	224.77
980.00	224.74
980.29	224.77
980.59	224.76
980.88	224.79
981.17	224.82
981.46	224.81
981.76	224.81
982.05	224.85
982.34	224.85
982.63	224.89
982.93	224.88
983.22	224.88
983.51	224.91
983.80	224.91
984.09	224.95
984.39	224.94
984.68	224.92
984.97	224.92
985.26	224.90
985.55	224.93
985.85	224.90
986.14	224.97
986.43	224.93
986.72	224.93
987.01	224.89
987.30	224.92
987.59	224.93
987.89	224.93
988.18	224.87
988.47	224.85
988.76	224.86
989.05	224.84
989.34	224.84
989.63	224.85
989.92	224.85
990.22	224.88
990.51	224.89
990.80	224.90
991.09	224.89
991.38	224.91
991.67	224.92
991.96	224.94
992.25	224.93
992.54	224.93
992.83	224.93
993.12	224.93
993.41	224.90
993.70	224.94
993.99	224.98
994.28	225.04
994.58	225.09
994.87	225.10
995.16	225.13
995.45	225.12
995.74	225.10
996.03	225.10
996.32	225.09
996.61	225.13
996.90	225.12
997.19	225.13
997.48	225.13
997.77	225.09
998.06	225.09
998.34	225.11
998.63	225.13
998.92	225.15
999.21	225.17
999.50	225.20
999.79	225.15
1000.08	225.13
1000.37	225.10
1000.66	225.07
1000.95	225.10
1001.24	225.11
1001.53	225.11
1001.82	225.09
1002.11	225.09
1002.40	225.09
1002.68	225.10
1002.97	225.15
1003.26	225.11
1003.55	225.08
1003.84	225.10
1004.13	225.12
1004.42	225.07
1004.71	225.04
1004.99	225.01
1005.28	225.02
1005.57	224.98
1005.86	224.95
1006.15	224.95
1006.44	224.92
1006.72	224.93
1007.01	224.87
1007.30	224.88
1007.59	224.87
1007.88	224.86
1008.17	224.83
1008.45	224.80
1008.74	224.75
1009.03	224.69
1009.32	224.71
1009.60	224.71
1009.89	224.70
1010.18	224.68
1010.47	224.66
1010.76	224.66
1011.04	224.66
1011.33	224.65
1011.62	224.66
1011.91	224.66
1012.19	224.65
1012.48	224.66
1012.77	224.64
1013.05	224.68
1013.34	224.64
1013.63	224.68
1013.92	224.70
1014.20	224.72
1014.49	224.72
1014.78	224.75
1015.06	224.74
1015.35	224.74
1015.64	224.76
1015.92	224.77
1016.21	224.75
1016.50	224.75
1016.78	224.78
1017.07	224.80
1017.36	224.79
1017.64	224.82
1017.93	224.86
1018.22	224.86
1018.50	224.85
1018.79	224.87
1019.08	224.85
1019.36	224.88
1019.65	224.83
1019.93	224.87
1020.22	224.85
1020.51	224.87
1020.79	224.84
1021.08	224.52
1021.36	224.53
1021.65	224.85
1021.94	225.10
1022.22	224.76
1022.51	224.80
1022.79	225.32
1023.08	224.45
1023.36	225.43
1023.65	224.53
>>>>>End Processed Spectral Data<<<<<
