SpectraSuite Data File
++++++++++++++++++++++++++++++++++++
Date: Fri Feb 01 17:55:12 EST 2013
User: group
Dark Spectrum Present: No
Reference Spectrum Present: No
Number of Sampled Component Spectra: 1
Spectrometers: USB2E7196
Integration Time (usec): 35000 (USB2E7196)
Spectra Averaged: 100 (USB2E7196)
Boxcar Smoothing: 10 (USB2E7196)
Correct for Electrical Dark: No (USB2E7196)
Strobe/Lamp Enabled: No (USB2E7196)
Correct for Detector Non-linearity: No (USB2E7196)
Correct for Stray Light: No (USB2E7196)
Number of Pixels in Processed Spectrum: 2048
>>>>>Begin Processed Spectral Data<<<<<
339.09	0.00
339.48	212.44
339.86	214.60
340.24	215.32
340.63	216.90
341.01	219.63
341.39	219.44
341.78	220.37
342.16	222.20
342.54	222.41
342.93	211.11
343.31	221.79
343.69	222.34
344.07	222.79
344.46	223.22
344.84	223.61
345.22	223.83
345.60	224.10
345.99	224.31
346.37	224.44
346.75	224.55
347.13	224.62
347.52	224.64
347.90	224.75
348.28	224.79
348.66	224.87
349.05	224.87
349.43	224.93
349.81	224.99
350.19	225.03
350.57	225.09
350.96	225.18
351.34	225.26
351.72	225.35
352.10	225.45
352.48	225.54
352.87	225.60
353.25	225.71
353.63	225.75
354.01	225.82
354.39	225.91
354.77	225.99
355.15	226.13
355.54	226.19
355.92	226.22
356.30	226.31
356.68	226.43
357.06	226.51
357.44	226.52
357.82	226.57
358.20	226.67
358.58	226.73
358.97	226.77
359.35	226.87
359.73	226.95
360.11	227.00
360.49	227.04
360.87	227.08
361.25	227.16
361.63	227.27
362.01	227.31
362.39	227.35
362.77	227.39
363.15	227.39
363.53	227.43
363.91	227.44
364.29	227.44
364.67	227.36
365.05	227.35
365.43	227.40
365.81	227.45
366.19	227.50
366.57	227.55
366.95	227.55
367.33	227.51
367.71	227.48
368.09	227.48
368.47	227.47
368.85	227.43
369.23	227.39
369.61	227.33
369.99	227.33
370.37	227.30
370.75	227.31
371.13	227.28
371.51	227.21
371.89	227.21
372.27	227.17
372.65	227.15
373.03	227.13
373.41	227.06
373.78	226.99
374.16	226.88
374.54	226.80
374.92	226.71
375.30	226.63
375.68	226.56
376.06	226.51
376.44	226.47
376.82	226.43
377.19	226.37
377.57	226.31
377.95	226.20
378.33	226.07
378.71	225.97
379.09	225.89
379.47	225.85
379.84	225.75
380.22	225.66
380.60	225.58
380.98	225.53
381.36	225.46
381.73	225.37
382.11	225.34
382.49	225.25
382.87	225.21
383.25	225.16
383.62	225.25
384.00	225.19
384.38	225.12
384.76	225.10
385.13	225.07
385.51	225.00
385.89	224.97
386.27	224.98
386.64	224.93
387.02	224.88
387.40	224.85
387.78	224.86
388.15	224.85
388.53	224.84
388.91	224.81
389.29	224.74
389.66	224.71
390.04	224.68
390.42	224.70
390.79	224.68
391.17	224.68
391.55	224.54
391.92	224.49
392.30	224.53
392.68	224.47
393.05	224.49
393.43	224.52
393.81	224.54
394.18	224.54
394.56	224.56
394.94	224.60
395.31	224.61
395.69	224.67
396.06	224.71
396.44	224.71
396.82	224.73
397.19	224.86
397.57	224.95
397.95	224.97
398.32	225.01
398.70	225.08
399.07	225.14
399.45	225.20
399.82	225.30
400.20	225.34
400.58	225.43
400.95	225.47
401.33	225.54
401.70	225.67
402.08	225.78
402.45	225.87
402.83	226.00
403.20	226.12
403.58	226.19
403.95	226.32
404.33	226.49
404.71	226.63
405.08	226.83
405.46	226.95
405.83	227.12
406.21	227.26
406.58	227.42
406.96	227.60
407.33	227.79
407.70	228.03
408.08	228.33
408.45	228.60
408.83	228.85
409.20	229.10
409.58	229.33
409.95	229.66
410.33	229.97
410.70	230.25
411.08	230.60
411.45	231.01
411.82	231.38
412.20	231.75
412.57	232.31
412.95	232.68
413.32	233.20
413.69	233.73
414.07	234.29
414.44	234.91
414.82	235.55
415.19	236.32
415.56	237.02
415.94	237.75
416.31	238.56
416.68	239.37
417.06	240.32
417.43	241.20
417.81	242.22
418.18	243.25
418.55	244.37
418.93	245.54
419.30	246.69
419.67	247.93
420.04	249.24
420.42	250.53
420.79	252.09
421.16	253.60
421.54	255.16
421.91	256.76
422.28	258.44
422.66	260.17
423.03	261.84
423.40	263.59
423.77	265.44
424.15	267.36
424.52	269.35
424.89	271.50
425.26	273.60
425.64	275.51
426.01	277.62
426.38	279.81
426.75	282.01
427.13	284.31
427.50	286.73
427.87	289.25
428.24	291.74
428.61	294.09
428.99	296.65
429.36	299.49
429.73	302.28
430.10	304.99
430.47	307.77
430.85	310.65
431.22	313.66
431.59	316.84
431.96	319.82
432.33	323.14
432.70	326.34
433.08	330.06
433.45	333.59
433.82	337.09
434.19	340.99
434.56	344.71
434.93	348.24
435.30	351.71
435.68	355.56
436.05	359.34
436.42	363.06
436.79	366.43
437.16	370.07
437.53	373.88
437.90	377.65
438.27	381.27
438.64	385.02
439.01	388.44
439.38	391.43
439.75	394.35
440.13	397.67
440.50	400.75
440.87	403.25
441.24	405.82
441.61	408.73
441.98	410.71
442.35	413.14
442.72	415.66
443.09	418.12
443.46	419.47
443.83	420.23
444.20	420.93
444.57	422.05
444.94	422.44
445.31	422.91
445.68	423.38
446.05	423.52
446.42	423.05
446.79	422.55
447.16	421.98
447.53	421.58
447.90	420.08
448.27	418.57
448.64	416.45
449.01	414.95
449.37	412.33
449.74	409.80
450.11	406.82
450.48	403.54
450.85	400.11
451.22	397.27
451.59	394.60
451.96	392.00
452.33	388.55
452.70	385.41
453.07	381.59
453.43	377.72
453.80	374.07
454.17	370.48
454.54	367.12
454.91	363.47
455.28	359.90
455.65	356.56
456.02	353.26
456.38	350.40
456.75	346.88
457.12	343.87
457.49	340.88
457.86	337.97
458.23	335.46
458.59	332.76
458.96	329.97
459.33	327.49
459.70	324.97
460.07	322.97
460.43	320.62
460.80	318.44
461.17	316.43
461.54	314.39
461.91	312.47
462.27	310.46
462.64	308.75
463.01	306.92
463.38	305.14
463.74	303.32
464.11	301.76
464.48	300.32
464.85	298.83
465.21	297.68
465.58	296.47
465.95	295.01
466.32	293.74
466.68	292.51
467.05	291.31
467.42	290.11
467.78	288.83
468.15	287.67
468.52	286.76
468.88	285.65
469.25	284.61
469.62	283.75
469.98	282.85
470.35	282.00
470.72	281.17
471.08	280.32
471.45	279.56
471.82	278.78
472.18	277.97
472.55	277.34
472.92	276.61
473.28	275.98
473.65	275.36
474.02	274.77
474.38	274.24
474.75	273.75
475.11	273.26
475.48	272.90
475.85	272.54
476.21	272.19
476.58	271.91
476.94	271.64
477.31	271.39
477.67	271.13
478.04	270.92
478.41	270.78
478.77	270.74
479.14	270.58
479.50	270.53
479.87	270.56
480.23	270.57
480.60	270.60
480.96	270.60
481.33	270.77
481.69	270.97
482.06	271.11
482.42	271.26
482.79	271.48
483.15	271.75
483.52	272.12
483.88	272.43
484.25	272.81
484.61	273.26
484.98	273.68
485.34	274.23
485.71	274.81
486.07	275.45
486.44	275.98
486.80	276.71
487.17	277.44
487.53	278.34
487.90	279.21
488.26	280.13
488.62	281.14
488.99	282.10
489.35	283.16
489.72	284.31
490.08	285.60
490.44	286.91
490.81	288.32
491.17	289.71
491.54	291.29
491.90	292.88
492.26	294.58
492.63	296.41
492.99	298.27
493.36	300.25
493.72	302.36
494.08	304.61
494.45	306.99
494.81	309.51
495.17	311.98
495.54	314.67
495.90	317.54
496.26	320.51
496.63	323.64
496.99	326.92
497.35	330.36
497.72	333.95
498.08	337.62
498.44	341.51
498.80	345.67
499.17	349.94
499.53	354.36
499.89	358.96
500.26	363.71
500.62	368.62
500.98	373.87
501.34	379.24
501.71	384.85
502.07	390.62
502.43	396.58
502.79	402.77
503.16	409.25
503.52	415.85
503.88	422.65
504.24	429.69
504.60	437.00
504.97	444.58
505.33	452.32
505.69	460.51
506.05	468.75
506.41	477.10
506.78	485.73
507.14	494.72
507.50	503.97
507.86	513.55
508.22	523.35
508.59	533.15
508.95	543.34
509.31	553.76
509.67	564.42
510.03	575.32
510.39	586.65
510.75	598.12
511.12	609.73
511.48	621.73
511.84	633.93
512.20	646.18
512.56	658.93
512.92	671.92
513.28	685.20
513.64	698.58
514.00	712.21
514.37	726.14
514.73	740.02
515.09	754.09
515.45	768.36
515.81	782.89
516.17	797.93
516.53	813.09
516.89	828.36
517.25	843.69
517.61	859.28
517.97	874.78
518.33	890.29
518.69	906.28
519.05	922.54
519.41	939.03
519.77	955.84
520.13	972.55
520.49	989.32
520.85	1005.94
521.21	1022.93
521.57	1040.54
521.93	1057.55
522.29	1075.48
522.65	1093.14
523.01	1110.83
523.37	1128.42
523.73	1146.07
524.09	1163.74
524.45	1181.65
524.81	1199.83
525.17	1218.15
525.53	1236.69
525.89	1255.26
526.25	1273.70
526.61	1291.72
526.97	1310.02
527.33	1328.27
527.68	1346.50
528.04	1364.75
528.40	1383.02
528.76	1401.94
529.12	1420.38
529.48	1439.17
529.84	1456.94
530.20	1475.46
530.56	1494.11
530.91	1513.63
531.27	1532.32
531.63	1550.57
531.99	1568.93
532.35	1586.91
532.71	1604.76
533.07	1623.00
533.42	1640.94
533.78	1659.08
534.14	1677.31
534.50	1694.75
534.86	1712.62
535.21	1729.90
535.57	1747.73
535.93	1765.29
536.29	1781.93
536.65	1798.98
537.00	1815.83
537.36	1833.30
537.72	1849.80
538.08	1866.52
538.44	1882.28
538.79	1898.30
539.15	1914.04
539.51	1929.92
539.87	1946.34
540.22	1962.23
540.58	1978.09
540.94	1993.45
541.29	2008.36
541.65	2023.26
542.01	2038.54
542.37	2053.02
542.72	2067.61
543.08	2081.61
543.44	2096.27
543.79	2109.78
544.15	2122.77
544.51	2136.43
544.87	2149.45
545.22	2162.58
545.58	2174.87
545.94	2186.55
546.29	2198.46
546.65	2210.53
547.01	2221.98
547.36	2232.61
547.72	2243.19
548.07	2253.10
548.43	2263.14
548.79	2272.96
549.14	2282.50
549.50	2291.70
549.86	2301.23
550.21	2310.42
550.57	2319.44
550.92	2327.79
551.28	2336.80
551.64	2345.90
551.99	2354.25
552.35	2362.30
552.70	2370.11
553.06	2377.87
553.41	2386.15
553.77	2393.83
554.13	2401.74
554.48	2409.63
554.84	2417.17
555.19	2423.95
555.55	2430.90
555.90	2437.15
556.26	2443.98
556.61	2450.05
556.97	2456.12
557.32	2461.85
557.68	2467.62
558.03	2473.42
558.39	2478.71
558.74	2484.73
559.10	2490.18
559.45	2495.33
559.81	2501.13
560.16	2506.43
560.52	2511.27
560.87	2515.93
561.23	2519.99
561.58	2523.92
561.94	2527.80
562.29	2531.20
562.64	2535.39
563.00	2539.07
563.35	2543.85
563.71	2548.26
564.06	2552.88
564.42	2557.17
564.77	2561.11
565.12	2564.73
565.48	2568.03
565.83	2571.14
566.19	2573.83
566.54	2575.67
566.89	2578.00
567.25	2579.59
567.60	2581.78
567.96	2584.53
568.31	2586.40
568.66	2588.60
569.02	2590.26
569.37	2591.32
569.72	2593.11
570.08	2593.97
570.43	2594.76
570.78	2594.97
571.14	2593.99
571.49	2593.17
571.84	2593.37
572.20	2592.80
572.55	2592.28
572.90	2590.93
573.26	2590.01
573.61	2588.56
573.96	2587.29
574.31	2584.43
574.67	2581.64
575.02	2578.20
575.37	2574.80
575.72	2571.26
576.08	2567.81
576.43	2564.51
576.78	2561.04
577.13	2557.87
577.49	2554.84
577.84	2551.46
578.19	2547.66
578.54	2544.18
578.90	2540.06
579.25	2534.18
579.60	2528.98
579.95	2523.63
580.30	2518.31
580.66	2512.80
581.01	2507.39
581.36	2501.96
581.71	2497.75
582.06	2493.18
582.42	2488.58
582.77	2483.09
583.12	2478.26
583.47	2473.48
583.82	2468.37
584.17	2462.73
584.53	2456.98
584.88	2450.87
585.23	2444.88
585.58	2438.88
585.93	2432.74
586.28	2427.41
586.63	2421.96
586.98	2416.48
587.34	2411.37
587.69	2406.15
588.04	2400.60
588.39	2394.52
588.74	2387.40
589.09	2380.51
589.44	2373.08
589.79	2366.37
590.14	2360.01
590.49	2352.63
590.84	2345.39
591.19	2338.65
591.54	2331.43
591.89	2323.35
592.25	2315.96
592.60	2307.64
592.95	2299.30
593.30	2291.11
593.65	2282.56
594.00	2274.53
594.35	2266.21
594.70	2256.98
595.05	2249.05
595.40	2240.59
595.75	2232.18
596.10	2225.39
596.45	2217.82
596.80	2210.57
597.15	2203.06
597.50	2195.27
597.85	2187.80
598.19	2180.26
598.54	2172.26
598.89	2164.64
599.24	2157.69
599.59	2150.13
599.94	2142.94
600.29	2135.62
600.64	2128.06
600.99	2119.67
601.34	2111.92
601.69	2103.87
602.04	2096.04
602.39	2087.34
602.74	2079.47
603.08	2071.71
603.43	2063.75
603.78	2055.30
604.13	2047.01
604.48	2038.73
604.83	2030.71
605.18	2022.83
605.53	2013.68
605.87	2004.20
606.22	1995.65
606.57	1986.42
606.92	1977.52
607.27	1969.32
607.62	1961.40
607.96	1953.03
608.31	1945.45
608.66	1936.73
609.01	1928.03
609.36	1919.39
609.70	1910.12
610.05	1900.86
610.40	1891.77
610.75	1882.15
611.10	1873.27
611.44	1863.44
611.79	1854.01
612.14	1843.83
612.49	1833.11
612.83	1823.32
613.18	1813.92
613.53	1804.63
613.88	1794.78
614.22	1785.25
614.57	1775.11
614.92	1765.55
615.27	1756.79
615.61	1747.11
615.96	1737.65
616.31	1728.69
616.65	1720.06
617.00	1711.34
617.35	1702.33
617.70	1692.74
618.04	1682.89
618.39	1673.12
618.74	1664.34
619.08	1654.59
619.43	1645.77
619.78	1637.58
620.12	1629.22
620.47	1620.45
620.82	1610.79
621.16	1601.93
621.51	1592.94
621.85	1583.95
622.20	1574.06
622.55	1564.13
622.89	1554.77
623.24	1545.70
623.59	1536.92
623.93	1528.07
624.28	1519.58
624.62	1510.88
624.97	1502.45
625.32	1494.39
625.66	1486.14
626.01	1477.65
626.35	1469.07
626.70	1459.89
627.04	1450.96
627.39	1441.74
627.73	1433.05
628.08	1424.98
628.43	1416.61
628.77	1408.19
629.12	1399.47
629.46	1391.20
629.81	1382.31
630.15	1373.82
630.50	1365.21
630.84	1355.81
631.19	1346.55
631.53	1337.74
631.88	1328.79
632.22	1319.88
632.57	1311.28
632.91	1302.49
633.26	1293.94
633.60	1285.25
633.95	1276.97
634.29	1268.65
634.64	1260.91
634.98	1252.39
635.32	1244.02
635.67	1236.13
636.01	1228.34
636.36	1220.48
636.70	1212.73
637.05	1205.33
637.39	1197.77
637.73	1190.19
638.08	1183.23
638.42	1176.12
638.77	1168.56
639.11	1160.94
639.45	1153.53
639.80	1145.89
640.14	1138.58
640.49	1131.00
640.83	1123.63
641.17	1116.47
641.52	1109.10
641.86	1101.57
642.20	1094.69
642.55	1087.31
642.89	1079.90
643.23	1072.15
643.58	1065.39
643.92	1058.22
644.26	1051.23
644.61	1044.22
644.95	1037.24
645.29	1029.68
645.64	1022.01
645.98	1014.68
646.32	1007.80
646.66	1000.78
647.01	994.09
647.35	987.44
647.69	980.68
648.04	974.28
648.38	967.57
648.72	960.81
649.06	953.83
649.41	947.04
649.75	940.28
650.09	933.42
650.43	926.83
650.78	919.73
651.12	912.91
651.46	906.31
651.80	899.79
652.14	893.54
652.49	887.38
652.83	881.39
653.17	874.97
653.51	868.47
653.85	862.17
654.20	855.68
654.54	848.78
654.88	842.14
655.22	835.37
655.56	828.75
655.90	822.39
656.25	816.38
656.59	810.19
656.93	804.38
657.27	798.56
657.61	792.31
657.95	786.47
658.29	780.62
658.64	774.50
658.98	768.37
659.32	762.17
659.66	756.08
660.00	749.98
660.34	744.28
660.68	738.59
661.02	732.85
661.36	727.48
661.70	722.33
662.05	717.32
662.39	712.41
662.73	707.26
663.07	702.22
663.41	697.11
663.75	691.99
664.09	686.66
664.43	681.53
664.77	676.88
665.11	671.95
665.45	667.16
665.79	662.48
666.13	657.76
666.47	652.98
666.81	648.32
667.15	643.59
667.49	639.00
667.83	634.60
668.17	630.14
668.51	625.50
668.85	620.81
669.19	616.31
669.53	611.86
669.87	607.51
670.21	603.25
670.55	599.07
670.89	595.11
671.23	591.15
671.57	587.06
671.91	582.95
672.25	578.92
672.58	574.87
672.92	570.94
673.26	567.25
673.60	563.65
673.94	560.04
674.28	556.60
674.62	553.21
674.96	549.66
675.30	546.35
675.64	542.94
675.97	539.72
676.31	536.47
676.65	533.11
676.99	529.97
677.33	526.67
677.67	523.40
678.01	520.01
678.34	516.71
678.68	513.40
679.02	510.20
679.36	507.09
679.70	504.00
680.04	500.92
680.37	497.69
680.71	494.48
681.05	491.51
681.39	488.52
681.73	485.53
682.06	482.61
682.40	479.67
682.74	476.72
683.08	473.84
683.42	470.89
683.75	468.06
684.09	465.08
684.43	462.25
684.77	459.40
685.10	456.62
685.44	453.91
685.78	451.33
686.12	448.68
686.45	446.03
686.79	443.36
687.13	440.79
687.46	438.27
687.80	435.78
688.14	433.26
688.48	430.82
688.81	428.26
689.15	425.79
689.49	423.30
689.82	420.94
690.16	418.47
690.50	416.22
690.83	413.93
691.17	411.66
691.51	409.50
691.84	407.43
692.18	405.24
692.52	403.03
692.85	400.77
693.19	398.66
693.52	396.50
693.86	394.42
694.20	392.33
694.53	390.31
694.87	388.19
695.21	386.09
695.54	383.98
695.88	381.97
696.21	380.01
696.55	378.08
696.88	376.13
697.22	374.18
697.56	372.23
697.89	370.42
698.23	368.60
698.56	366.72
698.90	364.87
699.23	363.04
699.57	361.23
699.90	359.48
700.24	357.67
700.58	355.93
700.91	354.23
701.25	352.57
701.58	351.00
701.92	349.44
702.25	347.86
702.59	346.31
702.92	344.76
703.26	343.25
703.59	341.80
703.93	340.41
704.26	339.06
704.60	337.63
704.93	336.10
705.26	334.64
705.60	333.22
705.93	331.86
706.27	330.62
706.60	329.40
706.94	328.14
707.27	326.83
707.61	325.56
707.94	324.34
708.27	323.07
708.61	321.77
708.94	320.59
709.28	319.40
709.61	318.28
709.94	317.15
710.28	315.96
710.61	314.78
710.95	313.57
711.28	312.46
711.61	311.35
711.95	310.27
712.28	309.24
712.61	308.10
712.95	306.99
713.28	305.90
713.61	304.86
713.95	303.84
714.28	302.90
714.61	301.90
714.95	300.91
715.28	299.95
715.61	298.92
715.95	297.93
716.28	296.97
716.61	295.95
716.95	294.98
717.28	294.09
717.61	293.20
717.94	292.32
718.28	291.35
718.61	290.48
718.94	289.70
719.27	288.95
719.61	288.24
719.94	287.51
720.27	286.67
720.60	285.83
720.94	285.11
721.27	284.39
721.60	283.71
721.93	283.00
722.27	282.35
722.60	281.72
722.93	281.02
723.26	280.40
723.59	279.79
723.93	279.18
724.26	278.53
724.59	277.88
724.92	277.27
725.25	276.74
725.59	276.14
725.92	275.50
726.25	274.85
726.58	274.25
726.91	273.68
727.24	273.17
727.57	272.66
727.91	272.04
728.24	271.48
728.57	270.95
728.90	270.45
729.23	269.86
729.56	269.38
729.89	268.88
730.22	268.32
730.55	267.75
730.89	267.26
731.22	266.78
731.55	266.30
731.88	265.79
732.21	265.27
732.54	264.74
732.87	264.29
733.20	263.78
733.53	263.31
733.86	262.85
734.19	262.42
734.52	262.00
734.85	261.68
735.18	261.23
735.51	260.79
735.84	260.35
736.17	259.93
736.50	259.50
736.83	259.21
737.16	258.86
737.49	258.52
737.82	258.15
738.15	257.78
738.48	257.41
738.81	257.07
739.14	256.70
739.47	256.39
739.80	256.03
740.13	255.72
740.46	255.40
740.79	255.06
741.12	254.69
741.45	254.33
741.78	253.92
742.11	253.61
742.44	253.25
742.77	252.96
743.10	252.65
743.43	252.31
743.75	251.88
744.08	251.69
744.41	251.41
744.74	251.10
745.07	250.79
745.40	250.49
745.73	250.23
746.06	249.93
746.39	249.60
746.71	249.30
747.04	249.01
747.37	248.69
747.70	248.40
748.03	248.13
748.36	247.85
748.68	247.58
749.01	247.26
749.34	246.99
749.67	246.71
750.00	246.43
750.33	246.24
750.65	246.00
750.98	245.62
751.31	245.31
751.64	245.01
751.97	244.81
752.29	244.53
752.62	244.22
752.95	243.99
753.28	243.77
753.60	243.53
753.93	243.30
754.26	243.07
754.59	242.81
754.91	242.53
755.24	242.27
755.57	242.06
755.90	241.85
756.22	241.64
756.55	241.42
756.88	241.18
757.20	240.90
757.53	240.68
757.86	240.47
758.19	240.29
758.51	240.11
758.84	239.85
759.17	239.67
759.49	239.49
759.82	239.34
760.15	239.16
760.47	238.99
760.80	238.78
761.13	238.65
761.45	238.46
761.78	238.31
762.11	238.15
762.43	237.98
762.76	237.80
763.08	237.65
763.41	237.47
763.74	237.32
764.06	237.15
764.39	237.00
764.71	236.82
765.04	236.64
765.37	236.48
765.69	236.35
766.02	236.18
766.34	236.04
766.67	235.84
767.00	235.70
767.32	235.63
767.65	235.57
767.97	235.39
768.30	235.28
768.62	235.11
768.95	234.97
769.27	234.83
769.60	234.71
769.92	234.57
770.25	234.43
770.57	234.32
770.90	234.20
771.22	234.08
771.55	233.95
771.87	233.85
772.20	233.76
772.52	233.72
772.85	233.73
773.17	233.59
773.50	233.47
773.82	233.37
774.15	233.20
774.47	233.00
774.80	232.90
775.12	232.80
775.45	232.74
775.77	232.66
776.09	232.55
776.42	232.50
776.74	232.44
777.07	232.36
777.39	232.26
777.72	232.18
778.04	232.10
778.36	232.03
778.69	231.94
779.01	231.86
779.33	231.69
779.66	231.52
779.98	231.47
780.31	231.43
780.63	231.36
780.95	231.33
781.28	231.28
781.60	231.22
781.92	231.11
782.25	231.04
782.57	230.96
782.89	230.89
783.22	230.78
783.54	230.70
783.86	230.66
784.19	230.61
784.51	230.58
784.83	230.50
785.16	230.47
785.48	230.43
785.80	230.37
786.12	230.35
786.45	230.30
786.77	230.22
787.09	230.14
787.42	230.07
787.74	230.04
788.06	229.97
788.38	229.93
788.71	229.88
789.03	229.83
789.35	229.81
789.67	229.78
789.99	229.77
790.32	229.72
790.64	229.66
790.96	229.69
791.28	229.60
791.61	229.53
791.93	229.47
792.25	229.42
792.57	229.46
792.89	229.36
793.21	229.33
793.54	229.31
793.86	229.27
794.18	229.22
794.50	229.13
794.82	229.11
795.14	229.08
795.47	229.05
795.79	229.02
796.11	228.93
796.43	228.88
796.75	228.78
797.07	228.77
797.39	228.71
797.71	228.61
798.04	228.56
798.36	228.55
798.68	228.50
799.00	228.47
799.32	228.37
799.64	228.36
799.96	228.29
800.28	228.26
800.60	228.22
800.92	228.19
801.24	228.14
801.56	228.10
801.89	228.01
802.21	228.01
802.53	227.96
802.85	227.95
803.17	227.96
803.49	227.91
803.81	227.82
804.13	227.80
804.45	227.76
804.77	227.73
805.09	227.67
805.41	227.62
805.73	227.57
806.05	227.50
806.37	227.45
806.69	227.44
807.01	227.39
807.33	227.36
807.65	227.31
807.97	227.31
808.28	227.28
808.60	227.28
808.92	227.21
809.24	227.22
809.56	227.17
809.88	227.10
810.20	227.10
810.52	227.11
810.84	227.07
811.16	227.02
811.48	227.00
811.80	227.00
812.12	226.99
812.43	226.95
812.75	226.95
813.07	226.94
813.39	226.89
813.71	226.84
814.03	226.82
814.35	226.80
814.67	226.73
814.98	226.72
815.30	226.68
815.62	226.66
815.94	226.61
816.26	226.65
816.58	226.62
816.89	226.62
817.21	226.58
817.53	226.58
817.85	226.60
818.17	226.58
818.48	226.53
818.80	226.52
819.12	226.51
819.44	226.47
819.76	226.46
820.07	226.45
820.39	226.46
820.71	226.45
821.03	226.45
821.34	226.47
821.66	226.44
821.98	226.46
822.30	226.48
822.61	226.53
822.93	226.46
823.25	226.44
823.57	226.40
823.88	226.41
824.20	226.39
824.52	226.40
824.83	226.40
825.15	226.37
825.47	226.35
825.79	226.36
826.10	226.37
826.42	226.35
826.74	226.36
827.05	226.34
827.37	226.35
827.69	226.35
828.00	226.35
828.32	226.36
828.64	226.33
828.95	226.37
829.27	226.31
829.58	226.31
829.90	226.35
830.22	226.34
830.53	226.30
830.85	226.30
831.17	226.25
831.48	226.25
831.80	226.29
832.11	226.30
832.43	226.26
832.75	226.26
833.06	226.29
833.38	226.28
833.69	226.30
834.01	226.29
834.32	226.25
834.64	226.20
834.96	226.18
835.27	226.18
835.59	226.15
835.90	226.13
836.22	226.14
836.53	226.08
836.85	226.09
837.16	226.19
837.48	226.17
837.79	226.18
838.11	226.16
838.42	226.14
838.74	226.12
839.05	226.12
839.37	226.12
839.68	226.03
840.00	225.98
840.31	225.95
840.63	225.93
840.94	225.91
841.26	225.93
841.57	225.90
841.88	225.88
842.20	225.81
842.51	225.79
842.83	225.75
843.14	225.86
843.46	225.82
843.77	225.76
844.08	225.75
844.40	225.69
844.71	225.68
845.03	225.66
845.34	225.66
845.65	225.63
845.97	225.61
846.28	225.64
846.60	225.67
846.91	225.66
847.22	225.63
847.54	225.61
847.85	225.64
848.16	225.66
848.48	225.65
848.79	225.70
849.10	225.70
849.42	225.70
849.73	225.59
850.04	225.60
850.36	225.54
850.67	225.56
850.98	225.56
851.30	225.54
851.61	225.54
851.92	225.52
852.23	225.54
852.55	225.54
852.86	225.53
853.17	225.53
853.49	225.54
853.80	225.56
854.11	225.57
854.42	225.51
854.74	225.48
855.05	225.47
855.36	225.39
855.67	225.39
855.99	225.38
856.30	225.48
856.61	225.46
856.92	225.47
857.23	225.46
857.55	225.44
857.86	225.45
858.17	225.45
858.48	225.41
858.79	225.35
859.11	225.34
859.42	225.32
859.73	225.28
860.04	225.27
860.35	225.24
860.66	225.22
860.98	225.22
861.29	225.22
861.60	225.18
861.91	225.20
862.22	225.17
862.53	225.15
862.84	225.03
863.16	225.07
863.47	225.05
863.78	225.02
864.09	225.03
864.40	225.01
864.71	225.01
865.02	225.01
865.33	225.03
865.64	224.99
865.95	225.01
866.27	225.10
866.58	225.07
866.89	225.08
867.20	225.08
867.51	225.04
867.82	225.03
868.13	225.08
868.44	225.04
868.75	225.08
869.06	225.08
869.37	225.07
869.68	225.01
869.99	225.04
870.30	225.05
870.61	225.07
870.92	225.05
871.23	225.05
871.54	225.06
871.85	225.05
872.16	225.10
872.47	225.08
872.78	225.00
873.09	225.04
873.40	225.00
873.71	225.02
874.02	225.08
874.33	225.06
874.64	225.04
874.95	225.08
875.26	225.03
875.56	225.03
875.87	225.06
876.18	225.06
876.49	225.17
876.80	225.15
877.11	225.14
877.42	225.15
877.73	225.16
878.04	225.14
878.35	225.15
878.66	225.14
878.96	225.11
879.27	225.11
879.58	225.10
879.89	225.11
880.20	225.14
880.51	225.11
880.82	225.11
881.12	225.14
881.43	225.11
881.74	225.14
882.05	225.12
882.36	225.13
882.67	225.14
882.97	224.98
883.28	224.99
883.59	225.00
883.90	225.00
884.21	224.98
884.51	225.01
884.82	224.98
885.13	224.99
885.44	225.01
885.74	224.99
886.05	224.98
886.36	224.99
886.67	224.95
886.98	225.02
887.28	225.05
887.59	225.03
887.90	225.05
888.20	225.04
888.51	225.06
888.82	225.02
889.13	225.03
889.43	225.12
889.74	225.12
890.05	225.09
890.35	225.10
890.66	225.06
890.97	225.06
891.28	225.06
891.58	225.06
891.89	225.05
892.20	225.07
892.50	225.06
892.81	225.04
893.12	225.06
893.42	225.01
893.73	225.01
894.04	225.05
894.34	225.06
894.65	225.06
894.95	225.03
895.26	225.07
895.57	225.11
895.87	225.01
896.18	225.05
896.48	225.04
896.79	225.06
897.10	225.09
897.40	225.12
897.71	225.13
898.01	225.12
898.32	225.14
898.63	225.14
898.93	225.13
899.24	225.15
899.54	225.15
899.85	225.12
900.15	225.10
900.46	225.11
900.76	225.12
901.07	225.09
901.38	225.12
901.68	225.09
901.99	225.04
902.29	225.05
902.60	225.03
902.90	225.04
903.21	225.01
903.51	225.03
903.82	225.02
904.12	225.03
904.43	225.04
904.73	225.01
905.03	225.00
905.34	225.10
905.64	225.07
905.95	225.04
906.25	225.06
906.56	225.03
906.86	225.01
907.17	225.00
907.47	225.03
907.77	225.01
908.08	225.00
908.38	225.00
908.69	225.02
908.99	225.03
909.30	225.02
909.60	225.01
909.90	224.99
910.21	224.95
910.51	224.92
910.81	224.90
911.12	224.90
911.42	224.93
911.73	224.82
912.03	224.84
912.33	224.87
912.64	224.83
912.94	224.82
913.24	224.81
913.55	224.77
913.85	224.74
914.15	224.76
914.46	224.74
914.76	224.75
915.06	224.71
915.37	224.67
915.67	224.68
915.97	224.72
916.27	224.69
916.58	224.69
916.88	224.69
917.18	224.69
917.49	224.77
917.79	224.75
918.09	224.75
918.39	224.76
918.70	224.74
919.00	224.74
919.30	224.79
919.60	224.78
919.91	224.77
920.21	224.79
920.51	224.76
920.81	224.80
921.12	224.81
921.42	224.83
921.72	224.81
922.02	224.80
922.32	224.77
922.63	224.74
922.93	224.77
923.23	224.76
923.53	224.77
923.83	224.70
924.13	224.71
924.44	224.68
924.74	224.71
925.04	224.76
925.34	224.81
925.64	224.78
925.94	224.78
926.24	224.85
926.55	224.82
926.85	224.83
927.15	224.82
927.45	224.79
927.75	224.80
928.05	224.84
928.35	224.84
928.65	224.85
928.95	224.91
929.26	224.88
929.56	224.89
929.86	224.91
930.16	224.90
930.46	224.89
930.76	224.93
931.06	224.90
931.36	224.88
931.66	224.87
931.96	224.91
932.26	224.90
932.56	224.85
932.86	224.88
933.16	224.88
933.46	224.87
933.76	224.88
934.06	224.89
934.36	224.92
934.66	224.91
934.96	224.90
935.26	224.89
935.56	224.91
935.86	224.90
936.16	224.90
936.46	224.87
936.76	224.88
937.06	224.88
937.36	224.88
937.66	224.87
937.96	224.86
938.26	224.82
938.56	224.84
938.86	224.85
939.16	224.88
939.46	224.89
939.76	224.90
940.06	224.90
940.35	224.89
940.65	224.85
940.95	224.89
941.25	224.85
941.55	224.85
941.85	224.87
942.15	224.87
942.45	224.88
942.75	224.88
943.04	224.86
943.34	224.88
943.64	224.86
943.94	224.81
944.24	224.81
944.54	224.80
944.84	224.78
945.13	224.77
945.43	224.72
945.73	224.73
946.03	224.71
946.33	224.71
946.62	224.67
946.92	224.65
947.22	224.66
947.52	224.67
947.82	224.68
948.11	224.66
948.41	224.64
948.71	224.60
949.01	224.58
949.31	224.58
949.60	224.57
949.90	224.57
950.20	224.58
950.50	224.56
950.79	224.56
951.09	224.58
951.39	224.57
951.69	224.56
951.98	224.56
952.28	224.54
952.58	224.49
952.87	224.51
953.17	224.49
953.47	224.46
953.76	224.48
954.06	224.44
954.36	224.42
954.66	224.45
954.95	224.49
955.25	224.50
955.55	224.53
955.84	224.50
956.14	224.50
956.44	224.52
956.73	224.54
957.03	224.58
957.32	224.53
957.62	224.55
957.92	224.57
958.21	224.54
958.51	224.68
958.81	224.68
959.10	224.69
959.40	224.72
959.69	224.74
959.99	224.72
960.29	224.72
960.58	224.74
960.88	224.75
961.17	224.73
961.47	224.73
961.76	224.70
962.06	224.72
962.36	224.70
962.65	224.68
962.95	224.65
963.24	224.61
963.54	224.63
963.83	224.61
964.13	224.60
964.42	224.56
964.72	224.47
965.01	224.50
965.31	224.52
965.60	224.50
965.90	224.53
966.19	224.51
966.49	224.52
966.78	224.50
967.08	224.51
967.37	224.50
967.67	224.49
967.96	224.53
968.26	224.53
968.55	224.54
968.85	224.55
969.14	224.54
969.43	224.56
969.73	224.54
970.02	224.55
970.32	224.57
970.61	224.61
970.91	224.58
971.20	224.58
971.49	224.55
971.79	224.55
972.08	224.52
972.38	224.56
972.67	224.57
972.96	224.57
973.26	224.54
973.55	224.59
973.85	224.61
974.14	224.60
974.43	224.62
974.73	224.63
975.02	224.64
975.31	224.63
975.61	224.63
975.90	224.67
976.19	224.63
976.49	224.63
976.78	224.64
977.07	224.64
977.37	224.64
977.66	224.65
977.95	224.66
978.24	224.65
978.54	224.67
978.83	224.67
979.12	224.69
979.42	224.71
979.71	224.69
980.00	224.70
980.29	224.72
980.59	224.71
980.88	224.74
981.17	224.70
981.46	224.70
981.76	224.69
982.05	224.71
982.34	224.76
982.63	224.76
982.93	224.76
983.22	224.77
983.51	224.76
983.80	224.80
984.09	224.79
984.39	224.78
984.68	224.77
984.97	224.77
985.26	224.71
985.55	224.74
985.85	224.68
986.14	224.66
986.43	224.64
986.72	224.62
987.01	224.55
987.30	224.58
987.59	224.58
987.89	224.57
988.18	224.54
988.47	224.49
988.76	224.50
989.05	224.48
989.34	224.48
989.63	224.50
989.92	224.45
990.22	224.42
990.51	224.42
990.80	224.41
991.09	224.39
991.38	224.39
991.67	224.36
991.96	224.35
992.25	224.36
992.54	224.35
992.83	224.33
993.12	224.35
993.41	224.33
993.70	224.35
993.99	224.32
994.28	224.30
994.58	224.32
994.87	224.28
995.16	224.25
995.45	224.23
995.74	224.20
996.03	224.21
996.32	224.25
996.61	224.27
996.90	224.26
997.19	224.27
997.48	224.28
997.77	224.24
998.06	224.24
998.34	224.24
998.63	224.25
998.92	224.27
999.21	224.27
999.50	224.30
999.79	224.28
1000.08	224.30
1000.37	224.31
1000.66	224.28
1000.95	224.35
1001.24	224.37
1001.53	224.36
1001.82	224.36
1002.11	224.36
1002.40	224.36
1002.68	224.38
1002.97	224.43
1003.26	224.44
1003.55	224.44
1003.84	224.48
1004.13	224.54
1004.42	224.49
1004.71	224.52
1004.99	224.51
1005.28	224.56
1005.57	224.54
1005.86	224.57
1006.15	224.60
1006.44	224.60
1006.72	224.64
1007.01	224.60
1007.30	224.61
1007.59	224.62
1007.88	224.62
1008.17	224.60
1008.45	224.58
1008.74	224.57
1009.03	224.54
1009.32	224.51
1009.60	224.52
1009.89	224.51
1010.18	224.51
1010.47	224.51
1010.76	224.49
1011.04	224.51
1011.33	224.49
1011.62	224.52
1011.91	224.51
1012.19	224.49
1012.48	224.52
1012.77	224.51
1013.05	224.56
1013.34	224.57
1013.63	224.56
1013.92	224.55
1014.20	224.55
1014.49	224.55
1014.78	224.53
1015.06	224.49
1015.35	224.52
1015.64	224.53
1015.92	224.53
1016.21	224.54
1016.50	224.58
1016.78	224.58
1017.07	224.60
1017.36	224.60
1017.64	224.55
1017.93	224.57
1018.22	224.58
1018.50	224.58
1018.79	224.57
1019.08	224.53
1019.36	224.57
1019.65	224.59
1019.93	224.62
1020.22	224.65
1020.51	224.70
1020.79	224.70
1021.08	224.69
1021.36	224.62
1021.65	224.48
1021.94	224.59
1022.22	225.22
1022.51	224.75
1022.79	225.01
1023.08	224.48
1023.36	225.47
1023.65	224.19
>>>>>End Processed Spectral Data<<<<<
