SpectraSuite Data File
++++++++++++++++++++++++++++++++++++
Date: Fri Feb 01 15:30:14 EST 2013
User: group
Dark Spectrum Present: No
Reference Spectrum Present: No
Number of Sampled Component Spectra: 1
Spectrometers: USB2E7196
Integration Time (usec): 35000 (USB2E7196)
Spectra Averaged: 100 (USB2E7196)
Boxcar Smoothing: 10 (USB2E7196)
Correct for Electrical Dark: No (USB2E7196)
Strobe/Lamp Enabled: No (USB2E7196)
Correct for Detector Non-linearity: No (USB2E7196)
Correct for Stray Light: No (USB2E7196)
Number of Pixels in Processed Spectrum: 2048
>>>>>Begin Processed Spectral Data<<<<<
339.09	0.00
339.48	215.61
339.86	216.50
340.24	217.83
340.63	219.57
341.01	221.89
341.39	222.05
341.78	223.30
342.16	225.26
342.54	225.30
342.93	213.52
343.31	224.32
343.69	224.84
344.07	225.32
344.46	225.74
344.84	226.12
345.22	226.35
345.60	226.63
345.99	226.82
346.37	226.94
346.75	227.06
347.13	227.13
347.52	227.16
347.90	227.20
348.28	227.20
348.66	227.27
349.05	227.23
349.43	227.27
349.81	227.33
350.19	227.38
350.57	227.41
350.96	227.48
351.34	227.57
351.72	227.64
352.10	227.72
352.48	227.79
352.87	227.81
353.25	227.91
353.63	227.93
354.01	228.00
354.39	228.06
354.77	228.11
355.15	228.23
355.54	228.31
355.92	228.33
356.30	228.44
356.68	228.51
357.06	228.60
357.44	228.62
357.82	228.64
358.20	228.71
358.58	228.78
358.97	228.85
359.35	228.91
359.73	228.98
360.11	229.05
360.49	229.12
360.87	229.16
361.25	229.20
361.63	229.27
362.01	229.29
362.39	229.31
362.77	229.33
363.15	229.36
363.53	229.41
363.91	229.43
364.29	229.44
364.67	229.40
365.05	229.41
365.43	229.46
365.81	229.49
366.19	229.52
366.57	229.57
366.95	229.55
367.33	229.51
367.71	229.52
368.09	229.51
368.47	229.50
368.85	229.49
369.23	229.47
369.61	229.40
369.99	229.42
370.37	229.37
370.75	229.36
371.13	229.26
371.51	229.19
371.89	229.18
372.27	229.15
372.65	229.12
373.03	229.09
373.41	229.04
373.78	228.97
374.16	228.86
374.54	228.78
374.92	228.72
375.30	228.67
375.68	228.58
376.06	228.53
376.44	228.44
376.82	228.39
377.19	228.35
377.57	228.29
377.95	228.19
378.33	228.15
378.71	228.04
379.09	228.03
379.47	227.95
379.84	227.84
380.22	227.76
380.60	227.66
380.98	227.60
381.36	227.53
381.73	227.42
382.11	227.39
382.49	227.32
382.87	227.25
383.25	227.14
383.62	227.20
384.00	227.11
384.38	227.08
384.76	227.03
385.13	227.00
385.51	226.95
385.89	226.91
386.27	226.86
386.64	226.83
387.02	226.78
387.40	226.76
387.78	226.73
388.15	226.69
388.53	226.64
388.91	226.57
389.29	226.55
389.66	226.59
390.04	226.54
390.42	226.55
390.79	226.53
391.17	226.54
391.55	226.43
391.92	226.39
392.30	226.36
392.68	226.37
393.05	226.36
393.43	226.36
393.81	226.36
394.18	226.36
394.56	226.38
394.94	226.41
395.31	226.42
395.69	226.50
396.06	226.53
396.44	226.60
396.82	226.64
397.19	226.70
397.57	226.74
397.95	226.82
398.32	226.83
398.70	226.88
399.07	226.96
399.45	227.02
399.82	227.12
400.20	227.19
400.58	227.21
400.95	227.27
401.33	227.38
401.70	227.52
402.08	227.60
402.45	227.65
402.83	227.77
403.20	227.91
403.58	228.00
403.95	228.14
404.33	228.27
404.71	228.41
405.08	228.60
405.46	228.70
405.83	228.82
406.21	228.96
406.58	229.14
406.96	229.29
407.33	229.46
407.70	229.66
408.08	229.93
408.45	230.21
408.83	230.44
409.20	230.64
409.58	230.84
409.95	231.11
410.33	231.45
410.70	231.68
411.08	231.97
411.45	232.28
411.82	232.58
412.20	232.93
412.57	233.35
412.95	233.65
413.32	234.06
413.69	234.49
414.07	234.91
414.44	235.38
414.82	235.89
415.19	236.45
415.56	236.97
415.94	237.53
416.31	238.14
416.68	238.78
417.06	239.50
417.43	240.19
417.81	240.96
418.18	241.71
418.55	242.59
418.93	243.45
419.30	244.32
419.67	245.23
420.04	246.22
420.42	247.21
420.79	248.41
421.16	249.58
421.54	250.78
421.91	252.03
422.28	253.30
422.66	254.63
423.03	255.94
423.40	257.28
423.77	258.65
424.15	260.05
424.52	261.57
424.89	263.16
425.26	264.68
425.64	266.12
426.01	267.70
426.38	269.31
426.75	271.01
427.13	272.77
427.50	274.61
427.87	276.52
428.24	278.37
428.61	280.10
428.99	282.04
429.36	284.19
429.73	286.28
430.10	288.29
430.47	290.34
430.85	292.45
431.22	294.70
431.59	297.13
431.96	299.42
432.33	301.91
432.70	304.33
433.08	307.20
433.45	309.90
433.82	312.52
434.19	315.44
434.56	318.23
434.93	320.91
435.30	323.58
435.68	326.42
436.05	329.33
436.42	332.17
436.79	334.72
437.16	337.42
437.53	340.28
437.90	343.09
438.27	345.90
438.64	348.78
439.01	351.40
439.38	353.67
439.75	355.82
440.13	358.31
440.50	360.62
440.87	362.45
441.24	364.39
441.61	366.60
441.98	368.06
442.35	369.85
442.72	371.69
443.09	373.48
443.46	374.46
443.83	374.99
444.20	375.48
444.57	376.29
444.94	376.57
445.31	376.83
445.68	377.20
446.05	377.23
446.42	376.81
446.79	376.41
447.16	375.92
447.53	375.62
447.90	374.45
448.27	373.26
448.64	371.65
449.01	370.47
449.37	368.48
449.74	366.60
450.11	364.35
450.48	361.85
450.85	359.31
451.22	357.18
451.59	355.21
451.96	353.24
452.33	350.61
452.70	348.20
453.07	345.38
453.43	342.47
453.80	339.64
454.17	336.95
454.54	334.40
454.91	331.67
455.28	328.97
455.65	326.46
456.02	324.03
456.38	321.85
456.75	319.18
457.12	316.91
457.49	314.69
457.86	312.51
458.23	310.70
458.59	308.65
458.96	306.56
459.33	304.67
459.70	302.82
460.07	301.32
460.43	299.60
460.80	298.01
461.17	296.58
461.54	295.12
461.91	293.67
462.27	292.18
462.64	290.90
463.01	289.58
463.38	288.28
463.74	286.90
464.11	285.77
464.48	284.75
464.85	283.66
465.21	282.76
465.58	281.83
465.95	280.69
466.32	279.77
466.68	278.88
467.05	277.96
467.42	277.08
467.78	276.16
468.15	275.28
468.52	274.58
468.88	273.72
469.25	272.95
469.62	272.36
469.98	271.68
470.35	271.08
470.72	270.46
471.08	269.80
471.45	269.26
471.82	268.70
472.18	268.08
472.55	267.62
472.92	267.13
473.28	266.67
473.65	266.24
474.02	265.79
474.38	265.39
474.75	265.02
475.11	264.65
475.48	264.39
475.85	264.19
476.21	263.97
476.58	263.75
476.94	263.58
477.31	263.37
477.67	263.21
478.04	263.09
478.41	263.03
478.77	263.06
479.14	263.00
479.50	263.01
479.87	263.09
480.23	263.17
480.60	263.21
480.96	263.29
481.33	263.50
481.69	263.67
482.06	263.90
482.42	264.13
482.79	264.37
483.15	264.70
483.52	265.04
483.88	265.38
484.25	265.79
484.61	266.22
484.98	266.69
485.34	267.25
485.71	267.82
486.07	268.43
486.44	268.99
486.80	269.66
487.17	270.36
487.53	271.23
487.90	272.06
488.26	273.01
488.62	273.99
488.99	274.98
489.35	276.03
489.72	277.11
490.08	278.30
490.44	279.54
490.81	280.83
491.17	282.17
491.54	283.67
491.90	285.19
492.26	286.86
492.63	288.58
492.99	290.35
493.36	292.20
493.72	294.23
494.08	296.31
494.45	298.56
494.81	301.00
495.17	303.41
495.54	305.98
495.90	308.64
496.26	311.49
496.63	314.42
496.99	317.56
497.35	320.84
497.72	324.28
498.08	327.82
498.44	331.51
498.80	335.48
499.17	339.54
499.53	343.73
499.89	348.07
500.26	352.60
500.62	357.29
500.98	362.29
501.34	367.33
501.71	372.69
502.07	378.19
502.43	383.75
502.79	389.58
503.16	395.65
503.52	401.96
503.88	408.36
504.24	414.98
504.60	421.86
504.97	429.00
505.33	436.29
505.69	443.99
506.05	451.77
506.41	459.66
506.78	467.76
507.14	476.19
507.50	484.96
507.86	493.99
508.22	503.23
508.59	512.44
508.95	522.04
509.31	531.85
509.67	541.97
510.03	552.25
510.39	562.82
510.75	573.61
511.12	584.59
511.48	595.94
511.84	607.46
512.20	619.08
512.56	631.07
512.92	643.25
513.28	655.56
513.64	668.10
514.00	680.77
514.37	693.74
514.73	706.83
515.09	719.82
515.45	733.12
515.81	746.67
516.17	760.73
516.53	774.91
516.89	789.13
517.25	803.23
517.61	817.71
517.97	832.19
518.33	846.72
518.69	861.47
519.05	876.51
519.41	891.66
519.77	907.14
520.13	922.62
520.49	938.04
520.85	953.50
521.21	969.25
521.57	985.57
521.93	1001.46
522.29	1017.89
522.65	1034.23
523.01	1050.51
523.37	1066.60
523.73	1082.82
524.09	1098.93
524.45	1115.31
524.81	1132.06
525.17	1148.96
525.53	1165.94
525.89	1182.80
526.25	1199.60
526.61	1215.93
526.97	1232.76
527.33	1249.24
527.68	1265.86
528.04	1282.50
528.40	1299.32
528.76	1316.32
529.12	1332.96
529.48	1349.91
529.84	1365.98
530.20	1382.69
530.56	1399.69
530.91	1417.11
531.27	1433.86
531.63	1450.45
531.99	1467.17
532.35	1483.24
532.71	1499.05
533.07	1515.29
533.42	1531.28
533.78	1547.50
534.14	1563.96
534.50	1579.40
534.86	1595.42
535.21	1610.73
535.57	1626.64
535.93	1642.08
536.29	1657.04
536.65	1672.25
537.00	1687.06
537.36	1702.50
537.72	1717.10
538.08	1731.58
538.44	1745.53
538.79	1759.51
539.15	1773.28
539.51	1786.86
539.87	1801.14
540.22	1815.04
540.58	1828.85
540.94	1842.32
541.29	1855.24
541.65	1867.90
542.01	1881.21
542.37	1893.54
542.72	1905.97
543.08	1917.77
543.44	1930.23
543.79	1941.40
544.15	1952.37
544.51	1963.95
544.87	1974.86
545.22	1985.64
545.58	1995.97
545.94	2005.78
546.29	2015.73
546.65	2025.44
547.01	2034.75
547.36	2043.66
547.72	2052.12
548.07	2060.03
548.43	2068.21
548.79	2076.30
549.14	2083.91
549.50	2091.24
549.86	2099.02
550.21	2106.42
550.57	2113.70
550.92	2120.25
551.28	2127.44
551.64	2134.45
551.99	2141.05
552.35	2147.29
552.70	2153.45
553.06	2159.47
553.41	2165.76
553.77	2171.78
554.13	2177.98
554.48	2184.19
554.84	2189.49
555.19	2194.74
555.55	2199.90
555.90	2204.25
556.26	2209.01
556.61	2213.70
556.97	2217.94
557.32	2221.96
557.68	2226.11
558.03	2230.36
558.39	2234.17
558.74	2238.76
559.10	2242.64
559.45	2246.24
559.81	2250.61
560.16	2254.39
560.52	2257.72
560.87	2261.18
561.23	2263.83
561.58	2266.77
561.94	2269.21
562.29	2271.70
562.64	2274.46
563.00	2277.04
563.35	2280.63
563.71	2283.81
564.06	2286.91
564.42	2289.70
564.77	2292.22
565.12	2294.37
565.48	2296.09
565.83	2297.87
566.19	2299.10
566.54	2300.05
566.89	2301.12
567.25	2301.55
567.60	2302.85
567.96	2304.37
568.31	2305.20
568.66	2306.29
569.02	2306.72
569.37	2307.02
569.72	2307.79
570.08	2307.89
570.43	2307.80
570.78	2307.11
571.14	2305.57
571.49	2304.30
571.84	2303.92
572.20	2302.66
572.55	2301.45
572.90	2300.06
573.26	2298.74
573.61	2297.14
573.96	2295.20
574.31	2292.23
574.67	2289.13
575.02	2285.51
575.37	2282.03
575.72	2278.15
576.08	2274.68
576.43	2271.41
576.78	2267.73
577.13	2264.53
577.49	2261.46
577.84	2257.96
578.19	2254.18
578.54	2250.41
578.90	2246.12
579.25	2240.50
579.60	2235.53
579.95	2230.57
580.30	2225.27
580.66	2219.81
581.01	2214.71
581.36	2209.69
581.71	2205.36
582.06	2200.90
582.42	2196.38
582.77	2191.04
583.12	2186.33
583.47	2181.44
583.82	2176.17
584.17	2170.78
584.53	2165.12
584.88	2159.19
585.23	2153.24
585.58	2147.71
585.93	2142.24
586.28	2137.41
586.63	2132.31
586.98	2127.25
587.34	2122.58
587.69	2117.81
588.04	2112.57
588.39	2106.87
588.74	2100.45
589.09	2094.22
589.44	2087.30
589.79	2081.17
590.14	2075.50
590.49	2068.91
590.84	2062.54
591.19	2056.58
591.54	2050.17
591.89	2042.62
592.25	2035.94
592.60	2028.84
592.95	2021.10
593.30	2013.65
593.65	2005.96
594.00	1998.80
594.35	1991.43
594.70	1983.37
595.05	1976.05
595.40	1968.70
595.75	1960.96
596.10	1954.65
596.45	1947.78
596.80	1941.63
597.15	1934.92
597.50	1927.67
597.85	1921.24
598.19	1914.50
598.54	1907.35
598.89	1900.59
599.24	1894.84
599.59	1887.97
599.94	1881.66
600.29	1875.38
600.64	1868.79
600.99	1861.27
601.34	1854.43
601.69	1847.28
602.04	1839.97
602.39	1832.62
602.74	1825.82
603.08	1819.17
603.43	1812.38
603.78	1805.14
604.13	1797.81
604.48	1790.49
604.83	1783.66
605.18	1776.58
605.53	1768.60
605.87	1760.57
606.22	1753.40
606.57	1745.51
606.92	1738.16
607.27	1731.04
607.62	1724.10
607.96	1716.73
608.31	1710.10
608.66	1702.47
609.01	1694.97
609.36	1687.61
609.70	1679.60
610.05	1671.40
610.40	1663.66
610.75	1655.35
611.10	1647.84
611.44	1639.56
611.79	1631.62
612.14	1623.09
612.49	1614.05
612.83	1605.73
613.18	1597.72
613.53	1589.52
613.88	1580.98
614.22	1572.88
614.57	1564.16
614.92	1556.04
615.27	1548.43
615.61	1540.08
615.96	1531.98
616.31	1524.34
616.65	1516.96
617.00	1509.29
617.35	1501.66
617.70	1493.31
618.04	1484.81
618.39	1476.43
618.74	1468.81
619.08	1460.45
619.43	1452.78
619.78	1445.86
620.12	1438.61
620.47	1431.05
620.82	1422.92
621.16	1415.45
621.51	1407.77
621.85	1400.23
622.20	1391.78
622.55	1383.49
622.89	1375.72
623.24	1368.22
623.59	1360.92
623.93	1353.43
624.28	1346.25
624.62	1338.72
624.97	1331.55
625.32	1324.81
625.66	1317.80
626.01	1310.48
626.35	1302.94
626.70	1295.19
627.04	1287.33
627.39	1279.57
627.73	1272.17
628.08	1265.28
628.43	1257.90
628.77	1250.40
629.12	1242.78
629.46	1235.60
629.81	1228.21
630.15	1220.84
630.50	1213.39
630.84	1205.22
631.19	1197.35
631.53	1189.81
631.88	1182.30
632.22	1174.66
632.57	1167.36
632.91	1159.85
633.26	1152.44
633.60	1145.28
633.95	1138.24
634.29	1131.27
634.64	1124.57
634.98	1117.20
635.32	1110.02
635.67	1103.52
636.01	1097.02
636.36	1090.28
636.70	1083.74
637.05	1077.14
637.39	1070.74
637.73	1064.21
638.08	1058.30
638.42	1052.23
638.77	1045.75
639.11	1039.09
639.45	1032.72
639.80	1026.01
640.14	1019.48
640.49	1012.99
640.83	1006.61
641.17	1000.29
641.52	994.01
641.86	987.62
642.20	981.71
642.55	975.41
642.89	968.80
643.23	962.27
643.58	956.44
643.92	950.26
644.26	944.15
644.61	938.16
644.95	932.17
645.29	925.55
645.64	918.88
645.98	912.58
646.32	906.78
646.66	900.80
647.01	895.05
647.35	889.43
647.69	883.64
648.04	878.12
648.38	872.38
648.72	866.31
649.06	860.21
649.41	854.36
649.75	848.35
650.09	842.40
650.43	836.56
650.78	830.38
651.12	824.48
651.46	818.75
651.80	813.00
652.14	807.58
652.49	802.29
652.83	797.10
653.17	791.41
653.51	785.66
653.85	780.26
654.20	774.61
654.54	768.61
654.88	762.83
655.22	756.89
655.56	751.22
655.90	745.70
656.25	740.39
656.59	735.01
656.93	729.95
657.27	724.86
657.61	719.38
657.95	714.33
658.29	709.15
658.64	703.95
658.98	698.61
659.32	693.12
659.66	687.83
660.00	682.42
660.34	677.48
660.68	672.60
661.02	667.56
661.36	662.77
661.70	658.32
662.05	653.94
662.39	649.59
662.73	645.11
663.07	640.76
663.41	636.34
663.75	631.84
664.09	627.28
664.43	622.89
664.77	618.80
665.11	614.52
665.45	610.48
665.79	606.40
666.13	602.25
666.47	598.12
666.81	593.99
667.15	589.90
667.49	586.02
667.83	582.19
668.17	578.25
668.51	574.22
668.85	570.10
669.19	566.30
669.53	562.51
669.87	558.63
670.21	554.94
670.55	551.31
670.89	547.92
671.23	544.51
671.57	540.99
671.91	537.49
672.25	534.06
672.58	530.53
672.92	527.16
673.26	524.07
673.60	520.99
673.94	517.84
674.28	515.01
674.62	511.99
674.96	508.87
675.30	505.98
675.64	503.00
675.97	500.28
676.31	497.39
676.65	494.39
676.99	491.69
677.33	488.81
677.67	486.00
678.01	482.93
678.34	479.94
678.68	477.06
679.02	474.19
679.36	471.43
679.70	468.73
680.04	465.93
680.37	463.05
680.71	460.23
681.05	457.64
681.39	454.93
681.73	452.33
682.06	449.82
682.40	447.29
682.74	444.82
683.08	442.24
683.42	439.71
683.75	437.22
684.09	434.68
684.43	432.25
684.77	429.78
685.10	427.44
685.44	425.16
685.78	422.86
686.12	420.67
686.45	418.34
686.79	416.01
687.13	413.85
687.46	411.66
687.80	409.52
688.14	407.33
688.48	405.26
688.81	402.99
689.15	400.82
689.49	398.65
689.82	396.55
690.16	394.46
690.50	392.45
690.83	390.54
691.17	388.55
691.51	386.62
691.84	384.80
692.18	382.88
692.52	380.88
692.85	378.98
693.19	377.07
693.52	375.26
693.86	373.46
694.20	371.69
694.53	369.89
694.87	368.07
695.21	366.29
695.54	364.42
695.88	362.75
696.21	361.07
696.55	359.43
696.88	357.79
697.22	356.16
697.56	354.59
697.89	352.94
698.23	351.32
698.56	349.72
698.90	348.09
699.23	346.47
699.57	344.92
699.90	343.38
700.24	341.87
700.58	340.31
700.91	338.78
701.25	337.33
701.58	335.99
701.92	334.63
702.25	333.25
702.59	331.91
702.92	330.57
703.26	329.25
703.59	327.95
703.93	326.75
704.26	325.56
704.60	324.23
704.93	322.97
705.26	321.74
705.60	320.57
705.93	319.41
706.27	318.37
706.60	317.31
706.94	316.21
707.27	315.09
707.61	314.04
707.94	313.09
708.27	312.02
708.61	310.94
708.94	309.91
709.28	308.96
709.61	308.02
709.94	307.13
710.28	306.11
710.61	305.12
710.95	304.10
711.28	303.15
711.61	302.23
711.95	301.31
712.28	300.40
712.61	299.41
712.95	298.50
713.28	297.58
713.61	296.69
713.95	295.84
714.28	294.95
714.61	294.10
714.95	293.19
715.28	292.30
715.61	291.42
715.95	290.58
716.28	289.70
716.61	288.82
716.95	287.94
717.28	287.23
717.61	286.49
717.94	285.69
718.28	284.86
718.61	284.12
718.94	283.42
719.27	282.75
719.61	282.11
719.94	281.44
720.27	280.75
720.60	280.10
720.94	279.45
721.27	278.87
721.60	278.26
721.93	277.69
722.27	277.17
722.60	276.60
722.93	276.01
723.26	275.44
723.59	274.88
723.93	274.35
724.26	273.76
724.59	273.20
724.92	272.71
725.25	272.21
725.59	271.71
725.92	271.19
726.25	270.66
726.58	270.20
726.91	269.74
727.24	269.23
727.57	268.76
727.91	268.27
728.24	267.80
728.57	267.31
728.90	266.86
729.23	266.35
729.56	265.94
729.89	265.51
730.22	265.07
730.55	264.64
730.89	264.19
731.22	263.79
731.55	263.33
731.88	262.90
732.21	262.48
732.54	262.06
732.87	261.64
733.20	261.24
733.53	260.80
733.86	260.36
734.19	259.95
734.52	259.55
734.85	259.24
735.18	258.85
735.51	258.52
735.84	258.19
736.17	257.83
736.50	257.43
736.83	257.20
737.16	256.88
737.49	256.56
737.82	256.19
738.15	255.85
738.48	255.51
738.81	255.16
739.14	254.79
739.47	254.47
739.80	254.13
740.13	253.84
740.46	253.55
740.79	253.27
741.12	253.01
741.45	252.68
741.78	252.31
742.11	252.02
742.44	251.68
742.77	251.37
743.10	251.07
743.43	250.76
743.75	250.36
744.08	250.17
744.41	249.92
744.74	249.61
745.07	249.31
745.40	249.08
745.73	248.87
746.06	248.62
746.39	248.32
746.71	248.04
747.04	247.74
747.37	247.47
747.70	247.21
748.03	246.92
748.36	246.70
748.68	246.48
749.01	246.21
749.34	246.00
749.67	245.78
750.00	245.57
750.33	245.44
750.65	245.26
750.98	244.92
751.31	244.65
751.64	244.49
751.97	244.37
752.29	244.15
752.62	243.88
752.95	243.67
753.28	243.45
753.60	243.29
753.93	243.15
754.26	242.95
754.59	242.71
754.91	242.53
755.24	242.34
755.57	242.17
755.90	241.98
756.22	241.75
756.55	241.55
756.88	241.36
757.20	241.10
757.53	240.85
757.86	240.68
758.19	240.57
758.51	240.41
758.84	240.18
759.17	240.01
759.49	239.88
759.82	239.82
760.15	239.67
760.47	239.52
760.80	239.34
761.13	239.21
761.45	239.08
761.78	238.95
762.11	238.81
762.43	238.65
762.76	238.56
763.08	238.47
763.41	238.33
763.74	238.20
764.06	238.07
764.39	237.93
764.71	237.81
765.04	237.66
765.37	237.49
765.69	237.34
766.02	237.23
766.34	237.08
766.67	236.92
767.00	236.83
767.32	236.77
767.65	236.73
767.97	236.60
768.30	236.48
768.62	236.36
768.95	236.24
769.27	236.12
769.60	235.97
769.92	235.87
770.25	235.76
770.57	235.62
770.90	235.52
771.22	235.41
771.55	235.30
771.87	235.21
772.20	235.12
772.52	235.11
772.85	235.12
773.17	235.04
773.50	234.91
773.82	234.78
774.15	234.63
774.47	234.48
774.80	234.39
775.12	234.30
775.45	234.24
775.77	234.16
776.09	234.10
776.42	234.04
776.74	233.93
777.07	233.81
777.39	233.76
777.72	233.67
778.04	233.63
778.36	233.57
778.69	233.46
779.01	233.39
779.33	233.25
779.66	233.05
779.98	232.95
780.31	232.89
780.63	232.85
780.95	232.79
781.28	232.69
781.60	232.61
781.92	232.56
782.25	232.47
782.57	232.41
782.89	232.33
783.22	232.25
783.54	232.15
783.86	232.14
784.19	232.05
784.51	232.04
784.83	231.98
785.16	231.92
785.48	231.87
785.80	231.80
786.12	231.75
786.45	231.72
786.77	231.72
787.09	231.66
787.42	231.62
787.74	231.59
788.06	231.55
788.38	231.52
788.71	231.48
789.03	231.46
789.35	231.45
789.67	231.42
789.99	231.38
790.32	231.40
790.64	231.34
790.96	231.39
791.28	231.31
791.61	231.27
791.93	231.23
792.25	231.19
792.57	231.22
792.89	231.17
793.21	231.14
793.54	231.09
793.86	231.07
794.18	231.01
794.50	230.95
794.82	230.92
795.14	230.85
795.47	230.82
795.79	230.77
796.11	230.69
796.43	230.66
796.75	230.63
797.07	230.57
797.39	230.55
797.71	230.47
798.04	230.42
798.36	230.39
798.68	230.36
799.00	230.34
799.32	230.28
799.64	230.24
799.96	230.20
800.28	230.18
800.60	230.17
800.92	230.16
801.24	230.13
801.56	230.14
801.89	230.16
802.21	230.17
802.53	230.14
802.85	230.13
803.17	230.13
803.49	230.11
803.81	230.09
804.13	230.01
804.45	229.99
804.77	230.00
805.09	229.98
805.41	229.96
805.73	229.90
806.05	229.88
806.37	229.84
806.69	229.82
807.01	229.77
807.33	229.71
807.65	229.66
807.97	229.69
808.28	229.62
808.60	229.57
808.92	229.49
809.24	229.51
809.56	229.47
809.88	229.39
810.20	229.35
810.52	229.35
810.84	229.33
811.16	229.26
811.48	229.21
811.80	229.21
812.12	229.17
812.43	229.16
812.75	229.15
813.07	229.15
813.39	229.14
813.71	229.12
814.03	229.14
814.35	229.11
814.67	229.05
814.98	229.04
815.30	229.02
815.62	228.99
815.94	228.89
816.26	228.93
816.58	228.91
816.89	228.91
817.21	228.87
817.53	228.86
817.85	228.86
818.17	228.84
818.48	228.79
818.80	228.78
819.12	228.75
819.44	228.68
819.76	228.67
820.07	228.65
820.39	228.63
820.71	228.59
821.03	228.61
821.34	228.60
821.66	228.58
821.98	228.57
822.30	228.56
822.61	228.64
822.93	228.58
823.25	228.55
823.57	228.54
823.88	228.54
824.20	228.52
824.52	228.53
824.83	228.52
825.15	228.54
825.47	228.52
825.79	228.50
826.10	228.48
826.42	228.45
826.74	228.45
827.05	228.42
827.37	228.43
827.69	228.40
828.00	228.38
828.32	228.41
828.64	228.39
828.95	228.45
829.27	228.40
829.58	228.39
829.90	228.41
830.22	228.42
830.53	228.35
830.85	228.33
831.17	228.31
831.48	228.31
831.80	228.28
832.11	228.30
832.43	228.28
832.75	228.31
833.06	228.37
833.38	228.34
833.69	228.35
834.01	228.31
834.32	228.29
834.64	228.29
834.96	228.25
835.27	228.26
835.59	228.22
835.90	228.19
836.22	228.19
836.53	228.17
836.85	228.14
837.16	228.26
837.48	228.27
837.79	228.27
838.11	228.23
838.42	228.23
838.74	228.25
839.05	228.27
839.37	228.25
839.68	228.17
840.00	228.16
840.31	228.18
840.63	228.20
840.94	228.17
841.26	228.13
841.57	228.14
841.88	228.14
842.20	228.12
842.51	228.15
842.83	228.13
843.14	228.19
843.46	228.14
843.77	228.04
844.08	228.03
844.40	228.00
844.71	228.03
845.03	228.01
845.34	227.95
845.65	227.95
845.97	227.94
846.28	227.95
846.60	227.96
846.91	227.90
847.22	227.87
847.54	227.91
847.85	227.89
848.16	227.86
848.48	227.82
848.79	227.85
849.10	227.80
849.42	227.78
849.73	227.69
850.04	227.73
850.36	227.70
850.67	227.70
850.98	227.68
851.30	227.67
851.61	227.67
851.92	227.69
852.23	227.68
852.55	227.65
852.86	227.65
853.17	227.65
853.49	227.66
853.80	227.68
854.11	227.71
854.42	227.75
854.74	227.76
855.05	227.75
855.36	227.71
855.67	227.71
855.99	227.72
856.30	227.83
856.61	227.82
856.92	227.84
857.23	227.86
857.55	227.84
857.86	227.82
858.17	227.83
858.48	227.83
858.79	227.81
859.11	227.83
859.42	227.78
859.73	227.76
860.04	227.75
860.35	227.73
860.66	227.65
860.98	227.64
861.29	227.64
861.60	227.62
861.91	227.62
862.22	227.62
862.53	227.62
862.84	227.52
863.16	227.54
863.47	227.51
863.78	227.47
864.09	227.51
864.40	227.53
864.71	227.53
865.02	227.50
865.33	227.50
865.64	227.51
865.95	227.55
866.27	227.62
866.58	227.62
866.89	227.63
867.20	227.66
867.51	227.63
867.82	227.64
868.13	227.65
868.44	227.67
868.75	227.66
869.06	227.65
869.37	227.65
869.68	227.61
869.99	227.63
870.30	227.66
870.61	227.65
870.92	227.63
871.23	227.61
871.54	227.66
871.85	227.69
872.16	227.66
872.47	227.67
872.78	227.59
873.09	227.60
873.40	227.57
873.71	227.57
874.02	227.58
874.33	227.57
874.64	227.58
874.95	227.58
875.26	227.56
875.56	227.53
875.87	227.51
876.18	227.52
876.49	227.61
876.80	227.56
877.11	227.51
877.42	227.49
877.73	227.51
878.04	227.50
878.35	227.49
878.66	227.49
878.96	227.44
879.27	227.45
879.58	227.41
879.89	227.41
880.20	227.43
880.51	227.43
880.82	227.42
881.12	227.42
881.43	227.38
881.74	227.37
882.05	227.38
882.36	227.38
882.67	227.39
882.97	227.28
883.28	227.28
883.59	227.31
883.90	227.34
884.21	227.32
884.51	227.30
884.82	227.29
885.13	227.30
885.44	227.30
885.74	227.29
886.05	227.32
886.36	227.34
886.67	227.28
886.98	227.29
887.28	227.29
887.59	227.27
887.90	227.28
888.20	227.30
888.51	227.32
888.82	227.30
889.13	227.31
889.43	227.43
889.74	227.44
890.05	227.44
890.35	227.44
890.66	227.41
890.97	227.37
891.28	227.35
891.58	227.35
891.89	227.38
892.20	227.37
892.50	227.35
892.81	227.35
893.12	227.35
893.42	227.32
893.73	227.32
894.04	227.33
894.34	227.35
894.65	227.33
894.95	227.34
895.26	227.36
895.57	227.38
895.87	227.27
896.18	227.29
896.48	227.28
896.79	227.27
897.10	227.32
897.40	227.35
897.71	227.35
898.01	227.34
898.32	227.35
898.63	227.33
898.93	227.33
899.24	227.35
899.54	227.36
899.85	227.37
900.15	227.30
900.46	227.31
900.76	227.30
901.07	227.28
901.38	227.29
901.68	227.27
901.99	227.26
902.29	227.24
902.60	227.23
902.90	227.22
903.21	227.24
903.51	227.19
903.82	227.22
904.12	227.24
904.43	227.27
904.73	227.23
905.03	227.26
905.34	227.35
905.64	227.31
905.95	227.34
906.25	227.32
906.56	227.36
906.86	227.35
907.17	227.36
907.47	227.34
907.77	227.32
908.08	227.32
908.38	227.31
908.69	227.37
908.99	227.40
909.30	227.43
909.60	227.41
909.90	227.46
910.21	227.39
910.51	227.34
910.81	227.29
911.12	227.30
911.42	227.29
911.73	227.19
912.03	227.18
912.33	227.16
912.64	227.15
912.94	227.14
913.24	227.12
913.55	227.10
913.85	227.12
914.15	227.13
914.46	227.11
914.76	227.10
915.06	227.05
915.37	227.02
915.67	226.97
915.97	226.96
916.27	226.94
916.58	226.98
916.88	227.01
917.18	227.02
917.49	227.09
917.79	227.08
918.09	227.11
918.39	227.17
918.70	227.15
919.00	227.16
919.30	227.22
919.60	227.20
919.91	227.18
920.21	227.17
920.51	227.15
920.81	227.15
921.12	227.16
921.42	227.13
921.72	227.13
922.02	227.17
922.32	227.19
922.63	227.15
922.93	227.19
923.23	227.18
923.53	227.20
923.83	227.11
924.13	227.12
924.44	227.11
924.74	227.05
925.04	227.05
925.34	227.03
925.64	226.99
925.94	226.99
926.24	227.08
926.55	227.09
926.85	227.10
927.15	227.09
927.45	227.09
927.75	227.13
928.05	227.14
928.35	227.12
928.65	227.13
928.95	227.17
929.26	227.14
929.56	227.16
929.86	227.15
930.16	227.16
930.46	227.15
930.76	227.16
931.06	227.13
931.36	227.13
931.66	227.13
931.96	227.14
932.26	227.15
932.56	227.07
932.86	227.09
933.16	227.06
933.46	227.05
933.76	227.05
934.06	227.07
934.36	227.09
934.66	227.07
934.96	227.06
935.26	227.07
935.56	227.06
935.86	227.06
936.16	227.09
936.46	227.10
936.76	227.10
937.06	227.05
937.36	227.12
937.66	227.13
937.96	227.17
938.26	227.17
938.56	227.17
938.86	227.20
939.16	227.18
939.46	227.22
939.76	227.27
940.06	227.27
940.35	227.21
940.65	227.19
940.95	227.22
941.25	227.18
941.55	227.13
941.85	227.14
942.15	227.16
942.45	227.13
942.75	227.10
943.04	227.12
943.34	227.18
943.64	227.14
943.94	227.11
944.24	227.07
944.54	227.08
944.84	227.10
945.13	227.07
945.43	227.06
945.73	227.06
946.03	227.02
946.33	226.97
946.62	226.97
946.92	226.97
947.22	226.94
947.52	226.94
947.82	226.98
948.11	226.96
948.41	226.91
948.71	226.91
949.01	226.91
949.31	226.91
949.60	226.88
949.90	226.92
950.20	226.92
950.50	226.93
950.79	226.90
951.09	226.88
951.39	226.88
951.69	226.89
951.98	226.88
952.28	226.88
952.58	226.90
952.87	226.88
953.17	226.87
953.47	226.86
953.76	226.85
954.06	226.84
954.36	226.82
954.66	226.81
954.95	226.82
955.25	226.81
955.55	226.81
955.84	226.79
956.14	226.79
956.44	226.80
956.73	226.80
957.03	226.83
957.32	226.82
957.62	226.82
957.92	226.86
958.21	226.85
958.51	226.97
958.81	227.00
959.10	227.03
959.40	227.03
959.69	227.00
959.99	227.01
960.29	226.99
960.58	227.01
960.88	227.03
961.17	227.01
961.47	227.03
961.76	227.01
962.06	227.04
962.36	227.02
962.65	227.03
962.95	227.02
963.24	226.97
963.54	226.97
963.83	226.97
964.13	226.93
964.42	226.91
964.72	226.86
965.01	226.81
965.31	226.81
965.60	226.81
965.90	226.91
966.19	226.90
966.49	226.91
966.78	226.89
967.08	226.91
967.37	226.92
967.67	226.91
967.96	226.93
968.26	226.94
968.55	226.95
968.85	226.95
969.14	226.96
969.43	227.00
969.73	227.00
970.02	226.96
970.32	226.99
970.61	227.01
970.91	226.98
971.20	227.00
971.49	227.01
971.79	227.00
972.08	226.92
972.38	226.94
972.67	226.94
972.96	226.95
973.26	226.93
973.55	226.96
973.85	226.98
974.14	227.00
974.43	227.00
974.73	227.01
975.02	227.01
975.31	227.01
975.61	227.02
975.90	227.03
976.19	227.07
976.49	227.06
976.78	227.08
977.07	227.10
977.37	227.15
977.66	227.18
977.95	227.21
978.24	227.24
978.54	227.29
978.83	227.29
979.12	227.30
979.42	227.32
979.71	227.30
980.00	227.27
980.29	227.26
980.59	227.22
980.88	227.24
981.17	227.24
981.46	227.26
981.76	227.27
982.05	227.29
982.34	227.30
982.63	227.31
982.93	227.30
983.22	227.30
983.51	227.25
983.80	227.24
984.09	227.26
984.39	227.23
984.68	227.19
984.97	227.19
985.26	227.22
985.55	227.19
985.85	227.17
986.14	227.22
986.43	227.24
986.72	227.22
987.01	227.17
987.30	227.16
987.59	227.14
987.89	227.12
988.18	227.09
988.47	227.06
988.76	227.05
989.05	227.03
989.34	226.99
989.63	226.97
989.92	226.94
990.22	226.91
990.51	226.88
990.80	226.86
991.09	226.83
991.38	226.81
991.67	226.80
991.96	226.79
992.25	226.77
992.54	226.72
992.83	226.74
993.12	226.75
993.41	226.74
993.70	226.77
993.99	226.78
994.28	226.78
994.58	226.78
994.87	226.75
995.16	226.74
995.45	226.73
995.74	226.72
996.03	226.72
996.32	226.71
996.61	226.75
996.90	226.77
997.19	226.78
997.48	226.77
997.77	226.72
998.06	226.71
998.34	226.70
998.63	226.72
998.92	226.70
999.21	226.72
999.50	226.71
999.79	226.68
1000.08	226.64
1000.37	226.65
1000.66	226.67
1000.95	226.68
1001.24	226.70
1001.53	226.72
1001.82	226.72
1002.11	226.70
1002.40	226.71
1002.68	226.72
1002.97	226.77
1003.26	226.75
1003.55	226.71
1003.84	226.76
1004.13	226.78
1004.42	226.80
1004.71	226.78
1004.99	226.80
1005.28	226.79
1005.57	226.81
1005.86	226.80
1006.15	226.83
1006.44	226.83
1006.72	226.86
1007.01	226.83
1007.30	226.85
1007.59	226.86
1007.88	226.89
1008.17	226.91
1008.45	226.90
1008.74	226.92
1009.03	226.90
1009.32	226.91
1009.60	226.92
1009.89	226.92
1010.18	226.88
1010.47	226.88
1010.76	226.90
1011.04	226.88
1011.33	226.90
1011.62	226.93
1011.91	226.96
1012.19	226.96
1012.48	226.96
1012.77	226.96
1013.05	227.04
1013.34	227.03
1013.63	227.04
1013.92	227.05
1014.20	227.05
1014.49	227.07
1014.78	227.06
1015.06	227.01
1015.35	227.07
1015.64	227.11
1015.92	227.11
1016.21	227.16
1016.50	227.18
1016.78	227.19
1017.07	227.20
1017.36	227.20
1017.64	227.18
1017.93	227.19
1018.22	227.19
1018.50	227.17
1018.79	227.15
1019.08	227.11
1019.36	227.14
1019.65	227.11
1019.93	227.12
1020.22	227.11
1020.51	227.15
1020.79	227.14
1021.08	227.20
1021.36	226.71
1021.65	227.12
1021.94	226.87
1022.22	227.65
1022.51	226.59
1022.79	227.16
1023.08	226.79
1023.36	228.35
1023.65	226.70
>>>>>End Processed Spectral Data<<<<<
