SpectraSuite Data File
++++++++++++++++++++++++++++++++++++
Date: Fri Feb 01 17:02:20 EST 2013
User: group
Dark Spectrum Present: No
Reference Spectrum Present: No
Number of Sampled Component Spectra: 1
Spectrometers: USB2E7196
Integration Time (usec): 35000 (USB2E7196)
Spectra Averaged: 100 (USB2E7196)
Boxcar Smoothing: 10 (USB2E7196)
Correct for Electrical Dark: No (USB2E7196)
Strobe/Lamp Enabled: No (USB2E7196)
Correct for Detector Non-linearity: No (USB2E7196)
Correct for Stray Light: No (USB2E7196)
Number of Pixels in Processed Spectrum: 2048
>>>>>Begin Processed Spectral Data<<<<<
339.09	0.00
339.48	213.30
339.86	215.12
340.24	215.95
340.63	217.33
341.01	221.04
341.39	220.32
341.78	221.72
342.16	222.55
342.54	223.62
342.93	211.84
343.31	222.52
343.69	223.04
344.07	223.48
344.46	223.93
344.84	224.31
345.22	224.51
345.60	224.78
345.99	224.92
346.37	225.07
346.75	225.15
347.13	225.21
347.52	225.23
347.90	225.31
348.28	225.33
348.66	225.36
349.05	225.33
349.43	225.34
349.81	225.38
350.19	225.39
350.57	225.41
350.96	225.45
351.34	225.54
351.72	225.63
352.10	225.71
352.48	225.74
352.87	225.77
353.25	225.83
353.63	225.87
354.01	225.94
354.39	226.00
354.77	226.03
355.15	226.14
355.54	226.21
355.92	226.20
356.30	226.26
356.68	226.40
357.06	226.48
357.44	226.54
357.82	226.61
358.20	226.69
358.58	226.76
358.97	226.81
359.35	226.89
359.73	226.95
360.11	227.04
360.49	227.08
360.87	227.15
361.25	227.20
361.63	227.26
362.01	227.31
362.39	227.32
362.77	227.42
363.15	227.45
363.53	227.46
363.91	227.53
364.29	227.55
364.67	227.46
365.05	227.48
365.43	227.51
365.81	227.51
366.19	227.54
366.57	227.58
366.95	227.59
367.33	227.55
367.71	227.57
368.09	227.55
368.47	227.57
368.85	227.56
369.23	227.55
369.61	227.51
369.99	227.55
370.37	227.56
370.75	227.53
371.13	227.47
371.51	227.45
371.89	227.43
372.27	227.40
372.65	227.41
373.03	227.37
373.41	227.33
373.78	227.29
374.16	227.17
374.54	227.09
374.92	227.04
375.30	226.96
375.68	226.89
376.06	226.87
376.44	226.81
376.82	226.77
377.19	226.72
377.57	226.67
377.95	226.55
378.33	226.49
378.71	226.40
379.09	226.34
379.47	226.28
379.84	226.17
380.22	226.08
380.60	225.96
380.98	225.88
381.36	225.82
381.73	225.77
382.11	225.77
382.49	225.71
382.87	225.65
383.25	225.64
383.62	225.68
384.00	225.59
384.38	225.49
384.76	225.49
385.13	225.45
385.51	225.38
385.89	225.32
386.27	225.29
386.64	225.27
387.02	225.23
387.40	225.16
387.78	225.14
388.15	225.12
388.53	225.12
388.91	225.12
389.29	225.07
389.66	225.02
390.04	224.94
390.42	224.95
390.79	224.95
391.17	224.92
391.55	224.79
391.92	224.81
392.30	224.84
392.68	224.80
393.05	224.82
393.43	224.83
393.81	224.84
394.18	224.82
394.56	224.83
394.94	224.86
395.31	224.88
395.69	224.95
396.06	224.99
396.44	225.00
396.82	225.01
397.19	225.08
397.57	225.14
397.95	225.24
398.32	225.25
398.70	225.27
399.07	225.32
399.45	225.38
399.82	225.41
400.20	225.47
400.58	225.51
400.95	225.52
401.33	225.61
401.70	225.77
402.08	225.88
402.45	225.97
402.83	226.09
403.20	226.18
403.58	226.26
403.95	226.39
404.33	226.52
404.71	226.64
405.08	226.83
405.46	226.93
405.83	227.05
406.21	227.20
406.58	227.36
406.96	227.53
407.33	227.66
407.70	227.86
408.08	228.13
408.45	228.33
408.83	228.56
409.20	228.75
409.58	228.90
409.95	229.13
410.33	229.38
410.70	229.63
411.08	229.95
411.45	230.23
411.82	230.54
412.20	230.90
412.57	231.29
412.95	231.56
413.32	231.98
413.69	232.35
414.07	232.77
414.44	233.25
414.82	233.71
415.19	234.29
415.56	234.82
415.94	235.33
416.31	235.96
416.68	236.58
417.06	237.30
417.43	237.98
417.81	238.75
418.18	239.52
418.55	240.34
418.93	241.19
419.30	242.10
419.67	243.01
420.04	243.97
420.42	244.97
420.79	246.16
421.16	247.31
421.54	248.53
421.91	249.71
422.28	250.98
422.66	252.31
423.03	253.61
423.40	254.98
423.77	256.40
424.15	257.84
424.52	259.30
424.89	260.88
425.26	262.46
425.64	263.92
426.01	265.52
426.38	267.12
426.75	268.77
427.13	270.49
427.50	272.25
427.87	274.10
428.24	275.93
428.61	277.63
428.99	279.55
429.36	281.65
429.73	283.72
430.10	285.75
430.47	287.79
430.85	289.88
431.22	292.09
431.59	294.41
431.96	296.62
432.33	299.08
432.70	301.48
433.08	304.23
433.45	306.84
433.82	309.40
434.19	312.32
434.56	315.17
434.93	317.81
435.30	320.44
435.68	323.33
436.05	326.19
436.42	328.98
436.79	331.48
437.16	334.12
437.53	336.95
437.90	339.75
438.27	342.45
438.64	345.28
439.01	347.85
439.38	350.09
439.75	352.23
440.13	354.75
440.50	357.03
440.87	358.89
441.24	360.80
441.61	362.94
441.98	364.44
442.35	366.20
442.72	368.01
443.09	369.79
443.46	370.78
443.83	371.36
444.20	371.86
444.57	372.68
444.94	373.01
445.31	373.34
445.68	373.64
446.05	373.74
446.42	373.36
446.79	372.99
447.16	372.53
447.53	372.28
447.90	371.10
448.27	370.00
448.64	368.41
449.01	367.34
449.37	365.45
449.74	363.59
450.11	361.41
450.48	358.98
450.85	356.47
451.22	354.37
451.59	352.32
451.96	350.41
452.33	347.83
452.70	345.50
453.07	342.72
453.43	339.89
453.80	337.11
454.17	334.46
454.54	331.90
454.91	329.21
455.28	326.54
455.65	324.11
456.02	321.67
456.38	319.55
456.75	316.87
457.12	314.61
457.49	312.37
457.86	310.17
458.23	308.31
458.59	306.33
458.96	304.25
459.33	302.43
459.70	300.59
460.07	299.11
460.43	297.38
460.80	295.76
461.17	294.31
461.54	292.86
461.91	291.41
462.27	289.97
462.64	288.75
463.01	287.42
463.38	286.13
463.74	284.79
464.11	283.64
464.48	282.65
464.85	281.54
465.21	280.69
465.58	279.79
465.95	278.70
466.32	277.76
466.68	276.87
467.05	276.03
467.42	275.13
467.78	274.18
468.15	273.32
468.52	272.65
468.88	271.81
469.25	271.04
469.62	270.45
469.98	269.80
470.35	269.19
470.72	268.59
471.08	267.90
471.45	267.38
471.82	266.83
472.18	266.25
472.55	265.81
472.92	265.30
473.28	264.83
473.65	264.42
474.02	264.03
474.38	263.67
474.75	263.33
475.11	262.97
475.48	262.78
475.85	262.56
476.21	262.33
476.58	262.16
476.94	262.04
477.31	261.87
477.67	261.72
478.04	261.61
478.41	261.57
478.77	261.64
479.14	261.55
479.50	261.61
479.87	261.64
480.23	261.73
480.60	261.79
480.96	261.86
481.33	262.09
481.69	262.26
482.06	262.48
482.42	262.67
482.79	262.97
483.15	263.26
483.52	263.67
483.88	264.07
484.25	264.45
484.61	264.89
484.98	265.40
485.34	265.99
485.71	266.59
486.07	267.19
486.44	267.77
486.80	268.49
487.17	269.21
487.53	270.03
487.90	270.89
488.26	271.85
488.62	272.85
488.99	273.83
489.35	274.89
489.72	276.01
490.08	277.21
490.44	278.44
490.81	279.80
491.17	281.11
491.54	282.57
491.90	284.09
492.26	285.73
492.63	287.43
492.99	289.20
493.36	291.08
493.72	293.11
494.08	295.22
494.45	297.48
494.81	299.82
495.17	302.27
495.54	304.82
495.90	307.48
496.26	310.29
496.63	313.22
496.99	316.31
497.35	319.54
497.72	322.91
498.08	326.42
498.44	330.05
498.80	333.98
499.17	337.99
499.53	342.14
499.89	346.50
500.26	350.95
500.62	355.60
500.98	360.55
501.34	365.59
501.71	370.87
502.07	376.21
502.43	381.76
502.79	387.53
503.16	393.53
503.52	399.74
503.88	406.08
504.24	412.65
504.60	419.49
504.97	426.54
505.33	433.80
505.69	441.44
506.05	449.17
506.41	456.96
506.78	465.00
507.14	473.34
507.50	481.95
507.86	490.93
508.22	499.98
508.59	509.06
508.95	518.54
509.31	528.26
509.67	538.32
510.03	548.53
510.39	558.95
510.75	569.62
511.12	580.46
511.48	591.60
511.84	602.96
512.20	614.33
512.56	626.10
512.92	638.07
513.28	650.22
513.64	662.51
514.00	675.07
514.37	687.86
514.73	700.86
515.09	713.70
515.45	726.75
515.81	740.22
516.17	753.96
516.53	767.89
516.89	781.82
517.25	795.76
517.61	809.95
517.97	824.16
518.33	838.32
518.69	852.77
519.05	867.55
519.41	882.45
519.77	897.65
520.13	912.87
520.49	928.04
520.85	943.19
521.21	958.59
521.57	974.53
521.93	989.93
522.29	1005.81
522.65	1021.76
523.01	1037.73
523.37	1053.40
523.73	1069.24
524.09	1085.01
524.45	1100.96
524.81	1117.28
525.17	1133.69
525.53	1150.24
525.89	1166.84
526.25	1183.40
526.61	1199.35
526.97	1215.70
527.33	1231.91
527.68	1248.08
528.04	1264.29
528.40	1280.48
528.76	1297.19
529.12	1313.37
529.48	1329.90
529.84	1345.62
530.20	1361.96
530.56	1378.47
530.91	1395.62
531.27	1412.06
531.63	1428.17
531.99	1444.47
532.35	1460.08
532.71	1475.65
533.07	1491.59
533.42	1507.20
533.78	1522.96
534.14	1538.89
534.50	1553.89
534.86	1569.37
535.21	1584.33
535.57	1599.87
535.93	1615.05
536.29	1629.55
536.65	1644.28
537.00	1658.64
537.36	1673.66
537.72	1687.81
538.08	1702.13
538.44	1715.38
538.79	1729.03
539.15	1742.38
539.51	1755.82
539.87	1769.84
540.22	1783.24
540.58	1796.67
540.94	1809.59
541.29	1822.14
541.65	1834.72
542.01	1847.68
542.37	1859.79
542.72	1871.89
543.08	1883.36
543.44	1895.44
543.79	1906.61
544.15	1917.38
544.51	1928.95
544.87	1939.78
545.22	1950.35
545.58	1960.27
545.94	1970.02
546.29	1979.67
546.65	1989.36
547.01	1998.42
547.36	2007.01
547.72	2015.27
548.07	2023.09
548.43	2031.14
548.79	2039.01
549.14	2046.33
549.50	2053.46
549.86	2061.00
550.21	2068.14
550.57	2075.17
550.92	2081.72
551.28	2088.54
551.64	2095.57
551.99	2101.91
552.35	2107.96
552.70	2114.10
553.06	2119.97
553.41	2126.26
553.77	2132.09
554.13	2138.11
554.48	2144.32
554.84	2149.77
555.19	2155.15
555.55	2160.19
555.90	2164.80
556.26	2169.72
556.61	2174.42
556.97	2178.82
557.32	2183.00
557.68	2187.16
558.03	2191.52
558.39	2195.21
558.74	2199.96
559.10	2203.81
559.45	2207.57
559.81	2211.77
560.16	2215.85
560.52	2219.36
560.87	2222.76
561.23	2225.63
561.58	2228.61
561.94	2231.02
562.29	2233.49
562.64	2236.22
563.00	2238.91
563.35	2242.46
563.71	2245.55
564.06	2249.00
564.42	2252.07
564.77	2254.71
565.12	2257.26
565.48	2259.42
565.83	2261.52
566.19	2263.00
566.54	2264.11
566.89	2265.48
567.25	2266.39
567.60	2267.65
567.96	2269.36
568.31	2270.43
568.66	2271.77
569.02	2272.63
569.37	2273.06
569.72	2274.12
570.08	2274.59
570.43	2274.79
570.78	2274.52
571.14	2273.28
571.49	2271.91
571.84	2271.73
572.20	2270.84
572.55	2269.98
572.90	2268.51
573.26	2267.47
573.61	2265.92
573.96	2264.33
574.31	2261.57
574.67	2258.80
575.02	2255.42
575.37	2252.18
575.72	2248.74
576.08	2245.41
576.43	2242.31
576.78	2239.14
577.13	2236.06
577.49	2233.01
577.84	2229.79
578.19	2226.11
578.54	2222.86
578.90	2219.12
579.25	2213.80
579.60	2209.13
579.95	2204.27
580.30	2199.39
580.66	2194.31
581.01	2189.45
581.36	2184.87
581.71	2181.00
582.06	2176.76
582.42	2172.51
582.77	2167.51
583.12	2163.13
583.47	2158.88
583.82	2154.13
584.17	2149.08
584.53	2143.83
584.88	2138.47
585.23	2133.03
585.58	2127.64
585.93	2122.25
586.28	2117.61
586.63	2112.79
586.98	2107.89
587.34	2103.47
587.69	2098.87
588.04	2093.85
588.39	2088.48
588.74	2082.19
589.09	2076.23
589.44	2069.63
589.79	2063.72
590.14	2058.32
590.49	2051.68
590.84	2045.47
591.19	2039.58
591.54	2033.23
591.89	2026.14
592.25	2019.61
592.60	2012.50
592.95	2005.25
593.30	1998.13
593.65	1990.69
594.00	1983.81
594.35	1976.57
594.70	1968.65
595.05	1961.80
595.40	1954.68
595.75	1947.34
596.10	1941.24
596.45	1934.67
596.80	1928.65
597.15	1922.21
597.50	1915.32
597.85	1909.19
598.19	1902.56
598.54	1895.55
598.89	1889.17
599.24	1883.39
599.59	1876.79
599.94	1870.65
600.29	1864.48
600.64	1858.06
600.99	1850.76
601.34	1844.03
601.69	1837.29
602.04	1830.69
602.39	1823.36
602.74	1816.65
603.08	1809.94
603.43	1803.34
603.78	1795.91
604.13	1788.85
604.48	1781.89
604.83	1775.21
605.18	1768.43
605.53	1760.71
605.87	1752.80
606.22	1745.63
606.57	1737.70
606.92	1730.47
607.27	1723.56
607.62	1716.69
607.96	1709.49
608.31	1703.05
608.66	1695.65
609.01	1688.34
609.36	1680.77
609.70	1672.91
610.05	1665.00
610.40	1657.49
610.75	1649.24
611.10	1641.88
611.44	1633.56
611.79	1625.50
612.14	1616.83
612.49	1607.70
612.83	1599.27
613.18	1591.19
613.53	1583.10
613.88	1574.63
614.22	1566.52
614.57	1557.87
614.92	1549.94
615.27	1542.56
615.61	1534.14
615.96	1526.02
616.31	1518.28
616.65	1510.91
617.00	1503.27
617.35	1495.54
617.70	1487.34
618.04	1478.96
618.39	1470.62
618.74	1463.08
619.08	1454.83
619.43	1447.20
619.78	1440.32
620.12	1433.27
620.47	1425.86
620.82	1417.69
621.16	1410.36
621.51	1402.74
621.85	1395.11
622.20	1386.51
622.55	1377.99
622.89	1370.25
623.24	1362.66
623.59	1355.25
623.93	1347.82
624.28	1340.78
624.62	1333.35
624.97	1326.10
625.32	1319.30
625.66	1312.29
626.01	1305.12
626.35	1297.66
626.70	1289.97
627.04	1282.29
627.39	1274.38
627.73	1266.94
628.08	1260.13
628.43	1252.91
628.77	1245.63
629.12	1238.14
629.46	1231.09
629.81	1223.71
630.15	1216.41
630.50	1209.07
630.84	1200.94
631.19	1193.06
631.53	1185.44
631.88	1177.87
632.22	1170.24
632.57	1162.92
632.91	1155.32
633.26	1147.91
633.60	1140.52
633.95	1133.41
634.29	1126.39
634.64	1119.75
634.98	1112.52
635.32	1105.40
635.67	1098.76
636.01	1092.04
636.36	1085.23
636.70	1078.70
637.05	1072.19
637.39	1065.82
637.73	1059.41
638.08	1053.51
638.42	1047.50
638.77	1041.14
639.11	1034.69
639.45	1028.36
639.80	1021.76
640.14	1015.55
640.49	1009.13
640.83	1002.89
641.17	996.75
641.52	990.44
641.86	983.92
642.20	978.13
642.55	971.79
642.89	965.38
643.23	958.86
643.58	953.23
643.92	947.07
644.26	941.11
644.61	935.09
644.95	928.97
645.29	922.51
645.64	915.83
645.98	909.46
646.32	903.50
646.66	897.51
647.01	891.79
647.35	886.09
647.69	880.16
648.04	874.64
648.38	868.85
648.72	862.91
649.06	857.07
649.41	851.15
649.75	845.28
650.09	839.38
650.43	833.65
650.78	827.52
651.12	821.66
651.46	815.86
651.80	810.16
652.14	804.82
652.49	799.37
652.83	794.23
653.17	788.65
653.51	783.01
653.85	777.63
654.20	772.05
654.54	766.03
654.88	760.37
655.22	754.56
655.56	748.91
655.90	743.45
656.25	738.15
656.59	732.76
656.93	727.72
657.27	722.55
657.61	717.13
657.95	712.02
658.29	706.98
658.64	701.78
658.98	696.49
659.32	691.09
659.66	686.05
660.00	680.74
660.34	675.78
660.68	670.91
661.02	665.91
661.36	661.13
661.70	656.64
662.05	652.28
662.39	647.95
662.73	643.52
663.07	639.19
663.41	634.82
663.75	630.45
664.09	625.83
664.43	621.44
664.77	617.41
665.11	613.15
665.45	608.98
665.79	604.92
666.13	600.82
666.47	596.70
666.81	592.51
667.15	588.38
667.49	584.46
667.83	580.58
668.17	576.67
668.51	572.62
668.85	568.65
669.19	564.84
669.53	561.01
669.87	557.16
670.21	553.42
670.55	549.77
670.89	546.28
671.23	542.85
671.57	539.39
671.91	535.85
672.25	532.32
672.58	528.79
672.92	525.40
673.26	522.19
673.60	519.08
673.94	516.01
674.28	513.09
674.62	510.12
674.96	507.05
675.30	504.16
675.64	501.31
675.97	498.50
676.31	495.59
676.65	492.66
676.99	489.89
677.33	487.04
677.67	484.19
678.01	481.20
678.34	478.25
678.68	475.39
679.02	472.54
679.36	469.75
679.70	467.09
680.04	464.35
680.37	461.54
680.71	458.72
681.05	456.07
681.39	453.41
681.73	450.80
682.06	448.31
682.40	445.77
682.74	443.23
683.08	440.68
683.42	438.10
683.75	435.62
684.09	433.13
684.43	430.69
684.77	428.26
685.10	425.91
685.44	423.58
685.78	421.29
686.12	419.08
686.45	416.87
686.79	414.58
687.13	412.37
687.46	410.21
687.80	408.06
688.14	405.85
688.48	403.80
688.81	401.59
689.15	399.47
689.49	397.31
689.82	395.23
690.16	393.12
690.50	391.19
690.83	389.29
691.17	387.34
691.51	385.44
691.84	383.60
692.18	381.67
692.52	379.73
692.85	377.79
693.19	375.92
693.52	374.05
693.86	372.26
694.20	370.50
694.53	368.72
694.87	366.83
695.21	365.05
695.54	363.19
695.88	361.46
696.21	359.70
696.55	358.03
696.88	356.34
697.22	354.66
697.56	353.05
697.89	351.38
698.23	349.80
698.56	348.17
698.90	346.59
699.23	344.96
699.57	343.40
699.90	341.87
700.24	340.32
700.58	338.83
700.91	337.31
701.25	335.86
701.58	334.48
701.92	333.16
702.25	331.82
702.59	330.50
702.92	329.16
703.26	327.81
703.59	326.51
703.93	325.33
704.26	324.16
704.60	322.83
704.93	321.53
705.26	320.23
705.60	319.04
705.93	317.88
706.27	316.83
706.60	315.80
706.94	314.72
707.27	313.59
707.61	312.53
707.94	311.52
708.27	310.43
708.61	309.34
708.94	308.28
709.28	307.29
709.61	306.27
709.94	305.34
710.28	304.36
710.61	303.36
710.95	302.23
711.28	301.31
711.61	300.39
711.95	299.49
712.28	298.54
712.61	297.57
712.95	296.61
713.28	295.68
713.61	294.78
713.95	293.87
714.28	293.00
714.61	292.12
714.95	291.23
715.28	290.35
715.61	289.45
715.95	288.61
716.28	287.72
716.61	286.84
716.95	285.98
717.28	285.23
717.61	284.47
717.94	283.74
718.28	282.89
718.61	282.16
718.94	281.48
719.27	280.83
719.61	280.16
719.94	279.51
720.27	278.84
720.60	278.12
720.94	277.50
721.27	276.93
721.60	276.35
721.93	275.76
722.27	275.19
722.60	274.67
722.93	274.11
723.26	273.60
723.59	273.13
723.93	272.61
724.26	272.04
724.59	271.51
724.92	271.01
725.25	270.52
725.59	270.03
725.92	269.51
726.25	268.94
726.58	268.47
726.91	267.96
727.24	267.48
727.57	267.04
727.91	266.53
728.24	266.05
728.57	265.57
728.90	265.12
729.23	264.65
729.56	264.22
729.89	263.75
730.22	263.27
730.55	262.77
730.89	262.31
731.22	261.91
731.55	261.47
731.88	261.03
732.21	260.60
732.54	260.14
732.87	259.72
733.20	259.32
733.53	258.93
733.86	258.58
734.19	258.19
734.52	257.79
734.85	257.51
735.18	257.10
735.51	256.75
735.84	256.38
736.17	256.01
736.50	255.63
736.83	255.42
737.16	255.09
737.49	254.76
737.82	254.41
738.15	254.04
738.48	253.74
738.81	253.42
739.14	253.12
739.47	252.82
739.80	252.52
740.13	252.27
740.46	251.94
740.79	251.64
741.12	251.33
741.45	251.07
741.78	250.74
742.11	250.50
742.44	250.21
742.77	249.95
743.10	249.66
743.43	249.37
743.75	248.95
744.08	248.82
744.41	248.56
744.74	248.31
745.07	248.04
745.40	247.78
745.73	247.53
746.06	247.23
746.39	246.96
746.71	246.68
747.04	246.40
747.37	246.16
747.70	245.90
748.03	245.69
748.36	245.45
748.68	245.20
749.01	244.89
749.34	244.66
749.67	244.41
750.00	244.19
750.33	244.03
750.65	243.86
750.98	243.52
751.31	243.31
751.64	243.09
751.97	242.95
752.29	242.71
752.62	242.46
752.95	242.27
753.28	242.05
753.60	241.87
753.93	241.69
754.26	241.50
754.59	241.27
754.91	241.01
755.24	240.79
755.57	240.57
755.90	240.42
756.22	240.19
756.55	240.01
756.88	239.83
757.20	239.59
757.53	239.38
757.86	239.21
758.19	239.03
758.51	238.84
758.84	238.61
759.17	238.45
759.49	238.31
759.82	238.18
760.15	238.03
760.47	237.87
760.80	237.70
761.13	237.54
761.45	237.40
761.78	237.25
762.11	237.12
762.43	237.00
762.76	236.84
763.08	236.71
763.41	236.57
763.74	236.44
764.06	236.29
764.39	236.14
764.71	235.99
765.04	235.85
765.37	235.73
765.69	235.60
766.02	235.45
766.34	235.30
766.67	235.17
767.00	235.07
767.32	234.98
767.65	234.92
767.97	234.80
768.30	234.67
768.62	234.58
768.95	234.45
769.27	234.33
769.60	234.22
769.92	234.09
770.25	233.96
770.57	233.88
770.90	233.77
771.22	233.65
771.55	233.55
771.87	233.45
772.20	233.35
772.52	233.36
772.85	233.42
773.17	233.35
773.50	233.25
773.82	233.17
774.15	233.05
774.47	232.91
774.80	232.80
775.12	232.72
775.45	232.67
775.77	232.59
776.09	232.52
776.42	232.44
776.74	232.42
777.07	232.34
777.39	232.23
777.72	232.16
778.04	232.12
778.36	232.06
778.69	231.99
779.01	231.93
779.33	231.80
779.66	231.62
779.98	231.53
780.31	231.48
780.63	231.47
780.95	231.40
781.28	231.35
781.60	231.30
781.92	231.26
782.25	231.15
782.57	231.11
782.89	231.07
783.22	231.00
783.54	230.92
783.86	230.88
784.19	230.82
784.51	230.78
784.83	230.72
785.16	230.66
785.48	230.62
785.80	230.57
786.12	230.51
786.45	230.44
786.77	230.43
787.09	230.38
787.42	230.27
787.74	230.24
788.06	230.21
788.38	230.17
788.71	230.08
789.03	230.05
789.35	230.01
789.67	229.93
789.99	229.92
790.32	229.88
790.64	229.86
790.96	229.91
791.28	229.84
791.61	229.78
791.93	229.75
792.25	229.72
792.57	229.72
792.89	229.67
793.21	229.63
793.54	229.55
793.86	229.50
794.18	229.48
794.50	229.42
794.82	229.32
795.14	229.31
795.47	229.30
795.79	229.26
796.11	229.19
796.43	229.15
796.75	229.06
797.07	229.02
797.39	228.96
797.71	228.83
798.04	228.82
798.36	228.78
798.68	228.73
799.00	228.68
799.32	228.61
799.64	228.60
799.96	228.54
800.28	228.50
800.60	228.45
800.92	228.41
801.24	228.38
801.56	228.39
801.89	228.29
802.21	228.27
802.53	228.21
802.85	228.23
803.17	228.21
803.49	228.18
803.81	228.10
804.13	228.07
804.45	228.03
804.77	228.00
805.09	227.94
805.41	227.89
805.73	227.83
806.05	227.77
806.37	227.73
806.69	227.71
807.01	227.68
807.33	227.66
807.65	227.61
807.97	227.59
808.28	227.57
808.60	227.57
808.92	227.53
809.24	227.57
809.56	227.49
809.88	227.45
810.20	227.45
810.52	227.48
810.84	227.43
811.16	227.39
811.48	227.35
811.80	227.39
812.12	227.38
812.43	227.38
812.75	227.38
813.07	227.36
813.39	227.35
813.71	227.31
814.03	227.30
814.35	227.27
814.67	227.24
814.98	227.17
815.30	227.16
815.62	227.12
815.94	227.02
816.26	227.09
816.58	227.05
816.89	227.04
817.21	226.97
817.53	226.95
817.85	226.94
818.17	226.92
818.48	226.87
818.80	226.88
819.12	226.86
819.44	226.80
819.76	226.73
820.07	226.75
820.39	226.75
820.71	226.70
821.03	226.70
821.34	226.67
821.66	226.67
821.98	226.66
822.30	226.65
822.61	226.72
822.93	226.64
823.25	226.63
823.57	226.59
823.88	226.63
824.20	226.63
824.52	226.66
824.83	226.66
825.15	226.65
825.47	226.60
825.79	226.60
826.10	226.61
826.42	226.60
826.74	226.56
827.05	226.51
827.37	226.52
827.69	226.47
828.00	226.50
828.32	226.51
828.64	226.53
828.95	226.55
829.27	226.49
829.58	226.49
829.90	226.50
830.22	226.51
830.53	226.48
830.85	226.45
831.17	226.40
831.48	226.37
831.80	226.37
832.11	226.35
832.43	226.33
832.75	226.34
833.06	226.40
833.38	226.38
833.69	226.40
834.01	226.41
834.32	226.40
834.64	226.36
834.96	226.35
835.27	226.31
835.59	226.30
835.90	226.27
836.22	226.26
836.53	226.22
836.85	226.19
837.16	226.27
837.48	226.26
837.79	226.30
838.11	226.34
838.42	226.33
838.74	226.31
839.05	226.30
839.37	226.24
839.68	226.18
840.00	226.19
840.31	226.20
840.63	226.19
840.94	226.18
841.26	226.15
841.57	226.15
841.88	226.16
842.20	226.11
842.51	226.12
842.83	226.12
843.14	226.22
843.46	226.21
843.77	226.17
844.08	226.18
844.40	226.13
844.71	226.09
845.03	226.07
845.34	226.09
845.65	226.10
845.97	226.10
846.28	226.11
846.60	226.11
846.91	226.06
847.22	226.08
847.54	226.09
847.85	226.14
848.16	226.12
848.48	226.09
848.79	226.11
849.10	226.12
849.42	226.10
849.73	226.02
850.04	226.03
850.36	225.99
850.67	225.99
850.98	225.96
851.30	225.97
851.61	225.96
851.92	225.94
852.23	225.97
852.55	225.98
852.86	226.00
853.17	225.96
853.49	226.02
853.80	226.02
854.11	226.01
854.42	225.99
854.74	225.97
855.05	225.98
855.36	225.94
855.67	225.95
855.99	225.96
856.30	226.06
856.61	226.04
856.92	226.05
857.23	226.06
857.55	226.07
857.86	226.03
858.17	226.07
858.48	226.04
858.79	226.03
859.11	226.03
859.42	225.99
859.73	226.00
860.04	225.98
860.35	225.94
860.66	225.92
860.98	225.93
861.29	225.94
861.60	225.91
861.91	225.92
862.22	225.91
862.53	225.89
862.84	225.78
863.16	225.82
863.47	225.79
863.78	225.77
864.09	225.77
864.40	225.80
864.71	225.77
865.02	225.80
865.33	225.77
865.64	225.76
865.95	225.79
866.27	225.85
866.58	225.84
866.89	225.83
867.20	225.82
867.51	225.77
867.82	225.77
868.13	225.79
868.44	225.75
868.75	225.72
869.06	225.71
869.37	225.72
869.68	225.68
869.99	225.67
870.30	225.70
870.61	225.69
870.92	225.69
871.23	225.67
871.54	225.69
871.85	225.72
872.16	225.71
872.47	225.71
872.78	225.65
873.09	225.65
873.40	225.65
873.71	225.64
874.02	225.66
874.33	225.64
874.64	225.65
874.95	225.68
875.26	225.68
875.56	225.69
875.87	225.66
876.18	225.63
876.49	225.73
876.80	225.70
877.11	225.69
877.42	225.69
877.73	225.69
878.04	225.66
878.35	225.62
878.66	225.63
878.96	225.57
879.27	225.53
879.58	225.51
879.89	225.51
880.20	225.53
880.51	225.51
880.82	225.50
881.12	225.47
881.43	225.45
881.74	225.47
882.05	225.43
882.36	225.42
882.67	225.43
882.97	225.31
883.28	225.28
883.59	225.29
883.90	225.27
884.21	225.28
884.51	225.27
884.82	225.25
885.13	225.23
885.44	225.26
885.74	225.31
886.05	225.29
886.36	225.26
886.67	225.22
886.98	225.29
887.28	225.29
887.59	225.30
887.90	225.30
888.20	225.27
888.51	225.33
888.82	225.35
889.13	225.35
889.43	225.43
889.74	225.44
890.05	225.41
890.35	225.39
890.66	225.38
890.97	225.38
891.28	225.42
891.58	225.44
891.89	225.45
892.20	225.43
892.50	225.42
892.81	225.45
893.12	225.46
893.42	225.42
893.73	225.42
894.04	225.43
894.34	225.43
894.65	225.43
894.95	225.38
895.26	225.40
895.57	225.45
895.87	225.39
896.18	225.41
896.48	225.41
896.79	225.43
897.10	225.45
897.40	225.42
897.71	225.42
898.01	225.42
898.32	225.41
898.63	225.40
898.93	225.41
899.24	225.42
899.54	225.43
899.85	225.41
900.15	225.41
900.46	225.39
900.76	225.42
901.07	225.44
901.38	225.47
901.68	225.48
901.99	225.42
902.29	225.42
902.60	225.37
902.90	225.40
903.21	225.40
903.51	225.37
903.82	225.41
904.12	225.40
904.43	225.39
904.73	225.38
905.03	225.40
905.34	225.49
905.64	225.47
905.95	225.48
906.25	225.45
906.56	225.48
906.86	225.47
907.17	225.45
907.47	225.46
907.77	225.39
908.08	225.34
908.38	225.35
908.69	225.37
908.99	225.42
909.30	225.43
909.60	225.39
909.90	225.43
910.21	225.40
910.51	225.40
910.81	225.39
911.12	225.40
911.42	225.38
911.73	225.30
912.03	225.31
912.33	225.29
912.64	225.32
912.94	225.29
913.24	225.28
913.55	225.27
913.85	225.23
914.15	225.32
914.46	225.31
914.76	225.30
915.06	225.27
915.37	225.26
915.67	225.25
915.97	225.28
916.27	225.24
916.58	225.24
916.88	225.25
917.18	225.23
917.49	225.28
917.79	225.26
918.09	225.28
918.39	225.30
918.70	225.32
919.00	225.30
919.30	225.36
919.60	225.35
919.91	225.35
920.21	225.38
920.51	225.35
920.81	225.39
921.12	225.39
921.42	225.39
921.72	225.39
922.02	225.41
922.32	225.42
922.63	225.44
922.93	225.49
923.23	225.48
923.53	225.50
923.83	225.46
924.13	225.50
924.44	225.48
924.74	225.51
925.04	225.49
925.34	225.48
925.64	225.46
925.94	225.46
926.24	225.51
926.55	225.49
926.85	225.48
927.15	225.46
927.45	225.49
927.75	225.51
928.05	225.51
928.35	225.50
928.65	225.51
928.95	225.53
929.26	225.47
929.56	225.50
929.86	225.50
930.16	225.51
930.46	225.48
930.76	225.48
931.06	225.43
931.36	225.45
931.66	225.49
931.96	225.47
932.26	225.49
932.56	225.46
932.86	225.44
933.16	225.46
933.46	225.42
933.76	225.39
934.06	225.38
934.36	225.42
934.66	225.41
934.96	225.39
935.26	225.40
935.56	225.41
935.86	225.39
936.16	225.41
936.46	225.38
936.76	225.38
937.06	225.39
937.36	225.39
937.66	225.36
937.96	225.35
938.26	225.33
938.56	225.28
938.86	225.28
939.16	225.32
939.46	225.29
939.76	225.35
940.06	225.35
940.35	225.31
940.65	225.24
940.95	225.25
941.25	225.23
941.55	225.18
941.85	225.18
942.15	225.16
942.45	225.15
942.75	225.17
943.04	225.17
943.34	225.15
943.64	225.16
943.94	225.18
944.24	225.17
944.54	225.18
944.84	225.21
945.13	225.18
945.43	225.16
945.73	225.20
946.03	225.17
946.33	225.13
946.62	225.15
946.92	225.14
947.22	225.13
947.52	225.12
947.82	225.17
948.11	225.17
948.41	225.17
948.71	225.14
949.01	225.15
949.31	225.13
949.60	225.14
949.90	225.14
950.20	225.10
950.50	225.10
950.79	225.09
951.09	225.10
951.39	225.10
951.69	225.08
951.98	225.08
952.28	225.06
952.58	225.09
952.87	225.07
953.17	225.11
953.47	225.09
953.76	225.10
954.06	225.03
954.36	225.02
954.66	225.03
954.95	225.04
955.25	225.02
955.55	225.05
955.84	225.01
956.14	225.00
956.44	225.04
956.73	225.04
957.03	225.04
957.32	225.05
957.62	225.05
957.92	225.07
958.21	225.06
958.51	225.18
958.81	225.18
959.10	225.19
959.40	225.20
959.69	225.23
959.99	225.25
960.29	225.26
960.58	225.29
960.88	225.31
961.17	225.31
961.47	225.31
961.76	225.31
962.06	225.34
962.36	225.34
962.65	225.35
962.95	225.35
963.24	225.31
963.54	225.30
963.83	225.33
964.13	225.35
964.42	225.29
964.72	225.24
965.01	225.27
965.31	225.28
965.60	225.25
965.90	225.28
966.19	225.24
966.49	225.26
966.78	225.24
967.08	225.24
967.37	225.24
967.67	225.23
967.96	225.23
968.26	225.22
968.55	225.23
968.85	225.19
969.14	225.17
969.43	225.20
969.73	225.20
970.02	225.15
970.32	225.12
970.61	225.17
970.91	225.13
971.20	225.05
971.49	225.03
971.79	225.05
972.08	225.00
972.38	225.00
972.67	224.98
972.96	224.99
973.26	224.97
973.55	224.97
973.85	224.99
974.14	224.98
974.43	225.03
974.73	225.02
975.02	225.03
975.31	225.06
975.61	225.07
975.90	225.09
976.19	225.12
976.49	225.16
976.78	225.13
977.07	225.14
977.37	225.18
977.66	225.21
977.95	225.18
978.24	225.16
978.54	225.20
978.83	225.20
979.12	225.20
979.42	225.20
979.71	225.19
980.00	225.20
980.29	225.21
980.59	225.14
980.88	225.16
981.17	225.15
981.46	225.15
981.76	225.14
982.05	225.16
982.34	225.15
982.63	225.15
982.93	225.13
983.22	225.14
983.51	225.15
983.80	225.14
984.09	225.20
984.39	225.19
984.68	225.17
984.97	225.18
985.26	225.18
985.55	225.19
985.85	225.19
986.14	225.20
986.43	225.21
986.72	225.22
987.01	225.19
987.30	225.20
987.59	225.19
987.89	225.20
988.18	225.15
988.47	225.16
988.76	225.12
989.05	225.14
989.34	225.11
989.63	225.14
989.92	225.12
990.22	225.09
990.51	225.10
990.80	225.11
991.09	225.11
991.38	225.12
991.67	225.11
991.96	225.11
992.25	225.09
992.54	225.04
992.83	225.05
993.12	225.06
993.41	225.09
993.70	225.12
993.99	225.15
994.28	225.17
994.58	225.17
994.87	225.15
995.16	225.14
995.45	225.13
995.74	225.05
996.03	225.08
996.32	225.07
996.61	225.11
996.90	225.10
997.19	225.07
997.48	225.07
997.77	225.02
998.06	225.03
998.34	224.99
998.63	225.01
998.92	225.01
999.21	225.00
999.50	224.96
999.79	224.91
1000.08	224.87
1000.37	224.85
1000.66	224.82
1000.95	224.89
1001.24	224.89
1001.53	224.94
1001.82	224.98
1002.11	224.96
1002.40	224.96
1002.68	224.97
1002.97	225.03
1003.26	225.05
1003.55	225.03
1003.84	225.04
1004.13	225.07
1004.42	225.06
1004.71	225.07
1004.99	225.05
1005.28	225.09
1005.57	225.09
1005.86	225.11
1006.15	225.11
1006.44	225.09
1006.72	225.14
1007.01	225.09
1007.30	225.09
1007.59	225.07
1007.88	225.07
1008.17	225.04
1008.45	225.03
1008.74	224.97
1009.03	224.92
1009.32	224.92
1009.60	224.92
1009.89	224.94
1010.18	224.90
1010.47	224.92
1010.76	224.94
1011.04	224.97
1011.33	224.99
1011.62	225.00
1011.91	225.00
1012.19	225.02
1012.48	225.03
1012.77	225.03
1013.05	225.06
1013.34	225.07
1013.63	225.03
1013.92	225.05
1014.20	225.07
1014.49	225.09
1014.78	225.10
1015.06	225.10
1015.35	225.10
1015.64	225.11
1015.92	225.14
1016.21	225.11
1016.50	225.13
1016.78	225.11
1017.07	225.09
1017.36	225.04
1017.64	225.04
1017.93	225.06
1018.22	225.01
1018.50	225.05
1018.79	225.05
1019.08	225.03
1019.36	225.03
1019.65	225.07
1019.93	225.10
1020.22	225.11
1020.51	225.16
1020.79	225.17
1021.08	224.36
1021.36	225.52
1021.65	225.19
1021.94	225.22
1022.22	225.18
1022.51	225.68
1022.79	225.57
1023.08	225.18
1023.36	226.24
1023.65	225.14
>>>>>End Processed Spectral Data<<<<<
