SpectraSuite Data File
++++++++++++++++++++++++++++++++++++
Date: Fri Feb 01 15:28:28 EST 2013
User: group
Dark Spectrum Present: No
Reference Spectrum Present: No
Number of Sampled Component Spectra: 1
Spectrometers: USB2E7196
Integration Time (usec): 35000 (USB2E7196)
Spectra Averaged: 100 (USB2E7196)
Boxcar Smoothing: 10 (USB2E7196)
Correct for Electrical Dark: No (USB2E7196)
Strobe/Lamp Enabled: No (USB2E7196)
Correct for Detector Non-linearity: No (USB2E7196)
Correct for Stray Light: No (USB2E7196)
Number of Pixels in Processed Spectrum: 2048
>>>>>Begin Processed Spectral Data<<<<<
339.09	0.00
339.48	215.19
339.86	216.58
340.24	217.70
340.63	219.66
341.01	222.35
341.39	222.14
341.78	222.36
342.16	224.19
342.54	225.15
342.93	213.48
343.31	224.30
343.69	224.81
344.07	225.26
344.46	225.69
344.84	226.06
345.22	226.30
345.60	226.54
345.99	226.80
346.37	226.97
346.75	227.05
347.13	227.09
347.52	227.12
347.90	227.19
348.28	227.21
348.66	227.29
349.05	227.31
349.43	227.32
349.81	227.34
350.19	227.38
350.57	227.42
350.96	227.47
351.34	227.53
351.72	227.66
352.10	227.75
352.48	227.84
352.87	227.86
353.25	227.90
353.63	227.98
354.01	228.01
354.39	228.08
354.77	228.16
355.15	228.29
355.54	228.32
355.92	228.37
356.30	228.45
356.68	228.56
357.06	228.62
357.44	228.69
357.82	228.76
358.20	228.81
358.58	228.86
358.97	228.94
359.35	229.02
359.73	229.09
360.11	229.17
360.49	229.20
360.87	229.26
361.25	229.32
361.63	229.37
362.01	229.40
362.39	229.43
362.77	229.47
363.15	229.45
363.53	229.51
363.91	229.51
364.29	229.52
364.67	229.44
365.05	229.48
365.43	229.50
365.81	229.51
366.19	229.55
366.57	229.57
366.95	229.57
367.33	229.54
367.71	229.51
368.09	229.49
368.47	229.47
368.85	229.48
369.23	229.48
369.61	229.43
369.99	229.45
370.37	229.41
370.75	229.46
371.13	229.45
371.51	229.35
371.89	229.34
372.27	229.30
372.65	229.27
373.03	229.21
373.41	229.16
373.78	229.12
374.16	229.02
374.54	228.94
374.92	228.87
375.30	228.80
375.68	228.71
376.06	228.64
376.44	228.54
376.82	228.43
377.19	228.32
377.57	228.25
377.95	228.14
378.33	228.06
378.71	227.92
379.09	227.81
379.47	227.80
379.84	227.73
380.22	227.65
380.60	227.55
380.98	227.45
381.36	227.36
381.73	227.26
382.11	227.20
382.49	227.15
382.87	227.05
383.25	226.98
383.62	227.07
384.00	227.00
384.38	227.01
384.76	226.99
385.13	226.97
385.51	226.92
385.89	226.89
386.27	226.85
386.64	226.79
387.02	226.77
387.40	226.72
387.78	226.67
388.15	226.63
388.53	226.62
388.91	226.57
389.29	226.53
389.66	226.55
390.04	226.55
390.42	226.52
390.79	226.55
391.17	226.56
391.55	226.40
391.92	226.39
392.30	226.37
392.68	226.34
393.05	226.34
393.43	226.35
393.81	226.32
394.18	226.34
394.56	226.38
394.94	226.42
395.31	226.44
395.69	226.49
396.06	226.54
396.44	226.58
396.82	226.66
397.19	226.78
397.57	226.81
397.95	226.85
398.32	226.90
398.70	226.98
399.07	227.03
399.45	227.10
399.82	227.17
400.20	227.21
400.58	227.33
400.95	227.38
401.33	227.47
401.70	227.65
402.08	227.75
402.45	227.83
402.83	227.92
403.20	228.02
403.58	228.12
403.95	228.24
404.33	228.38
404.71	228.49
405.08	228.66
405.46	228.81
405.83	228.97
406.21	229.11
406.58	229.33
406.96	229.50
407.33	229.72
407.70	229.91
408.08	230.21
408.45	230.38
408.83	230.62
409.20	230.87
409.58	231.06
409.95	231.31
410.33	231.60
410.70	231.82
411.08	232.14
411.45	232.42
411.82	232.74
412.20	233.06
412.57	233.48
412.95	233.74
413.32	234.13
413.69	234.55
414.07	234.99
414.44	235.38
414.82	235.87
415.19	236.39
415.56	236.96
415.94	237.51
416.31	238.16
416.68	238.77
417.06	239.48
417.43	240.15
417.81	240.91
418.18	241.68
418.55	242.56
418.93	243.38
419.30	244.33
419.67	245.23
420.04	246.20
420.42	247.17
420.79	248.38
421.16	249.50
421.54	250.65
421.91	251.91
422.28	253.18
422.66	254.55
423.03	255.81
423.40	257.12
423.77	258.51
424.15	259.92
424.52	261.44
424.89	263.03
425.26	264.57
425.64	266.02
426.01	267.65
426.38	269.28
426.75	270.99
427.13	272.69
427.50	274.52
427.87	276.39
428.24	278.30
428.61	280.03
428.99	281.98
429.36	284.09
429.73	286.10
430.10	288.09
430.47	290.12
430.85	292.29
431.22	294.54
431.59	296.93
431.96	299.20
432.33	301.66
432.70	304.06
433.08	306.90
433.45	309.55
433.82	312.17
434.19	315.10
434.56	317.92
434.93	320.61
435.30	323.20
435.68	326.13
436.05	328.93
436.42	331.72
436.79	334.26
437.16	336.96
437.53	339.83
437.90	342.73
438.27	345.45
438.64	348.28
439.01	350.93
439.38	353.17
439.75	355.34
440.13	357.86
440.50	360.19
440.87	362.07
441.24	364.01
441.61	366.19
441.98	367.67
442.35	369.52
442.72	371.34
443.09	373.21
443.46	374.21
443.83	374.79
444.20	375.32
444.57	376.17
444.94	376.49
445.31	376.79
445.68	377.08
446.05	377.18
446.42	376.81
446.79	376.35
447.16	375.90
447.53	375.54
447.90	374.34
448.27	373.15
448.64	371.56
449.01	370.44
449.37	368.43
449.74	366.51
450.11	364.23
450.48	361.77
450.85	359.19
451.22	357.06
451.59	355.06
451.96	353.12
452.33	350.51
452.70	348.12
453.07	345.31
453.43	342.43
453.80	339.66
454.17	336.94
454.54	334.39
454.91	331.68
455.28	329.05
455.65	326.58
456.02	324.14
456.38	321.96
456.75	319.27
457.12	316.99
457.49	314.77
457.86	312.61
458.23	310.75
458.59	308.73
458.96	306.61
459.33	304.74
459.70	302.89
460.07	301.38
460.43	299.66
460.80	298.02
461.17	296.57
461.54	295.05
461.91	293.61
462.27	292.13
462.64	290.88
463.01	289.49
463.38	288.20
463.74	286.85
464.11	285.71
464.48	284.64
464.85	283.54
465.21	282.68
465.58	281.72
465.95	280.60
466.32	279.66
466.68	278.72
467.05	277.83
467.42	276.91
467.78	275.95
468.15	275.10
468.52	274.42
468.88	273.55
469.25	272.79
469.62	272.19
469.98	271.49
470.35	270.86
470.72	270.26
471.08	269.60
471.45	269.00
471.82	268.41
472.18	267.82
472.55	267.38
472.92	266.84
473.28	266.35
473.65	265.90
474.02	265.45
474.38	265.09
474.75	264.71
475.11	264.35
475.48	264.09
475.85	263.83
476.21	263.61
476.58	263.40
476.94	263.21
477.31	263.00
477.67	262.84
478.04	262.71
478.41	262.65
478.77	262.68
479.14	262.65
479.50	262.64
479.87	262.69
480.23	262.80
480.60	262.85
480.96	262.96
481.33	263.18
481.69	263.39
482.06	263.58
482.42	263.79
482.79	264.06
483.15	264.35
483.52	264.69
483.88	265.01
484.25	265.44
484.61	265.89
484.98	266.38
485.34	266.96
485.71	267.54
486.07	268.13
486.44	268.67
486.80	269.35
487.17	270.10
487.53	270.92
487.90	271.73
488.26	272.69
488.62	273.64
488.99	274.62
489.35	275.65
489.72	276.75
490.08	277.97
490.44	279.22
490.81	280.55
491.17	281.88
491.54	283.40
491.90	284.86
492.26	286.49
492.63	288.23
492.99	290.01
493.36	291.90
493.72	293.98
494.08	296.10
494.45	298.34
494.81	300.72
495.17	303.19
495.54	305.78
495.90	308.46
496.26	311.27
496.63	314.24
496.99	317.37
497.35	320.66
497.72	324.00
498.08	327.47
498.44	331.10
498.80	335.14
499.17	339.16
499.53	343.39
499.89	347.76
500.26	352.25
500.62	356.93
500.98	361.89
501.34	366.98
501.71	372.32
502.07	377.77
502.43	383.40
502.79	389.22
503.16	395.33
503.52	401.64
503.88	408.08
504.24	414.72
504.60	421.63
504.97	428.77
505.33	436.18
505.69	443.95
506.05	451.81
506.41	459.66
506.78	467.86
507.14	476.31
507.50	484.98
507.86	494.05
508.22	503.18
508.59	512.42
508.95	522.00
509.31	531.81
509.67	541.97
510.03	552.30
510.39	562.88
510.75	573.59
511.12	584.51
511.48	595.79
511.84	607.25
512.20	618.74
512.56	630.73
512.92	642.93
513.28	655.21
513.64	667.67
514.00	680.51
514.37	693.42
514.73	706.49
515.09	719.62
515.45	732.95
515.81	746.66
516.17	760.65
516.53	774.69
516.89	788.83
517.25	803.00
517.61	817.42
517.97	831.88
518.33	846.42
518.69	861.21
519.05	876.29
519.41	891.46
519.77	907.16
520.13	922.69
520.49	938.12
520.85	953.61
521.21	969.43
521.57	985.63
521.93	1001.49
522.29	1017.98
522.65	1034.34
523.01	1050.60
523.37	1066.67
523.73	1083.03
524.09	1099.32
524.45	1115.69
524.81	1132.48
525.17	1149.42
525.53	1166.38
525.89	1183.29
526.25	1200.21
526.61	1216.70
526.97	1233.48
527.33	1249.92
527.68	1266.52
528.04	1283.06
528.40	1299.82
528.76	1316.92
529.12	1333.57
529.48	1350.52
529.84	1366.56
530.20	1383.22
530.56	1400.25
530.91	1417.74
531.27	1434.42
531.63	1450.86
531.99	1467.63
532.35	1483.61
532.71	1499.48
533.07	1515.80
533.42	1531.78
533.78	1547.89
534.14	1564.03
534.50	1579.41
534.86	1595.37
535.21	1610.39
535.57	1626.39
535.93	1641.98
536.29	1656.91
536.65	1672.01
537.00	1686.89
537.36	1702.25
537.72	1716.89
538.08	1731.30
538.44	1745.05
538.79	1759.01
539.15	1772.73
539.51	1786.39
539.87	1800.72
540.22	1814.51
540.58	1828.26
540.94	1841.68
541.29	1854.66
541.65	1867.44
542.01	1880.75
542.37	1893.07
542.72	1905.73
543.08	1917.47
543.44	1929.82
543.79	1941.02
544.15	1952.05
544.51	1963.58
544.87	1974.62
545.22	1985.44
545.58	1995.83
545.94	2005.63
546.29	2015.51
546.65	2025.52
547.01	2034.85
547.36	2043.77
547.72	2052.28
548.07	2060.21
548.43	2068.53
548.79	2076.36
549.14	2084.04
549.50	2091.60
549.86	2099.33
550.21	2106.76
550.57	2114.15
550.92	2120.73
551.28	2127.90
551.64	2135.05
551.99	2141.60
552.35	2147.83
552.70	2153.95
553.06	2159.94
553.41	2166.31
553.77	2172.41
554.13	2178.43
554.48	2184.58
554.84	2189.85
555.19	2195.20
555.55	2200.41
555.90	2204.79
556.26	2209.72
556.61	2214.47
556.97	2218.43
557.32	2222.49
557.68	2226.55
558.03	2230.65
558.39	2234.45
558.74	2238.99
559.10	2242.69
559.45	2246.39
559.81	2250.59
560.16	2254.47
560.52	2257.57
560.87	2261.08
561.23	2263.72
561.58	2266.67
561.94	2269.25
562.29	2271.80
562.64	2274.38
563.00	2277.03
563.35	2280.56
563.71	2283.76
564.06	2286.85
564.42	2289.85
564.77	2292.47
565.12	2294.72
565.48	2296.67
565.83	2298.51
566.19	2299.78
566.54	2300.83
566.89	2301.97
567.25	2302.49
567.60	2303.78
567.96	2305.52
568.31	2306.26
568.66	2307.27
569.02	2307.83
569.37	2308.14
569.72	2308.82
570.08	2309.01
570.43	2308.89
570.78	2308.09
571.14	2306.58
571.49	2305.31
571.84	2305.01
572.20	2303.66
572.55	2302.49
572.90	2300.93
573.26	2299.45
573.61	2297.75
573.96	2295.90
574.31	2292.82
574.67	2289.72
575.02	2286.03
575.37	2282.59
575.72	2278.75
576.08	2275.49
576.43	2272.07
576.78	2268.39
577.13	2265.23
577.49	2261.99
577.84	2258.38
578.19	2254.70
578.54	2250.80
578.90	2246.46
579.25	2240.76
579.60	2235.90
579.95	2230.99
580.30	2225.83
580.66	2220.49
581.01	2215.41
581.36	2210.45
581.71	2206.06
582.06	2201.71
582.42	2197.19
582.77	2191.84
583.12	2187.15
583.47	2182.20
583.82	2177.02
584.17	2171.67
584.53	2166.02
584.88	2160.37
585.23	2154.45
585.58	2148.86
585.93	2143.49
586.28	2138.68
586.63	2133.45
586.98	2128.28
587.34	2123.42
587.69	2118.47
588.04	2113.16
588.39	2107.42
588.74	2100.83
589.09	2094.72
589.44	2087.83
589.79	2081.61
590.14	2075.90
590.49	2069.22
590.84	2062.74
591.19	2056.75
591.54	2050.02
591.89	2042.49
592.25	2035.59
592.60	2028.51
592.95	2020.76
593.30	2013.36
593.65	2005.58
594.00	1998.52
594.35	1991.20
594.70	1983.07
595.05	1975.77
595.40	1968.39
595.75	1960.88
596.10	1954.53
596.45	1947.69
596.80	1941.40
597.15	1934.71
597.50	1927.58
597.85	1921.23
598.19	1914.57
598.54	1907.39
598.89	1900.87
599.24	1895.07
599.59	1888.28
599.94	1881.94
600.29	1875.67
600.64	1868.99
600.99	1861.57
601.34	1854.71
601.69	1847.63
602.04	1840.71
602.39	1833.36
602.74	1826.62
603.08	1819.83
603.43	1813.20
603.78	1805.91
604.13	1798.61
604.48	1791.23
604.83	1784.31
605.18	1777.23
605.53	1769.16
605.87	1761.06
606.22	1753.73
606.57	1745.56
606.92	1738.17
607.27	1730.96
607.62	1723.90
607.96	1716.64
608.31	1709.94
608.66	1702.26
609.01	1694.68
609.36	1687.07
609.70	1679.01
610.05	1670.80
610.40	1662.97
610.75	1654.49
611.10	1646.66
611.44	1638.42
611.79	1630.53
612.14	1621.85
612.49	1612.78
612.83	1604.47
613.18	1596.35
613.53	1588.26
613.88	1579.89
614.22	1571.77
614.57	1563.23
614.92	1555.28
615.27	1547.75
615.61	1539.41
615.96	1531.45
616.31	1523.89
616.65	1516.57
617.00	1509.01
617.35	1501.47
617.70	1493.23
618.04	1484.80
618.39	1476.67
618.74	1468.94
619.08	1460.58
619.43	1453.01
619.78	1446.08
620.12	1438.83
620.47	1431.34
620.82	1423.05
621.16	1415.56
621.51	1407.84
621.85	1400.25
622.20	1391.69
622.55	1383.29
622.89	1375.40
623.24	1367.76
623.59	1360.27
623.93	1352.74
624.28	1345.52
624.62	1337.90
624.97	1330.55
625.32	1323.75
625.66	1316.77
626.01	1309.52
626.35	1302.03
626.70	1294.26
627.04	1286.51
627.39	1278.79
627.73	1271.37
628.08	1264.58
628.43	1257.28
628.77	1249.84
629.12	1242.16
629.46	1234.99
629.81	1227.54
630.15	1220.44
630.50	1213.00
630.84	1204.90
631.19	1196.97
631.53	1189.40
631.88	1181.91
632.22	1174.43
632.57	1167.14
632.91	1159.52
633.26	1152.18
633.60	1144.88
633.95	1137.80
634.29	1130.79
634.64	1124.05
634.98	1116.65
635.32	1109.53
635.67	1103.01
636.01	1096.41
636.36	1089.70
636.70	1083.23
637.05	1076.68
637.39	1070.19
637.73	1063.79
638.08	1057.96
638.42	1051.99
638.77	1045.62
639.11	1039.01
639.45	1032.67
639.80	1025.94
640.14	1019.59
640.49	1013.01
640.83	1006.74
641.17	1000.51
641.52	994.09
641.86	987.79
642.20	981.98
642.55	975.59
642.89	969.01
643.23	962.52
643.58	956.71
643.92	950.46
644.26	944.36
644.61	938.29
644.95	932.17
645.29	925.54
645.64	918.72
645.98	912.31
646.32	906.47
646.66	900.49
647.01	894.78
647.35	889.06
647.69	883.29
648.04	877.66
648.38	871.87
648.72	865.90
649.06	859.79
649.41	853.89
649.75	847.89
650.09	841.96
650.43	836.15
650.78	830.00
651.12	824.08
651.46	818.31
651.80	812.57
652.14	807.19
652.49	801.79
652.83	796.68
653.17	790.98
653.51	785.20
653.85	779.72
654.20	773.96
654.54	767.93
654.88	762.21
655.22	756.44
655.56	750.69
655.90	745.23
656.25	739.98
656.59	734.58
656.93	729.56
657.27	724.46
657.61	719.04
657.95	713.90
658.29	708.82
658.64	703.60
658.98	698.21
659.32	692.83
659.66	687.57
660.00	682.20
660.34	677.29
660.68	672.37
661.02	667.33
661.36	662.68
661.70	658.22
662.05	653.81
662.39	649.48
662.73	645.04
663.07	640.62
663.41	636.16
663.75	631.77
664.09	627.16
664.43	622.72
664.77	618.62
665.11	614.36
665.45	610.25
665.79	606.16
666.13	602.13
666.47	598.00
666.81	593.84
667.15	589.72
667.49	585.83
667.83	582.05
668.17	578.09
668.51	574.02
668.85	569.97
669.19	566.04
669.53	562.18
669.87	558.34
670.21	554.66
670.55	551.02
670.89	547.58
671.23	544.17
671.57	540.73
671.91	537.15
672.25	533.76
672.58	530.24
672.92	526.87
673.26	523.69
673.60	520.56
673.94	517.49
674.28	514.59
674.62	511.65
674.96	508.55
675.30	505.67
675.64	502.75
675.97	500.03
676.31	497.23
676.65	494.28
676.99	491.59
677.33	488.74
677.67	485.90
678.01	482.83
678.34	479.83
678.68	476.92
679.02	474.13
679.36	471.30
679.70	468.57
680.04	465.83
680.37	462.97
680.71	460.18
681.05	457.61
681.39	454.94
681.73	452.26
682.06	449.74
682.40	447.19
682.74	444.70
683.08	442.15
683.42	439.56
683.75	437.11
684.09	434.57
684.43	432.09
684.77	429.66
685.10	427.30
685.44	425.08
685.78	422.80
686.12	420.57
686.45	418.32
686.79	416.08
687.13	413.95
687.46	411.84
687.80	409.69
688.14	407.47
688.48	405.46
688.81	403.22
689.15	401.09
689.49	398.98
689.82	396.91
690.16	394.78
690.50	392.86
690.83	390.88
691.17	388.89
691.51	387.04
691.84	385.19
692.18	383.30
692.52	381.28
692.85	379.37
693.19	377.50
693.52	375.66
693.86	373.78
694.20	371.96
694.53	370.14
694.87	368.26
695.21	366.49
695.54	364.65
695.88	362.95
696.21	361.21
696.55	359.54
696.88	357.85
697.22	356.24
697.56	354.60
697.89	352.97
698.23	351.36
698.56	349.72
698.90	348.13
699.23	346.47
699.57	344.94
699.90	343.43
700.24	341.86
700.58	340.30
700.91	338.86
701.25	337.39
701.58	336.04
701.92	334.68
702.25	333.27
702.59	331.90
702.92	330.58
703.26	329.24
703.59	327.95
703.93	326.78
704.26	325.54
704.60	324.25
704.93	322.94
705.26	321.64
705.60	320.52
705.93	319.35
706.27	318.33
706.60	317.29
706.94	316.15
707.27	315.03
707.61	313.99
707.94	312.94
708.27	311.88
708.61	310.75
708.94	309.76
709.28	308.79
709.61	307.81
709.94	306.84
710.28	305.85
710.61	304.86
710.95	303.75
711.28	302.84
711.61	301.91
711.95	301.01
712.28	300.11
712.61	299.09
712.95	298.18
713.28	297.32
713.61	296.40
713.95	295.56
714.28	294.72
714.61	293.85
714.95	292.99
715.28	292.11
715.61	291.23
715.95	290.35
716.28	289.48
716.61	288.68
716.95	287.88
717.28	287.12
717.61	286.36
717.94	285.63
718.28	284.80
718.61	284.04
718.94	283.35
719.27	282.66
719.61	282.02
719.94	281.36
720.27	280.60
720.60	279.95
720.94	279.29
721.27	278.69
721.60	278.06
721.93	277.52
722.27	276.97
722.60	276.44
722.93	275.90
723.26	275.39
723.59	274.80
723.93	274.25
724.26	273.70
724.59	273.15
724.92	272.60
725.25	272.13
725.59	271.61
725.92	271.10
726.25	270.60
726.58	270.13
726.91	269.58
727.24	269.13
727.57	268.67
727.91	268.17
728.24	267.71
728.57	267.26
728.90	266.75
729.23	266.26
729.56	265.82
729.89	265.36
730.22	264.89
730.55	264.44
730.89	263.97
731.22	263.56
731.55	263.13
731.88	262.71
732.21	262.30
732.54	261.91
732.87	261.48
733.20	261.07
733.53	260.71
733.86	260.41
734.19	260.02
734.52	259.65
734.85	259.37
735.18	258.97
735.51	258.64
735.84	258.29
736.17	257.99
736.50	257.58
736.83	257.33
737.16	257.01
737.49	256.69
737.82	256.39
738.15	256.09
738.48	255.74
738.81	255.43
739.14	255.08
739.47	254.79
739.80	254.49
740.13	254.25
740.46	253.89
740.79	253.56
741.12	253.23
741.45	252.91
741.78	252.52
742.11	252.25
742.44	251.90
742.77	251.61
743.10	251.28
743.43	251.03
743.75	250.66
744.08	250.48
744.41	250.20
744.74	249.89
745.07	249.55
745.40	249.37
745.73	249.11
746.06	248.88
746.39	248.60
746.71	248.32
747.04	248.01
747.37	247.74
747.70	247.48
748.03	247.28
748.36	247.03
748.68	246.85
749.01	246.60
749.34	246.37
749.67	246.14
750.00	245.88
750.33	245.69
750.65	245.46
750.98	245.12
751.31	244.88
751.64	244.73
751.97	244.59
752.29	244.32
752.62	244.10
752.95	243.86
753.28	243.64
753.60	243.43
753.93	243.24
754.26	243.06
754.59	242.82
754.91	242.62
755.24	242.39
755.57	242.15
755.90	241.94
756.22	241.78
756.55	241.57
756.88	241.37
757.20	241.10
757.53	240.90
757.86	240.76
758.19	240.58
758.51	240.36
758.84	240.10
759.17	239.94
759.49	239.75
759.82	239.61
760.15	239.44
760.47	239.27
760.80	239.10
761.13	238.96
761.45	238.81
761.78	238.64
762.11	238.54
762.43	238.38
762.76	238.24
763.08	238.10
763.41	238.01
763.74	237.88
764.06	237.78
764.39	237.65
764.71	237.45
765.04	237.34
765.37	237.19
765.69	237.07
766.02	236.96
766.34	236.81
766.67	236.64
767.00	236.54
767.32	236.46
767.65	236.42
767.97	236.31
768.30	236.18
768.62	236.09
768.95	235.91
769.27	235.80
769.60	235.71
769.92	235.58
770.25	235.45
770.57	235.31
770.90	235.19
771.22	235.11
771.55	235.06
771.87	234.96
772.20	234.88
772.52	234.88
772.85	234.90
773.17	234.82
773.50	234.73
773.82	234.60
774.15	234.48
774.47	234.34
774.80	234.20
775.12	234.10
775.45	233.99
775.77	233.94
776.09	233.84
776.42	233.75
776.74	233.69
777.07	233.58
777.39	233.54
777.72	233.49
778.04	233.41
778.36	233.30
778.69	233.25
779.01	233.24
779.33	233.07
779.66	232.90
779.98	232.86
780.31	232.82
780.63	232.85
780.95	232.80
781.28	232.74
781.60	232.71
781.92	232.70
782.25	232.65
782.57	232.61
782.89	232.58
783.22	232.51
783.54	232.43
783.86	232.43
784.19	232.37
784.51	232.34
784.83	232.31
785.16	232.29
785.48	232.22
785.80	232.13
786.12	232.09
786.45	232.06
786.77	232.01
787.09	231.96
787.42	231.89
787.74	231.86
788.06	231.81
788.38	231.78
788.71	231.70
789.03	231.66
789.35	231.62
789.67	231.57
789.99	231.56
790.32	231.55
790.64	231.52
790.96	231.53
791.28	231.45
791.61	231.39
791.93	231.32
792.25	231.27
792.57	231.32
792.89	231.26
793.21	231.21
793.54	231.17
793.86	231.10
794.18	231.06
794.50	231.01
794.82	230.98
795.14	230.95
795.47	230.94
795.79	230.89
796.11	230.85
796.43	230.80
796.75	230.71
797.07	230.65
797.39	230.61
797.71	230.52
798.04	230.49
798.36	230.48
798.68	230.47
799.00	230.45
799.32	230.33
799.64	230.34
799.96	230.33
800.28	230.27
800.60	230.25
800.92	230.21
801.24	230.18
801.56	230.13
801.89	230.04
802.21	230.04
802.53	230.00
802.85	229.98
803.17	230.00
803.49	229.99
803.81	229.95
804.13	229.89
804.45	229.84
804.77	229.81
805.09	229.75
805.41	229.69
805.73	229.62
806.05	229.57
806.37	229.50
806.69	229.45
807.01	229.41
807.33	229.37
807.65	229.29
807.97	229.28
808.28	229.25
808.60	229.25
808.92	229.18
809.24	229.23
809.56	229.21
809.88	229.15
810.20	229.11
810.52	229.08
810.84	229.04
811.16	229.00
811.48	228.99
811.80	228.99
812.12	228.97
812.43	228.93
812.75	228.93
813.07	228.91
813.39	228.87
813.71	228.83
814.03	228.79
814.35	228.80
814.67	228.75
814.98	228.71
815.30	228.67
815.62	228.63
815.94	228.56
816.26	228.57
816.58	228.51
816.89	228.51
817.21	228.50
817.53	228.48
817.85	228.50
818.17	228.46
818.48	228.43
818.80	228.43
819.12	228.43
819.44	228.41
819.76	228.38
820.07	228.39
820.39	228.42
820.71	228.42
821.03	228.41
821.34	228.38
821.66	228.38
821.98	228.41
822.30	228.41
822.61	228.44
822.93	228.39
823.25	228.40
823.57	228.40
823.88	228.43
824.20	228.43
824.52	228.44
824.83	228.44
825.15	228.41
825.47	228.40
825.79	228.43
826.10	228.37
826.42	228.39
826.74	228.38
827.05	228.38
827.37	228.37
827.69	228.36
828.00	228.39
828.32	228.40
828.64	228.34
828.95	228.36
829.27	228.31
829.58	228.30
829.90	228.32
830.22	228.30
830.53	228.26
830.85	228.25
831.17	228.18
831.48	228.20
831.80	228.20
832.11	228.19
832.43	228.14
832.75	228.21
833.06	228.27
833.38	228.25
833.69	228.23
834.01	228.24
834.32	228.24
834.64	228.20
834.96	228.20
835.27	228.21
835.59	228.19
835.90	228.16
836.22	228.17
836.53	228.13
836.85	228.11
837.16	228.20
837.48	228.24
837.79	228.29
838.11	228.27
838.42	228.30
838.74	228.33
839.05	228.32
839.37	228.26
839.68	228.15
840.00	228.15
840.31	228.15
840.63	228.14
840.94	228.13
841.26	228.09
841.57	228.07
841.88	228.05
842.20	228.02
842.51	228.01
842.83	227.98
843.14	228.05
843.46	228.06
843.77	227.97
844.08	227.94
844.40	227.85
844.71	227.85
845.03	227.80
845.34	227.75
845.65	227.72
845.97	227.72
846.28	227.71
846.60	227.69
846.91	227.66
847.22	227.65
847.54	227.63
847.85	227.64
848.16	227.62
848.48	227.59
848.79	227.64
849.10	227.63
849.42	227.62
849.73	227.53
850.04	227.51
850.36	227.50
850.67	227.49
850.98	227.51
851.30	227.48
851.61	227.46
851.92	227.46
852.23	227.54
852.55	227.55
852.86	227.56
853.17	227.55
853.49	227.56
853.80	227.58
854.11	227.59
854.42	227.62
854.74	227.63
855.05	227.65
855.36	227.61
855.67	227.61
855.99	227.65
856.30	227.76
856.61	227.76
856.92	227.73
857.23	227.74
857.55	227.74
857.86	227.73
858.17	227.76
858.48	227.77
858.79	227.71
859.11	227.71
859.42	227.69
859.73	227.71
860.04	227.69
860.35	227.63
860.66	227.61
860.98	227.63
861.29	227.62
861.60	227.60
861.91	227.60
862.22	227.62
862.53	227.59
862.84	227.48
863.16	227.52
863.47	227.53
863.78	227.55
864.09	227.57
864.40	227.62
864.71	227.63
865.02	227.65
865.33	227.69
865.64	227.70
865.95	227.72
866.27	227.81
866.58	227.84
866.89	227.85
867.20	227.88
867.51	227.84
867.82	227.88
868.13	227.95
868.44	227.94
868.75	227.94
869.06	227.96
869.37	227.99
869.68	227.95
869.99	227.95
870.30	227.96
870.61	227.97
870.92	227.93
871.23	227.91
871.54	227.90
871.85	227.91
872.16	227.90
872.47	227.90
872.78	227.81
873.09	227.80
873.40	227.82
873.71	227.82
874.02	227.81
874.33	227.78
874.64	227.75
874.95	227.77
875.26	227.76
875.56	227.71
875.87	227.69
876.18	227.67
876.49	227.75
876.80	227.73
877.11	227.69
877.42	227.68
877.73	227.65
878.04	227.63
878.35	227.61
878.66	227.61
878.96	227.61
879.27	227.60
879.58	227.57
879.89	227.54
880.20	227.56
880.51	227.54
880.82	227.53
881.12	227.50
881.43	227.45
881.74	227.43
882.05	227.43
882.36	227.45
882.67	227.46
882.97	227.37
883.28	227.33
883.59	227.31
883.90	227.34
884.21	227.37
884.51	227.34
884.82	227.35
885.13	227.31
885.44	227.29
885.74	227.27
886.05	227.27
886.36	227.25
886.67	227.21
886.98	227.26
887.28	227.24
887.59	227.26
887.90	227.26
888.20	227.25
888.51	227.26
888.82	227.21
889.13	227.18
889.43	227.22
889.74	227.21
890.05	227.21
890.35	227.20
890.66	227.16
890.97	227.16
891.28	227.14
891.58	227.17
891.89	227.15
892.20	227.17
892.50	227.13
892.81	227.15
893.12	227.15
893.42	227.12
893.73	227.14
894.04	227.11
894.34	227.13
894.65	227.10
894.95	227.10
895.26	227.11
895.57	227.16
895.87	227.12
896.18	227.15
896.48	227.13
896.79	227.14
897.10	227.18
897.40	227.17
897.71	227.20
898.01	227.16
898.32	227.18
898.63	227.19
898.93	227.22
899.24	227.22
899.54	227.22
899.85	227.22
900.15	227.20
900.46	227.21
900.76	227.22
901.07	227.22
901.38	227.22
901.68	227.21
901.99	227.18
902.29	227.18
902.60	227.18
902.90	227.22
903.21	227.21
903.51	227.22
903.82	227.28
904.12	227.28
904.43	227.31
904.73	227.32
905.03	227.32
905.34	227.43
905.64	227.44
905.95	227.44
906.25	227.44
906.56	227.47
906.86	227.48
907.17	227.50
907.47	227.51
907.77	227.52
908.08	227.53
908.38	227.55
908.69	227.57
908.99	227.56
909.30	227.56
909.60	227.56
909.90	227.55
910.21	227.50
910.51	227.47
910.81	227.49
911.12	227.48
911.42	227.49
911.73	227.39
912.03	227.38
912.33	227.39
912.64	227.40
912.94	227.36
913.24	227.37
913.55	227.33
913.85	227.33
914.15	227.34
914.46	227.38
914.76	227.32
915.06	227.31
915.37	227.30
915.67	227.29
915.97	227.28
916.27	227.22
916.58	227.22
916.88	227.20
917.18	227.19
917.49	227.24
917.79	227.22
918.09	227.24
918.39	227.23
918.70	227.24
919.00	227.23
919.30	227.27
919.60	227.25
919.91	227.23
920.21	227.23
920.51	227.19
920.81	227.16
921.12	227.18
921.42	227.16
921.72	227.17
922.02	227.14
922.32	227.20
922.63	227.20
922.93	227.26
923.23	227.26
923.53	227.23
923.83	227.19
924.13	227.18
924.44	227.16
924.74	227.21
925.04	227.20
925.34	227.19
925.64	227.14
925.94	227.13
926.24	227.19
926.55	227.19
926.85	227.20
927.15	227.20
927.45	227.21
927.75	227.22
928.05	227.21
928.35	227.20
928.65	227.17
928.95	227.19
929.26	227.14
929.56	227.17
929.86	227.19
930.16	227.16
930.46	227.15
930.76	227.16
931.06	227.09
931.36	227.08
931.66	227.08
931.96	227.09
932.26	227.10
932.56	227.05
932.86	227.05
933.16	227.06
933.46	227.06
933.76	227.04
934.06	227.06
934.36	227.08
934.66	227.09
934.96	227.08
935.26	227.10
935.56	227.10
935.86	227.11
936.16	227.10
936.46	227.12
936.76	227.10
937.06	227.10
937.36	227.12
937.66	227.13
937.96	227.12
938.26	227.13
938.56	227.13
938.86	227.12
939.16	227.14
939.46	227.16
939.76	227.14
940.06	227.16
940.35	227.14
940.65	227.11
940.95	227.11
941.25	227.09
941.55	227.08
941.85	227.09
942.15	227.09
942.45	227.12
942.75	227.10
943.04	227.12
943.34	227.09
943.64	227.10
943.94	227.09
944.24	227.13
944.54	227.11
944.84	227.12
945.13	227.13
945.43	227.10
945.73	227.09
946.03	227.11
946.33	227.11
946.62	227.10
946.92	227.07
947.22	227.09
947.52	227.09
947.82	227.09
948.11	227.07
948.41	227.04
948.71	227.00
949.01	227.02
949.31	227.02
949.60	227.02
949.90	227.02
950.20	227.00
950.50	226.99
950.79	227.02
951.09	227.03
951.39	227.03
951.69	227.05
951.98	227.06
952.28	227.07
952.58	227.05
952.87	227.07
953.17	227.11
953.47	227.11
953.76	227.12
954.06	227.10
954.36	227.11
954.66	227.15
954.95	227.17
955.25	227.18
955.55	227.18
955.84	227.18
956.14	227.18
956.44	227.20
956.73	227.19
957.03	227.19
957.32	227.22
957.62	227.19
957.92	227.21
958.21	227.22
958.51	227.31
958.81	227.33
959.10	227.33
959.40	227.37
959.69	227.37
959.99	227.40
960.29	227.40
960.58	227.38
960.88	227.38
961.17	227.37
961.47	227.36
961.76	227.40
962.06	227.41
962.36	227.42
962.65	227.44
962.95	227.43
963.24	227.41
963.54	227.37
963.83	227.41
964.13	227.40
964.42	227.36
964.72	227.32
965.01	227.32
965.31	227.31
965.60	227.28
965.90	227.30
966.19	227.25
966.49	227.28
966.78	227.29
967.08	227.27
967.37	227.28
967.67	227.28
967.96	227.24
968.26	227.23
968.55	227.21
968.85	227.22
969.14	227.22
969.43	227.21
969.73	227.21
970.02	227.18
970.32	227.16
970.61	227.13
970.91	227.10
971.20	227.09
971.49	227.11
971.79	227.11
972.08	227.08
972.38	227.09
972.67	227.07
972.96	227.06
973.26	227.06
973.55	227.09
973.85	227.05
974.14	227.07
974.43	227.06
974.73	227.06
975.02	227.04
975.31	227.05
975.61	227.06
975.90	227.06
976.19	227.09
976.49	227.08
976.78	227.09
977.07	227.05
977.37	227.05
977.66	227.01
977.95	227.01
978.24	227.02
978.54	227.04
978.83	227.08
979.12	227.08
979.42	227.06
979.71	227.02
980.00	227.03
980.29	227.03
980.59	227.01
980.88	227.02
981.17	227.00
981.46	227.00
981.76	226.98
982.05	227.02
982.34	227.00
982.63	227.04
982.93	227.06
983.22	227.09
983.51	227.09
983.80	227.14
984.09	227.14
984.39	227.11
984.68	227.09
984.97	227.05
985.26	227.05
985.55	227.05
985.85	227.05
986.14	227.06
986.43	227.05
986.72	227.05
987.01	227.02
987.30	227.01
987.59	226.99
987.89	227.00
988.18	226.95
988.47	226.95
988.76	226.88
989.05	226.87
989.34	226.85
989.63	226.89
989.92	226.87
990.22	226.87
990.51	226.88
990.80	226.84
991.09	226.87
991.38	226.87
991.67	226.86
991.96	226.85
992.25	226.84
992.54	226.85
992.83	226.86
993.12	226.84
993.41	226.88
993.70	226.90
993.99	226.88
994.28	226.88
994.58	226.88
994.87	226.90
995.16	226.90
995.45	226.89
995.74	226.81
996.03	226.80
996.32	226.78
996.61	226.79
996.90	226.80
997.19	226.77
997.48	226.77
997.77	226.76
998.06	226.75
998.34	226.74
998.63	226.72
998.92	226.70
999.21	226.71
999.50	226.65
999.79	226.63
1000.08	226.64
1000.37	226.66
1000.66	226.66
1000.95	226.69
1001.24	226.69
1001.53	226.71
1001.82	226.76
1002.11	226.72
1002.40	226.74
1002.68	226.76
1002.97	226.83
1003.26	226.81
1003.55	226.83
1003.84	226.87
1004.13	226.90
1004.42	226.92
1004.71	226.94
1004.99	226.95
1005.28	226.95
1005.57	227.01
1005.86	227.02
1006.15	227.02
1006.44	227.03
1006.72	227.07
1007.01	227.03
1007.30	227.05
1007.59	227.03
1007.88	227.03
1008.17	227.07
1008.45	227.05
1008.74	227.00
1009.03	226.97
1009.32	227.00
1009.60	226.98
1009.89	226.97
1010.18	226.94
1010.47	226.95
1010.76	226.93
1011.04	226.96
1011.33	227.02
1011.62	227.04
1011.91	227.05
1012.19	227.04
1012.48	227.01
1012.77	227.00
1013.05	227.07
1013.34	227.09
1013.63	227.09
1013.92	227.09
1014.20	227.09
1014.49	227.10
1014.78	227.16
1015.06	227.14
1015.35	227.13
1015.64	227.16
1015.92	227.15
1016.21	227.18
1016.50	227.17
1016.78	227.18
1017.07	227.18
1017.36	227.11
1017.64	227.07
1017.93	227.06
1018.22	227.08
1018.50	227.08
1018.79	227.08
1019.08	227.00
1019.36	226.97
1019.65	226.96
1019.93	226.97
1020.22	226.98
1020.51	227.03
1020.79	226.98
1021.08	227.08
1021.36	226.93
1021.65	227.11
1021.94	226.48
1022.22	226.89
1022.51	226.43
1022.79	227.37
1023.08	227.10
1023.36	228.04
1023.65	226.86
>>>>>End Processed Spectral Data<<<<<
