SpectraSuite Data File
++++++++++++++++++++++++++++++++++++
Date: Fri Feb 01 15:47:58 EST 2013
User: group
Dark Spectrum Present: No
Reference Spectrum Present: No
Number of Sampled Component Spectra: 1
Spectrometers: USB2E7196
Integration Time (usec): 35000 (USB2E7196)
Spectra Averaged: 100 (USB2E7196)
Boxcar Smoothing: 10 (USB2E7196)
Correct for Electrical Dark: No (USB2E7196)
Strobe/Lamp Enabled: No (USB2E7196)
Correct for Detector Non-linearity: No (USB2E7196)
Correct for Stray Light: No (USB2E7196)
Number of Pixels in Processed Spectrum: 2048
>>>>>Begin Processed Spectral Data<<<<<
339.09	0.00
339.48	215.33
339.86	216.40
340.24	217.87
340.63	219.56
341.01	222.53
341.39	222.11
341.78	223.42
342.16	224.27
342.54	225.09
342.93	213.49
343.31	224.27
343.69	224.80
344.07	225.28
344.46	225.70
344.84	226.04
345.22	226.28
345.60	226.52
345.99	226.72
346.37	226.87
346.75	226.96
347.13	226.99
347.52	227.07
347.90	227.12
348.28	227.12
348.66	227.16
349.05	227.16
349.43	227.23
349.81	227.25
350.19	227.31
350.57	227.30
350.96	227.36
351.34	227.43
351.72	227.53
352.10	227.59
352.48	227.66
352.87	227.71
353.25	227.75
353.63	227.80
354.01	227.85
354.39	227.93
354.77	228.02
355.15	228.14
355.54	228.16
355.92	228.19
356.30	228.26
356.68	228.41
357.06	228.46
357.44	228.48
357.82	228.57
358.20	228.60
358.58	228.69
358.97	228.72
359.35	228.81
359.73	228.84
360.11	228.88
360.49	228.92
360.87	228.96
361.25	229.00
361.63	229.07
362.01	229.07
362.39	229.07
362.77	229.07
363.15	229.04
363.53	229.06
363.91	229.06
364.29	229.08
364.67	228.94
365.05	228.99
365.43	229.02
365.81	229.04
366.19	229.12
366.57	229.13
366.95	229.13
367.33	229.08
367.71	229.09
368.09	229.08
368.47	229.07
368.85	229.06
369.23	229.03
369.61	228.97
369.99	229.00
370.37	228.97
370.75	229.00
371.13	228.94
371.51	228.88
371.89	228.88
372.27	228.81
372.65	228.78
373.03	228.69
373.41	228.63
373.78	228.55
374.16	228.39
374.54	228.33
374.92	228.26
375.30	228.21
375.68	228.10
376.06	228.06
376.44	227.99
376.82	227.94
377.19	227.86
377.57	227.76
377.95	227.66
378.33	227.57
378.71	227.42
379.09	227.37
379.47	227.32
379.84	227.23
380.22	227.18
380.60	227.12
380.98	227.03
381.36	226.92
381.73	226.84
382.11	226.80
382.49	226.73
382.87	226.64
383.25	226.56
383.62	226.64
384.00	226.55
384.38	226.52
384.76	226.47
385.13	226.53
385.51	226.50
385.89	226.43
386.27	226.44
386.64	226.40
387.02	226.36
387.40	226.33
387.78	226.29
388.15	226.26
388.53	226.22
388.91	226.23
389.29	226.23
389.66	226.23
390.04	226.19
390.42	226.21
390.79	226.25
391.17	226.23
391.55	226.08
391.92	226.09
392.30	226.08
392.68	226.07
393.05	226.00
393.43	226.01
393.81	226.02
394.18	226.00
394.56	226.05
394.94	226.13
395.31	226.16
395.69	226.26
396.06	226.32
396.44	226.37
396.82	226.38
397.19	226.47
397.57	226.49
397.95	226.58
398.32	226.58
398.70	226.62
399.07	226.72
399.45	226.81
399.82	226.90
400.20	226.95
400.58	227.01
400.95	227.07
401.33	227.20
401.70	227.37
402.08	227.47
402.45	227.58
402.83	227.68
403.20	227.81
403.58	227.88
403.95	227.97
404.33	228.11
404.71	228.29
405.08	228.46
405.46	228.60
405.83	228.72
406.21	228.89
406.58	229.07
406.96	229.23
407.33	229.37
407.70	229.56
408.08	229.82
408.45	230.03
408.83	230.26
409.20	230.42
409.58	230.55
409.95	230.80
410.33	231.05
410.70	231.29
411.08	231.54
411.45	231.83
411.82	232.12
412.20	232.44
412.57	232.82
412.95	233.11
413.32	233.51
413.69	233.92
414.07	234.34
414.44	234.81
414.82	235.27
415.19	235.87
415.56	236.39
415.94	236.98
416.31	237.64
416.68	238.31
417.06	239.06
417.43	239.78
417.81	240.54
418.18	241.31
418.55	242.15
418.93	243.04
419.30	243.95
419.67	244.92
420.04	245.90
420.42	246.90
420.79	248.10
421.16	249.24
421.54	250.42
421.91	251.66
422.28	252.89
422.66	254.18
423.03	255.47
423.40	256.79
423.77	258.18
424.15	259.59
424.52	261.03
424.89	262.63
425.26	264.19
425.64	265.63
426.01	267.25
426.38	268.90
426.75	270.59
427.13	272.29
427.50	274.07
427.87	275.94
428.24	277.79
428.61	279.55
428.99	281.54
429.36	283.61
429.73	285.66
430.10	287.68
430.47	289.80
430.85	291.93
431.22	294.20
431.59	296.62
431.96	298.89
432.33	301.41
432.70	303.78
433.08	306.59
433.45	309.25
433.82	311.82
434.19	314.73
434.56	317.54
434.93	320.21
435.30	322.85
435.68	325.79
436.05	328.66
436.42	331.49
436.79	334.01
437.16	336.77
437.53	339.61
437.90	342.42
438.27	345.14
438.64	348.02
439.01	350.57
439.38	352.79
439.75	354.91
440.13	357.46
440.50	359.76
440.87	361.57
441.24	363.53
441.61	365.74
441.98	367.24
442.35	369.04
442.72	370.91
443.09	372.70
443.46	373.66
443.83	374.20
444.20	374.70
444.57	375.48
444.94	375.77
445.31	376.13
445.68	376.52
446.05	376.61
446.42	376.21
446.79	375.81
447.16	375.33
447.53	375.02
447.90	373.77
448.27	372.63
448.64	371.08
449.01	369.91
449.37	367.94
449.74	366.02
450.11	363.77
450.48	361.25
450.85	358.68
451.22	356.55
451.59	354.51
451.96	352.55
452.33	349.96
452.70	347.55
453.07	344.66
453.43	341.77
453.80	338.98
454.17	336.24
454.54	333.66
454.91	330.95
455.28	328.27
455.65	325.83
456.02	323.38
456.38	321.21
456.75	318.56
457.12	316.29
457.49	314.06
457.86	311.91
458.23	310.05
458.59	308.05
458.96	305.94
459.33	304.14
459.70	302.25
460.07	300.78
460.43	299.08
460.80	297.49
461.17	296.06
461.54	294.56
461.91	293.12
462.27	291.71
462.64	290.49
463.01	289.16
463.38	287.84
463.74	286.47
464.11	285.32
464.48	284.28
464.85	283.19
465.21	282.30
465.58	281.35
465.95	280.28
466.32	279.38
466.68	278.46
467.05	277.54
467.42	276.66
467.78	275.69
468.15	274.82
468.52	274.18
468.88	273.32
469.25	272.55
469.62	271.97
469.98	271.28
470.35	270.64
470.72	270.02
471.08	269.34
471.45	268.81
471.82	268.25
472.18	267.64
472.55	267.17
472.92	266.66
473.28	266.20
473.65	265.79
474.02	265.34
474.38	265.00
474.75	264.64
475.11	264.34
475.48	264.10
475.85	263.88
476.21	263.65
476.58	263.48
476.94	263.34
477.31	263.20
477.67	263.07
478.04	262.96
478.41	262.93
478.77	262.99
479.14	262.90
479.50	262.94
479.87	263.04
480.23	263.16
480.60	263.21
480.96	263.31
481.33	263.48
481.69	263.69
482.06	263.86
482.42	264.11
482.79	264.34
483.15	264.65
483.52	265.04
483.88	265.36
484.25	265.72
484.61	266.16
484.98	266.61
485.34	267.17
485.71	267.79
486.07	268.39
486.44	268.98
486.80	269.73
487.17	270.45
487.53	271.31
487.90	272.11
488.26	273.06
488.62	274.07
488.99	275.05
489.35	276.12
489.72	277.27
490.08	278.47
490.44	279.72
490.81	281.09
491.17	282.46
491.54	283.94
491.90	285.47
492.26	287.12
492.63	288.84
492.99	290.61
493.36	292.49
493.72	294.56
494.08	296.64
494.45	298.86
494.81	301.24
495.17	303.61
495.54	306.23
495.90	308.87
496.26	311.69
496.63	314.65
496.99	317.77
497.35	321.00
497.72	324.41
498.08	327.93
498.44	331.56
498.80	335.44
499.17	339.49
499.53	343.70
499.89	348.10
500.26	352.60
500.62	357.33
500.98	362.23
501.34	367.28
501.71	372.64
502.07	378.14
502.43	383.72
502.79	389.52
503.16	395.58
503.52	401.90
503.88	408.33
504.24	414.96
504.60	421.81
504.97	428.96
505.33	436.28
505.69	443.98
506.05	451.78
506.41	459.65
506.78	467.83
507.14	476.22
507.50	484.94
507.86	494.02
508.22	503.22
508.59	512.43
508.95	522.06
509.31	531.83
509.67	541.92
510.03	552.22
510.39	562.80
510.75	573.65
511.12	584.59
511.48	595.84
511.84	607.29
512.20	618.83
512.56	630.83
512.92	642.96
513.28	655.29
513.64	667.74
514.00	680.45
514.37	693.39
514.73	706.40
515.09	719.38
515.45	732.59
515.81	746.12
516.17	760.13
516.53	774.24
516.89	788.39
517.25	802.51
517.61	816.92
517.97	831.46
518.33	845.86
518.69	860.67
519.05	875.66
519.41	890.86
519.77	906.45
520.13	921.88
520.49	937.24
520.85	952.66
521.21	968.47
521.57	984.67
521.93	1000.40
522.29	1016.90
522.65	1033.16
523.01	1049.43
523.37	1065.49
523.73	1081.67
524.09	1097.70
524.45	1114.04
524.81	1130.67
525.17	1147.58
525.53	1164.46
525.89	1181.44
526.25	1198.22
526.61	1214.56
526.97	1231.27
527.33	1247.60
527.68	1264.19
528.04	1280.72
528.40	1297.38
528.76	1314.45
529.12	1331.07
529.48	1347.99
529.84	1364.02
530.20	1380.63
530.56	1397.64
530.91	1415.01
531.27	1431.75
531.63	1448.21
531.99	1464.91
532.35	1480.86
532.71	1496.73
533.07	1513.00
533.42	1528.82
533.78	1544.86
534.14	1561.12
534.50	1576.47
534.86	1592.45
535.21	1607.47
535.57	1623.49
535.93	1638.85
536.29	1653.64
536.65	1668.78
537.00	1683.60
537.36	1698.79
537.72	1713.33
538.08	1727.77
538.44	1741.53
538.79	1755.37
539.15	1769.15
539.51	1782.80
539.87	1797.18
540.22	1810.88
540.58	1824.55
540.94	1837.85
541.29	1850.75
541.65	1863.50
542.01	1876.78
542.37	1888.98
542.72	1901.51
543.08	1913.19
543.44	1925.63
543.79	1936.77
544.15	1947.70
544.51	1959.19
544.87	1970.20
545.22	1980.99
545.58	1991.14
545.94	2000.79
546.29	2010.85
546.65	2020.64
547.01	2029.90
547.36	2038.71
547.72	2047.17
548.07	2054.98
548.43	2063.21
548.79	2071.29
549.14	2078.75
549.50	2086.03
549.86	2093.84
550.21	2101.18
550.57	2108.33
550.92	2114.97
551.28	2122.00
551.64	2129.06
551.99	2135.51
552.35	2141.69
552.70	2147.85
553.06	2153.79
553.41	2160.26
553.77	2166.27
554.13	2172.21
554.48	2178.29
554.84	2183.70
555.19	2189.08
555.55	2194.34
555.90	2198.74
556.26	2203.55
556.61	2208.28
556.97	2212.53
557.32	2216.61
557.68	2220.74
558.03	2225.11
558.39	2228.65
558.74	2233.33
559.10	2237.22
559.45	2240.91
559.81	2245.18
560.16	2249.12
560.52	2252.30
560.87	2255.76
561.23	2258.25
561.58	2261.33
561.94	2263.86
562.29	2266.25
562.64	2268.84
563.00	2271.39
563.35	2274.84
563.71	2277.95
564.06	2281.17
564.42	2284.06
564.77	2286.63
565.12	2288.92
565.48	2290.83
565.83	2292.80
566.19	2293.99
566.54	2294.85
566.89	2295.96
567.25	2296.41
567.60	2297.70
567.96	2299.50
568.31	2300.31
568.66	2301.43
569.02	2301.91
569.37	2302.24
569.72	2303.08
570.08	2303.23
570.43	2303.18
570.78	2302.59
571.14	2301.13
571.49	2299.89
571.84	2299.38
572.20	2298.21
572.55	2297.02
572.90	2295.43
573.26	2294.03
573.61	2292.48
573.96	2290.70
574.31	2287.85
574.67	2284.95
575.02	2281.27
575.37	2277.84
575.72	2274.03
576.08	2270.70
576.43	2267.44
576.78	2263.80
577.13	2260.70
577.49	2257.52
577.84	2254.06
578.19	2250.36
578.54	2246.59
578.90	2242.40
579.25	2237.05
579.60	2232.08
579.95	2227.19
580.30	2222.20
580.66	2217.10
581.01	2212.17
581.36	2207.30
581.71	2203.04
582.06	2198.60
582.42	2193.99
582.77	2188.75
583.12	2184.20
583.47	2179.41
583.82	2174.32
584.17	2168.94
584.53	2163.36
584.88	2157.76
585.23	2152.01
585.58	2146.54
585.93	2141.21
586.28	2136.38
586.63	2131.22
586.98	2126.21
587.34	2121.51
587.69	2116.52
588.04	2111.12
588.39	2105.32
588.74	2098.82
589.09	2092.45
589.44	2085.63
589.79	2079.90
590.14	2074.27
590.49	2067.62
590.84	2061.33
591.19	2055.38
591.54	2048.90
591.89	2041.39
592.25	2034.53
592.60	2027.26
592.95	2019.62
593.30	2012.14
593.65	2004.47
594.00	1997.39
594.35	1990.02
594.70	1981.99
595.05	1974.64
595.40	1967.36
595.75	1959.82
596.10	1953.57
596.45	1946.97
596.80	1940.81
597.15	1934.01
597.50	1926.87
597.85	1920.52
598.19	1913.89
598.54	1906.78
598.89	1900.10
599.24	1894.30
599.59	1887.56
599.94	1881.51
600.29	1875.21
600.64	1868.78
600.99	1861.35
601.34	1854.45
601.69	1847.52
602.04	1840.39
602.39	1833.17
602.74	1826.33
603.08	1819.66
603.43	1812.97
603.78	1805.66
604.13	1798.42
604.48	1791.01
604.83	1784.29
605.18	1777.17
605.53	1769.12
605.87	1761.08
606.22	1753.92
606.57	1745.91
606.92	1738.69
607.27	1731.41
607.62	1724.51
607.96	1717.16
608.31	1710.47
608.66	1702.89
609.01	1695.33
609.36	1687.86
609.70	1679.85
610.05	1671.81
610.40	1664.11
610.75	1655.72
611.10	1648.16
611.44	1639.81
611.79	1631.91
612.14	1623.15
612.49	1614.02
612.83	1605.59
613.18	1597.46
613.53	1589.35
613.88	1580.76
614.22	1572.41
614.57	1563.83
614.92	1555.70
615.27	1548.02
615.61	1539.62
615.96	1531.64
616.31	1523.97
616.65	1516.71
617.00	1509.17
617.35	1501.55
617.70	1493.22
618.04	1484.81
618.39	1476.51
618.74	1468.87
619.08	1460.60
619.43	1452.96
619.78	1446.09
620.12	1438.90
620.47	1431.36
620.82	1423.22
621.16	1415.91
621.51	1408.34
621.85	1400.82
622.20	1392.35
622.55	1384.11
622.89	1376.43
623.24	1368.75
623.59	1361.47
623.93	1353.87
624.28	1346.60
624.62	1339.03
624.97	1331.77
625.32	1324.98
625.66	1318.01
626.01	1310.72
626.35	1303.18
626.70	1295.48
627.04	1287.74
627.39	1280.03
627.73	1272.64
628.08	1265.79
628.43	1258.33
628.77	1250.87
629.12	1243.13
629.46	1235.92
629.81	1228.48
630.15	1221.16
630.50	1213.81
630.84	1205.53
631.19	1197.71
631.53	1190.23
631.88	1182.64
632.22	1175.04
632.57	1167.71
632.91	1160.14
633.26	1152.80
633.60	1145.42
633.95	1138.32
634.29	1131.26
634.64	1124.50
634.98	1117.19
635.32	1110.04
635.67	1103.53
636.01	1096.98
636.36	1090.15
636.70	1083.70
637.05	1077.15
637.39	1070.71
637.73	1064.18
638.08	1058.31
638.42	1052.30
638.77	1045.81
639.11	1039.25
639.45	1032.84
639.80	1026.14
640.14	1019.70
640.49	1013.19
640.83	1006.92
641.17	1000.62
641.52	994.33
641.86	987.85
642.20	981.88
642.55	975.51
642.89	969.05
643.23	962.48
643.58	956.77
643.92	950.46
644.26	944.31
644.61	938.32
644.95	932.29
645.29	925.62
645.64	918.78
645.98	912.42
646.32	906.58
646.66	900.59
647.01	894.77
647.35	889.04
647.69	883.18
648.04	877.63
648.38	871.82
648.72	865.72
649.06	859.71
649.41	853.96
649.75	847.98
650.09	842.01
650.43	836.21
650.78	830.03
651.12	824.16
651.46	818.45
651.80	812.64
652.14	807.23
652.49	801.89
652.83	796.80
653.17	791.15
653.51	785.40
653.85	780.06
654.20	774.41
654.54	768.46
654.88	762.75
655.22	756.92
655.56	751.24
655.90	745.89
656.25	740.61
656.59	735.15
656.93	730.04
657.27	724.88
657.61	719.46
657.95	714.40
658.29	709.27
658.64	704.05
658.98	698.81
659.32	693.35
659.66	688.16
660.00	682.83
660.34	677.92
660.68	673.01
661.02	667.93
661.36	663.29
661.70	658.73
662.05	654.38
662.39	650.01
662.73	645.62
663.07	641.19
663.41	636.74
663.75	632.31
664.09	627.78
664.43	623.40
664.77	619.30
665.11	614.98
665.45	610.83
665.79	606.69
666.13	602.52
666.47	598.46
666.81	594.29
667.15	590.13
667.49	586.20
667.83	582.38
668.17	578.47
668.51	574.36
668.85	570.37
669.19	566.54
669.53	562.66
669.87	558.70
670.21	555.03
670.55	551.41
670.89	548.00
671.23	544.57
671.57	541.07
671.91	537.50
672.25	534.03
672.58	530.52
672.92	527.13
673.26	523.96
673.60	520.79
673.94	517.72
674.28	514.81
674.62	511.84
674.96	508.69
675.30	505.71
675.64	502.76
675.97	499.96
676.31	497.04
676.65	494.15
676.99	491.51
677.33	488.64
677.67	485.77
678.01	482.65
678.34	479.64
678.68	476.75
679.02	473.94
679.36	471.22
679.70	468.57
680.04	465.80
680.37	462.94
680.71	460.14
681.05	457.50
681.39	454.78
681.73	452.16
682.06	449.67
682.40	447.15
682.74	444.64
683.08	442.07
683.42	439.49
683.75	437.02
684.09	434.44
684.43	431.97
684.77	429.59
685.10	427.29
685.44	425.02
685.78	422.74
686.12	420.48
686.45	418.17
686.79	415.83
687.13	413.62
687.46	411.43
687.80	409.26
688.14	407.02
688.48	404.97
688.81	402.70
689.15	400.55
689.49	398.38
689.82	396.35
690.16	394.29
690.50	392.33
690.83	390.40
691.17	388.41
691.51	386.51
691.84	384.65
692.18	382.69
692.52	380.71
692.85	378.80
693.19	376.93
693.52	375.09
693.86	373.37
694.20	371.63
694.53	369.84
694.87	368.00
695.21	366.28
695.54	364.46
695.88	362.75
696.21	361.05
696.55	359.44
696.88	357.75
697.22	356.11
697.56	354.52
697.89	352.85
698.23	351.25
698.56	349.64
698.90	348.06
699.23	346.44
699.57	344.94
699.90	343.41
700.24	341.87
700.58	340.33
700.91	338.81
701.25	337.37
701.58	336.01
701.92	334.70
702.25	333.32
702.59	331.97
702.92	330.63
703.26	329.31
703.59	328.00
703.93	326.80
704.26	325.54
704.60	324.22
704.93	322.92
705.26	321.67
705.60	320.51
705.93	319.34
706.27	318.31
706.60	317.22
706.94	316.13
707.27	314.99
707.61	313.95
707.94	312.91
708.27	311.79
708.61	310.73
708.94	309.72
709.28	308.73
709.61	307.77
709.94	306.88
710.28	305.85
710.61	304.84
710.95	303.76
711.28	302.85
711.61	301.89
711.95	300.94
712.28	299.99
712.61	298.99
712.95	298.03
713.28	297.12
713.61	296.21
713.95	295.35
714.28	294.52
714.61	293.64
714.95	292.78
715.28	291.94
715.61	291.06
715.95	290.17
716.28	289.34
716.61	288.54
716.95	287.68
717.28	286.96
717.61	286.22
717.94	285.50
718.28	284.69
718.61	284.01
718.94	283.34
719.27	282.66
719.61	282.01
719.94	281.35
720.27	280.63
720.60	279.95
720.94	279.28
721.27	278.70
721.60	278.13
721.93	277.52
722.27	276.97
722.60	276.40
722.93	275.84
723.26	275.26
723.59	274.68
723.93	274.17
724.26	273.62
724.59	273.06
724.92	272.55
725.25	272.05
725.59	271.53
725.92	271.05
726.25	270.53
726.58	270.06
726.91	269.60
727.24	269.15
727.57	268.73
727.91	268.22
728.24	267.77
728.57	267.30
728.90	266.88
729.23	266.41
729.56	265.98
729.89	265.55
730.22	265.07
730.55	264.60
730.89	264.14
731.22	263.65
731.55	263.23
731.88	262.75
732.21	262.35
732.54	261.91
732.87	261.51
733.20	261.14
733.53	260.74
733.86	260.34
734.19	259.91
734.52	259.55
734.85	259.26
735.18	258.81
735.51	258.45
735.84	258.07
736.17	257.71
736.50	257.31
736.83	257.05
737.16	256.71
737.49	256.40
737.82	256.05
738.15	255.72
738.48	255.37
738.81	255.08
739.14	254.73
739.47	254.42
739.80	254.08
740.13	253.78
740.46	253.45
740.79	253.12
741.12	252.84
741.45	252.48
741.78	252.12
742.11	251.86
742.44	251.51
742.77	251.23
743.10	250.95
743.43	250.64
743.75	250.24
744.08	250.10
744.41	249.79
744.74	249.50
745.07	249.24
745.40	248.98
745.73	248.76
746.06	248.49
746.39	248.19
746.71	247.91
747.04	247.64
747.37	247.37
747.70	247.13
748.03	246.87
748.36	246.64
748.68	246.41
749.01	246.14
749.34	245.91
749.67	245.65
750.00	245.40
750.33	245.25
750.65	245.07
750.98	244.74
751.31	244.54
751.64	244.33
751.97	244.16
752.29	243.96
752.62	243.66
752.95	243.44
753.28	243.26
753.60	243.07
753.93	242.87
754.26	242.71
754.59	242.47
754.91	242.25
755.24	242.06
755.57	241.86
755.90	241.69
756.22	241.49
756.55	241.27
756.88	241.09
757.20	240.85
757.53	240.65
757.86	240.47
758.19	240.32
758.51	240.17
758.84	239.96
759.17	239.78
759.49	239.65
759.82	239.54
760.15	239.41
760.47	239.22
760.80	239.04
761.13	238.91
761.45	238.80
761.78	238.66
762.11	238.51
762.43	238.36
762.76	238.22
763.08	238.10
763.41	237.99
763.74	237.89
764.06	237.75
764.39	237.60
764.71	237.46
765.04	237.28
765.37	237.13
765.69	237.02
766.02	236.91
766.34	236.77
766.67	236.61
767.00	236.50
767.32	236.45
767.65	236.43
767.97	236.30
768.30	236.17
768.62	236.10
768.95	235.98
769.27	235.87
769.60	235.77
769.92	235.65
770.25	235.55
770.57	235.42
770.90	235.31
771.22	235.24
771.55	235.15
771.87	235.07
772.20	234.97
772.52	234.94
772.85	234.95
773.17	234.89
773.50	234.79
773.82	234.68
774.15	234.56
774.47	234.38
774.80	234.29
775.12	234.21
775.45	234.09
775.77	234.02
776.09	233.95
776.42	233.87
776.74	233.80
777.07	233.71
777.39	233.63
777.72	233.58
778.04	233.50
778.36	233.40
778.69	233.32
779.01	233.28
779.33	233.12
779.66	232.95
779.98	232.84
780.31	232.79
780.63	232.75
780.95	232.71
781.28	232.67
781.60	232.59
781.92	232.50
782.25	232.44
782.57	232.36
782.89	232.28
783.22	232.22
783.54	232.15
783.86	232.10
784.19	232.03
784.51	231.98
784.83	231.90
785.16	231.86
785.48	231.85
785.80	231.77
786.12	231.74
786.45	231.69
786.77	231.65
787.09	231.62
787.42	231.58
787.74	231.49
788.06	231.42
788.38	231.38
788.71	231.33
789.03	231.31
789.35	231.27
789.67	231.22
789.99	231.16
790.32	231.09
790.64	231.06
790.96	231.10
791.28	231.02
791.61	230.98
791.93	230.94
792.25	230.84
792.57	230.88
792.89	230.80
793.21	230.79
793.54	230.74
793.86	230.66
794.18	230.61
794.50	230.57
794.82	230.55
795.14	230.50
795.47	230.48
795.79	230.44
796.11	230.40
796.43	230.40
796.75	230.37
797.07	230.34
797.39	230.28
797.71	230.18
798.04	230.16
798.36	230.14
798.68	230.14
799.00	230.15
799.32	230.08
799.64	230.10
799.96	230.04
800.28	230.04
800.60	229.99
800.92	229.96
801.24	229.94
801.56	229.94
801.89	229.94
802.21	229.89
802.53	229.85
802.85	229.85
803.17	229.85
803.49	229.83
803.81	229.83
804.13	229.81
804.45	229.81
804.77	229.78
805.09	229.73
805.41	229.67
805.73	229.62
806.05	229.55
806.37	229.54
806.69	229.51
807.01	229.50
807.33	229.53
807.65	229.49
807.97	229.51
808.28	229.45
808.60	229.41
808.92	229.39
809.24	229.42
809.56	229.37
809.88	229.30
810.20	229.31
810.52	229.27
810.84	229.22
811.16	229.18
811.48	229.15
811.80	229.18
812.12	229.18
812.43	229.14
812.75	229.13
813.07	229.06
813.39	229.02
813.71	228.97
814.03	228.91
814.35	228.87
814.67	228.81
814.98	228.78
815.30	228.77
815.62	228.75
815.94	228.66
816.26	228.69
816.58	228.66
816.89	228.59
817.21	228.56
817.53	228.57
817.85	228.54
818.17	228.53
818.48	228.47
818.80	228.46
819.12	228.48
819.44	228.46
819.76	228.46
820.07	228.46
820.39	228.43
820.71	228.44
821.03	228.43
821.34	228.41
821.66	228.44
821.98	228.43
822.30	228.39
822.61	228.45
822.93	228.41
823.25	228.41
823.57	228.42
823.88	228.41
824.20	228.38
824.52	228.37
824.83	228.35
825.15	228.33
825.47	228.30
825.79	228.28
826.10	228.27
826.42	228.24
826.74	228.20
827.05	228.22
827.37	228.20
827.69	228.17
828.00	228.15
828.32	228.10
828.64	228.10
828.95	228.16
829.27	228.09
829.58	228.07
829.90	228.06
830.22	228.05
830.53	228.07
830.85	228.08
831.17	228.05
831.48	228.02
831.80	228.01
832.11	227.96
832.43	227.92
832.75	227.90
833.06	227.96
833.38	227.97
833.69	227.93
834.01	227.92
834.32	227.92
834.64	227.94
834.96	227.92
835.27	227.91
835.59	227.87
835.90	227.86
836.22	227.84
836.53	227.80
836.85	227.78
837.16	227.84
837.48	227.81
837.79	227.85
838.11	227.86
838.42	227.84
838.74	227.90
839.05	227.89
839.37	227.89
839.68	227.83
840.00	227.79
840.31	227.84
840.63	227.82
840.94	227.81
841.26	227.75
841.57	227.76
841.88	227.76
842.20	227.72
842.51	227.72
842.83	227.70
843.14	227.78
843.46	227.79
843.77	227.74
844.08	227.73
844.40	227.70
844.71	227.68
845.03	227.70
845.34	227.66
845.65	227.69
845.97	227.70
846.28	227.71
846.60	227.74
846.91	227.71
847.22	227.70
847.54	227.71
847.85	227.73
848.16	227.73
848.48	227.69
848.79	227.75
849.10	227.73
849.42	227.73
849.73	227.66
850.04	227.65
850.36	227.61
850.67	227.57
850.98	227.56
851.30	227.56
851.61	227.54
851.92	227.54
852.23	227.52
852.55	227.48
852.86	227.48
853.17	227.45
853.49	227.46
853.80	227.46
854.11	227.44
854.42	227.43
854.74	227.42
855.05	227.40
855.36	227.33
855.67	227.35
855.99	227.38
856.30	227.48
856.61	227.47
856.92	227.42
857.23	227.44
857.55	227.45
857.86	227.44
858.17	227.46
858.48	227.43
858.79	227.42
859.11	227.45
859.42	227.40
859.73	227.36
860.04	227.34
860.35	227.33
860.66	227.29
860.98	227.31
861.29	227.30
861.60	227.33
861.91	227.34
862.22	227.30
862.53	227.26
862.84	227.14
863.16	227.13
863.47	227.15
863.78	227.15
864.09	227.11
864.40	227.11
864.71	227.12
865.02	227.15
865.33	227.13
865.64	227.11
865.95	227.14
866.27	227.22
866.58	227.21
866.89	227.19
867.20	227.18
867.51	227.13
867.82	227.12
868.13	227.16
868.44	227.18
868.75	227.20
869.06	227.22
869.37	227.25
869.68	227.25
869.99	227.25
870.30	227.26
870.61	227.29
870.92	227.28
871.23	227.25
871.54	227.25
871.85	227.32
872.16	227.31
872.47	227.27
872.78	227.21
873.09	227.22
873.40	227.25
873.71	227.30
874.02	227.35
874.33	227.34
874.64	227.30
874.95	227.29
875.26	227.27
875.56	227.26
875.87	227.26
876.18	227.26
876.49	227.34
876.80	227.35
877.11	227.33
877.42	227.36
877.73	227.37
878.04	227.35
878.35	227.29
878.66	227.31
878.96	227.33
879.27	227.35
879.58	227.36
879.89	227.37
880.20	227.39
880.51	227.38
880.82	227.36
881.12	227.34
881.43	227.33
881.74	227.29
882.05	227.31
882.36	227.30
882.67	227.34
882.97	227.25
883.28	227.21
883.59	227.19
883.90	227.20
884.21	227.19
884.51	227.21
884.82	227.18
885.13	227.16
885.44	227.19
885.74	227.18
886.05	227.16
886.36	227.15
886.67	227.08
886.98	227.12
887.28	227.14
887.59	227.13
887.90	227.14
888.20	227.16
888.51	227.12
888.82	227.08
889.13	227.08
889.43	227.14
889.74	227.11
890.05	227.10
890.35	227.03
890.66	226.99
890.97	226.95
891.28	226.95
891.58	226.96
891.89	226.90
892.20	226.85
892.50	226.85
892.81	226.82
893.12	226.81
893.42	226.77
893.73	226.76
894.04	226.78
894.34	226.80
894.65	226.79
894.95	226.78
895.26	226.79
895.57	226.80
895.87	226.73
896.18	226.80
896.48	226.83
896.79	226.87
897.10	226.92
897.40	226.96
897.71	226.96
898.01	226.96
898.32	227.01
898.63	227.04
898.93	227.05
899.24	227.07
899.54	227.05
899.85	227.03
900.15	227.01
900.46	227.04
900.76	227.05
901.07	227.04
901.38	227.09
901.68	227.13
901.99	227.09
902.29	227.10
902.60	227.08
902.90	227.09
903.21	227.06
903.51	227.03
903.82	227.03
904.12	227.07
904.43	227.09
904.73	227.05
905.03	227.04
905.34	227.13
905.64	227.11
905.95	227.11
906.25	227.14
906.56	227.16
906.86	227.14
907.17	227.10
907.47	227.09
907.77	227.09
908.08	227.08
908.38	227.10
908.69	227.11
908.99	227.13
909.30	227.13
909.60	227.16
909.90	227.15
910.21	227.16
910.51	227.10
910.81	227.10
911.12	227.12
911.42	227.10
911.73	227.02
912.03	227.04
912.33	227.06
912.64	227.04
912.94	227.03
913.24	227.00
913.55	226.95
913.85	226.97
914.15	226.99
914.46	226.98
914.76	226.95
915.06	226.93
915.37	226.89
915.67	226.88
915.97	226.89
916.27	226.87
916.58	226.89
916.88	226.90
917.18	226.90
917.49	226.94
917.79	226.94
918.09	226.97
918.39	226.99
918.70	226.98
919.00	226.99
919.30	227.01
919.60	227.02
919.91	227.06
920.21	227.05
920.51	227.00
920.81	226.98
921.12	227.01
921.42	227.00
921.72	227.00
922.02	227.02
922.32	227.01
922.63	227.02
922.93	227.06
923.23	227.06
923.53	227.03
923.83	226.97
924.13	227.02
924.44	227.00
924.74	227.01
925.04	227.03
925.34	227.04
925.64	227.00
925.94	226.98
926.24	227.04
926.55	227.03
926.85	227.04
927.15	227.05
927.45	227.04
927.75	227.03
928.05	227.01
928.35	226.97
928.65	226.96
928.95	227.00
929.26	226.93
929.56	226.95
929.86	226.93
930.16	226.93
930.46	226.88
930.76	226.89
931.06	226.81
931.36	226.76
931.66	226.77
931.96	226.80
932.26	226.82
932.56	226.76
932.86	226.77
933.16	226.73
933.46	226.72
933.76	226.68
934.06	226.70
934.36	226.73
934.66	226.72
934.96	226.71
935.26	226.68
935.56	226.69
935.86	226.68
936.16	226.67
936.46	226.66
936.76	226.66
937.06	226.64
937.36	226.67
937.66	226.72
937.96	226.68
938.26	226.65
938.56	226.63
938.86	226.64
939.16	226.68
939.46	226.70
939.76	226.71
940.06	226.76
940.35	226.75
940.65	226.74
940.95	226.77
941.25	226.75
941.55	226.77
941.85	226.75
942.15	226.75
942.45	226.80
942.75	226.82
943.04	226.82
943.34	226.84
943.64	226.83
943.94	226.83
944.24	226.85
944.54	226.88
944.84	226.89
945.13	226.90
945.43	226.88
945.73	226.91
946.03	226.89
946.33	226.88
946.62	226.89
946.92	226.88
947.22	226.89
947.52	226.91
947.82	226.91
948.11	226.91
948.41	226.92
948.71	226.91
949.01	226.92
949.31	226.95
949.60	226.95
949.90	226.99
950.20	226.99
950.50	227.01
950.79	226.97
951.09	227.00
951.39	226.99
951.69	226.97
951.98	227.00
952.28	227.01
952.58	227.02
952.87	227.03
953.17	227.07
953.47	227.07
953.76	227.08
954.06	227.10
954.36	227.11
954.66	227.12
954.95	227.16
955.25	227.17
955.55	227.17
955.84	227.12
956.14	227.12
956.44	227.08
956.73	227.06
957.03	227.07
957.32	227.09
957.62	227.07
957.92	227.11
958.21	227.08
958.51	227.17
958.81	227.16
959.10	227.12
959.40	227.13
959.69	227.12
959.99	227.15
960.29	227.12
960.58	227.09
960.88	227.12
961.17	227.08
961.47	227.04
961.76	227.04
962.06	227.10
962.36	227.09
962.65	227.11
962.95	227.10
963.24	227.11
963.54	227.12
963.83	227.13
964.13	227.10
964.42	227.03
964.72	226.97
965.01	226.97
965.31	226.95
965.60	226.92
965.90	226.97
966.19	226.91
966.49	226.91
966.78	226.92
967.08	226.90
967.37	226.90
967.67	226.89
967.96	226.89
968.26	226.85
968.55	226.88
968.85	226.88
969.14	226.89
969.43	226.85
969.73	226.79
970.02	226.80
970.32	226.78
970.61	226.82
970.91	226.76
971.20	226.72
971.49	226.71
971.79	226.71
972.08	226.65
972.38	226.65
972.67	226.64
972.96	226.66
973.26	226.62
973.55	226.65
973.85	226.65
974.14	226.65
974.43	226.65
974.73	226.61
975.02	226.60
975.31	226.58
975.61	226.60
975.90	226.61
976.19	226.56
976.49	226.55
976.78	226.57
977.07	226.59
977.37	226.61
977.66	226.64
977.95	226.62
978.24	226.63
978.54	226.65
978.83	226.65
979.12	226.66
979.42	226.65
979.71	226.64
980.00	226.62
980.29	226.62
980.59	226.61
980.88	226.62
981.17	226.64
981.46	226.64
981.76	226.63
982.05	226.65
982.34	226.68
982.63	226.68
982.93	226.68
983.22	226.68
983.51	226.69
983.80	226.69
984.09	226.72
984.39	226.68
984.68	226.67
984.97	226.68
985.26	226.64
985.55	226.64
985.85	226.60
986.14	226.63
986.43	226.65
986.72	226.62
987.01	226.58
987.30	226.52
987.59	226.51
987.89	226.53
988.18	226.50
988.47	226.49
988.76	226.50
989.05	226.45
989.34	226.48
989.63	226.54
989.92	226.52
990.22	226.50
990.51	226.55
990.80	226.55
991.09	226.55
991.38	226.59
991.67	226.59
991.96	226.58
992.25	226.59
992.54	226.58
992.83	226.60
993.12	226.60
993.41	226.65
993.70	226.67
993.99	226.68
994.28	226.71
994.58	226.70
994.87	226.70
995.16	226.72
995.45	226.72
995.74	226.68
996.03	226.70
996.32	226.70
996.61	226.71
996.90	226.71
997.19	226.68
997.48	226.70
997.77	226.69
998.06	226.70
998.34	226.65
998.63	226.62
998.92	226.62
999.21	226.65
999.50	226.64
999.79	226.62
1000.08	226.60
1000.37	226.62
1000.66	226.58
1000.95	226.60
1001.24	226.58
1001.53	226.58
1001.82	226.55
1002.11	226.52
1002.40	226.54
1002.68	226.54
1002.97	226.57
1003.26	226.58
1003.55	226.53
1003.84	226.55
1004.13	226.57
1004.42	226.57
1004.71	226.60
1004.99	226.60
1005.28	226.63
1005.57	226.59
1005.86	226.58
1006.15	226.59
1006.44	226.56
1006.72	226.59
1007.01	226.58
1007.30	226.63
1007.59	226.60
1007.88	226.58
1008.17	226.58
1008.45	226.55
1008.74	226.53
1009.03	226.50
1009.32	226.50
1009.60	226.50
1009.89	226.47
1010.18	226.42
1010.47	226.43
1010.76	226.43
1011.04	226.41
1011.33	226.50
1011.62	226.56
1011.91	226.60
1012.19	226.61
1012.48	226.60
1012.77	226.63
1013.05	226.67
1013.34	226.68
1013.63	226.68
1013.92	226.71
1014.20	226.70
1014.49	226.72
1014.78	226.74
1015.06	226.72
1015.35	226.73
1015.64	226.75
1015.92	226.80
1016.21	226.85
1016.50	226.87
1016.78	226.88
1017.07	226.93
1017.36	226.81
1017.64	226.77
1017.93	226.77
1018.22	226.75
1018.50	226.78
1018.79	226.76
1019.08	226.71
1019.36	226.71
1019.65	226.69
1019.93	226.73
1020.22	226.76
1020.51	226.80
1020.79	226.78
1021.08	226.51
1021.36	226.99
1021.65	226.57
1021.94	226.41
1022.22	226.95
1022.51	226.20
1022.79	227.03
1023.08	226.88
1023.36	227.81
1023.65	226.46
>>>>>End Processed Spectral Data<<<<<
