SpectraSuite Data File
++++++++++++++++++++++++++++++++++++
Date: Fri Feb 01 15:55:43 EST 2013
User: group
Dark Spectrum Present: No
Reference Spectrum Present: No
Number of Sampled Component Spectra: 1
Spectrometers: USB2E7196
Integration Time (usec): 35000 (USB2E7196)
Spectra Averaged: 100 (USB2E7196)
Boxcar Smoothing: 10 (USB2E7196)
Correct for Electrical Dark: No (USB2E7196)
Strobe/Lamp Enabled: No (USB2E7196)
Correct for Detector Non-linearity: No (USB2E7196)
Correct for Stray Light: No (USB2E7196)
Number of Pixels in Processed Spectrum: 2048
>>>>>Begin Processed Spectral Data<<<<<
339.09	0.00
339.48	214.94
339.86	216.27
340.24	217.71
340.63	218.90
341.01	221.76
341.39	221.79
341.78	222.87
342.16	224.67
342.54	225.20
342.93	213.27
343.31	224.04
343.69	224.55
344.07	225.01
344.46	225.42
344.84	225.79
345.22	226.04
345.60	226.31
345.99	226.51
346.37	226.61
346.75	226.71
347.13	226.76
347.52	226.80
347.90	226.90
348.28	226.92
348.66	226.96
349.05	226.94
349.43	226.96
349.81	226.96
350.19	227.02
350.57	227.07
350.96	227.13
351.34	227.24
351.72	227.36
352.10	227.46
352.48	227.54
352.87	227.59
353.25	227.68
353.63	227.68
354.01	227.74
354.39	227.84
354.77	227.89
355.15	228.00
355.54	228.04
355.92	228.04
356.30	228.12
356.68	228.27
357.06	228.34
357.44	228.42
357.82	228.50
358.20	228.54
358.58	228.60
358.97	228.65
359.35	228.74
359.73	228.81
360.11	228.87
360.49	228.93
360.87	229.00
361.25	229.05
361.63	229.15
362.01	229.18
362.39	229.19
362.77	229.21
363.15	229.23
363.53	229.27
363.91	229.33
364.29	229.32
364.67	229.20
365.05	229.23
365.43	229.22
365.81	229.26
366.19	229.31
366.57	229.31
366.95	229.32
367.33	229.27
367.71	229.25
368.09	229.24
368.47	229.21
368.85	229.17
369.23	229.15
369.61	229.07
369.99	229.08
370.37	229.05
370.75	229.09
371.13	229.04
371.51	228.98
371.89	228.92
372.27	228.90
372.65	228.86
373.03	228.81
373.41	228.74
373.78	228.66
374.16	228.57
374.54	228.52
374.92	228.42
375.30	228.35
375.68	228.26
376.06	228.20
376.44	228.13
376.82	228.10
377.19	228.04
377.57	228.00
377.95	227.89
378.33	227.84
378.71	227.73
379.09	227.65
379.47	227.60
379.84	227.53
380.22	227.45
380.60	227.37
380.98	227.30
381.36	227.23
381.73	227.17
382.11	227.08
382.49	227.02
382.87	226.96
383.25	226.92
383.62	226.97
384.00	226.91
384.38	226.88
384.76	226.78
385.13	226.71
385.51	226.66
385.89	226.62
386.27	226.55
386.64	226.51
387.02	226.47
387.40	226.43
387.78	226.41
388.15	226.36
388.53	226.32
388.91	226.29
389.29	226.30
389.66	226.30
390.04	226.31
390.42	226.30
390.79	226.26
391.17	226.20
391.55	226.07
391.92	226.05
392.30	226.06
392.68	226.05
393.05	226.08
393.43	226.10
393.81	226.10
394.18	226.09
394.56	226.11
394.94	226.14
395.31	226.16
395.69	226.21
396.06	226.25
396.44	226.30
396.82	226.32
397.19	226.41
397.57	226.43
397.95	226.46
398.32	226.48
398.70	226.59
399.07	226.69
399.45	226.75
399.82	226.81
400.20	226.89
400.58	226.98
400.95	227.05
401.33	227.12
401.70	227.26
402.08	227.39
402.45	227.47
402.83	227.62
403.20	227.70
403.58	227.81
403.95	227.92
404.33	228.05
404.71	228.19
405.08	228.34
405.46	228.46
405.83	228.63
406.21	228.78
406.58	228.93
406.96	229.10
407.33	229.29
407.70	229.46
408.08	229.68
408.45	229.89
408.83	230.08
409.20	230.29
409.58	230.45
409.95	230.69
410.33	230.92
410.70	231.14
411.08	231.45
411.45	231.76
411.82	232.10
412.20	232.45
412.57	232.87
412.95	233.16
413.32	233.60
413.69	233.97
414.07	234.45
414.44	234.90
414.82	235.39
415.19	235.96
415.56	236.53
415.94	237.12
416.31	237.78
416.68	238.41
417.06	239.12
417.43	239.83
417.81	240.63
418.18	241.44
418.55	242.28
418.93	243.15
419.30	244.04
419.67	244.94
420.04	245.91
420.42	246.90
420.79	248.05
421.16	249.19
421.54	250.39
421.91	251.57
422.28	252.84
422.66	254.18
423.03	255.45
423.40	256.76
423.77	258.14
424.15	259.57
424.52	261.06
424.89	262.67
425.26	264.20
425.64	265.61
426.01	267.21
426.38	268.86
426.75	270.50
427.13	272.22
427.50	274.02
427.87	275.87
428.24	277.72
428.61	279.48
428.99	281.43
429.36	283.55
429.73	285.63
430.10	287.63
430.47	289.67
430.85	291.76
431.22	294.04
431.59	296.42
431.96	298.63
432.33	301.12
432.70	303.49
433.08	306.34
433.45	309.01
433.82	311.63
434.19	314.50
434.56	317.35
434.93	319.98
435.30	322.63
435.68	325.55
436.05	328.37
436.42	331.15
436.79	333.66
437.16	336.31
437.53	339.14
437.90	341.94
438.27	344.66
438.64	347.48
439.01	350.04
439.38	352.27
439.75	354.47
440.13	356.97
440.50	359.32
440.87	361.13
441.24	363.06
441.61	365.21
441.98	366.68
442.35	368.46
442.72	370.33
443.09	372.15
443.46	373.13
443.83	373.71
444.20	374.24
444.57	375.13
444.94	375.45
445.31	375.79
445.68	376.16
446.05	376.26
446.42	375.89
446.79	375.47
447.16	375.01
447.53	374.68
447.90	373.50
448.27	372.32
448.64	370.75
449.01	369.62
449.37	367.61
449.74	365.75
450.11	363.51
450.48	361.03
450.85	358.48
451.22	356.37
451.59	354.39
451.96	352.47
452.33	349.81
452.70	347.40
453.07	344.59
453.43	341.69
453.80	338.91
454.17	336.25
454.54	333.69
454.91	330.99
455.28	328.33
455.65	325.86
456.02	323.45
456.38	321.31
456.75	318.62
457.12	316.41
457.49	314.16
457.86	311.98
458.23	310.13
458.59	308.10
458.96	305.99
459.33	304.13
459.70	302.25
460.07	300.79
460.43	299.13
460.80	297.51
461.17	296.05
461.54	294.57
461.91	293.16
462.27	291.73
462.64	290.51
463.01	289.16
463.38	287.87
463.74	286.47
464.11	285.31
464.48	284.26
464.85	283.17
465.21	282.32
465.58	281.38
465.95	280.28
466.32	279.36
466.68	278.45
467.05	277.55
467.42	276.64
467.78	275.68
468.15	274.79
468.52	274.13
468.88	273.29
469.25	272.52
469.62	271.86
469.98	271.18
470.35	270.54
470.72	269.92
471.08	269.24
471.45	268.73
471.82	268.19
472.18	267.62
472.55	267.16
472.92	266.65
473.28	266.20
473.65	265.77
474.02	265.32
474.38	264.98
474.75	264.67
475.11	264.28
475.48	264.05
475.85	263.83
476.21	263.58
476.58	263.40
476.94	263.26
477.31	263.09
477.67	262.96
478.04	262.83
478.41	262.79
478.77	262.86
479.14	262.77
479.50	262.79
479.87	262.88
480.23	262.97
480.60	263.07
480.96	263.17
481.33	263.37
481.69	263.55
482.06	263.72
482.42	263.90
482.79	264.24
483.15	264.55
483.52	264.93
483.88	265.26
484.25	265.65
484.61	266.11
484.98	266.59
485.34	267.13
485.71	267.74
486.07	268.37
486.44	268.93
486.80	269.65
487.17	270.36
487.53	271.18
487.90	272.02
488.26	272.96
488.62	273.94
488.99	274.91
489.35	275.95
489.72	277.10
490.08	278.33
490.44	279.57
490.81	280.94
491.17	282.24
491.54	283.79
491.90	285.34
492.26	286.98
492.63	288.72
492.99	290.53
493.36	292.45
493.72	294.47
494.08	296.59
494.45	298.83
494.81	301.21
495.17	303.65
495.54	306.23
495.90	308.92
496.26	311.77
496.63	314.74
496.99	317.84
497.35	321.09
497.72	324.49
498.08	327.99
498.44	331.59
498.80	335.58
499.17	339.59
499.53	343.76
499.89	348.10
500.26	352.58
500.62	357.24
500.98	362.17
501.34	367.24
501.71	372.50
502.07	377.93
502.43	383.55
502.79	389.33
503.16	395.40
503.52	401.65
503.88	408.02
504.24	414.66
504.60	421.58
504.97	428.68
505.33	435.96
505.69	443.65
506.05	451.44
506.41	459.29
506.78	467.49
507.14	475.98
507.50	484.66
507.86	493.72
508.22	502.92
508.59	512.15
508.95	521.77
509.31	531.63
509.67	541.74
510.03	552.10
510.39	562.70
510.75	573.50
511.12	584.42
511.48	595.70
511.84	607.15
512.20	618.65
512.56	630.62
512.92	642.80
513.28	655.15
513.64	667.66
514.00	680.34
514.37	693.24
514.73	706.25
515.09	719.23
515.45	732.43
515.81	746.03
516.17	760.05
516.53	774.16
516.89	788.30
517.25	802.43
517.61	816.84
517.97	831.25
518.33	845.76
518.69	860.53
519.05	875.59
519.41	890.73
519.77	906.29
520.13	921.72
520.49	937.05
520.85	952.46
521.21	968.14
521.57	984.41
521.93	1000.08
522.29	1016.52
522.65	1032.91
523.01	1049.11
523.37	1065.11
523.73	1081.22
524.09	1097.22
524.45	1113.51
524.81	1130.18
525.17	1147.00
525.53	1163.79
525.89	1180.54
526.25	1197.38
526.61	1213.71
526.97	1230.38
527.33	1246.88
527.68	1263.55
528.04	1280.06
528.40	1296.56
528.76	1313.53
529.12	1330.02
529.48	1346.91
529.84	1362.79
530.20	1379.37
530.56	1396.44
530.91	1413.85
531.27	1430.63
531.63	1447.19
531.99	1463.70
532.35	1479.68
532.71	1495.43
533.07	1511.78
533.42	1527.69
533.78	1543.61
534.14	1559.83
534.50	1575.26
534.86	1591.13
535.21	1606.23
535.57	1622.16
535.93	1637.65
536.29	1652.51
536.65	1667.52
537.00	1682.23
537.36	1697.67
537.72	1712.04
538.08	1726.37
538.44	1740.09
538.79	1753.90
539.15	1767.52
539.51	1781.30
539.87	1795.44
540.22	1809.17
540.58	1822.91
540.94	1836.28
541.29	1849.19
541.65	1861.82
542.01	1874.92
542.37	1887.14
542.72	1899.58
543.08	1911.24
543.44	1923.59
543.79	1934.77
544.15	1945.82
544.51	1957.45
544.87	1968.36
545.22	1979.32
545.58	1989.58
545.94	1999.32
546.29	2009.04
546.65	2018.80
547.01	2028.00
547.36	2036.77
547.72	2045.21
548.07	2052.98
548.43	2061.08
548.79	2069.17
549.14	2076.78
549.50	2084.11
549.86	2091.83
550.21	2099.06
550.57	2106.40
550.92	2113.05
551.28	2120.17
551.64	2127.21
551.99	2133.73
552.35	2139.86
552.70	2146.06
553.06	2151.97
553.41	2158.31
553.77	2164.46
554.13	2170.48
554.48	2176.68
554.84	2182.16
555.19	2187.46
555.55	2192.53
555.90	2196.92
556.26	2201.75
556.61	2206.43
556.97	2210.78
557.32	2214.94
557.68	2219.10
558.03	2223.31
558.39	2226.91
558.74	2231.60
559.10	2235.62
559.45	2239.36
559.81	2243.61
560.16	2247.26
560.52	2250.53
560.87	2253.98
561.23	2256.65
561.58	2259.72
561.94	2262.11
562.29	2264.58
562.64	2267.14
563.00	2269.86
563.35	2273.46
563.71	2276.61
564.06	2279.75
564.42	2282.60
564.77	2284.92
565.12	2287.19
565.48	2289.03
565.83	2290.90
566.19	2292.11
566.54	2292.82
566.89	2293.76
567.25	2294.27
567.60	2295.63
567.96	2297.28
568.31	2298.06
568.66	2299.18
569.02	2299.71
569.37	2300.06
569.72	2301.03
570.08	2301.32
570.43	2301.32
570.78	2300.66
571.14	2298.98
571.49	2297.74
571.84	2297.51
572.20	2296.45
572.55	2295.28
572.90	2293.76
573.26	2292.50
573.61	2290.73
573.96	2288.96
574.31	2286.10
574.67	2283.23
575.02	2279.67
575.37	2276.31
575.72	2272.48
576.08	2269.16
576.43	2265.84
576.78	2262.09
577.13	2258.74
577.49	2255.62
577.84	2252.06
578.19	2248.33
578.54	2244.82
578.90	2240.53
579.25	2234.89
579.60	2230.06
579.95	2225.13
580.30	2220.08
580.66	2214.90
581.01	2210.04
581.36	2205.16
581.71	2201.12
582.06	2196.62
582.42	2192.10
582.77	2186.81
583.12	2182.17
583.47	2177.34
583.82	2172.39
584.17	2167.29
584.53	2161.87
584.88	2156.15
585.23	2150.52
585.58	2145.06
585.93	2139.59
586.28	2134.85
586.63	2129.89
586.98	2124.79
587.34	2120.06
587.69	2115.20
588.04	2109.78
588.39	2104.02
588.74	2097.61
589.09	2091.31
589.44	2084.53
589.79	2078.67
590.14	2073.13
590.49	2066.66
590.84	2060.26
591.19	2054.17
591.54	2047.64
591.89	2040.20
592.25	2033.40
592.60	2026.20
592.95	2018.66
593.30	2011.34
593.65	2003.74
594.00	1996.64
594.35	1989.40
594.70	1981.38
595.05	1974.13
595.40	1967.09
595.75	1959.69
596.10	1953.57
596.45	1946.72
596.80	1940.52
597.15	1933.74
597.50	1926.62
597.85	1920.29
598.19	1913.67
598.54	1906.48
598.89	1899.95
599.24	1894.11
599.59	1887.37
599.94	1881.16
600.29	1874.86
600.64	1868.21
600.99	1860.82
601.34	1853.92
601.69	1846.90
602.04	1840.11
602.39	1832.85
602.74	1825.90
603.08	1819.18
603.43	1812.34
603.78	1805.09
604.13	1797.84
604.48	1790.52
604.83	1783.61
605.18	1776.59
605.53	1768.68
605.87	1760.75
606.22	1753.46
606.57	1745.39
606.92	1738.19
607.27	1730.92
607.62	1723.98
607.96	1716.72
608.31	1710.04
608.66	1702.41
609.01	1694.82
609.36	1687.20
609.70	1679.15
610.05	1671.12
610.40	1663.37
610.75	1655.08
611.10	1647.39
611.44	1638.97
611.79	1630.94
612.14	1622.24
612.49	1613.14
612.83	1604.73
613.18	1596.62
613.53	1588.40
613.88	1579.93
614.22	1571.66
614.57	1563.06
614.92	1555.02
615.27	1547.48
615.61	1539.13
615.96	1531.13
616.31	1523.49
616.65	1516.18
617.00	1508.57
617.35	1500.85
617.70	1492.51
618.04	1483.92
618.39	1475.74
618.74	1468.18
619.08	1459.92
619.43	1452.36
619.78	1445.32
620.12	1438.14
620.47	1430.57
620.82	1422.53
621.16	1415.05
621.51	1407.48
621.85	1399.87
622.20	1391.33
622.55	1382.86
622.89	1375.05
623.24	1367.40
623.59	1360.09
623.93	1352.54
624.28	1345.38
624.62	1337.80
624.97	1330.66
625.32	1323.89
625.66	1316.90
626.01	1309.80
626.35	1302.38
626.70	1294.67
627.04	1286.95
627.39	1279.19
627.73	1271.82
628.08	1264.95
628.43	1257.71
628.77	1250.32
629.12	1242.69
629.46	1235.58
629.81	1228.29
630.15	1221.07
630.50	1213.66
630.84	1205.37
631.19	1197.41
631.53	1189.79
631.88	1182.34
632.22	1174.71
632.57	1167.42
632.91	1159.89
633.26	1152.42
633.60	1144.99
633.95	1137.80
634.29	1130.79
634.64	1124.09
634.98	1116.77
635.32	1109.65
635.67	1103.09
636.01	1096.43
636.36	1089.77
636.70	1083.24
637.05	1076.65
637.39	1070.23
637.73	1063.65
638.08	1057.81
638.42	1051.87
638.77	1045.52
639.11	1038.94
639.45	1032.49
639.80	1025.85
640.14	1019.39
640.49	1012.89
640.83	1006.70
641.17	1000.51
641.52	994.15
641.86	987.70
642.20	981.82
642.55	975.45
642.89	968.94
643.23	962.43
643.58	956.61
643.92	950.37
644.26	944.32
644.61	938.26
644.95	932.29
645.29	925.72
645.64	918.94
645.98	912.69
646.32	906.87
646.66	900.87
647.01	895.12
647.35	889.39
647.69	883.54
648.04	877.92
648.38	872.14
648.72	866.15
649.06	860.18
649.41	854.29
649.75	848.28
650.09	842.37
650.43	836.56
650.78	830.42
651.12	824.41
651.46	818.71
651.80	812.95
652.14	807.56
652.49	802.13
652.83	796.94
653.17	791.14
653.51	785.32
653.85	779.90
654.20	774.18
654.54	768.22
654.88	762.50
655.22	756.62
655.56	750.99
655.90	745.65
656.25	740.36
656.59	734.98
656.93	729.94
657.27	724.72
657.61	719.26
657.95	714.11
658.29	709.06
658.64	703.74
658.98	698.45
659.32	692.96
659.66	687.82
660.00	682.46
660.34	677.51
660.68	672.63
661.02	667.62
661.36	662.90
661.70	658.40
662.05	653.98
662.39	649.67
662.73	645.18
663.07	640.74
663.41	636.23
663.75	631.75
664.09	627.14
664.43	622.81
664.77	618.70
665.11	614.44
665.45	610.29
665.79	606.28
666.13	602.12
666.47	598.03
666.81	593.89
667.15	589.81
667.49	585.94
667.83	582.13
668.17	578.20
668.51	574.14
668.85	570.11
669.19	566.33
669.53	562.52
669.87	558.64
670.21	554.91
670.55	551.29
670.89	547.85
671.23	544.42
671.57	540.87
671.91	537.41
672.25	533.91
672.58	530.48
672.92	527.02
673.26	523.86
673.60	520.76
673.94	517.60
674.28	514.72
674.62	511.72
674.96	508.65
675.30	505.71
675.64	502.80
675.97	500.02
676.31	497.16
676.65	494.21
676.99	491.53
677.33	488.69
677.67	485.93
678.01	482.95
678.34	480.04
678.68	477.22
679.02	474.35
679.36	471.68
679.70	468.95
680.04	466.26
680.37	463.41
680.71	460.61
681.05	458.02
681.39	455.30
681.73	452.67
682.06	450.14
682.40	447.63
682.74	445.06
683.08	442.55
683.42	439.91
683.75	437.35
684.09	434.80
684.43	432.34
684.77	429.86
685.10	427.47
685.44	425.16
685.78	422.82
686.12	420.65
686.45	418.32
686.79	415.99
687.13	413.76
687.46	411.63
687.80	409.48
688.14	407.29
688.48	405.26
688.81	403.05
689.15	400.92
689.49	398.76
689.82	396.74
690.16	394.62
690.50	392.70
690.83	390.81
691.17	388.81
691.51	386.92
691.84	385.10
692.18	383.16
692.52	381.13
692.85	379.19
693.19	377.25
693.52	375.44
693.86	373.61
694.20	371.83
694.53	369.99
694.87	368.15
695.21	366.37
695.54	364.49
695.88	362.76
696.21	361.01
696.55	359.33
696.88	357.62
697.22	355.96
697.56	354.30
697.89	352.64
698.23	350.99
698.56	349.38
698.90	347.73
699.23	346.10
699.57	344.58
699.90	343.00
700.24	341.45
700.58	339.93
700.91	338.48
701.25	337.01
701.58	335.64
701.92	334.27
702.25	332.85
702.59	331.47
702.92	330.12
703.26	328.79
703.59	327.52
703.93	326.36
704.26	325.10
704.60	323.84
704.93	322.55
705.26	321.32
705.60	320.14
705.93	318.96
706.27	317.92
706.60	316.85
706.94	315.81
707.27	314.70
707.61	313.59
707.94	312.54
708.27	311.41
708.61	310.32
708.94	309.29
709.28	308.33
709.61	307.40
709.94	306.48
710.28	305.43
710.61	304.43
710.95	303.37
711.28	302.51
711.61	301.59
711.95	300.72
712.28	299.75
712.61	298.75
712.95	297.86
713.28	296.99
713.61	296.11
713.95	295.24
714.28	294.37
714.61	293.50
714.95	292.68
715.28	291.86
715.61	290.98
715.95	290.16
716.28	289.26
716.61	288.42
716.95	287.58
717.28	286.89
717.61	286.15
717.94	285.40
718.28	284.57
718.61	283.83
718.94	283.12
719.27	282.50
719.61	281.88
719.94	281.23
720.27	280.51
720.60	279.83
720.94	279.21
721.27	278.67
721.60	278.14
721.93	277.52
722.27	277.01
722.60	276.49
722.93	275.91
723.26	275.43
723.59	274.88
723.93	274.34
724.26	273.78
724.59	273.23
724.92	272.70
725.25	272.21
725.59	271.66
725.92	271.16
726.25	270.66
726.58	270.16
726.91	269.68
727.24	269.24
727.57	268.79
727.91	268.25
728.24	267.75
728.57	267.27
728.90	266.80
729.23	266.30
729.56	265.90
729.89	265.45
730.22	264.95
730.55	264.52
730.89	264.08
731.22	263.64
731.55	263.19
731.88	262.78
732.21	262.37
732.54	261.97
732.87	261.53
733.20	261.10
733.53	260.69
733.86	260.32
734.19	259.91
734.52	259.51
734.85	259.21
735.18	258.83
735.51	258.44
735.84	258.07
736.17	257.71
736.50	257.24
736.83	257.00
737.16	256.64
737.49	256.27
737.82	255.92
738.15	255.58
738.48	255.27
738.81	254.92
739.14	254.56
739.47	254.24
739.80	253.96
740.13	253.67
740.46	253.34
740.79	253.00
741.12	252.72
741.45	252.38
741.78	252.05
742.11	251.72
742.44	251.41
742.77	251.15
743.10	250.88
743.43	250.61
743.75	250.22
744.08	250.11
744.41	249.86
744.74	249.58
745.07	249.30
745.40	249.02
745.73	248.79
746.06	248.51
746.39	248.25
746.71	247.97
747.04	247.68
747.37	247.41
747.70	247.16
748.03	246.91
748.36	246.67
748.68	246.42
749.01	246.20
749.34	246.01
749.67	245.75
750.00	245.49
750.33	245.35
750.65	245.11
750.98	244.74
751.31	244.51
751.64	244.33
751.97	244.19
752.29	244.00
752.62	243.76
752.95	243.56
753.28	243.36
753.60	243.14
753.93	242.98
754.26	242.80
754.59	242.57
754.91	242.36
755.24	242.23
755.57	242.03
755.90	241.84
756.22	241.61
756.55	241.42
756.88	241.23
757.20	241.01
757.53	240.82
757.86	240.68
758.19	240.52
758.51	240.35
758.84	240.12
759.17	239.95
759.49	239.79
759.82	239.70
760.15	239.54
760.47	239.40
760.80	239.23
761.13	239.09
761.45	238.96
761.78	238.77
762.11	238.57
762.43	238.41
762.76	238.29
763.08	238.16
763.41	238.02
763.74	237.90
764.06	237.77
764.39	237.63
764.71	237.50
765.04	237.35
765.37	237.19
765.69	237.07
766.02	236.88
766.34	236.79
766.67	236.60
767.00	236.49
767.32	236.40
767.65	236.36
767.97	236.24
768.30	236.10
768.62	235.98
768.95	235.86
769.27	235.75
769.60	235.64
769.92	235.52
770.25	235.37
770.57	235.25
770.90	235.10
771.22	235.00
771.55	234.88
771.87	234.79
772.20	234.66
772.52	234.61
772.85	234.68
773.17	234.53
773.50	234.42
773.82	234.33
774.15	234.19
774.47	234.01
774.80	233.89
775.12	233.81
775.45	233.75
775.77	233.70
776.09	233.56
776.42	233.44
776.74	233.36
777.07	233.27
777.39	233.19
777.72	233.11
778.04	233.03
778.36	232.96
778.69	232.87
779.01	232.82
779.33	232.68
779.66	232.48
779.98	232.37
780.31	232.30
780.63	232.26
780.95	232.23
781.28	232.18
781.60	232.13
781.92	232.06
782.25	232.01
782.57	231.92
782.89	231.89
783.22	231.85
783.54	231.81
783.86	231.80
784.19	231.75
784.51	231.75
784.83	231.69
785.16	231.64
785.48	231.58
785.80	231.51
786.12	231.48
786.45	231.48
786.77	231.46
787.09	231.45
787.42	231.40
787.74	231.37
788.06	231.33
788.38	231.27
788.71	231.21
789.03	231.19
789.35	231.19
789.67	231.14
789.99	231.12
790.32	231.06
790.64	231.03
790.96	231.07
791.28	230.97
791.61	230.93
791.93	230.91
792.25	230.86
792.57	230.92
792.89	230.87
793.21	230.79
793.54	230.73
793.86	230.66
794.18	230.62
794.50	230.53
794.82	230.52
795.14	230.49
795.47	230.51
795.79	230.47
796.11	230.41
796.43	230.35
796.75	230.35
797.07	230.33
797.39	230.31
797.71	230.20
798.04	230.20
798.36	230.16
798.68	230.13
799.00	230.15
799.32	230.11
799.64	230.10
799.96	230.09
800.28	230.08
800.60	230.03
800.92	230.00
801.24	230.00
801.56	229.96
801.89	229.94
802.21	229.90
802.53	229.88
802.85	229.88
803.17	229.90
803.49	229.85
803.81	229.80
804.13	229.72
804.45	229.70
804.77	229.66
805.09	229.65
805.41	229.63
805.73	229.58
806.05	229.50
806.37	229.44
806.69	229.41
807.01	229.39
807.33	229.40
807.65	229.33
807.97	229.33
808.28	229.28
808.60	229.25
808.92	229.20
809.24	229.19
809.56	229.11
809.88	229.08
810.20	229.06
810.52	229.07
810.84	229.01
811.16	228.97
811.48	228.94
811.80	228.95
812.12	228.88
812.43	228.89
812.75	228.88
813.07	228.91
813.39	228.91
813.71	228.87
814.03	228.85
814.35	228.85
814.67	228.82
814.98	228.82
815.30	228.77
815.62	228.73
815.94	228.66
816.26	228.73
816.58	228.68
816.89	228.65
817.21	228.60
817.53	228.62
817.85	228.60
818.17	228.59
818.48	228.54
818.80	228.56
819.12	228.53
819.44	228.48
819.76	228.39
820.07	228.34
820.39	228.34
820.71	228.32
821.03	228.32
821.34	228.25
821.66	228.21
821.98	228.26
822.30	228.24
822.61	228.31
822.93	228.24
823.25	228.23
823.57	228.21
823.88	228.26
824.20	228.25
824.52	228.26
824.83	228.23
825.15	228.25
825.47	228.23
825.79	228.22
826.10	228.23
826.42	228.23
826.74	228.21
827.05	228.19
827.37	228.18
827.69	228.14
828.00	228.15
828.32	228.16
828.64	228.13
828.95	228.17
829.27	228.12
829.58	228.10
829.90	228.12
830.22	228.10
830.53	228.04
830.85	228.01
831.17	227.99
831.48	228.02
831.80	227.97
832.11	227.92
832.43	227.91
832.75	227.86
833.06	227.91
833.38	227.84
833.69	227.86
834.01	227.85
834.32	227.85
834.64	227.83
834.96	227.80
835.27	227.78
835.59	227.73
835.90	227.71
836.22	227.71
836.53	227.66
836.85	227.65
837.16	227.74
837.48	227.73
837.79	227.73
838.11	227.70
838.42	227.70
838.74	227.73
839.05	227.68
839.37	227.71
839.68	227.67
840.00	227.66
840.31	227.64
840.63	227.63
840.94	227.61
841.26	227.60
841.57	227.62
841.88	227.62
842.20	227.59
842.51	227.56
842.83	227.53
843.14	227.62
843.46	227.63
843.77	227.56
844.08	227.56
844.40	227.53
844.71	227.53
845.03	227.50
845.34	227.48
845.65	227.50
845.97	227.48
846.28	227.49
846.60	227.52
846.91	227.48
847.22	227.52
847.54	227.51
847.85	227.49
848.16	227.45
848.48	227.44
848.79	227.48
849.10	227.48
849.42	227.47
849.73	227.38
850.04	227.35
850.36	227.31
850.67	227.32
850.98	227.33
851.30	227.31
851.61	227.32
851.92	227.32
852.23	227.34
852.55	227.34
852.86	227.33
853.17	227.32
853.49	227.33
853.80	227.32
854.11	227.35
854.42	227.38
854.74	227.40
855.05	227.38
855.36	227.33
855.67	227.32
855.99	227.33
856.30	227.44
856.61	227.47
856.92	227.47
857.23	227.45
857.55	227.44
857.86	227.43
858.17	227.42
858.48	227.43
858.79	227.40
859.11	227.42
859.42	227.41
859.73	227.40
860.04	227.45
860.35	227.40
860.66	227.36
860.98	227.37
861.29	227.37
861.60	227.36
861.91	227.39
862.22	227.42
862.53	227.39
862.84	227.28
863.16	227.29
863.47	227.24
863.78	227.22
864.09	227.23
864.40	227.23
864.71	227.24
865.02	227.24
865.33	227.20
865.64	227.18
865.95	227.19
866.27	227.28
866.58	227.25
866.89	227.26
867.20	227.27
867.51	227.25
867.82	227.23
868.13	227.25
868.44	227.24
868.75	227.26
869.06	227.28
869.37	227.26
869.68	227.22
869.99	227.27
870.30	227.30
870.61	227.30
870.92	227.27
871.23	227.27
871.54	227.25
871.85	227.26
872.16	227.26
872.47	227.23
872.78	227.14
873.09	227.11
873.40	227.15
873.71	227.15
874.02	227.13
874.33	227.11
874.64	227.11
874.95	227.13
875.26	227.08
875.56	227.09
875.87	227.10
876.18	227.08
876.49	227.15
876.80	227.14
877.11	227.12
877.42	227.15
877.73	227.15
878.04	227.14
878.35	227.17
878.66	227.20
878.96	227.20
879.27	227.17
879.58	227.20
879.89	227.15
880.20	227.18
880.51	227.19
880.82	227.20
881.12	227.23
881.43	227.22
881.74	227.24
882.05	227.23
882.36	227.25
882.67	227.27
882.97	227.19
883.28	227.19
883.59	227.24
883.90	227.24
884.21	227.24
884.51	227.26
884.82	227.20
885.13	227.17
885.44	227.19
885.74	227.20
886.05	227.19
886.36	227.19
886.67	227.15
886.98	227.20
887.28	227.19
887.59	227.16
887.90	227.13
888.20	227.10
888.51	227.11
888.82	227.08
889.13	227.08
889.43	227.15
889.74	227.10
890.05	227.08
890.35	227.07
890.66	227.05
890.97	227.04
891.28	227.06
891.58	227.07
891.89	227.05
892.20	227.02
892.50	227.05
892.81	227.06
893.12	227.03
893.42	226.94
893.73	226.98
894.04	226.96
894.34	226.95
894.65	226.92
894.95	226.89
895.26	226.89
895.57	226.92
895.87	226.83
896.18	226.87
896.48	226.84
896.79	226.82
897.10	226.82
897.40	226.81
897.71	226.80
898.01	226.78
898.32	226.81
898.63	226.81
898.93	226.77
899.24	226.74
899.54	226.75
899.85	226.76
900.15	226.72
900.46	226.73
900.76	226.74
901.07	226.78
901.38	226.80
901.68	226.80
901.99	226.76
902.29	226.77
902.60	226.73
902.90	226.74
903.21	226.74
903.51	226.73
903.82	226.75
904.12	226.78
904.43	226.79
904.73	226.75
905.03	226.78
905.34	226.88
905.64	226.88
905.95	226.90
906.25	226.89
906.56	226.89
906.86	226.90
907.17	226.90
907.47	226.88
907.77	226.84
908.08	226.83
908.38	226.83
908.69	226.83
908.99	226.89
909.30	226.89
909.60	226.89
909.90	226.92
910.21	226.90
910.51	226.88
910.81	226.90
911.12	226.91
911.42	226.90
911.73	226.79
912.03	226.80
912.33	226.82
912.64	226.84
912.94	226.84
913.24	226.81
913.55	226.81
913.85	226.82
914.15	226.85
914.46	226.85
914.76	226.86
915.06	226.85
915.37	226.80
915.67	226.82
915.97	226.84
916.27	226.82
916.58	226.83
916.88	226.84
917.18	226.80
917.49	226.89
917.79	226.89
918.09	226.88
918.39	226.92
918.70	226.92
919.00	226.92
919.30	226.94
919.60	226.94
919.91	226.97
920.21	226.97
920.51	227.01
920.81	227.07
921.12	227.08
921.42	227.07
921.72	227.08
922.02	227.06
922.32	227.04
922.63	227.03
922.93	227.10
923.23	227.12
923.53	227.10
923.83	227.02
924.13	227.03
924.44	227.08
924.74	227.10
925.04	227.12
925.34	227.12
925.64	227.09
925.94	227.12
926.24	227.14
926.55	227.13
926.85	227.10
927.15	227.07
927.45	227.04
927.75	227.03
928.05	227.04
928.35	227.03
928.65	227.07
928.95	227.09
929.26	227.02
929.56	227.05
929.86	227.10
930.16	227.08
930.46	227.08
930.76	227.04
931.06	226.99
931.36	226.96
931.66	226.97
931.96	226.99
932.26	226.98
932.56	226.92
932.86	226.91
933.16	226.91
933.46	226.86
933.76	226.83
934.06	226.86
934.36	226.89
934.66	226.92
934.96	226.85
935.26	226.83
935.56	226.88
935.86	226.82
936.16	226.77
936.46	226.77
936.76	226.74
937.06	226.72
937.36	226.71
937.66	226.72
937.96	226.69
938.26	226.66
938.56	226.63
938.86	226.62
939.16	226.65
939.46	226.64
939.76	226.62
940.06	226.67
940.35	226.65
940.65	226.60
940.95	226.56
941.25	226.59
941.55	226.59
941.85	226.53
942.15	226.57
942.45	226.61
942.75	226.61
943.04	226.64
943.34	226.67
943.64	226.65
943.94	226.63
944.24	226.64
944.54	226.64
944.84	226.65
945.13	226.65
945.43	226.62
945.73	226.63
946.03	226.68
946.33	226.65
946.62	226.67
946.92	226.65
947.22	226.67
947.52	226.64
947.82	226.66
948.11	226.67
948.41	226.63
948.71	226.61
949.01	226.63
949.31	226.62
949.60	226.59
949.90	226.64
950.20	226.64
950.50	226.66
950.79	226.72
951.09	226.72
951.39	226.73
951.69	226.73
951.98	226.77
952.28	226.78
952.58	226.76
952.87	226.77
953.17	226.82
953.47	226.80
953.76	226.86
954.06	226.84
954.36	226.84
954.66	226.85
954.95	226.90
955.25	226.90
955.55	226.92
955.84	226.95
956.14	226.92
956.44	226.92
956.73	226.88
957.03	226.84
957.32	226.87
957.62	226.87
957.92	226.90
958.21	226.87
958.51	226.94
958.81	226.94
959.10	226.94
959.40	226.97
959.69	226.98
959.99	226.96
960.29	226.97
960.58	226.96
960.88	226.99
961.17	226.96
961.47	226.97
961.76	226.94
962.06	226.92
962.36	226.93
962.65	226.92
962.95	226.95
963.24	226.95
963.54	226.95
963.83	226.94
964.13	226.92
964.42	226.89
964.72	226.80
965.01	226.83
965.31	226.82
965.60	226.78
965.90	226.88
966.19	226.84
966.49	226.84
966.78	226.85
967.08	226.83
967.37	226.82
967.67	226.76
967.96	226.76
968.26	226.75
968.55	226.75
968.85	226.75
969.14	226.74
969.43	226.72
969.73	226.72
970.02	226.68
970.32	226.68
970.61	226.69
970.91	226.68
971.20	226.66
971.49	226.63
971.79	226.61
972.08	226.47
972.38	226.49
972.67	226.47
972.96	226.44
973.26	226.44
973.55	226.45
973.85	226.45
974.14	226.46
974.43	226.47
974.73	226.47
975.02	226.48
975.31	226.45
975.61	226.45
975.90	226.42
976.19	226.40
976.49	226.42
976.78	226.43
977.07	226.44
977.37	226.41
977.66	226.43
977.95	226.41
978.24	226.42
978.54	226.44
978.83	226.42
979.12	226.43
979.42	226.42
979.71	226.39
980.00	226.39
980.29	226.37
980.59	226.34
980.88	226.34
981.17	226.31
981.46	226.33
981.76	226.33
982.05	226.39
982.34	226.40
982.63	226.38
982.93	226.38
983.22	226.41
983.51	226.45
983.80	226.48
984.09	226.50
984.39	226.52
984.68	226.51
984.97	226.54
985.26	226.54
985.55	226.56
985.85	226.53
986.14	226.55
986.43	226.58
986.72	226.57
987.01	226.54
987.30	226.55
987.59	226.53
987.89	226.54
988.18	226.49
988.47	226.51
988.76	226.53
989.05	226.52
989.34	226.47
989.63	226.50
989.92	226.47
990.22	226.48
990.51	226.48
990.80	226.46
991.09	226.45
991.38	226.43
991.67	226.40
991.96	226.43
992.25	226.46
992.54	226.42
992.83	226.42
993.12	226.43
993.41	226.45
993.70	226.48
993.99	226.52
994.28	226.56
994.58	226.55
994.87	226.53
995.16	226.52
995.45	226.52
995.74	226.45
996.03	226.47
996.32	226.47
996.61	226.51
996.90	226.52
997.19	226.53
997.48	226.55
997.77	226.57
998.06	226.58
998.34	226.56
998.63	226.58
998.92	226.58
999.21	226.58
999.50	226.60
999.79	226.56
1000.08	226.54
1000.37	226.52
1000.66	226.54
1000.95	226.57
1001.24	226.60
1001.53	226.64
1001.82	226.62
1002.11	226.59
1002.40	226.63
1002.68	226.64
1002.97	226.69
1003.26	226.67
1003.55	226.66
1003.84	226.66
1004.13	226.67
1004.42	226.66
1004.71	226.65
1004.99	226.66
1005.28	226.68
1005.57	226.65
1005.86	226.64
1006.15	226.62
1006.44	226.64
1006.72	226.60
1007.01	226.58
1007.30	226.56
1007.59	226.52
1007.88	226.57
1008.17	226.59
1008.45	226.57
1008.74	226.54
1009.03	226.51
1009.32	226.54
1009.60	226.54
1009.89	226.52
1010.18	226.48
1010.47	226.51
1010.76	226.52
1011.04	226.55
1011.33	226.55
1011.62	226.58
1011.91	226.62
1012.19	226.62
1012.48	226.60
1012.77	226.61
1013.05	226.67
1013.34	226.69
1013.63	226.70
1013.92	226.70
1014.20	226.70
1014.49	226.70
1014.78	226.71
1015.06	226.69
1015.35	226.68
1015.64	226.67
1015.92	226.68
1016.21	226.69
1016.50	226.68
1016.78	226.74
1017.07	226.73
1017.36	226.72
1017.64	226.70
1017.93	226.69
1018.22	226.68
1018.50	226.67
1018.79	226.71
1019.08	226.66
1019.36	226.65
1019.65	226.62
1019.93	226.63
1020.22	226.66
1020.51	226.70
1020.79	226.67
1021.08	226.19
1021.36	226.46
1021.65	227.09
1021.94	226.69
1022.22	226.53
1022.51	226.02
1022.79	227.08
1023.08	227.04
1023.36	227.89
1023.65	226.30
>>>>>End Processed Spectral Data<<<<<
