SpectraSuite Data File
++++++++++++++++++++++++++++++++++++
Date: Fri Feb 01 14:55:53 EST 2013
User: group
Dark Spectrum Present: No
Reference Spectrum Present: No
Number of Sampled Component Spectra: 1
Spectrometers: USB2E7196
Integration Time (usec): 35000 (USB2E7196)
Spectra Averaged: 100 (USB2E7196)
Boxcar Smoothing: 10 (USB2E7196)
Correct for Electrical Dark: No (USB2E7196)
Strobe/Lamp Enabled: No (USB2E7196)
Correct for Detector Non-linearity: No (USB2E7196)
Correct for Stray Light: No (USB2E7196)
Number of Pixels in Processed Spectrum: 2048
>>>>>Begin Processed Spectral Data<<<<<
339.09	0.00
339.48	215.19
339.86	216.20
340.24	217.89
340.63	219.65
341.01	222.64
341.39	221.75
341.78	223.83
342.16	224.89
342.54	225.36
342.93	213.62
343.31	224.41
343.69	224.96
344.07	225.47
344.46	225.93
344.84	226.29
345.22	226.50
345.60	226.80
345.99	227.00
346.37	227.13
346.75	227.24
347.13	227.31
347.52	227.40
347.90	227.46
348.28	227.47
348.66	227.54
349.05	227.54
349.43	227.57
349.81	227.61
350.19	227.67
350.57	227.73
350.96	227.81
351.34	227.89
351.72	227.98
352.10	228.03
352.48	228.07
352.87	228.14
353.25	228.21
353.63	228.24
354.01	228.28
354.39	228.34
354.77	228.40
355.15	228.48
355.54	228.55
355.92	228.60
356.30	228.65
356.68	228.77
357.06	228.83
357.44	228.88
357.82	228.93
358.20	229.00
358.58	229.05
358.97	229.10
359.35	229.20
359.73	229.25
360.11	229.33
360.49	229.40
360.87	229.44
361.25	229.48
361.63	229.56
362.01	229.59
362.39	229.65
362.77	229.68
363.15	229.71
363.53	229.70
363.91	229.69
364.29	229.70
364.67	229.61
365.05	229.61
365.43	229.68
365.81	229.67
366.19	229.68
366.57	229.73
366.95	229.73
367.33	229.68
367.71	229.64
368.09	229.64
368.47	229.58
368.85	229.56
369.23	229.55
369.61	229.47
369.99	229.49
370.37	229.40
370.75	229.39
371.13	229.30
371.51	229.25
371.89	229.18
372.27	229.18
372.65	229.16
373.03	229.09
373.41	228.98
373.78	228.94
374.16	228.82
374.54	228.71
374.92	228.63
375.30	228.56
375.68	228.48
376.06	228.38
376.44	228.32
376.82	228.23
377.19	228.15
377.57	228.06
377.95	227.95
378.33	227.91
378.71	227.79
379.09	227.73
379.47	227.65
379.84	227.59
380.22	227.47
380.60	227.35
380.98	227.28
381.36	227.19
381.73	227.08
382.11	227.04
382.49	226.97
382.87	226.88
383.25	226.80
383.62	226.85
384.00	226.79
384.38	226.75
384.76	226.71
385.13	226.70
385.51	226.67
385.89	226.58
386.27	226.54
386.64	226.48
387.02	226.45
387.40	226.43
387.78	226.37
388.15	226.34
388.53	226.29
388.91	226.26
389.29	226.24
389.66	226.22
390.04	226.22
390.42	226.21
390.79	226.18
391.17	226.19
391.55	226.08
391.92	226.07
392.30	226.05
392.68	226.05
393.05	226.03
393.43	226.06
393.81	226.12
394.18	226.12
394.56	226.19
394.94	226.22
395.31	226.21
395.69	226.32
396.06	226.35
396.44	226.42
396.82	226.47
397.19	226.55
397.57	226.61
397.95	226.70
398.32	226.72
398.70	226.81
399.07	226.89
399.45	226.96
399.82	227.05
400.20	227.13
400.58	227.23
400.95	227.30
401.33	227.40
401.70	227.53
402.08	227.64
402.45	227.70
402.83	227.82
403.20	227.94
403.58	228.04
403.95	228.21
404.33	228.37
404.71	228.52
405.08	228.75
405.46	228.90
405.83	229.04
406.21	229.23
406.58	229.44
406.96	229.59
407.33	229.79
407.70	230.01
408.08	230.28
408.45	230.48
408.83	230.72
409.20	230.90
409.58	231.12
409.95	231.39
410.33	231.67
410.70	231.96
411.08	232.27
411.45	232.60
411.82	232.90
412.20	233.25
412.57	233.65
412.95	233.91
413.32	234.33
413.69	234.72
414.07	235.14
414.44	235.59
414.82	236.09
415.19	236.64
415.56	237.17
415.94	237.71
416.31	238.33
416.68	238.95
417.06	239.71
417.43	240.39
417.81	241.15
418.18	241.96
418.55	242.78
418.93	243.65
419.30	244.51
419.67	245.44
420.04	246.39
420.42	247.40
420.79	248.59
421.16	249.73
421.54	250.96
421.91	252.19
422.28	253.45
422.66	254.76
423.03	256.05
423.40	257.40
423.77	258.82
424.15	260.29
424.52	261.75
424.89	263.34
425.26	264.87
425.64	266.34
426.01	267.94
426.38	269.61
426.75	271.31
427.13	273.03
427.50	274.83
427.87	276.67
428.24	278.51
428.61	280.22
428.99	282.13
429.36	284.22
429.73	286.32
430.10	288.35
430.47	290.43
430.85	292.59
431.22	294.85
431.59	297.23
431.96	299.44
432.33	301.96
432.70	304.33
433.08	307.15
433.45	309.77
433.82	312.38
434.19	315.24
434.56	318.04
434.93	320.74
435.30	323.37
435.68	326.29
436.05	329.16
436.42	331.98
436.79	334.54
437.16	337.25
437.53	340.04
437.90	342.87
438.27	345.62
438.64	348.45
439.01	351.04
439.38	353.28
439.75	355.48
440.13	357.98
440.50	360.32
440.87	362.19
441.24	364.18
441.61	366.34
441.98	367.83
442.35	369.61
442.72	371.47
443.09	373.26
443.46	374.22
443.83	374.82
444.20	375.30
444.57	376.16
444.94	376.45
445.31	376.82
445.68	377.18
446.05	377.27
446.42	376.87
446.79	376.45
447.16	376.00
447.53	375.69
447.90	374.51
448.27	373.35
448.64	371.75
449.01	370.58
449.37	368.58
449.74	366.69
450.11	364.47
450.48	362.01
450.85	359.48
451.22	357.36
451.59	355.31
451.96	353.39
452.33	350.77
452.70	348.38
453.07	345.51
453.43	342.56
453.80	339.75
454.17	337.10
454.54	334.54
454.91	331.82
455.28	329.12
455.65	326.64
456.02	324.18
456.38	322.04
456.75	319.36
457.12	317.17
457.49	314.96
457.86	312.80
458.23	310.94
458.59	308.90
458.96	306.82
459.33	304.93
459.70	303.09
460.07	301.55
460.43	299.84
460.80	298.22
461.17	296.81
461.54	295.31
461.91	293.87
462.27	292.43
462.64	291.16
463.01	289.81
463.38	288.49
463.74	287.12
464.11	285.92
464.48	284.92
464.85	283.77
465.21	282.88
465.58	281.91
465.95	280.78
466.32	279.85
466.68	278.96
467.05	278.07
467.42	277.17
467.78	276.27
468.15	275.38
468.52	274.72
468.88	273.86
469.25	273.11
469.62	272.46
469.98	271.75
470.35	271.07
470.72	270.44
471.08	269.77
471.45	269.19
471.82	268.65
472.18	268.01
472.55	267.55
472.92	267.00
473.28	266.56
473.65	266.10
474.02	265.66
474.38	265.28
474.75	264.94
475.11	264.57
475.48	264.27
475.85	264.02
476.21	263.80
476.58	263.56
476.94	263.36
477.31	263.20
477.67	263.05
478.04	262.96
478.41	262.87
478.77	262.94
479.14	262.90
479.50	262.91
479.87	262.96
480.23	263.05
480.60	263.10
480.96	263.18
481.33	263.40
481.69	263.61
482.06	263.80
482.42	264.00
482.79	264.27
483.15	264.56
483.52	264.93
483.88	265.22
484.25	265.68
484.61	266.13
484.98	266.55
485.34	267.10
485.71	267.71
486.07	268.36
486.44	268.90
486.80	269.64
487.17	270.33
487.53	271.10
487.90	271.92
488.26	272.84
488.62	273.80
488.99	274.74
489.35	275.76
489.72	276.84
490.08	278.04
490.44	279.23
490.81	280.55
491.17	281.88
491.54	283.36
491.90	284.84
492.26	286.46
492.63	288.21
492.99	290.00
493.36	291.84
493.72	293.86
494.08	295.97
494.45	298.16
494.81	300.53
495.17	302.95
495.54	305.45
495.90	308.11
496.26	310.92
496.63	313.85
496.99	316.94
497.35	320.18
497.72	323.55
498.08	327.06
498.44	330.76
498.80	334.69
499.17	338.70
499.53	342.86
499.89	347.19
500.26	351.69
500.62	356.31
500.98	361.22
501.34	366.22
501.71	371.48
502.07	376.85
502.43	382.45
502.79	388.26
503.16	394.38
503.52	400.63
503.88	406.98
504.24	413.55
504.60	420.41
504.97	427.52
505.33	434.84
505.69	442.50
506.05	450.16
506.41	457.98
506.78	466.10
507.14	474.47
507.50	483.12
507.86	492.05
508.22	501.19
508.59	510.38
508.95	519.94
509.31	529.71
509.67	539.82
510.03	550.07
510.39	560.65
510.75	571.40
511.12	582.39
511.48	593.66
511.84	605.20
512.20	616.71
512.56	628.66
512.92	640.80
513.28	653.11
513.64	665.65
514.00	678.33
514.37	691.21
514.73	704.26
515.09	717.34
515.45	730.68
515.81	744.33
516.17	758.28
516.53	772.41
516.89	786.57
517.25	800.81
517.61	815.31
517.97	829.71
518.33	844.23
518.69	859.04
519.05	874.05
519.41	889.20
519.77	904.78
520.13	920.25
520.49	935.72
520.85	951.18
521.21	966.97
521.57	983.31
521.93	999.21
522.29	1015.70
522.65	1032.06
523.01	1048.28
523.37	1064.36
523.73	1080.75
524.09	1096.93
524.45	1113.41
524.81	1130.17
525.17	1147.03
525.53	1164.11
525.89	1180.99
526.25	1197.82
526.61	1214.36
526.97	1231.25
527.33	1247.79
527.68	1264.49
528.04	1281.02
528.40	1297.76
528.76	1314.89
529.12	1331.50
529.48	1348.50
529.84	1364.60
530.20	1381.25
530.56	1398.43
530.91	1415.92
531.27	1432.60
531.63	1449.06
531.99	1465.58
532.35	1481.55
532.71	1497.52
533.07	1513.80
533.42	1529.73
533.78	1545.90
534.14	1562.24
534.50	1577.52
534.86	1593.50
535.21	1608.67
535.57	1624.64
535.93	1640.19
536.29	1655.00
536.65	1670.24
537.00	1685.10
537.36	1700.55
537.72	1715.18
538.08	1729.52
538.44	1743.43
538.79	1757.58
539.15	1771.40
539.51	1785.45
539.87	1799.97
540.22	1813.66
540.58	1827.58
540.94	1841.11
541.29	1854.15
541.65	1866.87
542.01	1880.22
542.37	1892.61
542.72	1905.22
543.08	1917.12
543.44	1929.65
543.79	1941.01
544.15	1952.01
544.51	1963.58
544.87	1974.67
545.22	1985.52
545.58	1995.94
545.94	2005.72
546.29	2015.60
546.65	2025.50
547.01	2034.81
547.36	2043.48
547.72	2052.28
548.07	2060.16
548.43	2068.30
548.79	2076.32
549.14	2083.81
549.50	2091.20
549.86	2099.00
550.21	2106.29
550.57	2113.44
550.92	2120.06
551.28	2127.15
551.64	2134.13
551.99	2140.71
552.35	2146.77
552.70	2152.80
553.06	2158.66
553.41	2164.98
553.77	2170.97
554.13	2177.03
554.48	2183.03
554.84	2188.31
555.19	2193.39
555.55	2198.35
555.90	2202.70
556.26	2207.35
556.61	2212.10
556.97	2216.16
557.32	2220.10
557.68	2224.08
558.03	2228.39
558.39	2232.02
558.74	2236.58
559.10	2240.48
559.45	2243.98
559.81	2248.28
560.16	2252.04
560.52	2255.22
560.87	2258.58
561.23	2261.14
561.58	2263.97
561.94	2266.35
562.29	2268.91
562.64	2271.64
563.00	2274.30
563.35	2277.96
563.71	2281.13
564.06	2284.18
564.42	2287.11
564.77	2289.59
565.12	2291.70
565.48	2293.37
565.83	2295.04
566.19	2296.22
566.54	2297.02
566.89	2298.03
567.25	2298.29
567.60	2299.55
567.96	2301.10
568.31	2301.87
568.66	2302.80
569.02	2303.23
569.37	2303.32
569.72	2303.87
570.08	2303.67
570.43	2303.47
570.78	2302.41
571.14	2300.58
571.49	2299.20
571.84	2298.56
572.20	2297.05
572.55	2296.04
572.90	2294.42
573.26	2292.85
573.61	2290.97
573.96	2289.05
574.31	2286.00
574.67	2282.79
575.02	2279.01
575.37	2275.36
575.72	2271.36
576.08	2267.85
576.43	2264.37
576.78	2260.66
577.13	2257.33
577.49	2254.09
577.84	2250.33
578.19	2246.62
578.54	2242.97
578.90	2238.44
579.25	2232.77
579.60	2227.72
579.95	2222.56
580.30	2217.31
580.66	2211.91
581.01	2206.73
581.36	2201.57
581.71	2197.23
582.06	2192.72
582.42	2188.13
582.77	2182.94
583.12	2178.12
583.47	2173.24
583.82	2168.04
584.17	2162.65
584.53	2157.04
584.88	2151.36
585.23	2145.47
585.58	2139.84
585.93	2134.25
586.28	2129.42
586.63	2124.27
586.98	2119.17
587.34	2114.33
587.69	2109.31
588.04	2104.02
588.39	2098.25
588.74	2091.78
589.09	2085.51
589.44	2078.56
589.79	2072.29
590.14	2066.39
590.49	2059.65
590.84	2053.06
591.19	2046.89
591.54	2040.33
591.89	2032.68
592.25	2025.71
592.60	2018.46
592.95	2010.62
593.30	2003.08
593.65	1995.47
594.00	1988.26
594.35	1980.95
594.70	1972.76
595.05	1965.39
595.40	1958.01
595.75	1950.43
596.10	1943.97
596.45	1936.87
596.80	1930.63
597.15	1924.06
597.50	1916.96
597.85	1910.53
598.19	1903.83
598.54	1896.77
598.89	1890.10
599.24	1884.22
599.59	1877.47
599.94	1871.24
600.29	1865.01
600.64	1858.55
600.99	1851.02
601.34	1844.18
601.69	1837.10
602.04	1830.14
602.39	1822.67
602.74	1815.85
603.08	1809.17
603.43	1802.49
603.78	1795.41
604.13	1788.11
604.48	1780.66
604.83	1773.81
605.18	1766.78
605.53	1758.69
605.87	1750.54
606.22	1743.22
606.57	1735.36
606.92	1727.99
607.27	1720.66
607.62	1713.73
607.96	1706.11
608.31	1699.50
608.66	1691.93
609.01	1684.33
609.36	1676.84
609.70	1668.98
610.05	1660.83
610.40	1653.14
610.75	1644.88
611.10	1637.23
611.44	1629.08
611.79	1621.20
612.14	1612.54
612.49	1603.55
612.83	1595.33
613.18	1587.48
613.53	1579.45
613.88	1570.91
614.22	1562.64
614.57	1554.22
614.92	1546.14
615.27	1538.75
615.61	1530.42
615.96	1522.46
616.31	1514.90
616.65	1507.55
617.00	1499.94
617.35	1492.29
617.70	1483.89
618.04	1475.30
618.39	1466.99
618.74	1459.28
619.08	1451.04
619.43	1443.49
619.78	1436.51
620.12	1429.34
620.47	1421.79
620.82	1413.68
621.16	1406.19
621.51	1398.65
621.85	1391.01
622.20	1382.62
622.55	1374.42
622.89	1366.54
623.24	1358.94
623.59	1351.64
623.93	1344.10
624.28	1336.89
624.62	1329.37
624.97	1322.29
625.32	1315.69
625.66	1308.77
626.01	1301.66
626.35	1294.08
626.70	1286.33
627.04	1278.60
627.39	1270.81
627.73	1263.42
628.08	1256.49
628.43	1249.32
628.77	1242.07
629.12	1234.59
629.46	1227.40
629.81	1220.04
630.15	1212.93
630.50	1205.48
630.84	1197.45
631.19	1189.65
631.53	1182.28
631.88	1174.89
632.22	1167.38
632.57	1160.13
632.91	1152.61
633.26	1145.28
633.60	1138.13
633.95	1131.26
634.29	1124.38
634.64	1117.91
634.98	1110.54
635.32	1103.49
635.67	1096.96
636.01	1090.27
636.36	1083.54
636.70	1077.19
637.05	1070.59
637.39	1064.19
637.73	1057.89
638.08	1051.97
638.42	1046.03
638.77	1039.66
639.11	1033.11
639.45	1026.74
639.80	1020.08
640.14	1013.76
640.49	1007.20
640.83	1000.98
641.17	994.64
641.52	988.31
641.86	981.84
642.20	976.08
642.55	969.88
642.89	963.35
643.23	956.98
643.58	951.20
643.92	944.98
644.26	938.94
644.61	933.05
644.95	926.97
645.29	920.39
645.64	913.68
645.98	907.40
646.32	901.59
646.66	895.59
647.01	889.82
647.35	884.20
647.69	878.47
648.04	872.98
648.38	867.30
648.72	861.39
649.06	855.35
649.41	849.51
649.75	843.48
650.09	837.65
650.43	831.79
650.78	825.75
651.12	819.84
651.46	814.19
651.80	808.36
652.14	803.06
652.49	797.75
652.83	792.57
653.17	786.91
653.51	781.23
653.85	775.88
654.20	770.31
654.54	764.33
654.88	758.66
655.22	752.77
655.56	747.09
655.90	741.66
656.25	736.56
656.59	731.24
656.93	726.29
657.27	721.14
657.61	715.77
657.95	710.68
658.29	705.62
658.64	700.45
658.98	695.23
659.32	689.79
659.66	684.67
660.00	679.41
660.34	674.48
660.68	669.64
661.02	664.66
661.36	660.00
661.70	655.48
662.05	651.10
662.39	646.84
662.73	642.44
663.07	638.10
663.41	633.64
663.75	629.13
664.09	624.54
664.43	620.22
664.77	616.14
665.11	611.93
665.45	607.83
665.79	603.72
666.13	599.57
666.47	595.51
666.81	591.30
667.15	587.21
667.49	583.37
667.83	579.52
668.17	575.55
668.51	571.44
668.85	567.49
669.19	563.66
669.53	559.80
669.87	555.92
670.21	552.24
670.55	548.59
670.89	545.24
671.23	541.80
671.57	538.29
671.91	534.73
672.25	531.30
672.58	527.78
672.92	524.40
673.26	521.25
673.60	518.12
673.94	515.06
674.28	512.15
674.62	509.24
674.96	506.17
675.30	503.27
675.64	500.42
675.97	497.68
676.31	494.87
676.65	492.00
676.99	489.26
677.33	486.43
677.67	483.61
678.01	480.57
678.34	477.64
678.68	474.78
679.02	472.02
679.36	469.24
679.70	466.58
680.04	463.78
680.37	460.96
680.71	458.19
681.05	455.61
681.39	453.01
681.73	450.38
682.06	447.92
682.40	445.42
682.74	442.90
683.08	440.38
683.42	437.80
683.75	435.35
684.09	432.93
684.43	430.48
684.77	428.10
685.10	425.81
685.44	423.62
685.78	421.38
686.12	419.16
686.45	416.95
686.79	414.71
687.13	412.59
687.46	410.47
687.80	408.35
688.14	406.16
688.48	404.07
688.81	401.83
689.15	399.68
689.49	397.60
689.82	395.59
690.16	393.52
690.50	391.60
690.83	389.68
691.17	387.69
691.51	385.82
691.84	384.00
692.18	382.06
692.52	380.04
692.85	378.16
693.19	376.34
693.52	374.53
693.86	372.73
694.20	371.00
694.53	369.19
694.87	367.36
695.21	365.59
695.54	363.80
695.88	362.13
696.21	360.45
696.55	358.77
696.88	357.09
697.22	355.47
697.56	353.86
697.89	352.17
698.23	350.58
698.56	348.97
698.90	347.41
699.23	345.77
699.57	344.30
699.90	342.77
700.24	341.19
700.58	339.63
700.91	338.14
701.25	336.71
701.58	335.37
701.92	334.02
702.25	332.65
702.59	331.30
702.92	329.96
703.26	328.61
703.59	327.34
703.93	326.14
704.26	324.90
704.60	323.59
704.93	322.31
705.26	321.05
705.60	319.88
705.93	318.72
706.27	317.74
706.60	316.64
706.94	315.54
707.27	314.44
707.61	313.40
707.94	312.40
708.27	311.29
708.61	310.19
708.94	309.20
709.28	308.22
709.61	307.27
709.94	306.34
710.28	305.32
710.61	304.34
710.95	303.26
711.28	302.36
711.61	301.43
711.95	300.58
712.28	299.67
712.61	298.71
712.95	297.73
713.28	296.82
713.61	295.93
713.95	295.09
714.28	294.26
714.61	293.38
714.95	292.54
715.28	291.72
715.61	290.86
715.95	290.01
716.28	289.16
716.61	288.33
716.95	287.52
717.28	286.88
717.61	286.15
717.94	285.42
718.28	284.64
718.61	283.93
718.94	283.25
719.27	282.60
719.61	281.96
719.94	281.37
720.27	280.67
720.60	280.01
720.94	279.36
721.27	278.77
721.60	278.20
721.93	277.60
722.27	277.04
722.60	276.50
722.93	275.97
723.26	275.49
723.59	274.93
723.93	274.44
724.26	273.85
724.59	273.30
724.92	272.82
725.25	272.35
725.59	271.84
725.92	271.35
726.25	270.83
726.58	270.38
726.91	269.87
727.24	269.41
727.57	268.95
727.91	268.44
728.24	267.99
728.57	267.56
728.90	267.14
729.23	266.68
729.56	266.30
729.89	265.81
730.22	265.32
730.55	264.90
730.89	264.41
731.22	263.99
731.55	263.59
731.88	263.14
732.21	262.72
732.54	262.28
732.87	261.86
733.20	261.48
733.53	261.06
733.86	260.73
734.19	260.35
734.52	259.97
734.85	259.72
735.18	259.32
735.51	258.93
735.84	258.52
736.17	258.16
736.50	257.73
736.83	257.49
737.16	257.17
737.49	256.82
737.82	256.49
738.15	256.16
738.48	255.82
738.81	255.47
739.14	255.12
739.47	254.82
739.80	254.48
740.13	254.15
740.46	253.83
740.79	253.47
741.12	253.15
741.45	252.88
741.78	252.49
742.11	252.19
742.44	251.84
742.77	251.55
743.10	251.23
743.43	250.90
743.75	250.50
744.08	250.31
744.41	250.02
744.74	249.71
745.07	249.39
745.40	249.10
745.73	248.84
746.06	248.56
746.39	248.28
746.71	248.03
747.04	247.74
747.37	247.45
747.70	247.18
748.03	246.92
748.36	246.62
748.68	246.35
749.01	246.10
749.34	245.84
749.67	245.63
750.00	245.42
750.33	245.27
750.65	245.06
750.98	244.72
751.31	244.50
751.64	244.31
751.97	244.14
752.29	243.92
752.62	243.69
752.95	243.51
753.28	243.28
753.60	243.03
753.93	242.87
754.26	242.68
754.59	242.47
754.91	242.26
755.24	242.08
755.57	241.89
755.90	241.70
756.22	241.57
756.55	241.36
756.88	241.18
757.20	240.92
757.53	240.74
757.86	240.62
758.19	240.45
758.51	240.30
758.84	240.09
759.17	239.94
759.49	239.75
759.82	239.60
760.15	239.46
760.47	239.33
760.80	239.19
761.13	239.06
761.45	238.91
761.78	238.75
762.11	238.64
762.43	238.51
762.76	238.38
763.08	238.25
763.41	238.13
763.74	238.01
764.06	237.91
764.39	237.79
764.71	237.62
765.04	237.51
765.37	237.37
765.69	237.29
766.02	237.16
766.34	237.07
766.67	236.96
767.00	236.91
767.32	236.86
767.65	236.81
767.97	236.74
768.30	236.65
768.62	236.60
768.95	236.50
769.27	236.40
769.60	236.33
769.92	236.22
770.25	236.12
770.57	236.03
770.90	235.97
771.22	235.89
771.55	235.82
771.87	235.74
772.20	235.65
772.52	235.61
772.85	235.63
773.17	235.55
773.50	235.46
773.82	235.34
774.15	235.26
774.47	235.12
774.80	235.00
775.12	234.90
775.45	234.81
775.77	234.75
776.09	234.70
776.42	234.64
776.74	234.60
777.07	234.49
777.39	234.40
777.72	234.29
778.04	234.21
778.36	234.14
778.69	234.07
779.01	234.03
779.33	233.87
779.66	233.72
779.98	233.61
780.31	233.53
780.63	233.54
780.95	233.43
781.28	233.38
781.60	233.31
781.92	233.27
782.25	233.19
782.57	233.10
782.89	233.01
783.22	232.91
783.54	232.79
783.86	232.74
784.19	232.69
784.51	232.64
784.83	232.58
785.16	232.48
785.48	232.40
785.80	232.32
786.12	232.26
786.45	232.19
786.77	232.16
787.09	232.09
787.42	231.96
787.74	231.90
788.06	231.83
788.38	231.77
788.71	231.71
789.03	231.70
789.35	231.63
789.67	231.59
789.99	231.56
790.32	231.51
790.64	231.49
790.96	231.48
791.28	231.42
791.61	231.37
791.93	231.29
792.25	231.24
792.57	231.25
792.89	231.20
793.21	231.18
793.54	231.13
793.86	231.08
794.18	231.02
794.50	230.95
794.82	230.91
795.14	230.88
795.47	230.84
795.79	230.79
796.11	230.70
796.43	230.66
796.75	230.63
797.07	230.61
797.39	230.55
797.71	230.45
798.04	230.43
798.36	230.37
798.68	230.37
799.00	230.35
799.32	230.29
799.64	230.25
799.96	230.21
800.28	230.23
800.60	230.21
800.92	230.21
801.24	230.20
801.56	230.18
801.89	230.16
802.21	230.15
802.53	230.10
802.85	230.13
803.17	230.11
803.49	230.07
803.81	230.04
804.13	230.03
804.45	230.01
804.77	230.02
805.09	230.00
805.41	230.00
805.73	229.95
806.05	229.91
806.37	229.94
806.69	229.94
807.01	229.91
807.33	229.92
807.65	229.89
807.97	229.92
808.28	229.90
808.60	229.90
808.92	229.87
809.24	229.92
809.56	229.93
809.88	229.91
810.20	229.90
810.52	229.91
810.84	229.87
811.16	229.88
811.48	229.81
811.80	229.85
812.12	229.85
812.43	229.86
812.75	229.82
813.07	229.77
813.39	229.74
813.71	229.72
814.03	229.64
814.35	229.61
814.67	229.56
814.98	229.50
815.30	229.46
815.62	229.39
815.94	229.30
816.26	229.33
816.58	229.27
816.89	229.27
817.21	229.22
817.53	229.22
817.85	229.20
818.17	229.21
818.48	229.15
818.80	229.14
819.12	229.09
819.44	229.06
819.76	229.05
820.07	229.03
820.39	228.99
820.71	229.00
821.03	228.98
821.34	228.92
821.66	228.92
821.98	228.92
822.30	228.94
822.61	228.99
822.93	228.88
823.25	228.89
823.57	228.84
823.88	228.83
824.20	228.80
824.52	228.77
824.83	228.73
825.15	228.71
825.47	228.68
825.79	228.68
826.10	228.67
826.42	228.65
826.74	228.63
827.05	228.65
827.37	228.63
827.69	228.63
828.00	228.61
828.32	228.61
828.64	228.56
828.95	228.58
829.27	228.56
829.58	228.55
829.90	228.52
830.22	228.50
830.53	228.46
830.85	228.42
831.17	228.38
831.48	228.38
831.80	228.37
832.11	228.34
832.43	228.31
832.75	228.29
833.06	228.34
833.38	228.29
833.69	228.24
834.01	228.24
834.32	228.24
834.64	228.26
834.96	228.25
835.27	228.25
835.59	228.19
835.90	228.12
836.22	228.12
836.53	228.09
836.85	228.08
837.16	228.17
837.48	228.18
837.79	228.20
838.11	228.16
838.42	228.13
838.74	228.16
839.05	228.15
839.37	228.14
839.68	228.06
840.00	228.06
840.31	228.04
840.63	228.02
840.94	227.98
841.26	227.95
841.57	227.90
841.88	227.89
842.20	227.89
842.51	227.88
842.83	227.88
843.14	227.97
843.46	227.96
843.77	227.89
844.08	227.86
844.40	227.83
844.71	227.82
845.03	227.83
845.34	227.82
845.65	227.84
845.97	227.82
846.28	227.82
846.60	227.82
846.91	227.83
847.22	227.84
847.54	227.86
847.85	227.86
848.16	227.85
848.48	227.85
848.79	227.90
849.10	227.91
849.42	227.91
849.73	227.81
850.04	227.81
850.36	227.78
850.67	227.80
850.98	227.80
851.30	227.80
851.61	227.80
851.92	227.81
852.23	227.80
852.55	227.82
852.86	227.85
853.17	227.87
853.49	227.90
853.80	227.90
854.11	227.89
854.42	227.92
854.74	227.92
855.05	227.90
855.36	227.83
855.67	227.85
855.99	227.82
856.30	227.95
856.61	227.97
856.92	227.99
857.23	227.99
857.55	228.02
857.86	228.04
858.17	228.02
858.48	227.99
858.79	227.99
859.11	228.00
859.42	227.95
859.73	227.92
860.04	227.87
860.35	227.86
860.66	227.82
860.98	227.78
861.29	227.80
861.60	227.81
861.91	227.84
862.22	227.82
862.53	227.85
862.84	227.71
863.16	227.69
863.47	227.66
863.78	227.63
864.09	227.62
864.40	227.61
864.71	227.63
865.02	227.62
865.33	227.61
865.64	227.60
865.95	227.62
866.27	227.71
866.58	227.70
866.89	227.69
867.20	227.70
867.51	227.70
867.82	227.66
868.13	227.68
868.44	227.62
868.75	227.62
869.06	227.58
869.37	227.58
869.68	227.56
869.99	227.59
870.30	227.62
870.61	227.64
870.92	227.63
871.23	227.59
871.54	227.56
871.85	227.56
872.16	227.57
872.47	227.54
872.78	227.45
873.09	227.48
873.40	227.49
873.71	227.52
874.02	227.53
874.33	227.54
874.64	227.52
874.95	227.52
875.26	227.51
875.56	227.50
875.87	227.49
876.18	227.48
876.49	227.57
876.80	227.56
877.11	227.53
877.42	227.51
877.73	227.50
878.04	227.54
878.35	227.55
878.66	227.56
878.96	227.55
879.27	227.54
879.58	227.53
879.89	227.48
880.20	227.46
880.51	227.43
880.82	227.44
881.12	227.44
881.43	227.44
881.74	227.44
882.05	227.47
882.36	227.48
882.67	227.53
882.97	227.42
883.28	227.41
883.59	227.41
883.90	227.43
884.21	227.46
884.51	227.42
884.82	227.40
885.13	227.41
885.44	227.41
885.74	227.42
886.05	227.42
886.36	227.42
886.67	227.41
886.98	227.49
887.28	227.50
887.59	227.51
887.90	227.53
888.20	227.54
888.51	227.55
888.82	227.57
889.13	227.54
889.43	227.64
889.74	227.62
890.05	227.61
890.35	227.61
890.66	227.62
890.97	227.65
891.28	227.65
891.58	227.61
891.89	227.64
892.20	227.65
892.50	227.65
892.81	227.67
893.12	227.68
893.42	227.61
893.73	227.62
894.04	227.62
894.34	227.64
894.65	227.62
894.95	227.63
895.26	227.61
895.57	227.64
895.87	227.55
896.18	227.59
896.48	227.57
896.79	227.57
897.10	227.57
897.40	227.55
897.71	227.56
898.01	227.56
898.32	227.55
898.63	227.53
898.93	227.51
899.24	227.51
899.54	227.49
899.85	227.53
900.15	227.48
900.46	227.49
900.76	227.46
901.07	227.42
901.38	227.42
901.68	227.44
901.99	227.40
902.29	227.39
902.60	227.38
902.90	227.39
903.21	227.39
903.51	227.37
903.82	227.40
904.12	227.40
904.43	227.41
904.73	227.38
905.03	227.37
905.34	227.45
905.64	227.45
905.95	227.49
906.25	227.46
906.56	227.46
906.86	227.46
907.17	227.46
907.47	227.48
907.77	227.47
908.08	227.42
908.38	227.45
908.69	227.45
908.99	227.46
909.30	227.46
909.60	227.48
909.90	227.49
910.21	227.44
910.51	227.41
910.81	227.38
911.12	227.38
911.42	227.39
911.73	227.30
912.03	227.27
912.33	227.26
912.64	227.26
912.94	227.28
913.24	227.24
913.55	227.23
913.85	227.22
914.15	227.21
914.46	227.23
914.76	227.19
915.06	227.18
915.37	227.12
915.67	227.08
915.97	227.04
916.27	227.00
916.58	227.03
916.88	227.02
917.18	227.02
917.49	227.10
917.79	227.10
918.09	227.14
918.39	227.19
918.70	227.17
919.00	227.17
919.30	227.21
919.60	227.20
919.91	227.20
920.21	227.21
920.51	227.19
920.81	227.17
921.12	227.19
921.42	227.20
921.72	227.25
922.02	227.25
922.32	227.27
922.63	227.30
922.93	227.36
923.23	227.36
923.53	227.33
923.83	227.29
924.13	227.33
924.44	227.31
924.74	227.33
925.04	227.36
925.34	227.35
925.64	227.33
925.94	227.37
926.24	227.44
926.55	227.45
926.85	227.48
927.15	227.47
927.45	227.47
927.75	227.47
928.05	227.46
928.35	227.50
928.65	227.53
928.95	227.51
929.26	227.45
929.56	227.50
929.86	227.54
930.16	227.56
930.46	227.51
930.76	227.52
931.06	227.47
931.36	227.43
931.66	227.47
931.96	227.42
932.26	227.40
932.56	227.32
932.86	227.34
933.16	227.33
933.46	227.34
933.76	227.34
934.06	227.34
934.36	227.38
934.66	227.36
934.96	227.30
935.26	227.30
935.56	227.31
935.86	227.27
936.16	227.28
936.46	227.26
936.76	227.25
937.06	227.22
937.36	227.25
937.66	227.26
937.96	227.25
938.26	227.24
938.56	227.22
938.86	227.27
939.16	227.24
939.46	227.26
939.76	227.25
940.06	227.25
940.35	227.26
940.65	227.20
940.95	227.19
941.25	227.21
941.55	227.22
941.85	227.21
942.15	227.19
942.45	227.19
942.75	227.16
943.04	227.17
943.34	227.18
943.64	227.15
943.94	227.13
944.24	227.10
944.54	227.13
944.84	227.12
945.13	227.09
945.43	227.10
945.73	227.08
946.03	227.06
946.33	227.06
946.62	227.02
946.92	227.03
947.22	227.05
947.52	227.02
947.82	227.03
948.11	227.04
948.41	227.02
948.71	227.02
949.01	227.01
949.31	227.00
949.60	227.02
949.90	227.02
950.20	227.02
950.50	227.02
950.79	227.00
951.09	227.02
951.39	227.01
951.69	226.97
951.98	226.99
952.28	227.01
952.58	226.98
952.87	227.01
953.17	227.00
953.47	226.99
953.76	226.99
954.06	226.97
954.36	226.93
954.66	226.96
954.95	226.96
955.25	226.97
955.55	226.97
955.84	226.94
956.14	226.96
956.44	226.98
956.73	227.00
957.03	227.02
957.32	227.03
957.62	227.03
957.92	227.06
958.21	227.04
958.51	227.14
958.81	227.16
959.10	227.16
959.40	227.19
959.69	227.22
959.99	227.25
960.29	227.25
960.58	227.26
960.88	227.28
961.17	227.30
961.47	227.31
961.76	227.32
962.06	227.33
962.36	227.32
962.65	227.33
962.95	227.35
963.24	227.32
963.54	227.32
963.83	227.32
964.13	227.34
964.42	227.36
964.72	227.27
965.01	227.28
965.31	227.27
965.60	227.24
965.90	227.27
966.19	227.24
966.49	227.26
966.78	227.25
967.08	227.25
967.37	227.23
967.67	227.21
967.96	227.24
968.26	227.27
968.55	227.28
968.85	227.28
969.14	227.27
969.43	227.29
969.73	227.31
970.02	227.31
970.32	227.28
970.61	227.26
970.91	227.26
971.20	227.28
971.49	227.27
971.79	227.29
972.08	227.23
972.38	227.26
972.67	227.27
972.96	227.28
973.26	227.29
973.55	227.32
973.85	227.32
974.14	227.31
974.43	227.29
974.73	227.27
975.02	227.24
975.31	227.20
975.61	227.19
975.90	227.17
976.19	227.17
976.49	227.19
976.78	227.21
977.07	227.19
977.37	227.17
977.66	227.16
977.95	227.16
978.24	227.18
978.54	227.19
978.83	227.16
979.12	227.16
979.42	227.13
979.71	227.10
980.00	227.10
980.29	227.09
980.59	227.10
980.88	227.11
981.17	227.09
981.46	227.13
981.76	227.12
982.05	227.15
982.34	227.15
982.63	227.15
982.93	227.14
983.22	227.17
983.51	227.16
983.80	227.17
984.09	227.14
984.39	227.14
984.68	227.10
984.97	227.12
985.26	227.11
985.55	227.13
985.85	227.13
986.14	227.16
986.43	227.16
986.72	227.11
987.01	227.09
987.30	227.10
987.59	227.08
987.89	227.09
988.18	227.04
988.47	227.03
988.76	227.02
989.05	227.01
989.34	226.98
989.63	226.98
989.92	226.98
990.22	226.97
990.51	226.98
990.80	226.99
991.09	226.99
991.38	227.01
991.67	226.98
991.96	226.94
992.25	226.95
992.54	226.91
992.83	226.94
993.12	226.95
993.41	226.98
993.70	227.02
993.99	227.06
994.28	227.12
994.58	227.11
994.87	227.08
995.16	227.07
995.45	227.08
995.74	227.09
996.03	227.13
996.32	227.21
996.61	227.18
996.90	227.16
997.19	227.18
997.48	227.20
997.77	227.22
998.06	227.26
998.34	227.24
998.63	227.26
998.92	227.28
999.21	227.29
999.50	227.29
999.79	227.28
1000.08	227.29
1000.37	227.27
1000.66	227.25
1000.95	227.30
1001.24	227.31
1001.53	227.37
1001.82	227.35
1002.11	227.32
1002.40	227.30
1002.68	227.35
1002.97	227.43
1003.26	227.41
1003.55	227.35
1003.84	227.34
1004.13	227.40
1004.42	227.40
1004.71	227.39
1004.99	227.36
1005.28	227.38
1005.57	227.35
1005.86	227.32
1006.15	227.32
1006.44	227.30
1006.72	227.33
1007.01	227.32
1007.30	227.35
1007.59	227.32
1007.88	227.36
1008.17	227.37
1008.45	227.37
1008.74	227.31
1009.03	227.26
1009.32	227.26
1009.60	227.25
1009.89	227.28
1010.18	227.20
1010.47	227.20
1010.76	227.21
1011.04	227.20
1011.33	227.23
1011.62	227.24
1011.91	227.22
1012.19	227.20
1012.48	227.19
1012.77	227.20
1013.05	227.25
1013.34	227.24
1013.63	227.20
1013.92	227.18
1014.20	227.17
1014.49	227.19
1014.78	227.24
1015.06	227.22
1015.35	227.22
1015.64	227.25
1015.92	227.24
1016.21	227.25
1016.50	227.25
1016.78	227.28
1017.07	227.30
1017.36	227.25
1017.64	227.25
1017.93	227.27
1018.22	227.25
1018.50	227.25
1018.79	227.20
1019.08	227.13
1019.36	227.14
1019.65	227.12
1019.93	227.15
1020.22	227.13
1020.51	227.16
1020.79	227.10
1021.08	226.94
1021.36	226.70
1021.65	226.38
1021.94	227.01
1022.22	227.18
1022.51	226.64
1022.79	227.72
1023.08	226.97
1023.36	228.44
1023.65	226.63
>>>>>End Processed Spectral Data<<<<<
