SpectraSuite Data File
++++++++++++++++++++++++++++++++++++
Date: Fri Feb 01 16:35:12 EST 2013
User: group
Dark Spectrum Present: No
Reference Spectrum Present: No
Number of Sampled Component Spectra: 1
Spectrometers: USB2E7196
Integration Time (usec): 35000 (USB2E7196)
Spectra Averaged: 100 (USB2E7196)
Boxcar Smoothing: 10 (USB2E7196)
Correct for Electrical Dark: No (USB2E7196)
Strobe/Lamp Enabled: No (USB2E7196)
Correct for Detector Non-linearity: No (USB2E7196)
Correct for Stray Light: No (USB2E7196)
Number of Pixels in Processed Spectrum: 2048
>>>>>Begin Processed Spectral Data<<<<<
339.09	0.00
339.48	213.70
339.86	215.23
340.24	216.52
340.63	217.85
341.01	221.32
341.39	221.19
341.78	221.97
342.16	223.53
342.54	224.03
342.93	212.30
343.31	223.02
343.69	223.59
344.07	224.05
344.46	224.51
344.84	224.91
345.22	225.14
345.60	225.38
345.99	225.56
346.37	225.70
346.75	225.80
347.13	225.89
347.52	225.94
347.90	225.97
348.28	226.01
348.66	226.03
349.05	226.05
349.43	226.11
349.81	226.15
350.19	226.21
350.57	226.27
350.96	226.36
351.34	226.47
351.72	226.52
352.10	226.63
352.48	226.68
352.87	226.73
353.25	226.79
353.63	226.86
354.01	226.93
354.39	226.98
354.77	227.06
355.15	227.14
355.54	227.24
355.92	227.26
356.30	227.32
356.68	227.43
357.06	227.48
357.44	227.54
357.82	227.62
358.20	227.66
358.58	227.72
358.97	227.79
359.35	227.85
359.73	227.90
360.11	227.94
360.49	227.95
360.87	228.00
361.25	228.02
361.63	228.08
362.01	228.13
362.39	228.16
362.77	228.18
363.15	228.24
363.53	228.28
363.91	228.32
364.29	228.34
364.67	228.27
365.05	228.28
365.43	228.27
365.81	228.29
366.19	228.31
366.57	228.33
366.95	228.29
367.33	228.26
367.71	228.27
368.09	228.30
368.47	228.31
368.85	228.30
369.23	228.32
369.61	228.27
369.99	228.27
370.37	228.23
370.75	228.25
371.13	228.19
371.51	228.09
371.89	228.08
372.27	228.02
372.65	228.00
373.03	227.98
373.41	227.95
373.78	227.89
374.16	227.82
374.54	227.73
374.92	227.67
375.30	227.62
375.68	227.54
376.06	227.49
376.44	227.42
376.82	227.37
377.19	227.31
377.57	227.25
377.95	227.14
378.33	227.11
378.71	227.00
379.09	226.93
379.47	226.92
379.84	226.86
380.22	226.80
380.60	226.72
380.98	226.65
381.36	226.58
381.73	226.48
382.11	226.40
382.49	226.32
382.87	226.26
383.25	226.17
383.62	226.21
384.00	226.12
384.38	226.02
384.76	225.96
385.13	225.93
385.51	225.86
385.89	225.80
386.27	225.74
386.64	225.67
387.02	225.62
387.40	225.56
387.78	225.51
388.15	225.49
388.53	225.46
388.91	225.40
389.29	225.36
389.66	225.36
390.04	225.32
390.42	225.35
390.79	225.35
391.17	225.36
391.55	225.26
391.92	225.26
392.30	225.29
392.68	225.28
393.05	225.26
393.43	225.26
393.81	225.28
394.18	225.25
394.56	225.28
394.94	225.33
395.31	225.32
395.69	225.35
396.06	225.39
396.44	225.41
396.82	225.43
397.19	225.53
397.57	225.55
397.95	225.61
398.32	225.60
398.70	225.67
399.07	225.75
399.45	225.78
399.82	225.84
400.20	225.89
400.58	225.91
400.95	225.96
401.33	226.04
401.70	226.22
402.08	226.33
402.45	226.45
402.83	226.53
403.20	226.62
403.58	226.73
403.95	226.83
404.33	226.99
404.71	227.12
405.08	227.29
405.46	227.42
405.83	227.57
406.21	227.73
406.58	227.90
406.96	228.03
407.33	228.22
407.70	228.43
408.08	228.68
408.45	228.93
408.83	229.18
409.20	229.38
409.58	229.54
409.95	229.79
410.33	230.06
410.70	230.29
411.08	230.59
411.45	230.89
411.82	231.19
412.20	231.51
412.57	231.89
412.95	232.18
413.32	232.59
413.69	233.02
414.07	233.43
414.44	233.87
414.82	234.33
415.19	234.88
415.56	235.43
415.94	236.01
416.31	236.63
416.68	237.24
417.06	237.95
417.43	238.61
417.81	239.37
418.18	240.12
418.55	240.97
418.93	241.82
419.30	242.69
419.67	243.62
420.04	244.56
420.42	245.56
420.79	246.74
421.16	247.84
421.54	249.03
421.91	250.23
422.28	251.47
422.66	252.80
423.03	254.08
423.40	255.38
423.77	256.77
424.15	258.22
424.52	259.69
424.89	261.34
425.26	262.90
425.64	264.33
426.01	265.91
426.38	267.56
426.75	269.26
427.13	270.97
427.50	272.77
427.87	274.65
428.24	276.52
428.61	278.25
428.99	280.21
429.36	282.28
429.73	284.34
430.10	286.37
430.47	288.44
430.85	290.54
431.22	292.75
431.59	295.10
431.96	297.29
432.33	299.74
432.70	302.05
433.08	304.81
433.45	307.46
433.82	310.07
434.19	312.94
434.56	315.75
434.93	318.41
435.30	321.02
435.68	323.90
436.05	326.71
436.42	329.44
436.79	331.94
437.16	334.63
437.53	337.45
437.90	340.22
438.27	342.95
438.64	345.79
439.01	348.36
439.38	350.60
439.75	352.75
440.13	355.22
440.50	357.56
440.87	359.47
441.24	361.38
441.61	363.49
441.98	364.95
442.35	366.71
442.72	368.55
443.09	370.34
443.46	371.30
443.83	371.85
444.20	372.36
444.57	373.24
444.94	373.48
445.31	373.83
445.68	374.20
446.05	374.25
446.42	373.83
446.79	373.45
447.16	372.96
447.53	372.68
447.90	371.51
448.27	370.36
448.64	368.72
449.01	367.58
449.37	365.64
449.74	363.77
450.11	361.52
450.48	359.10
450.85	356.55
451.22	354.43
451.59	352.44
451.96	350.55
452.33	347.93
452.70	345.60
453.07	342.80
453.43	339.87
453.80	337.12
454.17	334.48
454.54	331.92
454.91	329.22
455.28	326.53
455.65	324.10
456.02	321.64
456.38	319.52
456.75	316.86
457.12	314.64
457.49	312.40
457.86	310.24
458.23	308.37
458.59	306.34
458.96	304.27
459.33	302.43
459.70	300.57
460.07	299.05
460.43	297.39
460.80	295.77
461.17	294.39
461.54	292.90
461.91	291.48
462.27	290.08
462.64	288.85
463.01	287.50
463.38	286.24
463.74	284.90
464.11	283.73
464.48	282.73
464.85	281.61
465.21	280.79
465.58	279.89
465.95	278.80
466.32	277.90
466.68	276.99
467.05	276.11
467.42	275.23
467.78	274.33
468.15	273.45
468.52	272.80
468.88	271.90
469.25	271.15
469.62	270.51
469.98	269.80
470.35	269.19
470.72	268.65
471.08	267.97
471.45	267.47
471.82	266.98
472.18	266.38
472.55	265.99
472.92	265.47
473.28	264.98
473.65	264.53
474.02	264.15
474.38	263.85
474.75	263.54
475.11	263.21
475.48	262.95
475.85	262.75
476.21	262.51
476.58	262.36
476.94	262.21
477.31	262.07
477.67	261.95
478.04	261.85
478.41	261.77
478.77	261.82
479.14	261.73
479.50	261.71
479.87	261.77
480.23	261.85
480.60	261.95
480.96	262.09
481.33	262.29
481.69	262.42
482.06	262.60
482.42	262.79
482.79	263.04
483.15	263.34
483.52	263.71
483.88	264.05
484.25	264.43
484.61	264.88
484.98	265.27
485.34	265.84
485.71	266.40
486.07	266.98
486.44	267.58
486.80	268.27
487.17	269.02
487.53	269.86
487.90	270.68
488.26	271.58
488.62	272.55
488.99	273.58
489.35	274.63
489.72	275.78
490.08	276.98
490.44	278.24
490.81	279.61
491.17	280.96
491.54	282.47
491.90	283.99
492.26	285.66
492.63	287.49
492.99	289.31
493.36	291.23
493.72	293.34
494.08	295.42
494.45	297.71
494.81	300.05
495.17	302.50
495.54	305.08
495.90	307.78
496.26	310.61
496.63	313.54
496.99	316.68
497.35	319.93
497.72	323.39
498.08	326.91
498.44	330.57
498.80	334.54
499.17	338.60
499.53	342.85
499.89	347.22
500.26	351.71
500.62	356.34
500.98	361.33
501.34	366.39
501.71	371.80
502.07	377.27
502.43	382.92
502.79	388.69
503.16	394.78
503.52	401.02
503.88	407.45
504.24	414.12
504.60	421.05
504.97	428.21
505.33	435.51
505.69	443.24
506.05	451.02
506.41	458.89
506.78	467.06
507.14	475.49
507.50	484.21
507.86	493.23
508.22	502.44
508.59	511.66
508.95	521.22
509.31	530.94
509.67	541.04
510.03	551.40
510.39	562.01
510.75	572.83
511.12	583.72
511.48	594.96
511.84	606.36
512.20	617.84
512.56	629.75
512.92	641.86
513.28	654.16
513.64	666.62
514.00	679.28
514.37	692.17
514.73	705.25
515.09	718.21
515.45	731.53
515.81	745.14
516.17	759.00
516.53	773.18
516.89	787.42
517.25	801.54
517.61	815.85
517.97	830.21
518.33	844.61
518.69	859.42
519.05	874.41
519.41	889.62
519.77	905.08
520.13	920.50
520.49	935.95
520.85	951.28
521.21	966.94
521.57	983.09
521.93	998.84
522.29	1015.17
522.65	1031.43
523.01	1047.49
523.37	1063.53
523.73	1079.64
524.09	1095.58
524.45	1111.70
524.81	1128.27
525.17	1145.00
525.53	1161.88
525.89	1178.66
526.25	1195.53
526.61	1211.76
526.97	1228.37
527.33	1244.83
527.68	1261.35
528.04	1277.71
528.40	1294.24
528.76	1311.19
529.12	1327.77
529.48	1344.55
529.84	1360.51
530.20	1376.97
530.56	1393.89
530.91	1411.06
531.27	1427.75
531.63	1444.17
531.99	1460.58
532.35	1476.44
532.71	1492.23
533.07	1508.39
533.42	1524.14
533.78	1539.89
534.14	1556.08
534.50	1571.30
534.86	1587.04
535.21	1602.17
535.57	1617.87
535.93	1633.21
536.29	1647.89
536.65	1662.81
537.00	1677.29
537.36	1692.30
537.72	1706.66
538.08	1720.88
538.44	1734.49
538.79	1748.19
539.15	1761.48
539.51	1775.09
539.87	1789.25
540.22	1802.64
540.58	1816.05
540.94	1829.10
541.29	1841.69
541.65	1854.16
542.01	1867.08
542.37	1879.18
542.72	1891.33
543.08	1903.09
543.44	1915.33
543.79	1926.39
544.15	1937.11
544.51	1948.57
544.87	1959.48
545.22	1970.22
545.58	1980.36
545.94	1990.18
546.29	1999.93
546.65	2009.90
547.01	2019.30
547.36	2028.00
547.72	2036.50
548.07	2044.47
548.43	2052.66
548.79	2060.77
549.14	2068.31
549.50	2075.62
549.86	2083.25
550.21	2090.58
550.57	2097.75
550.92	2104.22
551.28	2111.27
551.64	2118.32
551.99	2124.82
552.35	2130.93
552.70	2137.20
553.06	2143.25
553.41	2149.42
553.77	2155.43
554.13	2161.38
554.48	2167.45
554.84	2172.91
555.19	2178.16
555.55	2183.26
555.90	2187.84
556.26	2192.82
556.61	2197.50
556.97	2201.99
557.32	2206.11
557.68	2210.13
558.03	2214.35
558.39	2218.03
558.74	2222.59
559.10	2226.54
559.45	2230.36
559.81	2234.47
560.16	2238.26
560.52	2241.55
560.87	2245.09
561.23	2247.86
561.58	2250.85
561.94	2253.42
562.29	2255.70
562.64	2258.67
563.00	2261.25
563.35	2264.79
563.71	2267.88
564.06	2271.05
564.42	2273.84
564.77	2276.54
565.12	2278.98
565.48	2280.87
565.83	2283.06
566.19	2284.55
566.54	2285.48
566.89	2286.72
567.25	2287.58
567.60	2288.83
567.96	2290.55
568.31	2291.35
568.66	2292.45
569.02	2293.01
569.37	2293.38
569.72	2294.37
570.08	2294.63
570.43	2294.77
570.78	2294.21
571.14	2292.68
571.49	2291.41
571.84	2291.26
572.20	2290.20
572.55	2289.15
572.90	2287.65
573.26	2286.30
573.61	2284.56
573.96	2282.98
574.31	2279.99
574.67	2277.12
575.02	2273.63
575.37	2270.21
575.72	2266.56
576.08	2263.23
576.43	2260.01
576.78	2256.47
577.13	2253.23
577.49	2249.93
577.84	2246.57
578.19	2242.84
578.54	2239.45
578.90	2235.57
579.25	2230.00
579.60	2225.07
579.95	2220.18
580.30	2215.18
580.66	2209.95
581.01	2205.11
581.36	2200.14
581.71	2196.11
582.06	2191.73
582.42	2187.25
582.77	2182.10
583.12	2177.68
583.47	2173.18
583.82	2168.47
584.17	2163.27
584.53	2157.94
584.88	2152.44
585.23	2146.80
585.58	2141.33
585.93	2135.85
586.28	2130.82
586.63	2125.94
586.98	2120.91
587.34	2116.25
587.69	2111.38
588.04	2106.22
588.39	2100.53
588.74	2094.06
589.09	2087.97
589.44	2081.29
589.79	2075.27
590.14	2069.64
590.49	2062.97
590.84	2056.44
591.19	2050.35
591.54	2043.87
591.89	2036.69
592.25	2030.08
592.60	2022.81
592.95	2015.43
593.30	2008.19
593.65	2000.76
594.00	1993.64
594.35	1986.49
594.70	1978.45
595.05	1971.51
595.40	1964.31
595.75	1956.99
596.10	1950.99
596.45	1944.31
596.80	1938.13
597.15	1931.60
597.50	1924.88
597.85	1918.47
598.19	1912.13
598.54	1905.25
598.89	1898.64
599.24	1892.68
599.59	1886.14
599.94	1879.95
600.29	1873.57
600.64	1866.86
600.99	1859.42
601.34	1852.59
601.69	1845.58
602.04	1838.82
602.39	1831.58
602.74	1824.78
603.08	1818.00
603.43	1811.38
603.78	1804.10
604.13	1796.91
604.48	1789.78
604.83	1782.81
605.18	1776.05
605.53	1767.85
605.87	1759.65
606.22	1752.30
606.57	1744.20
606.92	1736.59
607.27	1729.64
607.62	1722.79
607.96	1715.70
608.31	1709.33
608.66	1701.71
609.01	1694.30
609.36	1686.83
609.70	1678.68
610.05	1670.53
610.40	1662.91
610.75	1654.40
611.10	1646.73
611.44	1638.24
611.79	1630.21
612.14	1621.60
612.49	1612.41
612.83	1604.14
613.18	1596.02
613.53	1588.12
613.88	1579.83
614.22	1571.69
614.57	1562.82
614.92	1554.82
615.27	1547.44
615.61	1539.08
615.96	1531.16
616.31	1523.42
616.65	1516.04
617.00	1508.47
617.35	1500.80
617.70	1492.50
618.04	1484.16
618.39	1475.92
618.74	1468.50
619.08	1460.19
619.43	1452.51
619.78	1445.65
620.12	1438.52
620.47	1431.04
620.82	1422.78
621.16	1415.22
621.51	1407.65
621.85	1400.09
622.20	1391.63
622.55	1383.14
622.89	1375.36
623.24	1367.83
623.59	1360.42
623.93	1352.94
624.28	1345.74
624.62	1338.37
624.97	1331.32
625.32	1324.38
625.66	1317.31
626.01	1310.10
626.35	1302.67
626.70	1294.94
627.04	1287.13
627.39	1279.32
627.73	1271.94
628.08	1265.05
628.43	1257.99
628.77	1250.63
629.12	1243.21
629.46	1236.06
629.81	1228.47
630.15	1221.18
630.50	1213.71
630.84	1205.51
631.19	1197.48
631.53	1189.85
631.88	1182.22
632.22	1174.55
632.57	1167.22
632.91	1159.67
633.26	1152.30
633.60	1144.88
633.95	1137.70
634.29	1130.57
634.64	1123.96
634.98	1116.66
635.32	1109.54
635.67	1102.74
636.01	1096.05
636.36	1089.26
636.70	1082.73
637.05	1076.33
637.39	1069.88
637.73	1063.37
638.08	1057.56
638.42	1051.62
638.77	1045.20
639.11	1038.71
639.45	1032.32
639.80	1025.78
640.14	1019.52
640.49	1013.02
640.83	1006.74
641.17	1000.67
641.52	994.42
641.86	987.95
642.20	982.01
642.55	975.59
642.89	969.21
643.23	962.63
643.58	956.92
643.92	950.63
644.26	944.61
644.61	938.40
644.95	932.40
645.29	925.88
645.64	919.07
645.98	912.84
646.32	906.93
646.66	900.93
647.01	895.14
647.35	889.36
647.69	883.48
648.04	877.91
648.38	871.90
648.72	866.04
649.06	860.01
649.41	854.13
649.75	848.31
650.09	842.38
650.43	836.58
650.78	830.37
651.12	824.53
651.46	818.73
651.80	813.14
652.14	807.73
652.49	802.31
652.83	797.19
653.17	791.61
653.51	785.96
653.85	780.46
654.20	774.83
654.54	768.90
654.88	763.10
655.22	757.20
655.56	751.61
655.90	746.08
656.25	740.81
656.59	735.40
656.93	730.31
657.27	725.20
657.61	719.82
657.95	714.68
658.29	709.54
658.64	704.20
658.98	698.82
659.32	693.38
659.66	688.15
660.00	682.77
660.34	677.74
660.68	672.71
661.02	667.68
661.36	662.93
661.70	658.36
662.05	654.06
662.39	649.77
662.73	645.32
663.07	640.89
663.41	636.39
663.75	631.97
664.09	627.32
664.43	622.80
664.77	618.63
665.11	614.39
665.45	610.21
665.79	606.20
666.13	602.09
666.47	597.97
666.81	593.79
667.15	589.71
667.49	585.74
667.83	581.92
668.17	578.04
668.51	573.97
668.85	569.89
669.19	565.92
669.53	562.10
669.87	558.25
670.21	554.54
670.55	550.93
670.89	547.45
671.23	544.09
671.57	540.56
671.91	537.04
672.25	533.52
672.58	529.97
672.92	526.47
673.26	523.26
673.60	520.02
673.94	516.94
674.28	514.01
674.62	511.12
674.96	507.98
675.30	505.02
675.64	502.09
675.97	499.28
676.31	496.45
676.65	493.46
676.99	490.75
677.33	487.91
677.67	485.05
678.01	482.04
678.34	479.04
678.68	476.19
679.02	473.36
679.36	470.60
679.70	467.90
680.04	465.18
680.37	462.35
680.71	459.68
681.05	457.02
681.39	454.31
681.73	451.62
682.06	449.15
682.40	446.59
682.74	444.09
683.08	441.60
683.42	438.99
683.75	436.49
684.09	433.85
684.43	431.37
684.77	428.91
685.10	426.59
685.44	424.28
685.78	422.02
686.12	419.81
686.45	417.50
686.79	415.26
687.13	413.09
687.46	410.92
687.80	408.66
688.14	406.48
688.48	404.41
688.81	402.21
689.15	400.06
689.49	397.91
689.82	395.81
690.16	393.74
690.50	391.80
690.83	389.93
691.17	387.97
691.51	386.03
691.84	384.17
692.18	382.22
692.52	380.25
692.85	378.27
693.19	376.38
693.52	374.58
693.86	372.76
694.20	370.97
694.53	369.20
694.87	367.41
695.21	365.62
695.54	363.81
695.88	362.08
696.21	360.36
696.55	358.68
696.88	356.98
697.22	355.26
697.56	353.61
697.89	351.88
698.23	350.30
698.56	348.74
698.90	347.19
699.23	345.52
699.57	343.98
699.90	342.41
700.24	340.83
700.58	339.29
700.91	337.81
701.25	336.36
701.58	334.97
701.92	333.54
702.25	332.14
702.59	330.75
702.92	329.38
703.26	328.02
703.59	326.75
703.93	325.58
704.26	324.38
704.60	323.08
704.93	321.87
705.26	320.63
705.60	319.44
705.93	318.24
706.27	317.17
706.60	316.09
706.94	315.07
707.27	313.98
707.61	312.92
707.94	311.83
708.27	310.73
708.61	309.61
708.94	308.63
709.28	307.67
709.61	306.69
709.94	305.74
710.28	304.72
710.61	303.77
710.95	302.69
711.28	301.77
711.61	300.85
711.95	299.92
712.28	298.97
712.61	297.98
712.95	297.06
713.28	296.23
713.61	295.30
713.95	294.40
714.28	293.53
714.61	292.63
714.95	291.80
715.28	290.93
715.61	290.06
715.95	289.18
716.28	288.30
716.61	287.47
716.95	286.67
717.28	285.94
717.61	285.16
717.94	284.38
718.28	283.55
718.61	282.81
718.94	282.10
719.27	281.40
719.61	280.75
719.94	280.10
720.27	279.37
720.60	278.76
720.94	278.13
721.27	277.55
721.60	277.00
721.93	276.39
722.27	275.85
722.60	275.33
722.93	274.80
723.26	274.29
723.59	273.75
723.93	273.19
724.26	272.64
724.59	272.07
724.92	271.57
725.25	271.11
725.59	270.60
725.92	270.08
726.25	269.59
726.58	269.14
726.91	268.63
727.24	268.15
727.57	267.65
727.91	267.18
728.24	266.69
728.57	266.22
728.90	265.78
729.23	265.30
729.56	264.90
729.89	264.40
730.22	263.93
730.55	263.49
730.89	263.05
731.22	262.63
731.55	262.19
731.88	261.78
732.21	261.34
732.54	260.92
732.87	260.50
733.20	260.15
733.53	259.76
733.86	259.40
734.19	259.03
734.52	258.66
734.85	258.28
735.18	257.88
735.51	257.49
735.84	257.10
736.17	256.78
736.50	256.38
736.83	256.20
737.16	255.88
737.49	255.53
737.82	255.19
738.15	254.85
738.48	254.52
738.81	254.17
739.14	253.88
739.47	253.56
739.80	253.25
740.13	252.91
740.46	252.55
740.79	252.22
741.12	251.89
741.45	251.55
741.78	251.23
742.11	250.95
742.44	250.63
742.77	250.37
743.10	250.08
743.43	249.76
743.75	249.33
744.08	249.19
744.41	248.89
744.74	248.64
745.07	248.35
745.40	248.08
745.73	247.86
746.06	247.55
746.39	247.27
746.71	246.98
747.04	246.70
747.37	246.45
747.70	246.23
748.03	245.98
748.36	245.78
748.68	245.53
749.01	245.26
749.34	245.03
749.67	244.78
750.00	244.52
750.33	244.35
750.65	244.13
750.98	243.79
751.31	243.58
751.64	243.34
751.97	243.14
752.29	242.93
752.62	242.68
752.95	242.44
753.28	242.22
753.60	242.01
753.93	241.82
754.26	241.60
754.59	241.34
754.91	241.13
755.24	240.89
755.57	240.70
755.90	240.53
756.22	240.29
756.55	240.06
756.88	239.86
757.20	239.63
757.53	239.42
757.86	239.25
758.19	239.05
758.51	238.88
758.84	238.68
759.17	238.52
759.49	238.35
759.82	238.27
760.15	238.08
760.47	237.92
760.80	237.76
761.13	237.64
761.45	237.50
761.78	237.33
762.11	237.21
762.43	237.07
762.76	236.92
763.08	236.85
763.41	236.73
763.74	236.61
764.06	236.45
764.39	236.29
764.71	236.12
765.04	235.95
765.37	235.83
765.69	235.71
766.02	235.60
766.34	235.43
766.67	235.28
767.00	235.21
767.32	235.18
767.65	235.09
767.97	234.98
768.30	234.86
768.62	234.75
768.95	234.68
769.27	234.54
769.60	234.46
769.92	234.30
770.25	234.21
770.57	234.11
770.90	234.04
771.22	233.97
771.55	233.88
771.87	233.84
772.20	233.77
772.52	233.77
772.85	233.78
773.17	233.75
773.50	233.67
773.82	233.59
774.15	233.46
774.47	233.33
774.80	233.24
775.12	233.21
775.45	233.19
775.77	233.11
776.09	233.13
776.42	233.09
776.74	233.07
777.07	232.97
777.39	232.90
777.72	232.84
778.04	232.79
778.36	232.75
778.69	232.69
779.01	232.63
779.33	232.50
779.66	232.33
779.98	232.25
780.31	232.18
780.63	232.14
780.95	232.11
781.28	232.06
781.60	232.02
781.92	231.96
782.25	231.86
782.57	231.79
782.89	231.67
783.22	231.57
783.54	231.49
783.86	231.48
784.19	231.42
784.51	231.35
784.83	231.29
785.16	231.23
785.48	231.17
785.80	231.15
786.12	231.12
786.45	231.06
786.77	231.01
787.09	230.95
787.42	230.86
787.74	230.80
788.06	230.75
788.38	230.67
788.71	230.59
789.03	230.56
789.35	230.49
789.67	230.44
789.99	230.39
790.32	230.31
790.64	230.22
790.96	230.23
791.28	230.18
791.61	230.12
791.93	230.06
792.25	230.00
792.57	229.98
792.89	229.87
793.21	229.84
793.54	229.78
793.86	229.74
794.18	229.72
794.50	229.62
794.82	229.58
795.14	229.55
795.47	229.51
795.79	229.44
796.11	229.39
796.43	229.34
796.75	229.31
797.07	229.30
797.39	229.26
797.71	229.14
798.04	229.09
798.36	229.04
798.68	229.02
799.00	228.98
799.32	228.90
799.64	228.89
799.96	228.85
800.28	228.83
800.60	228.78
800.92	228.73
801.24	228.73
801.56	228.70
801.89	228.64
802.21	228.61
802.53	228.57
802.85	228.57
803.17	228.58
803.49	228.54
803.81	228.51
804.13	228.48
804.45	228.48
804.77	228.45
805.09	228.43
805.41	228.41
805.73	228.32
806.05	228.27
806.37	228.25
806.69	228.23
807.01	228.23
807.33	228.24
807.65	228.19
807.97	228.19
808.28	228.18
808.60	228.19
808.92	228.18
809.24	228.25
809.56	228.22
809.88	228.18
810.20	228.16
810.52	228.15
810.84	228.15
811.16	228.11
811.48	228.13
811.80	228.15
812.12	228.11
812.43	228.18
812.75	228.17
813.07	228.13
813.39	228.14
813.71	228.11
814.03	228.07
814.35	228.06
814.67	228.03
814.98	228.00
815.30	227.95
815.62	227.93
815.94	227.84
816.26	227.86
816.58	227.83
816.89	227.82
817.21	227.82
817.53	227.79
817.85	227.79
818.17	227.74
818.48	227.72
818.80	227.72
819.12	227.69
819.44	227.68
819.76	227.68
820.07	227.65
820.39	227.61
820.71	227.60
821.03	227.62
821.34	227.59
821.66	227.60
821.98	227.61
822.30	227.62
822.61	227.67
822.93	227.63
823.25	227.60
823.57	227.57
823.88	227.55
824.20	227.55
824.52	227.55
824.83	227.54
825.15	227.50
825.47	227.50
825.79	227.46
826.10	227.41
826.42	227.37
826.74	227.35
827.05	227.34
827.37	227.31
827.69	227.27
828.00	227.22
828.32	227.24
828.64	227.22
828.95	227.25
829.27	227.19
829.58	227.18
829.90	227.20
830.22	227.20
830.53	227.13
830.85	227.10
831.17	227.05
831.48	227.03
831.80	226.99
832.11	226.96
832.43	226.95
832.75	226.91
833.06	226.95
833.38	226.92
833.69	226.91
834.01	226.92
834.32	226.90
834.64	226.90
834.96	226.87
835.27	226.85
835.59	226.78
835.90	226.77
836.22	226.70
836.53	226.66
836.85	226.61
837.16	226.73
837.48	226.71
837.79	226.74
838.11	226.73
838.42	226.72
838.74	226.69
839.05	226.67
839.37	226.69
839.68	226.66
840.00	226.63
840.31	226.64
840.63	226.62
840.94	226.61
841.26	226.60
841.57	226.57
841.88	226.56
842.20	226.52
842.51	226.50
842.83	226.53
843.14	226.63
843.46	226.67
843.77	226.60
844.08	226.61
844.40	226.59
844.71	226.56
845.03	226.55
845.34	226.56
845.65	226.55
845.97	226.57
846.28	226.54
846.60	226.54
846.91	226.49
847.22	226.52
847.54	226.52
847.85	226.52
848.16	226.52
848.48	226.51
848.79	226.60
849.10	226.60
849.42	226.62
849.73	226.52
850.04	226.49
850.36	226.48
850.67	226.51
850.98	226.50
851.30	226.52
851.61	226.55
851.92	226.56
852.23	226.61
852.55	226.63
852.86	226.64
853.17	226.67
853.49	226.72
853.80	226.74
854.11	226.74
854.42	226.77
854.74	226.77
855.05	226.76
855.36	226.70
855.67	226.73
855.99	226.70
856.30	226.78
856.61	226.81
856.92	226.78
857.23	226.77
857.55	226.75
857.86	226.74
858.17	226.74
858.48	226.72
858.79	226.72
859.11	226.71
859.42	226.74
859.73	226.72
860.04	226.71
860.35	226.66
860.66	226.66
860.98	226.63
861.29	226.62
861.60	226.63
861.91	226.64
862.22	226.60
862.53	226.60
862.84	226.52
863.16	226.53
863.47	226.49
863.78	226.49
864.09	226.52
864.40	226.53
864.71	226.56
865.02	226.55
865.33	226.49
865.64	226.47
865.95	226.46
866.27	226.52
866.58	226.52
866.89	226.52
867.20	226.49
867.51	226.48
867.82	226.48
868.13	226.52
868.44	226.45
868.75	226.47
869.06	226.47
869.37	226.46
869.68	226.42
869.99	226.43
870.30	226.41
870.61	226.40
870.92	226.34
871.23	226.31
871.54	226.33
871.85	226.35
872.16	226.35
872.47	226.31
872.78	226.25
873.09	226.24
873.40	226.19
873.71	226.22
874.02	226.25
874.33	226.22
874.64	226.17
874.95	226.17
875.26	226.15
875.56	226.13
875.87	226.14
876.18	226.12
876.49	226.23
876.80	226.21
877.11	226.19
877.42	226.20
877.73	226.20
878.04	226.17
878.35	226.16
878.66	226.16
878.96	226.15
879.27	226.13
879.58	226.12
879.89	226.13
880.20	226.14
880.51	226.14
880.82	226.14
881.12	226.14
881.43	226.15
881.74	226.13
882.05	226.10
882.36	226.09
882.67	226.07
882.97	225.97
883.28	225.98
883.59	225.99
883.90	225.97
884.21	226.00
884.51	225.99
884.82	225.98
885.13	225.96
885.44	225.96
885.74	225.99
886.05	226.02
886.36	226.05
886.67	226.00
886.98	226.02
887.28	226.03
887.59	226.01
887.90	226.01
888.20	226.04
888.51	226.11
888.82	226.11
889.13	226.15
889.43	226.22
889.74	226.19
890.05	226.18
890.35	226.18
890.66	226.18
890.97	226.20
891.28	226.18
891.58	226.19
891.89	226.22
892.20	226.22
892.50	226.20
892.81	226.20
893.12	226.21
893.42	226.17
893.73	226.17
894.04	226.21
894.34	226.24
894.65	226.25
894.95	226.21
895.26	226.22
895.57	226.24
895.87	226.16
896.18	226.21
896.48	226.23
896.79	226.25
897.10	226.25
897.40	226.26
897.71	226.29
898.01	226.29
898.32	226.26
898.63	226.21
898.93	226.20
899.24	226.19
899.54	226.18
899.85	226.17
900.15	226.15
900.46	226.13
900.76	226.11
901.07	226.07
901.38	226.09
901.68	226.09
901.99	226.03
902.29	226.06
902.60	226.05
902.90	226.03
903.21	225.97
903.51	225.96
903.82	225.97
904.12	225.96
904.43	225.94
904.73	225.95
905.03	225.97
905.34	226.07
905.64	226.06
905.95	226.06
906.25	226.07
906.56	226.09
906.86	226.10
907.17	226.10
907.47	226.11
907.77	226.07
908.08	226.04
908.38	226.05
908.69	226.03
908.99	226.06
909.30	226.06
909.60	226.09
909.90	226.11
910.21	226.06
910.51	226.04
910.81	226.02
911.12	226.02
911.42	225.98
911.73	225.87
912.03	225.88
912.33	225.89
912.64	225.88
912.94	225.83
913.24	225.79
913.55	225.77
913.85	225.75
914.15	225.75
914.46	225.77
914.76	225.78
915.06	225.76
915.37	225.71
915.67	225.71
915.97	225.69
916.27	225.64
916.58	225.65
916.88	225.61
917.18	225.66
917.49	225.73
917.79	225.77
918.09	225.79
918.39	225.81
918.70	225.80
919.00	225.80
919.30	225.85
919.60	225.87
919.91	225.83
920.21	225.83
920.51	225.84
920.81	225.83
921.12	225.86
921.42	225.85
921.72	225.89
922.02	225.86
922.32	225.89
922.63	225.89
922.93	225.94
923.23	225.96
923.53	225.93
923.83	225.89
924.13	225.91
924.44	225.91
924.74	225.92
925.04	225.95
925.34	225.93
925.64	225.90
925.94	225.89
926.24	226.00
926.55	225.99
926.85	226.01
927.15	226.00
927.45	226.00
927.75	226.00
928.05	225.98
928.35	225.99
928.65	226.03
928.95	226.06
929.26	226.01
929.56	226.05
929.86	226.05
930.16	226.04
930.46	226.01
930.76	226.01
931.06	225.95
931.36	225.93
931.66	225.94
931.96	225.95
932.26	225.94
932.56	225.87
932.86	225.88
933.16	225.87
933.46	225.84
933.76	225.80
934.06	225.83
934.36	225.87
934.66	225.86
934.96	225.81
935.26	225.79
935.56	225.79
935.86	225.74
936.16	225.74
936.46	225.73
936.76	225.71
937.06	225.71
937.36	225.72
937.66	225.69
937.96	225.69
938.26	225.64
938.56	225.64
938.86	225.64
939.16	225.66
939.46	225.69
939.76	225.73
940.06	225.75
940.35	225.72
940.65	225.66
940.95	225.68
941.25	225.70
941.55	225.70
941.85	225.70
942.15	225.68
942.45	225.69
942.75	225.64
943.04	225.64
943.34	225.61
943.64	225.59
943.94	225.59
944.24	225.58
944.54	225.60
944.84	225.63
945.13	225.59
945.43	225.57
945.73	225.54
946.03	225.51
946.33	225.48
946.62	225.43
946.92	225.43
947.22	225.43
947.52	225.38
947.82	225.38
948.11	225.37
948.41	225.40
948.71	225.36
949.01	225.40
949.31	225.41
949.60	225.40
949.90	225.41
950.20	225.41
950.50	225.40
950.79	225.38
951.09	225.36
951.39	225.35
951.69	225.32
951.98	225.33
952.28	225.34
952.58	225.34
952.87	225.36
953.17	225.36
953.47	225.33
953.76	225.36
954.06	225.35
954.36	225.34
954.66	225.35
954.95	225.41
955.25	225.41
955.55	225.45
955.84	225.44
956.14	225.47
956.44	225.49
956.73	225.49
957.03	225.51
957.32	225.53
957.62	225.56
957.92	225.62
958.21	225.63
958.51	225.73
958.81	225.73
959.10	225.78
959.40	225.81
959.69	225.85
959.99	225.87
960.29	225.89
960.58	225.90
960.88	225.90
961.17	225.90
961.47	225.89
961.76	225.87
962.06	225.91
962.36	225.93
962.65	225.95
962.95	225.98
963.24	225.97
963.54	225.97
963.83	226.00
964.13	226.01
964.42	225.97
964.72	225.91
965.01	225.94
965.31	225.95
965.60	225.91
965.90	225.98
966.19	225.99
966.49	226.01
966.78	226.02
967.08	226.04
967.37	226.03
967.67	226.05
967.96	226.08
968.26	226.09
968.55	226.09
968.85	226.08
969.14	226.07
969.43	226.09
969.73	226.13
970.02	226.10
970.32	226.06
970.61	226.07
970.91	226.02
971.20	226.00
971.49	225.99
971.79	226.00
972.08	225.93
972.38	225.92
972.67	225.90
972.96	225.90
973.26	225.88
973.55	225.88
973.85	225.86
974.14	225.82
974.43	225.80
974.73	225.78
975.02	225.78
975.31	225.75
975.61	225.73
975.90	225.68
976.19	225.67
976.49	225.70
976.78	225.69
977.07	225.68
977.37	225.70
977.66	225.70
977.95	225.69
978.24	225.67
978.54	225.66
978.83	225.65
979.12	225.64
979.42	225.59
979.71	225.57
980.00	225.55
980.29	225.55
980.59	225.51
980.88	225.50
981.17	225.46
981.46	225.47
981.76	225.47
982.05	225.48
982.34	225.49
982.63	225.47
982.93	225.48
983.22	225.49
983.51	225.46
983.80	225.44
984.09	225.46
984.39	225.44
984.68	225.42
984.97	225.39
985.26	225.39
985.55	225.42
985.85	225.42
986.14	225.41
986.43	225.44
986.72	225.47
987.01	225.44
987.30	225.46
987.59	225.49
987.89	225.47
988.18	225.45
988.47	225.42
988.76	225.40
989.05	225.36
989.34	225.33
989.63	225.35
989.92	225.36
990.22	225.34
990.51	225.35
990.80	225.33
991.09	225.37
991.38	225.39
991.67	225.38
991.96	225.37
992.25	225.39
992.54	225.35
992.83	225.35
993.12	225.36
993.41	225.36
993.70	225.41
993.99	225.43
994.28	225.46
994.58	225.48
994.87	225.50
995.16	225.52
995.45	225.54
995.74	225.52
996.03	225.53
996.32	225.58
996.61	225.63
996.90	225.67
997.19	225.65
997.48	225.66
997.77	225.64
998.06	225.64
998.34	225.65
998.63	225.68
998.92	225.71
999.21	225.73
999.50	225.76
999.79	225.72
1000.08	225.75
1000.37	225.76
1000.66	225.77
1000.95	225.83
1001.24	225.88
1001.53	225.94
1001.82	225.97
1002.11	225.96
1002.40	225.97
1002.68	225.99
1002.97	226.04
1003.26	226.06
1003.55	226.07
1003.84	226.10
1004.13	226.13
1004.42	226.14
1004.71	226.13
1004.99	226.14
1005.28	226.17
1005.57	226.16
1005.86	226.14
1006.15	226.12
1006.44	226.12
1006.72	226.16
1007.01	226.13
1007.30	226.11
1007.59	226.08
1007.88	226.05
1008.17	226.06
1008.45	226.04
1008.74	225.98
1009.03	225.94
1009.32	225.94
1009.60	225.93
1009.89	225.90
1010.18	225.88
1010.47	225.89
1010.76	225.88
1011.04	225.86
1011.33	225.83
1011.62	225.86
1011.91	225.85
1012.19	225.87
1012.48	225.86
1012.77	225.82
1013.05	225.87
1013.34	225.87
1013.63	225.84
1013.92	225.86
1014.20	225.83
1014.49	225.83
1014.78	225.84
1015.06	225.82
1015.35	225.80
1015.64	225.81
1015.92	225.83
1016.21	225.82
1016.50	225.78
1016.78	225.79
1017.07	225.76
1017.36	225.72
1017.64	225.66
1017.93	225.68
1018.22	225.65
1018.50	225.64
1018.79	225.63
1019.08	225.56
1019.36	225.52
1019.65	225.52
1019.93	225.52
1020.22	225.53
1020.51	225.58
1020.79	225.56
1021.08	225.54
1021.36	225.34
1021.65	225.56
1021.94	225.41
1022.22	225.41
1022.51	225.58
1022.79	225.70
1023.08	225.60
1023.36	226.85
1023.65	225.33
>>>>>End Processed Spectral Data<<<<<
