SpectraSuite Data File
++++++++++++++++++++++++++++++++++++
Date: Fri Feb 01 16:27:54 EST 2013
User: group
Dark Spectrum Present: No
Reference Spectrum Present: No
Number of Sampled Component Spectra: 1
Spectrometers: USB2E7196
Integration Time (usec): 35000 (USB2E7196)
Spectra Averaged: 100 (USB2E7196)
Boxcar Smoothing: 10 (USB2E7196)
Correct for Electrical Dark: No (USB2E7196)
Strobe/Lamp Enabled: No (USB2E7196)
Correct for Detector Non-linearity: No (USB2E7196)
Correct for Stray Light: No (USB2E7196)
Number of Pixels in Processed Spectrum: 2048
>>>>>Begin Processed Spectral Data<<<<<
339.09	0.00
339.48	213.73
339.86	215.75
340.24	217.05
340.63	218.05
341.01	221.07
341.39	220.70
341.78	221.62
342.16	224.01
342.54	223.77
342.93	212.47
343.31	223.20
343.69	223.78
344.07	224.24
344.46	224.68
344.84	225.09
345.22	225.31
345.60	225.57
345.99	225.84
346.37	225.95
346.75	226.07
347.13	226.12
347.52	226.16
347.90	226.20
348.28	226.22
348.66	226.27
349.05	226.27
349.43	226.30
349.81	226.33
350.19	226.34
350.57	226.40
350.96	226.47
351.34	226.55
351.72	226.61
352.10	226.71
352.48	226.78
352.87	226.84
353.25	226.92
353.63	226.97
354.01	227.02
354.39	227.09
354.77	227.15
355.15	227.31
355.54	227.39
355.92	227.44
356.30	227.51
356.68	227.65
357.06	227.73
357.44	227.80
357.82	227.87
358.20	227.97
358.58	228.04
358.97	228.08
359.35	228.16
359.73	228.22
360.11	228.25
360.49	228.28
360.87	228.32
361.25	228.37
361.63	228.48
362.01	228.47
362.39	228.52
362.77	228.56
363.15	228.56
363.53	228.59
363.91	228.60
364.29	228.62
364.67	228.54
365.05	228.52
365.43	228.52
365.81	228.54
366.19	228.55
366.57	228.58
366.95	228.60
367.33	228.55
367.71	228.56
368.09	228.57
368.47	228.54
368.85	228.51
369.23	228.49
369.61	228.40
369.99	228.41
370.37	228.39
370.75	228.42
371.13	228.38
371.51	228.34
371.89	228.32
372.27	228.30
372.65	228.26
373.03	228.21
373.41	228.16
373.78	228.11
374.16	228.01
374.54	227.90
374.92	227.82
375.30	227.78
375.68	227.68
376.06	227.64
376.44	227.57
376.82	227.50
377.19	227.45
377.57	227.40
377.95	227.31
378.33	227.23
378.71	227.10
379.09	227.01
379.47	226.92
379.84	226.84
380.22	226.76
380.60	226.66
380.98	226.62
381.36	226.54
381.73	226.45
382.11	226.42
382.49	226.37
382.87	226.30
383.25	226.22
383.62	226.27
384.00	226.16
384.38	226.10
384.76	226.05
385.13	226.04
385.51	226.00
385.89	225.92
386.27	225.87
386.64	225.84
387.02	225.81
387.40	225.77
387.78	225.74
388.15	225.72
388.53	225.68
388.91	225.64
389.29	225.60
389.66	225.57
390.04	225.53
390.42	225.55
390.79	225.52
391.17	225.52
391.55	225.41
391.92	225.42
392.30	225.40
392.68	225.38
393.05	225.39
393.43	225.38
393.81	225.40
394.18	225.39
394.56	225.41
394.94	225.43
395.31	225.43
395.69	225.45
396.06	225.45
396.44	225.49
396.82	225.54
397.19	225.61
397.57	225.68
397.95	225.72
398.32	225.74
398.70	225.79
399.07	225.85
399.45	225.92
399.82	226.00
400.20	226.10
400.58	226.18
400.95	226.15
401.33	226.26
401.70	226.40
402.08	226.49
402.45	226.55
402.83	226.65
403.20	226.77
403.58	226.87
403.95	226.99
404.33	227.10
404.71	227.21
405.08	227.38
405.46	227.50
405.83	227.65
406.21	227.81
406.58	227.98
406.96	228.15
407.33	228.29
407.70	228.46
408.08	228.73
408.45	228.95
408.83	229.21
409.20	229.40
409.58	229.54
409.95	229.81
410.33	230.09
410.70	230.32
411.08	230.59
411.45	230.90
411.82	231.19
412.20	231.55
412.57	231.93
412.95	232.26
413.32	232.67
413.69	233.08
414.07	233.52
414.44	234.02
414.82	234.47
415.19	235.04
415.56	235.60
415.94	236.13
416.31	236.77
416.68	237.38
417.06	238.13
417.43	238.85
417.81	239.62
418.18	240.41
418.55	241.26
418.93	242.16
419.30	243.05
419.67	244.02
420.04	244.98
420.42	245.99
420.79	247.16
421.16	248.33
421.54	249.53
421.91	250.70
422.28	251.93
422.66	253.28
423.03	254.63
423.40	255.96
423.77	257.36
424.15	258.78
424.52	260.29
424.89	261.85
425.26	263.38
425.64	264.80
426.01	266.39
426.38	268.03
426.75	269.70
427.13	271.41
427.50	273.19
427.87	275.10
428.24	276.93
428.61	278.66
428.99	280.60
429.36	282.68
429.73	284.75
430.10	286.77
430.47	288.85
430.85	290.95
431.22	293.21
431.59	295.57
431.96	297.83
432.33	300.30
432.70	302.68
433.08	305.51
433.45	308.17
433.82	310.78
434.19	313.67
434.56	316.46
434.93	319.13
435.30	321.75
435.68	324.59
436.05	327.45
436.42	330.23
436.79	332.72
437.16	335.42
437.53	338.26
437.90	341.03
438.27	343.70
438.64	346.45
439.01	348.98
439.38	351.21
439.75	353.35
440.13	355.85
440.50	358.17
440.87	359.99
441.24	361.91
441.61	364.03
441.98	365.52
442.35	367.35
442.72	369.20
443.09	370.99
443.46	372.00
443.83	372.56
444.20	373.14
444.57	373.95
444.94	374.29
445.31	374.65
445.68	374.99
446.05	375.11
446.42	374.74
446.79	374.33
447.16	373.87
447.53	373.55
447.90	372.31
448.27	371.17
448.64	369.60
449.01	368.46
449.37	366.52
449.74	364.61
450.11	362.34
450.48	359.86
450.85	357.32
451.22	355.19
451.59	353.20
451.96	351.17
452.33	348.62
452.70	346.21
453.07	343.41
453.43	340.56
453.80	337.81
454.17	335.16
454.54	332.65
454.91	329.95
455.28	327.27
455.65	324.88
456.02	322.45
456.38	320.30
456.75	317.65
457.12	315.40
457.49	313.20
457.86	311.05
458.23	309.21
458.59	307.21
458.96	305.13
459.33	303.29
459.70	301.45
460.07	299.92
460.43	298.22
460.80	296.56
461.17	295.13
461.54	293.62
461.91	292.22
462.27	290.76
462.64	289.54
463.01	288.18
463.38	286.88
463.74	285.52
464.11	284.36
464.48	283.37
464.85	282.27
465.21	281.41
465.58	280.48
465.95	279.39
466.32	278.46
466.68	277.58
467.05	276.66
467.42	275.78
467.78	274.86
468.15	274.02
468.52	273.38
468.88	272.50
469.25	271.78
469.62	271.17
469.98	270.53
470.35	269.89
470.72	269.33
471.08	268.67
471.45	268.15
471.82	267.63
472.18	267.03
472.55	266.64
472.92	266.12
473.28	265.68
473.65	265.25
474.02	264.81
474.38	264.43
474.75	264.16
475.11	263.81
475.48	263.54
475.85	263.28
476.21	263.08
476.58	262.94
476.94	262.81
477.31	262.64
477.67	262.49
478.04	262.42
478.41	262.39
478.77	262.44
479.14	262.40
479.50	262.43
479.87	262.53
480.23	262.60
480.60	262.69
480.96	262.78
481.33	263.01
481.69	263.25
482.06	263.45
482.42	263.66
482.79	263.94
483.15	264.29
483.52	264.65
483.88	264.99
484.25	265.37
484.61	265.78
484.98	266.21
485.34	266.81
485.71	267.39
486.07	268.00
486.44	268.56
486.80	269.23
487.17	269.97
487.53	270.77
487.90	271.66
488.26	272.58
488.62	273.59
488.99	274.54
489.35	275.58
489.72	276.73
490.08	277.92
490.44	279.17
490.81	280.52
491.17	281.89
491.54	283.38
491.90	284.90
492.26	286.53
492.63	288.29
492.99	290.01
493.36	291.89
493.72	293.93
494.08	296.03
494.45	298.33
494.81	300.71
495.17	303.16
495.54	305.67
495.90	308.36
496.26	311.18
496.63	314.17
496.99	317.29
497.35	320.57
497.72	323.96
498.08	327.46
498.44	331.14
498.80	335.06
499.17	339.10
499.53	343.32
499.89	347.70
500.26	352.16
500.62	356.85
500.98	361.82
501.34	366.85
501.71	372.17
502.07	377.58
502.43	383.18
502.79	389.00
503.16	395.08
503.52	401.34
503.88	407.71
504.24	414.33
504.60	421.24
504.97	428.35
505.33	435.67
505.69	443.37
506.05	451.15
506.41	459.07
506.78	467.17
507.14	475.64
507.50	484.36
507.86	493.39
508.22	502.61
508.59	511.79
508.95	521.38
509.31	531.22
509.67	541.30
510.03	551.60
510.39	562.08
510.75	572.83
511.12	583.72
511.48	595.03
511.84	606.50
512.20	617.98
512.56	629.95
512.92	642.22
513.28	654.63
513.64	667.13
514.00	679.82
514.37	692.77
514.73	705.78
515.09	718.80
515.45	732.11
515.81	745.67
516.17	759.76
516.53	773.88
516.89	788.07
517.25	802.23
517.61	816.56
517.97	831.06
518.33	845.52
518.69	860.28
519.05	875.22
519.41	890.28
519.77	905.84
520.13	921.18
520.49	936.40
520.85	951.70
521.21	967.30
521.57	983.50
521.93	999.19
522.29	1015.47
522.65	1031.68
523.01	1047.79
523.37	1063.72
523.73	1079.71
524.09	1095.70
524.45	1111.89
524.81	1128.45
525.17	1145.24
525.53	1162.16
525.89	1178.95
526.25	1195.68
526.61	1212.09
526.97	1228.81
527.33	1245.15
527.68	1261.66
528.04	1278.07
528.40	1294.61
528.76	1311.58
529.12	1328.10
529.48	1344.99
529.84	1360.85
530.20	1377.51
530.56	1394.51
530.91	1411.83
531.27	1428.47
531.63	1444.88
531.99	1461.39
532.35	1477.20
532.71	1492.97
533.07	1508.91
533.42	1524.70
533.78	1540.67
534.14	1556.75
534.50	1572.05
534.86	1587.86
535.21	1602.98
535.57	1618.86
535.93	1634.43
536.29	1649.16
536.65	1664.01
537.00	1678.57
537.36	1693.90
537.72	1708.16
538.08	1722.41
538.44	1736.30
538.79	1750.09
539.15	1763.62
539.51	1777.22
539.87	1791.47
540.22	1805.20
540.58	1818.97
540.94	1832.29
541.29	1845.16
541.65	1857.80
542.01	1870.88
542.37	1882.91
542.72	1895.20
543.08	1906.98
543.44	1919.13
543.79	1930.28
544.15	1941.20
544.51	1952.66
544.87	1963.62
545.22	1974.30
545.58	1984.41
545.94	1993.79
546.29	2003.66
546.65	2013.46
547.01	2022.60
547.36	2031.21
547.72	2039.57
548.07	2047.40
548.43	2055.46
548.79	2063.39
549.14	2070.82
549.50	2078.12
549.86	2085.86
550.21	2093.22
550.57	2100.22
550.92	2106.55
551.28	2113.47
551.64	2120.54
551.99	2127.02
552.35	2133.10
552.70	2139.28
553.06	2145.29
553.41	2151.75
553.77	2157.75
554.13	2163.87
554.48	2170.11
554.84	2175.71
555.19	2180.85
555.55	2186.02
555.90	2190.40
556.26	2195.21
556.61	2199.90
556.97	2204.08
557.32	2208.19
557.68	2212.29
558.03	2216.56
558.39	2220.48
558.74	2225.23
559.10	2228.99
559.45	2232.79
559.81	2237.07
560.16	2240.89
560.52	2244.11
560.87	2247.44
561.23	2249.98
561.58	2253.01
561.94	2255.39
562.29	2257.68
562.64	2260.53
563.00	2263.14
563.35	2266.70
563.71	2269.89
564.06	2273.22
564.42	2276.21
564.77	2278.82
565.12	2281.16
565.48	2283.20
565.83	2285.04
566.19	2286.25
566.54	2287.23
566.89	2288.28
567.25	2288.92
567.60	2290.33
567.96	2292.13
568.31	2293.07
568.66	2294.39
569.02	2294.77
569.37	2295.24
569.72	2296.30
570.08	2296.41
570.43	2296.53
570.78	2295.98
571.14	2294.50
571.49	2293.11
571.84	2292.78
572.20	2291.81
572.55	2290.86
572.90	2289.27
573.26	2287.88
573.61	2286.32
573.96	2284.69
574.31	2281.82
574.67	2279.06
575.02	2275.49
575.37	2271.95
575.72	2268.22
576.08	2265.00
576.43	2261.85
576.78	2258.21
577.13	2254.92
577.49	2251.83
577.84	2248.27
578.19	2244.64
578.54	2241.14
578.90	2236.96
579.25	2231.49
579.60	2226.27
579.95	2221.23
580.30	2216.39
580.66	2211.32
581.01	2206.48
581.36	2201.64
581.71	2197.57
582.06	2192.97
582.42	2188.56
582.77	2183.51
583.12	2179.05
583.47	2174.32
583.82	2169.41
584.17	2164.32
584.53	2158.88
584.88	2153.35
585.23	2147.73
585.58	2142.27
585.93	2136.80
586.28	2132.11
586.63	2127.18
586.98	2122.36
587.34	2117.79
587.69	2112.81
588.04	2107.59
588.39	2102.02
588.74	2095.53
589.09	2089.44
589.44	2082.72
589.79	2076.77
590.14	2071.45
590.49	2064.96
590.84	2058.61
591.19	2052.66
591.54	2046.31
591.89	2039.08
592.25	2032.31
592.60	2024.99
592.95	2017.44
593.30	2010.16
593.65	2002.64
594.00	1995.57
594.35	1988.35
594.70	1980.34
595.05	1973.27
595.40	1966.05
595.75	1958.47
596.10	1952.35
596.45	1945.60
596.80	1939.46
597.15	1932.89
597.50	1925.60
597.85	1919.10
598.19	1912.38
598.54	1905.17
598.89	1898.43
599.24	1892.64
599.59	1886.05
599.94	1880.00
600.29	1873.72
600.64	1867.20
600.99	1859.80
601.34	1852.97
601.69	1846.03
602.04	1839.15
602.39	1831.84
602.74	1825.07
603.08	1818.46
603.43	1811.79
603.78	1804.52
604.13	1797.37
604.48	1790.03
604.83	1783.22
605.18	1776.36
605.53	1768.50
605.87	1760.55
606.22	1753.43
606.57	1745.36
606.92	1738.10
607.27	1730.97
607.62	1724.14
607.96	1716.89
608.31	1710.27
608.66	1702.80
609.01	1695.33
609.36	1687.78
609.70	1679.68
610.05	1671.68
610.40	1663.94
610.75	1655.64
611.10	1647.99
611.44	1639.50
611.79	1631.73
612.14	1623.20
612.49	1614.01
612.83	1605.60
613.18	1597.49
613.53	1589.30
613.88	1580.83
614.22	1572.50
614.57	1563.88
614.92	1555.80
615.27	1548.23
615.61	1539.91
615.96	1531.72
616.31	1524.15
616.65	1516.88
617.00	1509.33
617.35	1501.66
617.70	1493.32
618.04	1484.78
618.39	1476.59
618.74	1469.10
619.08	1460.64
619.43	1452.92
619.78	1446.00
620.12	1438.83
620.47	1431.41
620.82	1423.24
621.16	1415.85
621.51	1408.22
621.85	1400.59
622.20	1392.15
622.55	1383.82
622.89	1376.00
623.24	1368.53
623.59	1361.01
623.93	1353.29
624.28	1346.17
624.62	1338.55
624.97	1331.44
625.32	1324.69
625.66	1317.76
626.01	1310.60
626.35	1303.11
626.70	1295.36
627.04	1287.66
627.39	1279.93
627.73	1272.49
628.08	1265.62
628.43	1258.34
628.77	1251.02
629.12	1243.57
629.46	1236.47
629.81	1229.02
630.15	1221.75
630.50	1214.32
630.84	1206.08
631.19	1198.28
631.53	1190.71
631.88	1183.17
632.22	1175.46
632.57	1168.15
632.91	1160.53
633.26	1153.02
633.60	1145.70
633.95	1138.55
634.29	1131.55
634.64	1124.90
634.98	1117.49
635.32	1110.24
635.67	1103.62
636.01	1096.97
636.36	1090.05
636.70	1083.39
637.05	1076.78
637.39	1070.37
637.73	1063.78
638.08	1057.97
638.42	1051.86
638.77	1045.41
639.11	1038.85
639.45	1032.45
639.80	1025.77
640.14	1019.36
640.49	1012.81
640.83	1006.48
641.17	1000.27
641.52	993.87
641.86	987.32
642.20	981.54
642.55	975.38
642.89	968.82
643.23	962.29
643.58	956.59
643.92	950.38
644.26	944.31
644.61	938.31
644.95	932.36
645.29	925.76
645.64	919.13
645.98	912.78
646.32	906.92
646.66	900.87
647.01	895.04
647.35	889.29
647.69	883.52
648.04	878.00
648.38	872.19
648.72	866.24
649.06	860.19
649.41	854.22
649.75	848.15
650.09	842.23
650.43	836.48
650.78	830.31
651.12	824.41
651.46	818.65
651.80	812.87
652.14	807.47
652.49	802.10
652.83	796.91
653.17	791.28
653.51	785.58
653.85	780.20
654.20	774.65
654.54	768.73
654.88	762.96
655.22	757.07
655.56	751.50
655.90	746.05
656.25	740.84
656.59	735.47
656.93	730.40
657.27	725.29
657.61	719.81
657.95	714.71
658.29	709.59
658.64	704.36
658.98	699.09
659.32	693.59
659.66	688.36
660.00	683.06
660.34	678.05
660.68	673.18
661.02	668.10
661.36	663.35
661.70	658.78
662.05	654.44
662.39	650.13
662.73	645.63
663.07	641.24
663.41	636.74
663.75	632.25
664.09	627.65
664.43	623.26
664.77	619.13
665.11	614.90
665.45	610.79
665.79	606.75
666.13	602.57
666.47	598.51
666.81	594.37
667.15	590.24
667.49	586.40
667.83	582.58
668.17	578.73
668.51	574.66
668.85	570.60
669.19	566.85
669.53	562.95
669.87	559.04
670.21	555.32
670.55	551.70
670.89	548.30
671.23	544.91
671.57	541.38
671.91	537.83
672.25	534.25
672.58	530.73
672.92	527.23
673.26	524.06
673.60	520.87
673.94	517.74
674.28	514.83
674.62	511.82
674.96	508.66
675.30	505.76
675.64	502.77
675.97	500.03
676.31	497.03
676.65	494.14
676.99	491.44
677.33	488.52
677.67	485.73
678.01	482.69
678.34	479.76
678.68	476.86
679.02	474.08
679.36	471.35
679.70	468.61
680.04	465.95
680.37	463.03
680.71	460.20
681.05	457.53
681.39	454.78
681.73	452.10
682.06	449.60
682.40	447.03
682.74	444.55
683.08	441.98
683.42	439.42
683.75	436.93
684.09	434.35
684.43	431.89
684.77	429.43
685.10	427.06
685.44	424.72
685.78	422.42
686.12	420.16
686.45	417.88
686.79	415.56
687.13	413.32
687.46	411.19
687.80	409.08
688.14	406.88
688.48	404.82
688.81	402.59
689.15	400.40
689.49	398.27
689.82	396.17
690.16	394.11
690.50	392.18
690.83	390.21
691.17	388.22
691.51	386.37
691.84	384.51
692.18	382.58
692.52	380.60
692.85	378.66
693.19	376.74
693.52	374.90
693.86	373.08
694.20	371.32
694.53	369.53
694.87	367.69
695.21	365.92
695.54	364.09
695.88	362.38
696.21	360.70
696.55	358.95
696.88	357.25
697.22	355.53
697.56	353.88
697.89	352.25
698.23	350.65
698.56	348.98
698.90	347.38
699.23	345.73
699.57	344.16
699.90	342.66
700.24	341.16
700.58	339.63
700.91	338.11
701.25	336.64
701.58	335.27
701.92	333.89
702.25	332.50
702.59	331.14
702.92	329.81
703.26	328.50
703.59	327.23
703.93	326.05
704.26	324.85
704.60	323.54
704.93	322.26
705.26	320.97
705.60	319.81
705.93	318.61
706.27	317.55
706.60	316.50
706.94	315.40
707.27	314.23
707.61	313.13
707.94	312.12
708.27	311.01
708.61	309.86
708.94	308.85
709.28	307.87
709.61	306.90
709.94	305.91
710.28	304.85
710.61	303.92
710.95	302.85
711.28	301.92
711.61	300.96
711.95	300.01
712.28	299.09
712.61	298.10
712.95	297.15
713.28	296.28
713.61	295.34
713.95	294.44
714.28	293.58
714.61	292.74
714.95	291.91
715.28	291.10
715.61	290.26
715.95	289.41
716.28	288.58
716.61	287.76
716.95	286.96
717.28	286.23
717.61	285.43
717.94	284.68
718.28	283.87
718.61	283.14
718.94	282.52
719.27	281.87
719.61	281.26
719.94	280.63
720.27	279.93
720.60	279.31
720.94	278.69
721.27	278.09
721.60	277.51
721.93	276.89
722.27	276.29
722.60	275.78
722.93	275.21
723.26	274.58
723.59	274.02
723.93	273.50
724.26	272.91
724.59	272.36
724.92	271.84
725.25	271.37
725.59	270.86
725.92	270.26
726.25	269.75
726.58	269.26
726.91	268.77
727.24	268.33
727.57	267.84
727.91	267.35
728.24	266.88
728.57	266.37
728.90	265.91
729.23	265.42
729.56	264.91
729.89	264.43
730.22	263.97
730.55	263.50
730.89	263.01
731.22	262.57
731.55	262.11
731.88	261.70
732.21	261.21
732.54	260.76
732.87	260.39
733.20	259.99
733.53	259.56
733.86	259.20
734.19	258.77
734.52	258.39
734.85	258.05
735.18	257.63
735.51	257.30
735.84	256.94
736.17	256.62
736.50	256.28
736.83	256.04
737.16	255.77
737.49	255.44
737.82	255.10
738.15	254.82
738.48	254.52
738.81	254.15
739.14	253.84
739.47	253.54
739.80	253.22
740.13	252.91
740.46	252.57
740.79	252.22
741.12	251.93
741.45	251.65
741.78	251.29
742.11	251.02
742.44	250.71
742.77	250.43
743.10	250.13
743.43	249.83
743.75	249.44
744.08	249.27
744.41	248.97
744.74	248.73
745.07	248.41
745.40	248.15
745.73	247.93
746.06	247.66
746.39	247.39
746.71	247.10
747.04	246.82
747.37	246.58
747.70	246.36
748.03	246.10
748.36	245.87
748.68	245.64
749.01	245.41
749.34	245.18
749.67	244.94
750.00	244.70
750.33	244.55
750.65	244.35
750.98	243.99
751.31	243.82
751.64	243.60
751.97	243.45
752.29	243.26
752.62	243.03
752.95	242.82
753.28	242.61
753.60	242.43
753.93	242.26
754.26	242.09
754.59	241.82
754.91	241.61
755.24	241.40
755.57	241.20
755.90	241.03
756.22	240.82
756.55	240.61
756.88	240.43
757.20	240.17
757.53	239.97
757.86	239.81
758.19	239.67
758.51	239.48
758.84	239.31
759.17	239.14
759.49	238.97
759.82	238.87
760.15	238.75
760.47	238.59
760.80	238.42
761.13	238.28
761.45	238.12
761.78	238.01
762.11	237.88
762.43	237.72
762.76	237.53
763.08	237.43
763.41	237.31
763.74	237.17
764.06	237.02
764.39	236.89
764.71	236.76
765.04	236.60
765.37	236.48
765.69	236.34
766.02	236.19
766.34	236.06
766.67	235.90
767.00	235.81
767.32	235.75
767.65	235.67
767.97	235.56
768.30	235.50
768.62	235.38
768.95	235.24
769.27	235.17
769.60	235.10
769.92	234.95
770.25	234.84
770.57	234.72
770.90	234.65
771.22	234.55
771.55	234.45
771.87	234.35
772.20	234.22
772.52	234.21
772.85	234.24
773.17	234.15
773.50	234.04
773.82	233.93
774.15	233.77
774.47	233.64
774.80	233.53
775.12	233.45
775.45	233.36
775.77	233.26
776.09	233.15
776.42	233.09
776.74	233.04
777.07	232.97
777.39	232.91
777.72	232.83
778.04	232.76
778.36	232.67
778.69	232.60
779.01	232.55
779.33	232.39
779.66	232.19
779.98	232.12
780.31	232.06
780.63	232.02
780.95	231.97
781.28	231.92
781.60	231.86
781.92	231.76
782.25	231.71
782.57	231.64
782.89	231.59
783.22	231.51
783.54	231.41
783.86	231.35
784.19	231.30
784.51	231.26
784.83	231.18
785.16	231.13
785.48	231.10
785.80	231.03
786.12	230.98
786.45	230.93
786.77	230.86
787.09	230.80
787.42	230.67
787.74	230.62
788.06	230.59
788.38	230.53
788.71	230.50
789.03	230.46
789.35	230.47
789.67	230.41
789.99	230.37
790.32	230.36
790.64	230.35
790.96	230.38
791.28	230.30
791.61	230.29
791.93	230.25
792.25	230.17
792.57	230.22
792.89	230.19
793.21	230.16
793.54	230.12
793.86	230.08
794.18	230.09
794.50	230.03
794.82	229.96
795.14	229.91
795.47	229.88
795.79	229.84
796.11	229.74
796.43	229.71
796.75	229.66
797.07	229.63
797.39	229.58
797.71	229.47
798.04	229.47
798.36	229.43
798.68	229.41
799.00	229.40
799.32	229.33
799.64	229.33
799.96	229.28
800.28	229.27
800.60	229.25
800.92	229.24
801.24	229.21
801.56	229.21
801.89	229.19
802.21	229.15
802.53	229.08
802.85	229.12
803.17	229.12
803.49	229.08
803.81	229.06
804.13	229.06
804.45	229.04
804.77	229.01
805.09	228.97
805.41	228.93
805.73	228.89
806.05	228.82
806.37	228.80
806.69	228.77
807.01	228.74
807.33	228.73
807.65	228.67
807.97	228.71
808.28	228.65
808.60	228.62
808.92	228.61
809.24	228.61
809.56	228.57
809.88	228.50
810.20	228.47
810.52	228.42
810.84	228.37
811.16	228.35
811.48	228.33
811.80	228.35
812.12	228.31
812.43	228.29
812.75	228.26
813.07	228.19
813.39	228.18
813.71	228.14
814.03	228.09
814.35	228.06
814.67	227.96
814.98	227.96
815.30	227.95
815.62	227.92
815.94	227.89
816.26	227.89
816.58	227.89
816.89	227.90
817.21	227.85
817.53	227.81
817.85	227.75
818.17	227.69
818.48	227.62
818.80	227.64
819.12	227.61
819.44	227.58
819.76	227.56
820.07	227.54
820.39	227.56
820.71	227.59
821.03	227.59
821.34	227.61
821.66	227.62
821.98	227.62
822.30	227.60
822.61	227.61
822.93	227.57
823.25	227.55
823.57	227.52
823.88	227.53
824.20	227.51
824.52	227.56
824.83	227.55
825.15	227.51
825.47	227.48
825.79	227.48
826.10	227.47
826.42	227.46
826.74	227.48
827.05	227.47
827.37	227.40
827.69	227.37
828.00	227.32
828.32	227.31
828.64	227.28
828.95	227.31
829.27	227.28
829.58	227.27
829.90	227.27
830.22	227.25
830.53	227.22
830.85	227.20
831.17	227.17
831.48	227.18
831.80	227.20
832.11	227.18
832.43	227.19
832.75	227.17
833.06	227.19
833.38	227.13
833.69	227.10
834.01	227.11
834.32	227.10
834.64	227.11
834.96	227.10
835.27	227.08
835.59	227.05
835.90	227.04
836.22	227.04
836.53	227.05
836.85	227.03
837.16	227.12
837.48	227.14
837.79	227.14
838.11	227.17
838.42	227.15
838.74	227.19
839.05	227.15
839.37	227.15
839.68	227.13
840.00	227.11
840.31	227.14
840.63	227.12
840.94	227.12
841.26	227.11
841.57	227.08
841.88	227.09
842.20	227.09
842.51	227.06
842.83	227.07
843.14	227.12
843.46	227.13
843.77	227.07
844.08	227.06
844.40	227.05
844.71	226.98
845.03	226.99
845.34	226.95
845.65	226.99
845.97	227.00
846.28	226.98
846.60	227.00
846.91	226.99
847.22	226.97
847.54	226.99
847.85	226.99
848.16	226.97
848.48	226.94
848.79	226.95
849.10	226.97
849.42	226.94
849.73	226.88
850.04	226.86
850.36	226.81
850.67	226.80
850.98	226.79
851.30	226.81
851.61	226.80
851.92	226.79
852.23	226.80
852.55	226.79
852.86	226.80
853.17	226.80
853.49	226.82
853.80	226.86
854.11	226.89
854.42	226.90
854.74	226.90
855.05	226.86
855.36	226.83
855.67	226.82
855.99	226.81
856.30	226.93
856.61	226.91
856.92	226.91
857.23	226.89
857.55	226.89
857.86	226.88
858.17	226.89
858.48	226.87
858.79	226.82
859.11	226.86
859.42	226.85
859.73	226.83
860.04	226.77
860.35	226.74
860.66	226.68
860.98	226.67
861.29	226.66
861.60	226.67
861.91	226.68
862.22	226.65
862.53	226.65
862.84	226.50
863.16	226.55
863.47	226.54
863.78	226.54
864.09	226.54
864.40	226.54
864.71	226.54
865.02	226.53
865.33	226.53
865.64	226.48
865.95	226.45
866.27	226.51
866.58	226.52
866.89	226.48
867.20	226.45
867.51	226.42
867.82	226.40
868.13	226.44
868.44	226.41
868.75	226.42
869.06	226.39
869.37	226.41
869.68	226.37
869.99	226.39
870.30	226.37
870.61	226.36
870.92	226.34
871.23	226.32
871.54	226.32
871.85	226.30
872.16	226.30
872.47	226.27
872.78	226.20
873.09	226.21
873.40	226.21
873.71	226.22
874.02	226.25
874.33	226.27
874.64	226.25
874.95	226.28
875.26	226.28
875.56	226.27
875.87	226.25
876.18	226.24
876.49	226.33
876.80	226.32
877.11	226.30
877.42	226.26
877.73	226.26
878.04	226.27
878.35	226.32
878.66	226.33
878.96	226.31
879.27	226.32
879.58	226.30
879.89	226.31
880.20	226.36
880.51	226.36
880.82	226.33
881.12	226.32
881.43	226.28
881.74	226.26
882.05	226.27
882.36	226.29
882.67	226.29
882.97	226.20
883.28	226.21
883.59	226.20
883.90	226.23
884.21	226.27
884.51	226.27
884.82	226.24
885.13	226.25
885.44	226.27
885.74	226.29
886.05	226.29
886.36	226.28
886.67	226.24
886.98	226.27
887.28	226.29
887.59	226.27
887.90	226.28
888.20	226.26
888.51	226.29
888.82	226.28
889.13	226.31
889.43	226.39
889.74	226.41
890.05	226.44
890.35	226.45
890.66	226.42
890.97	226.42
891.28	226.42
891.58	226.42
891.89	226.45
892.20	226.43
892.50	226.44
892.81	226.46
893.12	226.47
893.42	226.43
893.73	226.43
894.04	226.47
894.34	226.48
894.65	226.50
894.95	226.50
895.26	226.49
895.57	226.54
895.87	226.45
896.18	226.44
896.48	226.45
896.79	226.43
897.10	226.43
897.40	226.41
897.71	226.39
898.01	226.39
898.32	226.37
898.63	226.37
898.93	226.37
899.24	226.35
899.54	226.35
899.85	226.36
900.15	226.39
900.46	226.38
900.76	226.39
901.07	226.38
901.38	226.33
901.68	226.32
901.99	226.25
902.29	226.26
902.60	226.27
902.90	226.25
903.21	226.26
903.51	226.25
903.82	226.26
904.12	226.27
904.43	226.26
904.73	226.27
905.03	226.28
905.34	226.37
905.64	226.37
905.95	226.36
906.25	226.32
906.56	226.30
906.86	226.27
907.17	226.26
907.47	226.26
907.77	226.29
908.08	226.26
908.38	226.29
908.69	226.28
908.99	226.29
909.30	226.32
909.60	226.29
909.90	226.28
910.21	226.29
910.51	226.23
910.81	226.21
911.12	226.17
911.42	226.15
911.73	226.08
912.03	226.08
912.33	226.09
912.64	226.10
912.94	226.08
913.24	226.06
913.55	226.08
913.85	226.09
914.15	226.08
914.46	226.10
914.76	226.09
915.06	226.07
915.37	226.05
915.67	226.01
915.97	226.02
916.27	226.00
916.58	225.98
916.88	225.98
917.18	226.00
917.49	226.11
917.79	226.11
918.09	226.10
918.39	226.14
918.70	226.15
919.00	226.16
919.30	226.21
919.60	226.23
919.91	226.21
920.21	226.22
920.51	226.22
920.81	226.24
921.12	226.23
921.42	226.25
921.72	226.26
922.02	226.28
922.32	226.29
922.63	226.30
922.93	226.38
923.23	226.44
923.53	226.40
923.83	226.33
924.13	226.34
924.44	226.33
924.74	226.32
925.04	226.34
925.34	226.33
925.64	226.29
925.94	226.26
926.24	226.31
926.55	226.28
926.85	226.27
927.15	226.25
927.45	226.27
927.75	226.29
928.05	226.30
928.35	226.28
928.65	226.31
928.95	226.35
929.26	226.29
929.56	226.29
929.86	226.31
930.16	226.31
930.46	226.30
930.76	226.31
931.06	226.26
931.36	226.22
931.66	226.24
931.96	226.23
932.26	226.25
932.56	226.20
932.86	226.22
933.16	226.25
933.46	226.25
933.76	226.25
934.06	226.26
934.36	226.30
934.66	226.29
934.96	226.27
935.26	226.27
935.56	226.30
935.86	226.29
936.16	226.27
936.46	226.24
936.76	226.26
937.06	226.27
937.36	226.28
937.66	226.28
937.96	226.27
938.26	226.27
938.56	226.28
938.86	226.28
939.16	226.31
939.46	226.30
939.76	226.29
940.06	226.25
940.35	226.22
940.65	226.14
940.95	226.13
941.25	226.08
941.55	226.05
941.85	226.05
942.15	226.04
942.45	226.09
942.75	226.11
943.04	226.11
943.34	226.13
943.64	226.12
943.94	226.11
944.24	226.12
944.54	226.12
944.84	226.12
945.13	226.12
945.43	226.10
945.73	226.08
946.03	226.07
946.33	226.06
946.62	226.01
946.92	226.05
947.22	226.08
947.52	226.10
947.82	226.10
948.11	226.07
948.41	226.07
948.71	226.06
949.01	226.04
949.31	226.05
949.60	226.00
949.90	226.06
950.20	226.06
950.50	226.03
950.79	226.01
951.09	226.00
951.39	225.98
951.69	226.00
951.98	226.03
952.28	226.03
952.58	226.04
952.87	226.09
953.17	226.08
953.47	226.05
953.76	226.05
954.06	226.05
954.36	226.06
954.66	226.02
954.95	226.03
955.25	226.04
955.55	226.00
955.84	226.00
956.14	226.01
956.44	226.00
956.73	226.01
957.03	226.03
957.32	226.06
957.62	226.05
957.92	226.04
958.21	226.01
958.51	226.10
958.81	226.16
959.10	226.17
959.40	226.22
959.69	226.25
959.99	226.26
960.29	226.24
960.58	226.21
960.88	226.27
961.17	226.27
961.47	226.27
961.76	226.26
962.06	226.25
962.36	226.21
962.65	226.23
962.95	226.22
963.24	226.24
963.54	226.24
963.83	226.25
964.13	226.26
964.42	226.27
964.72	226.26
965.01	226.23
965.31	226.21
965.60	226.16
965.90	226.20
966.19	226.19
966.49	226.22
966.78	226.22
967.08	226.21
967.37	226.18
967.67	226.21
967.96	226.24
968.26	226.23
968.55	226.26
968.85	226.25
969.14	226.27
969.43	226.23
969.73	226.21
970.02	226.23
970.32	226.26
970.61	226.24
970.91	226.19
971.20	226.20
971.49	226.20
971.79	226.24
972.08	226.20
972.38	226.21
972.67	226.23
972.96	226.26
973.26	226.26
973.55	226.29
973.85	226.26
974.14	226.25
974.43	226.30
974.73	226.28
975.02	226.28
975.31	226.26
975.61	226.28
975.90	226.27
976.19	226.24
976.49	226.23
976.78	226.25
977.07	226.22
977.37	226.19
977.66	226.22
977.95	226.17
978.24	226.18
978.54	226.18
978.83	226.16
979.12	226.16
979.42	226.12
979.71	226.13
980.00	226.14
980.29	226.15
980.59	226.12
980.88	226.12
981.17	226.12
981.46	226.14
981.76	226.13
982.05	226.15
982.34	226.16
982.63	226.14
982.93	226.11
983.22	226.15
983.51	226.13
983.80	226.10
984.09	226.11
984.39	226.09
984.68	226.05
984.97	226.03
985.26	226.01
985.55	226.07
985.85	226.03
986.14	226.05
986.43	226.05
986.72	226.04
987.01	226.00
987.30	226.00
987.59	225.96
987.89	225.98
988.18	225.96
988.47	225.93
988.76	225.89
989.05	225.90
989.34	225.85
989.63	225.89
989.92	225.89
990.22	225.90
990.51	225.89
990.80	225.91
991.09	225.93
991.38	225.93
991.67	225.88
991.96	225.84
992.25	225.83
992.54	225.79
992.83	225.80
993.12	225.82
993.41	225.83
993.70	225.92
993.99	225.93
994.28	225.93
994.58	225.95
994.87	225.96
995.16	225.90
995.45	225.92
995.74	225.91
996.03	225.91
996.32	225.92
996.61	225.91
996.90	225.88
997.19	225.82
997.48	225.83
997.77	225.83
998.06	225.84
998.34	225.82
998.63	225.82
998.92	225.81
999.21	225.83
999.50	225.81
999.79	225.73
1000.08	225.69
1000.37	225.71
1000.66	225.71
1000.95	225.72
1001.24	225.81
1001.53	225.79
1001.82	225.76
1002.11	225.76
1002.40	225.73
1002.68	225.77
1002.97	225.87
1003.26	225.92
1003.55	225.89
1003.84	225.88
1004.13	225.90
1004.42	225.91
1004.71	225.93
1004.99	225.97
1005.28	225.98
1005.57	225.98
1005.86	225.97
1006.15	225.98
1006.44	225.97
1006.72	225.99
1007.01	225.98
1007.30	225.98
1007.59	226.01
1007.88	226.02
1008.17	226.03
1008.45	226.06
1008.74	226.03
1009.03	225.98
1009.32	225.95
1009.60	225.97
1009.89	225.98
1010.18	225.98
1010.47	225.99
1010.76	226.01
1011.04	225.97
1011.33	225.95
1011.62	225.97
1011.91	226.00
1012.19	226.00
1012.48	226.00
1012.77	225.98
1013.05	226.06
1013.34	226.01
1013.63	225.99
1013.92	226.00
1014.20	225.98
1014.49	225.98
1014.78	226.01
1015.06	225.97
1015.35	226.00
1015.64	226.00
1015.92	226.03
1016.21	226.02
1016.50	226.03
1016.78	226.02
1017.07	226.05
1017.36	226.05
1017.64	226.01
1017.93	226.04
1018.22	226.03
1018.50	226.03
1018.79	226.02
1019.08	225.95
1019.36	225.95
1019.65	225.96
1019.93	226.02
1020.22	226.05
1020.51	226.09
1020.79	226.05
1021.08	225.81
1021.36	225.79
1021.65	225.45
1021.94	225.90
1022.22	225.55
1022.51	226.00
1022.79	227.10
1023.08	226.35
1023.36	226.97
1023.65	225.71
>>>>>End Processed Spectral Data<<<<<
