SpectraSuite Data File
++++++++++++++++++++++++++++++++++++
Date: Fri Feb 01 14:54:58 EST 2013
User: group
Dark Spectrum Present: No
Reference Spectrum Present: No
Number of Sampled Component Spectra: 1
Spectrometers: USB2E7196
Integration Time (usec): 35000 (USB2E7196)
Spectra Averaged: 100 (USB2E7196)
Boxcar Smoothing: 10 (USB2E7196)
Correct for Electrical Dark: No (USB2E7196)
Strobe/Lamp Enabled: No (USB2E7196)
Correct for Detector Non-linearity: No (USB2E7196)
Correct for Stray Light: No (USB2E7196)
Number of Pixels in Processed Spectrum: 2048
>>>>>Begin Processed Spectral Data<<<<<
339.09	0.00
339.48	215.85
339.86	217.00
340.24	218.38
340.63	219.82
341.01	222.38
341.39	221.85
341.78	223.68
342.16	225.03
342.54	225.67
342.93	213.83
343.31	224.63
343.69	225.14
344.07	225.61
344.46	226.04
344.84	226.40
345.22	226.62
345.60	226.86
345.99	227.04
346.37	227.16
346.75	227.23
347.13	227.31
347.52	227.36
347.90	227.41
348.28	227.43
348.66	227.46
349.05	227.47
349.43	227.48
349.81	227.50
350.19	227.54
350.57	227.61
350.96	227.65
351.34	227.71
351.72	227.78
352.10	227.85
352.48	227.95
352.87	227.99
353.25	228.10
353.63	228.19
354.01	228.24
354.39	228.34
354.77	228.43
355.15	228.54
355.54	228.61
355.92	228.67
356.30	228.76
356.68	228.89
357.06	228.97
357.44	229.04
357.82	229.10
358.20	229.18
358.58	229.25
358.97	229.32
359.35	229.41
359.73	229.50
360.11	229.58
360.49	229.58
360.87	229.65
361.25	229.68
361.63	229.74
362.01	229.76
362.39	229.76
362.77	229.81
363.15	229.80
363.53	229.82
363.91	229.82
364.29	229.83
364.67	229.76
365.05	229.74
365.43	229.77
365.81	229.75
366.19	229.77
366.57	229.77
366.95	229.79
367.33	229.76
367.71	229.73
368.09	229.71
368.47	229.66
368.85	229.62
369.23	229.60
369.61	229.52
369.99	229.54
370.37	229.52
370.75	229.50
371.13	229.42
371.51	229.32
371.89	229.28
372.27	229.19
372.65	229.14
373.03	229.04
373.41	228.95
373.78	228.88
374.16	228.78
374.54	228.69
374.92	228.59
375.30	228.51
375.68	228.41
376.06	228.33
376.44	228.27
376.82	228.21
377.19	228.13
377.57	228.10
377.95	227.99
378.33	227.89
378.71	227.78
379.09	227.73
379.47	227.70
379.84	227.60
380.22	227.55
380.60	227.45
380.98	227.39
381.36	227.34
381.73	227.26
382.11	227.19
382.49	227.14
382.87	227.07
383.25	227.00
383.62	227.06
384.00	226.98
384.38	226.94
384.76	226.87
385.13	226.87
385.51	226.80
385.89	226.74
386.27	226.70
386.64	226.64
387.02	226.60
387.40	226.53
387.78	226.50
388.15	226.47
388.53	226.43
388.91	226.42
389.29	226.38
389.66	226.35
390.04	226.32
390.42	226.28
390.79	226.28
391.17	226.29
391.55	226.15
391.92	226.17
392.30	226.17
392.68	226.17
393.05	226.13
393.43	226.13
393.81	226.10
394.18	226.11
394.56	226.17
394.94	226.20
395.31	226.23
395.69	226.30
396.06	226.33
396.44	226.39
396.82	226.38
397.19	226.47
397.57	226.51
397.95	226.61
398.32	226.68
398.70	226.74
399.07	226.81
399.45	226.91
399.82	226.95
400.20	227.00
400.58	227.11
400.95	227.16
401.33	227.30
401.70	227.51
402.08	227.61
402.45	227.71
402.83	227.85
403.20	227.96
403.58	228.09
403.95	228.23
404.33	228.36
404.71	228.56
405.08	228.76
405.46	228.92
405.83	229.10
406.21	229.25
406.58	229.43
406.96	229.63
407.33	229.81
407.70	230.03
408.08	230.37
408.45	230.58
408.83	230.83
409.20	231.00
409.58	231.18
409.95	231.45
410.33	231.71
410.70	231.94
411.08	232.25
411.45	232.52
411.82	232.84
412.20	233.23
412.57	233.66
412.95	233.95
413.32	234.35
413.69	234.72
414.07	235.14
414.44	235.60
414.82	236.06
415.19	236.60
415.56	237.14
415.94	237.65
416.31	238.30
416.68	238.94
417.06	239.69
417.43	240.41
417.81	241.19
418.18	241.95
418.55	242.82
418.93	243.71
419.30	244.65
419.67	245.59
420.04	246.51
420.42	247.48
420.79	248.65
421.16	249.82
421.54	251.03
421.91	252.28
422.28	253.54
422.66	254.88
423.03	256.18
423.40	257.54
423.77	258.92
424.15	260.29
424.52	261.77
424.89	263.35
425.26	264.88
425.64	266.33
426.01	267.93
426.38	269.60
426.75	271.26
427.13	272.93
427.50	274.71
427.87	276.59
428.24	278.43
428.61	280.17
428.99	282.09
429.36	284.16
429.73	286.18
430.10	288.21
430.47	290.26
430.85	292.39
431.22	294.61
431.59	297.02
431.96	299.28
432.33	301.76
432.70	304.19
433.08	306.99
433.45	309.61
433.82	312.23
434.19	315.08
434.56	317.92
434.93	320.63
435.30	323.27
435.68	326.14
436.05	329.00
436.42	331.82
436.79	334.35
437.16	337.06
437.53	339.95
437.90	342.75
438.27	345.49
438.64	348.30
439.01	350.89
439.38	353.09
439.75	355.28
440.13	357.82
440.50	360.11
440.87	361.95
441.24	363.93
441.61	366.10
441.98	367.62
442.35	369.39
442.72	371.23
443.09	373.06
443.46	374.08
443.83	374.65
444.20	375.16
444.57	375.99
444.94	376.31
445.31	376.63
445.68	377.01
446.05	377.10
446.42	376.75
446.79	376.36
447.16	375.94
447.53	375.63
447.90	374.48
448.27	373.34
448.64	371.80
449.01	370.64
449.37	368.63
449.74	366.73
450.11	364.47
450.48	362.02
450.85	359.48
451.22	357.34
451.59	355.35
451.96	353.40
452.33	350.82
452.70	348.44
453.07	345.58
453.43	342.68
453.80	339.87
454.17	337.18
454.54	334.61
454.91	331.93
455.28	329.24
455.65	326.71
456.02	324.27
456.38	322.07
456.75	319.39
457.12	317.15
457.49	314.92
457.86	312.80
458.23	310.93
458.59	308.89
458.96	306.82
459.33	304.96
459.70	303.14
460.07	301.66
460.43	299.97
460.80	298.38
461.17	296.91
461.54	295.46
461.91	294.03
462.27	292.57
462.64	291.28
463.01	289.94
463.38	288.66
463.74	287.26
464.11	286.11
464.48	285.09
464.85	283.95
465.21	283.11
465.58	282.14
465.95	281.02
466.32	280.10
466.68	279.19
467.05	278.25
467.42	277.34
467.78	276.35
468.15	275.45
468.52	274.75
468.88	273.90
469.25	273.10
469.62	272.47
469.98	271.81
470.35	271.16
470.72	270.56
471.08	269.87
471.45	269.36
471.82	268.80
472.18	268.19
472.55	267.76
472.92	267.21
473.28	266.71
473.65	266.24
474.02	265.76
474.38	265.36
474.75	264.98
475.11	264.59
475.48	264.33
475.85	264.08
476.21	263.85
476.58	263.66
476.94	263.47
477.31	263.29
477.67	263.12
478.04	263.01
478.41	262.92
478.77	262.95
479.14	262.86
479.50	262.86
479.87	262.93
480.23	263.02
480.60	263.08
480.96	263.19
481.33	263.41
481.69	263.61
482.06	263.81
482.42	264.05
482.79	264.29
483.15	264.61
483.52	264.96
483.88	265.28
484.25	265.67
484.61	266.16
484.98	266.59
485.34	267.17
485.71	267.72
486.07	268.31
486.44	268.90
486.80	269.58
487.17	270.29
487.53	271.06
487.90	271.92
488.26	272.83
488.62	273.82
488.99	274.78
489.35	275.81
489.72	276.93
490.08	278.12
490.44	279.39
490.81	280.69
491.17	282.05
491.54	283.55
491.90	285.04
492.26	286.60
492.63	288.30
492.99	290.05
493.36	291.94
493.72	294.00
494.08	296.10
494.45	298.30
494.81	300.68
495.17	303.09
495.54	305.63
495.90	308.28
496.26	311.04
496.63	313.99
496.99	317.10
497.35	320.31
497.72	323.70
498.08	327.17
498.44	330.82
498.80	334.73
499.17	338.74
499.53	342.90
499.89	347.28
500.26	351.80
500.62	356.42
500.98	361.39
501.34	366.41
501.71	371.70
502.07	377.11
502.43	382.66
502.79	388.50
503.16	394.52
503.52	400.75
503.88	407.13
504.24	413.72
504.60	420.53
504.97	427.64
505.33	434.92
505.69	442.59
506.05	450.34
506.41	458.18
506.78	466.30
507.14	474.71
507.50	483.41
507.86	492.38
508.22	501.55
508.59	510.66
508.95	520.19
509.31	529.93
509.67	540.05
510.03	550.33
510.39	560.84
510.75	571.60
511.12	582.52
511.48	593.73
511.84	605.15
512.20	616.64
512.56	628.59
512.92	640.79
513.28	653.06
513.64	665.53
514.00	678.20
514.37	691.09
514.73	704.10
515.09	717.22
515.45	730.52
515.81	744.12
516.17	758.10
516.53	772.23
516.89	786.41
517.25	800.55
517.61	815.01
517.97	829.48
518.33	843.93
518.69	858.74
519.05	873.80
519.41	888.97
519.77	904.56
520.13	920.08
520.49	935.44
520.85	950.94
521.21	966.73
521.57	983.08
521.93	998.93
522.29	1015.39
522.65	1031.65
523.01	1047.93
523.37	1064.01
523.73	1080.24
524.09	1096.45
524.45	1112.80
524.81	1129.49
525.17	1146.46
525.53	1163.44
525.89	1180.41
526.25	1197.30
526.61	1213.69
526.97	1230.55
527.33	1247.11
527.68	1263.78
528.04	1280.41
528.40	1297.11
528.76	1314.19
529.12	1330.82
529.48	1347.68
529.84	1363.74
530.20	1380.49
530.56	1397.59
530.91	1415.08
531.27	1431.93
531.63	1448.46
531.99	1465.14
532.35	1481.23
532.71	1497.08
533.07	1513.47
533.42	1529.45
533.78	1545.69
534.14	1562.09
534.50	1577.44
534.86	1593.40
535.21	1608.49
535.57	1624.47
535.93	1640.04
536.29	1654.96
536.65	1670.15
537.00	1685.14
537.36	1700.65
537.72	1715.12
538.08	1729.57
538.44	1743.50
538.79	1757.58
539.15	1771.43
539.51	1785.37
539.87	1799.83
540.22	1813.53
540.58	1827.43
540.94	1840.88
541.29	1853.77
541.65	1866.66
542.01	1880.05
542.37	1892.41
542.72	1905.02
543.08	1916.92
543.44	1929.37
543.79	1940.59
544.15	1951.54
544.51	1963.10
544.87	1974.11
545.22	1985.03
545.58	1995.27
545.94	2005.04
546.29	2014.91
546.65	2024.62
547.01	2033.89
547.36	2042.82
547.72	2051.50
548.07	2059.10
548.43	2067.30
548.79	2075.38
549.14	2082.89
549.50	2090.19
549.86	2097.87
550.21	2105.04
550.57	2112.16
550.92	2118.78
551.28	2125.93
551.64	2133.04
551.99	2139.54
552.35	2145.62
552.70	2151.60
553.06	2157.61
553.41	2163.90
553.77	2169.95
554.13	2176.16
554.48	2182.27
554.84	2187.41
555.19	2192.67
555.55	2197.83
555.90	2202.14
556.26	2206.89
556.61	2211.56
556.97	2215.68
557.32	2219.76
557.68	2224.07
558.03	2228.35
558.39	2232.12
558.74	2236.55
559.10	2240.29
559.45	2243.92
559.81	2248.30
560.16	2252.00
560.52	2255.18
560.87	2258.48
561.23	2260.95
561.58	2263.64
561.94	2266.03
562.29	2268.33
562.64	2270.81
563.00	2273.38
563.35	2276.95
563.71	2279.94
564.06	2282.97
564.42	2285.81
564.77	2288.27
565.12	2290.23
565.48	2291.90
565.83	2293.51
566.19	2294.79
566.54	2295.63
566.89	2296.57
567.25	2296.82
567.60	2298.12
567.96	2299.44
568.31	2300.14
568.66	2300.99
569.02	2301.52
569.37	2301.57
569.72	2302.19
570.08	2302.15
570.43	2301.99
570.78	2300.96
571.14	2299.46
571.49	2297.98
571.84	2297.40
572.20	2295.96
572.55	2294.77
572.90	2293.07
573.26	2291.31
573.61	2289.34
573.96	2287.40
574.31	2284.25
574.67	2281.19
575.02	2277.40
575.37	2273.94
575.72	2269.82
576.08	2266.30
576.43	2262.79
576.78	2258.87
577.13	2255.62
577.49	2252.47
577.84	2248.82
578.19	2245.00
578.54	2240.99
578.90	2236.57
579.25	2230.90
579.60	2225.85
579.95	2220.58
580.30	2215.38
580.66	2210.21
581.01	2205.15
581.36	2200.09
581.71	2195.75
582.06	2191.03
582.42	2186.36
582.77	2181.02
583.12	2176.44
583.47	2171.61
583.82	2166.43
584.17	2161.27
584.53	2155.72
584.88	2149.85
585.23	2143.78
585.58	2138.30
585.93	2132.69
586.28	2127.79
586.63	2122.61
586.98	2117.32
587.34	2112.62
587.69	2107.66
588.04	2102.15
588.39	2096.31
588.74	2089.78
589.09	2083.49
589.44	2076.49
589.79	2070.39
590.14	2064.59
590.49	2057.84
590.84	2051.34
591.19	2045.09
591.54	2038.45
591.89	2030.80
592.25	2023.77
592.60	2016.50
592.95	2008.56
593.30	2001.19
593.65	1993.39
594.00	1986.20
594.35	1978.90
594.70	1970.57
595.05	1963.15
595.40	1955.85
595.75	1948.31
596.10	1941.91
596.45	1935.06
596.80	1928.95
597.15	1922.11
597.50	1914.98
597.85	1908.56
598.19	1901.80
598.54	1894.80
598.89	1888.04
599.24	1882.05
599.59	1875.32
599.94	1869.23
600.29	1863.07
600.64	1856.37
600.99	1848.95
601.34	1842.01
601.69	1835.05
602.04	1828.24
602.39	1820.99
602.74	1814.14
603.08	1807.30
603.43	1800.50
603.78	1793.13
604.13	1785.77
604.48	1778.50
604.83	1771.71
605.18	1764.58
605.53	1756.56
605.87	1748.41
606.22	1741.21
606.57	1733.32
606.92	1726.12
607.27	1718.80
607.62	1711.89
607.96	1704.64
608.31	1698.03
608.66	1690.47
609.01	1682.85
609.36	1675.43
609.70	1667.34
610.05	1659.21
610.40	1651.52
610.75	1643.22
611.10	1635.70
611.44	1627.53
611.79	1619.58
612.14	1610.83
612.49	1601.81
612.83	1593.56
613.18	1585.55
613.53	1577.51
613.88	1568.96
614.22	1560.69
614.57	1552.18
614.92	1544.15
615.27	1536.53
615.61	1528.19
615.96	1520.21
616.31	1512.73
616.65	1505.31
617.00	1497.85
617.35	1490.31
617.70	1481.98
618.04	1473.56
618.39	1465.36
618.74	1457.74
619.08	1449.54
619.43	1442.11
619.78	1435.23
620.12	1428.09
620.47	1420.62
620.82	1412.59
621.16	1405.38
621.51	1397.90
621.85	1390.43
622.20	1381.92
622.55	1373.66
622.89	1365.96
623.24	1358.57
623.59	1351.23
623.93	1343.84
624.28	1336.77
624.62	1329.26
624.97	1322.33
625.32	1315.61
625.66	1308.56
626.01	1301.34
626.35	1293.90
626.70	1286.18
627.04	1278.58
627.39	1270.85
627.73	1263.43
628.08	1256.49
628.43	1249.12
628.77	1241.74
629.12	1234.10
629.46	1226.99
629.81	1219.78
630.15	1212.65
630.50	1205.24
630.84	1197.12
631.19	1189.31
631.53	1181.79
631.88	1174.39
632.22	1166.67
632.57	1159.49
632.91	1152.13
633.26	1144.88
633.60	1137.69
633.95	1130.70
634.29	1123.73
634.64	1117.23
634.98	1110.01
635.32	1102.99
635.67	1096.54
636.01	1089.98
636.36	1083.33
636.70	1076.95
637.05	1070.36
637.39	1063.93
637.73	1057.54
638.08	1051.69
638.42	1045.69
638.77	1039.32
639.11	1032.76
639.45	1026.57
639.80	1019.95
640.14	1013.52
640.49	1007.05
640.83	1000.81
641.17	994.57
641.52	988.30
641.86	981.89
642.20	976.16
642.55	969.90
642.89	963.52
643.23	957.09
643.58	951.33
643.92	945.15
644.26	939.12
644.61	933.07
644.95	926.94
645.29	920.40
645.64	913.66
645.98	907.37
646.32	901.65
646.66	895.62
647.01	889.85
647.35	884.28
647.69	878.43
648.04	872.90
648.38	867.15
648.72	861.13
649.06	855.00
649.41	848.98
649.75	842.98
650.09	836.97
650.43	831.19
650.78	825.17
651.12	819.27
651.46	813.54
651.80	807.89
652.14	802.62
652.49	797.27
652.83	792.17
653.17	786.45
653.51	780.62
653.85	775.26
654.20	769.60
654.54	763.55
654.88	757.93
655.22	752.07
655.56	746.39
655.90	741.02
656.25	735.84
656.59	730.58
656.93	725.47
657.27	720.36
657.61	714.93
657.95	709.82
658.29	704.71
658.64	699.60
658.98	694.36
659.32	688.93
659.66	683.79
660.00	678.49
660.34	673.58
660.68	668.74
661.02	663.76
661.36	659.16
661.70	654.73
662.05	650.40
662.39	646.11
662.73	641.66
663.07	637.34
663.41	632.91
663.75	628.47
664.09	624.04
664.43	619.77
664.77	615.70
665.11	611.49
665.45	607.47
665.79	603.41
666.13	599.32
666.47	595.26
666.81	591.09
667.15	587.04
667.49	583.24
667.83	579.47
668.17	575.62
668.51	571.63
668.85	567.64
669.19	563.84
669.53	560.06
669.87	556.30
670.21	552.58
670.55	549.07
670.89	545.65
671.23	542.26
671.57	538.75
671.91	535.26
672.25	531.81
672.58	528.33
672.92	524.96
673.26	521.82
673.60	518.75
673.94	515.75
674.28	512.88
674.62	509.97
674.96	506.95
675.30	504.02
675.64	501.09
675.97	498.34
676.31	495.46
676.65	492.55
676.99	489.87
677.33	487.03
677.67	484.22
678.01	481.26
678.34	478.25
678.68	475.37
679.02	472.59
679.36	469.88
679.70	467.17
680.04	464.41
680.37	461.60
680.71	458.82
681.05	456.19
681.39	453.49
681.73	450.83
682.06	448.28
682.40	445.77
682.74	443.28
683.08	440.79
683.42	438.23
683.75	435.77
684.09	433.25
684.43	430.82
684.77	428.35
685.10	426.02
685.44	423.78
685.78	421.52
686.12	419.33
686.45	417.04
686.79	414.75
687.13	412.61
687.46	410.45
687.80	408.31
688.14	406.11
688.48	404.09
688.81	401.87
689.15	399.76
689.49	397.64
689.82	395.57
690.16	393.50
690.50	391.56
690.83	389.60
691.17	387.64
691.51	385.76
691.84	383.99
692.18	382.05
692.52	380.13
692.85	378.25
693.19	376.33
693.52	374.48
693.86	372.69
694.20	370.89
694.53	369.09
694.87	367.30
695.21	365.57
695.54	363.76
695.88	362.06
696.21	360.34
696.55	358.66
696.88	356.94
697.22	355.32
697.56	353.75
697.89	352.12
698.23	350.50
698.56	348.90
698.90	347.24
699.23	345.61
699.57	344.04
699.90	342.54
700.24	341.02
700.58	339.45
700.91	337.95
701.25	336.50
701.58	335.14
701.92	333.72
702.25	332.33
702.59	330.98
702.92	329.66
703.26	328.38
703.59	327.08
703.93	325.96
704.26	324.75
704.60	323.44
704.93	322.16
705.26	320.94
705.60	319.74
705.93	318.66
706.27	317.65
706.60	316.63
706.94	315.54
707.27	314.45
707.61	313.47
707.94	312.49
708.27	311.43
708.61	310.39
708.94	309.40
709.28	308.42
709.61	307.48
709.94	306.53
710.28	305.52
710.61	304.63
710.95	303.55
711.28	302.62
711.61	301.68
711.95	300.81
712.28	299.91
712.61	298.97
712.95	298.06
713.28	297.20
713.61	296.28
713.95	295.40
714.28	294.56
714.61	293.69
714.95	292.85
715.28	291.98
715.61	291.09
715.95	290.29
716.28	289.43
716.61	288.61
716.95	287.84
717.28	287.12
717.61	286.32
717.94	285.61
718.28	284.81
718.61	284.15
718.94	283.47
719.27	282.77
719.61	282.13
719.94	281.49
720.27	280.76
720.60	280.12
720.94	279.48
721.27	278.92
721.60	278.35
721.93	277.76
722.27	277.26
722.60	276.73
722.93	276.17
723.26	275.65
723.59	275.07
723.93	274.49
724.26	273.95
724.59	273.39
724.92	272.87
725.25	272.38
725.59	271.82
725.92	271.30
726.25	270.79
726.58	270.30
726.91	269.78
727.24	269.33
727.57	268.85
727.91	268.33
728.24	267.83
728.57	267.33
728.90	266.88
729.23	266.37
729.56	265.96
729.89	265.47
730.22	264.97
730.55	264.53
730.89	264.10
731.22	263.63
731.55	263.19
731.88	262.72
732.21	262.29
732.54	261.84
732.87	261.41
733.20	261.03
733.53	260.66
733.86	260.30
734.19	259.85
734.52	259.49
734.85	259.21
735.18	258.84
735.51	258.50
735.84	258.12
736.17	257.79
736.50	257.34
736.83	257.12
737.16	256.80
737.49	256.46
737.82	256.07
738.15	255.75
738.48	255.42
738.81	255.11
739.14	254.76
739.47	254.46
739.80	254.17
740.13	253.88
740.46	253.50
740.79	253.16
741.12	252.87
741.45	252.56
741.78	252.18
742.11	251.87
742.44	251.56
742.77	251.27
743.10	250.95
743.43	250.64
743.75	250.24
744.08	250.07
744.41	249.81
744.74	249.58
745.07	249.32
745.40	249.10
745.73	248.87
746.06	248.63
746.39	248.40
746.71	248.13
747.04	247.84
747.37	247.60
747.70	247.36
748.03	247.11
748.36	246.87
748.68	246.67
749.01	246.43
749.34	246.23
749.67	246.02
750.00	245.82
750.33	245.73
750.65	245.56
750.98	245.26
751.31	245.07
751.64	244.84
751.97	244.68
752.29	244.43
752.62	244.18
752.95	243.96
753.28	243.75
753.60	243.57
753.93	243.43
754.26	243.28
754.59	243.07
754.91	242.89
755.24	242.72
755.57	242.53
755.90	242.36
756.22	242.15
756.55	241.98
756.88	241.78
757.20	241.54
757.53	241.33
757.86	241.17
758.19	241.00
758.51	240.84
758.84	240.62
759.17	240.48
759.49	240.36
759.82	240.25
760.15	240.10
760.47	239.93
760.80	239.76
761.13	239.62
761.45	239.48
761.78	239.33
762.11	239.18
762.43	239.04
762.76	238.88
763.08	238.76
763.41	238.62
763.74	238.50
764.06	238.37
764.39	238.22
764.71	238.06
765.04	237.87
765.37	237.78
765.69	237.65
766.02	237.48
766.34	237.33
766.67	237.16
767.00	237.04
767.32	236.96
767.65	236.90
767.97	236.76
768.30	236.65
768.62	236.54
768.95	236.41
769.27	236.29
769.60	236.17
769.92	236.04
770.25	235.90
770.57	235.76
770.90	235.65
771.22	235.55
771.55	235.44
771.87	235.38
772.20	235.25
772.52	235.22
772.85	235.27
773.17	235.20
773.50	235.09
773.82	235.00
774.15	234.86
774.47	234.69
774.80	234.59
775.12	234.45
775.45	234.35
775.77	234.28
776.09	234.20
776.42	234.12
776.74	234.06
777.07	233.99
777.39	233.92
777.72	233.85
778.04	233.77
778.36	233.71
778.69	233.62
779.01	233.56
779.33	233.41
779.66	233.22
779.98	233.12
780.31	233.09
780.63	233.07
780.95	233.03
781.28	232.98
781.60	232.90
781.92	232.88
782.25	232.81
782.57	232.75
782.89	232.67
783.22	232.63
783.54	232.57
783.86	232.52
784.19	232.45
784.51	232.42
784.83	232.33
785.16	232.27
785.48	232.25
785.80	232.19
786.12	232.15
786.45	232.12
786.77	232.08
787.09	232.01
787.42	231.94
787.74	231.90
788.06	231.86
788.38	231.88
788.71	231.84
789.03	231.80
789.35	231.79
789.67	231.75
789.99	231.71
790.32	231.66
790.64	231.61
790.96	231.67
791.28	231.59
791.61	231.58
791.93	231.55
792.25	231.49
792.57	231.55
792.89	231.49
793.21	231.45
793.54	231.44
793.86	231.40
794.18	231.38
794.50	231.33
794.82	231.29
795.14	231.23
795.47	231.22
795.79	231.20
796.11	231.13
796.43	231.10
796.75	231.05
797.07	231.01
797.39	230.96
797.71	230.89
798.04	230.88
798.36	230.87
798.68	230.81
799.00	230.81
799.32	230.74
799.64	230.73
799.96	230.69
800.28	230.66
800.60	230.63
800.92	230.58
801.24	230.57
801.56	230.54
801.89	230.48
802.21	230.45
802.53	230.41
802.85	230.41
803.17	230.41
803.49	230.35
803.81	230.33
804.13	230.32
804.45	230.24
804.77	230.22
805.09	230.21
805.41	230.16
805.73	230.06
806.05	229.98
806.37	229.92
806.69	229.86
807.01	229.79
807.33	229.77
807.65	229.69
807.97	229.70
808.28	229.64
808.60	229.60
808.92	229.53
809.24	229.58
809.56	229.49
809.88	229.44
810.20	229.43
810.52	229.40
810.84	229.36
811.16	229.34
811.48	229.27
811.80	229.23
812.12	229.21
812.43	229.18
812.75	229.17
813.07	229.15
813.39	229.11
813.71	229.09
814.03	229.06
814.35	229.04
814.67	228.94
814.98	228.94
815.30	228.92
815.62	228.89
815.94	228.80
816.26	228.85
816.58	228.79
816.89	228.80
817.21	228.75
817.53	228.72
817.85	228.68
818.17	228.64
818.48	228.57
818.80	228.61
819.12	228.61
819.44	228.57
819.76	228.56
820.07	228.58
820.39	228.56
820.71	228.54
821.03	228.53
821.34	228.53
821.66	228.51
821.98	228.52
822.30	228.52
822.61	228.57
822.93	228.51
823.25	228.52
823.57	228.48
823.88	228.53
824.20	228.54
824.52	228.56
824.83	228.58
825.15	228.59
825.47	228.59
825.79	228.60
826.10	228.63
826.42	228.63
826.74	228.62
827.05	228.63
827.37	228.65
827.69	228.66
828.00	228.66
828.32	228.68
828.64	228.68
828.95	228.72
829.27	228.71
829.58	228.69
829.90	228.73
830.22	228.76
830.53	228.69
830.85	228.69
831.17	228.65
831.48	228.65
831.80	228.67
832.11	228.65
832.43	228.64
832.75	228.64
833.06	228.71
833.38	228.73
833.69	228.72
834.01	228.69
834.32	228.65
834.64	228.66
834.96	228.64
835.27	228.64
835.59	228.58
835.90	228.52
836.22	228.55
836.53	228.52
836.85	228.47
837.16	228.56
837.48	228.52
837.79	228.55
838.11	228.56
838.42	228.54
838.74	228.52
839.05	228.51
839.37	228.48
839.68	228.43
840.00	228.40
840.31	228.40
840.63	228.40
840.94	228.43
841.26	228.40
841.57	228.36
841.88	228.35
842.20	228.33
842.51	228.30
842.83	228.27
843.14	228.34
843.46	228.33
843.77	228.27
844.08	228.28
844.40	228.23
844.71	228.20
845.03	228.19
845.34	228.18
845.65	228.14
845.97	228.11
846.28	228.07
846.60	228.04
846.91	227.99
847.22	227.97
847.54	227.95
847.85	227.93
848.16	227.93
848.48	227.89
848.79	227.90
849.10	227.92
849.42	227.90
849.73	227.76
850.04	227.75
850.36	227.73
850.67	227.73
850.98	227.73
851.30	227.73
851.61	227.73
851.92	227.71
852.23	227.72
852.55	227.72
852.86	227.72
853.17	227.68
853.49	227.70
853.80	227.68
854.11	227.67
854.42	227.68
854.74	227.67
855.05	227.68
855.36	227.63
855.67	227.63
855.99	227.61
856.30	227.75
856.61	227.74
856.92	227.73
857.23	227.70
857.55	227.68
857.86	227.68
858.17	227.66
858.48	227.68
858.79	227.67
859.11	227.69
859.42	227.68
859.73	227.69
860.04	227.67
860.35	227.67
860.66	227.64
860.98	227.63
861.29	227.64
861.60	227.61
861.91	227.64
862.22	227.66
862.53	227.67
862.84	227.57
863.16	227.62
863.47	227.63
863.78	227.64
864.09	227.64
864.40	227.68
864.71	227.72
865.02	227.73
865.33	227.73
865.64	227.72
865.95	227.75
866.27	227.84
866.58	227.86
866.89	227.89
867.20	227.90
867.51	227.90
867.82	227.91
868.13	227.97
868.44	227.97
868.75	227.94
869.06	227.95
869.37	227.95
869.68	227.93
869.99	227.91
870.30	227.94
870.61	228.01
870.92	227.96
871.23	227.94
871.54	227.95
871.85	228.00
872.16	228.04
872.47	228.00
872.78	227.97
873.09	227.99
873.40	227.99
873.71	228.01
874.02	228.05
874.33	228.03
874.64	228.00
874.95	228.04
875.26	228.08
875.56	228.08
875.87	228.07
876.18	228.06
876.49	228.19
876.80	228.16
877.11	228.12
877.42	228.13
877.73	228.11
878.04	228.07
878.35	228.04
878.66	228.00
878.96	228.03
879.27	228.02
879.58	227.96
879.89	227.95
880.20	227.97
880.51	227.94
880.82	227.96
881.12	227.96
881.43	227.89
881.74	227.83
882.05	227.80
882.36	227.77
882.67	227.76
882.97	227.64
883.28	227.65
883.59	227.64
883.90	227.62
884.21	227.61
884.51	227.58
884.82	227.54
885.13	227.55
885.44	227.49
885.74	227.45
886.05	227.45
886.36	227.42
886.67	227.36
886.98	227.38
887.28	227.36
887.59	227.34
887.90	227.33
888.20	227.32
888.51	227.32
888.82	227.31
889.13	227.33
889.43	227.36
889.74	227.32
890.05	227.28
890.35	227.29
890.66	227.27
890.97	227.29
891.28	227.29
891.58	227.27
891.89	227.30
892.20	227.28
892.50	227.26
892.81	227.27
893.12	227.28
893.42	227.26
893.73	227.28
894.04	227.31
894.34	227.34
894.65	227.34
894.95	227.37
895.26	227.40
895.57	227.46
895.87	227.39
896.18	227.44
896.48	227.48
896.79	227.46
897.10	227.49
897.40	227.49
897.71	227.53
898.01	227.52
898.32	227.53
898.63	227.54
898.93	227.56
899.24	227.58
899.54	227.59
899.85	227.57
900.15	227.54
900.46	227.55
900.76	227.58
901.07	227.59
901.38	227.55
901.68	227.57
901.99	227.51
902.29	227.55
902.60	227.53
902.90	227.53
903.21	227.56
903.51	227.54
903.82	227.57
904.12	227.57
904.43	227.59
904.73	227.62
905.03	227.66
905.34	227.77
905.64	227.75
905.95	227.76
906.25	227.80
906.56	227.81
906.86	227.78
907.17	227.76
907.47	227.79
907.77	227.83
908.08	227.81
908.38	227.80
908.69	227.81
908.99	227.84
909.30	227.85
909.60	227.86
909.90	227.88
910.21	227.87
910.51	227.84
910.81	227.84
911.12	227.84
911.42	227.84
911.73	227.74
912.03	227.77
912.33	227.78
912.64	227.74
912.94	227.73
913.24	227.75
913.55	227.74
913.85	227.70
914.15	227.72
914.46	227.73
914.76	227.71
915.06	227.70
915.37	227.68
915.67	227.68
915.97	227.62
916.27	227.62
916.58	227.61
916.88	227.63
917.18	227.63
917.49	227.67
917.79	227.66
918.09	227.67
918.39	227.65
918.70	227.63
919.00	227.64
919.30	227.66
919.60	227.63
919.91	227.62
920.21	227.63
920.51	227.57
920.81	227.56
921.12	227.58
921.42	227.55
921.72	227.53
922.02	227.49
922.32	227.49
922.63	227.46
922.93	227.49
923.23	227.48
923.53	227.46
923.83	227.36
924.13	227.36
924.44	227.36
924.74	227.37
925.04	227.41
925.34	227.39
925.64	227.30
925.94	227.30
926.24	227.34
926.55	227.33
926.85	227.35
927.15	227.33
927.45	227.31
927.75	227.30
928.05	227.29
928.35	227.31
928.65	227.35
928.95	227.42
929.26	227.36
929.56	227.34
929.86	227.36
930.16	227.37
930.46	227.39
930.76	227.34
931.06	227.28
931.36	227.21
931.66	227.19
931.96	227.24
932.26	227.22
932.56	227.19
932.86	227.16
933.16	227.14
933.46	227.12
933.76	227.13
934.06	227.20
934.36	227.23
934.66	227.20
934.96	227.16
935.26	227.15
935.56	227.17
935.86	227.15
936.16	227.14
936.46	227.12
936.76	227.08
937.06	227.09
937.36	227.11
937.66	227.16
937.96	227.20
938.26	227.19
938.56	227.21
938.86	227.23
939.16	227.29
939.46	227.31
939.76	227.34
940.06	227.35
940.35	227.32
940.65	227.30
940.95	227.36
941.25	227.37
941.55	227.33
941.85	227.33
942.15	227.38
942.45	227.41
942.75	227.46
943.04	227.47
943.34	227.49
943.64	227.51
943.94	227.51
944.24	227.51
944.54	227.51
944.84	227.54
945.13	227.52
945.43	227.50
945.73	227.52
946.03	227.52
946.33	227.52
946.62	227.50
946.92	227.49
947.22	227.48
947.52	227.51
947.82	227.54
948.11	227.54
948.41	227.52
948.71	227.51
949.01	227.50
949.31	227.48
949.60	227.47
949.90	227.48
950.20	227.46
950.50	227.47
950.79	227.47
951.09	227.50
951.39	227.50
951.69	227.50
951.98	227.46
952.28	227.47
952.58	227.47
952.87	227.48
953.17	227.46
953.47	227.44
953.76	227.43
954.06	227.40
954.36	227.35
954.66	227.36
954.95	227.36
955.25	227.40
955.55	227.42
955.84	227.40
956.14	227.39
956.44	227.37
956.73	227.36
957.03	227.33
957.32	227.29
957.62	227.27
957.92	227.24
958.21	227.25
958.51	227.34
958.81	227.33
959.10	227.32
959.40	227.36
959.69	227.34
959.99	227.34
960.29	227.33
960.58	227.32
960.88	227.34
961.17	227.31
961.47	227.27
961.76	227.25
962.06	227.27
962.36	227.25
962.65	227.22
962.95	227.22
963.24	227.20
963.54	227.19
963.83	227.19
964.13	227.18
964.42	227.17
964.72	227.06
965.01	227.05
965.31	227.07
965.60	227.02
965.90	227.12
966.19	227.09
966.49	227.12
966.78	227.14
967.08	227.13
967.37	227.12
967.67	227.11
967.96	227.13
968.26	227.13
968.55	227.17
968.85	227.18
969.14	227.16
969.43	227.19
969.73	227.18
970.02	227.16
970.32	227.16
970.61	227.14
970.91	227.15
971.20	227.13
971.49	227.09
971.79	227.14
972.08	227.04
972.38	227.07
972.67	227.01
972.96	227.01
973.26	226.99
973.55	227.03
973.85	227.00
974.14	226.94
974.43	226.95
974.73	226.91
975.02	226.92
975.31	226.93
975.61	226.94
975.90	226.95
976.19	226.96
976.49	226.97
976.78	227.00
977.07	227.00
977.37	227.01
977.66	227.04
977.95	227.01
978.24	227.03
978.54	227.06
978.83	227.11
979.12	227.14
979.42	227.14
979.71	227.16
980.00	227.20
980.29	227.24
980.59	227.25
980.88	227.26
981.17	227.28
981.46	227.32
981.76	227.32
982.05	227.38
982.34	227.40
982.63	227.40
982.93	227.42
983.22	227.44
983.51	227.47
983.80	227.50
984.09	227.53
984.39	227.53
984.68	227.52
984.97	227.54
985.26	227.53
985.55	227.52
985.85	227.51
986.14	227.53
986.43	227.53
986.72	227.54
987.01	227.55
987.30	227.53
987.59	227.50
987.89	227.53
988.18	227.46
988.47	227.47
988.76	227.46
989.05	227.46
989.34	227.44
989.63	227.45
989.92	227.43
990.22	227.39
990.51	227.40
990.80	227.36
991.09	227.31
991.38	227.30
991.67	227.32
991.96	227.31
992.25	227.29
992.54	227.27
992.83	227.24
993.12	227.21
993.41	227.23
993.70	227.25
993.99	227.25
994.28	227.26
994.58	227.25
994.87	227.24
995.16	227.23
995.45	227.21
995.74	227.17
996.03	227.19
996.32	227.22
996.61	227.20
996.90	227.20
997.19	227.18
997.48	227.21
997.77	227.17
998.06	227.16
998.34	227.11
998.63	227.10
998.92	227.13
999.21	227.13
999.50	227.12
999.79	227.07
1000.08	227.06
1000.37	227.07
1000.66	227.05
1000.95	227.07
1001.24	227.04
1001.53	227.07
1001.82	227.06
1002.11	227.01
1002.40	227.04
1002.68	227.09
1002.97	227.16
1003.26	227.19
1003.55	227.14
1003.84	227.17
1004.13	227.22
1004.42	227.22
1004.71	227.24
1004.99	227.21
1005.28	227.24
1005.57	227.25
1005.86	227.26
1006.15	227.24
1006.44	227.20
1006.72	227.20
1007.01	227.19
1007.30	227.22
1007.59	227.20
1007.88	227.20
1008.17	227.22
1008.45	227.16
1008.74	227.12
1009.03	227.06
1009.32	227.05
1009.60	227.07
1009.89	227.05
1010.18	227.00
1010.47	227.02
1010.76	227.01
1011.04	227.02
1011.33	227.05
1011.62	227.06
1011.91	227.07
1012.19	227.11
1012.48	227.15
1012.77	227.18
1013.05	227.23
1013.34	227.22
1013.63	227.24
1013.92	227.25
1014.20	227.24
1014.49	227.29
1014.78	227.32
1015.06	227.29
1015.35	227.30
1015.64	227.35
1015.92	227.39
1016.21	227.40
1016.50	227.41
1016.78	227.45
1017.07	227.43
1017.36	227.38
1017.64	227.36
1017.93	227.37
1018.22	227.35
1018.50	227.37
1018.79	227.35
1019.08	227.30
1019.36	227.33
1019.65	227.30
1019.93	227.33
1020.22	227.36
1020.51	227.38
1020.79	227.37
1021.08	227.29
1021.36	227.75
1021.65	226.94
1021.94	227.40
1022.22	227.62
1022.51	226.70
1022.79	227.83
1023.08	227.67
1023.36	228.28
1023.65	227.17
>>>>>End Processed Spectral Data<<<<<
