SpectraSuite Data File
++++++++++++++++++++++++++++++++++++
Date: Fri Feb 01 18:07:18 EST 2013
User: group
Dark Spectrum Present: No
Reference Spectrum Present: No
Number of Sampled Component Spectra: 1
Spectrometers: USB2E7196
Integration Time (usec): 35000 (USB2E7196)
Spectra Averaged: 100 (USB2E7196)
Boxcar Smoothing: 10 (USB2E7196)
Correct for Electrical Dark: No (USB2E7196)
Strobe/Lamp Enabled: No (USB2E7196)
Correct for Detector Non-linearity: No (USB2E7196)
Correct for Stray Light: No (USB2E7196)
Number of Pixels in Processed Spectrum: 2048
>>>>>Begin Processed Spectral Data<<<<<
339.09	0.00
339.48	213.28
339.86	214.18
340.24	215.91
340.63	217.51
341.01	220.05
341.39	219.41
341.78	221.57
342.16	222.64
342.54	223.58
342.93	211.55
343.31	222.25
343.69	222.79
344.07	223.27
344.46	223.70
344.84	224.08
345.22	224.31
345.60	224.60
345.99	224.79
346.37	224.92
346.75	225.01
347.13	225.06
347.52	225.15
347.90	225.22
348.28	225.25
348.66	225.28
349.05	225.34
349.43	225.38
349.81	225.41
350.19	225.47
350.57	225.52
350.96	225.57
351.34	225.66
351.72	225.75
352.10	225.86
352.48	225.92
352.87	225.97
353.25	226.03
353.63	226.08
354.01	226.13
354.39	226.23
354.77	226.26
355.15	226.38
355.54	226.43
355.92	226.45
356.30	226.49
356.68	226.62
357.06	226.65
357.44	226.72
357.82	226.77
358.20	226.83
358.58	226.87
358.97	226.93
359.35	226.99
359.73	227.04
360.11	227.11
360.49	227.20
360.87	227.22
361.25	227.29
361.63	227.36
362.01	227.41
362.39	227.41
362.77	227.48
363.15	227.48
363.53	227.49
363.91	227.52
364.29	227.58
364.67	227.51
365.05	227.50
365.43	227.53
365.81	227.57
366.19	227.60
366.57	227.64
366.95	227.63
367.33	227.60
367.71	227.60
368.09	227.57
368.47	227.54
368.85	227.53
369.23	227.54
369.61	227.49
369.99	227.50
370.37	227.47
370.75	227.49
371.13	227.43
371.51	227.42
371.89	227.37
372.27	227.34
372.65	227.30
373.03	227.28
373.41	227.20
373.78	227.15
374.16	227.10
374.54	227.02
374.92	226.97
375.30	226.95
375.68	226.87
376.06	226.82
376.44	226.73
376.82	226.69
377.19	226.61
377.57	226.54
377.95	226.48
378.33	226.42
378.71	226.32
379.09	226.32
379.47	226.30
379.84	226.24
380.22	226.18
380.60	226.13
380.98	226.07
381.36	226.03
381.73	225.97
382.11	225.93
382.49	225.87
382.87	225.80
383.25	225.75
383.62	225.81
384.00	225.74
384.38	225.70
384.76	225.67
385.13	225.66
385.51	225.65
385.89	225.57
386.27	225.52
386.64	225.51
387.02	225.45
387.40	225.36
387.78	225.34
388.15	225.32
388.53	225.28
388.91	225.27
389.29	225.22
389.66	225.21
390.04	225.16
390.42	225.15
390.79	225.14
391.17	225.11
391.55	225.00
391.92	225.00
392.30	225.01
392.68	225.02
393.05	225.04
393.43	225.02
393.81	225.04
394.18	225.04
394.56	225.02
394.94	225.04
395.31	225.04
395.69	225.10
396.06	225.12
396.44	225.14
396.82	225.15
397.19	225.28
397.57	225.27
397.95	225.34
398.32	225.34
398.70	225.37
399.07	225.45
399.45	225.51
399.82	225.55
400.20	225.62
400.58	225.66
400.95	225.68
401.33	225.76
401.70	225.91
402.08	226.04
402.45	226.14
402.83	226.27
403.20	226.40
403.58	226.48
403.95	226.61
404.33	226.70
404.71	226.85
405.08	227.05
405.46	227.19
405.83	227.36
406.21	227.54
406.58	227.76
406.96	227.93
407.33	228.13
407.70	228.39
408.08	228.71
408.45	228.99
408.83	229.30
409.20	229.59
409.58	229.82
409.95	230.12
410.33	230.47
410.70	230.79
411.08	231.18
411.45	231.61
411.82	232.00
412.20	232.49
412.57	233.03
412.95	233.39
413.32	233.97
413.69	234.53
414.07	235.10
414.44	235.73
414.82	236.38
415.19	237.12
415.56	237.85
415.94	238.57
416.31	239.41
416.68	240.22
417.06	241.19
417.43	242.12
417.81	243.17
418.18	244.23
418.55	245.38
418.93	246.55
419.30	247.73
419.67	249.00
420.04	250.31
420.42	251.64
420.79	253.22
421.16	254.80
421.54	256.40
421.91	258.01
422.28	259.71
422.66	261.54
423.03	263.32
423.40	265.13
423.77	267.05
424.15	269.03
424.52	271.07
424.89	273.23
425.26	275.36
425.64	277.31
426.01	279.45
426.38	281.68
426.75	283.94
427.13	286.35
427.50	288.82
427.87	291.39
428.24	293.91
428.61	296.33
428.99	298.90
429.36	301.76
429.73	304.61
430.10	307.41
430.47	310.19
430.85	313.07
431.22	316.14
431.59	319.38
431.96	322.38
432.33	325.79
432.70	329.05
433.08	332.87
433.45	336.48
433.82	340.05
434.19	344.00
434.56	347.85
434.93	351.44
435.30	355.00
435.68	358.93
436.05	362.79
436.42	366.57
436.79	370.00
437.16	373.65
437.53	377.53
437.90	381.33
438.27	385.01
438.64	388.85
439.01	392.35
439.38	395.39
439.75	398.36
440.13	401.69
440.50	404.82
440.87	407.36
441.24	409.97
441.61	412.90
441.98	414.90
442.35	417.36
442.72	419.86
443.09	422.31
443.46	423.72
443.83	424.56
444.20	425.30
444.57	426.49
444.94	426.88
445.31	427.38
445.68	427.84
446.05	428.00
446.42	427.50
446.79	426.98
447.16	426.44
447.53	426.04
447.90	424.46
448.27	422.90
448.64	420.72
449.01	419.21
449.37	416.53
449.74	413.96
450.11	410.87
450.48	407.50
450.85	404.10
451.22	401.13
451.59	398.36
451.96	395.67
452.33	392.09
452.70	388.92
453.07	385.01
453.43	381.08
453.80	377.35
454.17	373.70
454.54	370.16
454.91	366.44
455.28	362.76
455.65	359.41
456.02	356.04
456.38	353.10
456.75	349.43
457.12	346.33
457.49	343.30
457.86	340.33
458.23	337.77
458.59	334.94
458.96	332.13
459.33	329.59
459.70	327.05
460.07	325.00
460.43	322.64
460.80	320.43
461.17	318.42
461.54	316.30
461.91	314.33
462.27	312.34
462.64	310.55
463.01	308.66
463.38	306.87
463.74	305.03
464.11	303.43
464.48	302.01
464.85	300.51
465.21	299.29
465.58	298.01
465.95	296.52
466.32	295.25
466.68	293.97
467.05	292.71
467.42	291.50
467.78	290.19
468.15	289.00
468.52	288.04
468.88	286.84
469.25	285.80
469.62	284.93
469.98	284.01
470.35	283.15
470.72	282.36
471.08	281.46
471.45	280.71
471.82	279.95
472.18	279.14
472.55	278.53
472.92	277.81
473.28	277.15
473.65	276.55
474.02	275.94
474.38	275.40
474.75	274.96
475.11	274.47
475.48	274.09
475.85	273.70
476.21	273.36
476.58	273.11
476.94	272.86
477.31	272.59
477.67	272.36
478.04	272.14
478.41	271.98
478.77	271.94
479.14	271.78
479.50	271.73
479.87	271.77
480.23	271.76
480.60	271.75
480.96	271.78
481.33	271.93
481.69	272.10
482.06	272.25
482.42	272.38
482.79	272.54
483.15	272.82
483.52	273.17
483.88	273.49
484.25	273.82
484.61	274.25
484.98	274.69
485.34	275.23
485.71	275.85
486.07	276.49
486.44	277.06
486.80	277.76
487.17	278.48
487.53	279.30
487.90	280.19
488.26	281.15
488.62	282.20
488.99	283.19
489.35	284.30
489.72	285.48
490.08	286.74
490.44	288.07
490.81	289.48
491.17	290.91
491.54	292.47
491.90	294.10
492.26	295.80
492.63	297.61
492.99	299.47
493.36	301.46
493.72	303.60
494.08	305.82
494.45	308.16
494.81	310.65
495.17	313.23
495.54	315.96
495.90	318.80
496.26	321.77
496.63	324.90
496.99	328.16
497.35	331.54
497.72	335.16
498.08	338.92
498.44	342.81
498.80	346.97
499.17	351.23
499.53	355.66
499.89	360.33
500.26	365.12
500.62	370.06
500.98	375.34
501.34	380.69
501.71	386.34
502.07	392.17
502.43	398.19
502.79	404.41
503.16	410.82
503.52	417.46
503.88	424.27
504.24	431.34
504.60	438.68
504.97	446.30
505.33	454.06
505.69	462.25
506.05	470.59
506.41	478.97
506.78	487.68
507.14	496.72
507.50	506.01
507.86	515.63
508.22	525.51
508.59	535.43
508.95	545.68
509.31	556.11
509.67	566.88
510.03	577.89
510.39	589.13
510.75	600.72
511.12	612.61
511.48	624.76
511.84	637.09
512.20	649.39
512.56	662.28
512.92	675.36
513.28	688.71
513.64	702.09
514.00	715.83
514.37	729.78
514.73	743.84
515.09	757.91
515.45	772.32
515.81	786.96
516.17	801.98
516.53	817.31
516.89	832.73
517.25	848.08
517.61	863.74
517.97	879.51
518.33	895.15
518.69	911.18
519.05	927.44
519.41	944.01
519.77	960.98
520.13	977.93
520.49	994.80
520.85	1011.52
521.21	1028.66
521.57	1046.47
521.93	1063.76
522.29	1081.61
522.65	1099.51
523.01	1117.20
523.37	1134.84
523.73	1152.66
524.09	1170.32
524.45	1188.41
524.81	1206.95
525.17	1225.45
525.53	1244.16
525.89	1262.86
526.25	1281.44
526.61	1299.59
526.97	1318.06
527.33	1336.29
527.68	1354.71
528.04	1373.10
528.40	1391.63
528.76	1410.64
529.12	1429.16
529.48	1448.10
529.84	1466.21
530.20	1484.81
530.56	1503.91
530.91	1523.42
531.27	1542.30
531.63	1560.90
531.99	1579.48
532.35	1597.47
532.71	1615.48
533.07	1633.72
533.42	1651.77
533.78	1669.91
534.14	1688.54
534.50	1706.07
534.86	1724.23
535.21	1741.47
535.57	1759.53
535.93	1777.24
536.29	1794.19
536.65	1811.53
537.00	1828.33
537.36	1845.93
537.72	1862.68
538.08	1879.39
538.44	1895.42
538.79	1911.53
539.15	1927.41
539.51	1943.36
539.87	1959.91
540.22	1975.91
540.58	1991.97
540.94	2007.57
541.29	2022.76
541.65	2037.68
542.01	2053.29
542.37	2067.95
542.72	2082.63
543.08	2096.87
543.44	2111.68
543.79	2125.30
544.15	2138.42
544.51	2152.41
544.87	2165.66
545.22	2178.86
545.58	2191.37
545.94	2203.42
546.29	2215.58
546.65	2227.84
547.01	2239.35
547.36	2250.21
547.72	2260.83
548.07	2270.97
548.43	2281.31
548.79	2291.44
549.14	2301.09
549.50	2310.29
549.86	2320.05
550.21	2329.48
550.57	2338.74
550.92	2347.22
551.28	2356.34
551.64	2365.53
551.99	2374.11
552.35	2382.20
552.70	2390.26
553.06	2398.13
553.41	2406.45
553.77	2414.18
554.13	2422.23
554.48	2430.47
554.84	2438.05
555.19	2445.15
555.55	2452.18
555.90	2458.31
556.26	2465.26
556.61	2471.73
556.97	2478.01
557.32	2483.86
557.68	2489.77
558.03	2495.71
558.39	2501.07
558.74	2507.53
559.10	2513.15
559.45	2518.32
559.81	2524.21
560.16	2529.45
560.52	2534.31
560.87	2539.17
561.23	2543.42
561.58	2547.46
561.94	2551.37
562.29	2554.91
562.64	2559.10
563.00	2562.98
563.35	2567.88
563.71	2572.17
564.06	2576.69
564.42	2580.82
564.77	2584.67
565.12	2588.22
565.48	2591.31
565.83	2594.49
566.19	2596.79
566.54	2598.42
566.89	2600.85
567.25	2602.45
567.60	2604.89
567.96	2607.67
568.31	2609.43
568.66	2611.69
569.02	2613.48
569.37	2614.47
569.72	2616.33
570.08	2617.32
570.43	2618.19
570.78	2618.55
571.14	2617.67
571.49	2616.84
571.84	2617.21
572.20	2616.65
572.55	2616.18
572.90	2615.05
573.26	2614.33
573.61	2613.03
573.96	2612.06
574.31	2609.39
574.67	2606.79
575.02	2603.40
575.37	2600.17
575.72	2596.69
576.08	2593.27
576.43	2589.93
576.78	2586.53
577.13	2583.47
577.49	2580.34
577.84	2576.81
578.19	2573.08
578.54	2569.56
578.90	2565.45
579.25	2559.62
579.60	2554.37
579.95	2549.28
580.30	2543.95
580.66	2538.32
581.01	2533.01
581.36	2527.71
581.71	2523.20
582.06	2518.47
582.42	2513.83
582.77	2508.17
583.12	2503.26
583.47	2498.34
583.82	2493.07
584.17	2487.39
584.53	2481.39
584.88	2475.36
585.23	2469.10
585.58	2462.93
585.93	2456.90
586.28	2451.53
586.63	2446.11
586.98	2440.76
587.34	2435.29
587.69	2429.99
588.04	2424.24
588.39	2418.10
588.74	2410.89
589.09	2404.04
589.44	2396.50
589.79	2389.53
590.14	2383.36
590.49	2375.96
590.84	2368.71
591.19	2361.96
591.54	2354.58
591.89	2346.52
592.25	2338.86
592.60	2330.74
592.95	2322.45
593.30	2314.14
593.65	2305.55
594.00	2297.43
594.35	2288.95
594.70	2279.95
595.05	2271.90
595.40	2263.45
595.75	2254.88
596.10	2247.76
596.45	2240.05
596.80	2232.96
597.15	2225.65
597.50	2217.40
597.85	2209.85
598.19	2202.11
598.54	2193.95
598.89	2186.38
599.24	2179.43
599.59	2171.87
599.94	2164.77
600.29	2157.35
600.64	2149.63
600.99	2141.11
601.34	2133.13
601.69	2125.19
602.04	2117.25
602.39	2108.59
602.74	2100.78
603.08	2092.95
603.43	2084.99
603.78	2076.46
604.13	2068.04
604.48	2059.46
604.83	2051.52
605.18	2043.56
605.53	2034.32
605.87	2024.81
606.22	2016.29
606.57	2006.94
606.92	1998.12
607.27	1989.84
607.62	1981.54
607.96	1973.01
608.31	1965.17
608.66	1956.34
609.01	1947.41
609.36	1938.46
609.70	1928.97
610.05	1919.48
610.40	1910.44
610.75	1900.75
611.10	1891.72
611.44	1881.71
611.79	1872.25
612.14	1861.95
612.49	1851.03
612.83	1841.11
613.18	1831.62
613.53	1822.12
613.88	1811.98
614.22	1802.23
614.57	1791.84
614.92	1782.41
615.27	1773.54
615.61	1763.82
615.96	1754.16
616.31	1745.05
616.65	1736.31
617.00	1727.42
617.35	1718.26
617.70	1708.37
618.04	1698.28
618.39	1688.49
618.74	1679.52
619.08	1669.68
619.43	1660.70
619.78	1652.48
620.12	1644.04
620.47	1635.18
620.82	1625.48
621.16	1616.77
621.51	1607.74
621.85	1598.62
622.20	1588.63
622.55	1578.67
622.89	1569.28
623.24	1560.26
623.59	1551.56
623.93	1542.62
624.28	1534.07
624.62	1525.16
624.97	1516.51
625.32	1508.47
625.66	1500.14
626.01	1491.63
626.35	1482.93
626.70	1473.79
627.04	1464.77
627.39	1455.49
627.73	1446.67
628.08	1438.46
628.43	1429.86
628.77	1421.21
629.12	1412.36
629.46	1403.87
629.81	1395.08
630.15	1386.47
630.50	1377.88
630.84	1368.28
631.19	1358.89
631.53	1350.04
631.88	1341.20
632.22	1332.38
632.57	1323.84
632.91	1315.03
633.26	1306.37
633.60	1297.53
633.95	1288.94
634.29	1280.55
634.64	1272.73
634.98	1264.01
635.32	1255.50
635.67	1247.62
636.01	1239.75
636.36	1231.76
636.70	1223.98
637.05	1216.18
637.39	1208.61
637.73	1200.90
638.08	1193.98
638.42	1186.95
638.77	1179.24
639.11	1171.42
639.45	1163.86
639.80	1155.97
640.14	1148.44
640.49	1140.74
640.83	1133.36
641.17	1126.23
641.52	1118.83
641.86	1111.27
642.20	1104.42
642.55	1096.94
642.89	1089.36
643.23	1081.70
643.58	1074.92
643.92	1067.80
644.26	1060.82
644.61	1053.69
644.95	1046.63
645.29	1038.84
645.64	1031.00
645.98	1023.67
646.32	1016.78
646.66	1009.72
647.01	1002.98
647.35	996.32
647.69	989.49
648.04	982.96
648.38	976.15
648.72	969.16
649.06	962.12
649.41	955.21
649.75	948.40
650.09	941.51
650.43	934.82
650.78	927.72
651.12	920.70
651.46	913.98
651.80	907.37
652.14	901.12
652.49	894.89
652.83	888.84
653.17	882.24
653.51	875.73
653.85	869.44
654.20	862.81
654.54	855.83
654.88	849.16
655.22	842.35
655.56	835.76
655.90	829.37
656.25	823.26
656.59	817.07
656.93	811.16
657.27	805.11
657.61	798.68
657.95	792.71
658.29	786.81
658.64	780.63
658.98	774.40
659.32	767.99
659.66	761.98
660.00	755.84
660.34	750.12
660.68	744.32
661.02	738.43
661.36	733.00
661.70	727.72
662.05	722.60
662.39	717.55
662.73	712.33
663.07	707.21
663.41	702.04
663.75	696.84
664.09	691.52
664.43	686.47
664.77	681.77
665.11	676.84
665.45	671.97
665.79	667.32
666.13	662.61
666.47	657.92
666.81	653.03
667.15	648.26
667.49	643.66
667.83	639.25
668.17	634.81
668.51	630.09
668.85	625.45
669.19	620.99
669.53	616.64
669.87	612.19
670.21	607.91
670.55	603.66
670.89	599.66
671.23	595.62
671.57	591.52
671.91	587.44
672.25	583.29
672.58	579.22
672.92	575.24
673.26	571.53
673.60	567.79
673.94	564.21
674.28	560.79
674.62	557.38
674.96	553.81
675.30	550.43
675.64	547.06
675.97	543.84
676.31	540.55
676.65	537.10
676.99	533.89
677.33	530.63
677.67	527.37
678.01	523.86
678.34	520.55
678.68	517.18
679.02	513.88
679.36	510.72
679.70	507.60
680.04	504.39
680.37	501.13
680.71	497.95
681.05	494.88
681.39	491.73
681.73	488.66
682.06	485.78
682.40	482.80
682.74	479.80
683.08	476.83
683.42	473.78
683.75	470.88
684.09	467.98
684.43	465.09
684.77	462.19
685.10	459.45
685.44	456.74
685.78	454.10
686.12	451.47
686.45	448.82
686.79	446.14
687.13	443.57
687.46	440.99
687.80	438.44
688.14	435.85
688.48	433.41
688.81	430.74
689.15	428.15
689.49	425.64
689.82	423.28
690.16	420.81
690.50	418.55
690.83	416.30
691.17	413.97
691.51	411.74
691.84	409.62
692.18	407.38
692.52	405.02
692.85	402.75
693.19	400.57
693.52	398.42
693.86	396.34
694.20	394.29
694.53	392.22
694.87	390.08
695.21	387.99
695.54	385.87
695.88	383.89
696.21	381.86
696.55	379.88
696.88	377.89
697.22	375.97
697.56	374.09
697.89	372.15
698.23	370.32
698.56	368.47
698.90	366.61
699.23	364.72
699.57	362.94
699.90	361.17
700.24	359.38
700.58	357.60
700.91	355.85
701.25	354.13
701.58	352.51
701.92	350.92
702.25	349.32
702.59	347.76
702.92	346.23
703.26	344.73
703.59	343.31
703.93	341.92
704.26	340.46
704.60	338.92
704.93	337.43
705.26	336.00
705.60	334.58
705.93	333.22
706.27	332.00
706.60	330.74
706.94	329.44
707.27	328.11
707.61	326.83
707.94	325.62
708.27	324.35
708.61	323.03
708.94	321.86
709.28	320.75
709.61	319.61
709.94	318.48
710.28	317.30
710.61	316.09
710.95	314.85
711.28	313.78
711.61	312.65
711.95	311.61
712.28	310.46
712.61	309.33
712.95	308.20
713.28	307.15
713.61	306.09
713.95	305.05
714.28	304.04
714.61	303.03
714.95	302.03
715.28	301.03
715.61	300.03
715.95	298.99
716.28	297.97
716.61	296.99
716.95	296.00
717.28	295.11
717.61	294.21
717.94	293.29
718.28	292.32
718.61	291.50
718.94	290.65
719.27	289.88
719.61	289.12
719.94	288.39
720.27	287.59
720.60	286.80
720.94	286.12
721.27	285.42
721.60	284.73
721.93	283.99
722.27	283.33
722.60	282.71
722.93	282.02
723.26	281.41
723.59	280.80
723.93	280.21
724.26	279.54
724.59	278.86
724.92	278.29
725.25	277.73
725.59	277.14
725.92	276.55
726.25	275.94
726.58	275.35
726.91	274.74
727.24	274.18
727.57	273.67
727.91	273.03
728.24	272.49
728.57	271.97
728.90	271.46
729.23	270.91
729.56	270.40
729.89	269.88
730.22	269.28
730.55	268.74
730.89	268.19
731.22	267.72
731.55	267.22
731.88	266.68
732.21	266.15
732.54	265.61
732.87	265.11
733.20	264.63
733.53	264.19
733.86	263.77
734.19	263.28
734.52	262.85
734.85	262.51
735.18	262.01
735.51	261.59
735.84	261.14
736.17	260.74
736.50	260.28
736.83	260.00
737.16	259.65
737.49	259.24
737.82	258.85
738.15	258.44
738.48	258.05
738.81	257.70
739.14	257.32
739.47	256.99
739.80	256.65
740.13	256.30
740.46	255.89
740.79	255.50
741.12	255.18
741.45	254.81
741.78	254.39
742.11	254.10
742.44	253.69
742.77	253.37
743.10	252.99
743.43	252.63
743.75	252.20
744.08	251.98
744.41	251.65
744.74	251.32
745.07	251.00
745.40	250.70
745.73	250.43
746.06	250.12
746.39	249.80
746.71	249.48
747.04	249.15
747.37	248.85
747.70	248.58
748.03	248.27
748.36	247.99
748.68	247.74
749.01	247.43
749.34	247.16
749.67	246.90
750.00	246.68
750.33	246.50
750.65	246.26
750.98	245.88
751.31	245.62
751.64	245.42
751.97	245.22
752.29	244.96
752.62	244.66
752.95	244.42
753.28	244.21
753.60	243.96
753.93	243.75
754.26	243.52
754.59	243.22
754.91	242.99
755.24	242.72
755.57	242.47
755.90	242.25
756.22	242.04
756.55	241.83
756.88	241.58
757.20	241.31
757.53	241.06
757.86	240.86
758.19	240.65
758.51	240.39
758.84	240.16
759.17	239.96
759.49	239.75
759.82	239.65
760.15	239.46
760.47	239.31
760.80	239.14
761.13	239.00
761.45	238.86
761.78	238.69
762.11	238.53
762.43	238.36
762.76	238.19
763.08	238.02
763.41	237.87
763.74	237.75
764.06	237.57
764.39	237.46
764.71	237.29
765.04	237.16
765.37	237.05
765.69	236.89
766.02	236.79
766.34	236.68
766.67	236.51
767.00	236.37
767.32	236.25
767.65	236.15
767.97	236.02
768.30	235.88
768.62	235.75
768.95	235.62
769.27	235.51
769.60	235.41
769.92	235.31
770.25	235.17
770.57	235.01
770.90	234.89
771.22	234.75
771.55	234.65
771.87	234.56
772.20	234.42
772.52	234.40
772.85	234.38
773.17	234.25
773.50	234.13
773.82	234.01
774.15	233.86
774.47	233.73
774.80	233.62
775.12	233.53
775.45	233.46
775.77	233.39
776.09	233.29
776.42	233.19
776.74	233.13
777.07	233.07
777.39	233.00
777.72	232.95
778.04	232.89
778.36	232.83
778.69	232.72
779.01	232.67
779.33	232.51
779.66	232.27
779.98	232.19
780.31	232.11
780.63	232.10
780.95	232.06
781.28	231.94
781.60	231.85
781.92	231.75
782.25	231.67
782.57	231.61
782.89	231.53
783.22	231.48
783.54	231.37
783.86	231.28
784.19	231.20
784.51	231.14
784.83	231.05
785.16	230.98
785.48	230.94
785.80	230.88
786.12	230.84
786.45	230.81
786.77	230.80
787.09	230.73
787.42	230.63
787.74	230.57
788.06	230.54
788.38	230.49
788.71	230.47
789.03	230.41
789.35	230.37
789.67	230.29
789.99	230.22
790.32	230.16
790.64	230.12
790.96	230.16
791.28	230.05
791.61	230.00
791.93	229.94
792.25	229.89
792.57	229.89
792.89	229.81
793.21	229.77
793.54	229.67
793.86	229.60
794.18	229.56
794.50	229.50
794.82	229.45
795.14	229.44
795.47	229.42
795.79	229.35
796.11	229.26
796.43	229.22
796.75	229.20
797.07	229.17
797.39	229.11
797.71	228.99
798.04	228.96
798.36	228.91
798.68	228.88
799.00	228.84
799.32	228.74
799.64	228.74
799.96	228.73
800.28	228.73
800.60	228.70
800.92	228.67
801.24	228.58
801.56	228.54
801.89	228.47
802.21	228.43
802.53	228.42
802.85	228.42
803.17	228.46
803.49	228.41
803.81	228.39
804.13	228.34
804.45	228.35
804.77	228.30
805.09	228.29
805.41	228.21
805.73	228.18
806.05	228.15
806.37	228.10
806.69	228.03
807.01	227.99
807.33	227.97
807.65	227.91
807.97	227.97
808.28	227.97
808.60	227.93
808.92	227.91
809.24	227.96
809.56	227.89
809.88	227.83
810.20	227.78
810.52	227.76
810.84	227.76
811.16	227.70
811.48	227.72
811.80	227.71
812.12	227.69
812.43	227.69
812.75	227.64
813.07	227.62
813.39	227.65
813.71	227.63
814.03	227.56
814.35	227.56
814.67	227.50
814.98	227.48
815.30	227.47
815.62	227.41
815.94	227.30
816.26	227.35
816.58	227.31
816.89	227.32
817.21	227.27
817.53	227.24
817.85	227.21
818.17	227.17
818.48	227.12
818.80	227.16
819.12	227.11
819.44	227.08
819.76	227.04
820.07	227.00
820.39	226.94
820.71	226.97
821.03	226.96
821.34	226.92
821.66	226.91
821.98	226.89
822.30	226.87
822.61	226.93
822.93	226.86
823.25	226.84
823.57	226.80
823.88	226.81
824.20	226.81
824.52	226.80
824.83	226.78
825.15	226.76
825.47	226.73
825.79	226.72
826.10	226.69
826.42	226.68
826.74	226.66
827.05	226.68
827.37	226.64
827.69	226.58
828.00	226.56
828.32	226.53
828.64	226.51
828.95	226.59
829.27	226.52
829.58	226.51
829.90	226.53
830.22	226.51
830.53	226.49
830.85	226.43
831.17	226.41
831.48	226.40
831.80	226.39
832.11	226.36
832.43	226.36
832.75	226.40
833.06	226.45
833.38	226.42
833.69	226.41
834.01	226.41
834.32	226.38
834.64	226.34
834.96	226.35
835.27	226.36
835.59	226.31
835.90	226.28
836.22	226.22
836.53	226.18
836.85	226.18
837.16	226.26
837.48	226.23
837.79	226.26
838.11	226.24
838.42	226.26
838.74	226.25
839.05	226.21
839.37	226.18
839.68	226.12
840.00	226.07
840.31	226.05
840.63	226.05
840.94	226.09
841.26	226.11
841.57	226.11
841.88	226.10
842.20	226.07
842.51	226.06
842.83	226.07
843.14	226.15
843.46	226.16
843.77	226.12
844.08	226.13
844.40	226.10
844.71	226.11
845.03	226.08
845.34	226.07
845.65	226.08
845.97	226.09
846.28	226.09
846.60	226.13
846.91	226.10
847.22	226.09
847.54	226.10
847.85	226.08
848.16	226.05
848.48	226.02
848.79	226.06
849.10	226.09
849.42	226.10
849.73	226.03
850.04	226.02
850.36	225.97
850.67	226.00
850.98	225.95
851.30	225.95
851.61	225.93
851.92	225.98
852.23	225.99
852.55	226.02
852.86	226.01
853.17	225.99
853.49	226.01
853.80	226.04
854.11	226.05
854.42	226.07
854.74	226.02
855.05	226.04
855.36	225.99
855.67	225.93
855.99	225.91
856.30	225.98
856.61	225.95
856.92	225.92
857.23	225.90
857.55	225.93
857.86	225.88
858.17	225.91
858.48	225.83
858.79	225.78
859.11	225.79
859.42	225.76
859.73	225.76
860.04	225.76
860.35	225.69
860.66	225.66
860.98	225.65
861.29	225.68
861.60	225.66
861.91	225.65
862.22	225.66
862.53	225.64
862.84	225.55
863.16	225.60
863.47	225.59
863.78	225.57
864.09	225.57
864.40	225.57
864.71	225.57
865.02	225.60
865.33	225.59
865.64	225.54
865.95	225.55
866.27	225.63
866.58	225.62
866.89	225.64
867.20	225.59
867.51	225.54
867.82	225.54
868.13	225.55
868.44	225.55
868.75	225.56
869.06	225.56
869.37	225.53
869.68	225.48
869.99	225.50
870.30	225.49
870.61	225.47
870.92	225.46
871.23	225.43
871.54	225.44
871.85	225.45
872.16	225.43
872.47	225.42
872.78	225.34
873.09	225.35
873.40	225.33
873.71	225.37
874.02	225.40
874.33	225.36
874.64	225.35
874.95	225.35
875.26	225.36
875.56	225.34
875.87	225.38
876.18	225.39
876.49	225.49
876.80	225.50
877.11	225.49
877.42	225.53
877.73	225.52
878.04	225.47
878.35	225.48
878.66	225.50
878.96	225.52
879.27	225.49
879.58	225.46
879.89	225.46
880.20	225.53
880.51	225.52
880.82	225.52
881.12	225.52
881.43	225.53
881.74	225.50
882.05	225.50
882.36	225.48
882.67	225.49
882.97	225.34
883.28	225.33
883.59	225.34
883.90	225.32
884.21	225.34
884.51	225.35
884.82	225.33
885.13	225.32
885.44	225.26
885.74	225.31
886.05	225.33
886.36	225.33
886.67	225.25
886.98	225.28
887.28	225.27
887.59	225.28
887.90	225.29
888.20	225.30
888.51	225.34
888.82	225.34
889.13	225.31
889.43	225.40
889.74	225.39
890.05	225.39
890.35	225.37
890.66	225.36
890.97	225.33
891.28	225.32
891.58	225.31
891.89	225.37
892.20	225.33
892.50	225.25
892.81	225.27
893.12	225.26
893.42	225.20
893.73	225.24
894.04	225.22
894.34	225.23
894.65	225.21
894.95	225.18
895.26	225.18
895.57	225.23
895.87	225.15
896.18	225.16
896.48	225.13
896.79	225.11
897.10	225.12
897.40	225.13
897.71	225.10
898.01	225.11
898.32	225.11
898.63	225.12
898.93	225.16
899.24	225.14
899.54	225.14
899.85	225.15
900.15	225.10
900.46	225.08
900.76	225.04
901.07	225.01
901.38	224.98
901.68	224.99
901.99	224.90
902.29	224.91
902.60	224.89
902.90	224.91
903.21	224.89
903.51	224.86
903.82	224.94
904.12	224.97
904.43	224.95
904.73	224.90
905.03	224.90
905.34	224.96
905.64	224.95
905.95	224.94
906.25	224.91
906.56	224.91
906.86	224.90
907.17	224.86
907.47	224.87
907.77	224.88
908.08	224.84
908.38	224.89
908.69	224.87
908.99	224.91
909.30	224.92
909.60	224.92
909.90	224.96
910.21	224.89
910.51	224.88
910.81	224.88
911.12	224.90
911.42	224.88
911.73	224.81
912.03	224.85
912.33	224.87
912.64	224.90
912.94	224.91
913.24	224.89
913.55	224.92
913.85	224.94
914.15	224.98
914.46	225.01
914.76	224.99
915.06	225.00
915.37	224.96
915.67	224.92
915.97	224.98
916.27	224.94
916.58	224.94
916.88	224.95
917.18	224.97
917.49	225.02
917.79	225.07
918.09	225.10
918.39	225.11
918.70	225.12
919.00	225.12
919.30	225.15
919.60	225.19
919.91	225.20
920.21	225.21
920.51	225.19
920.81	225.19
921.12	225.21
921.42	225.22
921.72	225.25
922.02	225.26
922.32	225.26
922.63	225.27
922.93	225.34
923.23	225.34
923.53	225.34
923.83	225.30
924.13	225.28
924.44	225.27
924.74	225.27
925.04	225.28
925.34	225.31
925.64	225.27
925.94	225.27
926.24	225.34
926.55	225.32
926.85	225.32
927.15	225.34
927.45	225.34
927.75	225.34
928.05	225.37
928.35	225.35
928.65	225.37
928.95	225.36
929.26	225.35
929.56	225.38
929.86	225.39
930.16	225.38
930.46	225.39
930.76	225.39
931.06	225.34
931.36	225.31
931.66	225.29
931.96	225.31
932.26	225.29
932.56	225.26
932.86	225.26
933.16	225.26
933.46	225.24
933.76	225.22
934.06	225.25
934.36	225.26
934.66	225.28
934.96	225.26
935.26	225.25
935.56	225.23
935.86	225.18
936.16	225.12
936.46	225.11
936.76	225.12
937.06	225.10
937.36	225.11
937.66	225.13
937.96	225.12
938.26	225.10
938.56	225.09
938.86	225.09
939.16	225.11
939.46	225.10
939.76	225.13
940.06	225.14
940.35	225.08
940.65	225.01
940.95	224.99
941.25	224.98
941.55	224.96
941.85	224.94
942.15	224.99
942.45	225.03
942.75	225.03
943.04	224.99
943.34	225.02
943.64	224.98
943.94	224.94
944.24	224.96
944.54	224.93
944.84	224.92
945.13	224.88
945.43	224.85
945.73	224.86
946.03	224.84
946.33	224.83
946.62	224.80
946.92	224.82
947.22	224.82
947.52	224.80
947.82	224.80
948.11	224.81
948.41	224.75
948.71	224.71
949.01	224.73
949.31	224.72
949.60	224.71
949.90	224.75
950.20	224.77
950.50	224.74
950.79	224.77
951.09	224.78
951.39	224.79
951.69	224.79
951.98	224.81
952.28	224.80
952.58	224.76
952.87	224.77
953.17	224.77
953.47	224.78
953.76	224.78
954.06	224.79
954.36	224.76
954.66	224.77
954.95	224.83
955.25	224.84
955.55	224.89
955.84	224.86
956.14	224.85
956.44	224.82
956.73	224.85
957.03	224.87
957.32	224.88
957.62	224.89
957.92	224.91
958.21	224.91
958.51	225.05
958.81	225.09
959.10	225.11
959.40	225.14
959.69	225.13
959.99	225.18
960.29	225.23
960.58	225.23
960.88	225.26
961.17	225.27
961.47	225.28
961.76	225.25
962.06	225.28
962.36	225.29
962.65	225.33
962.95	225.32
963.24	225.31
963.54	225.34
963.83	225.36
964.13	225.40
964.42	225.37
964.72	225.27
965.01	225.28
965.31	225.29
965.60	225.25
965.90	225.33
966.19	225.29
966.49	225.25
966.78	225.29
967.08	225.30
967.37	225.26
967.67	225.25
967.96	225.26
968.26	225.26
968.55	225.28
968.85	225.30
969.14	225.29
969.43	225.29
969.73	225.26
970.02	225.25
970.32	225.23
970.61	225.21
970.91	225.17
971.20	225.14
971.49	225.12
971.79	225.18
972.08	225.09
972.38	225.11
972.67	225.09
972.96	225.09
973.26	225.04
973.55	225.09
973.85	225.06
974.14	225.05
974.43	225.06
974.73	225.02
975.02	224.96
975.31	224.97
975.61	224.93
975.90	224.91
976.19	224.89
976.49	224.89
976.78	224.90
977.07	224.91
977.37	224.94
977.66	224.96
977.95	224.88
978.24	224.90
978.54	224.87
978.83	224.86
979.12	224.86
979.42	224.85
979.71	224.83
980.00	224.82
980.29	224.81
980.59	224.79
980.88	224.80
981.17	224.80
981.46	224.81
981.76	224.80
982.05	224.81
982.34	224.82
982.63	224.80
982.93	224.81
983.22	224.81
983.51	224.78
983.80	224.78
984.09	224.80
984.39	224.81
984.68	224.82
984.97	224.85
985.26	224.79
985.55	224.81
985.85	224.75
986.14	224.76
986.43	224.76
986.72	224.75
987.01	224.73
987.30	224.73
987.59	224.72
987.89	224.73
988.18	224.74
988.47	224.72
988.76	224.72
989.05	224.68
989.34	224.66
989.63	224.70
989.92	224.67
990.22	224.68
990.51	224.63
990.80	224.65
991.09	224.66
991.38	224.73
991.67	224.75
991.96	224.74
992.25	224.77
992.54	224.77
992.83	224.76
993.12	224.78
993.41	224.79
993.70	224.83
993.99	224.88
994.28	224.88
994.58	224.90
994.87	224.90
995.16	224.92
995.45	224.95
995.74	224.94
996.03	224.99
996.32	225.00
996.61	225.07
996.90	225.05
997.19	225.04
997.48	225.03
997.77	225.00
998.06	225.07
998.34	225.04
998.63	225.06
998.92	225.10
999.21	225.08
999.50	225.12
999.79	225.06
1000.08	225.02
1000.37	225.01
1000.66	225.02
1000.95	225.04
1001.24	225.05
1001.53	225.04
1001.82	225.04
1002.11	224.99
1002.40	224.97
1002.68	224.98
1002.97	225.09
1003.26	225.04
1003.55	225.03
1003.84	225.08
1004.13	225.13
1004.42	225.13
1004.71	225.12
1004.99	225.07
1005.28	225.13
1005.57	225.09
1005.86	225.11
1006.15	225.07
1006.44	225.09
1006.72	225.07
1007.01	225.03
1007.30	225.01
1007.59	225.00
1007.88	224.99
1008.17	224.99
1008.45	225.01
1008.74	224.94
1009.03	224.88
1009.32	224.93
1009.60	224.88
1009.89	224.85
1010.18	224.77
1010.47	224.76
1010.76	224.77
1011.04	224.79
1011.33	224.86
1011.62	224.89
1011.91	224.88
1012.19	224.91
1012.48	224.93
1012.77	224.93
1013.05	225.01
1013.34	225.01
1013.63	225.02
1013.92	225.02
1014.20	225.05
1014.49	225.01
1014.78	225.05
1015.06	224.99
1015.35	224.99
1015.64	225.02
1015.92	225.04
1016.21	225.06
1016.50	225.06
1016.78	225.02
1017.07	225.01
1017.36	224.91
1017.64	224.90
1017.93	224.92
1018.22	224.92
1018.50	224.91
1018.79	224.86
1019.08	224.80
1019.36	224.81
1019.65	224.79
1019.93	224.79
1020.22	224.76
1020.51	224.82
1020.79	224.80
1021.08	224.84
1021.36	224.96
1021.65	224.07
1021.94	224.78
1022.22	224.77
1022.51	224.52
1022.79	224.83
1023.08	224.56
1023.36	225.84
1023.65	224.34
>>>>>End Processed Spectral Data<<<<<
