SpectraSuite Data File
++++++++++++++++++++++++++++++++++++
Date: Fri Feb 01 15:09:52 EST 2013
User: group
Dark Spectrum Present: No
Reference Spectrum Present: No
Number of Sampled Component Spectra: 1
Spectrometers: USB2E7196
Integration Time (usec): 35000 (USB2E7196)
Spectra Averaged: 100 (USB2E7196)
Boxcar Smoothing: 10 (USB2E7196)
Correct for Electrical Dark: No (USB2E7196)
Strobe/Lamp Enabled: No (USB2E7196)
Correct for Detector Non-linearity: No (USB2E7196)
Correct for Stray Light: No (USB2E7196)
Number of Pixels in Processed Spectrum: 2048
>>>>>Begin Processed Spectral Data<<<<<
339.09	0.00
339.48	215.42
339.86	216.95
340.24	217.28
340.63	219.63
341.01	222.15
341.39	222.08
341.78	222.73
342.16	224.31
342.54	224.88
342.93	213.31
343.31	224.09
343.69	224.63
344.07	225.09
344.46	225.55
344.84	225.92
345.22	226.15
345.60	226.37
345.99	226.63
346.37	226.74
346.75	226.84
347.13	226.92
347.52	226.96
347.90	227.03
348.28	227.03
348.66	227.09
349.05	227.08
349.43	227.09
349.81	227.16
350.19	227.21
350.57	227.29
350.96	227.35
351.34	227.43
351.72	227.50
352.10	227.60
352.48	227.70
352.87	227.77
353.25	227.85
353.63	227.95
354.01	227.99
354.39	228.10
354.77	228.17
355.15	228.28
355.54	228.38
355.92	228.45
356.30	228.56
356.68	228.70
357.06	228.79
357.44	228.86
357.82	228.91
358.20	229.02
358.58	229.06
358.97	229.15
359.35	229.26
359.73	229.36
360.11	229.39
360.49	229.45
360.87	229.50
361.25	229.56
361.63	229.61
362.01	229.65
362.39	229.68
362.77	229.75
363.15	229.76
363.53	229.78
363.91	229.82
364.29	229.82
364.67	229.77
365.05	229.79
365.43	229.80
365.81	229.85
366.19	229.90
366.57	229.94
366.95	229.91
367.33	229.86
367.71	229.80
368.09	229.81
368.47	229.78
368.85	229.74
369.23	229.75
369.61	229.71
369.99	229.70
370.37	229.68
370.75	229.68
371.13	229.61
371.51	229.54
371.89	229.49
372.27	229.44
372.65	229.39
373.03	229.31
373.41	229.25
373.78	229.16
374.16	229.05
374.54	228.95
374.92	228.85
375.30	228.77
375.68	228.67
376.06	228.61
376.44	228.51
376.82	228.44
377.19	228.31
377.57	228.23
377.95	228.10
378.33	228.03
378.71	227.90
379.09	227.85
379.47	227.79
379.84	227.72
380.22	227.62
380.60	227.54
380.98	227.47
381.36	227.40
381.73	227.32
382.11	227.27
382.49	227.21
382.87	227.17
383.25	227.11
383.62	227.16
384.00	227.06
384.38	227.00
384.76	226.95
385.13	226.94
385.51	226.90
385.89	226.85
386.27	226.78
386.64	226.74
387.02	226.65
387.40	226.57
387.78	226.51
388.15	226.50
388.53	226.45
388.91	226.37
389.29	226.32
389.66	226.30
390.04	226.26
390.42	226.25
390.79	226.23
391.17	226.21
391.55	226.12
391.92	226.13
392.30	226.13
392.68	226.13
393.05	226.14
393.43	226.12
393.81	226.17
394.18	226.17
394.56	226.18
394.94	226.25
395.31	226.26
395.69	226.30
396.06	226.34
396.44	226.39
396.82	226.44
397.19	226.54
397.57	226.60
397.95	226.65
398.32	226.67
398.70	226.76
399.07	226.82
399.45	226.90
399.82	226.98
400.20	227.07
400.58	227.15
400.95	227.20
401.33	227.30
401.70	227.43
402.08	227.55
402.45	227.65
402.83	227.80
403.20	227.97
403.58	228.12
403.95	228.29
404.33	228.44
404.71	228.61
405.08	228.79
405.46	228.94
405.83	229.12
406.21	229.29
406.58	229.49
406.96	229.70
407.33	229.87
407.70	230.10
408.08	230.36
408.45	230.60
408.83	230.87
409.20	231.09
409.58	231.28
409.95	231.56
410.33	231.86
410.70	232.10
411.08	232.38
411.45	232.68
411.82	232.95
412.20	233.30
412.57	233.70
412.95	234.01
413.32	234.45
413.69	234.85
414.07	235.30
414.44	235.76
414.82	236.23
415.19	236.80
415.56	237.31
415.94	237.84
416.31	238.48
416.68	239.09
417.06	239.86
417.43	240.55
417.81	241.30
418.18	242.04
418.55	242.86
418.93	243.74
419.30	244.64
419.67	245.62
420.04	246.56
420.42	247.56
420.79	248.77
421.16	249.87
421.54	251.07
421.91	252.31
422.28	253.53
422.66	254.86
423.03	256.15
423.40	257.47
423.77	258.86
424.15	260.26
424.52	261.77
424.89	263.33
425.26	264.84
425.64	266.30
426.01	267.85
426.38	269.52
426.75	271.18
427.13	272.88
427.50	274.64
427.87	276.52
428.24	278.39
428.61	280.09
428.99	282.02
429.36	284.10
429.73	286.12
430.10	288.13
430.47	290.19
430.85	292.29
431.22	294.60
431.59	296.97
431.96	299.26
432.33	301.70
432.70	304.08
433.08	306.93
433.45	309.58
433.82	312.26
434.19	315.17
434.56	317.99
434.93	320.68
435.30	323.34
435.68	326.26
436.05	329.07
436.42	331.88
436.79	334.44
437.16	337.17
437.53	340.01
437.90	342.85
438.27	345.61
438.64	348.47
439.01	351.05
439.38	353.30
439.75	355.47
440.13	357.96
440.50	360.27
440.87	362.11
441.24	364.09
441.61	366.26
441.98	367.75
442.35	369.54
442.72	371.39
443.09	373.17
443.46	374.15
443.83	374.73
444.20	375.28
444.57	376.11
444.94	376.36
445.31	376.66
445.68	377.04
446.05	377.09
446.42	376.69
446.79	376.28
447.16	375.86
447.53	375.56
447.90	374.41
448.27	373.25
448.64	371.70
449.01	370.54
449.37	368.56
449.74	366.62
450.11	364.38
450.48	361.92
450.85	359.37
451.22	357.23
451.59	355.23
451.96	353.24
452.33	350.64
452.70	348.25
453.07	345.47
453.43	342.54
453.80	339.80
454.17	337.11
454.54	334.53
454.91	331.79
455.28	329.07
455.65	326.56
456.02	324.15
456.38	321.99
456.75	319.31
457.12	317.04
457.49	314.81
457.86	312.64
458.23	310.78
458.59	308.70
458.96	306.66
459.33	304.83
459.70	302.98
460.07	301.50
460.43	299.81
460.80	298.22
461.17	296.75
461.54	295.29
461.91	293.87
462.27	292.43
462.64	291.21
463.01	289.83
463.38	288.58
463.74	287.22
464.11	286.02
464.48	285.00
464.85	283.89
465.21	283.06
465.58	282.12
465.95	281.00
466.32	280.12
466.68	279.15
467.05	278.21
467.42	277.29
467.78	276.30
468.15	275.40
468.52	274.71
468.88	273.83
469.25	273.03
469.62	272.37
469.98	271.64
470.35	270.98
470.72	270.41
471.08	269.73
471.45	269.17
471.82	268.61
472.18	267.96
472.55	267.52
472.92	266.96
473.28	266.50
473.65	266.04
474.02	265.61
474.38	265.25
474.75	264.91
475.11	264.56
475.48	264.34
475.85	264.09
476.21	263.86
476.58	263.69
476.94	263.54
477.31	263.39
477.67	263.26
478.04	263.14
478.41	263.04
478.77	263.05
479.14	262.98
479.50	262.99
479.87	263.09
480.23	263.17
480.60	263.26
480.96	263.34
481.33	263.57
481.69	263.75
482.06	263.96
482.42	264.18
482.79	264.43
483.15	264.73
483.52	265.14
483.88	265.47
484.25	265.83
484.61	266.24
484.98	266.69
485.34	267.24
485.71	267.82
486.07	268.43
486.44	269.00
486.80	269.69
487.17	270.43
487.53	271.25
487.90	272.08
488.26	272.99
488.62	273.95
488.99	274.89
489.35	275.92
489.72	277.02
490.08	278.16
490.44	279.39
490.81	280.73
491.17	282.06
491.54	283.52
491.90	285.05
492.26	286.70
492.63	288.44
492.99	290.17
493.36	292.03
493.72	294.09
494.08	296.19
494.45	298.38
494.81	300.70
495.17	303.09
495.54	305.69
495.90	308.35
496.26	311.15
496.63	314.09
496.99	317.15
497.35	320.43
497.72	323.87
498.08	327.38
498.44	330.99
498.80	334.89
499.17	338.93
499.53	343.07
499.89	347.43
500.26	351.93
500.62	356.64
500.98	361.64
501.34	366.64
501.71	371.96
502.07	377.40
502.43	383.02
502.79	388.85
503.16	394.84
503.52	401.11
503.88	407.54
504.24	414.20
504.60	421.10
504.97	428.16
505.33	435.43
505.69	443.09
506.05	450.85
506.41	458.71
506.78	466.86
507.14	475.30
507.50	484.01
507.86	492.98
508.22	502.17
508.59	511.39
508.95	521.00
509.31	530.81
509.67	540.91
510.03	551.23
510.39	561.72
510.75	572.52
511.12	583.41
511.48	594.57
511.84	605.93
512.20	617.44
512.56	629.44
512.92	641.63
513.28	654.00
513.64	666.52
514.00	679.26
514.37	692.21
514.73	705.25
515.09	718.29
515.45	731.72
515.81	745.34
516.17	759.32
516.53	773.35
516.89	787.51
517.25	801.65
517.61	816.09
517.97	830.63
518.33	845.03
518.69	859.82
519.05	875.04
519.41	890.28
519.77	905.91
520.13	921.33
520.49	936.72
520.85	952.15
521.21	967.86
521.57	984.09
521.93	999.85
522.29	1016.36
522.65	1032.70
523.01	1048.92
523.37	1064.92
523.73	1081.09
524.09	1097.32
524.45	1113.75
524.81	1130.55
525.17	1147.42
525.53	1164.40
525.89	1181.32
526.25	1198.20
526.61	1214.53
526.97	1231.36
527.33	1247.88
527.68	1264.65
528.04	1281.29
528.40	1298.00
528.76	1315.16
529.12	1331.87
529.48	1348.72
529.84	1364.82
530.20	1381.47
530.56	1398.47
530.91	1415.92
531.27	1432.77
531.63	1449.35
531.99	1466.02
532.35	1482.01
532.71	1497.95
533.07	1514.24
533.42	1530.27
533.78	1546.39
534.14	1562.80
534.50	1578.31
534.86	1594.22
535.21	1609.42
535.57	1625.34
535.93	1640.91
536.29	1655.79
536.65	1671.05
537.00	1685.98
537.36	1701.30
537.72	1715.96
538.08	1730.44
538.44	1744.39
538.79	1758.37
539.15	1772.17
539.51	1785.94
539.87	1800.38
540.22	1814.28
540.58	1828.14
540.94	1841.67
541.29	1854.65
541.65	1867.32
542.01	1880.54
542.37	1892.86
542.72	1905.27
543.08	1917.06
543.44	1929.42
543.79	1940.77
544.15	1951.66
544.51	1963.18
544.87	1974.32
545.22	1985.12
545.58	1995.35
545.94	2005.11
546.29	2014.95
546.65	2024.71
547.01	2034.01
547.36	2042.72
547.72	2051.11
548.07	2058.90
548.43	2066.97
548.79	2075.06
549.14	2082.61
549.50	2090.06
549.86	2097.90
550.21	2105.25
550.57	2112.56
550.92	2119.15
551.28	2126.14
551.64	2133.18
551.99	2139.92
552.35	2145.94
552.70	2152.07
553.06	2158.04
553.41	2164.39
553.77	2170.34
554.13	2176.54
554.48	2182.55
554.84	2187.85
555.19	2193.17
555.55	2198.24
555.90	2202.67
556.26	2207.53
556.61	2212.19
556.97	2216.19
557.32	2220.30
557.68	2224.38
558.03	2228.72
558.39	2232.46
558.74	2237.13
559.10	2240.93
559.45	2244.53
559.81	2248.87
560.16	2252.61
560.52	2255.93
560.87	2259.51
561.23	2262.31
561.58	2265.13
561.94	2267.72
562.29	2270.30
562.64	2272.88
563.00	2275.56
563.35	2279.02
563.71	2282.13
564.06	2285.35
564.42	2288.39
564.77	2290.72
565.12	2292.96
565.48	2294.63
565.83	2296.34
566.19	2297.42
566.54	2298.48
566.89	2299.47
567.25	2299.96
567.60	2301.24
567.96	2302.70
568.31	2303.28
568.66	2304.20
569.02	2304.73
569.37	2304.84
569.72	2305.42
570.08	2305.45
570.43	2305.39
570.78	2304.64
571.14	2302.84
571.49	2301.40
571.84	2300.88
572.20	2299.65
572.55	2298.46
572.90	2296.84
573.26	2295.36
573.61	2293.59
573.96	2291.67
574.31	2288.59
574.67	2285.41
575.02	2281.73
575.37	2278.35
575.72	2274.34
576.08	2271.02
576.43	2267.61
576.78	2263.99
577.13	2260.89
577.49	2257.77
577.84	2254.24
578.19	2250.54
578.54	2246.74
578.90	2242.40
579.25	2236.77
579.60	2231.68
579.95	2226.60
580.30	2221.54
580.66	2216.37
581.01	2211.40
581.36	2206.36
581.71	2202.05
582.06	2197.53
582.42	2192.97
582.77	2187.57
583.12	2182.90
583.47	2177.86
583.82	2172.59
584.17	2167.19
584.53	2161.40
584.88	2155.59
585.23	2149.56
585.58	2143.89
585.93	2138.52
586.28	2133.77
586.63	2128.54
586.98	2123.36
587.34	2118.59
587.69	2113.46
588.04	2108.09
588.39	2102.30
588.74	2095.64
589.09	2089.43
589.44	2082.56
589.79	2076.40
590.14	2070.77
590.49	2064.13
590.84	2057.74
591.19	2051.73
591.54	2045.13
591.89	2037.70
592.25	2030.80
592.60	2023.54
592.95	2016.02
593.30	2008.52
593.65	2000.77
594.00	1993.78
594.35	1986.61
594.70	1978.51
595.05	1971.23
595.40	1963.93
595.75	1956.24
596.10	1949.98
596.45	1943.06
596.80	1936.69
597.15	1929.90
597.50	1922.62
597.85	1916.24
598.19	1909.36
598.54	1902.23
598.89	1895.62
599.24	1889.66
599.59	1882.92
599.94	1876.70
600.29	1870.25
600.64	1863.70
600.99	1856.14
601.34	1849.17
601.69	1842.11
602.04	1835.11
602.39	1827.65
602.74	1820.74
603.08	1814.17
603.43	1807.45
603.78	1800.12
604.13	1793.14
604.48	1785.83
604.83	1778.97
605.18	1771.88
605.53	1763.95
605.87	1755.85
606.22	1748.69
606.57	1740.76
606.92	1733.40
607.27	1726.13
607.62	1719.19
607.96	1711.81
608.31	1705.19
608.66	1697.46
609.01	1689.84
609.36	1682.26
609.70	1674.37
610.05	1666.14
610.40	1658.24
610.75	1649.83
611.10	1642.29
611.44	1633.85
611.79	1625.92
612.14	1617.31
612.49	1608.21
612.83	1599.95
613.18	1591.95
613.53	1583.74
613.88	1575.28
614.22	1567.06
614.57	1558.57
614.92	1550.55
615.27	1543.12
615.61	1534.87
615.96	1527.06
616.31	1519.47
616.65	1512.15
617.00	1504.68
617.35	1497.22
617.70	1488.95
618.04	1480.54
618.39	1472.36
618.74	1464.70
619.08	1456.45
619.43	1448.89
619.78	1442.08
620.12	1434.88
620.47	1427.33
620.82	1419.18
621.16	1411.80
621.51	1404.28
621.85	1396.73
622.20	1388.19
622.55	1379.82
622.89	1371.97
623.24	1364.28
623.59	1356.97
623.93	1349.51
624.28	1342.23
624.62	1334.67
624.97	1327.52
625.32	1320.81
625.66	1313.72
626.01	1306.50
626.35	1299.03
626.70	1291.28
627.04	1283.49
627.39	1275.83
627.73	1268.34
628.08	1261.46
628.43	1254.11
628.77	1246.73
629.12	1239.09
629.46	1231.96
629.81	1224.60
630.15	1217.43
630.50	1210.07
630.84	1201.89
631.19	1194.04
631.53	1186.61
631.88	1179.13
632.22	1171.55
632.57	1164.26
632.91	1156.70
633.26	1149.32
633.60	1142.07
633.95	1135.08
634.29	1128.10
634.64	1121.39
634.98	1114.09
635.32	1107.04
635.67	1100.58
636.01	1093.92
636.36	1087.17
636.70	1080.72
637.05	1074.14
637.39	1067.58
637.73	1061.09
638.08	1055.22
638.42	1049.22
638.77	1042.75
639.11	1036.09
639.45	1029.76
639.80	1023.05
640.14	1016.73
640.49	1010.24
640.83	1004.01
641.17	997.68
641.52	991.35
641.86	984.92
642.20	979.13
642.55	972.84
642.89	966.23
643.23	959.71
643.58	953.91
643.92	947.69
644.26	941.61
644.61	935.70
644.95	929.61
645.29	922.98
645.64	916.24
645.98	909.91
646.32	904.19
646.66	898.16
647.01	892.42
647.35	886.82
647.69	880.98
648.04	875.38
648.38	869.65
648.72	863.62
649.06	857.59
649.41	851.74
649.75	845.73
650.09	839.83
650.43	834.10
650.78	828.00
651.12	822.10
651.46	816.34
651.80	810.59
652.14	805.26
652.49	799.89
652.83	794.76
653.17	789.09
653.51	783.31
653.85	777.95
654.20	772.27
654.54	766.23
654.88	760.59
655.22	754.75
655.56	749.07
655.90	743.62
656.25	738.40
656.59	733.01
656.93	727.95
657.27	722.82
657.61	717.34
657.95	712.28
658.29	707.20
658.64	702.06
658.98	696.85
659.32	691.36
659.66	686.21
660.00	680.84
660.34	675.99
660.68	671.06
661.02	666.05
661.36	661.42
661.70	656.93
662.05	652.54
662.39	648.18
662.73	643.83
663.07	639.56
663.41	635.05
663.75	630.56
664.09	626.06
664.43	621.74
664.77	617.71
665.11	613.41
665.45	609.35
665.79	605.24
666.13	601.04
666.47	597.02
666.81	592.85
667.15	588.81
667.49	584.92
667.83	581.26
668.17	577.35
668.51	573.31
668.85	569.27
669.19	565.46
669.53	561.64
669.87	557.72
670.21	553.95
670.55	550.32
670.89	546.94
671.23	543.44
671.57	539.92
671.91	536.41
672.25	532.99
672.58	529.45
672.92	526.10
673.26	523.02
673.60	519.90
673.94	516.81
674.28	513.91
674.62	510.91
674.96	507.72
675.30	504.75
675.64	501.76
675.97	499.08
676.31	496.21
676.65	493.27
676.99	490.56
677.33	487.77
677.67	485.01
678.01	481.99
678.34	479.05
678.68	476.16
679.02	473.32
679.36	470.56
679.70	467.85
680.04	465.05
680.37	462.12
680.71	459.33
681.05	456.72
681.39	454.05
681.73	451.48
682.06	449.01
682.40	446.51
682.74	444.05
683.08	441.46
683.42	438.84
683.75	436.37
684.09	433.86
684.43	431.35
684.77	428.88
685.10	426.56
685.44	424.30
685.78	422.03
686.12	419.83
686.45	417.55
686.79	415.23
687.13	413.07
687.46	410.92
687.80	408.77
688.14	406.56
688.48	404.49
688.81	402.22
689.15	400.02
689.49	397.94
689.82	395.84
690.16	393.78
690.50	391.87
690.83	389.92
691.17	387.91
691.51	386.07
691.84	384.28
692.18	382.34
692.52	380.31
692.85	378.41
693.19	376.52
693.52	374.79
693.86	373.01
694.20	371.26
694.53	369.51
694.87	367.70
695.21	365.98
695.54	364.19
695.88	362.50
696.21	360.82
696.55	359.14
696.88	357.48
697.22	355.86
697.56	354.25
697.89	352.60
698.23	351.05
698.56	349.44
698.90	347.82
699.23	346.24
699.57	344.73
699.90	343.23
700.24	341.67
700.58	340.09
700.91	338.57
701.25	337.18
701.58	335.79
701.92	334.42
702.25	333.02
702.59	331.62
702.92	330.28
703.26	328.97
703.59	327.67
703.93	326.52
704.26	325.28
704.60	323.99
704.93	322.74
705.26	321.49
705.60	320.33
705.93	319.20
706.27	318.12
706.60	317.09
706.94	315.98
707.27	314.84
707.61	313.79
707.94	312.81
708.27	311.66
708.61	310.58
708.94	309.58
709.28	308.60
709.61	307.66
709.94	306.74
710.28	305.73
710.61	304.78
710.95	303.66
711.28	302.74
711.61	301.79
711.95	300.88
712.28	299.91
712.61	298.94
712.95	298.01
713.28	297.20
713.61	296.30
713.95	295.42
714.28	294.62
714.61	293.77
714.95	292.89
715.28	292.06
715.61	291.22
715.95	290.40
716.28	289.54
716.61	288.71
716.95	287.93
717.28	287.20
717.61	286.42
717.94	285.74
718.28	284.95
718.61	284.23
718.94	283.57
719.27	282.91
719.61	282.28
719.94	281.62
720.27	280.85
720.60	280.15
720.94	279.54
721.27	278.94
721.60	278.34
721.93	277.78
722.27	277.23
722.60	276.66
722.93	276.07
723.26	275.53
723.59	274.98
723.93	274.42
724.26	273.84
724.59	273.30
724.92	272.74
725.25	272.22
725.59	271.70
725.92	271.15
726.25	270.70
726.58	270.22
726.91	269.70
727.24	269.27
727.57	268.82
727.91	268.30
728.24	267.86
728.57	267.37
728.90	266.95
729.23	266.47
729.56	266.09
729.89	265.62
730.22	265.16
730.55	264.73
730.89	264.27
731.22	263.86
731.55	263.44
731.88	263.01
732.21	262.60
732.54	262.17
732.87	261.80
733.20	261.39
733.53	260.97
733.86	260.62
734.19	260.24
734.52	259.87
734.85	259.56
735.18	259.17
735.51	258.82
735.84	258.39
736.17	258.04
736.50	257.60
736.83	257.38
737.16	257.04
737.49	256.68
737.82	256.35
738.15	256.01
738.48	255.64
738.81	255.39
739.14	255.08
739.47	254.78
739.80	254.46
740.13	254.13
740.46	253.79
740.79	253.47
741.12	253.15
741.45	252.87
741.78	252.52
742.11	252.21
742.44	251.90
742.77	251.63
743.10	251.34
743.43	251.06
743.75	250.64
744.08	250.51
744.41	250.25
744.74	249.99
745.07	249.71
745.40	249.49
745.73	249.22
746.06	248.94
746.39	248.65
746.71	248.38
747.04	248.11
747.37	247.85
747.70	247.58
748.03	247.33
748.36	247.09
748.68	246.84
749.01	246.59
749.34	246.34
749.67	246.10
750.00	245.85
750.33	245.66
750.65	245.50
750.98	245.13
751.31	244.87
751.64	244.62
751.97	244.43
752.29	244.19
752.62	243.92
752.95	243.68
753.28	243.49
753.60	243.31
753.93	243.11
754.26	242.94
754.59	242.70
754.91	242.46
755.24	242.23
755.57	242.05
755.90	241.85
756.22	241.67
756.55	241.47
756.88	241.28
757.20	241.07
757.53	240.83
757.86	240.68
758.19	240.55
758.51	240.42
758.84	240.19
759.17	240.03
759.49	239.89
759.82	239.79
760.15	239.62
760.47	239.45
760.80	239.31
761.13	239.14
761.45	239.01
761.78	238.87
762.11	238.76
762.43	238.64
762.76	238.51
763.08	238.40
763.41	238.28
763.74	238.12
764.06	237.99
764.39	237.87
764.71	237.74
765.04	237.60
765.37	237.45
765.69	237.34
766.02	237.23
766.34	237.10
766.67	236.96
767.00	236.87
767.32	236.80
767.65	236.75
767.97	236.66
768.30	236.56
768.62	236.47
768.95	236.36
769.27	236.24
769.60	236.13
769.92	236.04
770.25	235.94
770.57	235.86
770.90	235.77
771.22	235.67
771.55	235.59
771.87	235.48
772.20	235.38
772.52	235.35
772.85	235.37
773.17	235.29
773.50	235.18
773.82	235.07
774.15	234.91
774.47	234.75
774.80	234.65
775.12	234.57
775.45	234.46
775.77	234.39
776.09	234.31
776.42	234.24
776.74	234.15
777.07	234.10
777.39	234.04
777.72	233.94
778.04	233.89
778.36	233.80
778.69	233.80
779.01	233.75
779.33	233.62
779.66	233.44
779.98	233.38
780.31	233.33
780.63	233.31
780.95	233.32
781.28	233.30
781.60	233.23
781.92	233.17
782.25	233.13
782.57	233.06
782.89	233.01
783.22	232.94
783.54	232.86
783.86	232.78
784.19	232.71
784.51	232.65
784.83	232.58
785.16	232.51
785.48	232.40
785.80	232.34
786.12	232.29
786.45	232.24
786.77	232.16
787.09	232.07
787.42	231.99
787.74	231.92
788.06	231.85
788.38	231.79
788.71	231.72
789.03	231.68
789.35	231.65
789.67	231.58
789.99	231.53
790.32	231.45
790.64	231.41
790.96	231.41
791.28	231.35
791.61	231.29
791.93	231.25
792.25	231.24
792.57	231.26
792.89	231.19
793.21	231.14
793.54	231.09
793.86	231.05
794.18	230.98
794.50	230.90
794.82	230.88
795.14	230.86
795.47	230.84
795.79	230.76
796.11	230.69
796.43	230.64
796.75	230.60
797.07	230.57
797.39	230.52
797.71	230.45
798.04	230.41
798.36	230.38
798.68	230.36
799.00	230.30
799.32	230.22
799.64	230.20
799.96	230.17
800.28	230.16
800.60	230.12
800.92	230.12
801.24	230.09
801.56	230.06
801.89	230.02
802.21	230.01
802.53	229.98
802.85	229.96
803.17	229.98
803.49	229.92
803.81	229.89
804.13	229.83
804.45	229.80
804.77	229.80
805.09	229.78
805.41	229.74
805.73	229.71
806.05	229.64
806.37	229.65
806.69	229.63
807.01	229.62
807.33	229.61
807.65	229.57
807.97	229.61
808.28	229.58
808.60	229.61
808.92	229.59
809.24	229.66
809.56	229.68
809.88	229.64
810.20	229.65
810.52	229.68
810.84	229.69
811.16	229.66
811.48	229.66
811.80	229.69
812.12	229.68
812.43	229.68
812.75	229.70
813.07	229.68
813.39	229.69
813.71	229.65
814.03	229.66
814.35	229.62
814.67	229.60
814.98	229.59
815.30	229.52
815.62	229.51
815.94	229.41
816.26	229.42
816.58	229.42
816.89	229.41
817.21	229.38
817.53	229.36
817.85	229.39
818.17	229.39
818.48	229.29
818.80	229.32
819.12	229.28
819.44	229.26
819.76	229.23
820.07	229.22
820.39	229.21
820.71	229.21
821.03	229.20
821.34	229.17
821.66	229.16
821.98	229.17
822.30	229.11
822.61	229.17
822.93	229.10
823.25	229.06
823.57	229.01
823.88	228.99
824.20	229.01
824.52	228.96
824.83	228.91
825.15	228.91
825.47	228.85
825.79	228.85
826.10	228.82
826.42	228.80
826.74	228.78
827.05	228.73
827.37	228.67
827.69	228.63
828.00	228.58
828.32	228.56
828.64	228.49
828.95	228.54
829.27	228.47
829.58	228.44
829.90	228.44
830.22	228.47
830.53	228.43
830.85	228.36
831.17	228.33
831.48	228.32
831.80	228.27
832.11	228.27
832.43	228.23
832.75	228.20
833.06	228.21
833.38	228.13
833.69	228.15
834.01	228.15
834.32	228.13
834.64	228.14
834.96	228.12
835.27	228.12
835.59	228.01
835.90	227.99
836.22	227.98
836.53	227.93
836.85	227.90
837.16	228.00
837.48	227.98
837.79	228.00
838.11	227.97
838.42	228.01
838.74	228.00
839.05	228.01
839.37	228.01
839.68	227.94
840.00	227.92
840.31	227.89
840.63	227.88
840.94	227.84
841.26	227.78
841.57	227.76
841.88	227.78
842.20	227.80
842.51	227.76
842.83	227.73
843.14	227.82
843.46	227.81
843.77	227.73
844.08	227.73
844.40	227.72
844.71	227.70
845.03	227.64
845.34	227.62
845.65	227.61
845.97	227.61
846.28	227.63
846.60	227.67
846.91	227.65
847.22	227.63
847.54	227.67
847.85	227.68
848.16	227.66
848.48	227.65
848.79	227.70
849.10	227.73
849.42	227.76
849.73	227.66
850.04	227.67
850.36	227.61
850.67	227.63
850.98	227.62
851.30	227.66
851.61	227.68
851.92	227.70
852.23	227.71
852.55	227.74
852.86	227.73
853.17	227.75
853.49	227.82
853.80	227.86
854.11	227.89
854.42	227.93
854.74	227.94
855.05	227.94
855.36	227.88
855.67	227.90
855.99	227.92
856.30	228.04
856.61	228.03
856.92	228.08
857.23	228.08
857.55	228.04
857.86	228.04
858.17	228.09
858.48	228.07
858.79	228.07
859.11	228.10
859.42	228.09
859.73	228.08
860.04	228.05
860.35	228.01
860.66	228.00
860.98	228.01
861.29	228.01
861.60	228.01
861.91	228.04
862.22	228.02
862.53	227.96
862.84	227.85
863.16	227.87
863.47	227.84
863.78	227.85
864.09	227.85
864.40	227.82
864.71	227.80
865.02	227.80
865.33	227.78
865.64	227.73
865.95	227.73
866.27	227.77
866.58	227.72
866.89	227.74
867.20	227.71
867.51	227.67
867.82	227.65
868.13	227.66
868.44	227.61
868.75	227.61
869.06	227.63
869.37	227.63
869.68	227.57
869.99	227.57
870.30	227.55
870.61	227.56
870.92	227.54
871.23	227.52
871.54	227.52
871.85	227.53
872.16	227.52
872.47	227.50
872.78	227.41
873.09	227.43
873.40	227.41
873.71	227.40
874.02	227.42
874.33	227.37
874.64	227.33
874.95	227.31
875.26	227.27
875.56	227.22
875.87	227.18
876.18	227.20
876.49	227.29
876.80	227.25
877.11	227.19
877.42	227.21
877.73	227.19
878.04	227.18
878.35	227.16
878.66	227.18
878.96	227.16
879.27	227.17
879.58	227.15
879.89	227.10
880.20	227.13
880.51	227.09
880.82	227.12
881.12	227.11
881.43	227.12
881.74	227.11
882.05	227.13
882.36	227.15
882.67	227.15
882.97	227.05
883.28	227.06
883.59	227.07
883.90	227.06
884.21	227.07
884.51	227.05
884.82	227.02
885.13	227.01
885.44	227.00
885.74	227.04
886.05	227.04
886.36	227.06
886.67	227.05
886.98	227.12
887.28	227.14
887.59	227.15
887.90	227.17
888.20	227.18
888.51	227.22
888.82	227.21
889.13	227.21
889.43	227.29
889.74	227.27
890.05	227.30
890.35	227.28
890.66	227.30
890.97	227.29
891.28	227.31
891.58	227.31
891.89	227.35
892.20	227.32
892.50	227.32
892.81	227.33
893.12	227.31
893.42	227.29
893.73	227.31
894.04	227.36
894.34	227.40
894.65	227.39
894.95	227.37
895.26	227.37
895.57	227.42
895.87	227.36
896.18	227.42
896.48	227.43
896.79	227.45
897.10	227.44
897.40	227.50
897.71	227.53
898.01	227.54
898.32	227.58
898.63	227.61
898.93	227.61
899.24	227.63
899.54	227.66
899.85	227.64
900.15	227.63
900.46	227.62
900.76	227.61
901.07	227.62
901.38	227.63
901.68	227.65
901.99	227.60
902.29	227.60
902.60	227.58
902.90	227.58
903.21	227.56
903.51	227.57
903.82	227.59
904.12	227.57
904.43	227.54
904.73	227.50
905.03	227.49
905.34	227.61
905.64	227.57
905.95	227.55
906.25	227.56
906.56	227.56
906.86	227.51
907.17	227.50
907.47	227.49
907.77	227.47
908.08	227.46
908.38	227.45
908.69	227.43
908.99	227.44
909.30	227.43
909.60	227.44
909.90	227.41
910.21	227.39
910.51	227.35
910.81	227.37
911.12	227.37
911.42	227.36
911.73	227.20
912.03	227.22
912.33	227.26
912.64	227.25
912.94	227.23
913.24	227.19
913.55	227.16
913.85	227.14
914.15	227.13
914.46	227.13
914.76	227.11
915.06	227.09
915.37	227.06
915.67	227.02
915.97	227.00
916.27	226.95
916.58	226.92
916.88	226.94
917.18	226.89
917.49	226.95
917.79	226.91
918.09	226.95
918.39	226.94
918.70	226.90
919.00	226.83
919.30	226.84
919.60	226.84
919.91	226.82
920.21	226.82
920.51	226.79
920.81	226.79
921.12	226.80
921.42	226.78
921.72	226.79
922.02	226.80
922.32	226.81
922.63	226.87
922.93	226.91
923.23	226.90
923.53	226.89
923.83	226.84
924.13	226.90
924.44	226.91
924.74	226.96
925.04	227.00
925.34	227.04
925.64	227.05
925.94	227.05
926.24	227.17
926.55	227.14
926.85	227.19
927.15	227.17
927.45	227.22
927.75	227.25
928.05	227.25
928.35	227.27
928.65	227.29
928.95	227.30
929.26	227.28
929.56	227.33
929.86	227.36
930.16	227.38
930.46	227.34
930.76	227.34
931.06	227.31
931.36	227.29
931.66	227.33
931.96	227.36
932.26	227.42
932.56	227.32
932.86	227.42
933.16	227.40
933.46	227.44
933.76	227.43
934.06	227.45
934.36	227.51
934.66	227.53
934.96	227.54
935.26	227.53
935.56	227.58
935.86	227.59
936.16	227.58
936.46	227.57
936.76	227.60
937.06	227.59
937.36	227.61
937.66	227.61
937.96	227.63
938.26	227.61
938.56	227.60
938.86	227.66
939.16	227.68
939.46	227.70
939.76	227.69
940.06	227.70
940.35	227.67
940.65	227.65
940.95	227.67
941.25	227.65
941.55	227.61
941.85	227.57
942.15	227.57
942.45	227.61
942.75	227.63
943.04	227.61
943.34	227.65
943.64	227.64
943.94	227.63
944.24	227.60
944.54	227.58
944.84	227.58
945.13	227.55
945.43	227.52
945.73	227.51
946.03	227.46
946.33	227.46
946.62	227.47
946.92	227.43
947.22	227.40
947.52	227.38
947.82	227.44
948.11	227.43
948.41	227.38
948.71	227.32
949.01	227.27
949.31	227.26
949.60	227.20
949.90	227.19
950.20	227.19
950.50	227.17
950.79	227.17
951.09	227.14
951.39	227.12
951.69	227.02
951.98	227.05
952.28	227.04
952.58	227.01
952.87	226.95
953.17	226.97
953.47	226.94
953.76	226.93
954.06	226.86
954.36	226.82
954.66	226.80
954.95	226.83
955.25	226.83
955.55	226.83
955.84	226.80
956.14	226.79
956.44	226.79
956.73	226.73
957.03	226.72
957.32	226.73
957.62	226.70
957.92	226.74
958.21	226.69
958.51	226.81
958.81	226.82
959.10	226.86
959.40	226.88
959.69	226.88
959.99	226.90
960.29	226.93
960.58	226.94
960.88	227.00
961.17	226.97
961.47	226.96
961.76	226.95
962.06	226.99
962.36	226.99
962.65	227.00
962.95	227.05
963.24	227.05
963.54	227.05
963.83	227.10
964.13	227.13
964.42	227.13
964.72	227.05
965.01	227.03
965.31	227.00
965.60	227.00
965.90	227.09
966.19	227.08
966.49	227.10
966.78	227.13
967.08	227.15
967.37	227.13
967.67	227.15
967.96	227.19
968.26	227.19
968.55	227.22
968.85	227.23
969.14	227.24
969.43	227.27
969.73	227.26
970.02	227.25
970.32	227.26
970.61	227.29
970.91	227.27
971.20	227.31
971.49	227.36
971.79	227.36
972.08	227.28
972.38	227.30
972.67	227.31
972.96	227.34
973.26	227.31
973.55	227.39
973.85	227.39
974.14	227.37
974.43	227.42
974.73	227.43
975.02	227.41
975.31	227.42
975.61	227.42
975.90	227.46
976.19	227.46
976.49	227.44
976.78	227.44
977.07	227.44
977.37	227.45
977.66	227.44
977.95	227.42
978.24	227.45
978.54	227.46
978.83	227.45
979.12	227.40
979.42	227.42
979.71	227.41
980.00	227.42
980.29	227.46
980.59	227.41
980.88	227.42
981.17	227.43
981.46	227.45
981.76	227.47
982.05	227.45
982.34	227.44
982.63	227.45
982.93	227.45
983.22	227.48
983.51	227.49
983.80	227.50
984.09	227.53
984.39	227.51
984.68	227.47
984.97	227.45
985.26	227.46
985.55	227.42
985.85	227.39
986.14	227.37
986.43	227.37
986.72	227.38
987.01	227.31
987.30	227.28
987.59	227.24
987.89	227.17
988.18	227.17
988.47	227.15
988.76	227.14
989.05	227.13
989.34	227.09
989.63	227.10
989.92	227.04
990.22	226.99
990.51	226.98
990.80	226.97
991.09	226.98
991.38	226.98
991.67	226.96
991.96	226.94
992.25	226.94
992.54	226.89
992.83	226.85
993.12	226.86
993.41	226.86
993.70	226.85
993.99	226.88
994.28	226.87
994.58	226.88
994.87	226.87
995.16	226.83
995.45	226.84
995.74	226.77
996.03	226.78
996.32	226.81
996.61	226.83
996.90	226.81
997.19	226.82
997.48	226.82
997.77	226.82
998.06	226.83
998.34	226.79
998.63	226.76
998.92	226.76
999.21	226.75
999.50	226.76
999.79	226.75
1000.08	226.76
1000.37	226.77
1000.66	226.75
1000.95	226.78
1001.24	226.83
1001.53	226.85
1001.82	226.89
1002.11	226.87
1002.40	226.87
1002.68	226.91
1002.97	227.01
1003.26	227.00
1003.55	227.00
1003.84	227.02
1004.13	227.05
1004.42	227.07
1004.71	227.10
1004.99	227.11
1005.28	227.18
1005.57	227.17
1005.86	227.17
1006.15	227.15
1006.44	227.15
1006.72	227.16
1007.01	227.18
1007.30	227.16
1007.59	227.13
1007.88	227.15
1008.17	227.21
1008.45	227.22
1008.74	227.18
1009.03	227.13
1009.32	227.15
1009.60	227.15
1009.89	227.16
1010.18	227.16
1010.47	227.17
1010.76	227.19
1011.04	227.21
1011.33	227.20
1011.62	227.22
1011.91	227.27
1012.19	227.29
1012.48	227.28
1012.77	227.31
1013.05	227.34
1013.34	227.32
1013.63	227.32
1013.92	227.29
1014.20	227.27
1014.49	227.28
1014.78	227.26
1015.06	227.26
1015.35	227.25
1015.64	227.26
1015.92	227.26
1016.21	227.21
1016.50	227.21
1016.78	227.21
1017.07	227.23
1017.36	227.20
1017.64	227.21
1017.93	227.20
1018.22	227.19
1018.50	227.21
1018.79	227.18
1019.08	227.17
1019.36	227.19
1019.65	227.19
1019.93	227.25
1020.22	227.24
1020.51	227.26
1020.79	227.24
1021.08	227.38
1021.36	227.21
1021.65	226.89
1021.94	227.70
1022.22	227.00
1022.51	227.22
1022.79	227.92
1023.08	226.91
1023.36	228.05
1023.65	226.53
>>>>>End Processed Spectral Data<<<<<
