SpectraSuite Data File
++++++++++++++++++++++++++++++++++++
Date: Fri Feb 01 15:30:47 EST 2013
User: group
Dark Spectrum Present: No
Reference Spectrum Present: No
Number of Sampled Component Spectra: 1
Spectrometers: USB2E7196
Integration Time (usec): 35000 (USB2E7196)
Spectra Averaged: 100 (USB2E7196)
Boxcar Smoothing: 10 (USB2E7196)
Correct for Electrical Dark: No (USB2E7196)
Strobe/Lamp Enabled: No (USB2E7196)
Correct for Detector Non-linearity: No (USB2E7196)
Correct for Stray Light: No (USB2E7196)
Number of Pixels in Processed Spectrum: 2048
>>>>>Begin Processed Spectral Data<<<<<
339.09	0.00
339.48	214.62
339.86	216.57
340.24	217.44
340.63	219.14
341.01	222.35
341.39	222.26
341.78	223.40
342.16	224.89
342.54	225.33
342.93	213.47
343.31	224.26
343.69	224.85
344.07	225.32
344.46	225.78
344.84	226.18
345.22	226.43
345.60	226.65
345.99	226.87
346.37	227.00
346.75	227.09
347.13	227.13
347.52	227.19
347.90	227.22
348.28	227.23
348.66	227.30
349.05	227.29
349.43	227.36
349.81	227.39
350.19	227.43
350.57	227.50
350.96	227.57
351.34	227.66
351.72	227.72
352.10	227.81
352.48	227.91
352.87	227.94
353.25	227.98
353.63	228.03
354.01	228.07
354.39	228.12
354.77	228.17
355.15	228.25
355.54	228.29
355.92	228.37
356.30	228.41
356.68	228.54
357.06	228.61
357.44	228.65
357.82	228.71
358.20	228.81
358.58	228.88
358.97	228.96
359.35	229.03
359.73	229.09
360.11	229.11
360.49	229.11
360.87	229.17
361.25	229.25
361.63	229.34
362.01	229.39
362.39	229.40
362.77	229.46
363.15	229.48
363.53	229.52
363.91	229.53
364.29	229.56
364.67	229.46
365.05	229.48
365.43	229.49
365.81	229.48
366.19	229.48
366.57	229.50
366.95	229.48
367.33	229.40
367.71	229.40
368.09	229.42
368.47	229.40
368.85	229.37
369.23	229.33
369.61	229.25
369.99	229.21
370.37	229.21
370.75	229.20
371.13	229.17
371.51	229.14
371.89	229.10
372.27	229.07
372.65	229.02
373.03	228.94
373.41	228.86
373.78	228.78
374.16	228.68
374.54	228.59
374.92	228.49
375.30	228.45
375.68	228.35
376.06	228.27
376.44	228.20
376.82	228.13
377.19	228.08
377.57	228.01
377.95	227.92
378.33	227.82
378.71	227.68
379.09	227.59
379.47	227.51
379.84	227.41
380.22	227.30
380.60	227.23
380.98	227.17
381.36	227.11
381.73	227.07
382.11	227.00
382.49	226.94
382.87	226.85
383.25	226.75
383.62	226.82
384.00	226.77
384.38	226.72
384.76	226.70
385.13	226.65
385.51	226.61
385.89	226.57
386.27	226.54
386.64	226.53
387.02	226.51
387.40	226.46
387.78	226.44
388.15	226.44
388.53	226.40
388.91	226.38
389.29	226.33
389.66	226.32
390.04	226.29
390.42	226.27
390.79	226.28
391.17	226.29
391.55	226.15
391.92	226.13
392.30	226.14
392.68	226.11
393.05	226.10
393.43	226.09
393.81	226.10
394.18	226.10
394.56	226.08
394.94	226.14
395.31	226.14
395.69	226.22
396.06	226.25
396.44	226.30
396.82	226.33
397.19	226.45
397.57	226.48
397.95	226.58
398.32	226.64
398.70	226.69
399.07	226.80
399.45	226.85
399.82	226.93
400.20	226.99
400.58	227.07
400.95	227.13
401.33	227.26
401.70	227.41
402.08	227.53
402.45	227.65
402.83	227.74
403.20	227.87
403.58	227.93
403.95	228.06
404.33	228.19
404.71	228.33
405.08	228.51
405.46	228.65
405.83	228.79
406.21	228.96
406.58	229.15
406.96	229.31
407.33	229.50
407.70	229.69
408.08	229.96
408.45	230.23
408.83	230.43
409.20	230.64
409.58	230.83
409.95	231.10
410.33	231.38
410.70	231.63
411.08	231.94
411.45	232.27
411.82	232.60
412.20	232.97
412.57	233.40
412.95	233.70
413.32	234.10
413.69	234.52
414.07	234.93
414.44	235.39
414.82	235.91
415.19	236.46
415.56	237.01
415.94	237.57
416.31	238.12
416.68	238.76
417.06	239.50
417.43	240.15
417.81	240.90
418.18	241.64
418.55	242.51
418.93	243.40
419.30	244.30
419.67	245.20
420.04	246.13
420.42	247.10
420.79	248.27
421.16	249.40
421.54	250.58
421.91	251.80
422.28	253.07
422.66	254.36
423.03	255.67
423.40	256.99
423.77	258.40
424.15	259.87
424.52	261.37
424.89	262.97
425.26	264.51
425.64	265.95
426.01	267.57
426.38	269.20
426.75	270.85
427.13	272.54
427.50	274.34
427.87	276.23
428.24	278.09
428.61	279.84
428.99	281.77
429.36	283.87
429.73	285.97
430.10	287.99
430.47	290.07
430.85	292.19
431.22	294.46
431.59	296.80
431.96	299.03
432.33	301.52
432.70	303.88
433.08	306.69
433.45	309.34
433.82	311.94
434.19	314.84
434.56	317.65
434.93	320.32
435.30	322.98
435.68	325.86
436.05	328.65
436.42	331.46
436.79	334.01
437.16	336.71
437.53	339.49
437.90	342.33
438.27	345.08
438.64	347.89
439.01	350.51
439.38	352.81
439.75	354.98
440.13	357.47
440.50	359.85
440.87	361.71
441.24	363.66
441.61	365.83
441.98	367.29
442.35	369.11
442.72	370.99
443.09	372.77
443.46	373.78
443.83	374.39
444.20	374.90
444.57	375.74
444.94	376.03
445.31	376.38
445.68	376.68
446.05	376.72
446.42	376.36
446.79	375.94
447.16	375.46
447.53	375.14
447.90	374.00
448.27	372.79
448.64	371.20
449.01	370.04
449.37	368.07
449.74	366.22
450.11	363.93
450.48	361.47
450.85	358.96
451.22	356.82
451.59	354.81
451.96	352.89
452.33	350.27
452.70	347.90
453.07	345.05
453.43	342.19
453.80	339.45
454.17	336.76
454.54	334.18
454.91	331.50
455.28	328.82
455.65	326.32
456.02	323.87
456.38	321.75
456.75	319.13
457.12	316.85
457.49	314.61
457.86	312.46
458.23	310.60
458.59	308.56
458.96	306.47
459.33	304.63
459.70	302.69
460.07	301.20
460.43	299.50
460.80	297.91
461.17	296.47
461.54	295.00
461.91	293.56
462.27	292.16
462.64	290.91
463.01	289.58
463.38	288.29
463.74	286.94
464.11	285.78
464.48	284.76
464.85	283.68
465.21	282.79
465.58	281.87
465.95	280.79
466.32	279.89
466.68	279.00
467.05	278.12
467.42	277.27
467.78	276.37
468.15	275.48
468.52	274.84
468.88	274.00
469.25	273.22
469.62	272.61
469.98	271.90
470.35	271.20
470.72	270.59
471.08	269.94
471.45	269.43
471.82	268.88
472.18	268.24
472.55	267.82
472.92	267.31
473.28	266.84
473.65	266.39
474.02	265.95
474.38	265.52
474.75	265.18
475.11	264.82
475.48	264.55
475.85	264.33
476.21	264.06
476.58	263.84
476.94	263.66
477.31	263.51
477.67	263.35
478.04	263.28
478.41	263.21
478.77	263.22
479.14	263.13
479.50	263.13
479.87	263.21
480.23	263.27
480.60	263.35
480.96	263.43
481.33	263.63
481.69	263.79
482.06	264.03
482.42	264.22
482.79	264.46
483.15	264.78
483.52	265.14
483.88	265.51
484.25	265.86
484.61	266.27
484.98	266.71
485.34	267.27
485.71	267.86
486.07	268.43
486.44	269.01
486.80	269.71
487.17	270.46
487.53	271.26
487.90	272.14
488.26	273.05
488.62	274.02
488.99	274.98
489.35	276.03
489.72	277.12
490.08	278.33
490.44	279.57
490.81	280.88
491.17	282.23
491.54	283.64
491.90	285.23
492.26	286.89
492.63	288.61
492.99	290.38
493.36	292.30
493.72	294.37
494.08	296.47
494.45	298.73
494.81	301.07
495.17	303.51
495.54	306.07
495.90	308.76
496.26	311.58
496.63	314.54
496.99	317.67
497.35	320.95
497.72	324.39
498.08	327.88
498.44	331.54
498.80	335.47
499.17	339.60
499.53	343.74
499.89	348.12
500.26	352.61
500.62	357.31
500.98	362.22
501.34	367.30
501.71	372.65
502.07	378.07
502.43	383.70
502.79	389.55
503.16	395.61
503.52	401.93
503.88	408.32
504.24	414.96
504.60	421.89
504.97	429.03
505.33	436.30
505.69	444.02
506.05	451.80
506.41	459.69
506.78	467.80
507.14	476.26
507.50	484.98
507.86	494.05
508.22	503.26
508.59	512.47
508.95	522.06
509.31	531.87
509.67	542.03
510.03	552.36
510.39	562.88
510.75	573.65
511.12	584.53
511.48	595.90
511.84	607.41
512.20	618.88
512.56	630.82
512.92	643.05
513.28	655.39
513.64	667.83
514.00	680.55
514.37	693.54
514.73	706.58
515.09	719.60
515.45	732.90
515.81	746.52
516.17	760.51
516.53	774.63
516.89	788.80
517.25	802.97
517.61	817.33
517.97	831.84
518.33	846.29
518.69	861.22
519.05	876.27
519.41	891.46
519.77	907.08
520.13	922.49
520.49	937.92
520.85	953.42
521.21	969.20
521.57	985.54
521.93	1001.32
522.29	1017.80
522.65	1034.10
523.01	1050.45
523.37	1066.41
523.73	1082.61
524.09	1098.78
524.45	1115.14
524.81	1131.78
525.17	1148.72
525.53	1165.70
525.89	1182.67
526.25	1199.45
526.61	1215.80
526.97	1232.50
527.33	1248.85
527.68	1265.58
528.04	1282.19
528.40	1298.86
528.76	1316.04
529.12	1332.61
529.48	1349.54
529.84	1365.70
530.20	1382.38
530.56	1399.39
530.91	1416.94
531.27	1433.96
531.63	1450.45
531.99	1467.07
532.35	1483.17
532.71	1498.99
533.07	1515.27
533.42	1531.26
533.78	1547.32
534.14	1563.59
534.50	1579.00
534.86	1595.03
535.21	1610.29
535.57	1626.20
535.93	1641.74
536.29	1656.63
536.65	1671.78
537.00	1686.67
537.36	1701.91
537.72	1716.47
538.08	1730.89
538.44	1744.70
538.79	1758.40
539.15	1772.21
539.51	1786.01
539.87	1800.29
540.22	1814.18
540.58	1828.01
540.94	1841.36
541.29	1854.35
541.65	1867.15
542.01	1880.45
542.37	1892.84
542.72	1905.34
543.08	1917.04
543.44	1929.46
543.79	1940.58
544.15	1951.60
544.51	1963.18
544.87	1974.21
545.22	1985.09
545.58	1995.32
545.94	2005.20
546.29	2015.04
546.65	2024.76
547.01	2034.01
547.36	2042.84
547.72	2051.22
548.07	2059.14
548.43	2067.42
548.79	2075.42
549.14	2083.06
549.50	2090.55
549.86	2098.32
550.21	2105.55
550.57	2112.83
550.92	2119.41
551.28	2126.53
551.64	2133.53
551.99	2140.16
552.35	2146.37
552.70	2152.52
553.06	2158.38
553.41	2164.70
553.77	2170.89
554.13	2177.05
554.48	2183.38
554.84	2188.72
555.19	2194.12
555.55	2199.24
555.90	2203.72
556.26	2208.58
556.61	2213.25
556.97	2217.35
557.32	2221.41
557.68	2225.59
558.03	2229.88
558.39	2233.62
558.74	2238.27
559.10	2242.10
559.45	2245.68
559.81	2249.97
560.16	2253.82
560.52	2257.21
560.87	2260.67
561.23	2263.23
561.58	2266.21
561.94	2268.58
562.29	2271.12
562.64	2273.77
563.00	2276.45
563.35	2279.93
563.71	2282.98
564.06	2286.18
564.42	2289.03
564.77	2291.55
565.12	2293.87
565.48	2295.59
565.83	2297.31
566.19	2298.54
566.54	2299.49
566.89	2300.58
567.25	2301.27
567.60	2302.41
567.96	2303.97
568.31	2304.67
568.66	2305.74
569.02	2306.27
569.37	2306.55
569.72	2307.29
570.08	2307.44
570.43	2307.23
570.78	2306.54
571.14	2304.99
571.49	2303.74
571.84	2303.41
572.20	2302.16
572.55	2300.97
572.90	2299.50
573.26	2298.14
573.61	2296.49
573.96	2294.70
574.31	2291.61
574.67	2288.34
575.02	2284.84
575.37	2281.40
575.72	2277.59
576.08	2274.25
576.43	2270.82
576.78	2267.20
577.13	2263.95
577.49	2260.78
577.84	2257.26
578.19	2253.38
578.54	2249.72
578.90	2245.34
579.25	2239.70
579.60	2234.59
579.95	2229.56
580.30	2224.49
580.66	2219.38
581.01	2214.37
581.36	2209.47
581.71	2205.25
582.06	2200.81
582.42	2196.13
582.77	2190.88
583.12	2186.08
583.47	2181.20
583.82	2176.05
584.17	2170.61
584.53	2165.05
584.88	2159.43
585.23	2153.71
585.58	2148.24
585.93	2142.70
586.28	2137.81
586.63	2132.70
586.98	2127.62
587.34	2122.88
587.69	2117.94
588.04	2112.60
588.39	2106.83
588.74	2100.08
589.09	2093.95
589.44	2086.95
589.79	2081.03
590.14	2075.42
590.49	2069.00
590.84	2062.61
591.19	2056.54
591.54	2050.15
591.89	2042.69
592.25	2035.80
592.60	2028.46
592.95	2020.95
593.30	2013.53
593.65	2005.93
594.00	1998.87
594.35	1991.65
594.70	1983.47
595.05	1976.07
595.40	1968.67
595.75	1961.22
596.10	1954.98
596.45	1948.05
596.80	1941.99
597.15	1935.23
597.50	1927.95
597.85	1921.37
598.19	1914.70
598.54	1907.57
598.89	1900.82
599.24	1894.99
599.59	1888.16
599.94	1881.96
600.29	1875.60
600.64	1869.08
600.99	1861.44
601.34	1854.59
601.69	1847.47
602.04	1840.53
602.39	1833.25
602.74	1826.36
603.08	1819.52
603.43	1812.88
603.78	1805.66
604.13	1798.32
604.48	1791.03
604.83	1784.26
605.18	1777.40
605.53	1769.36
605.87	1761.30
606.22	1754.13
606.57	1746.11
606.92	1738.81
607.27	1731.53
607.62	1724.53
607.96	1717.26
608.31	1710.65
608.66	1702.94
609.01	1695.35
609.36	1687.87
609.70	1679.79
610.05	1671.66
610.40	1663.89
610.75	1655.48
611.10	1647.79
611.44	1639.47
611.79	1631.41
612.14	1622.64
612.49	1613.41
612.83	1604.97
613.18	1596.96
613.53	1588.85
613.88	1580.35
614.22	1572.09
614.57	1563.58
614.92	1555.47
615.27	1547.71
615.61	1539.34
615.96	1531.34
616.31	1523.91
616.65	1516.49
617.00	1508.97
617.35	1501.38
617.70	1493.04
618.04	1484.54
618.39	1476.20
618.74	1468.60
619.08	1460.39
619.43	1452.82
619.78	1445.92
620.12	1438.79
620.47	1431.26
620.82	1423.08
621.16	1415.52
621.51	1407.87
621.85	1400.14
622.20	1391.56
622.55	1383.37
622.89	1375.67
623.24	1368.02
623.59	1360.65
623.93	1353.11
624.28	1345.93
624.62	1338.37
624.97	1331.18
625.32	1324.43
625.66	1317.50
626.01	1310.27
626.35	1302.77
626.70	1295.08
627.04	1287.27
627.39	1279.55
627.73	1272.11
628.08	1265.14
628.43	1257.94
628.77	1250.56
629.12	1242.95
629.46	1235.82
629.81	1228.30
630.15	1221.05
630.50	1213.60
630.84	1205.35
631.19	1197.45
631.53	1189.93
631.88	1182.48
632.22	1174.88
632.57	1167.60
632.91	1160.03
633.26	1152.59
633.60	1145.22
633.95	1138.15
634.29	1131.10
634.64	1124.34
634.98	1116.99
635.32	1109.87
635.67	1103.32
636.01	1096.68
636.36	1089.94
636.70	1083.46
637.05	1076.96
637.39	1070.49
637.73	1063.96
638.08	1058.16
638.42	1052.27
638.77	1045.81
639.11	1039.04
639.45	1032.66
639.80	1025.99
640.14	1019.53
640.49	1013.03
640.83	1006.74
641.17	1000.45
641.52	994.09
641.86	987.70
642.20	981.85
642.55	975.64
642.89	969.08
643.23	962.53
643.58	956.75
643.92	950.47
644.26	944.32
644.61	938.36
644.95	932.34
645.29	925.62
645.64	918.78
645.98	912.40
646.32	906.66
646.66	900.61
647.01	894.77
647.35	889.03
647.69	883.15
648.04	877.56
648.38	871.75
648.72	865.77
649.06	859.70
649.41	853.75
649.75	847.57
650.09	841.58
650.43	835.80
650.78	829.62
651.12	823.64
651.46	817.98
651.80	812.07
652.14	806.68
652.49	801.32
652.83	796.14
653.17	790.42
653.51	784.63
653.85	779.20
654.20	773.54
654.54	767.56
654.88	761.87
655.22	756.06
655.56	750.40
655.90	744.92
656.25	739.63
656.59	734.31
656.93	729.32
657.27	724.19
657.61	718.67
657.95	713.62
658.29	708.56
658.64	703.30
658.98	698.09
659.32	692.64
659.66	687.45
660.00	682.09
660.34	677.19
660.68	672.26
661.02	667.29
661.36	662.53
661.70	658.06
662.05	653.74
662.39	649.38
662.73	644.94
663.07	640.59
663.41	636.15
663.75	631.64
664.09	627.08
664.43	622.71
664.77	618.68
665.11	614.36
665.45	610.23
665.79	606.20
666.13	602.05
666.47	598.03
666.81	593.83
667.15	589.77
667.49	585.93
667.83	582.19
668.17	578.28
668.51	574.30
668.85	570.28
669.19	566.40
669.53	562.56
669.87	558.58
670.21	554.87
670.55	551.23
670.89	547.79
671.23	544.32
671.57	540.78
671.91	537.23
672.25	533.81
672.58	530.31
672.92	526.92
673.26	523.78
673.60	520.66
673.94	517.55
674.28	514.66
674.62	511.67
674.96	508.56
675.30	505.65
675.64	502.70
675.97	499.95
676.31	497.07
676.65	494.18
676.99	491.54
677.33	488.73
677.67	485.96
678.01	482.97
678.34	480.01
678.68	477.14
679.02	474.31
679.36	471.54
679.70	468.84
680.04	466.06
680.37	463.12
680.71	460.30
681.05	457.68
681.39	454.98
681.73	452.33
682.06	449.80
682.40	447.21
682.74	444.68
683.08	442.13
683.42	439.54
683.75	437.05
684.09	434.50
684.43	432.03
684.77	429.58
685.10	427.24
685.44	424.95
685.78	422.68
686.12	420.43
686.45	418.16
686.79	415.88
687.13	413.72
687.46	411.63
687.80	409.46
688.14	407.24
688.48	405.12
688.81	402.85
689.15	400.68
689.49	398.59
689.82	396.49
690.16	394.40
690.50	392.44
690.83	390.48
691.17	388.50
691.51	386.56
691.84	384.67
692.18	382.72
692.52	380.73
692.85	378.82
693.19	376.98
693.52	375.12
693.86	373.30
694.20	371.48
694.53	369.67
694.87	367.81
695.21	366.04
695.54	364.22
695.88	362.52
696.21	360.81
696.55	359.11
696.88	357.45
697.22	355.78
697.56	354.16
697.89	352.48
698.23	350.85
698.56	349.25
698.90	347.66
699.23	346.02
699.57	344.46
699.90	342.88
700.24	341.33
700.58	339.76
700.91	338.26
701.25	336.84
701.58	335.44
701.92	334.13
702.25	332.77
702.59	331.46
702.92	330.15
703.26	328.87
703.59	327.57
703.93	326.38
704.26	325.18
704.60	323.91
704.93	322.68
705.26	321.46
705.60	320.31
705.93	319.20
706.27	318.20
706.60	317.18
706.94	316.16
707.27	315.00
707.61	313.99
707.94	312.96
708.27	311.87
708.61	310.83
708.94	309.82
709.28	308.84
709.61	307.88
709.94	306.93
710.28	305.89
710.61	304.95
710.95	303.91
711.28	302.99
711.61	302.04
711.95	301.12
712.28	300.19
712.61	299.21
712.95	298.26
713.28	297.39
713.61	296.48
713.95	295.58
714.28	294.77
714.61	293.95
714.95	293.11
715.28	292.27
715.61	291.38
715.95	290.54
716.28	289.68
716.61	288.85
716.95	288.06
717.28	287.31
717.61	286.53
717.94	285.81
718.28	285.02
718.61	284.30
718.94	283.58
719.27	282.95
719.61	282.31
719.94	281.65
720.27	280.89
720.60	280.25
720.94	279.63
721.27	279.06
721.60	278.46
721.93	277.90
722.27	277.35
722.60	276.79
722.93	276.21
723.26	275.70
723.59	275.13
723.93	274.58
724.26	274.01
724.59	273.44
724.92	272.93
725.25	272.45
725.59	271.93
725.92	271.44
726.25	270.90
726.58	270.42
726.91	269.91
727.24	269.46
727.57	268.98
727.91	268.46
728.24	268.00
728.57	267.50
728.90	267.00
729.23	266.49
729.56	266.08
729.89	265.58
730.22	265.05
730.55	264.57
730.89	264.07
731.22	263.62
731.55	263.20
731.88	262.76
732.21	262.31
732.54	261.84
732.87	261.36
733.20	260.97
733.53	260.58
733.86	260.22
734.19	259.83
734.52	259.41
734.85	259.11
735.18	258.61
735.51	258.25
735.84	257.86
736.17	257.50
736.50	257.05
736.83	256.81
737.16	256.50
737.49	256.14
737.82	255.84
738.15	255.53
738.48	255.17
738.81	254.86
739.14	254.50
739.47	254.20
739.80	253.95
740.13	253.60
740.46	253.22
740.79	252.86
741.12	252.54
741.45	252.24
741.78	251.86
742.11	251.62
742.44	251.30
742.77	251.02
743.10	250.72
743.43	250.44
743.75	250.05
744.08	249.90
744.41	249.66
744.74	249.36
745.07	249.07
745.40	248.83
745.73	248.60
746.06	248.32
746.39	248.10
746.71	247.79
747.04	247.50
747.37	247.28
747.70	247.04
748.03	246.81
748.36	246.60
748.68	246.41
749.01	246.17
749.34	245.96
749.67	245.72
750.00	245.50
750.33	245.38
750.65	245.18
750.98	244.84
751.31	244.63
751.64	244.44
751.97	244.30
752.29	244.08
752.62	243.81
752.95	243.62
753.28	243.39
753.60	243.21
753.93	243.09
754.26	242.89
754.59	242.67
754.91	242.46
755.24	242.23
755.57	242.05
755.90	241.91
756.22	241.72
756.55	241.52
756.88	241.32
757.20	241.08
757.53	240.89
757.86	240.72
758.19	240.57
758.51	240.41
758.84	240.20
759.17	239.99
759.49	239.83
759.82	239.72
760.15	239.55
760.47	239.40
760.80	239.17
761.13	239.08
761.45	238.95
761.78	238.81
762.11	238.71
762.43	238.51
762.76	238.36
763.08	238.22
763.41	238.11
763.74	237.98
764.06	237.84
764.39	237.70
764.71	237.58
765.04	237.41
765.37	237.28
765.69	237.14
766.02	237.08
766.34	236.96
766.67	236.84
767.00	236.78
767.32	236.73
767.65	236.73
767.97	236.56
768.30	236.45
768.62	236.33
768.95	236.21
769.27	236.12
769.60	236.02
769.92	235.92
770.25	235.79
770.57	235.71
770.90	235.61
771.22	235.50
771.55	235.37
771.87	235.32
772.20	235.20
772.52	235.19
772.85	235.18
773.17	235.08
773.50	234.95
773.82	234.83
774.15	234.67
774.47	234.51
774.80	234.41
775.12	234.31
775.45	234.22
775.77	234.14
776.09	234.05
776.42	233.93
776.74	233.87
777.07	233.82
777.39	233.71
777.72	233.62
778.04	233.59
778.36	233.52
778.69	233.42
779.01	233.34
779.33	233.18
779.66	232.99
779.98	232.89
780.31	232.87
780.63	232.85
780.95	232.80
781.28	232.73
781.60	232.68
781.92	232.63
782.25	232.57
782.57	232.49
782.89	232.43
783.22	232.39
783.54	232.29
783.86	232.23
784.19	232.18
784.51	232.19
784.83	232.12
785.16	232.07
785.48	232.00
785.80	231.98
786.12	231.92
786.45	231.89
786.77	231.87
787.09	231.79
787.42	231.74
787.74	231.71
788.06	231.69
788.38	231.64
788.71	231.59
789.03	231.58
789.35	231.53
789.67	231.49
789.99	231.44
790.32	231.40
790.64	231.37
790.96	231.41
791.28	231.28
791.61	231.24
791.93	231.21
792.25	231.20
792.57	231.23
792.89	231.19
793.21	231.16
793.54	231.11
793.86	231.05
794.18	230.99
794.50	230.92
794.82	230.86
795.14	230.85
795.47	230.82
795.79	230.74
796.11	230.68
796.43	230.64
796.75	230.61
797.07	230.60
797.39	230.58
797.71	230.46
798.04	230.49
798.36	230.47
798.68	230.44
799.00	230.38
799.32	230.28
799.64	230.30
799.96	230.26
800.28	230.22
800.60	230.23
800.92	230.19
801.24	230.14
801.56	230.14
801.89	230.08
802.21	230.09
802.53	230.03
802.85	230.03
803.17	230.06
803.49	230.02
803.81	229.96
804.13	229.92
804.45	229.87
804.77	229.85
805.09	229.81
805.41	229.73
805.73	229.70
806.05	229.65
806.37	229.58
806.69	229.53
807.01	229.52
807.33	229.46
807.65	229.38
807.97	229.42
808.28	229.36
808.60	229.35
808.92	229.28
809.24	229.31
809.56	229.26
809.88	229.20
810.20	229.15
810.52	229.16
810.84	229.13
811.16	229.10
811.48	229.01
811.80	229.03
812.12	229.01
812.43	229.01
812.75	228.97
813.07	228.94
813.39	228.93
813.71	228.90
814.03	228.87
814.35	228.89
814.67	228.79
814.98	228.77
815.30	228.72
815.62	228.69
815.94	228.61
816.26	228.62
816.58	228.57
816.89	228.58
817.21	228.53
817.53	228.51
817.85	228.50
818.17	228.50
818.48	228.44
818.80	228.43
819.12	228.41
819.44	228.39
819.76	228.38
820.07	228.37
820.39	228.35
820.71	228.35
821.03	228.29
821.34	228.29
821.66	228.29
821.98	228.28
822.30	228.27
822.61	228.32
822.93	228.25
823.25	228.25
823.57	228.23
823.88	228.25
824.20	228.24
824.52	228.25
824.83	228.25
825.15	228.21
825.47	228.23
825.79	228.22
826.10	228.21
826.42	228.22
826.74	228.22
827.05	228.18
827.37	228.18
827.69	228.20
828.00	228.20
828.32	228.19
828.64	228.18
828.95	228.22
829.27	228.18
829.58	228.20
829.90	228.20
830.22	228.18
830.53	228.12
830.85	228.10
831.17	228.06
831.48	228.04
831.80	228.02
832.11	227.99
832.43	227.97
832.75	227.97
833.06	227.98
833.38	227.94
833.69	227.95
834.01	227.94
834.32	227.91
834.64	227.89
834.96	227.87
835.27	227.86
835.59	227.83
835.90	227.82
836.22	227.80
836.53	227.79
836.85	227.80
837.16	227.92
837.48	227.94
837.79	227.99
838.11	228.03
838.42	228.05
838.74	228.05
839.05	228.06
839.37	228.04
839.68	228.01
840.00	228.01
840.31	228.03
840.63	228.04
840.94	228.06
841.26	228.04
841.57	228.02
841.88	228.06
842.20	228.07
842.51	228.08
842.83	228.10
843.14	228.17
843.46	228.15
843.77	228.05
844.08	228.04
844.40	227.98
844.71	227.91
845.03	227.90
845.34	227.90
845.65	227.87
845.97	227.88
846.28	227.86
846.60	227.88
846.91	227.85
847.22	227.84
847.54	227.86
847.85	227.89
848.16	227.90
848.48	227.89
848.79	227.89
849.10	227.87
849.42	227.84
849.73	227.74
850.04	227.72
850.36	227.72
850.67	227.73
850.98	227.76
851.30	227.79
851.61	227.76
851.92	227.78
852.23	227.83
852.55	227.81
852.86	227.81
853.17	227.80
853.49	227.84
853.80	227.85
854.11	227.85
854.42	227.85
854.74	227.83
855.05	227.80
855.36	227.74
855.67	227.74
855.99	227.74
856.30	227.87
856.61	227.87
856.92	227.86
857.23	227.84
857.55	227.78
857.86	227.76
858.17	227.81
858.48	227.77
858.79	227.73
859.11	227.74
859.42	227.73
859.73	227.68
860.04	227.65
860.35	227.58
860.66	227.51
860.98	227.50
861.29	227.51
861.60	227.52
861.91	227.52
862.22	227.48
862.53	227.47
862.84	227.35
863.16	227.38
863.47	227.38
863.78	227.37
864.09	227.40
864.40	227.41
864.71	227.39
865.02	227.40
865.33	227.40
865.64	227.35
865.95	227.32
866.27	227.41
866.58	227.38
866.89	227.38
867.20	227.41
867.51	227.40
867.82	227.40
868.13	227.42
868.44	227.42
868.75	227.43
869.06	227.47
869.37	227.47
869.68	227.41
869.99	227.43
870.30	227.43
870.61	227.43
870.92	227.40
871.23	227.39
871.54	227.41
871.85	227.45
872.16	227.48
872.47	227.51
872.78	227.46
873.09	227.50
873.40	227.56
873.71	227.57
874.02	227.58
874.33	227.57
874.64	227.54
874.95	227.56
875.26	227.55
875.56	227.51
875.87	227.49
876.18	227.49
876.49	227.58
876.80	227.59
877.11	227.57
877.42	227.57
877.73	227.58
878.04	227.58
878.35	227.57
878.66	227.60
878.96	227.58
879.27	227.58
879.58	227.57
879.89	227.55
880.20	227.55
880.51	227.52
880.82	227.53
881.12	227.55
881.43	227.53
881.74	227.52
882.05	227.52
882.36	227.54
882.67	227.54
882.97	227.41
883.28	227.37
883.59	227.38
883.90	227.39
884.21	227.42
884.51	227.41
884.82	227.36
885.13	227.33
885.44	227.34
885.74	227.32
886.05	227.30
886.36	227.29
886.67	227.28
886.98	227.34
887.28	227.35
887.59	227.32
887.90	227.31
888.20	227.30
888.51	227.33
888.82	227.32
889.13	227.34
889.43	227.46
889.74	227.45
890.05	227.44
890.35	227.41
890.66	227.39
890.97	227.36
891.28	227.37
891.58	227.35
891.89	227.34
892.20	227.33
892.50	227.31
892.81	227.31
893.12	227.28
893.42	227.23
893.73	227.20
894.04	227.22
894.34	227.21
894.65	227.21
894.95	227.23
895.26	227.23
895.57	227.29
895.87	227.16
896.18	227.16
896.48	227.16
896.79	227.18
897.10	227.18
897.40	227.18
897.71	227.18
898.01	227.17
898.32	227.18
898.63	227.18
898.93	227.18
899.24	227.17
899.54	227.19
899.85	227.19
900.15	227.18
900.46	227.16
900.76	227.18
901.07	227.16
901.38	227.12
901.68	227.10
901.99	227.02
902.29	227.07
902.60	227.07
902.90	227.06
903.21	227.06
903.51	227.03
903.82	227.05
904.12	227.05
904.43	227.08
904.73	227.06
905.03	227.06
905.34	227.15
905.64	227.12
905.95	227.12
906.25	227.09
906.56	227.11
906.86	227.11
907.17	227.12
907.47	227.12
907.77	227.14
908.08	227.12
908.38	227.14
908.69	227.11
908.99	227.17
909.30	227.18
909.60	227.17
909.90	227.21
910.21	227.21
910.51	227.19
910.81	227.18
911.12	227.18
911.42	227.19
911.73	227.12
912.03	227.14
912.33	227.19
912.64	227.21
912.94	227.17
913.24	227.16
913.55	227.11
913.85	227.13
914.15	227.12
914.46	227.14
914.76	227.13
915.06	227.12
915.37	227.06
915.67	227.07
915.97	227.09
916.27	227.04
916.58	227.05
916.88	227.06
917.18	227.08
917.49	227.16
917.79	227.14
918.09	227.14
918.39	227.17
918.70	227.13
919.00	227.12
919.30	227.17
919.60	227.15
919.91	227.18
920.21	227.18
920.51	227.18
920.81	227.19
921.12	227.20
921.42	227.21
921.72	227.20
922.02	227.19
922.32	227.20
922.63	227.20
922.93	227.24
923.23	227.24
923.53	227.23
923.83	227.17
924.13	227.21
924.44	227.22
924.74	227.22
925.04	227.23
925.34	227.22
925.64	227.19
925.94	227.18
926.24	227.24
926.55	227.21
926.85	227.20
927.15	227.16
927.45	227.16
927.75	227.15
928.05	227.16
928.35	227.14
928.65	227.13
928.95	227.16
929.26	227.13
929.56	227.14
929.86	227.15
930.16	227.16
930.46	227.10
930.76	227.09
931.06	227.05
931.36	227.04
931.66	227.07
931.96	227.10
932.26	227.18
932.56	227.13
932.86	227.12
933.16	227.11
933.46	227.09
933.76	227.08
934.06	227.13
934.36	227.17
934.66	227.17
934.96	227.18
935.26	227.17
935.56	227.16
935.86	227.09
936.16	227.10
936.46	227.05
936.76	227.07
937.06	227.07
937.36	227.06
937.66	227.05
937.96	227.04
938.26	226.97
938.56	226.92
938.86	226.94
939.16	226.97
939.46	226.98
939.76	227.00
940.06	227.00
940.35	226.93
940.65	226.87
940.95	226.88
941.25	226.83
941.55	226.81
941.85	226.80
942.15	226.83
942.45	226.82
942.75	226.83
943.04	226.80
943.34	226.82
943.64	226.81
943.94	226.80
944.24	226.79
944.54	226.80
944.84	226.80
945.13	226.78
945.43	226.79
945.73	226.80
946.03	226.84
946.33	226.82
946.62	226.85
946.92	226.86
947.22	226.89
947.52	226.93
947.82	226.97
948.11	226.96
948.41	226.96
948.71	226.93
949.01	226.96
949.31	226.98
949.60	226.98
949.90	227.02
950.20	227.00
950.50	227.03
950.79	227.04
951.09	227.05
951.39	227.05
951.69	227.04
951.98	227.06
952.28	227.05
952.58	227.06
952.87	227.04
953.17	227.08
953.47	227.07
953.76	227.06
954.06	227.02
954.36	227.01
954.66	227.03
954.95	227.05
955.25	227.04
955.55	227.04
955.84	227.02
956.14	227.00
956.44	227.03
956.73	227.03
957.03	227.03
957.32	227.04
957.62	227.03
957.92	227.05
958.21	227.03
958.51	227.14
958.81	227.16
959.10	227.19
959.40	227.16
959.69	227.20
959.99	227.23
960.29	227.25
960.58	227.25
960.88	227.28
961.17	227.31
961.47	227.30
961.76	227.32
962.06	227.34
962.36	227.36
962.65	227.35
962.95	227.35
963.24	227.37
963.54	227.35
963.83	227.41
964.13	227.38
964.42	227.34
964.72	227.20
965.01	227.20
965.31	227.17
965.60	227.14
965.90	227.15
966.19	227.10
966.49	227.10
966.78	227.10
967.08	227.12
967.37	227.07
967.67	227.06
967.96	227.03
968.26	227.03
968.55	227.02
968.85	227.02
969.14	226.99
969.43	226.97
969.73	226.97
970.02	226.92
970.32	226.94
970.61	226.93
970.91	226.92
971.20	226.86
971.49	226.85
971.79	226.91
972.08	226.84
972.38	226.85
972.67	226.83
972.96	226.84
973.26	226.78
973.55	226.78
973.85	226.75
974.14	226.77
974.43	226.74
974.73	226.73
975.02	226.69
975.31	226.67
975.61	226.65
975.90	226.64
976.19	226.62
976.49	226.58
976.78	226.60
977.07	226.65
977.37	226.67
977.66	226.69
977.95	226.63
978.24	226.64
978.54	226.64
978.83	226.61
979.12	226.59
979.42	226.61
979.71	226.62
980.00	226.63
980.29	226.64
980.59	226.64
980.88	226.68
981.17	226.71
981.46	226.76
981.76	226.78
982.05	226.77
982.34	226.80
982.63	226.85
982.93	226.88
983.22	226.87
983.51	226.89
983.80	226.90
984.09	226.92
984.39	226.92
984.68	226.92
984.97	226.96
985.26	226.99
985.55	226.96
985.85	226.93
986.14	226.94
986.43	226.96
986.72	226.96
987.01	226.93
987.30	226.93
987.59	226.90
987.89	226.90
988.18	226.90
988.47	226.89
988.76	226.86
989.05	226.83
989.34	226.84
989.63	226.88
989.92	226.89
990.22	226.88
990.51	226.88
990.80	226.84
991.09	226.85
991.38	226.87
991.67	226.90
991.96	226.93
992.25	226.94
992.54	226.91
992.83	226.91
993.12	226.91
993.41	226.93
993.70	226.98
993.99	226.99
994.28	227.01
994.58	227.02
994.87	227.04
995.16	227.02
995.45	226.98
995.74	226.97
996.03	226.98
996.32	227.00
996.61	227.04
996.90	227.09
997.19	227.08
997.48	227.07
997.77	227.05
998.06	227.05
998.34	227.05
998.63	227.08
998.92	227.11
999.21	227.08
999.50	227.09
999.79	227.02
1000.08	227.05
1000.37	227.08
1000.66	227.05
1000.95	227.07
1001.24	227.10
1001.53	227.11
1001.82	227.08
1002.11	227.06
1002.40	227.08
1002.68	227.08
1002.97	227.11
1003.26	227.11
1003.55	227.09
1003.84	227.12
1004.13	227.14
1004.42	227.14
1004.71	227.14
1004.99	227.12
1005.28	227.16
1005.57	227.12
1005.86	227.13
1006.15	227.09
1006.44	227.07
1006.72	227.06
1007.01	227.05
1007.30	227.02
1007.59	227.04
1007.88	227.03
1008.17	226.98
1008.45	226.98
1008.74	226.92
1009.03	226.84
1009.32	226.83
1009.60	226.79
1009.89	226.75
1010.18	226.69
1010.47	226.67
1010.76	226.66
1011.04	226.64
1011.33	226.64
1011.62	226.66
1011.91	226.66
1012.19	226.65
1012.48	226.62
1012.77	226.66
1013.05	226.69
1013.34	226.70
1013.63	226.67
1013.92	226.71
1014.20	226.73
1014.49	226.75
1014.78	226.77
1015.06	226.77
1015.35	226.76
1015.64	226.79
1015.92	226.80
1016.21	226.81
1016.50	226.77
1016.78	226.78
1017.07	226.81
1017.36	226.80
1017.64	226.78
1017.93	226.81
1018.22	226.80
1018.50	226.82
1018.79	226.79
1019.08	226.74
1019.36	226.74
1019.65	226.74
1019.93	226.73
1020.22	226.75
1020.51	226.74
1020.79	226.74
1021.08	226.44
1021.36	226.90
1021.65	226.54
1021.94	226.64
1022.22	226.66
1022.51	226.40
1022.79	227.10
1023.08	227.12
1023.36	227.29
1023.65	226.74
>>>>>End Processed Spectral Data<<<<<
