SpectraSuite Data File
++++++++++++++++++++++++++++++++++++
Date: Fri Feb 01 15:56:56 EST 2013
User: group
Dark Spectrum Present: No
Reference Spectrum Present: No
Number of Sampled Component Spectra: 1
Spectrometers: USB2E7196
Integration Time (usec): 35000 (USB2E7196)
Spectra Averaged: 100 (USB2E7196)
Boxcar Smoothing: 10 (USB2E7196)
Correct for Electrical Dark: No (USB2E7196)
Strobe/Lamp Enabled: No (USB2E7196)
Correct for Detector Non-linearity: No (USB2E7196)
Correct for Stray Light: No (USB2E7196)
Number of Pixels in Processed Spectrum: 2048
>>>>>Begin Processed Spectral Data<<<<<
339.09	0.00
339.48	214.49
339.86	215.59
340.24	217.60
340.63	218.75
341.01	221.37
341.39	221.67
341.78	223.03
342.16	224.00
342.54	224.32
342.93	212.94
343.31	223.71
343.69	224.29
344.07	224.78
344.46	225.20
344.84	225.57
345.22	225.82
345.60	226.07
345.99	226.25
346.37	226.38
346.75	226.50
347.13	226.58
347.52	226.65
347.90	226.73
348.28	226.77
348.66	226.85
349.05	226.85
349.43	226.94
349.81	226.97
350.19	227.03
350.57	227.11
350.96	227.16
351.34	227.25
351.72	227.32
352.10	227.46
352.48	227.53
352.87	227.59
353.25	227.69
353.63	227.74
354.01	227.79
354.39	227.89
354.77	227.99
355.15	228.09
355.54	228.14
355.92	228.20
356.30	228.28
356.68	228.42
357.06	228.54
357.44	228.54
357.82	228.60
358.20	228.68
358.58	228.74
358.97	228.83
359.35	228.92
359.73	228.99
360.11	228.97
360.49	229.03
360.87	229.11
361.25	229.16
361.63	229.26
362.01	229.34
362.39	229.34
362.77	229.34
363.15	229.35
363.53	229.40
363.91	229.41
364.29	229.44
364.67	229.36
365.05	229.35
365.43	229.40
365.81	229.43
366.19	229.47
366.57	229.52
366.95	229.50
367.33	229.46
367.71	229.45
368.09	229.48
368.47	229.47
368.85	229.42
369.23	229.42
369.61	229.32
369.99	229.30
370.37	229.33
370.75	229.35
371.13	229.29
371.51	229.21
371.89	229.16
372.27	229.12
372.65	229.05
373.03	229.02
373.41	228.93
373.78	228.86
374.16	228.78
374.54	228.67
374.92	228.57
375.30	228.51
375.68	228.41
376.06	228.35
376.44	228.28
376.82	228.22
377.19	228.14
377.57	228.09
377.95	227.97
378.33	227.86
378.71	227.74
379.09	227.69
379.47	227.66
379.84	227.59
380.22	227.48
380.60	227.42
380.98	227.32
381.36	227.24
381.73	227.17
382.11	227.08
382.49	227.03
382.87	226.97
383.25	226.89
383.62	226.97
384.00	226.88
384.38	226.82
384.76	226.78
385.13	226.73
385.51	226.68
385.89	226.59
386.27	226.52
386.64	226.51
387.02	226.45
387.40	226.36
387.78	226.33
388.15	226.30
388.53	226.25
388.91	226.22
389.29	226.19
389.66	226.15
390.04	226.12
390.42	226.13
390.79	226.13
391.17	226.14
391.55	226.00
391.92	225.98
392.30	225.98
392.68	225.97
393.05	225.98
393.43	226.00
393.81	226.06
394.18	226.07
394.56	226.07
394.94	226.09
395.31	226.10
395.69	226.16
396.06	226.19
396.44	226.21
396.82	226.25
397.19	226.34
397.57	226.41
397.95	226.47
398.32	226.48
398.70	226.51
399.07	226.57
399.45	226.61
399.82	226.68
400.20	226.74
400.58	226.79
400.95	226.86
401.33	226.95
401.70	227.11
402.08	227.22
402.45	227.30
402.83	227.43
403.20	227.57
403.58	227.71
403.95	227.85
404.33	228.01
404.71	228.16
405.08	228.34
405.46	228.47
405.83	228.62
406.21	228.78
406.58	228.98
406.96	229.16
407.33	229.38
407.70	229.57
408.08	229.88
408.45	230.11
408.83	230.35
409.20	230.56
409.58	230.72
409.95	231.00
410.33	231.28
410.70	231.55
411.08	231.85
411.45	232.14
411.82	232.48
412.20	232.83
412.57	233.25
412.95	233.56
413.32	233.96
413.69	234.37
414.07	234.85
414.44	235.32
414.82	235.80
415.19	236.34
415.56	236.89
415.94	237.39
416.31	238.03
416.68	238.61
417.06	239.32
417.43	240.03
417.81	240.79
418.18	241.55
418.55	242.37
418.93	243.27
419.30	244.18
419.67	245.09
420.04	246.07
420.42	247.01
420.79	248.21
421.16	249.34
421.54	250.50
421.91	251.67
422.28	252.91
422.66	254.27
423.03	255.57
423.40	256.91
423.77	258.30
424.15	259.75
424.52	261.27
424.89	262.90
425.26	264.43
425.64	265.85
426.01	267.46
426.38	269.07
426.75	270.76
427.13	272.45
427.50	274.22
427.87	276.12
428.24	278.01
428.61	279.74
428.99	281.70
429.36	283.83
429.73	285.89
430.10	287.89
430.47	289.89
430.85	291.98
431.22	294.24
431.59	296.62
431.96	298.83
432.33	301.30
432.70	303.64
433.08	306.41
433.45	309.04
433.82	311.66
434.19	314.59
434.56	317.35
434.93	320.03
435.30	322.67
435.68	325.48
436.05	328.28
436.42	331.03
436.79	333.53
437.16	336.18
437.53	339.01
437.90	341.84
438.27	344.58
438.64	347.44
439.01	349.96
439.38	352.19
439.75	354.38
440.13	356.86
440.50	359.19
440.87	361.06
441.24	363.00
441.61	365.14
441.98	366.59
442.35	368.35
442.72	370.19
443.09	371.97
443.46	372.96
443.83	373.57
444.20	374.08
444.57	374.89
444.94	375.20
445.31	375.51
445.68	375.79
446.05	375.87
446.42	375.43
446.79	375.03
447.16	374.61
447.53	374.24
447.90	373.10
448.27	371.94
448.64	370.32
449.01	369.19
449.37	367.17
449.74	365.28
450.11	363.07
450.48	360.55
450.85	358.03
451.22	355.84
451.59	353.82
451.96	351.85
452.33	349.24
452.70	346.91
453.07	344.11
453.43	341.28
453.80	338.53
454.17	335.89
454.54	333.40
454.91	330.67
455.28	328.04
455.65	325.54
456.02	323.09
456.38	320.97
456.75	318.33
457.12	316.12
457.49	313.93
457.86	311.78
458.23	309.97
458.59	307.97
458.96	305.95
459.33	304.09
459.70	302.27
460.07	300.77
460.43	299.03
460.80	297.42
461.17	296.01
461.54	294.52
461.91	293.09
462.27	291.63
462.64	290.38
463.01	289.05
463.38	287.79
463.74	286.44
464.11	285.33
464.48	284.30
464.85	283.22
465.21	282.36
465.58	281.43
465.95	280.32
466.32	279.37
466.68	278.46
467.05	277.55
467.42	276.64
467.78	275.77
468.15	274.93
468.52	274.28
468.88	273.36
469.25	272.58
469.62	271.99
469.98	271.33
470.35	270.70
470.72	270.08
471.08	269.39
471.45	268.82
471.82	268.27
472.18	267.71
472.55	267.26
472.92	266.74
473.28	266.26
473.65	265.83
474.02	265.38
474.38	265.01
474.75	264.67
475.11	264.33
475.48	264.05
475.85	263.82
476.21	263.57
476.58	263.42
476.94	263.31
477.31	263.12
477.67	262.95
478.04	262.85
478.41	262.79
478.77	262.86
479.14	262.84
479.50	262.84
479.87	262.89
480.23	262.98
480.60	263.05
480.96	263.16
481.33	263.37
481.69	263.59
482.06	263.84
482.42	264.07
482.79	264.36
483.15	264.69
483.52	265.06
483.88	265.38
484.25	265.78
484.61	266.19
484.98	266.66
485.34	267.26
485.71	267.80
486.07	268.42
486.44	268.94
486.80	269.64
487.17	270.35
487.53	271.17
487.90	272.01
488.26	272.93
488.62	273.92
488.99	274.92
489.35	275.94
489.72	277.06
490.08	278.25
490.44	279.48
490.81	280.79
491.17	282.12
491.54	283.62
491.90	285.15
492.26	286.82
492.63	288.54
492.99	290.28
493.36	292.21
493.72	294.23
494.08	296.37
494.45	298.61
494.81	301.02
495.17	303.47
495.54	305.99
495.90	308.67
496.26	311.46
496.63	314.46
496.99	317.59
497.35	320.81
497.72	324.25
498.08	327.76
498.44	331.46
498.80	335.42
499.17	339.45
499.53	343.59
499.89	347.93
500.26	352.41
500.62	357.12
500.98	362.08
501.34	367.20
501.71	372.48
502.07	377.96
502.43	383.57
502.79	389.35
503.16	395.45
503.52	401.74
503.88	408.17
504.24	414.71
504.60	421.65
504.97	428.80
505.33	436.10
505.69	443.82
506.05	451.62
506.41	459.48
506.78	467.64
507.14	476.15
507.50	484.88
507.86	493.94
508.22	503.16
508.59	512.42
508.95	521.97
509.31	531.82
509.67	541.89
510.03	552.19
510.39	562.77
510.75	573.53
511.12	584.45
511.48	595.74
511.84	607.22
512.20	618.67
512.56	630.64
512.92	642.79
513.28	655.09
513.64	667.58
514.00	680.30
514.37	693.25
514.73	706.28
515.09	719.37
515.45	732.68
515.81	746.13
516.17	760.10
516.53	774.23
516.89	788.40
517.25	802.61
517.61	816.92
517.97	831.40
518.33	845.92
518.69	860.73
519.05	875.69
519.41	890.93
519.77	906.49
520.13	921.89
520.49	937.23
520.85	952.70
521.21	968.35
521.57	984.61
521.93	1000.31
522.29	1016.72
522.65	1032.87
523.01	1049.04
523.37	1065.11
523.73	1081.31
524.09	1097.40
524.45	1113.68
524.81	1130.27
525.17	1147.14
525.53	1164.06
525.89	1180.89
526.25	1197.71
526.61	1214.12
526.97	1230.69
527.33	1247.09
527.68	1263.64
528.04	1280.07
528.40	1296.68
528.76	1313.74
529.12	1330.24
529.48	1347.13
529.84	1362.98
530.20	1379.64
530.56	1396.64
530.91	1414.01
531.27	1430.68
531.63	1447.16
531.99	1463.72
532.35	1479.69
532.71	1495.50
533.07	1511.68
533.42	1527.54
533.78	1543.43
534.14	1559.75
534.50	1575.22
534.86	1591.17
535.21	1606.34
535.57	1622.27
535.93	1637.65
536.29	1652.39
536.65	1667.46
537.00	1682.24
537.36	1697.52
537.72	1711.95
538.08	1726.23
538.44	1739.98
538.79	1753.73
539.15	1767.27
539.51	1780.97
539.87	1795.18
540.22	1808.95
540.58	1822.64
540.94	1835.92
541.29	1848.88
541.65	1861.32
542.01	1874.41
542.37	1886.65
542.72	1899.04
543.08	1910.83
543.44	1923.18
543.79	1934.36
544.15	1945.32
544.51	1956.83
544.87	1967.86
545.22	1978.67
545.58	1988.96
545.94	1998.73
546.29	2008.69
546.65	2018.44
547.01	2027.63
547.36	2036.30
547.72	2044.59
548.07	2052.32
548.43	2060.46
548.79	2068.42
549.14	2075.98
549.50	2083.22
549.86	2090.85
550.21	2098.25
550.57	2105.27
550.92	2111.91
551.28	2118.93
551.64	2125.95
551.99	2132.34
552.35	2138.36
552.70	2144.57
553.06	2150.55
553.41	2157.03
553.77	2163.02
554.13	2169.23
554.48	2175.42
554.84	2180.92
555.19	2186.46
555.55	2191.68
555.90	2196.13
556.26	2200.99
556.61	2205.78
556.97	2210.20
557.32	2214.34
557.68	2218.35
558.03	2222.63
558.39	2226.31
558.74	2230.97
559.10	2234.79
559.45	2238.38
559.81	2242.84
560.16	2246.52
560.52	2249.80
560.87	2252.92
561.23	2255.49
561.58	2258.40
561.94	2260.92
562.29	2263.22
562.64	2265.78
563.00	2268.48
563.35	2271.91
563.71	2275.13
564.06	2278.34
564.42	2281.16
564.77	2283.58
565.12	2285.87
565.48	2287.87
565.83	2289.66
566.19	2290.91
566.54	2291.83
566.89	2293.11
567.25	2293.66
567.60	2295.06
567.96	2296.69
568.31	2297.76
568.66	2299.05
569.02	2299.67
569.37	2299.97
569.72	2300.95
570.08	2301.11
570.43	2300.98
570.78	2300.56
571.14	2298.90
571.49	2297.64
571.84	2297.35
572.20	2296.35
572.55	2295.29
572.90	2293.71
573.26	2292.34
573.61	2290.63
573.96	2288.97
574.31	2286.13
574.67	2283.18
575.02	2279.54
575.37	2276.11
575.72	2272.14
576.08	2268.69
576.43	2265.32
576.78	2261.63
577.13	2258.45
577.49	2255.47
577.84	2252.07
578.19	2248.25
578.54	2244.70
578.90	2240.37
579.25	2234.94
579.60	2229.97
579.95	2225.00
580.30	2220.11
580.66	2215.08
581.01	2210.33
581.36	2205.29
581.71	2200.94
582.06	2196.43
582.42	2192.01
582.77	2186.81
583.12	2182.32
583.47	2177.65
583.82	2172.52
584.17	2167.36
584.53	2161.95
584.88	2156.22
585.23	2150.46
585.58	2145.13
585.93	2139.69
586.28	2134.87
586.63	2129.70
586.98	2124.57
587.34	2119.79
587.69	2114.91
588.04	2109.50
588.39	2103.70
588.74	2097.34
589.09	2091.32
589.44	2084.50
589.79	2078.49
590.14	2072.95
590.49	2066.37
590.84	2059.93
591.19	2054.03
591.54	2047.57
591.89	2040.05
592.25	2033.20
592.60	2025.96
592.95	2018.21
593.30	2010.92
593.65	2003.33
594.00	1996.39
594.35	1989.20
594.70	1981.25
595.05	1973.97
595.40	1966.71
595.75	1959.19
596.10	1952.95
596.45	1946.10
596.80	1940.13
597.15	1933.52
597.50	1926.36
597.85	1919.99
598.19	1913.37
598.54	1906.26
598.89	1899.58
599.24	1893.69
599.59	1887.07
599.94	1880.93
600.29	1874.59
600.64	1868.02
600.99	1860.55
601.34	1853.67
601.69	1846.89
602.04	1839.99
602.39	1832.59
602.74	1825.81
603.08	1819.06
603.43	1812.42
603.78	1805.15
604.13	1797.82
604.48	1790.35
604.83	1783.46
605.18	1776.38
605.53	1768.33
605.87	1760.33
606.22	1753.09
606.57	1745.24
606.92	1737.80
607.27	1730.57
607.62	1723.63
607.96	1716.35
608.31	1709.73
608.66	1702.01
609.01	1694.14
609.36	1686.61
609.70	1678.60
610.05	1670.55
610.40	1662.88
610.75	1654.54
611.10	1646.81
611.44	1638.45
611.79	1630.50
612.14	1621.80
612.49	1612.74
612.83	1604.46
613.18	1596.36
613.53	1588.23
613.88	1579.60
614.22	1571.37
614.57	1562.77
614.92	1554.79
615.27	1547.11
615.61	1538.91
615.96	1530.91
616.31	1523.47
616.65	1516.06
617.00	1508.53
617.35	1500.85
617.70	1492.45
618.04	1483.84
618.39	1475.76
618.74	1468.09
619.08	1459.83
619.43	1452.26
619.78	1445.45
620.12	1438.22
620.47	1430.71
620.82	1422.71
621.16	1415.37
621.51	1407.85
621.85	1400.26
622.20	1391.75
622.55	1383.45
622.89	1375.58
623.24	1368.00
623.59	1360.53
623.93	1352.97
624.28	1345.81
624.62	1338.16
624.97	1331.04
625.32	1324.29
625.66	1317.12
626.01	1309.97
626.35	1302.51
626.70	1294.85
627.04	1287.01
627.39	1279.24
627.73	1271.85
628.08	1264.77
628.43	1257.45
628.77	1249.98
629.12	1242.48
629.46	1235.30
629.81	1227.91
630.15	1220.71
630.50	1213.23
630.84	1205.01
631.19	1197.13
631.53	1189.64
631.88	1182.19
632.22	1174.60
632.57	1167.38
632.91	1159.92
633.26	1152.43
633.60	1145.08
633.95	1137.96
634.29	1130.83
634.64	1124.17
634.98	1116.75
635.32	1109.65
635.67	1103.09
636.01	1096.50
636.36	1089.61
636.70	1083.09
637.05	1076.51
637.39	1070.03
637.73	1063.51
638.08	1057.69
638.42	1051.75
638.77	1045.28
639.11	1038.66
639.45	1032.22
639.80	1025.55
640.14	1019.15
640.49	1012.66
640.83	1006.39
641.17	1000.03
641.52	993.77
641.86	987.29
642.20	981.43
642.55	975.20
642.89	968.73
643.23	962.18
643.58	956.51
643.92	950.36
644.26	944.25
644.61	938.19
644.95	932.18
645.29	925.55
645.64	918.76
645.98	912.36
646.32	906.59
646.66	900.57
647.01	894.73
647.35	889.02
647.69	883.24
648.04	877.65
648.38	871.94
648.72	865.91
649.06	859.87
649.41	853.99
649.75	847.99
650.09	842.03
650.43	836.26
650.78	829.96
651.12	823.99
651.46	818.32
651.80	812.55
652.14	807.15
652.49	801.81
652.83	796.63
653.17	790.97
653.51	785.18
653.85	779.80
654.20	774.12
654.54	768.12
654.88	762.33
655.22	756.49
655.56	750.86
655.90	745.42
656.25	740.17
656.59	734.89
656.93	729.78
657.27	724.59
657.61	719.17
657.95	714.16
658.29	709.10
658.64	703.81
658.98	698.51
659.32	693.09
659.66	687.83
660.00	682.60
660.34	677.71
660.68	672.85
661.02	667.92
661.36	663.27
661.70	658.79
662.05	654.45
662.39	650.17
662.73	645.67
663.07	641.29
663.41	636.89
663.75	632.35
664.09	627.82
664.43	623.48
664.77	619.37
665.11	615.11
665.45	610.97
665.79	606.94
666.13	602.85
666.47	598.80
666.81	594.69
667.15	590.57
667.49	586.61
667.83	582.80
668.17	578.82
668.51	574.81
668.85	570.72
669.19	566.89
669.53	563.00
669.87	559.10
670.21	555.44
670.55	551.81
670.89	548.40
671.23	544.97
671.57	541.45
671.91	537.87
672.25	534.42
672.58	530.87
672.92	527.43
673.26	524.29
673.60	521.11
673.94	518.03
674.28	515.13
674.62	512.21
674.96	509.13
675.30	506.20
675.64	503.17
675.97	500.40
676.31	497.50
676.65	494.59
676.99	491.95
677.33	489.06
677.67	486.17
678.01	483.11
678.34	480.04
678.68	477.12
679.02	474.31
679.36	471.51
679.70	468.83
680.04	466.05
680.37	463.12
680.71	460.31
681.05	457.68
681.39	454.90
681.73	452.19
682.06	449.64
682.40	447.04
682.74	444.54
683.08	442.00
683.42	439.45
683.75	436.96
684.09	434.39
684.43	431.94
684.77	429.56
685.10	427.20
685.44	424.97
685.78	422.65
686.12	420.42
686.45	418.09
686.79	415.77
687.13	413.63
687.46	411.51
687.80	409.36
688.14	407.16
688.48	405.12
688.81	402.88
689.15	400.72
689.49	398.62
689.82	396.56
690.16	394.47
690.50	392.51
690.83	390.52
691.17	388.52
691.51	386.62
691.84	384.77
692.18	382.84
692.52	380.82
692.85	378.95
693.19	377.07
693.52	375.26
693.86	373.44
694.20	371.63
694.53	369.83
694.87	368.02
695.21	366.22
695.54	364.36
695.88	362.65
696.21	360.97
696.55	359.32
696.88	357.64
697.22	356.00
697.56	354.42
697.89	352.77
698.23	351.16
698.56	349.54
698.90	347.94
699.23	346.33
699.57	344.82
699.90	343.25
700.24	341.71
700.58	340.21
700.91	338.74
701.25	337.29
701.58	335.91
701.92	334.53
702.25	333.12
702.59	331.81
702.92	330.50
703.26	329.15
703.59	327.86
703.93	326.64
704.26	325.38
704.60	324.02
704.93	322.73
705.26	321.50
705.60	320.31
705.93	319.14
706.27	318.12
706.60	317.02
706.94	315.97
707.27	314.85
707.61	313.78
707.94	312.73
708.27	311.64
708.61	310.55
708.94	309.55
709.28	308.63
709.61	307.65
709.94	306.69
710.28	305.66
710.61	304.70
710.95	303.67
711.28	302.77
711.61	301.86
711.95	300.96
712.28	300.04
712.61	299.06
712.95	298.13
713.28	297.19
713.61	296.33
713.95	295.45
714.28	294.60
714.61	293.71
714.95	292.87
715.28	292.01
715.61	291.13
715.95	290.25
716.28	289.34
716.61	288.50
716.95	287.65
717.28	286.88
717.61	286.08
717.94	285.33
718.28	284.52
718.61	283.80
718.94	283.09
719.27	282.41
719.61	281.77
719.94	281.11
720.27	280.42
720.60	279.73
720.94	279.06
721.27	278.48
721.60	277.88
721.93	277.27
722.27	276.73
722.60	276.18
722.93	275.63
723.26	275.10
723.59	274.55
723.93	273.98
724.26	273.46
724.59	272.94
724.92	272.42
725.25	271.91
725.59	271.34
725.92	270.83
726.25	270.34
726.58	269.83
726.91	269.31
727.24	268.85
727.57	268.40
727.91	267.92
728.24	267.47
728.57	267.03
728.90	266.60
729.23	266.10
729.56	265.68
729.89	265.21
730.22	264.79
730.55	264.32
730.89	263.93
731.22	263.47
731.55	263.01
731.88	262.61
732.21	262.20
732.54	261.76
732.87	261.36
733.20	260.97
733.53	260.57
733.86	260.23
734.19	259.85
734.52	259.46
734.85	259.16
735.18	258.71
735.51	258.32
735.84	257.93
736.17	257.60
736.50	257.19
736.83	256.97
737.16	256.58
737.49	256.27
737.82	255.92
738.15	255.60
738.48	255.26
738.81	254.92
739.14	254.61
739.47	254.37
739.80	254.04
740.13	253.74
740.46	253.41
740.79	253.09
741.12	252.77
741.45	252.45
741.78	252.10
742.11	251.83
742.44	251.51
742.77	251.26
743.10	250.97
743.43	250.70
743.75	250.33
744.08	250.19
744.41	249.91
744.74	249.66
745.07	249.37
745.40	249.14
745.73	248.89
746.06	248.62
746.39	248.35
746.71	248.09
747.04	247.80
747.37	247.55
747.70	247.27
748.03	246.99
748.36	246.81
748.68	246.56
749.01	246.31
749.34	246.12
749.67	245.87
750.00	245.63
750.33	245.47
750.65	245.25
750.98	244.89
751.31	244.66
751.64	244.42
751.97	244.29
752.29	244.08
752.62	243.81
752.95	243.59
753.28	243.33
753.60	243.15
753.93	242.96
754.26	242.76
754.59	242.53
754.91	242.36
755.24	242.14
755.57	241.94
755.90	241.74
756.22	241.50
756.55	241.29
756.88	241.10
757.20	240.86
757.53	240.64
757.86	240.48
758.19	240.29
758.51	240.13
758.84	239.88
759.17	239.69
759.49	239.52
759.82	239.41
760.15	239.28
760.47	239.12
760.80	238.94
761.13	238.81
761.45	238.65
761.78	238.48
762.11	238.32
762.43	238.19
762.76	238.03
763.08	237.93
763.41	237.79
763.74	237.63
764.06	237.46
764.39	237.33
764.71	237.19
765.04	237.05
765.37	236.90
765.69	236.79
766.02	236.67
766.34	236.53
766.67	236.38
767.00	236.28
767.32	236.19
767.65	236.16
767.97	236.04
768.30	235.97
768.62	235.89
768.95	235.79
769.27	235.69
769.60	235.59
769.92	235.47
770.25	235.37
770.57	235.25
770.90	235.18
771.22	235.10
771.55	235.01
771.87	234.94
772.20	234.88
772.52	234.88
772.85	234.90
773.17	234.84
773.50	234.74
773.82	234.65
774.15	234.55
774.47	234.36
774.80	234.29
775.12	234.20
775.45	234.12
775.77	234.04
776.09	233.94
776.42	233.87
776.74	233.82
777.07	233.70
777.39	233.68
777.72	233.60
778.04	233.51
778.36	233.47
778.69	233.41
779.01	233.32
779.33	233.19
779.66	233.03
779.98	232.95
780.31	232.87
780.63	232.86
780.95	232.79
781.28	232.74
781.60	232.66
781.92	232.61
782.25	232.57
782.57	232.48
782.89	232.42
783.22	232.37
783.54	232.28
783.86	232.26
784.19	232.17
784.51	232.15
784.83	232.07
785.16	232.00
785.48	231.95
785.80	231.88
786.12	231.82
786.45	231.76
786.77	231.71
787.09	231.65
787.42	231.55
787.74	231.52
788.06	231.53
788.38	231.48
788.71	231.41
789.03	231.34
789.35	231.30
789.67	231.21
789.99	231.16
790.32	231.10
790.64	231.09
790.96	231.12
791.28	231.04
791.61	230.97
791.93	230.91
792.25	230.85
792.57	230.89
792.89	230.82
793.21	230.76
793.54	230.69
793.86	230.65
794.18	230.60
794.50	230.52
794.82	230.45
795.14	230.40
795.47	230.36
795.79	230.32
796.11	230.27
796.43	230.24
796.75	230.18
797.07	230.17
797.39	230.10
797.71	229.98
798.04	229.93
798.36	229.90
798.68	229.90
799.00	229.87
799.32	229.81
799.64	229.81
799.96	229.78
800.28	229.79
800.60	229.76
800.92	229.69
801.24	229.67
801.56	229.63
801.89	229.63
802.21	229.63
802.53	229.59
802.85	229.58
803.17	229.62
803.49	229.61
803.81	229.56
804.13	229.55
804.45	229.55
804.77	229.58
805.09	229.60
805.41	229.53
805.73	229.51
806.05	229.45
806.37	229.40
806.69	229.39
807.01	229.36
807.33	229.35
807.65	229.34
807.97	229.37
808.28	229.31
808.60	229.28
808.92	229.23
809.24	229.25
809.56	229.24
809.88	229.20
810.20	229.16
810.52	229.18
810.84	229.14
811.16	229.12
811.48	229.07
811.80	229.05
812.12	229.05
812.43	229.04
812.75	229.00
813.07	228.97
813.39	228.93
813.71	228.91
814.03	228.87
814.35	228.88
814.67	228.80
814.98	228.79
815.30	228.75
815.62	228.72
815.94	228.67
816.26	228.72
816.58	228.68
816.89	228.68
817.21	228.60
817.53	228.60
817.85	228.57
818.17	228.55
818.48	228.54
818.80	228.56
819.12	228.52
819.44	228.50
819.76	228.48
820.07	228.46
820.39	228.43
820.71	228.43
821.03	228.41
821.34	228.42
821.66	228.44
821.98	228.45
822.30	228.45
822.61	228.47
822.93	228.37
823.25	228.34
823.57	228.31
823.88	228.34
824.20	228.28
824.52	228.29
824.83	228.26
825.15	228.23
825.47	228.20
825.79	228.19
826.10	228.20
826.42	228.16
826.74	228.16
827.05	228.14
827.37	228.09
827.69	228.06
828.00	228.01
828.32	227.98
828.64	227.96
828.95	228.00
829.27	227.95
829.58	227.93
829.90	227.92
830.22	227.91
830.53	227.86
830.85	227.87
831.17	227.79
831.48	227.76
831.80	227.75
832.11	227.72
832.43	227.67
832.75	227.63
833.06	227.70
833.38	227.68
833.69	227.67
834.01	227.69
834.32	227.67
834.64	227.67
834.96	227.64
835.27	227.59
835.59	227.52
835.90	227.49
836.22	227.48
836.53	227.48
836.85	227.47
837.16	227.55
837.48	227.54
837.79	227.57
838.11	227.59
838.42	227.59
838.74	227.59
839.05	227.61
839.37	227.62
839.68	227.56
840.00	227.54
840.31	227.53
840.63	227.51
840.94	227.49
841.26	227.44
841.57	227.42
841.88	227.45
842.20	227.43
842.51	227.45
842.83	227.44
843.14	227.50
843.46	227.48
843.77	227.41
844.08	227.43
844.40	227.39
844.71	227.37
845.03	227.32
845.34	227.31
845.65	227.28
845.97	227.27
846.28	227.28
846.60	227.27
846.91	227.24
847.22	227.24
847.54	227.27
847.85	227.32
848.16	227.35
848.48	227.33
848.79	227.39
849.10	227.36
849.42	227.38
849.73	227.32
850.04	227.33
850.36	227.31
850.67	227.32
850.98	227.35
851.30	227.37
851.61	227.39
851.92	227.38
852.23	227.43
852.55	227.45
852.86	227.46
853.17	227.47
853.49	227.50
853.80	227.53
854.11	227.58
854.42	227.60
854.74	227.57
855.05	227.62
855.36	227.56
855.67	227.56
855.99	227.56
856.30	227.64
856.61	227.64
856.92	227.67
857.23	227.65
857.55	227.61
857.86	227.59
858.17	227.61
858.48	227.60
858.79	227.58
859.11	227.56
859.42	227.54
859.73	227.55
860.04	227.56
860.35	227.52
860.66	227.49
860.98	227.48
861.29	227.50
861.60	227.48
861.91	227.51
862.22	227.51
862.53	227.49
862.84	227.41
863.16	227.42
863.47	227.37
863.78	227.35
864.09	227.39
864.40	227.40
864.71	227.38
865.02	227.39
865.33	227.35
865.64	227.35
865.95	227.31
866.27	227.36
866.58	227.33
866.89	227.29
867.20	227.25
867.51	227.19
867.82	227.17
868.13	227.17
868.44	227.14
868.75	227.12
869.06	227.10
869.37	227.09
869.68	227.05
869.99	227.07
870.30	227.07
870.61	227.05
870.92	227.03
871.23	226.99
871.54	226.98
871.85	226.99
872.16	226.97
872.47	226.98
872.78	226.92
873.09	226.92
873.40	226.94
873.71	226.95
874.02	226.98
874.33	226.96
874.64	226.92
874.95	226.93
875.26	226.90
875.56	226.90
875.87	226.86
876.18	226.88
876.49	226.97
876.80	226.98
877.11	226.94
877.42	226.94
877.73	226.95
878.04	226.95
878.35	226.94
878.66	226.94
878.96	226.94
879.27	226.91
879.58	226.90
879.89	226.90
880.20	226.92
880.51	226.89
880.82	226.91
881.12	226.94
881.43	226.92
881.74	226.94
882.05	226.93
882.36	226.94
882.67	226.93
882.97	226.83
883.28	226.81
883.59	226.84
883.90	226.86
884.21	226.92
884.51	226.93
884.82	226.96
885.13	226.96
885.44	226.96
885.74	227.01
886.05	227.01
886.36	227.02
886.67	226.98
886.98	227.05
887.28	227.07
887.59	227.06
887.90	227.06
888.20	227.07
888.51	227.11
888.82	227.12
889.13	227.16
889.43	227.25
889.74	227.25
890.05	227.26
890.35	227.23
890.66	227.18
890.97	227.14
891.28	227.14
891.58	227.14
891.89	227.15
892.20	227.11
892.50	227.10
892.81	227.11
893.12	227.10
893.42	227.08
893.73	227.07
894.04	227.11
894.34	227.13
894.65	227.13
894.95	227.13
895.26	227.14
895.57	227.17
895.87	227.09
896.18	227.10
896.48	227.09
896.79	227.10
897.10	227.14
897.40	227.17
897.71	227.18
898.01	227.18
898.32	227.21
898.63	227.23
898.93	227.24
899.24	227.25
899.54	227.27
899.85	227.25
900.15	227.21
900.46	227.19
900.76	227.17
901.07	227.15
901.38	227.13
901.68	227.14
901.99	227.06
902.29	227.04
902.60	227.04
902.90	227.07
903.21	227.06
903.51	227.02
903.82	227.03
904.12	227.02
904.43	227.03
904.73	226.99
905.03	226.96
905.34	227.03
905.64	227.00
905.95	226.99
906.25	226.97
906.56	227.00
906.86	227.00
907.17	227.01
907.47	227.02
907.77	227.01
908.08	226.98
908.38	227.00
908.69	227.00
908.99	226.97
909.30	226.94
909.60	226.95
909.90	226.95
910.21	226.92
910.51	226.88
910.81	226.87
911.12	226.88
911.42	226.89
911.73	226.79
912.03	226.78
912.33	226.81
912.64	226.81
912.94	226.77
913.24	226.73
913.55	226.71
913.85	226.70
914.15	226.71
914.46	226.71
914.76	226.73
915.06	226.73
915.37	226.73
915.67	226.71
915.97	226.70
916.27	226.70
916.58	226.70
916.88	226.69
917.18	226.67
917.49	226.71
917.79	226.71
918.09	226.71
918.39	226.77
918.70	226.75
919.00	226.75
919.30	226.78
919.60	226.81
919.91	226.80
920.21	226.79
920.51	226.77
920.81	226.78
921.12	226.80
921.42	226.81
921.72	226.85
922.02	226.89
922.32	226.91
922.63	226.92
922.93	226.99
923.23	227.03
923.53	227.03
923.83	226.99
924.13	227.01
924.44	227.05
924.74	227.07
925.04	227.11
925.34	227.09
925.64	227.07
925.94	227.06
926.24	227.14
926.55	227.12
926.85	227.15
927.15	227.15
927.45	227.11
927.75	227.12
928.05	227.10
928.35	227.07
928.65	227.09
928.95	227.11
929.26	227.07
929.56	227.04
929.86	227.07
930.16	227.07
930.46	227.03
930.76	227.02
931.06	226.98
931.36	226.96
931.66	226.98
931.96	227.00
932.26	227.01
932.56	226.96
932.86	226.98
933.16	226.95
933.46	226.98
933.76	226.98
934.06	226.99
934.36	227.04
934.66	227.04
934.96	227.04
935.26	227.04
935.56	227.05
935.86	227.04
936.16	227.04
936.46	227.00
936.76	226.98
937.06	226.96
937.36	226.98
937.66	226.97
937.96	226.97
938.26	226.93
938.56	226.91
938.86	226.90
939.16	226.89
939.46	226.92
939.76	226.91
940.06	226.88
940.35	226.84
940.65	226.77
940.95	226.76
941.25	226.73
941.55	226.68
941.85	226.65
942.15	226.67
942.45	226.71
942.75	226.72
943.04	226.73
943.34	226.77
943.64	226.73
943.94	226.70
944.24	226.69
944.54	226.69
944.84	226.67
945.13	226.67
945.43	226.69
945.73	226.68
946.03	226.63
946.33	226.63
946.62	226.59
946.92	226.60
947.22	226.61
947.52	226.61
947.82	226.61
948.11	226.59
948.41	226.59
948.71	226.54
949.01	226.59
949.31	226.56
949.60	226.55
949.90	226.58
950.20	226.60
950.50	226.63
950.79	226.61
951.09	226.65
951.39	226.65
951.69	226.64
951.98	226.63
952.28	226.66
952.58	226.67
952.87	226.68
953.17	226.72
953.47	226.71
953.76	226.70
954.06	226.70
954.36	226.70
954.66	226.73
954.95	226.73
955.25	226.70
955.55	226.70
955.84	226.67
956.14	226.65
956.44	226.64
956.73	226.61
957.03	226.64
957.32	226.62
957.62	226.61
957.92	226.61
958.21	226.62
958.51	226.72
958.81	226.75
959.10	226.79
959.40	226.80
959.69	226.81
959.99	226.81
960.29	226.83
960.58	226.81
960.88	226.83
961.17	226.83
961.47	226.86
961.76	226.86
962.06	226.90
962.36	226.88
962.65	226.88
962.95	226.91
963.24	226.93
963.54	226.94
963.83	226.93
964.13	226.96
964.42	226.95
964.72	226.87
965.01	226.85
965.31	226.81
965.60	226.80
965.90	226.85
966.19	226.86
966.49	226.87
966.78	226.88
967.08	226.86
967.37	226.86
967.67	226.82
967.96	226.84
968.26	226.85
968.55	226.88
968.85	226.88
969.14	226.85
969.43	226.83
969.73	226.84
970.02	226.86
970.32	226.82
970.61	226.80
970.91	226.79
971.20	226.76
971.49	226.79
971.79	226.77
972.08	226.69
972.38	226.69
972.67	226.66
972.96	226.68
973.26	226.68
973.55	226.71
973.85	226.71
974.14	226.74
974.43	226.71
974.73	226.67
975.02	226.67
975.31	226.70
975.61	226.68
975.90	226.69
976.19	226.69
976.49	226.69
976.78	226.72
977.07	226.69
977.37	226.73
977.66	226.71
977.95	226.69
978.24	226.69
978.54	226.74
978.83	226.76
979.12	226.76
979.42	226.77
979.71	226.72
980.00	226.72
980.29	226.71
980.59	226.73
980.88	226.75
981.17	226.75
981.46	226.72
981.76	226.70
982.05	226.71
982.34	226.71
982.63	226.73
982.93	226.71
983.22	226.72
983.51	226.73
983.80	226.76
984.09	226.78
984.39	226.76
984.68	226.72
984.97	226.67
985.26	226.63
985.55	226.61
985.85	226.59
986.14	226.61
986.43	226.59
986.72	226.56
987.01	226.55
987.30	226.55
987.59	226.54
987.89	226.55
988.18	226.47
988.47	226.44
988.76	226.41
989.05	226.41
989.34	226.40
989.63	226.40
989.92	226.37
990.22	226.36
990.51	226.39
990.80	226.36
991.09	226.40
991.38	226.42
991.67	226.44
991.96	226.46
992.25	226.44
992.54	226.45
992.83	226.42
993.12	226.41
993.41	226.42
993.70	226.48
993.99	226.50
994.28	226.54
994.58	226.54
994.87	226.51
995.16	226.51
995.45	226.52
995.74	226.47
996.03	226.49
996.32	226.51
996.61	226.52
996.90	226.55
997.19	226.56
997.48	226.54
997.77	226.50
998.06	226.51
998.34	226.50
998.63	226.48
998.92	226.51
999.21	226.55
999.50	226.53
999.79	226.51
1000.08	226.51
1000.37	226.51
1000.66	226.54
1000.95	226.61
1001.24	226.63
1001.53	226.63
1001.82	226.64
1002.11	226.61
1002.40	226.62
1002.68	226.64
1002.97	226.70
1003.26	226.68
1003.55	226.71
1003.84	226.76
1004.13	226.82
1004.42	226.82
1004.71	226.82
1004.99	226.83
1005.28	226.84
1005.57	226.84
1005.86	226.85
1006.15	226.88
1006.44	226.87
1006.72	226.87
1007.01	226.84
1007.30	226.84
1007.59	226.86
1007.88	226.88
1008.17	226.90
1008.45	226.88
1008.74	226.86
1009.03	226.82
1009.32	226.85
1009.60	226.83
1009.89	226.77
1010.18	226.71
1010.47	226.70
1010.76	226.71
1011.04	226.70
1011.33	226.70
1011.62	226.74
1011.91	226.73
1012.19	226.73
1012.48	226.72
1012.77	226.74
1013.05	226.76
1013.34	226.75
1013.63	226.73
1013.92	226.73
1014.20	226.71
1014.49	226.71
1014.78	226.70
1015.06	226.66
1015.35	226.67
1015.64	226.68
1015.92	226.70
1016.21	226.69
1016.50	226.72
1016.78	226.71
1017.07	226.72
1017.36	226.68
1017.64	226.65
1017.93	226.63
1018.22	226.63
1018.50	226.65
1018.79	226.65
1019.08	226.60
1019.36	226.60
1019.65	226.57
1019.93	226.57
1020.22	226.59
1020.51	226.64
1020.79	226.61
1021.08	226.63
1021.36	226.79
1021.65	226.98
1021.94	226.29
1022.22	226.40
1022.51	225.95
1022.79	226.64
1023.08	226.65
1023.36	227.65
1023.65	226.22
>>>>>End Processed Spectral Data<<<<<
