SpectraSuite Data File
++++++++++++++++++++++++++++++++++++
Date: Fri Feb 01 16:32:33 EST 2013
User: group
Dark Spectrum Present: No
Reference Spectrum Present: No
Number of Sampled Component Spectra: 1
Spectrometers: USB2E7196
Integration Time (usec): 35000 (USB2E7196)
Spectra Averaged: 100 (USB2E7196)
Boxcar Smoothing: 10 (USB2E7196)
Correct for Electrical Dark: No (USB2E7196)
Strobe/Lamp Enabled: No (USB2E7196)
Correct for Detector Non-linearity: No (USB2E7196)
Correct for Stray Light: No (USB2E7196)
Number of Pixels in Processed Spectrum: 2048
>>>>>Begin Processed Spectral Data<<<<<
339.09	0.00
339.48	214.15
339.86	215.27
340.24	216.62
340.63	218.07
341.01	221.63
341.39	220.99
341.78	222.16
342.16	223.75
342.54	223.97
342.93	212.35
343.31	223.09
343.69	223.61
344.07	224.08
344.46	224.48
344.84	224.88
345.22	225.08
345.60	225.29
345.99	225.50
346.37	225.61
346.75	225.69
347.13	225.73
347.52	225.78
347.90	225.85
348.28	225.87
348.66	225.91
349.05	225.91
349.43	225.94
349.81	225.95
350.19	225.99
350.57	226.03
350.96	226.11
351.34	226.17
351.72	226.25
352.10	226.35
352.48	226.43
352.87	226.46
353.25	226.53
353.63	226.60
354.01	226.65
354.39	226.72
354.77	226.81
355.15	226.92
355.54	226.96
355.92	226.98
356.30	227.05
356.68	227.18
357.06	227.28
357.44	227.34
357.82	227.39
358.20	227.47
358.58	227.56
358.97	227.62
359.35	227.70
359.73	227.75
360.11	227.79
360.49	227.83
360.87	227.88
361.25	227.94
361.63	228.02
362.01	228.07
362.39	228.09
362.77	228.14
363.15	228.18
363.53	228.20
363.91	228.25
364.29	228.27
364.67	228.21
365.05	228.21
365.43	228.25
365.81	228.27
366.19	228.33
366.57	228.37
366.95	228.37
367.33	228.38
367.71	228.40
368.09	228.45
368.47	228.45
368.85	228.47
369.23	228.48
369.61	228.46
369.99	228.46
370.37	228.48
370.75	228.50
371.13	228.46
371.51	228.45
371.89	228.40
372.27	228.35
372.65	228.31
373.03	228.24
373.41	228.19
373.78	228.13
374.16	228.00
374.54	227.91
374.92	227.83
375.30	227.76
375.68	227.66
376.06	227.57
376.44	227.53
376.82	227.43
377.19	227.35
377.57	227.27
377.95	227.17
378.33	227.07
378.71	226.93
379.09	226.90
379.47	226.84
379.84	226.78
380.22	226.69
380.60	226.63
380.98	226.59
381.36	226.56
381.73	226.50
382.11	226.49
382.49	226.44
382.87	226.38
383.25	226.32
383.62	226.42
384.00	226.36
384.38	226.31
384.76	226.32
385.13	226.31
385.51	226.27
385.89	226.18
386.27	226.16
386.64	226.12
387.02	226.07
387.40	226.03
387.78	225.98
388.15	225.97
388.53	225.93
388.91	225.89
389.29	225.82
389.66	225.78
390.04	225.75
390.42	225.76
390.79	225.77
391.17	225.75
391.55	225.62
391.92	225.59
392.30	225.58
392.68	225.54
393.05	225.51
393.43	225.54
393.81	225.53
394.18	225.53
394.56	225.57
394.94	225.56
395.31	225.57
395.69	225.63
396.06	225.70
396.44	225.72
396.82	225.73
397.19	225.84
397.57	225.90
397.95	225.95
398.32	225.94
398.70	225.99
399.07	226.08
399.45	226.12
399.82	226.19
400.20	226.22
400.58	226.32
400.95	226.35
401.33	226.41
401.70	226.60
402.08	226.69
402.45	226.76
402.83	226.90
403.20	227.00
403.58	227.11
403.95	227.20
404.33	227.33
404.71	227.46
405.08	227.61
405.46	227.70
405.83	227.80
406.21	227.95
406.58	228.11
406.96	228.25
407.33	228.44
407.70	228.63
408.08	228.93
408.45	229.15
408.83	229.38
409.20	229.59
409.58	229.76
409.95	229.99
410.33	230.25
410.70	230.46
411.08	230.73
411.45	231.01
411.82	231.30
412.20	231.67
412.57	232.08
412.95	232.37
413.32	232.81
413.69	233.24
414.07	233.68
414.44	234.14
414.82	234.63
415.19	235.17
415.56	235.69
415.94	236.18
416.31	236.82
416.68	237.47
417.06	238.18
417.43	238.87
417.81	239.64
418.18	240.44
418.55	241.32
418.93	242.17
419.30	243.10
419.67	244.07
420.04	245.04
420.42	246.03
420.79	247.21
421.16	248.32
421.54	249.48
421.91	250.68
422.28	251.92
422.66	253.22
423.03	254.52
423.40	255.88
423.77	257.30
424.15	258.65
424.52	260.12
424.89	261.72
425.26	263.26
425.64	264.69
426.01	266.29
426.38	267.89
426.75	269.56
427.13	271.25
427.50	273.05
427.87	274.88
428.24	276.73
428.61	278.47
428.99	280.42
429.36	282.51
429.73	284.55
430.10	286.55
430.47	288.60
430.85	290.70
431.22	292.93
431.59	295.30
431.96	297.55
432.33	300.03
432.70	302.42
433.08	305.19
433.45	307.83
433.82	310.40
434.19	313.28
434.56	316.11
434.93	318.73
435.30	321.34
435.68	324.21
436.05	327.00
436.42	329.79
436.79	332.28
437.16	334.94
437.53	337.77
437.90	340.60
438.27	343.34
438.64	346.15
439.01	348.70
439.38	350.94
439.75	353.13
440.13	355.58
440.50	357.87
440.87	359.70
441.24	361.68
441.61	363.81
441.98	365.27
442.35	367.04
442.72	368.86
443.09	370.61
443.46	371.56
443.83	372.18
444.20	372.70
444.57	373.54
444.94	373.83
445.31	374.18
445.68	374.48
446.05	374.57
446.42	374.21
446.79	373.82
447.16	373.36
447.53	373.04
447.90	371.87
448.27	370.73
448.64	369.14
449.01	367.98
449.37	366.00
449.74	364.14
450.11	361.92
450.48	359.49
450.85	356.99
451.22	354.89
451.59	352.87
451.96	350.95
452.33	348.35
452.70	346.04
453.07	343.21
453.43	340.35
453.80	337.56
454.17	334.88
454.54	332.33
454.91	329.62
455.28	326.93
455.65	324.51
456.02	322.09
456.38	319.96
456.75	317.32
457.12	315.12
457.49	312.92
457.86	310.78
458.23	308.95
458.59	306.93
458.96	304.87
459.33	302.99
459.70	301.14
460.07	299.64
460.43	297.94
460.80	296.33
461.17	294.89
461.54	293.43
461.91	292.01
462.27	290.56
462.64	289.35
463.01	288.04
463.38	286.70
463.74	285.32
464.11	284.18
464.48	283.16
464.85	282.05
465.21	281.20
465.58	280.28
465.95	279.16
466.32	278.23
466.68	277.33
467.05	276.43
467.42	275.56
467.78	274.68
468.15	273.82
468.52	273.19
468.88	272.36
469.25	271.59
469.62	270.99
469.98	270.39
470.35	269.74
470.72	269.14
471.08	268.52
471.45	268.02
471.82	267.52
472.18	266.91
472.55	266.48
472.92	265.95
473.28	265.49
473.65	265.08
474.02	264.69
474.38	264.36
474.75	264.06
475.11	263.71
475.48	263.43
475.85	263.20
476.21	262.93
476.58	262.73
476.94	262.61
477.31	262.45
477.67	262.27
478.04	262.18
478.41	262.13
478.77	262.18
479.14	262.10
479.50	262.12
479.87	262.21
480.23	262.29
480.60	262.39
480.96	262.48
481.33	262.69
481.69	262.85
482.06	263.03
482.42	263.23
482.79	263.47
483.15	263.78
483.52	264.17
483.88	264.58
484.25	264.99
484.61	265.38
484.98	265.84
485.34	266.39
485.71	266.94
486.07	267.53
486.44	268.08
486.80	268.80
487.17	269.52
487.53	270.31
487.90	271.18
488.26	272.11
488.62	273.08
488.99	274.04
489.35	275.08
489.72	276.20
490.08	277.39
490.44	278.66
490.81	280.00
491.17	281.33
491.54	282.79
491.90	284.33
492.26	285.99
492.63	287.74
492.99	289.56
493.36	291.47
493.72	293.53
494.08	295.61
494.45	297.87
494.81	300.22
495.17	302.63
495.54	305.20
495.90	307.86
496.26	310.70
496.63	313.68
496.99	316.81
497.35	320.11
497.72	323.55
498.08	327.06
498.44	330.75
498.80	334.70
499.17	338.72
499.53	342.88
499.89	347.28
500.26	351.76
500.62	356.46
500.98	361.46
501.34	366.55
501.71	371.94
502.07	377.39
502.43	383.05
502.79	388.94
503.16	394.98
503.52	401.29
503.88	407.69
504.24	414.35
504.60	421.24
504.97	428.36
505.33	435.62
505.69	443.38
506.05	451.14
506.41	459.01
506.78	467.22
507.14	475.71
507.50	484.42
507.86	493.43
508.22	502.67
508.59	511.84
508.95	521.45
509.31	531.30
509.67	541.41
510.03	551.71
510.39	562.27
510.75	573.07
511.12	583.99
511.48	595.29
511.84	606.72
512.20	618.25
512.56	630.18
512.92	642.37
513.28	654.73
513.64	667.21
514.00	679.95
514.37	692.82
514.73	705.89
515.09	718.97
515.45	732.32
515.81	745.82
516.17	759.91
516.53	774.04
516.89	788.15
517.25	802.29
517.61	816.68
517.97	831.02
518.33	845.35
518.69	860.05
519.05	874.94
519.41	890.13
519.77	905.61
520.13	921.05
520.49	936.46
520.85	951.75
521.21	967.35
521.57	983.50
521.93	999.18
522.29	1015.36
522.65	1031.41
523.01	1047.54
523.37	1063.50
523.73	1079.51
524.09	1095.47
524.45	1111.67
524.81	1128.20
525.17	1144.95
525.53	1161.86
525.89	1178.74
526.25	1195.44
526.61	1211.81
526.97	1228.49
527.33	1244.86
527.68	1261.24
528.04	1277.56
528.40	1294.03
528.76	1310.98
529.12	1327.51
529.48	1344.30
529.84	1360.32
530.20	1376.92
530.56	1393.79
530.91	1411.13
531.27	1427.78
531.63	1444.22
531.99	1460.74
532.35	1476.67
532.71	1492.32
533.07	1508.37
533.42	1524.14
533.78	1540.13
534.14	1556.22
534.50	1571.29
534.86	1587.11
535.21	1602.22
535.57	1618.14
535.93	1633.52
536.29	1648.31
536.65	1663.13
537.00	1677.79
537.36	1693.01
537.72	1707.37
538.08	1721.69
538.44	1735.39
538.79	1749.07
539.15	1762.56
539.51	1776.15
539.87	1790.29
540.22	1803.93
540.58	1817.69
540.94	1830.91
541.29	1843.67
541.65	1856.28
542.01	1869.41
542.37	1881.63
542.72	1894.12
543.08	1905.72
543.44	1917.94
543.79	1929.04
544.15	1940.08
544.51	1951.62
544.87	1962.41
545.22	1973.23
545.58	1983.38
545.94	1993.05
546.29	2002.84
546.65	2012.66
547.01	2021.89
547.36	2030.54
547.72	2038.93
548.07	2046.59
548.43	2054.75
548.79	2062.85
549.14	2070.38
549.50	2077.67
549.86	2085.24
550.21	2092.49
550.57	2099.58
550.92	2106.30
551.28	2113.33
551.64	2120.37
551.99	2126.73
552.35	2133.05
552.70	2139.24
553.06	2145.18
553.41	2151.52
553.77	2157.51
554.13	2163.61
554.48	2169.68
554.84	2175.27
555.19	2180.74
555.55	2185.97
555.90	2190.47
556.26	2195.33
556.61	2200.01
556.97	2204.38
557.32	2208.52
557.68	2212.59
558.03	2216.90
558.39	2220.60
558.74	2225.35
559.10	2229.03
559.45	2232.77
559.81	2236.96
560.16	2240.66
560.52	2243.98
560.87	2247.29
561.23	2250.03
561.58	2252.96
561.94	2255.54
562.29	2257.86
562.64	2260.47
563.00	2263.02
563.35	2266.42
563.71	2269.56
564.06	2272.76
564.42	2275.63
564.77	2278.13
565.12	2280.46
565.48	2282.42
565.83	2284.20
566.19	2285.32
566.54	2286.41
566.89	2287.66
567.25	2288.16
567.60	2289.44
567.96	2290.95
568.31	2291.99
568.66	2293.07
569.02	2293.73
569.37	2294.07
569.72	2294.94
570.08	2295.06
570.43	2295.22
570.78	2294.68
571.14	2293.16
571.49	2291.97
571.84	2291.66
572.20	2290.72
572.55	2289.71
572.90	2288.29
573.26	2287.17
573.61	2285.74
573.96	2284.14
574.31	2281.20
574.67	2278.33
575.02	2274.76
575.37	2271.72
575.72	2267.81
576.08	2264.59
576.43	2261.31
576.78	2257.83
577.13	2254.72
577.49	2251.66
577.84	2248.24
578.19	2244.66
578.54	2241.12
578.90	2236.91
579.25	2231.46
579.60	2226.44
579.95	2221.61
580.30	2216.49
580.66	2211.31
581.01	2206.34
581.36	2201.49
581.71	2197.32
582.06	2192.95
582.42	2188.63
582.77	2183.24
583.12	2178.88
583.47	2174.19
583.82	2169.27
584.17	2164.06
584.53	2158.68
584.88	2153.20
585.23	2147.38
585.58	2141.99
585.93	2136.57
586.28	2131.89
586.63	2126.97
586.98	2122.02
587.34	2117.30
587.69	2112.57
588.04	2107.32
588.39	2101.75
588.74	2095.24
589.09	2089.11
589.44	2082.37
589.79	2076.47
590.14	2071.03
590.49	2064.57
590.84	2058.41
591.19	2052.53
591.54	2046.01
591.89	2038.58
592.25	2031.82
592.60	2024.79
592.95	2017.24
593.30	2009.86
593.65	2002.38
594.00	1995.32
594.35	1988.18
594.70	1980.24
595.05	1973.09
595.40	1965.83
595.75	1958.35
596.10	1952.23
596.45	1945.70
596.80	1939.69
597.15	1933.11
597.50	1926.03
597.85	1919.44
598.19	1912.74
598.54	1905.45
598.89	1898.91
599.24	1893.11
599.59	1886.49
599.94	1880.35
600.29	1874.09
600.64	1867.71
600.99	1860.29
601.34	1853.54
601.69	1846.56
602.04	1839.65
602.39	1832.29
602.74	1825.53
603.08	1818.70
603.43	1811.95
603.78	1804.61
604.13	1797.36
604.48	1790.11
604.83	1783.26
605.18	1776.52
605.53	1768.60
605.87	1760.81
606.22	1753.55
606.57	1745.70
606.92	1738.43
607.27	1731.30
607.62	1724.38
607.96	1717.11
608.31	1710.56
608.66	1702.97
609.01	1695.48
609.36	1687.90
609.70	1679.94
610.05	1671.91
610.40	1664.34
610.75	1656.04
611.10	1648.40
611.44	1639.96
611.79	1632.04
612.14	1623.41
612.49	1614.08
612.83	1605.78
613.18	1597.51
613.53	1589.34
613.88	1580.82
614.22	1572.49
614.57	1563.84
614.92	1555.86
615.27	1548.26
615.61	1539.89
615.96	1531.86
616.31	1524.27
616.65	1516.96
617.00	1509.41
617.35	1501.68
617.70	1493.37
618.04	1484.88
618.39	1476.63
618.74	1469.13
619.08	1460.77
619.43	1453.21
619.78	1446.39
620.12	1439.20
620.47	1431.78
620.82	1423.75
621.16	1416.25
621.51	1408.71
621.85	1401.15
622.20	1392.56
622.55	1384.24
622.89	1376.38
623.24	1368.66
623.59	1361.14
623.93	1353.59
624.28	1346.37
624.62	1338.87
624.97	1331.78
625.32	1324.91
625.66	1317.91
626.01	1310.69
626.35	1303.26
626.70	1295.44
627.04	1287.75
627.39	1279.94
627.73	1272.43
628.08	1265.58
628.43	1258.29
628.77	1250.85
629.12	1243.18
629.46	1236.01
629.81	1228.52
630.15	1221.32
630.50	1213.92
630.84	1205.82
631.19	1197.89
631.53	1190.41
631.88	1182.93
632.22	1175.21
632.57	1167.96
632.91	1160.46
633.26	1152.98
633.60	1145.54
633.95	1138.45
634.29	1131.40
634.64	1124.65
634.98	1117.37
635.32	1110.17
635.67	1103.52
636.01	1096.94
636.36	1090.16
636.70	1083.61
637.05	1077.04
637.39	1070.47
637.73	1064.00
638.08	1058.03
638.42	1052.07
638.77	1045.61
639.11	1038.91
639.45	1032.59
639.80	1025.90
640.14	1019.41
640.49	1013.01
640.83	1006.69
641.17	1000.42
641.52	994.01
641.86	987.56
642.20	981.65
642.55	975.31
642.89	968.90
643.23	962.31
643.58	956.64
643.92	950.52
644.26	944.46
644.61	938.44
644.95	932.47
645.29	925.93
645.64	919.13
645.98	912.80
646.32	907.06
646.66	900.96
647.01	895.17
647.35	889.47
647.69	883.59
648.04	878.07
648.38	872.28
648.72	866.30
649.06	860.25
649.41	854.35
649.75	848.38
650.09	842.46
650.43	836.68
650.78	830.45
651.12	824.48
651.46	818.70
651.80	812.99
652.14	807.61
652.49	802.23
652.83	797.07
653.17	791.37
653.51	785.59
653.85	780.22
654.20	774.64
654.54	768.66
654.88	762.87
655.22	756.96
655.56	751.34
655.90	745.90
656.25	740.69
656.59	735.33
656.93	730.27
657.27	725.04
657.61	719.63
657.95	714.52
658.29	709.50
658.64	704.41
658.98	699.04
659.32	693.52
659.66	688.31
660.00	682.99
660.34	678.03
660.68	673.05
661.02	668.01
661.36	663.27
661.70	658.80
662.05	654.47
662.39	650.14
662.73	645.63
663.07	641.27
663.41	636.78
663.75	632.27
664.09	627.69
664.43	623.37
664.77	619.26
665.11	614.96
665.45	610.78
665.79	606.57
666.13	602.48
666.47	598.40
666.81	594.22
667.15	590.13
667.49	586.23
667.83	582.48
668.17	578.51
668.51	574.44
668.85	570.40
669.19	566.52
669.53	562.72
669.87	558.86
670.21	555.15
670.55	551.50
670.89	548.07
671.23	544.60
671.57	541.02
671.91	537.41
672.25	533.97
672.58	530.43
672.92	527.02
673.26	523.84
673.60	520.68
673.94	517.54
674.28	514.61
674.62	511.60
674.96	508.47
675.30	505.60
675.64	502.68
675.97	499.89
676.31	497.00
676.65	493.96
676.99	491.24
677.33	488.36
677.67	485.56
678.01	482.53
678.34	479.52
678.68	476.60
679.02	473.81
679.36	471.05
679.70	468.32
680.04	465.58
680.37	462.71
680.71	459.86
681.05	457.25
681.39	454.49
681.73	451.91
682.06	449.38
682.40	446.82
682.74	444.28
683.08	441.75
683.42	439.18
683.75	436.75
684.09	434.21
684.43	431.70
684.77	429.19
685.10	426.82
685.44	424.53
685.78	422.28
686.12	419.97
686.45	417.66
686.79	415.33
687.13	413.10
687.46	410.94
687.80	408.85
688.14	406.64
688.48	404.57
688.81	402.29
689.15	400.09
689.49	397.91
689.82	395.79
690.16	393.67
690.50	391.70
690.83	389.74
691.17	387.73
691.51	385.87
691.84	384.05
692.18	382.14
692.52	380.18
692.85	378.26
693.19	376.44
693.52	374.59
693.86	372.79
694.20	371.05
694.53	369.22
694.87	367.36
695.21	365.60
695.54	363.78
695.88	362.11
696.21	360.41
696.55	358.74
696.88	357.08
697.22	355.38
697.56	353.76
697.89	352.14
698.23	350.53
698.56	348.93
698.90	347.32
699.23	345.67
699.57	344.14
699.90	342.57
700.24	341.00
700.58	339.46
700.91	337.96
701.25	336.48
701.58	335.13
701.92	333.75
702.25	332.33
702.59	330.97
702.92	329.61
703.26	328.30
703.59	327.06
703.93	325.89
704.26	324.69
704.60	323.40
704.93	322.10
705.26	320.88
705.60	319.63
705.93	318.47
706.27	317.43
706.60	316.37
706.94	315.34
707.27	314.22
707.61	313.19
707.94	312.15
708.27	311.08
708.61	309.97
708.94	308.99
709.28	308.04
709.61	307.12
709.94	306.15
710.28	305.13
710.61	304.10
710.95	303.02
711.28	302.14
711.61	301.17
711.95	300.28
712.28	299.36
712.61	298.40
712.95	297.49
713.28	296.61
713.61	295.67
713.95	294.75
714.28	293.92
714.61	293.05
714.95	292.19
715.28	291.33
715.61	290.46
715.95	289.57
716.28	288.71
716.61	287.84
716.95	286.96
717.28	286.22
717.61	285.48
717.94	284.72
718.28	283.83
718.61	283.13
718.94	282.42
719.27	281.71
719.61	281.08
719.94	280.42
720.27	279.71
720.60	279.07
720.94	278.45
721.27	277.85
721.60	277.23
721.93	276.67
722.27	276.12
722.60	275.58
722.93	275.01
723.26	274.46
723.59	273.89
723.93	273.37
724.26	272.80
724.59	272.23
724.92	271.71
725.25	271.23
725.59	270.70
725.92	270.21
726.25	269.73
726.58	269.24
726.91	268.72
727.24	268.25
727.57	267.77
727.91	267.25
728.24	266.76
728.57	266.27
728.90	265.81
729.23	265.31
729.56	264.87
729.89	264.42
730.22	263.93
730.55	263.46
730.89	263.03
731.22	262.63
731.55	262.20
731.88	261.75
732.21	261.37
732.54	260.92
732.87	260.51
733.20	260.08
733.53	259.70
733.86	259.34
734.19	258.94
734.52	258.53
734.85	258.24
735.18	257.87
735.51	257.53
735.84	257.16
736.17	256.81
736.50	256.39
736.83	256.17
737.16	255.88
737.49	255.57
737.82	255.23
738.15	254.87
738.48	254.53
738.81	254.21
739.14	253.86
739.47	253.60
739.80	253.26
740.13	252.98
740.46	252.64
740.79	252.30
741.12	251.98
741.45	251.71
741.78	251.34
742.11	251.06
742.44	250.73
742.77	250.48
743.10	250.20
743.43	249.93
743.75	249.56
744.08	249.38
744.41	249.11
744.74	248.84
745.07	248.58
745.40	248.35
745.73	248.12
746.06	247.86
746.39	247.60
746.71	247.36
747.04	247.03
747.37	246.74
747.70	246.48
748.03	246.25
748.36	246.03
748.68	245.79
749.01	245.51
749.34	245.30
749.67	245.02
750.00	244.76
750.33	244.58
750.65	244.35
750.98	244.02
751.31	243.84
751.64	243.62
751.97	243.44
752.29	243.21
752.62	242.95
752.95	242.75
753.28	242.53
753.60	242.31
753.93	242.12
754.26	241.95
754.59	241.75
754.91	241.54
755.24	241.30
755.57	241.10
755.90	240.92
756.22	240.71
756.55	240.53
756.88	240.35
757.20	240.11
757.53	239.92
757.86	239.77
758.19	239.54
758.51	239.34
758.84	239.12
759.17	238.93
759.49	238.80
759.82	238.64
760.15	238.48
760.47	238.34
760.80	238.20
761.13	238.09
761.45	237.91
761.78	237.75
762.11	237.59
762.43	237.45
762.76	237.32
763.08	237.19
763.41	237.05
763.74	236.90
764.06	236.74
764.39	236.58
764.71	236.41
765.04	236.31
765.37	236.19
765.69	236.08
766.02	235.95
766.34	235.85
766.67	235.67
767.00	235.55
767.32	235.45
767.65	235.36
767.97	235.23
768.30	235.15
768.62	235.02
768.95	234.94
769.27	234.83
769.60	234.72
769.92	234.63
770.25	234.49
770.57	234.39
770.90	234.30
771.22	234.23
771.55	234.12
771.87	234.01
772.20	233.93
772.52	233.91
772.85	233.95
773.17	233.83
773.50	233.75
773.82	233.66
774.15	233.57
774.47	233.44
774.80	233.36
775.12	233.23
775.45	233.18
775.77	233.10
776.09	233.05
776.42	232.96
776.74	232.92
777.07	232.88
777.39	232.82
777.72	232.79
778.04	232.71
778.36	232.64
778.69	232.57
779.01	232.50
779.33	232.33
779.66	232.13
779.98	232.05
780.31	231.99
780.63	231.94
780.95	231.88
781.28	231.86
781.60	231.77
781.92	231.76
782.25	231.71
782.57	231.66
782.89	231.58
783.22	231.55
783.54	231.48
783.86	231.40
784.19	231.33
784.51	231.26
784.83	231.22
785.16	231.19
785.48	231.16
785.80	231.11
786.12	231.10
786.45	231.08
786.77	231.05
787.09	231.05
787.42	230.98
787.74	230.93
788.06	230.87
788.38	230.83
788.71	230.75
789.03	230.71
789.35	230.64
789.67	230.58
789.99	230.54
790.32	230.47
790.64	230.45
790.96	230.49
791.28	230.42
791.61	230.40
791.93	230.34
792.25	230.30
792.57	230.32
792.89	230.25
793.21	230.23
793.54	230.14
793.86	230.07
794.18	230.01
794.50	229.97
794.82	229.92
795.14	229.87
795.47	229.89
795.79	229.84
796.11	229.81
796.43	229.75
796.75	229.66
797.07	229.63
797.39	229.57
797.71	229.44
798.04	229.39
798.36	229.33
798.68	229.28
799.00	229.21
799.32	229.15
799.64	229.12
799.96	229.07
800.28	229.06
800.60	229.00
800.92	228.99
801.24	228.92
801.56	228.89
801.89	228.85
802.21	228.78
802.53	228.74
802.85	228.71
803.17	228.75
803.49	228.73
803.81	228.69
804.13	228.67
804.45	228.65
804.77	228.65
805.09	228.61
805.41	228.56
805.73	228.54
806.05	228.47
806.37	228.43
806.69	228.39
807.01	228.37
807.33	228.39
807.65	228.29
807.97	228.34
808.28	228.29
808.60	228.28
808.92	228.26
809.24	228.28
809.56	228.23
809.88	228.17
810.20	228.15
810.52	228.15
810.84	228.09
811.16	228.06
811.48	228.01
811.80	228.04
812.12	228.02
812.43	228.01
812.75	228.01
813.07	228.01
813.39	228.01
813.71	228.00
814.03	227.93
814.35	227.95
814.67	227.87
814.98	227.85
815.30	227.79
815.62	227.74
815.94	227.67
816.26	227.72
816.58	227.72
816.89	227.69
817.21	227.62
817.53	227.63
817.85	227.63
818.17	227.64
818.48	227.60
818.80	227.62
819.12	227.58
819.44	227.52
819.76	227.48
820.07	227.43
820.39	227.41
820.71	227.39
821.03	227.37
821.34	227.33
821.66	227.35
821.98	227.39
822.30	227.40
822.61	227.43
822.93	227.36
823.25	227.31
823.57	227.28
823.88	227.30
824.20	227.29
824.52	227.30
824.83	227.27
825.15	227.23
825.47	227.23
825.79	227.25
826.10	227.26
826.42	227.23
826.74	227.23
827.05	227.18
827.37	227.16
827.69	227.14
828.00	227.15
828.32	227.14
828.64	227.12
828.95	227.15
829.27	227.13
829.58	227.13
829.90	227.15
830.22	227.17
830.53	227.14
830.85	227.10
831.17	227.05
831.48	227.05
831.80	227.04
832.11	226.98
832.43	226.97
832.75	226.96
833.06	227.03
833.38	226.99
833.69	227.01
834.01	227.04
834.32	227.05
834.64	227.03
834.96	226.99
835.27	226.98
835.59	226.94
835.90	226.92
836.22	226.89
836.53	226.86
836.85	226.83
837.16	226.92
837.48	226.90
837.79	226.94
838.11	226.94
838.42	226.93
838.74	226.95
839.05	226.96
839.37	226.94
839.68	226.89
840.00	226.90
840.31	226.94
840.63	226.92
840.94	226.88
841.26	226.87
841.57	226.89
841.88	226.90
842.20	226.88
842.51	226.86
842.83	226.88
843.14	226.96
843.46	226.96
843.77	226.89
844.08	226.91
844.40	226.86
844.71	226.82
845.03	226.83
845.34	226.81
845.65	226.75
845.97	226.76
846.28	226.75
846.60	226.73
846.91	226.66
847.22	226.64
847.54	226.69
847.85	226.67
848.16	226.66
848.48	226.59
848.79	226.65
849.10	226.66
849.42	226.65
849.73	226.58
850.04	226.57
850.36	226.54
850.67	226.55
850.98	226.56
851.30	226.58
851.61	226.58
851.92	226.59
852.23	226.63
852.55	226.63
852.86	226.64
853.17	226.66
853.49	226.69
853.80	226.72
854.11	226.70
854.42	226.74
854.74	226.74
855.05	226.77
855.36	226.69
855.67	226.68
855.99	226.69
856.30	226.79
856.61	226.77
856.92	226.78
857.23	226.76
857.55	226.73
857.86	226.72
858.17	226.70
858.48	226.68
858.79	226.65
859.11	226.66
859.42	226.63
859.73	226.61
860.04	226.59
860.35	226.59
860.66	226.57
860.98	226.56
861.29	226.58
861.60	226.59
861.91	226.65
862.22	226.62
862.53	226.59
862.84	226.47
863.16	226.55
863.47	226.48
863.78	226.48
864.09	226.49
864.40	226.47
864.71	226.50
865.02	226.50
865.33	226.46
865.64	226.46
865.95	226.44
866.27	226.51
866.58	226.52
866.89	226.49
867.20	226.47
867.51	226.45
867.82	226.42
868.13	226.42
868.44	226.34
868.75	226.33
869.06	226.39
869.37	226.38
869.68	226.36
869.99	226.42
870.30	226.45
870.61	226.45
870.92	226.48
871.23	226.47
871.54	226.47
871.85	226.55
872.16	226.53
872.47	226.53
872.78	226.50
873.09	226.53
873.40	226.55
873.71	226.54
874.02	226.55
874.33	226.52
874.64	226.52
874.95	226.55
875.26	226.56
875.56	226.54
875.87	226.58
876.18	226.54
876.49	226.61
876.80	226.60
877.11	226.62
877.42	226.59
877.73	226.60
878.04	226.57
878.35	226.51
878.66	226.53
878.96	226.53
879.27	226.49
879.58	226.45
879.89	226.41
880.20	226.46
880.51	226.42
880.82	226.43
881.12	226.42
881.43	226.38
881.74	226.35
882.05	226.31
882.36	226.28
882.67	226.28
882.97	226.18
883.28	226.15
883.59	226.13
883.90	226.11
884.21	226.08
884.51	226.07
884.82	226.03
885.13	226.02
885.44	225.99
885.74	225.96
886.05	225.97
886.36	225.95
886.67	225.90
886.98	225.98
887.28	225.98
887.59	225.99
887.90	225.98
888.20	225.96
888.51	225.98
888.82	225.98
889.13	225.97
889.43	226.04
889.74	226.01
890.05	226.00
890.35	226.01
890.66	226.01
890.97	226.01
891.28	226.00
891.58	225.99
891.89	226.03
892.20	226.04
892.50	226.02
892.81	226.02
893.12	226.02
893.42	225.95
893.73	225.96
894.04	225.94
894.34	225.96
894.65	225.99
894.95	225.98
895.26	225.94
895.57	225.97
895.87	225.86
896.18	225.89
896.48	225.90
896.79	225.89
897.10	225.89
897.40	225.92
897.71	225.93
898.01	225.93
898.32	225.92
898.63	225.94
898.93	225.96
899.24	225.98
899.54	225.99
899.85	225.99
900.15	225.96
900.46	225.95
900.76	225.96
901.07	225.96
901.38	225.94
901.68	225.96
901.99	225.92
902.29	225.93
902.60	225.94
902.90	225.93
903.21	225.93
903.51	225.91
903.82	225.92
904.12	225.93
904.43	225.93
904.73	225.93
905.03	225.93
905.34	226.00
905.64	225.98
905.95	225.97
906.25	225.96
906.56	225.97
906.86	225.97
907.17	225.99
907.47	226.00
907.77	226.01
908.08	225.98
908.38	226.00
908.69	226.04
908.99	226.02
909.30	226.02
909.60	226.03
909.90	226.04
910.21	226.03
910.51	226.01
910.81	226.00
911.12	226.01
911.42	226.00
911.73	225.92
912.03	225.92
912.33	225.94
912.64	225.93
912.94	225.92
913.24	225.93
913.55	225.89
913.85	225.89
914.15	225.87
914.46	225.89
914.76	225.87
915.06	225.88
915.37	225.86
915.67	225.85
915.97	225.85
916.27	225.83
916.58	225.83
916.88	225.84
917.18	225.85
917.49	225.92
917.79	225.91
918.09	225.92
918.39	225.95
918.70	225.92
919.00	225.93
919.30	226.00
919.60	225.99
919.91	225.98
920.21	225.98
920.51	225.97
920.81	225.98
921.12	226.00
921.42	226.00
921.72	226.01
922.02	226.01
922.32	226.03
922.63	226.01
922.93	226.05
923.23	226.05
923.53	226.03
923.83	225.95
924.13	225.95
924.44	225.96
924.74	225.97
925.04	226.01
925.34	226.03
925.64	225.98
925.94	225.97
926.24	226.04
926.55	226.03
926.85	226.05
927.15	226.06
927.45	226.04
927.75	226.02
928.05	226.01
928.35	226.02
928.65	226.05
928.95	226.08
929.26	226.04
929.56	226.08
929.86	226.11
930.16	226.11
930.46	226.12
930.76	226.11
931.06	226.10
931.36	226.09
931.66	226.06
931.96	226.06
932.26	226.09
932.56	226.05
932.86	226.10
933.16	226.13
933.46	226.11
933.76	226.12
934.06	226.11
934.36	226.17
934.66	226.17
934.96	226.14
935.26	226.15
935.56	226.19
935.86	226.16
936.16	226.13
936.46	226.14
936.76	226.15
937.06	226.11
937.36	226.12
937.66	226.11
937.96	226.14
938.26	226.16
938.56	226.12
938.86	226.16
939.16	226.13
939.46	226.09
939.76	226.07
940.06	226.06
940.35	226.08
940.65	226.04
940.95	226.03
941.25	226.01
941.55	226.02
941.85	226.00
942.15	226.02
942.45	226.07
942.75	226.03
943.04	226.04
943.34	226.07
943.64	226.04
943.94	226.05
944.24	226.03
944.54	226.02
944.84	226.03
945.13	226.00
945.43	225.97
945.73	226.00
946.03	226.02
946.33	226.02
946.62	225.99
946.92	226.02
947.22	226.02
947.52	226.03
947.82	225.98
948.11	225.97
948.41	225.89
948.71	225.85
949.01	225.86
949.31	225.84
949.60	225.81
949.90	225.84
950.20	225.80
950.50	225.79
950.79	225.75
951.09	225.73
951.39	225.71
951.69	225.69
951.98	225.71
952.28	225.69
952.58	225.70
952.87	225.72
953.17	225.69
953.47	225.69
953.76	225.66
954.06	225.66
954.36	225.63
954.66	225.66
954.95	225.69
955.25	225.70
955.55	225.68
955.84	225.67
956.14	225.64
956.44	225.65
956.73	225.61
957.03	225.65
957.32	225.65
957.62	225.64
957.92	225.67
958.21	225.64
958.51	225.76
958.81	225.76
959.10	225.77
959.40	225.77
959.69	225.75
959.99	225.78
960.29	225.74
960.58	225.75
960.88	225.79
961.17	225.80
961.47	225.81
961.76	225.82
962.06	225.86
962.36	225.86
962.65	225.86
962.95	225.88
963.24	225.86
963.54	225.87
963.83	225.88
964.13	225.87
964.42	225.87
964.72	225.79
965.01	225.77
965.31	225.78
965.60	225.76
965.90	225.83
966.19	225.81
966.49	225.85
966.78	225.85
967.08	225.81
967.37	225.81
967.67	225.81
967.96	225.82
968.26	225.82
968.55	225.85
968.85	225.86
969.14	225.88
969.43	225.92
969.73	225.95
970.02	225.94
970.32	225.97
970.61	225.94
970.91	225.94
971.20	225.92
971.49	225.90
971.79	225.92
972.08	225.85
972.38	225.89
972.67	225.89
972.96	225.93
973.26	225.92
973.55	225.96
973.85	225.95
974.14	225.96
974.43	225.95
974.73	225.97
975.02	225.98
975.31	225.96
975.61	225.95
975.90	225.93
976.19	225.91
976.49	225.87
976.78	225.88
977.07	225.89
977.37	225.92
977.66	225.94
977.95	225.94
978.24	225.95
978.54	225.97
978.83	225.96
979.12	225.96
979.42	225.99
979.71	225.95
980.00	225.95
980.29	225.99
980.59	225.97
980.88	225.97
981.17	225.97
981.46	226.01
981.76	226.01
982.05	226.02
982.34	226.08
982.63	226.14
982.93	226.17
983.22	226.18
983.51	226.19
983.80	226.20
984.09	226.22
984.39	226.23
984.68	226.23
984.97	226.23
985.26	226.20
985.55	226.19
985.85	226.18
986.14	226.20
986.43	226.17
986.72	226.17
987.01	226.13
987.30	226.11
987.59	226.05
987.89	226.04
988.18	225.99
988.47	225.96
988.76	225.92
989.05	225.89
989.34	225.90
989.63	225.91
989.92	225.87
990.22	225.82
990.51	225.79
990.80	225.79
991.09	225.78
991.38	225.83
991.67	225.80
991.96	225.78
992.25	225.76
992.54	225.77
992.83	225.74
993.12	225.75
993.41	225.74
993.70	225.79
993.99	225.83
994.28	225.88
994.58	225.92
994.87	225.90
995.16	225.90
995.45	225.84
995.74	225.78
996.03	225.80
996.32	225.82
996.61	225.86
996.90	225.84
997.19	225.82
997.48	225.80
997.77	225.79
998.06	225.83
998.34	225.81
998.63	225.77
998.92	225.77
999.21	225.77
999.50	225.80
999.79	225.76
1000.08	225.74
1000.37	225.74
1000.66	225.67
1000.95	225.71
1001.24	225.73
1001.53	225.75
1001.82	225.76
1002.11	225.75
1002.40	225.74
1002.68	225.75
1002.97	225.82
1003.26	225.79
1003.55	225.76
1003.84	225.81
1004.13	225.81
1004.42	225.84
1004.71	225.85
1004.99	225.87
1005.28	225.91
1005.57	225.87
1005.86	225.85
1006.15	225.90
1006.44	225.86
1006.72	225.92
1007.01	225.88
1007.30	225.85
1007.59	225.85
1007.88	225.87
1008.17	225.89
1008.45	225.87
1008.74	225.85
1009.03	225.78
1009.32	225.79
1009.60	225.81
1009.89	225.79
1010.18	225.74
1010.47	225.73
1010.76	225.71
1011.04	225.68
1011.33	225.70
1011.62	225.71
1011.91	225.71
1012.19	225.68
1012.48	225.72
1012.77	225.69
1013.05	225.75
1013.34	225.76
1013.63	225.77
1013.92	225.79
1014.20	225.78
1014.49	225.78
1014.78	225.80
1015.06	225.79
1015.35	225.85
1015.64	225.85
1015.92	225.85
1016.21	225.90
1016.50	225.91
1016.78	225.93
1017.07	225.96
1017.36	225.95
1017.64	225.96
1017.93	225.98
1018.22	225.96
1018.50	225.94
1018.79	225.97
1019.08	225.92
1019.36	225.93
1019.65	225.93
1019.93	225.91
1020.22	225.93
1020.51	225.99
1020.79	225.97
1021.08	225.89
1021.36	225.46
1021.65	226.17
1021.94	225.89
1022.22	225.86
1022.51	226.08
1022.79	225.70
1023.08	226.13
1023.36	227.13
1023.65	225.99
>>>>>End Processed Spectral Data<<<<<
