SpectraSuite Data File
++++++++++++++++++++++++++++++++++++
Date: Fri Feb 01 18:08:04 EST 2013
User: group
Dark Spectrum Present: No
Reference Spectrum Present: No
Number of Sampled Component Spectra: 1
Spectrometers: USB2E7196
Integration Time (usec): 35000 (USB2E7196)
Spectra Averaged: 100 (USB2E7196)
Boxcar Smoothing: 10 (USB2E7196)
Correct for Electrical Dark: No (USB2E7196)
Strobe/Lamp Enabled: No (USB2E7196)
Correct for Detector Non-linearity: No (USB2E7196)
Correct for Stray Light: No (USB2E7196)
Number of Pixels in Processed Spectrum: 2048
>>>>>Begin Processed Spectral Data<<<<<
339.09	0.00
339.48	212.95
339.86	214.64
340.24	216.21
340.63	216.93
341.01	220.08
341.39	219.90
341.78	221.27
342.16	222.16
342.54	222.73
342.93	211.51
343.31	222.18
343.69	222.72
344.07	223.15
344.46	223.55
344.84	223.93
345.22	224.20
345.60	224.48
345.99	224.68
346.37	224.85
346.75	224.97
347.13	225.01
347.52	225.07
347.90	225.16
348.28	225.21
348.66	225.25
349.05	225.24
349.43	225.26
349.81	225.31
350.19	225.36
350.57	225.41
350.96	225.50
351.34	225.62
351.72	225.73
352.10	225.90
352.48	225.99
352.87	226.04
353.25	226.10
353.63	226.14
354.01	226.22
354.39	226.27
354.77	226.35
355.15	226.46
355.54	226.53
355.92	226.57
356.30	226.64
356.68	226.79
357.06	226.84
357.44	226.92
357.82	226.98
358.20	227.07
358.58	227.10
358.97	227.13
359.35	227.18
359.73	227.26
360.11	227.26
360.49	227.32
360.87	227.39
361.25	227.46
361.63	227.52
362.01	227.55
362.39	227.58
362.77	227.61
363.15	227.62
363.53	227.65
363.91	227.65
364.29	227.68
364.67	227.62
365.05	227.67
365.43	227.65
365.81	227.67
366.19	227.72
366.57	227.78
366.95	227.77
367.33	227.75
367.71	227.73
368.09	227.73
368.47	227.74
368.85	227.72
369.23	227.73
369.61	227.68
369.99	227.70
370.37	227.71
370.75	227.73
371.13	227.70
371.51	227.67
371.89	227.64
372.27	227.57
372.65	227.52
373.03	227.49
373.41	227.47
373.78	227.42
374.16	227.31
374.54	227.22
374.92	227.17
375.30	227.14
375.68	227.09
376.06	227.04
376.44	226.93
376.82	226.87
377.19	226.79
377.57	226.73
377.95	226.61
378.33	226.54
378.71	226.45
379.09	226.37
379.47	226.31
379.84	226.27
380.22	226.23
380.60	226.13
380.98	226.04
381.36	226.00
381.73	225.94
382.11	225.89
382.49	225.84
382.87	225.80
383.25	225.71
383.62	225.76
384.00	225.72
384.38	225.68
384.76	225.68
385.13	225.69
385.51	225.64
385.89	225.59
386.27	225.54
386.64	225.50
387.02	225.48
387.40	225.41
387.78	225.35
388.15	225.30
388.53	225.28
388.91	225.26
389.29	225.22
389.66	225.18
390.04	225.16
390.42	225.15
390.79	225.13
391.17	225.11
391.55	224.99
391.92	224.97
392.30	224.94
392.68	224.91
393.05	224.87
393.43	224.87
393.81	224.89
394.18	224.89
394.56	224.86
394.94	224.89
395.31	224.93
395.69	225.01
396.06	225.06
396.44	225.10
396.82	225.11
397.19	225.19
397.57	225.23
397.95	225.28
398.32	225.28
398.70	225.33
399.07	225.40
399.45	225.44
399.82	225.50
400.20	225.61
400.58	225.67
400.95	225.70
401.33	225.82
401.70	225.95
402.08	226.03
402.45	226.12
402.83	226.26
403.20	226.36
403.58	226.43
403.95	226.55
404.33	226.70
404.71	226.86
405.08	227.06
405.46	227.22
405.83	227.39
406.21	227.59
406.58	227.78
406.96	227.98
407.33	228.22
407.70	228.45
408.08	228.73
408.45	229.00
408.83	229.33
409.20	229.57
409.58	229.81
409.95	230.17
410.33	230.53
410.70	230.83
411.08	231.24
411.45	231.64
411.82	232.03
412.20	232.47
412.57	232.99
412.95	233.36
413.32	233.89
413.69	234.43
414.07	235.00
414.44	235.62
414.82	236.25
415.19	236.96
415.56	237.68
415.94	238.40
416.31	239.25
416.68	240.06
417.06	241.05
417.43	241.99
417.81	243.02
418.18	244.07
418.55	245.18
418.93	246.34
419.30	247.58
419.67	248.87
420.04	250.16
420.42	251.52
420.79	253.12
421.16	254.71
421.54	256.34
421.91	257.98
422.28	259.69
422.66	261.50
423.03	263.26
423.40	265.10
423.77	267.05
424.15	268.97
424.52	270.97
424.89	273.14
425.26	275.27
425.64	277.25
426.01	279.42
426.38	281.67
426.75	283.94
427.13	286.28
427.50	288.74
427.87	291.33
428.24	293.87
428.61	296.26
428.99	298.85
429.36	301.70
429.73	304.49
430.10	307.24
430.47	310.05
430.85	312.98
431.22	316.01
431.59	319.23
431.96	322.31
432.33	325.74
432.70	328.97
433.08	332.79
433.45	336.37
433.82	339.93
434.19	343.95
434.56	347.79
434.93	351.40
435.30	355.01
435.68	358.94
436.05	362.79
436.42	366.61
436.79	370.05
437.16	373.74
437.53	377.62
437.90	381.47
438.27	385.17
438.64	389.02
439.01	392.52
439.38	395.60
439.75	398.60
440.13	401.95
440.50	405.18
440.87	407.66
441.24	410.27
441.61	413.25
441.98	415.26
442.35	417.73
442.72	420.32
443.09	422.75
443.46	424.13
443.83	424.98
444.20	425.68
444.57	426.84
444.94	427.28
445.31	427.74
445.68	428.16
446.05	428.30
446.42	427.80
446.79	427.25
447.16	426.67
447.53	426.22
447.90	424.69
448.27	423.10
448.64	420.95
449.01	419.46
449.37	416.73
449.74	414.14
450.11	411.02
450.48	407.56
450.85	404.12
451.22	401.20
451.59	398.44
451.96	395.81
452.33	392.28
452.70	389.02
453.07	385.16
453.43	381.25
453.80	377.51
454.17	373.83
454.54	370.34
454.91	366.60
455.28	362.93
455.65	359.54
456.02	356.11
456.38	353.18
456.75	349.51
457.12	346.45
457.49	343.37
457.86	340.45
458.23	337.91
458.59	335.10
458.96	332.23
459.33	329.67
459.70	327.10
460.07	325.05
460.43	322.70
460.80	320.49
461.17	318.48
461.54	316.41
461.91	314.44
462.27	312.44
462.64	310.73
463.01	308.87
463.38	307.03
463.74	305.23
464.11	303.62
464.48	302.22
464.85	300.69
465.21	299.52
465.58	298.26
465.95	296.76
466.32	295.51
466.68	294.25
467.05	293.02
467.42	291.77
467.78	290.44
468.15	289.24
468.52	288.30
468.88	287.13
469.25	286.04
469.62	285.16
469.98	284.27
470.35	283.40
470.72	282.59
471.08	281.72
471.45	280.95
471.82	280.23
472.18	279.37
472.55	278.76
472.92	278.01
473.28	277.37
473.65	276.72
474.02	276.09
474.38	275.57
474.75	275.05
475.11	274.58
475.48	274.18
475.85	273.82
476.21	273.46
476.58	273.18
476.94	272.94
477.31	272.70
477.67	272.44
478.04	272.20
478.41	272.01
478.77	271.95
479.14	271.79
479.50	271.71
479.87	271.73
480.23	271.74
480.60	271.75
480.96	271.79
481.33	271.98
481.69	272.12
482.06	272.26
482.42	272.41
482.79	272.59
483.15	272.89
483.52	273.26
483.88	273.55
484.25	273.95
484.61	274.32
484.98	274.74
485.34	275.30
485.71	275.91
486.07	276.54
486.44	277.09
486.80	277.83
487.17	278.54
487.53	279.38
487.90	280.22
488.26	281.15
488.62	282.13
488.99	283.13
489.35	284.20
489.72	285.35
490.08	286.61
490.44	287.92
490.81	289.31
491.17	290.69
491.54	292.31
491.90	293.86
492.26	295.60
492.63	297.42
492.99	299.26
493.36	301.22
493.72	303.38
494.08	305.60
494.45	307.98
494.81	310.49
495.17	313.01
495.54	315.73
495.90	318.63
496.26	321.58
496.63	324.67
496.99	327.99
497.35	331.45
497.72	335.08
498.08	338.81
498.44	342.70
498.80	346.80
499.17	351.04
499.53	355.48
499.89	360.09
500.26	364.89
500.62	369.83
500.98	375.11
501.34	380.50
501.71	386.20
502.07	391.99
502.43	398.01
502.79	404.23
503.16	410.66
503.52	417.33
503.88	424.11
504.24	431.19
504.60	438.52
504.97	446.12
505.33	453.93
505.69	462.16
506.05	470.44
506.41	478.92
506.78	487.71
507.14	496.77
507.50	506.13
507.86	515.78
508.22	525.65
508.59	535.48
508.95	545.74
509.31	556.17
509.67	566.98
510.03	577.98
510.39	589.35
510.75	600.96
511.12	612.69
511.48	624.90
511.84	637.20
512.20	649.60
512.56	662.48
512.92	675.60
513.28	688.97
513.64	702.51
514.00	716.22
514.37	730.19
514.73	744.38
515.09	758.42
515.45	772.81
515.81	787.49
516.17	802.66
516.53	817.94
516.89	833.40
517.25	848.81
517.61	864.54
517.97	880.21
518.33	895.87
518.69	911.96
519.05	928.36
519.41	944.96
519.77	961.97
520.13	978.86
520.49	995.68
520.85	1012.43
521.21	1029.54
521.57	1047.23
521.93	1064.51
522.29	1082.39
522.65	1100.35
523.01	1118.22
523.37	1135.89
523.73	1153.74
524.09	1171.43
524.45	1189.36
524.81	1207.65
525.17	1226.11
525.53	1244.82
525.89	1263.50
526.25	1282.33
526.61	1300.44
526.97	1319.03
527.33	1337.29
527.68	1355.70
528.04	1374.01
528.40	1392.46
528.76	1411.51
529.12	1430.16
529.48	1449.05
529.84	1466.92
530.20	1485.47
530.56	1504.42
530.91	1524.01
531.27	1542.96
531.63	1561.63
531.99	1580.30
532.35	1598.33
532.71	1616.40
533.07	1634.79
533.42	1652.89
533.78	1671.01
534.14	1689.55
534.50	1707.05
534.86	1725.10
535.21	1742.45
535.57	1760.66
535.93	1778.44
536.29	1795.41
536.65	1812.56
537.00	1829.44
537.36	1847.12
537.72	1863.92
538.08	1880.66
538.44	1896.68
538.79	1912.54
539.15	1928.27
539.51	1944.25
539.87	1961.01
540.22	1976.89
540.58	1992.98
540.94	2008.61
541.29	2023.65
541.65	2038.45
542.01	2054.01
542.37	2068.69
542.72	2083.42
543.08	2097.53
543.44	2112.36
543.79	2125.94
544.15	2139.35
544.51	2153.38
544.87	2166.69
545.22	2179.78
545.58	2192.21
545.94	2204.13
546.29	2216.20
546.65	2228.53
547.01	2240.08
547.36	2251.04
547.72	2261.76
548.07	2271.67
548.43	2281.91
548.79	2292.22
549.14	2302.03
549.50	2311.41
549.86	2321.10
550.21	2330.50
550.57	2339.77
550.92	2348.28
551.28	2357.35
551.64	2366.39
551.99	2374.95
552.35	2383.13
552.70	2391.24
553.06	2399.30
553.41	2407.72
553.77	2415.92
554.13	2423.86
554.48	2432.01
554.84	2439.53
555.19	2446.66
555.55	2453.78
555.90	2460.11
556.26	2466.70
556.61	2473.14
556.97	2479.26
557.32	2485.26
557.68	2491.04
558.03	2496.98
558.39	2502.23
558.74	2508.75
559.10	2514.45
559.45	2519.62
559.81	2525.33
560.16	2530.79
560.52	2535.54
560.87	2540.34
561.23	2544.26
561.58	2548.60
561.94	2552.54
562.29	2555.97
562.64	2560.12
563.00	2564.08
563.35	2569.06
563.71	2573.47
564.06	2578.09
564.42	2582.31
564.77	2586.08
565.12	2589.91
565.48	2593.16
565.83	2596.34
566.19	2598.73
566.54	2600.52
566.89	2602.79
567.25	2604.52
567.60	2606.83
567.96	2609.67
568.31	2611.48
568.66	2613.85
569.02	2615.37
569.37	2616.51
569.72	2618.40
570.08	2619.49
570.43	2620.17
570.78	2620.35
571.14	2619.65
571.49	2618.80
571.84	2619.10
572.20	2618.67
572.55	2618.26
572.90	2617.02
573.26	2616.21
573.61	2614.79
573.96	2613.59
574.31	2610.84
574.67	2608.07
575.02	2604.66
575.37	2601.35
575.72	2597.73
576.08	2594.24
576.43	2591.14
576.78	2587.62
577.13	2584.55
577.49	2581.43
577.84	2578.15
578.19	2574.42
578.54	2570.69
578.90	2566.63
579.25	2560.74
579.60	2555.63
579.95	2550.15
580.30	2544.92
580.66	2539.43
581.01	2534.14
581.36	2528.86
581.71	2524.45
582.06	2519.82
582.42	2515.08
582.77	2509.47
583.12	2504.71
583.47	2499.96
583.82	2494.63
584.17	2488.97
584.53	2483.11
584.88	2477.02
585.23	2470.64
585.58	2464.62
585.93	2458.55
586.28	2453.17
586.63	2447.58
586.98	2441.79
587.34	2436.54
587.69	2431.13
588.04	2425.35
588.39	2419.35
588.74	2411.97
589.09	2405.18
589.44	2397.59
589.79	2390.77
590.14	2384.47
590.49	2377.00
590.84	2369.76
591.19	2362.89
591.54	2355.64
591.89	2347.37
592.25	2339.69
592.60	2331.64
592.95	2323.12
593.30	2314.76
593.65	2306.02
594.00	2298.24
594.35	2289.99
594.70	2280.90
595.05	2272.84
595.40	2264.42
595.75	2255.66
596.10	2248.78
596.45	2241.02
596.80	2233.99
597.15	2226.48
597.50	2218.42
597.85	2210.93
598.19	2203.13
598.54	2194.95
598.89	2187.18
599.24	2180.31
599.59	2172.64
599.94	2165.44
600.29	2158.05
600.64	2150.53
600.99	2142.02
601.34	2133.99
601.69	2125.81
602.04	2117.84
602.39	2109.22
602.74	2101.30
603.08	2093.44
603.43	2085.46
603.78	2076.97
604.13	2068.52
604.48	2060.08
604.83	2052.00
605.18	2043.89
605.53	2034.70
605.87	2025.39
606.22	2016.94
606.57	2007.55
606.92	1998.79
607.27	1990.31
607.62	1982.24
607.96	1973.75
608.31	1966.03
608.66	1957.10
609.01	1948.29
609.36	1939.36
609.70	1929.88
610.05	1920.40
610.40	1911.28
610.75	1901.58
611.10	1892.61
611.44	1882.63
611.79	1873.13
612.14	1862.91
612.49	1852.07
612.83	1842.15
613.18	1832.43
613.53	1822.98
613.88	1812.92
614.22	1803.21
614.57	1793.10
614.92	1783.44
615.27	1774.42
615.61	1764.61
615.96	1755.06
616.31	1746.06
616.65	1737.43
617.00	1728.59
617.35	1719.63
617.70	1709.95
618.04	1699.85
618.39	1690.10
618.74	1681.03
619.08	1671.25
619.43	1662.10
619.78	1653.97
620.12	1645.47
620.47	1636.73
620.82	1626.92
621.16	1618.02
621.51	1608.96
621.85	1599.92
622.20	1589.89
622.55	1580.04
622.89	1570.69
623.24	1561.58
623.59	1552.74
623.93	1543.83
624.28	1535.13
624.62	1526.08
624.97	1517.52
625.32	1509.36
625.66	1501.02
626.01	1492.79
626.35	1483.97
626.70	1474.85
627.04	1465.74
627.39	1456.53
627.73	1447.67
628.08	1439.54
628.43	1431.00
628.77	1422.30
629.12	1413.28
629.46	1404.78
629.81	1395.84
630.15	1387.21
630.50	1378.52
630.84	1368.85
631.19	1359.36
631.53	1350.51
631.88	1341.71
632.22	1332.70
632.57	1324.18
632.91	1315.17
633.26	1306.43
633.60	1297.64
633.95	1289.18
634.29	1280.79
634.64	1272.88
634.98	1264.17
635.32	1255.69
635.67	1247.79
636.01	1239.97
636.36	1231.95
636.70	1224.28
637.05	1216.64
637.39	1209.07
637.73	1201.38
638.08	1194.46
638.42	1187.40
638.77	1179.80
639.11	1171.99
639.45	1164.38
639.80	1156.54
640.14	1149.12
640.49	1141.31
640.83	1133.89
641.17	1126.72
641.52	1119.33
641.86	1111.62
642.20	1104.77
642.55	1097.24
642.89	1089.65
643.23	1081.88
643.58	1075.15
643.92	1067.88
644.26	1060.78
644.61	1053.63
644.95	1046.60
645.29	1038.94
645.64	1031.05
645.98	1023.65
646.32	1016.74
646.66	1009.78
647.01	1003.04
647.35	996.32
647.69	989.46
648.04	983.05
648.38	976.31
648.72	969.36
649.06	962.44
649.41	955.59
649.75	948.76
650.09	941.85
650.43	935.24
650.78	928.07
651.12	921.24
651.46	914.70
651.80	908.09
652.14	901.81
652.49	895.56
652.83	889.64
653.17	883.10
653.51	876.46
653.85	870.17
654.20	863.56
654.54	856.63
654.88	850.02
655.22	843.11
655.56	836.48
655.90	830.12
656.25	823.96
656.59	817.75
656.93	811.85
657.27	805.94
657.61	799.60
657.95	793.67
658.29	787.67
658.64	781.43
658.98	775.25
659.32	768.87
659.66	762.78
660.00	756.57
660.34	750.77
660.68	745.13
661.02	739.16
661.36	733.74
661.70	728.51
662.05	723.38
662.39	718.39
662.73	713.12
663.07	708.09
663.41	702.93
663.75	697.70
664.09	692.32
664.43	687.17
664.77	682.46
665.11	677.52
665.45	672.67
665.79	667.96
666.13	663.21
666.47	658.44
666.81	653.69
667.15	648.90
667.49	644.36
667.83	639.89
668.17	635.45
668.51	630.72
668.85	625.99
669.19	621.46
669.53	617.05
669.87	612.59
670.21	608.16
670.55	603.95
670.89	599.95
671.23	595.94
671.57	591.81
671.91	587.65
672.25	583.53
672.58	579.45
672.92	575.43
673.26	571.65
673.60	567.96
673.94	564.31
674.28	560.89
674.62	557.42
674.96	553.84
675.30	550.48
675.64	547.00
675.97	543.77
676.31	540.51
676.65	537.07
676.99	533.90
677.33	530.57
677.67	527.28
678.01	523.75
678.34	520.37
678.68	517.00
679.02	513.72
679.36	510.56
679.70	507.43
680.04	504.23
680.37	500.99
680.71	497.73
681.05	494.65
681.39	491.53
681.73	488.49
682.06	485.52
682.40	482.54
682.74	479.65
683.08	476.71
683.42	473.69
683.75	470.75
684.09	467.78
684.43	464.94
684.77	462.08
685.10	459.30
685.44	456.57
685.78	453.92
686.12	451.21
686.45	448.53
686.79	445.81
687.13	443.28
687.46	440.77
687.80	438.30
688.14	435.71
688.48	433.29
688.81	430.63
689.15	428.12
689.49	425.55
689.82	423.15
690.16	420.69
690.50	418.45
690.83	416.28
691.17	413.99
691.51	411.79
691.84	409.61
692.18	407.39
692.52	405.13
692.85	402.90
693.19	400.77
693.52	398.62
693.86	396.51
694.20	394.44
694.53	392.29
694.87	390.12
695.21	388.03
695.54	385.89
695.88	383.90
696.21	381.95
696.55	380.02
696.88	377.99
697.22	376.04
697.56	374.06
697.89	372.08
698.23	370.22
698.56	368.38
698.90	366.54
699.23	364.64
699.57	362.84
699.90	361.04
700.24	359.26
700.58	357.51
700.91	355.79
701.25	354.08
701.58	352.51
701.92	350.93
702.25	349.36
702.59	347.83
702.92	346.29
703.26	344.69
703.59	343.20
703.93	341.80
704.26	340.35
704.60	338.84
704.93	337.32
705.26	335.83
705.60	334.37
705.93	332.99
706.27	331.75
706.60	330.49
706.94	329.17
707.27	327.83
707.61	326.55
707.94	325.35
708.27	324.06
708.61	322.74
708.94	321.56
709.28	320.40
709.61	319.23
709.94	318.07
710.28	316.90
710.61	315.74
710.95	314.46
711.28	313.38
711.61	312.28
711.95	311.22
712.28	310.16
712.61	309.04
712.95	307.97
713.28	306.87
713.61	305.84
713.95	304.87
714.28	303.88
714.61	302.83
714.95	301.81
715.28	300.80
715.61	299.81
715.95	298.83
716.28	297.78
716.61	296.80
716.95	295.86
717.28	294.97
717.61	294.06
717.94	293.25
718.28	292.33
718.61	291.49
718.94	290.66
719.27	289.86
719.61	289.11
719.94	288.31
720.27	287.53
720.60	286.71
720.94	285.94
721.27	285.24
721.60	284.57
721.93	283.86
722.27	283.25
722.60	282.56
722.93	281.88
723.26	281.27
723.59	280.64
723.93	280.00
724.26	279.37
724.59	278.72
724.92	278.13
725.25	277.55
725.59	276.94
725.92	276.39
726.25	275.79
726.58	275.20
726.91	274.69
727.24	274.17
727.57	273.65
727.91	273.10
728.24	272.56
728.57	271.98
728.90	271.45
729.23	270.83
729.56	270.38
729.89	269.84
730.22	269.27
730.55	268.69
730.89	268.20
731.22	267.68
731.55	267.18
731.88	266.66
732.21	266.17
732.54	265.68
732.87	265.17
733.20	264.73
733.53	264.32
733.86	263.87
734.19	263.40
734.52	262.98
734.85	262.60
735.18	262.12
735.51	261.74
735.84	261.32
736.17	260.96
736.50	260.48
736.83	260.20
737.16	259.85
737.49	259.48
737.82	259.03
738.15	258.65
738.48	258.27
738.81	257.87
739.14	257.48
739.47	257.08
739.80	256.71
740.13	256.34
740.46	255.96
740.79	255.55
741.12	255.17
741.45	254.79
741.78	254.38
742.11	254.06
742.44	253.68
742.77	253.34
743.10	252.95
743.43	252.63
743.75	252.17
744.08	251.95
744.41	251.63
744.74	251.35
745.07	251.01
745.40	250.73
745.73	250.46
746.06	250.13
746.39	249.85
746.71	249.52
747.04	249.18
747.37	248.86
747.70	248.54
748.03	248.27
748.36	248.00
748.68	247.71
749.01	247.40
749.34	247.13
749.67	246.85
750.00	246.61
750.33	246.39
750.65	246.14
750.98	245.75
751.31	245.49
751.64	245.19
751.97	244.97
752.29	244.69
752.62	244.39
752.95	244.14
753.28	243.89
753.60	243.67
753.93	243.47
754.26	243.25
754.59	242.99
754.91	242.70
755.24	242.45
755.57	242.23
755.90	242.04
756.22	241.81
756.55	241.62
756.88	241.38
757.20	241.11
757.53	240.90
757.86	240.69
758.19	240.52
758.51	240.35
758.84	240.14
759.17	239.97
759.49	239.81
759.82	239.67
760.15	239.48
760.47	239.28
760.80	239.14
761.13	238.98
761.45	238.83
761.78	238.68
762.11	238.56
762.43	238.40
762.76	238.24
763.08	238.13
763.41	237.94
763.74	237.79
764.06	237.65
764.39	237.50
764.71	237.35
765.04	237.18
765.37	237.04
765.69	236.87
766.02	236.71
766.34	236.57
766.67	236.43
767.00	236.34
767.32	236.28
767.65	236.13
767.97	236.02
768.30	235.93
768.62	235.82
768.95	235.66
769.27	235.52
769.60	235.37
769.92	235.23
770.25	235.12
770.57	234.99
770.90	234.84
771.22	234.72
771.55	234.62
771.87	234.52
772.20	234.37
772.52	234.37
772.85	234.39
773.17	234.28
773.50	234.16
773.82	234.04
774.15	233.87
774.47	233.75
774.80	233.60
775.12	233.47
775.45	233.40
775.77	233.30
776.09	233.22
776.42	233.16
776.74	233.06
777.07	232.97
777.39	232.87
777.72	232.82
778.04	232.73
778.36	232.65
778.69	232.58
779.01	232.53
779.33	232.38
779.66	232.17
779.98	232.09
780.31	232.00
780.63	231.93
780.95	231.87
781.28	231.78
781.60	231.71
781.92	231.65
782.25	231.56
782.57	231.50
782.89	231.43
783.22	231.33
783.54	231.27
783.86	231.21
784.19	231.17
784.51	231.13
784.83	231.08
785.16	231.04
785.48	230.98
785.80	230.94
786.12	230.87
786.45	230.80
786.77	230.76
787.09	230.70
787.42	230.62
787.74	230.58
788.06	230.53
788.38	230.47
788.71	230.44
789.03	230.36
789.35	230.31
789.67	230.28
789.99	230.26
790.32	230.21
790.64	230.17
790.96	230.20
791.28	230.10
791.61	230.05
791.93	229.98
792.25	229.92
792.57	229.94
792.89	229.87
793.21	229.86
793.54	229.76
793.86	229.71
794.18	229.65
794.50	229.59
794.82	229.54
795.14	229.49
795.47	229.44
795.79	229.38
796.11	229.32
796.43	229.28
796.75	229.22
797.07	229.15
797.39	229.11
797.71	228.99
798.04	228.95
798.36	228.93
798.68	228.86
799.00	228.83
799.32	228.73
799.64	228.73
799.96	228.65
800.28	228.66
800.60	228.62
800.92	228.59
801.24	228.56
801.56	228.54
801.89	228.53
802.21	228.48
802.53	228.45
802.85	228.44
803.17	228.41
803.49	228.34
803.81	228.33
804.13	228.28
804.45	228.24
804.77	228.25
805.09	228.19
805.41	228.17
805.73	228.14
806.05	228.08
806.37	228.03
806.69	228.04
807.01	228.00
807.33	228.01
807.65	227.96
807.97	228.03
808.28	227.99
808.60	227.93
808.92	227.91
809.24	227.94
809.56	227.94
809.88	227.92
810.20	227.92
810.52	227.92
810.84	227.88
811.16	227.85
811.48	227.79
811.80	227.81
812.12	227.75
812.43	227.73
812.75	227.73
813.07	227.70
813.39	227.68
813.71	227.63
814.03	227.57
814.35	227.54
814.67	227.44
814.98	227.39
815.30	227.35
815.62	227.31
815.94	227.21
816.26	227.19
816.58	227.15
816.89	227.11
817.21	227.05
817.53	227.07
817.85	227.05
818.17	227.03
818.48	226.98
818.80	227.01
819.12	226.98
819.44	226.90
819.76	226.89
820.07	226.85
820.39	226.84
820.71	226.85
821.03	226.85
821.34	226.82
821.66	226.86
821.98	226.85
822.30	226.86
822.61	226.92
822.93	226.88
823.25	226.85
823.57	226.85
823.88	226.85
824.20	226.81
824.52	226.81
824.83	226.78
825.15	226.76
825.47	226.74
825.79	226.71
826.10	226.70
826.42	226.65
826.74	226.62
827.05	226.59
827.37	226.58
827.69	226.53
828.00	226.51
828.32	226.45
828.64	226.43
828.95	226.44
829.27	226.39
829.58	226.37
829.90	226.38
830.22	226.36
830.53	226.35
830.85	226.34
831.17	226.31
831.48	226.32
831.80	226.30
832.11	226.30
832.43	226.28
832.75	226.27
833.06	226.33
833.38	226.30
833.69	226.27
834.01	226.26
834.32	226.28
834.64	226.28
834.96	226.27
835.27	226.29
835.59	226.24
835.90	226.21
836.22	226.17
836.53	226.12
836.85	226.08
837.16	226.12
837.48	226.10
837.79	226.11
838.11	226.11
838.42	226.12
838.74	226.11
839.05	226.10
839.37	226.10
839.68	226.03
840.00	226.08
840.31	226.13
840.63	226.07
840.94	226.03
841.26	226.00
841.57	226.01
841.88	225.99
842.20	225.97
842.51	225.97
842.83	225.97
843.14	226.09
843.46	226.12
843.77	226.06
844.08	226.07
844.40	226.05
844.71	225.98
845.03	225.95
845.34	225.94
845.65	225.95
845.97	225.94
846.28	225.95
846.60	225.92
846.91	225.88
847.22	225.90
847.54	225.91
847.85	225.93
848.16	225.90
848.48	225.90
848.79	225.93
849.10	225.94
849.42	225.91
849.73	225.79
850.04	225.78
850.36	225.75
850.67	225.73
850.98	225.71
851.30	225.73
851.61	225.75
851.92	225.71
852.23	225.72
852.55	225.72
852.86	225.67
853.17	225.65
853.49	225.67
853.80	225.69
854.11	225.72
854.42	225.69
854.74	225.66
855.05	225.64
855.36	225.61
855.67	225.60
855.99	225.61
856.30	225.73
856.61	225.69
856.92	225.70
857.23	225.69
857.55	225.67
857.86	225.66
858.17	225.64
858.48	225.62
858.79	225.60
859.11	225.55
859.42	225.55
859.73	225.52
860.04	225.52
860.35	225.47
860.66	225.42
860.98	225.44
861.29	225.48
861.60	225.48
861.91	225.50
862.22	225.48
862.53	225.46
862.84	225.30
863.16	225.34
863.47	225.32
863.78	225.30
864.09	225.30
864.40	225.33
864.71	225.33
865.02	225.38
865.33	225.33
865.64	225.36
865.95	225.33
866.27	225.43
866.58	225.41
866.89	225.44
867.20	225.44
867.51	225.39
867.82	225.35
868.13	225.35
868.44	225.28
868.75	225.32
869.06	225.33
869.37	225.38
869.68	225.34
869.99	225.35
870.30	225.37
870.61	225.40
870.92	225.38
871.23	225.36
871.54	225.37
871.85	225.42
872.16	225.42
872.47	225.46
872.78	225.38
873.09	225.39
873.40	225.38
873.71	225.40
874.02	225.40
874.33	225.44
874.64	225.47
874.95	225.50
875.26	225.46
875.56	225.47
875.87	225.46
876.18	225.45
876.49	225.55
876.80	225.56
877.11	225.53
877.42	225.52
877.73	225.54
878.04	225.54
878.35	225.54
878.66	225.56
878.96	225.59
879.27	225.57
879.58	225.57
879.89	225.56
880.20	225.58
880.51	225.62
880.82	225.59
881.12	225.58
881.43	225.56
881.74	225.57
882.05	225.54
882.36	225.55
882.67	225.60
882.97	225.50
883.28	225.47
883.59	225.46
883.90	225.47
884.21	225.48
884.51	225.48
884.82	225.47
885.13	225.46
885.44	225.45
885.74	225.46
886.05	225.45
886.36	225.44
886.67	225.44
886.98	225.51
887.28	225.52
887.59	225.51
887.90	225.53
888.20	225.50
888.51	225.55
888.82	225.50
889.13	225.50
889.43	225.60
889.74	225.58
890.05	225.57
890.35	225.57
890.66	225.53
890.97	225.51
891.28	225.50
891.58	225.50
891.89	225.48
892.20	225.45
892.50	225.42
892.81	225.41
893.12	225.35
893.42	225.24
893.73	225.24
894.04	225.22
894.34	225.20
894.65	225.18
894.95	225.15
895.26	225.17
895.57	225.17
895.87	225.06
896.18	225.05
896.48	225.07
896.79	225.04
897.10	225.05
897.40	225.01
897.71	225.00
898.01	224.97
898.32	224.96
898.63	224.95
898.93	224.97
899.24	224.98
899.54	224.98
899.85	224.98
900.15	224.96
900.46	224.95
900.76	224.93
901.07	224.92
901.38	224.91
901.68	224.92
901.99	224.82
902.29	224.79
902.60	224.81
902.90	224.79
903.21	224.79
903.51	224.79
903.82	224.80
904.12	224.80
904.43	224.81
904.73	224.82
905.03	224.84
905.34	224.89
905.64	224.90
905.95	224.90
906.25	224.90
906.56	224.91
906.86	224.93
907.17	224.93
907.47	224.95
907.77	224.96
908.08	224.93
908.38	225.01
908.69	225.03
908.99	225.06
909.30	225.07
909.60	225.07
909.90	225.07
910.21	225.08
910.51	225.05
910.81	225.06
911.12	225.05
911.42	225.07
911.73	225.02
912.03	225.03
912.33	225.07
912.64	225.07
912.94	225.08
913.24	225.06
913.55	225.08
913.85	225.08
914.15	225.07
914.46	225.10
914.76	225.12
915.06	225.14
915.37	225.12
915.67	225.13
915.97	225.12
916.27	225.14
916.58	225.15
916.88	225.19
917.18	225.19
917.49	225.29
917.79	225.28
918.09	225.28
918.39	225.27
918.70	225.23
919.00	225.24
919.30	225.27
919.60	225.28
919.91	225.28
920.21	225.30
920.51	225.29
920.81	225.28
921.12	225.26
921.42	225.25
921.72	225.24
922.02	225.26
922.32	225.30
922.63	225.29
922.93	225.33
923.23	225.33
923.53	225.32
923.83	225.28
924.13	225.30
924.44	225.29
924.74	225.35
925.04	225.38
925.34	225.40
925.64	225.39
925.94	225.40
926.24	225.40
926.55	225.38
926.85	225.43
927.15	225.41
927.45	225.39
927.75	225.42
928.05	225.43
928.35	225.39
928.65	225.38
928.95	225.37
929.26	225.31
929.56	225.32
929.86	225.33
930.16	225.29
930.46	225.25
930.76	225.25
931.06	225.17
931.36	225.12
931.66	225.13
931.96	225.11
932.26	225.09
932.56	225.09
932.86	225.12
933.16	225.07
933.46	225.07
933.76	225.03
934.06	225.05
934.36	225.09
934.66	225.12
934.96	225.11
935.26	225.12
935.56	225.15
935.86	225.12
936.16	225.09
936.46	225.09
936.76	225.10
937.06	225.12
937.36	225.13
937.66	225.13
937.96	225.11
938.26	225.06
938.56	225.03
938.86	225.00
939.16	225.02
939.46	225.02
939.76	225.02
940.06	225.04
940.35	225.01
940.65	224.93
940.95	224.91
941.25	224.88
941.55	224.86
941.85	224.82
942.15	224.85
942.45	224.87
942.75	224.81
943.04	224.80
943.34	224.80
943.64	224.79
943.94	224.77
944.24	224.77
944.54	224.79
944.84	224.82
945.13	224.85
945.43	224.81
945.73	224.82
946.03	224.82
946.33	224.83
946.62	224.81
946.92	224.82
947.22	224.83
947.52	224.83
947.82	224.82
948.11	224.86
948.41	224.81
948.71	224.76
949.01	224.80
949.31	224.81
949.60	224.80
949.90	224.81
950.20	224.83
950.50	224.84
950.79	224.88
951.09	224.90
951.39	224.88
951.69	224.89
951.98	224.91
952.28	224.93
952.58	224.92
952.87	224.94
953.17	225.00
953.47	224.99
953.76	225.02
954.06	225.04
954.36	225.02
954.66	225.06
954.95	225.09
955.25	225.13
955.55	225.16
955.84	225.16
956.14	225.19
956.44	225.21
956.73	225.22
957.03	225.19
957.32	225.20
957.62	225.21
957.92	225.24
958.21	225.25
958.51	225.37
958.81	225.37
959.10	225.40
959.40	225.43
959.69	225.46
959.99	225.50
960.29	225.54
960.58	225.53
960.88	225.55
961.17	225.57
961.47	225.59
961.76	225.55
962.06	225.56
962.36	225.57
962.65	225.58
962.95	225.58
963.24	225.60
963.54	225.59
963.83	225.60
964.13	225.60
964.42	225.58
964.72	225.49
965.01	225.51
965.31	225.50
965.60	225.46
965.90	225.51
966.19	225.45
966.49	225.43
966.78	225.42
967.08	225.43
967.37	225.40
967.67	225.36
967.96	225.40
968.26	225.39
968.55	225.38
968.85	225.35
969.14	225.37
969.43	225.35
969.73	225.33
970.02	225.35
970.32	225.32
970.61	225.28
970.91	225.23
971.20	225.20
971.49	225.20
971.79	225.18
972.08	225.09
972.38	225.11
972.67	225.09
972.96	225.10
973.26	225.08
973.55	225.10
973.85	225.08
974.14	225.05
974.43	225.08
974.73	225.06
975.02	225.07
975.31	225.03
975.61	225.02
975.90	224.99
976.19	224.95
976.49	224.95
976.78	224.96
977.07	224.98
977.37	224.96
977.66	224.91
977.95	224.90
978.24	224.88
978.54	224.90
978.83	224.88
979.12	224.87
979.42	224.85
979.71	224.81
980.00	224.81
980.29	224.81
980.59	224.76
980.88	224.78
981.17	224.74
981.46	224.74
981.76	224.77
982.05	224.82
982.34	224.85
982.63	224.85
982.93	224.86
983.22	224.87
983.51	224.89
983.80	224.91
984.09	224.92
984.39	224.95
984.68	224.92
984.97	224.93
985.26	224.91
985.55	224.90
985.85	224.91
986.14	224.93
986.43	224.93
986.72	224.91
987.01	224.89
987.30	224.90
987.59	224.91
987.89	224.86
988.18	224.81
988.47	224.79
988.76	224.77
989.05	224.78
989.34	224.75
989.63	224.76
989.92	224.77
990.22	224.75
990.51	224.75
990.80	224.77
991.09	224.76
991.38	224.78
991.67	224.78
991.96	224.78
992.25	224.77
992.54	224.76
992.83	224.76
993.12	224.74
993.41	224.77
993.70	224.83
993.99	224.88
994.28	224.95
994.58	224.98
994.87	224.97
995.16	224.96
995.45	224.96
995.74	224.94
996.03	224.96
996.32	225.00
996.61	224.99
996.90	224.99
997.19	224.99
997.48	224.99
997.77	225.02
998.06	225.02
998.34	225.00
998.63	225.02
998.92	225.02
999.21	225.04
999.50	225.03
999.79	224.96
1000.08	224.93
1000.37	224.90
1000.66	224.87
1000.95	224.91
1001.24	224.93
1001.53	224.93
1001.82	224.96
1002.11	224.89
1002.40	224.88
1002.68	224.91
1002.97	224.95
1003.26	224.94
1003.55	224.92
1003.84	224.90
1004.13	224.90
1004.42	224.89
1004.71	224.90
1004.99	224.90
1005.28	224.90
1005.57	224.92
1005.86	224.94
1006.15	224.94
1006.44	224.90
1006.72	224.91
1007.01	224.89
1007.30	224.85
1007.59	224.82
1007.88	224.79
1008.17	224.79
1008.45	224.79
1008.74	224.74
1009.03	224.73
1009.32	224.75
1009.60	224.76
1009.89	224.77
1010.18	224.75
1010.47	224.77
1010.76	224.73
1011.04	224.74
1011.33	224.77
1011.62	224.74
1011.91	224.73
1012.19	224.73
1012.48	224.75
1012.77	224.75
1013.05	224.81
1013.34	224.81
1013.63	224.82
1013.92	224.84
1014.20	224.87
1014.49	224.87
1014.78	224.89
1015.06	224.87
1015.35	224.85
1015.64	224.89
1015.92	224.90
1016.21	224.90
1016.50	224.88
1016.78	224.90
1017.07	224.90
1017.36	224.85
1017.64	224.81
1017.93	224.81
1018.22	224.80
1018.50	224.79
1018.79	224.76
1019.08	224.67
1019.36	224.69
1019.65	224.70
1019.93	224.72
1020.22	224.72
1020.51	224.75
1020.79	224.72
1021.08	224.72
1021.36	224.44
1021.65	224.43
1021.94	224.30
1022.22	224.64
1022.51	224.82
1022.79	225.26
1023.08	224.88
1023.36	225.29
1023.65	224.51
>>>>>End Processed Spectral Data<<<<<
