SpectraSuite Data File
++++++++++++++++++++++++++++++++++++
Date: Fri Feb 01 15:13:27 EST 2013
User: group
Dark Spectrum Present: No
Reference Spectrum Present: No
Number of Sampled Component Spectra: 1
Spectrometers: USB2E7196
Integration Time (usec): 35000 (USB2E7196)
Spectra Averaged: 100 (USB2E7196)
Boxcar Smoothing: 10 (USB2E7196)
Correct for Electrical Dark: No (USB2E7196)
Strobe/Lamp Enabled: No (USB2E7196)
Correct for Detector Non-linearity: No (USB2E7196)
Correct for Stray Light: No (USB2E7196)
Number of Pixels in Processed Spectrum: 2048
>>>>>Begin Processed Spectral Data<<<<<
339.09	0.00
339.48	214.96
339.86	216.51
340.24	218.27
340.63	219.40
341.01	222.03
341.39	222.67
341.78	223.55
342.16	224.82
342.54	224.88
342.93	213.48
343.31	224.26
343.69	224.84
344.07	225.28
344.46	225.69
344.84	226.06
345.22	226.30
345.60	226.52
345.99	226.70
346.37	226.84
346.75	226.93
347.13	226.99
347.52	227.04
347.90	227.11
348.28	227.15
348.66	227.19
349.05	227.17
349.43	227.22
349.81	227.30
350.19	227.32
350.57	227.38
350.96	227.46
351.34	227.56
351.72	227.61
352.10	227.70
352.48	227.77
352.87	227.82
353.25	227.90
353.63	227.95
354.01	227.99
354.39	228.04
354.77	228.13
355.15	228.25
355.54	228.29
355.92	228.34
356.30	228.42
356.68	228.59
357.06	228.67
357.44	228.71
357.82	228.75
358.20	228.85
358.58	228.92
358.97	228.96
359.35	229.00
359.73	229.09
360.11	229.15
360.49	229.21
360.87	229.26
361.25	229.29
361.63	229.35
362.01	229.42
362.39	229.44
362.77	229.49
363.15	229.49
363.53	229.54
363.91	229.56
364.29	229.54
364.67	229.40
365.05	229.39
365.43	229.43
365.81	229.44
366.19	229.45
366.57	229.47
366.95	229.45
367.33	229.45
367.71	229.45
368.09	229.44
368.47	229.43
368.85	229.40
369.23	229.40
369.61	229.38
369.99	229.35
370.37	229.33
370.75	229.31
371.13	229.26
371.51	229.18
371.89	229.16
372.27	229.16
372.65	229.13
373.03	229.08
373.41	228.99
373.78	228.93
374.16	228.84
374.54	228.74
374.92	228.64
375.30	228.60
375.68	228.52
376.06	228.47
376.44	228.40
376.82	228.34
377.19	228.27
377.57	228.19
377.95	228.11
378.33	228.04
378.71	227.95
379.09	227.88
379.47	227.86
379.84	227.78
380.22	227.64
380.60	227.56
380.98	227.51
381.36	227.46
381.73	227.36
382.11	227.31
382.49	227.29
382.87	227.23
383.25	227.14
383.62	227.17
384.00	227.10
384.38	227.04
384.76	226.99
385.13	226.97
385.51	226.94
385.89	226.89
386.27	226.85
386.64	226.77
387.02	226.74
387.40	226.67
387.78	226.62
388.15	226.61
388.53	226.57
388.91	226.50
389.29	226.44
389.66	226.42
390.04	226.37
390.42	226.31
390.79	226.32
391.17	226.28
391.55	226.18
391.92	226.17
392.30	226.16
392.68	226.16
393.05	226.13
393.43	226.12
393.81	226.11
394.18	226.11
394.56	226.13
394.94	226.15
395.31	226.15
395.69	226.22
396.06	226.29
396.44	226.34
396.82	226.43
397.19	226.54
397.57	226.60
397.95	226.70
398.32	226.76
398.70	226.82
399.07	226.91
399.45	226.96
399.82	227.01
400.20	227.07
400.58	227.15
400.95	227.21
401.33	227.31
401.70	227.49
402.08	227.62
402.45	227.75
402.83	227.91
403.20	228.04
403.58	228.13
403.95	228.27
404.33	228.42
404.71	228.52
405.08	228.71
405.46	228.83
405.83	229.01
406.21	229.15
406.58	229.32
406.96	229.51
407.33	229.71
407.70	229.95
408.08	230.25
408.45	230.48
408.83	230.76
409.20	231.00
409.58	231.17
409.95	231.46
410.33	231.75
410.70	231.98
411.08	232.31
411.45	232.65
411.82	232.94
412.20	233.31
412.57	233.73
412.95	234.01
413.32	234.44
413.69	234.82
414.07	235.27
414.44	235.74
414.82	236.23
415.19	236.76
415.56	237.31
415.94	237.86
416.31	238.49
416.68	239.10
417.06	239.80
417.43	240.50
417.81	241.24
418.18	242.00
418.55	242.84
418.93	243.71
419.30	244.60
419.67	245.55
420.04	246.47
420.42	247.50
420.79	248.69
421.16	249.85
421.54	251.05
421.91	252.30
422.28	253.57
422.66	254.90
423.03	256.19
423.40	257.53
423.77	258.92
424.15	260.34
424.52	261.81
424.89	263.43
425.26	264.98
425.64	266.43
426.01	268.04
426.38	269.69
426.75	271.33
427.13	273.07
427.50	274.86
427.87	276.75
428.24	278.59
428.61	280.31
428.99	282.26
429.36	284.36
429.73	286.40
430.10	288.43
430.47	290.50
430.85	292.64
431.22	294.88
431.59	297.30
431.96	299.56
432.33	302.10
432.70	304.49
433.08	307.29
433.45	309.94
433.82	312.55
434.19	315.48
434.56	318.34
434.93	321.00
435.30	323.66
435.68	326.56
436.05	329.42
436.42	332.26
436.79	334.79
437.16	337.51
437.53	340.33
437.90	343.13
438.27	345.86
438.64	348.70
439.01	351.25
439.38	353.46
439.75	355.61
440.13	358.07
440.50	360.36
440.87	362.21
441.24	364.16
441.61	366.36
441.98	367.78
442.35	369.58
442.72	371.39
443.09	373.17
443.46	374.20
443.83	374.79
444.20	375.26
444.57	376.05
444.94	376.32
445.31	376.66
445.68	377.04
446.05	377.12
446.42	376.73
446.79	376.32
447.16	375.86
447.53	375.57
447.90	374.40
448.27	373.28
448.64	371.69
449.01	370.53
449.37	368.51
449.74	366.66
450.11	364.39
450.48	361.94
450.85	359.39
451.22	357.21
451.59	355.16
451.96	353.29
452.33	350.72
452.70	348.37
453.07	345.56
453.43	342.65
453.80	339.89
454.17	337.20
454.54	334.69
454.91	331.95
455.28	329.25
455.65	326.75
456.02	324.27
456.38	322.13
456.75	319.47
457.12	317.25
457.49	315.02
457.86	312.81
458.23	310.95
458.59	308.88
458.96	306.80
459.33	304.93
459.70	303.03
460.07	301.50
460.43	299.75
460.80	298.11
461.17	296.63
461.54	295.10
461.91	293.68
462.27	292.22
462.64	290.98
463.01	289.63
463.38	288.36
463.74	286.98
464.11	285.80
464.48	284.77
464.85	283.63
465.21	282.73
465.58	281.86
465.95	280.74
466.32	279.84
466.68	278.96
467.05	278.04
467.42	277.15
467.78	276.23
468.15	275.37
468.52	274.69
468.88	273.83
469.25	273.10
469.62	272.44
469.98	271.72
470.35	271.08
470.72	270.45
471.08	269.73
471.45	269.19
471.82	268.63
472.18	268.00
472.55	267.55
472.92	266.99
473.28	266.49
473.65	266.04
474.02	265.61
474.38	265.21
474.75	264.88
475.11	264.48
475.48	264.21
475.85	263.93
476.21	263.69
476.58	263.52
476.94	263.33
477.31	263.17
477.67	263.02
478.04	262.88
478.41	262.81
478.77	262.86
479.14	262.81
479.50	262.78
479.87	262.87
480.23	262.96
480.60	263.04
480.96	263.13
481.33	263.34
481.69	263.49
482.06	263.67
482.42	263.88
482.79	264.19
483.15	264.49
483.52	264.87
483.88	265.21
484.25	265.56
484.61	265.97
484.98	266.44
485.34	267.02
485.71	267.61
486.07	268.18
486.44	268.74
486.80	269.41
487.17	270.16
487.53	270.96
487.90	271.80
488.26	272.74
488.62	273.72
488.99	274.63
489.35	275.70
489.72	276.84
490.08	278.03
490.44	279.24
490.81	280.57
491.17	281.91
491.54	283.41
491.90	285.01
492.26	286.63
492.63	288.35
492.99	290.09
493.36	292.02
493.72	294.10
494.08	296.18
494.45	298.43
494.81	300.80
495.17	303.26
495.54	305.84
495.90	308.50
496.26	311.32
496.63	314.34
496.99	317.46
497.35	320.72
497.72	324.10
498.08	327.59
498.44	331.25
498.80	335.23
499.17	339.21
499.53	343.34
499.89	347.71
500.26	352.20
500.62	356.93
500.98	361.85
501.34	366.91
501.71	372.26
502.07	377.69
502.43	383.28
502.79	389.04
503.16	395.10
503.52	401.38
503.88	407.76
504.24	414.40
504.60	421.25
504.97	428.32
505.33	435.62
505.69	443.33
506.05	451.07
506.41	458.91
506.78	467.09
507.14	475.51
507.50	484.27
507.86	493.28
508.22	502.47
508.59	511.66
508.95	521.27
509.31	531.14
509.67	541.22
510.03	551.54
510.39	562.10
510.75	572.91
511.12	583.88
511.48	595.23
511.84	606.68
512.20	618.21
512.56	630.21
512.92	642.47
513.28	654.80
513.64	667.36
514.00	680.07
514.37	693.06
514.73	706.16
515.09	719.22
515.45	732.51
515.81	746.14
516.17	760.20
516.53	774.31
516.89	788.44
517.25	802.71
517.61	817.22
517.97	831.67
518.33	846.09
518.69	860.86
519.05	875.85
519.41	890.98
519.77	906.60
520.13	922.02
520.49	937.45
520.85	952.97
521.21	968.59
521.57	984.90
521.93	1000.68
522.29	1017.10
522.65	1033.36
523.01	1049.68
523.37	1065.76
523.73	1081.91
524.09	1098.01
524.45	1114.51
524.81	1131.07
525.17	1147.88
525.53	1164.88
525.89	1181.83
526.25	1198.79
526.61	1215.24
526.97	1232.07
527.33	1248.56
527.68	1265.33
528.04	1281.77
528.40	1298.46
528.76	1315.66
529.12	1332.35
529.48	1349.30
529.84	1365.51
530.20	1382.23
530.56	1399.35
530.91	1416.92
531.27	1433.87
531.63	1450.49
531.99	1467.00
532.35	1483.15
532.71	1499.02
533.07	1515.31
533.42	1531.23
533.78	1547.20
534.14	1563.58
534.50	1579.09
534.86	1595.09
535.21	1610.24
535.57	1626.41
535.93	1642.00
536.29	1656.83
536.65	1671.96
537.00	1686.83
537.36	1702.08
537.72	1716.65
538.08	1731.03
538.44	1744.71
538.79	1758.63
539.15	1772.50
539.51	1786.33
539.87	1800.67
540.22	1814.58
540.58	1828.55
540.94	1842.23
541.29	1855.41
541.65	1868.18
542.01	1881.39
542.37	1893.76
542.72	1906.27
543.08	1917.99
543.44	1930.53
543.79	1941.90
544.15	1952.96
544.51	1964.55
544.87	1975.56
545.22	1986.43
545.58	1996.66
545.94	2006.58
546.29	2016.44
546.65	2026.12
547.01	2035.58
547.36	2044.38
547.72	2052.88
548.07	2060.78
548.43	2068.82
548.79	2076.83
549.14	2084.32
549.50	2091.70
549.86	2099.47
550.21	2106.84
550.57	2114.12
550.92	2120.56
551.28	2127.85
551.64	2134.94
551.99	2141.46
552.35	2147.55
552.70	2153.72
553.06	2159.68
553.41	2165.96
553.77	2171.97
554.13	2178.09
554.48	2184.08
554.84	2189.46
555.19	2194.81
555.55	2199.88
555.90	2204.34
556.26	2209.19
556.61	2214.02
556.97	2218.06
557.32	2222.15
557.68	2226.34
558.03	2230.48
558.39	2234.22
558.74	2238.61
559.10	2242.40
559.45	2246.06
559.81	2250.58
560.16	2254.33
560.52	2257.70
560.87	2261.26
561.23	2263.88
561.58	2266.89
561.94	2269.23
562.29	2271.67
562.64	2274.39
563.00	2276.86
563.35	2280.29
563.71	2283.32
564.06	2286.49
564.42	2289.59
564.77	2292.07
565.12	2294.16
565.48	2295.94
565.83	2297.59
566.19	2298.77
566.54	2299.75
566.89	2300.81
567.25	2301.15
567.60	2302.46
567.96	2304.01
568.31	2304.73
568.66	2305.68
569.02	2306.09
569.37	2306.48
569.72	2307.10
570.08	2307.00
570.43	2307.07
570.78	2306.37
571.14	2304.73
571.49	2303.21
571.84	2302.64
572.20	2301.37
572.55	2300.22
572.90	2298.84
573.26	2297.56
573.61	2295.81
573.96	2293.81
574.31	2290.72
574.67	2287.65
575.02	2283.94
575.37	2280.43
575.72	2276.49
576.08	2273.16
576.43	2269.69
576.78	2265.99
577.13	2262.91
577.49	2259.79
577.84	2256.24
578.19	2252.39
578.54	2248.78
578.90	2244.29
579.25	2238.70
579.60	2233.70
579.95	2228.65
580.30	2223.43
580.66	2217.98
581.01	2212.95
581.36	2207.89
581.71	2203.73
582.06	2199.18
582.42	2194.58
582.77	2189.27
583.12	2184.51
583.47	2179.72
583.82	2174.63
584.17	2169.20
584.53	2163.71
584.88	2157.85
585.23	2151.85
585.58	2146.38
585.93	2140.68
586.28	2136.07
586.63	2130.84
586.98	2125.49
587.34	2120.68
587.69	2115.70
588.04	2110.41
588.39	2104.66
588.74	2098.18
589.09	2091.81
589.44	2085.00
589.79	2078.92
590.14	2073.25
590.49	2066.57
590.84	2060.12
591.19	2054.09
591.54	2047.53
591.89	2039.86
592.25	2033.03
592.60	2025.76
592.95	2017.93
593.30	2010.50
593.65	2002.61
594.00	1995.57
594.35	1988.45
594.70	1980.50
595.05	1973.17
595.40	1965.83
595.75	1958.22
596.10	1951.90
596.45	1944.96
596.80	1938.67
597.15	1931.94
597.50	1924.72
597.85	1918.33
598.19	1911.53
598.54	1904.24
598.89	1897.61
599.24	1891.70
599.59	1885.05
599.94	1878.80
600.29	1872.51
600.64	1865.95
600.99	1858.59
601.34	1851.69
601.69	1844.63
602.04	1837.53
602.39	1830.13
602.74	1823.32
603.08	1816.59
603.43	1809.80
603.78	1802.66
604.13	1795.48
604.48	1788.07
604.83	1781.24
605.18	1774.10
605.53	1766.12
605.87	1758.16
606.22	1750.92
606.57	1742.95
606.92	1735.56
607.27	1728.38
607.62	1721.47
607.96	1714.17
608.31	1707.46
608.66	1699.90
609.01	1692.24
609.36	1684.66
609.70	1676.66
610.05	1668.43
610.40	1660.73
610.75	1652.42
611.10	1644.65
611.44	1636.22
611.79	1628.35
612.14	1619.65
612.49	1610.58
612.83	1602.23
613.18	1594.10
613.53	1586.02
613.88	1577.46
614.22	1569.15
614.57	1560.55
614.92	1552.57
615.27	1544.96
615.61	1536.69
615.96	1528.68
616.31	1521.09
616.65	1513.78
617.00	1506.27
617.35	1498.72
617.70	1490.33
618.04	1481.83
618.39	1473.66
618.74	1466.09
619.08	1457.79
619.43	1450.19
619.78	1443.24
620.12	1436.04
620.47	1428.45
620.82	1420.29
621.16	1412.95
621.51	1405.41
621.85	1397.89
622.20	1389.26
622.55	1380.98
622.89	1373.20
623.24	1365.59
623.59	1358.16
623.93	1350.64
624.28	1343.35
624.62	1335.75
624.97	1328.55
625.32	1321.83
625.66	1314.79
626.01	1307.45
626.35	1299.97
626.70	1292.24
627.04	1284.49
627.39	1276.76
627.73	1269.38
628.08	1262.29
628.43	1254.94
628.77	1247.48
629.12	1239.87
629.46	1232.71
629.81	1225.17
630.15	1217.93
630.50	1210.49
630.84	1202.31
631.19	1194.40
631.53	1186.94
631.88	1179.36
632.22	1171.84
632.57	1164.63
632.91	1157.16
633.26	1149.85
633.60	1142.52
633.95	1135.44
634.29	1128.56
634.64	1121.85
634.98	1114.54
635.32	1107.62
635.67	1101.10
636.01	1094.58
636.36	1087.76
636.70	1081.31
637.05	1074.90
637.39	1068.39
637.73	1061.88
638.08	1056.07
638.42	1050.17
638.77	1043.72
639.11	1037.29
639.45	1030.87
639.80	1024.17
640.14	1017.69
640.49	1011.15
640.83	1004.82
641.17	998.56
641.52	992.15
641.86	985.84
642.20	980.05
642.55	973.73
642.89	967.17
643.23	960.69
643.58	954.96
643.92	948.69
644.26	942.56
644.61	936.61
644.95	930.58
645.29	923.97
645.64	917.17
645.98	910.81
646.32	905.00
646.66	899.03
647.01	893.21
647.35	887.55
647.69	881.83
648.04	876.38
648.38	870.59
648.72	864.56
649.06	858.41
649.41	852.56
649.75	846.56
650.09	840.64
650.43	834.72
650.78	828.53
651.12	822.66
651.46	816.96
651.80	811.25
652.14	805.93
652.49	800.67
652.83	795.46
653.17	789.84
653.51	784.05
653.85	778.70
654.20	773.04
654.54	767.07
654.88	761.36
655.22	755.46
655.56	749.82
655.90	744.38
656.25	739.17
656.59	733.75
656.93	728.67
657.27	723.54
657.61	718.11
657.95	713.04
658.29	707.94
658.64	702.66
658.98	697.34
659.32	691.82
659.66	686.54
660.00	681.22
660.34	676.26
660.68	671.36
661.02	666.28
661.36	661.59
661.70	657.09
662.05	652.66
662.39	648.37
662.73	643.92
663.07	639.61
663.41	635.18
663.75	630.76
664.09	626.20
664.43	621.82
664.77	617.82
665.11	613.58
665.45	609.49
665.79	605.45
666.13	601.32
666.47	597.28
666.81	593.10
667.15	589.07
667.49	585.21
667.83	581.39
668.17	577.48
668.51	573.46
668.85	569.46
669.19	565.61
669.53	561.73
669.87	557.87
670.21	554.15
670.55	550.54
670.89	547.12
671.23	543.74
671.57	540.24
671.91	536.64
672.25	533.15
672.58	529.66
672.92	526.32
673.26	523.13
673.60	520.02
673.94	516.97
674.28	514.07
674.62	511.13
674.96	508.07
675.30	505.11
675.64	502.15
675.97	499.43
676.31	496.57
676.65	493.61
676.99	490.89
677.33	488.08
677.67	485.24
678.01	482.22
678.34	479.17
678.68	476.32
679.02	473.53
679.36	470.80
679.70	468.08
680.04	465.32
680.37	462.50
680.71	459.68
681.05	457.06
681.39	454.33
681.73	451.67
682.06	449.17
682.40	446.67
682.74	444.20
683.08	441.62
683.42	439.08
683.75	436.68
684.09	434.17
684.43	431.68
684.77	429.21
685.10	426.86
685.44	424.62
685.78	422.32
686.12	420.13
686.45	417.84
686.79	415.54
687.13	413.38
687.46	411.17
687.80	409.06
688.14	406.90
688.48	404.87
688.81	402.62
689.15	400.44
689.49	398.35
689.82	396.30
690.16	394.22
690.50	392.27
690.83	390.31
691.17	388.35
691.51	386.50
691.84	384.73
692.18	382.82
692.52	380.84
692.85	378.93
693.19	377.10
693.52	375.29
693.86	373.51
694.20	371.68
694.53	369.94
694.87	368.08
695.21	366.28
695.54	364.44
695.88	362.78
696.21	361.07
696.55	359.36
696.88	357.64
697.22	356.02
697.56	354.39
697.89	352.71
698.23	351.10
698.56	349.47
698.90	347.85
699.23	346.21
699.57	344.63
699.90	343.07
700.24	341.52
700.58	339.94
700.91	338.45
701.25	337.03
701.58	335.64
701.92	334.29
702.25	332.86
702.59	331.55
702.92	330.17
703.26	328.91
703.59	327.63
703.93	326.48
704.26	325.23
704.60	323.94
704.93	322.70
705.26	321.44
705.60	320.28
705.93	319.14
706.27	318.11
706.60	317.10
706.94	316.01
707.27	314.86
707.61	313.86
707.94	312.83
708.27	311.74
708.61	310.68
708.94	309.66
709.28	308.72
709.61	307.73
709.94	306.77
710.28	305.75
710.61	304.79
710.95	303.68
711.28	302.80
711.61	301.89
711.95	300.99
712.28	300.07
712.61	299.09
712.95	298.18
713.28	297.31
713.61	296.40
713.95	295.56
714.28	294.70
714.61	293.85
714.95	293.03
715.28	292.17
715.61	291.27
715.95	290.43
716.28	289.62
716.61	288.80
716.95	288.04
717.28	287.32
717.61	286.54
717.94	285.82
718.28	284.98
718.61	284.28
718.94	283.58
719.27	282.95
719.61	282.29
719.94	281.60
720.27	280.88
720.60	280.25
720.94	279.60
721.27	279.02
721.60	278.41
721.93	277.78
722.27	277.28
722.60	276.75
722.93	276.19
723.26	275.64
723.59	275.08
723.93	274.52
724.26	273.93
724.59	273.42
724.92	272.86
725.25	272.37
725.59	271.82
725.92	271.33
726.25	270.80
726.58	270.30
726.91	269.83
727.24	269.31
727.57	268.80
727.91	268.35
728.24	267.88
728.57	267.40
728.90	266.99
729.23	266.45
729.56	266.03
729.89	265.58
730.22	265.10
730.55	264.65
730.89	264.21
731.22	263.76
731.55	263.33
731.88	262.94
732.21	262.49
732.54	262.03
732.87	261.57
733.20	261.17
733.53	260.80
733.86	260.46
734.19	260.09
734.52	259.70
734.85	259.34
735.18	258.93
735.51	258.60
735.84	258.16
736.17	257.85
736.50	257.42
736.83	257.17
737.16	256.85
737.49	256.51
737.82	256.14
738.15	255.81
738.48	255.44
738.81	255.11
739.14	254.80
739.47	254.49
739.80	254.18
740.13	253.87
740.46	253.56
740.79	253.17
741.12	252.85
741.45	252.56
741.78	252.24
742.11	251.92
742.44	251.59
742.77	251.35
743.10	251.01
743.43	250.72
743.75	250.34
744.08	250.20
744.41	249.94
744.74	249.68
745.07	249.42
745.40	249.21
745.73	248.98
746.06	248.68
746.39	248.44
746.71	248.19
747.04	247.89
747.37	247.61
747.70	247.39
748.03	247.17
748.36	246.92
748.68	246.64
749.01	246.44
749.34	246.23
749.67	245.98
750.00	245.77
750.33	245.64
750.65	245.44
750.98	245.09
751.31	244.86
751.64	244.69
751.97	244.55
752.29	244.30
752.62	244.06
752.95	243.87
753.28	243.66
753.60	243.46
753.93	243.31
754.26	243.12
754.59	242.92
754.91	242.74
755.24	242.57
755.57	242.42
755.90	242.25
756.22	242.04
756.55	241.83
756.88	241.65
757.20	241.42
757.53	241.21
757.86	241.01
758.19	240.84
758.51	240.62
758.84	240.39
759.17	240.21
759.49	240.05
759.82	239.93
760.15	239.80
760.47	239.65
760.80	239.43
761.13	239.32
761.45	239.19
761.78	239.06
762.11	238.90
762.43	238.73
762.76	238.58
763.08	238.46
763.41	238.37
763.74	238.22
764.06	238.09
764.39	237.98
764.71	237.85
765.04	237.71
765.37	237.59
765.69	237.45
766.02	237.33
766.34	237.20
766.67	237.05
767.00	236.93
767.32	236.87
767.65	236.85
767.97	236.71
768.30	236.61
768.62	236.46
768.95	236.35
769.27	236.25
769.60	236.13
769.92	236.00
770.25	235.84
770.57	235.71
770.90	235.59
771.22	235.46
771.55	235.35
771.87	235.26
772.20	235.17
772.52	235.17
772.85	235.20
773.17	235.08
773.50	235.00
773.82	234.87
774.15	234.74
774.47	234.58
774.80	234.48
775.12	234.34
775.45	234.25
775.77	234.15
776.09	234.10
776.42	234.00
776.74	233.92
777.07	233.82
777.39	233.76
777.72	233.68
778.04	233.62
778.36	233.58
778.69	233.50
779.01	233.42
779.33	233.25
779.66	233.05
779.98	233.00
780.31	232.93
780.63	232.89
780.95	232.83
781.28	232.77
781.60	232.67
781.92	232.59
782.25	232.53
782.57	232.47
782.89	232.37
783.22	232.33
783.54	232.29
783.86	232.27
784.19	232.22
784.51	232.21
784.83	232.16
785.16	232.09
785.48	232.06
785.80	232.03
786.12	231.97
786.45	231.95
786.77	231.87
787.09	231.82
787.42	231.77
787.74	231.71
788.06	231.66
788.38	231.68
788.71	231.65
789.03	231.59
789.35	231.58
789.67	231.55
789.99	231.51
790.32	231.45
790.64	231.43
790.96	231.45
791.28	231.36
791.61	231.29
791.93	231.28
792.25	231.24
792.57	231.25
792.89	231.20
793.21	231.15
793.54	231.16
793.86	231.12
794.18	231.08
794.50	231.03
794.82	231.02
795.14	230.97
795.47	230.99
795.79	230.99
796.11	230.93
796.43	230.89
796.75	230.87
797.07	230.86
797.39	230.80
797.71	230.74
798.04	230.70
798.36	230.69
798.68	230.66
799.00	230.62
799.32	230.52
799.64	230.54
799.96	230.53
800.28	230.50
800.60	230.48
800.92	230.47
801.24	230.49
801.56	230.45
801.89	230.41
802.21	230.35
802.53	230.30
802.85	230.28
803.17	230.33
803.49	230.27
803.81	230.25
804.13	230.25
804.45	230.18
804.77	230.23
805.09	230.18
805.41	230.16
805.73	230.13
806.05	230.13
806.37	230.08
806.69	230.05
807.01	230.03
807.33	229.98
807.65	229.90
807.97	229.91
808.28	229.88
808.60	229.89
808.92	229.87
809.24	229.90
809.56	229.88
809.88	229.81
810.20	229.83
810.52	229.82
810.84	229.77
811.16	229.76
811.48	229.69
811.80	229.71
812.12	229.65
812.43	229.63
812.75	229.56
813.07	229.51
813.39	229.51
813.71	229.45
814.03	229.44
814.35	229.44
814.67	229.36
814.98	229.32
815.30	229.26
815.62	229.19
815.94	229.10
816.26	229.11
816.58	229.07
816.89	229.03
817.21	228.98
817.53	228.97
817.85	228.94
818.17	228.91
818.48	228.83
818.80	228.83
819.12	228.79
819.44	228.77
819.76	228.73
820.07	228.69
820.39	228.66
820.71	228.61
821.03	228.58
821.34	228.53
821.66	228.53
821.98	228.54
822.30	228.53
822.61	228.56
822.93	228.50
823.25	228.50
823.57	228.44
823.88	228.42
824.20	228.40
824.52	228.42
824.83	228.37
825.15	228.37
825.47	228.35
825.79	228.36
826.10	228.36
826.42	228.35
826.74	228.33
827.05	228.34
827.37	228.36
827.69	228.30
828.00	228.32
828.32	228.30
828.64	228.28
828.95	228.32
829.27	228.26
829.58	228.23
829.90	228.23
830.22	228.27
830.53	228.31
830.85	228.31
831.17	228.26
831.48	228.29
831.80	228.29
832.11	228.30
832.43	228.27
832.75	228.26
833.06	228.34
833.38	228.35
833.69	228.33
834.01	228.33
834.32	228.37
834.64	228.38
834.96	228.38
835.27	228.38
835.59	228.34
835.90	228.35
836.22	228.37
836.53	228.33
836.85	228.30
837.16	228.37
837.48	228.36
837.79	228.40
838.11	228.42
838.42	228.43
838.74	228.42
839.05	228.42
839.37	228.45
839.68	228.40
840.00	228.37
840.31	228.43
840.63	228.42
840.94	228.41
841.26	228.43
841.57	228.43
841.88	228.45
842.20	228.43
842.51	228.46
842.83	228.42
843.14	228.54
843.46	228.53
843.77	228.44
844.08	228.43
844.40	228.37
844.71	228.35
845.03	228.36
845.34	228.33
845.65	228.32
845.97	228.28
846.28	228.26
846.60	228.25
846.91	228.22
847.22	228.21
847.54	228.20
847.85	228.16
848.16	228.13
848.48	228.09
848.79	228.11
849.10	228.06
849.42	228.06
849.73	227.94
850.04	227.93
850.36	227.89
850.67	227.91
850.98	227.91
851.30	227.89
851.61	227.86
851.92	227.85
852.23	227.88
852.55	227.90
852.86	227.91
853.17	227.93
853.49	227.89
853.80	227.90
854.11	227.92
854.42	227.91
854.74	227.87
855.05	227.86
855.36	227.83
855.67	227.83
855.99	227.82
856.30	227.92
856.61	227.94
856.92	227.91
857.23	227.88
857.55	227.87
857.86	227.85
858.17	227.84
858.48	227.84
858.79	227.80
859.11	227.76
859.42	227.74
859.73	227.70
860.04	227.69
860.35	227.63
860.66	227.58
860.98	227.54
861.29	227.56
861.60	227.53
861.91	227.53
862.22	227.53
862.53	227.51
862.84	227.37
863.16	227.38
863.47	227.36
863.78	227.34
864.09	227.30
864.40	227.30
864.71	227.28
865.02	227.27
865.33	227.27
865.64	227.21
865.95	227.20
866.27	227.29
866.58	227.26
866.89	227.27
867.20	227.25
867.51	227.27
867.82	227.29
868.13	227.31
868.44	227.29
868.75	227.28
869.06	227.26
869.37	227.27
869.68	227.24
869.99	227.21
870.30	227.21
870.61	227.25
870.92	227.22
871.23	227.22
871.54	227.22
871.85	227.22
872.16	227.28
872.47	227.29
872.78	227.22
873.09	227.26
873.40	227.29
873.71	227.34
874.02	227.34
874.33	227.33
874.64	227.31
874.95	227.33
875.26	227.30
875.56	227.32
875.87	227.33
876.18	227.35
876.49	227.47
876.80	227.49
877.11	227.47
877.42	227.50
877.73	227.53
878.04	227.53
878.35	227.55
878.66	227.54
878.96	227.53
879.27	227.51
879.58	227.51
879.89	227.48
880.20	227.47
880.51	227.49
880.82	227.49
881.12	227.53
881.43	227.52
881.74	227.54
882.05	227.54
882.36	227.57
882.67	227.59
882.97	227.51
883.28	227.50
883.59	227.50
883.90	227.53
884.21	227.55
884.51	227.56
884.82	227.51
885.13	227.52
885.44	227.52
885.74	227.53
886.05	227.54
886.36	227.55
886.67	227.52
886.98	227.58
887.28	227.60
887.59	227.59
887.90	227.60
888.20	227.58
888.51	227.63
888.82	227.58
889.13	227.52
889.43	227.59
889.74	227.58
890.05	227.57
890.35	227.56
890.66	227.52
890.97	227.51
891.28	227.51
891.58	227.49
891.89	227.49
892.20	227.47
892.50	227.44
892.81	227.43
893.12	227.41
893.42	227.35
893.73	227.31
894.04	227.31
894.34	227.34
894.65	227.35
894.95	227.28
895.26	227.29
895.57	227.32
895.87	227.23
896.18	227.24
896.48	227.25
896.79	227.21
897.10	227.22
897.40	227.20
897.71	227.21
898.01	227.22
898.32	227.22
898.63	227.24
898.93	227.26
899.24	227.24
899.54	227.23
899.85	227.17
900.15	227.17
900.46	227.18
900.76	227.11
901.07	227.12
901.38	227.15
901.68	227.15
901.99	227.15
902.29	227.11
902.60	227.09
902.90	227.07
903.21	227.03
903.51	227.02
903.82	227.05
904.12	227.04
904.43	227.02
904.73	227.00
905.03	226.98
905.34	227.05
905.64	227.03
905.95	227.01
906.25	227.04
906.56	227.02
906.86	226.98
907.17	226.98
907.47	226.94
907.77	226.95
908.08	226.91
908.38	226.88
908.69	226.90
908.99	226.92
909.30	226.97
909.60	227.01
909.90	227.02
910.21	226.99
910.51	226.98
910.81	226.99
911.12	226.99
911.42	226.98
911.73	226.88
912.03	226.91
912.33	226.97
912.64	226.97
912.94	226.99
913.24	226.99
913.55	227.02
913.85	227.02
914.15	227.02
914.46	227.05
914.76	227.07
915.06	227.07
915.37	227.05
915.67	227.03
915.97	227.04
916.27	227.05
916.58	227.05
916.88	227.03
917.18	227.03
917.49	227.08
917.79	227.10
918.09	227.14
918.39	227.17
918.70	227.15
919.00	227.18
919.30	227.23
919.60	227.26
919.91	227.24
920.21	227.24
920.51	227.23
920.81	227.24
921.12	227.24
921.42	227.25
921.72	227.30
922.02	227.29
922.32	227.31
922.63	227.30
922.93	227.37
923.23	227.38
923.53	227.41
923.83	227.37
924.13	227.37
924.44	227.34
924.74	227.34
925.04	227.36
925.34	227.35
925.64	227.30
925.94	227.28
926.24	227.33
926.55	227.34
926.85	227.35
927.15	227.33
927.45	227.35
927.75	227.35
928.05	227.32
928.35	227.34
928.65	227.35
928.95	227.36
929.26	227.31
929.56	227.33
929.86	227.33
930.16	227.34
930.46	227.32
930.76	227.35
931.06	227.33
931.36	227.30
931.66	227.33
931.96	227.35
932.26	227.38
932.56	227.34
932.86	227.36
933.16	227.36
933.46	227.35
933.76	227.33
934.06	227.34
934.36	227.40
934.66	227.40
934.96	227.38
935.26	227.36
935.56	227.38
935.86	227.37
936.16	227.36
936.46	227.35
936.76	227.34
937.06	227.28
937.36	227.26
937.66	227.27
937.96	227.22
938.26	227.23
938.56	227.17
938.86	227.18
939.16	227.21
939.46	227.23
939.76	227.24
940.06	227.22
940.35	227.21
940.65	227.12
940.95	227.12
941.25	227.08
941.55	227.07
941.85	227.04
942.15	227.07
942.45	227.09
942.75	227.07
943.04	227.12
943.34	227.16
943.64	227.16
943.94	227.13
944.24	227.13
944.54	227.08
944.84	227.11
945.13	227.11
945.43	227.04
945.73	227.03
946.03	227.02
946.33	226.99
946.62	227.00
946.92	227.00
947.22	226.97
947.52	226.98
947.82	227.01
948.11	227.00
948.41	226.94
948.71	226.91
949.01	226.89
949.31	226.85
949.60	226.86
949.90	226.86
950.20	226.89
950.50	226.91
950.79	226.92
951.09	226.93
951.39	226.92
951.69	226.96
951.98	226.98
952.28	226.98
952.58	227.02
952.87	227.00
953.17	227.04
953.47	227.05
953.76	227.03
954.06	226.99
954.36	226.96
954.66	226.99
954.95	227.00
955.25	227.02
955.55	227.03
955.84	226.98
956.14	227.01
956.44	227.01
956.73	227.01
957.03	227.03
957.32	227.01
957.62	227.01
957.92	226.98
958.21	226.95
958.51	227.04
958.81	227.08
959.10	227.11
959.40	227.11
959.69	227.13
959.99	227.18
960.29	227.20
960.58	227.22
960.88	227.24
961.17	227.27
961.47	227.31
961.76	227.29
962.06	227.31
962.36	227.30
962.65	227.29
962.95	227.27
963.24	227.24
963.54	227.28
963.83	227.29
964.13	227.31
964.42	227.30
964.72	227.25
965.01	227.24
965.31	227.20
965.60	227.18
965.90	227.25
966.19	227.20
966.49	227.20
966.78	227.18
967.08	227.18
967.37	227.16
967.67	227.11
967.96	227.15
968.26	227.18
968.55	227.20
968.85	227.22
969.14	227.23
969.43	227.20
969.73	227.15
970.02	227.16
970.32	227.15
970.61	227.17
970.91	227.11
971.20	227.08
971.49	227.10
971.79	227.08
972.08	227.02
972.38	227.05
972.67	227.03
972.96	227.03
973.26	227.00
973.55	227.02
973.85	227.00
974.14	226.98
974.43	226.98
974.73	226.95
975.02	226.93
975.31	226.92
975.61	226.93
975.90	226.91
976.19	226.89
976.49	226.88
976.78	226.85
977.07	226.86
977.37	226.89
977.66	226.88
977.95	226.87
978.24	226.86
978.54	226.87
978.83	226.88
979.12	226.89
979.42	226.90
979.71	226.88
980.00	226.89
980.29	226.87
980.59	226.85
980.88	226.87
981.17	226.88
981.46	226.88
981.76	226.89
982.05	226.94
982.34	226.93
982.63	226.95
982.93	226.97
983.22	227.03
983.51	227.01
983.80	227.03
984.09	227.06
984.39	227.06
984.68	227.02
984.97	227.03
985.26	227.03
985.55	227.06
985.85	227.04
986.14	227.06
986.43	227.11
986.72	227.13
987.01	227.11
987.30	227.11
987.59	227.11
987.89	227.14
988.18	227.10
988.47	227.11
988.76	227.07
989.05	227.02
989.34	226.99
989.63	227.02
989.92	226.99
990.22	226.97
990.51	226.97
990.80	227.01
991.09	226.98
991.38	226.99
991.67	226.96
991.96	226.91
992.25	226.93
992.54	226.88
992.83	226.88
993.12	226.88
993.41	226.91
993.70	226.93
993.99	226.96
994.28	226.97
994.58	226.97
994.87	227.01
995.16	227.03
995.45	227.01
995.74	226.99
996.03	227.02
996.32	227.06
996.61	227.05
996.90	227.06
997.19	227.08
997.48	227.10
997.77	227.09
998.06	227.14
998.34	227.13
998.63	227.11
998.92	227.10
999.21	227.13
999.50	227.14
999.79	227.10
1000.08	227.06
1000.37	227.08
1000.66	227.09
1000.95	227.13
1001.24	227.14
1001.53	227.18
1001.82	227.16
1002.11	227.14
1002.40	227.17
1002.68	227.21
1002.97	227.30
1003.26	227.28
1003.55	227.25
1003.84	227.27
1004.13	227.27
1004.42	227.25
1004.71	227.28
1004.99	227.27
1005.28	227.25
1005.57	227.22
1005.86	227.20
1006.15	227.20
1006.44	227.20
1006.72	227.18
1007.01	227.11
1007.30	227.09
1007.59	227.04
1007.88	227.04
1008.17	227.04
1008.45	226.94
1008.74	226.92
1009.03	226.84
1009.32	226.84
1009.60	226.84
1009.89	226.82
1010.18	226.81
1010.47	226.78
1010.76	226.77
1011.04	226.76
1011.33	226.77
1011.62	226.80
1011.91	226.79
1012.19	226.77
1012.48	226.77
1012.77	226.77
1013.05	226.85
1013.34	226.83
1013.63	226.82
1013.92	226.84
1014.20	226.82
1014.49	226.87
1014.78	226.85
1015.06	226.79
1015.35	226.80
1015.64	226.80
1015.92	226.84
1016.21	226.83
1016.50	226.85
1016.78	226.86
1017.07	226.86
1017.36	226.86
1017.64	226.83
1017.93	226.86
1018.22	226.87
1018.50	226.86
1018.79	226.82
1019.08	226.78
1019.36	226.81
1019.65	226.82
1019.93	226.81
1020.22	226.87
1020.51	226.90
1020.79	226.88
1021.08	226.74
1021.36	226.50
1021.65	226.52
1021.94	227.05
1022.22	226.90
1022.51	226.82
1022.79	226.66
1023.08	227.80
1023.36	227.96
1023.65	226.26
>>>>>End Processed Spectral Data<<<<<
