SpectraSuite Data File
++++++++++++++++++++++++++++++++++++
Date: Fri Feb 01 15:53:36 EST 2013
User: group
Dark Spectrum Present: No
Reference Spectrum Present: No
Number of Sampled Component Spectra: 1
Spectrometers: USB2E7196
Integration Time (usec): 35000 (USB2E7196)
Spectra Averaged: 100 (USB2E7196)
Boxcar Smoothing: 10 (USB2E7196)
Correct for Electrical Dark: No (USB2E7196)
Strobe/Lamp Enabled: No (USB2E7196)
Correct for Detector Non-linearity: No (USB2E7196)
Correct for Stray Light: No (USB2E7196)
Number of Pixels in Processed Spectrum: 2048
>>>>>Begin Processed Spectral Data<<<<<
339.09	0.00
339.48	214.46
339.86	215.88
340.24	217.48
340.63	218.91
341.01	221.86
341.39	221.06
341.78	222.82
342.16	224.22
342.54	224.61
342.93	212.90
343.31	223.67
343.69	224.22
344.07	224.69
344.46	225.12
344.84	225.49
345.22	225.71
345.60	225.99
345.99	226.19
346.37	226.32
346.75	226.41
347.13	226.52
347.52	226.59
347.90	226.67
348.28	226.70
348.66	226.73
349.05	226.71
349.43	226.74
349.81	226.80
350.19	226.84
350.57	226.93
350.96	226.99
351.34	227.07
351.72	227.13
352.10	227.24
352.48	227.31
352.87	227.38
353.25	227.45
353.63	227.50
354.01	227.56
354.39	227.62
354.77	227.69
355.15	227.82
355.54	227.88
355.92	227.92
356.30	228.04
356.68	228.16
357.06	228.22
357.44	228.32
357.82	228.35
358.20	228.44
358.58	228.50
358.97	228.53
359.35	228.63
359.73	228.71
360.11	228.76
360.49	228.85
360.87	228.92
361.25	228.99
361.63	229.07
362.01	229.11
362.39	229.14
362.77	229.19
363.15	229.20
363.53	229.26
363.91	229.29
364.29	229.29
364.67	229.24
365.05	229.26
365.43	229.24
365.81	229.28
366.19	229.32
366.57	229.34
366.95	229.36
367.33	229.30
367.71	229.30
368.09	229.30
368.47	229.25
368.85	229.21
369.23	229.21
369.61	229.16
369.99	229.16
370.37	229.15
370.75	229.19
371.13	229.10
371.51	229.02
371.89	228.99
372.27	228.94
372.65	228.89
373.03	228.85
373.41	228.88
373.78	228.80
374.16	228.70
374.54	228.61
374.92	228.55
375.30	228.51
375.68	228.42
376.06	228.35
376.44	228.30
376.82	228.22
377.19	228.15
377.57	228.10
377.95	228.00
378.33	227.91
378.71	227.78
379.09	227.71
379.47	227.63
379.84	227.56
380.22	227.51
380.60	227.42
380.98	227.35
381.36	227.23
381.73	227.17
382.11	227.10
382.49	227.05
382.87	226.99
383.25	226.96
383.62	227.03
384.00	226.98
384.38	226.90
384.76	226.89
385.13	226.87
385.51	226.76
385.89	226.72
386.27	226.70
386.64	226.65
387.02	226.65
387.40	226.63
387.78	226.59
388.15	226.54
388.53	226.51
388.91	226.49
389.29	226.46
389.66	226.45
390.04	226.45
390.42	226.47
390.79	226.43
391.17	226.37
391.55	226.24
391.92	226.19
392.30	226.20
392.68	226.16
393.05	226.14
393.43	226.20
393.81	226.24
394.18	226.21
394.56	226.26
394.94	226.27
395.31	226.27
395.69	226.34
396.06	226.36
396.44	226.41
396.82	226.44
397.19	226.53
397.57	226.54
397.95	226.59
398.32	226.59
398.70	226.70
399.07	226.78
399.45	226.85
399.82	226.93
400.20	226.97
400.58	227.07
400.95	227.12
401.33	227.23
401.70	227.34
402.08	227.42
402.45	227.49
402.83	227.64
403.20	227.74
403.58	227.82
403.95	227.96
404.33	228.10
404.71	228.20
405.08	228.38
405.46	228.52
405.83	228.63
406.21	228.79
406.58	228.90
406.96	229.08
407.33	229.25
407.70	229.48
408.08	229.76
408.45	229.96
408.83	230.18
409.20	230.36
409.58	230.57
409.95	230.86
410.33	231.12
410.70	231.33
411.08	231.58
411.45	231.88
411.82	232.18
412.20	232.53
412.57	232.95
412.95	233.25
413.32	233.67
413.69	234.11
414.07	234.52
414.44	234.99
414.82	235.46
415.19	236.02
415.56	236.52
415.94	237.05
416.31	237.72
416.68	238.33
417.06	239.07
417.43	239.75
417.81	240.50
418.18	241.29
418.55	242.18
418.93	243.10
419.30	244.01
419.67	244.93
420.04	245.87
420.42	246.90
420.79	248.07
421.16	249.23
421.54	250.40
421.91	251.63
422.28	252.89
422.66	254.22
423.03	255.55
423.40	256.90
423.77	258.33
424.15	259.71
424.52	261.25
424.89	262.85
425.26	264.35
425.64	265.81
426.01	267.41
426.38	269.03
426.75	270.71
427.13	272.41
427.50	274.23
427.87	276.14
428.24	277.98
428.61	279.73
428.99	281.64
429.36	283.74
429.73	285.83
430.10	287.90
430.47	289.91
430.85	291.97
431.22	294.22
431.59	296.56
431.96	298.81
432.33	301.33
432.70	303.64
433.08	306.48
433.45	309.12
433.82	311.67
434.19	314.55
434.56	317.34
434.93	320.02
435.30	322.67
435.68	325.51
436.05	328.30
436.42	331.04
436.79	333.57
437.16	336.30
437.53	339.08
437.90	341.85
438.27	344.65
438.64	347.47
439.01	350.06
439.38	352.30
439.75	354.50
440.13	356.95
440.50	359.35
440.87	361.20
441.24	363.11
441.61	365.29
441.98	366.79
442.35	368.59
442.72	370.43
443.09	372.20
443.46	373.21
443.83	373.86
444.20	374.39
444.57	375.22
444.94	375.47
445.31	375.85
445.68	376.21
446.05	376.23
446.42	375.85
446.79	375.41
447.16	375.00
447.53	374.65
447.90	373.47
448.27	372.28
448.64	370.67
449.01	369.56
449.37	367.66
449.74	365.75
450.11	363.50
450.48	361.03
450.85	358.49
451.22	356.32
451.59	354.27
451.96	352.34
452.33	349.72
452.70	347.37
453.07	344.55
453.43	341.64
453.80	338.94
454.17	336.26
454.54	333.73
454.91	330.96
455.28	328.28
455.65	325.79
456.02	323.37
456.38	321.24
456.75	318.57
457.12	316.27
457.49	314.04
457.86	311.91
458.23	310.05
458.59	308.01
458.96	305.94
459.33	304.07
459.70	302.22
460.07	300.72
460.43	298.98
460.80	297.36
461.17	295.94
461.54	294.39
461.91	292.99
462.27	291.52
462.64	290.29
463.01	288.96
463.38	287.67
463.74	286.29
464.11	285.13
464.48	284.07
464.85	282.95
465.21	282.10
465.58	281.15
465.95	280.05
466.32	279.17
466.68	278.25
467.05	277.36
467.42	276.49
467.78	275.57
468.15	274.72
468.52	274.01
468.88	273.15
469.25	272.40
469.62	271.78
469.98	271.14
470.35	270.50
470.72	269.89
471.08	269.24
471.45	268.69
471.82	268.13
472.18	267.60
472.55	267.17
472.92	266.65
473.28	266.19
473.65	265.78
474.02	265.32
474.38	264.98
474.75	264.68
475.11	264.32
475.48	264.07
475.85	263.86
476.21	263.62
476.58	263.44
476.94	263.33
477.31	263.15
477.67	263.00
478.04	262.91
478.41	262.86
478.77	262.93
479.14	262.89
479.50	262.91
479.87	262.97
480.23	263.08
480.60	263.16
480.96	263.28
481.33	263.50
481.69	263.73
482.06	263.93
482.42	264.15
482.79	264.41
483.15	264.74
483.52	265.14
483.88	265.55
484.25	265.93
484.61	266.32
484.98	266.82
485.34	267.42
485.71	268.01
486.07	268.62
486.44	269.19
486.80	269.90
487.17	270.65
487.53	271.50
487.90	272.30
488.26	273.26
488.62	274.29
488.99	275.21
489.35	276.27
489.72	277.39
490.08	278.56
490.44	279.78
490.81	281.08
491.17	282.41
491.54	283.89
491.90	285.44
492.26	287.09
492.63	288.82
492.99	290.55
493.36	292.47
493.72	294.52
494.08	296.64
494.45	298.91
494.81	301.27
495.17	303.68
495.54	306.30
495.90	308.95
496.26	311.71
496.63	314.70
496.99	317.82
497.35	321.08
497.72	324.50
498.08	328.06
498.44	331.74
498.80	335.64
499.17	339.62
499.53	343.83
499.89	348.22
500.26	352.71
500.62	357.38
500.98	362.36
501.34	367.42
501.71	372.76
502.07	378.16
502.43	383.74
502.79	389.55
503.16	395.62
503.52	401.90
503.88	408.31
504.24	414.99
504.60	421.93
504.97	429.05
505.33	436.43
505.69	444.11
506.05	451.88
506.41	459.77
506.78	468.00
507.14	476.39
507.50	485.10
507.86	494.09
508.22	503.36
508.59	512.53
508.95	522.15
509.31	531.94
509.67	542.09
510.03	552.37
510.39	562.95
510.75	573.70
511.12	584.64
511.48	595.93
511.84	607.26
512.20	618.70
512.56	630.69
512.92	642.83
513.28	655.18
513.64	667.72
514.00	680.47
514.37	693.36
514.73	706.41
515.09	719.51
515.45	732.87
515.81	746.41
516.17	760.38
516.53	774.39
516.89	788.54
517.25	802.68
517.61	817.14
517.97	831.63
518.33	846.05
518.69	860.77
519.05	875.76
519.41	890.99
519.77	906.58
520.13	921.95
520.49	937.28
520.85	952.72
521.21	968.45
521.57	984.73
521.93	1000.48
522.29	1016.80
522.65	1032.91
523.01	1049.18
523.37	1065.18
523.73	1081.37
524.09	1097.45
524.45	1113.84
524.81	1130.54
525.17	1147.28
525.53	1164.13
525.89	1180.96
526.25	1197.88
526.61	1214.21
526.97	1231.05
527.33	1247.52
527.68	1264.17
528.04	1280.72
528.40	1297.29
528.76	1314.20
529.12	1330.71
529.48	1347.61
529.84	1363.76
530.20	1380.47
530.56	1397.41
530.91	1414.83
531.27	1431.48
531.63	1447.98
531.99	1464.49
532.35	1480.27
532.71	1496.11
533.07	1512.27
533.42	1528.15
533.78	1544.04
534.14	1560.38
534.50	1575.50
534.86	1591.29
535.21	1606.39
535.57	1622.38
535.93	1637.78
536.29	1652.66
536.65	1667.70
537.00	1682.41
537.36	1697.65
537.72	1712.14
538.08	1726.37
538.44	1740.21
538.79	1754.08
539.15	1767.63
539.51	1781.34
539.87	1795.67
540.22	1809.42
540.58	1823.25
540.94	1836.59
541.29	1849.49
541.65	1862.09
542.01	1875.42
542.37	1887.78
542.72	1900.16
543.08	1911.76
543.44	1924.23
543.79	1935.42
544.15	1946.29
544.51	1957.76
544.87	1968.70
545.22	1979.55
545.58	1989.80
545.94	1999.49
546.29	2009.43
546.65	2019.37
547.01	2028.59
547.36	2037.30
547.72	2045.74
548.07	2053.53
548.43	2061.69
548.79	2069.85
549.14	2077.27
549.50	2084.51
549.86	2092.12
550.21	2099.38
550.57	2106.56
550.92	2113.13
551.28	2120.21
551.64	2127.35
551.99	2133.85
552.35	2139.99
552.70	2146.00
553.06	2152.12
553.41	2158.36
553.77	2164.18
554.13	2170.28
554.48	2176.47
554.84	2181.80
555.19	2187.13
555.55	2192.33
555.90	2196.79
556.26	2201.52
556.61	2206.38
556.97	2210.65
557.32	2214.77
557.68	2218.94
558.03	2223.24
558.39	2226.88
558.74	2231.47
559.10	2235.19
559.45	2238.91
559.81	2243.27
560.16	2247.12
560.52	2250.23
560.87	2253.81
561.23	2256.57
561.58	2259.58
561.94	2261.96
562.29	2264.37
562.64	2266.96
563.00	2269.50
563.35	2272.95
563.71	2276.09
564.06	2279.30
564.42	2282.15
564.77	2284.65
565.12	2286.93
565.48	2288.90
565.83	2290.71
566.19	2291.97
566.54	2292.99
566.89	2294.23
567.25	2294.70
567.60	2295.96
567.96	2297.72
568.31	2298.47
568.66	2299.63
569.02	2300.19
569.37	2300.52
569.72	2301.51
570.08	2301.65
570.43	2301.81
570.78	2301.25
571.14	2299.80
571.49	2298.36
571.84	2298.18
572.20	2296.95
572.55	2295.99
572.90	2294.36
573.26	2293.04
573.61	2291.40
573.96	2289.60
574.31	2286.53
574.67	2283.58
575.02	2280.02
575.37	2276.49
575.72	2272.59
576.08	2269.36
576.43	2265.90
576.78	2262.35
577.13	2259.26
577.49	2256.13
577.84	2252.48
578.19	2248.81
578.54	2245.10
578.90	2240.93
579.25	2235.31
579.60	2230.45
579.95	2225.37
580.30	2220.43
580.66	2215.29
581.01	2210.39
581.36	2205.60
581.71	2201.43
582.06	2196.99
582.42	2192.55
582.77	2187.52
583.12	2183.20
583.47	2178.37
583.82	2173.50
584.17	2168.27
584.53	2162.58
584.88	2157.01
585.23	2151.25
585.58	2145.78
585.93	2140.37
586.28	2135.63
586.63	2130.54
586.98	2125.52
587.34	2120.82
587.69	2115.81
588.04	2110.43
588.39	2104.75
588.74	2098.15
589.09	2092.10
589.44	2085.24
589.79	2079.24
590.14	2073.54
590.49	2066.81
590.84	2060.47
591.19	2054.45
591.54	2047.88
591.89	2040.55
592.25	2033.82
592.60	2026.71
592.95	2019.18
593.30	2011.71
593.65	2004.14
594.00	1997.15
594.35	1989.83
594.70	1981.77
595.05	1974.64
595.40	1967.46
595.75	1959.87
596.10	1953.68
596.45	1946.92
596.80	1940.79
597.15	1934.05
597.50	1926.79
597.85	1920.36
598.19	1913.64
598.54	1906.42
598.89	1899.77
599.24	1894.01
599.59	1887.23
599.94	1880.99
600.29	1874.66
600.64	1868.20
600.99	1860.82
601.34	1853.88
601.69	1846.98
602.04	1840.12
602.39	1832.62
602.74	1825.69
603.08	1818.93
603.43	1812.28
603.78	1804.94
604.13	1797.72
604.48	1790.49
604.83	1783.71
605.18	1776.62
605.53	1768.57
605.87	1760.64
606.22	1753.51
606.57	1745.48
606.92	1738.21
607.27	1731.01
607.62	1723.93
607.96	1716.61
608.31	1709.84
608.66	1702.19
609.01	1694.60
609.36	1687.09
609.70	1679.14
610.05	1671.18
610.40	1663.50
610.75	1655.10
611.10	1647.40
611.44	1638.94
611.79	1631.03
612.14	1622.33
612.49	1613.30
612.83	1605.04
613.18	1596.95
613.53	1588.74
613.88	1580.18
614.22	1571.92
614.57	1563.39
614.92	1555.43
615.27	1547.91
615.61	1539.59
615.96	1531.67
616.31	1524.09
616.65	1516.68
617.00	1509.12
617.35	1501.40
617.70	1493.09
618.04	1484.61
618.39	1476.42
618.74	1468.82
619.08	1460.48
619.43	1452.99
619.78	1446.05
620.12	1438.77
620.47	1431.24
620.82	1423.17
621.16	1415.96
621.51	1408.34
621.85	1400.64
622.20	1392.15
622.55	1383.74
622.89	1375.89
623.24	1368.36
623.59	1360.95
623.93	1353.43
624.28	1346.23
624.62	1338.72
624.97	1331.68
625.32	1325.01
625.66	1318.04
626.01	1310.96
626.35	1303.40
626.70	1295.65
627.04	1287.95
627.39	1280.24
627.73	1272.73
628.08	1265.80
628.43	1258.32
628.77	1250.93
629.12	1243.45
629.46	1236.26
629.81	1228.82
630.15	1221.63
630.50	1214.13
630.84	1205.92
631.19	1198.06
631.53	1190.52
631.88	1182.97
632.22	1175.24
632.57	1167.79
632.91	1160.20
633.26	1152.70
633.60	1145.45
633.95	1138.36
634.29	1131.29
634.64	1124.60
634.98	1117.22
635.32	1110.10
635.67	1103.60
636.01	1096.96
636.36	1090.10
636.70	1083.63
637.05	1077.07
637.39	1070.61
637.73	1064.02
638.08	1058.16
638.42	1052.12
638.77	1045.75
639.11	1039.11
639.45	1032.65
639.80	1025.96
640.14	1019.49
640.49	1012.92
640.83	1006.58
641.17	1000.30
641.52	993.99
641.86	987.50
642.20	981.68
642.55	975.34
642.89	968.73
643.23	962.15
643.58	956.36
643.92	950.06
644.26	943.95
644.61	937.94
644.95	931.88
645.29	925.25
645.64	918.48
645.98	912.10
646.32	906.31
646.66	900.33
647.01	894.57
647.35	888.87
647.69	883.06
648.04	877.53
648.38	871.71
648.72	865.66
649.06	859.62
649.41	853.72
649.75	847.80
650.09	841.89
650.43	836.14
650.78	830.07
651.12	824.11
651.46	818.40
651.80	812.62
652.14	807.30
652.49	801.91
652.83	796.75
653.17	790.98
653.51	785.25
653.85	779.94
654.20	774.28
654.54	768.28
654.88	762.61
655.22	756.72
655.56	751.07
655.90	745.63
656.25	740.39
656.59	735.09
656.93	729.96
657.27	724.77
657.61	719.37
657.95	714.25
658.29	709.19
658.64	704.01
658.98	698.77
659.32	693.30
659.66	688.06
660.00	682.70
660.34	677.85
660.68	672.92
661.02	667.77
661.36	663.12
661.70	658.66
662.05	654.22
662.39	649.97
662.73	645.50
663.07	641.14
663.41	636.70
663.75	632.17
664.09	627.64
664.43	623.25
664.77	619.13
665.11	614.86
665.45	610.73
665.79	606.65
666.13	602.39
666.47	598.35
666.81	594.24
667.15	590.21
667.49	586.31
667.83	582.61
668.17	578.71
668.51	574.59
668.85	570.58
669.19	566.84
669.53	562.92
669.87	559.03
670.21	555.32
670.55	551.70
670.89	548.33
671.23	544.87
671.57	541.40
671.91	537.85
672.25	534.35
672.58	530.90
672.92	527.52
673.26	524.44
673.60	521.29
673.94	518.14
674.28	515.24
674.62	512.26
674.96	509.05
675.30	506.17
675.64	503.25
675.97	500.46
676.31	497.56
676.65	494.63
676.99	491.97
677.33	489.11
677.67	486.27
678.01	483.22
678.34	480.24
678.68	477.36
679.02	474.53
679.36	471.78
679.70	468.97
680.04	466.15
680.37	463.20
680.71	460.37
681.05	457.77
681.39	455.01
681.73	452.31
682.06	449.83
682.40	447.28
682.74	444.76
683.08	442.23
683.42	439.63
683.75	437.14
684.09	434.60
684.43	432.12
684.77	429.67
685.10	427.28
685.44	424.98
685.78	422.66
686.12	420.39
686.45	418.07
686.79	415.76
687.13	413.59
687.46	411.43
687.80	409.29
688.14	407.08
688.48	405.00
688.81	402.77
689.15	400.58
689.49	398.42
689.82	396.33
690.16	394.21
690.50	392.22
690.83	390.30
691.17	388.29
691.51	386.37
691.84	384.49
692.18	382.58
692.52	380.61
692.85	378.70
693.19	376.87
693.52	375.05
693.86	373.27
694.20	371.49
694.53	369.75
694.87	367.89
695.21	366.08
695.54	364.27
695.88	362.58
696.21	360.85
696.55	359.16
696.88	357.47
697.22	355.84
697.56	354.23
697.89	352.59
698.23	350.96
698.56	349.34
698.90	347.76
699.23	346.12
699.57	344.58
699.90	343.04
700.24	341.45
700.58	339.95
700.91	338.47
701.25	337.01
701.58	335.66
701.92	334.36
702.25	333.02
702.59	331.65
702.92	330.34
703.26	329.05
703.59	327.76
703.93	326.62
704.26	325.40
704.60	324.13
704.93	322.86
705.26	321.65
705.60	320.51
705.93	319.35
706.27	318.29
706.60	317.23
706.94	316.18
707.27	315.08
707.61	314.02
707.94	313.02
708.27	311.97
708.61	310.89
708.94	309.85
709.28	308.90
709.61	307.97
709.94	307.03
710.28	306.00
710.61	305.06
710.95	303.98
711.28	303.07
711.61	302.13
711.95	301.23
712.28	300.30
712.61	299.33
712.95	298.40
713.28	297.56
713.61	296.68
713.95	295.76
714.28	294.94
714.61	294.07
714.95	293.19
715.28	292.29
715.61	291.41
715.95	290.55
716.28	289.70
716.61	288.87
716.95	288.05
717.28	287.30
717.61	286.54
717.94	285.79
718.28	284.95
718.61	284.21
718.94	283.48
719.27	282.77
719.61	282.15
719.94	281.49
720.27	280.77
720.60	280.03
720.94	279.35
721.27	278.78
721.60	278.18
721.93	277.57
722.27	277.02
722.60	276.47
722.93	275.87
723.26	275.32
723.59	274.74
723.93	274.18
724.26	273.64
724.59	273.05
724.92	272.52
725.25	272.01
725.59	271.50
725.92	270.98
726.25	270.46
726.58	269.93
726.91	269.41
727.24	268.94
727.57	268.47
727.91	267.99
728.24	267.48
728.57	267.00
728.90	266.55
729.23	266.09
729.56	265.60
729.89	265.17
730.22	264.68
730.55	264.23
730.89	263.77
731.22	263.27
731.55	262.84
731.88	262.41
732.21	261.98
732.54	261.53
732.87	261.09
733.20	260.71
733.53	260.32
733.86	259.96
734.19	259.54
734.52	259.18
734.85	258.88
735.18	258.46
735.51	258.08
735.84	257.70
736.17	257.35
736.50	256.99
736.83	256.73
737.16	256.38
737.49	256.00
737.82	255.68
738.15	255.43
738.48	255.08
738.81	254.74
739.14	254.40
739.47	254.11
739.80	253.82
740.13	253.53
740.46	253.20
740.79	252.86
741.12	252.57
741.45	252.30
741.78	251.97
742.11	251.73
742.44	251.42
742.77	251.19
743.10	250.89
743.43	250.60
743.75	250.24
744.08	250.10
744.41	249.87
744.74	249.58
745.07	249.29
745.40	249.07
745.73	248.86
746.06	248.61
746.39	248.34
746.71	248.08
747.04	247.79
747.37	247.54
747.70	247.33
748.03	247.10
748.36	246.86
748.68	246.60
749.01	246.34
749.34	246.14
749.67	245.87
750.00	245.67
750.33	245.53
750.65	245.30
750.98	244.98
751.31	244.77
751.64	244.57
751.97	244.40
752.29	244.17
752.62	243.91
752.95	243.71
753.28	243.51
753.60	243.31
753.93	243.16
754.26	242.97
754.59	242.73
754.91	242.51
755.24	242.32
755.57	242.16
755.90	241.93
756.22	241.75
756.55	241.57
756.88	241.33
757.20	241.07
757.53	240.88
757.86	240.70
758.19	240.53
758.51	240.34
758.84	240.12
759.17	239.94
759.49	239.79
759.82	239.68
760.15	239.48
760.47	239.32
760.80	239.13
761.13	238.99
761.45	238.81
761.78	238.68
762.11	238.50
762.43	238.33
762.76	238.20
763.08	238.03
763.41	237.89
763.74	237.77
764.06	237.65
764.39	237.51
764.71	237.39
765.04	237.23
765.37	237.10
765.69	236.94
766.02	236.84
766.34	236.68
766.67	236.53
767.00	236.45
767.32	236.39
767.65	236.35
767.97	236.20
768.30	236.11
768.62	235.97
768.95	235.84
769.27	235.71
769.60	235.65
769.92	235.54
770.25	235.40
770.57	235.28
770.90	235.16
771.22	235.03
771.55	234.91
771.87	234.84
772.20	234.71
772.52	234.70
772.85	234.70
773.17	234.64
773.50	234.52
773.82	234.42
774.15	234.28
774.47	234.07
774.80	233.98
775.12	233.90
775.45	233.83
775.77	233.80
776.09	233.73
776.42	233.65
776.74	233.59
777.07	233.53
777.39	233.44
777.72	233.35
778.04	233.29
778.36	233.22
778.69	233.14
779.01	233.11
779.33	232.94
779.66	232.77
779.98	232.65
780.31	232.64
780.63	232.60
780.95	232.55
781.28	232.48
781.60	232.41
781.92	232.38
782.25	232.30
782.57	232.22
782.89	232.15
783.22	232.08
783.54	232.03
783.86	231.95
784.19	231.89
784.51	231.86
784.83	231.78
785.16	231.72
785.48	231.68
785.80	231.64
786.12	231.63
786.45	231.57
786.77	231.56
787.09	231.49
787.42	231.41
787.74	231.39
788.06	231.40
788.38	231.38
788.71	231.29
789.03	231.26
789.35	231.23
789.67	231.18
789.99	231.13
790.32	231.09
790.64	231.07
790.96	231.10
791.28	231.06
791.61	231.06
791.93	231.03
792.25	230.99
792.57	231.04
792.89	230.99
793.21	230.96
793.54	230.93
793.86	230.88
794.18	230.86
794.50	230.76
794.82	230.71
795.14	230.65
795.47	230.62
795.79	230.59
796.11	230.52
796.43	230.50
796.75	230.49
797.07	230.43
797.39	230.39
797.71	230.32
798.04	230.28
798.36	230.23
798.68	230.19
799.00	230.18
799.32	230.09
799.64	230.08
799.96	230.06
800.28	230.03
800.60	229.97
800.92	229.92
801.24	229.91
801.56	229.88
801.89	229.85
802.21	229.84
802.53	229.79
802.85	229.81
803.17	229.82
803.49	229.76
803.81	229.71
804.13	229.67
804.45	229.60
804.77	229.60
805.09	229.56
805.41	229.52
805.73	229.47
806.05	229.40
806.37	229.37
806.69	229.33
807.01	229.25
807.33	229.25
807.65	229.20
807.97	229.22
808.28	229.17
808.60	229.18
808.92	229.12
809.24	229.14
809.56	229.08
809.88	228.99
810.20	228.95
810.52	228.99
810.84	228.98
811.16	228.95
811.48	228.90
811.80	228.86
812.12	228.83
812.43	228.81
812.75	228.77
813.07	228.73
813.39	228.71
813.71	228.74
814.03	228.71
814.35	228.72
814.67	228.64
814.98	228.62
815.30	228.56
815.62	228.51
815.94	228.44
816.26	228.46
816.58	228.45
816.89	228.47
817.21	228.41
817.53	228.38
817.85	228.35
818.17	228.34
818.48	228.35
818.80	228.34
819.12	228.32
819.44	228.32
819.76	228.29
820.07	228.27
820.39	228.19
820.71	228.18
821.03	228.16
821.34	228.14
821.66	228.14
821.98	228.18
822.30	228.17
822.61	228.24
822.93	228.19
823.25	228.17
823.57	228.14
823.88	228.16
824.20	228.15
824.52	228.19
824.83	228.19
825.15	228.15
825.47	228.14
825.79	228.11
826.10	228.10
826.42	228.11
826.74	228.10
827.05	228.14
827.37	228.11
827.69	228.09
828.00	228.10
828.32	228.11
828.64	228.09
828.95	228.16
829.27	228.12
829.58	228.11
829.90	228.14
830.22	228.13
830.53	228.06
830.85	228.06
831.17	228.02
831.48	228.01
831.80	228.00
832.11	228.02
832.43	228.01
832.75	228.03
833.06	228.08
833.38	228.08
833.69	228.08
834.01	228.09
834.32	228.09
834.64	228.05
834.96	228.02
835.27	227.99
835.59	227.96
835.90	227.94
836.22	227.95
836.53	227.91
836.85	227.91
837.16	228.04
837.48	228.04
837.79	228.07
838.11	228.06
838.42	228.06
838.74	228.09
839.05	228.08
839.37	228.05
839.68	228.00
840.00	227.97
840.31	227.97
840.63	227.94
840.94	227.91
841.26	227.91
841.57	227.91
841.88	227.89
842.20	227.86
842.51	227.81
842.83	227.76
843.14	227.84
843.46	227.82
843.77	227.71
844.08	227.71
844.40	227.68
844.71	227.63
845.03	227.60
845.34	227.57
845.65	227.54
845.97	227.53
846.28	227.52
846.60	227.53
846.91	227.52
847.22	227.51
847.54	227.54
847.85	227.54
848.16	227.51
848.48	227.52
848.79	227.53
849.10	227.57
849.42	227.57
849.73	227.48
850.04	227.49
850.36	227.47
850.67	227.45
850.98	227.45
851.30	227.45
851.61	227.42
851.92	227.38
852.23	227.41
852.55	227.41
852.86	227.41
853.17	227.39
853.49	227.36
853.80	227.37
854.11	227.37
854.42	227.38
854.74	227.37
855.05	227.36
855.36	227.26
855.67	227.23
855.99	227.22
856.30	227.31
856.61	227.31
856.92	227.29
857.23	227.29
857.55	227.28
857.86	227.27
858.17	227.29
858.48	227.28
858.79	227.25
859.11	227.23
859.42	227.22
859.73	227.19
860.04	227.17
860.35	227.14
860.66	227.08
860.98	227.06
861.29	227.08
861.60	227.08
861.91	227.15
862.22	227.15
862.53	227.17
862.84	227.06
863.16	227.06
863.47	227.03
863.78	227.04
864.09	227.04
864.40	227.07
864.71	227.08
865.02	227.09
865.33	227.07
865.64	227.07
865.95	227.08
866.27	227.16
866.58	227.19
866.89	227.23
867.20	227.20
867.51	227.21
867.82	227.21
868.13	227.23
868.44	227.18
868.75	227.20
869.06	227.19
869.37	227.18
869.68	227.18
869.99	227.22
870.30	227.20
870.61	227.21
870.92	227.18
871.23	227.15
871.54	227.19
871.85	227.23
872.16	227.22
872.47	227.21
872.78	227.13
873.09	227.15
873.40	227.13
873.71	227.16
874.02	227.17
874.33	227.15
874.64	227.15
874.95	227.19
875.26	227.17
875.56	227.16
875.87	227.16
876.18	227.14
876.49	227.25
876.80	227.23
877.11	227.23
877.42	227.25
877.73	227.23
878.04	227.21
878.35	227.21
878.66	227.24
878.96	227.26
879.27	227.27
879.58	227.26
879.89	227.29
880.20	227.32
880.51	227.34
880.82	227.36
881.12	227.37
881.43	227.37
881.74	227.39
882.05	227.41
882.36	227.42
882.67	227.41
882.97	227.28
883.28	227.27
883.59	227.26
883.90	227.26
884.21	227.30
884.51	227.28
884.82	227.24
885.13	227.23
885.44	227.21
885.74	227.19
886.05	227.17
886.36	227.11
886.67	227.07
886.98	227.08
887.28	227.10
887.59	227.07
887.90	227.02
888.20	227.01
888.51	227.00
888.82	226.99
889.13	227.02
889.43	227.12
889.74	227.08
890.05	227.06
890.35	227.06
890.66	227.04
890.97	227.01
891.28	227.01
891.58	227.02
891.89	226.99
892.20	226.97
892.50	226.94
892.81	226.95
893.12	226.95
893.42	226.89
893.73	226.85
894.04	226.84
894.34	226.85
894.65	226.86
894.95	226.82
895.26	226.82
895.57	226.87
895.87	226.73
896.18	226.80
896.48	226.80
896.79	226.80
897.10	226.81
897.40	226.82
897.71	226.81
898.01	226.81
898.32	226.83
898.63	226.84
898.93	226.84
899.24	226.83
899.54	226.84
899.85	226.84
900.15	226.84
900.46	226.84
900.76	226.88
901.07	226.83
901.38	226.84
901.68	226.84
901.99	226.80
902.29	226.81
902.60	226.81
902.90	226.82
903.21	226.82
903.51	226.83
903.82	226.85
904.12	226.87
904.43	226.87
904.73	226.87
905.03	226.89
905.34	227.01
905.64	227.02
905.95	226.99
906.25	227.00
906.56	227.03
906.86	227.03
907.17	227.02
907.47	227.08
907.77	227.07
908.08	227.03
908.38	227.04
908.69	227.08
908.99	227.08
909.30	227.12
909.60	227.12
909.90	227.11
910.21	227.09
910.51	227.10
910.81	227.11
911.12	227.11
911.42	227.09
911.73	227.02
912.03	227.06
912.33	227.11
912.64	227.12
912.94	227.11
913.24	227.08
913.55	227.06
913.85	227.04
914.15	227.08
914.46	227.11
914.76	227.10
915.06	227.10
915.37	227.11
915.67	227.06
915.97	227.08
916.27	227.10
916.58	227.10
916.88	227.07
917.18	227.02
917.49	227.11
917.79	227.09
918.09	227.08
918.39	227.07
918.70	227.03
919.00	227.05
919.30	227.10
919.60	227.13
919.91	227.12
920.21	227.13
920.51	227.11
920.81	227.10
921.12	227.09
921.42	227.05
921.72	227.04
922.02	227.04
922.32	227.04
922.63	227.00
922.93	227.03
923.23	227.04
923.53	227.04
923.83	226.96
924.13	226.99
924.44	226.98
924.74	226.99
925.04	226.99
925.34	226.96
925.64	226.90
925.94	226.90
926.24	226.93
926.55	226.91
926.85	226.93
927.15	226.93
927.45	226.92
927.75	226.93
928.05	226.93
928.35	226.93
928.65	226.93
928.95	226.94
929.26	226.92
929.56	226.95
929.86	226.98
930.16	226.97
930.46	226.97
930.76	226.95
931.06	226.94
931.36	226.93
931.66	226.93
931.96	226.93
932.26	226.91
932.56	226.89
932.86	226.94
933.16	226.92
933.46	226.92
933.76	226.90
934.06	226.95
934.36	226.98
934.66	226.98
934.96	227.01
935.26	227.02
935.56	227.05
935.86	227.02
936.16	227.02
936.46	227.01
936.76	227.02
937.06	226.99
937.36	226.98
937.66	226.97
937.96	226.95
938.26	226.92
938.56	226.92
938.86	226.91
939.16	226.91
939.46	226.92
939.76	226.93
940.06	226.94
940.35	226.90
940.65	226.84
940.95	226.85
941.25	226.78
941.55	226.74
941.85	226.73
942.15	226.72
942.45	226.73
942.75	226.73
943.04	226.73
943.34	226.77
943.64	226.75
943.94	226.78
944.24	226.79
944.54	226.81
944.84	226.82
945.13	226.79
945.43	226.77
945.73	226.76
946.03	226.74
946.33	226.74
946.62	226.71
946.92	226.73
947.22	226.74
947.52	226.72
947.82	226.76
948.11	226.71
948.41	226.70
948.71	226.66
949.01	226.64
949.31	226.59
949.60	226.55
949.90	226.57
950.20	226.53
950.50	226.52
950.79	226.54
951.09	226.55
951.39	226.55
951.69	226.49
951.98	226.49
952.28	226.47
952.58	226.47
952.87	226.46
953.17	226.45
953.47	226.42
953.76	226.45
954.06	226.42
954.36	226.42
954.66	226.45
954.95	226.46
955.25	226.51
955.55	226.55
955.84	226.57
956.14	226.57
956.44	226.58
956.73	226.59
957.03	226.56
957.32	226.55
957.62	226.55
957.92	226.58
958.21	226.57
958.51	226.69
958.81	226.67
959.10	226.71
959.40	226.71
959.69	226.71
959.99	226.72
960.29	226.75
960.58	226.73
960.88	226.71
961.17	226.70
961.47	226.68
961.76	226.70
962.06	226.69
962.36	226.69
962.65	226.69
962.95	226.68
963.24	226.67
963.54	226.69
963.83	226.71
964.13	226.71
964.42	226.68
964.72	226.61
965.01	226.61
965.31	226.59
965.60	226.57
965.90	226.64
966.19	226.61
966.49	226.60
966.78	226.63
967.08	226.63
967.37	226.65
967.67	226.65
967.96	226.60
968.26	226.61
968.55	226.61
968.85	226.63
969.14	226.61
969.43	226.62
969.73	226.61
970.02	226.58
970.32	226.58
970.61	226.58
970.91	226.55
971.20	226.53
971.49	226.51
971.79	226.56
972.08	226.53
972.38	226.54
972.67	226.54
972.96	226.53
973.26	226.48
973.55	226.51
973.85	226.49
974.14	226.49
974.43	226.46
974.73	226.47
975.02	226.43
975.31	226.45
975.61	226.45
975.90	226.42
976.19	226.43
976.49	226.40
976.78	226.41
977.07	226.40
977.37	226.41
977.66	226.44
977.95	226.38
978.24	226.38
978.54	226.37
978.83	226.35
979.12	226.34
979.42	226.40
979.71	226.37
980.00	226.40
980.29	226.42
980.59	226.39
980.88	226.43
981.17	226.43
981.46	226.45
981.76	226.43
982.05	226.47
982.34	226.48
982.63	226.50
982.93	226.52
983.22	226.56
983.51	226.54
983.80	226.55
984.09	226.58
984.39	226.54
984.68	226.54
984.97	226.57
985.26	226.56
985.55	226.50
985.85	226.52
986.14	226.49
986.43	226.52
986.72	226.57
987.01	226.53
987.30	226.56
987.59	226.54
987.89	226.56
988.18	226.52
988.47	226.54
988.76	226.49
989.05	226.50
989.34	226.52
989.63	226.57
989.92	226.54
990.22	226.56
990.51	226.60
990.80	226.59
991.09	226.60
991.38	226.64
991.67	226.65
991.96	226.61
992.25	226.63
992.54	226.57
992.83	226.51
993.12	226.53
993.41	226.50
993.70	226.53
993.99	226.56
994.28	226.57
994.58	226.59
994.87	226.65
995.16	226.62
995.45	226.60
995.74	226.55
996.03	226.54
996.32	226.55
996.61	226.52
996.90	226.56
997.19	226.53
997.48	226.53
997.77	226.54
998.06	226.57
998.34	226.55
998.63	226.56
998.92	226.60
999.21	226.58
999.50	226.59
999.79	226.57
1000.08	226.52
1000.37	226.51
1000.66	226.50
1000.95	226.50
1001.24	226.50
1001.53	226.47
1001.82	226.49
1002.11	226.48
1002.40	226.47
1002.68	226.53
1002.97	226.54
1003.26	226.55
1003.55	226.52
1003.84	226.51
1004.13	226.55
1004.42	226.56
1004.71	226.55
1004.99	226.55
1005.28	226.59
1005.57	226.58
1005.86	226.58
1006.15	226.62
1006.44	226.61
1006.72	226.61
1007.01	226.57
1007.30	226.60
1007.59	226.63
1007.88	226.65
1008.17	226.66
1008.45	226.65
1008.74	226.62
1009.03	226.60
1009.32	226.60
1009.60	226.64
1009.89	226.64
1010.18	226.59
1010.47	226.58
1010.76	226.59
1011.04	226.59
1011.33	226.61
1011.62	226.64
1011.91	226.66
1012.19	226.71
1012.48	226.76
1012.77	226.77
1013.05	226.84
1013.34	226.85
1013.63	226.85
1013.92	226.84
1014.20	226.85
1014.49	226.86
1014.78	226.85
1015.06	226.84
1015.35	226.83
1015.64	226.85
1015.92	226.90
1016.21	226.91
1016.50	226.93
1016.78	226.97
1017.07	226.98
1017.36	226.94
1017.64	226.94
1017.93	226.96
1018.22	226.91
1018.50	226.88
1018.79	226.86
1019.08	226.82
1019.36	226.82
1019.65	226.81
1019.93	226.85
1020.22	226.87
1020.51	226.94
1020.79	226.97
1021.08	226.53
1021.36	226.53
1021.65	226.61
1021.94	226.90
1022.22	226.88
1022.51	226.49
1022.79	227.49
1023.08	226.93
1023.36	228.37
1023.65	227.32
>>>>>End Processed Spectral Data<<<<<
