SpectraSuite Data File
++++++++++++++++++++++++++++++++++++
Date: Fri Feb 01 17:57:45 EST 2013
User: group
Dark Spectrum Present: No
Reference Spectrum Present: No
Number of Sampled Component Spectra: 1
Spectrometers: USB2E7196
Integration Time (usec): 35000 (USB2E7196)
Spectra Averaged: 100 (USB2E7196)
Boxcar Smoothing: 10 (USB2E7196)
Correct for Electrical Dark: No (USB2E7196)
Strobe/Lamp Enabled: No (USB2E7196)
Correct for Detector Non-linearity: No (USB2E7196)
Correct for Stray Light: No (USB2E7196)
Number of Pixels in Processed Spectrum: 2048
>>>>>Begin Processed Spectral Data<<<<<
339.09	0.00
339.48	212.55
339.86	214.10
340.24	215.40
340.63	216.72
341.01	220.08
341.39	219.47
341.78	220.88
342.16	222.30
342.54	222.46
342.93	211.16
343.31	221.84
343.69	222.40
344.07	222.91
344.46	223.35
344.84	223.75
345.22	223.96
345.60	224.20
345.99	224.41
346.37	224.54
346.75	224.66
347.13	224.72
347.52	224.80
347.90	224.88
348.28	224.89
348.66	224.96
349.05	224.96
349.43	225.01
349.81	225.06
350.19	225.07
350.57	225.15
350.96	225.27
351.34	225.34
351.72	225.42
352.10	225.49
352.48	225.53
352.87	225.58
353.25	225.65
353.63	225.75
354.01	225.81
354.39	225.90
354.77	225.97
355.15	226.07
355.54	226.14
355.92	226.16
356.30	226.27
356.68	226.39
357.06	226.43
357.44	226.46
357.82	226.52
358.20	226.61
358.58	226.68
358.97	226.69
359.35	226.79
359.73	226.86
360.11	226.90
360.49	226.98
360.87	227.00
361.25	227.05
361.63	227.10
362.01	227.11
362.39	227.14
362.77	227.17
363.15	227.20
363.53	227.20
363.91	227.24
364.29	227.22
364.67	227.16
365.05	227.21
365.43	227.24
365.81	227.26
366.19	227.27
366.57	227.27
366.95	227.27
367.33	227.23
367.71	227.22
368.09	227.24
368.47	227.22
368.85	227.22
369.23	227.25
369.61	227.22
369.99	227.23
370.37	227.23
370.75	227.26
371.13	227.20
371.51	227.16
371.89	227.14
372.27	227.10
372.65	227.04
373.03	227.01
373.41	226.97
373.78	226.92
374.16	226.83
374.54	226.83
374.92	226.78
375.30	226.74
375.68	226.64
376.06	226.59
376.44	226.51
376.82	226.45
377.19	226.39
377.57	226.32
377.95	226.24
378.33	226.13
378.71	226.02
379.09	226.01
379.47	225.94
379.84	225.89
380.22	225.84
380.60	225.77
380.98	225.68
381.36	225.65
381.73	225.57
382.11	225.55
382.49	225.46
382.87	225.41
383.25	225.34
383.62	225.43
384.00	225.35
384.38	225.33
384.76	225.32
385.13	225.26
385.51	225.23
385.89	225.17
386.27	225.18
386.64	225.17
387.02	225.10
387.40	225.09
387.78	225.05
388.15	225.01
388.53	225.00
388.91	224.99
389.29	224.94
389.66	224.91
390.04	224.85
390.42	224.83
390.79	224.81
391.17	224.79
391.55	224.64
391.92	224.63
392.30	224.61
392.68	224.54
393.05	224.57
393.43	224.55
393.81	224.53
394.18	224.52
394.56	224.51
394.94	224.54
395.31	224.53
395.69	224.59
396.06	224.61
396.44	224.60
396.82	224.59
397.19	224.68
397.57	224.70
397.95	224.78
398.32	224.81
398.70	224.85
399.07	224.91
399.45	224.98
399.82	225.03
400.20	225.06
400.58	225.18
400.95	225.20
401.33	225.31
401.70	225.50
402.08	225.62
402.45	225.69
402.83	225.82
403.20	225.94
403.58	226.05
403.95	226.21
404.33	226.35
404.71	226.50
405.08	226.69
405.46	226.85
405.83	227.00
406.21	227.15
406.58	227.35
406.96	227.58
407.33	227.82
407.70	228.04
408.08	228.36
408.45	228.61
408.83	228.90
409.20	229.16
409.58	229.37
409.95	229.68
410.33	230.00
410.70	230.33
411.08	230.71
411.45	231.06
411.82	231.47
412.20	231.92
412.57	232.46
412.95	232.86
413.32	233.39
413.69	233.96
414.07	234.54
414.44	235.15
414.82	235.76
415.19	236.46
415.56	237.23
415.94	237.99
416.31	238.82
416.68	239.67
417.06	240.61
417.43	241.52
417.81	242.54
418.18	243.59
418.55	244.70
418.93	245.85
419.30	247.07
419.67	248.33
420.04	249.60
420.42	250.94
420.79	252.50
421.16	254.03
421.54	255.59
421.91	257.21
422.28	258.92
422.66	260.68
423.03	262.38
423.40	264.16
423.77	266.04
424.15	267.94
424.52	269.93
424.89	272.08
425.26	274.16
425.64	276.04
426.01	278.22
426.38	280.44
426.75	282.68
427.13	285.00
427.50	287.39
427.87	289.88
428.24	292.38
428.61	294.74
428.99	297.38
429.36	300.23
429.73	302.99
430.10	305.69
430.47	308.51
430.85	311.43
431.22	314.46
431.59	317.62
431.96	320.67
432.33	323.97
432.70	327.18
433.08	330.97
433.45	334.57
433.82	338.04
434.19	341.92
434.56	345.65
434.93	349.25
435.30	352.77
435.68	356.74
436.05	360.54
436.42	364.31
436.79	367.62
437.16	371.21
437.53	375.07
437.90	378.87
438.27	382.52
438.64	386.28
439.01	389.77
439.38	392.84
439.75	395.77
440.13	399.16
440.50	402.33
440.87	404.80
441.24	407.42
441.61	410.39
441.98	412.42
442.35	414.91
442.72	417.41
443.09	419.89
443.46	421.21
443.83	422.04
444.20	422.73
444.57	423.96
444.94	424.37
445.31	424.86
445.68	425.30
446.05	425.41
446.42	424.90
446.79	424.31
447.16	423.69
447.53	423.25
447.90	421.70
448.27	420.13
448.64	418.07
449.01	416.55
449.37	413.88
449.74	411.29
450.11	408.21
450.48	404.87
450.85	401.41
451.22	398.51
451.59	395.77
451.96	393.17
452.33	389.62
452.70	386.45
453.07	382.60
453.43	378.69
453.80	375.01
454.17	371.43
454.54	368.02
454.91	364.38
455.28	360.77
455.65	357.43
456.02	354.06
456.38	351.12
456.75	347.54
457.12	344.49
457.49	341.51
457.86	338.61
458.23	336.11
458.59	333.35
458.96	330.57
459.33	328.02
459.70	325.45
460.07	323.40
460.43	321.08
460.80	318.87
461.17	316.93
461.54	314.82
461.91	312.89
462.27	310.92
462.64	309.22
463.01	307.37
463.38	305.59
463.74	303.79
464.11	302.22
464.48	300.78
464.85	299.22
465.21	298.03
465.58	296.74
465.95	295.25
466.32	294.01
466.68	292.76
467.05	291.55
467.42	290.36
467.78	289.10
468.15	287.89
468.52	286.99
468.88	285.81
469.25	284.76
469.62	283.91
469.98	282.97
470.35	282.07
470.72	281.20
471.08	280.33
471.45	279.55
471.82	278.78
472.18	277.99
472.55	277.42
472.92	276.71
473.28	276.11
473.65	275.46
474.02	274.84
474.38	274.28
474.75	273.84
475.11	273.38
475.48	272.98
475.85	272.66
476.21	272.32
476.58	272.03
476.94	271.86
477.31	271.59
477.67	271.32
478.04	271.14
478.41	271.05
478.77	271.00
479.14	270.87
479.50	270.81
479.87	270.81
480.23	270.83
480.60	270.83
480.96	270.85
481.33	271.03
481.69	271.23
482.06	271.40
482.42	271.50
482.79	271.70
483.15	272.03
483.52	272.40
483.88	272.71
484.25	273.09
484.61	273.45
484.98	273.87
485.34	274.52
485.71	275.08
486.07	275.69
486.44	276.22
486.80	276.97
487.17	277.70
487.53	278.56
487.90	279.45
488.26	280.42
488.62	281.45
488.99	282.46
489.35	283.49
489.72	284.68
490.08	285.99
490.44	287.29
490.81	288.65
491.17	290.05
491.54	291.56
491.90	293.19
492.26	294.96
492.63	296.78
492.99	298.60
493.36	300.61
493.72	302.77
494.08	305.02
494.45	307.38
494.81	309.90
495.17	312.44
495.54	315.12
495.90	317.99
496.26	320.93
496.63	324.03
496.99	327.35
497.35	330.78
497.72	334.39
498.08	338.10
498.44	341.97
498.80	346.14
499.17	350.47
499.53	354.90
499.89	359.50
500.26	364.25
500.62	369.19
500.98	374.44
501.34	379.75
501.71	385.37
502.07	391.12
502.43	397.05
502.79	403.21
503.16	409.64
503.52	416.25
503.88	423.09
504.24	430.16
504.60	437.45
504.97	445.06
505.33	452.79
505.69	460.95
506.05	469.23
506.41	477.58
506.78	486.21
507.14	495.14
507.50	504.41
507.86	514.02
508.22	523.80
508.59	533.65
508.95	543.95
509.31	554.40
509.67	565.19
510.03	576.21
510.39	587.50
510.75	598.99
511.12	610.65
511.48	622.67
511.84	634.93
512.20	647.22
512.56	659.91
512.92	672.96
513.28	686.29
513.64	699.64
514.00	713.20
514.37	727.11
514.73	741.15
515.09	755.16
515.45	769.50
515.81	784.12
516.17	799.16
516.53	814.34
516.89	829.68
517.25	844.98
517.61	860.55
517.97	876.14
518.33	891.87
518.69	907.85
519.05	924.08
519.41	940.54
519.77	957.39
520.13	974.26
520.49	991.02
520.85	1007.66
521.21	1024.80
521.57	1042.61
521.93	1059.82
522.29	1077.70
522.65	1095.45
523.01	1113.06
523.37	1130.69
523.73	1148.41
524.09	1165.95
524.45	1183.72
524.81	1201.97
525.17	1220.39
525.53	1239.01
525.89	1257.47
526.25	1276.12
526.61	1294.21
526.97	1312.71
527.33	1331.00
527.68	1349.22
528.04	1367.42
528.40	1385.78
528.76	1404.72
529.12	1423.08
529.48	1441.86
529.84	1459.62
530.20	1478.22
530.56	1497.24
530.91	1516.52
531.27	1535.23
531.63	1553.88
531.99	1572.45
532.35	1590.44
532.71	1608.33
533.07	1626.52
533.42	1644.60
533.78	1662.70
534.14	1681.09
534.50	1698.42
534.86	1716.34
535.21	1733.82
535.57	1752.02
535.93	1769.67
536.29	1786.57
536.65	1803.79
537.00	1820.56
537.36	1838.10
537.72	1854.65
538.08	1871.28
538.44	1887.20
538.79	1903.21
539.15	1918.83
539.51	1934.77
539.87	1951.34
540.22	1967.23
540.58	1983.35
540.94	1998.75
541.29	2013.76
541.65	2028.55
542.01	2043.96
542.37	2058.42
542.72	2072.83
543.08	2086.72
543.44	2101.30
543.79	2114.69
544.15	2127.83
544.51	2141.63
544.87	2155.00
545.22	2168.07
545.58	2180.52
545.94	2192.47
546.29	2204.51
546.65	2216.70
547.01	2228.20
547.36	2239.06
547.72	2249.72
548.07	2259.70
548.43	2269.74
548.79	2279.69
549.14	2289.19
549.50	2298.42
549.86	2308.08
550.21	2317.43
550.57	2326.63
550.92	2335.23
551.28	2344.31
551.64	2353.31
551.99	2361.91
552.35	2369.89
552.70	2377.76
553.06	2385.55
553.41	2393.73
553.77	2401.51
554.13	2409.38
554.48	2417.42
554.84	2424.66
555.19	2431.53
555.55	2438.29
555.90	2444.73
556.26	2451.37
556.61	2457.89
556.97	2464.03
557.32	2469.82
557.68	2475.72
558.03	2481.62
558.39	2486.83
558.74	2493.13
559.10	2498.63
559.45	2503.63
559.81	2509.29
560.16	2514.78
560.52	2519.47
560.87	2524.30
561.23	2528.46
561.58	2532.79
561.94	2536.64
562.29	2540.15
562.64	2544.23
563.00	2548.14
563.35	2552.85
563.71	2557.28
564.06	2561.74
564.42	2565.97
564.77	2569.82
565.12	2573.41
565.48	2576.39
565.83	2579.48
566.19	2581.89
566.54	2583.74
566.89	2585.96
567.25	2587.64
567.60	2589.99
567.96	2592.72
568.31	2594.57
568.66	2596.81
569.02	2598.19
569.37	2599.24
569.72	2601.18
570.08	2602.12
570.43	2602.95
570.78	2603.25
571.14	2602.31
571.49	2601.52
571.84	2601.86
572.20	2601.44
572.55	2600.75
572.90	2599.65
573.26	2598.78
573.61	2597.45
573.96	2596.26
574.31	2593.58
574.67	2590.88
575.02	2587.32
575.37	2584.12
575.72	2580.49
576.08	2576.91
576.43	2573.62
576.78	2570.18
577.13	2567.01
577.49	2564.00
577.84	2560.58
578.19	2556.76
578.54	2553.37
578.90	2549.15
579.25	2543.25
579.60	2537.88
579.95	2532.62
580.30	2527.22
580.66	2521.79
581.01	2516.41
581.36	2511.13
581.71	2506.89
582.06	2502.18
582.42	2497.37
582.77	2491.82
583.12	2486.85
583.47	2481.93
583.82	2476.71
584.17	2471.03
584.53	2465.14
584.88	2459.07
585.23	2452.70
585.58	2446.75
585.93	2440.56
586.28	2435.38
586.63	2429.91
586.98	2424.48
587.34	2419.23
587.69	2413.90
588.04	2408.15
588.39	2401.90
588.74	2394.61
589.09	2387.81
589.44	2380.26
589.79	2373.64
590.14	2367.29
590.49	2359.96
590.84	2352.82
591.19	2346.10
591.54	2338.81
591.89	2330.54
592.25	2322.89
592.60	2314.84
592.95	2306.23
593.30	2297.97
593.65	2289.30
594.00	2281.30
594.35	2272.90
594.70	2263.90
595.05	2256.00
595.40	2247.62
595.75	2239.19
596.10	2232.28
596.45	2224.47
596.80	2217.42
597.15	2209.96
597.50	2201.98
597.85	2194.58
598.19	2187.00
598.54	2178.89
598.89	2171.19
599.24	2164.31
599.59	2156.77
599.94	2149.68
600.29	2142.45
600.64	2134.87
600.99	2126.41
601.34	2118.49
601.69	2110.53
602.04	2102.72
602.39	2094.13
602.74	2086.31
603.08	2078.51
603.43	2070.63
603.78	2062.13
604.13	2053.76
604.48	2045.33
604.83	2037.28
605.18	2029.40
605.53	2020.24
605.87	2010.85
606.22	2002.44
606.57	1993.29
606.92	1984.74
607.27	1976.40
607.62	1968.29
607.96	1959.91
608.31	1952.24
608.66	1943.35
609.01	1934.71
609.36	1925.80
609.70	1916.45
610.05	1907.05
610.40	1898.01
610.75	1888.32
611.10	1879.48
611.44	1869.54
611.79	1860.07
612.14	1850.04
612.49	1839.26
612.83	1829.41
613.18	1819.96
613.53	1810.62
613.88	1800.63
614.22	1790.82
614.57	1780.56
614.92	1771.17
615.27	1762.35
615.61	1752.57
615.96	1743.19
616.31	1734.07
616.65	1725.43
617.00	1716.62
617.35	1707.61
617.70	1698.02
618.04	1688.09
618.39	1678.30
618.74	1669.58
619.08	1659.96
619.43	1651.01
619.78	1642.95
620.12	1634.50
620.47	1625.67
620.82	1615.96
621.16	1607.18
621.51	1598.35
621.85	1589.44
622.20	1579.42
622.55	1569.52
622.89	1560.23
623.24	1551.22
623.59	1542.48
623.93	1533.60
624.28	1525.03
624.62	1516.14
624.97	1507.57
625.32	1499.59
625.66	1491.43
626.01	1482.91
626.35	1474.25
626.70	1465.05
627.04	1455.92
627.39	1446.70
627.73	1438.05
628.08	1429.90
628.43	1421.44
628.77	1412.74
629.12	1403.87
629.46	1395.49
629.81	1386.70
630.15	1378.21
630.50	1369.62
630.84	1360.07
631.19	1350.71
631.53	1341.90
631.88	1333.09
632.22	1324.19
632.57	1315.55
632.91	1306.53
633.26	1297.82
633.60	1289.05
633.95	1280.68
634.29	1272.49
634.64	1264.67
634.98	1256.08
635.32	1247.70
635.67	1239.73
636.01	1231.92
636.36	1224.04
636.70	1216.31
637.05	1208.72
637.39	1201.24
637.73	1193.56
638.08	1186.71
638.42	1179.69
638.77	1172.10
639.11	1164.47
639.45	1156.93
639.80	1149.16
640.14	1141.92
640.49	1134.36
640.83	1126.97
641.17	1119.85
641.52	1112.31
641.86	1104.76
642.20	1097.84
642.55	1090.49
642.89	1083.11
643.23	1075.45
643.58	1068.65
643.92	1061.50
644.26	1054.53
644.61	1047.35
644.95	1040.40
645.29	1032.83
645.64	1025.03
645.98	1017.70
646.32	1010.82
646.66	1003.90
647.01	997.19
647.35	990.53
647.69	983.69
648.04	977.27
648.38	970.48
648.72	963.59
649.06	956.68
649.41	949.86
649.75	943.02
650.09	936.15
650.43	929.51
650.78	922.43
651.12	915.61
651.46	908.93
651.80	902.42
652.14	896.14
652.49	889.91
652.83	884.01
653.17	877.47
653.51	870.89
653.85	864.62
654.20	858.12
654.54	851.19
654.88	844.58
655.22	837.80
655.56	831.21
655.90	824.87
656.25	818.84
656.59	812.67
656.93	806.80
657.27	800.89
657.61	794.64
657.95	788.80
658.29	782.95
658.64	776.82
658.98	770.67
659.32	764.43
659.66	758.33
660.00	752.15
660.34	746.50
660.68	740.83
661.02	735.04
661.36	729.66
661.70	724.38
662.05	719.31
662.39	714.34
662.73	709.18
663.07	704.17
663.41	698.98
663.75	693.89
664.09	688.64
664.43	683.55
664.77	678.84
665.11	673.95
665.45	669.12
665.79	664.46
666.13	659.69
666.47	654.97
666.81	650.27
667.15	645.52
667.49	640.98
667.83	636.50
668.17	631.96
668.51	627.25
668.85	622.64
669.19	618.18
669.53	613.77
669.87	609.34
670.21	605.10
670.55	600.90
670.89	596.88
671.23	592.89
671.57	588.80
671.91	584.67
672.25	580.55
672.58	576.51
672.92	572.58
673.26	568.91
673.60	565.21
673.94	561.57
674.28	558.21
674.62	554.77
674.96	551.21
675.30	547.85
675.64	544.44
675.97	541.19
676.31	537.93
676.65	534.51
676.99	531.41
677.33	528.12
677.67	524.82
678.01	521.31
678.34	517.85
678.68	514.51
679.02	511.28
679.36	508.06
679.70	504.94
680.04	501.74
680.37	498.47
680.71	495.25
681.05	492.26
681.39	489.11
681.73	486.04
682.06	483.17
682.40	480.22
682.74	477.34
683.08	474.48
683.42	471.44
683.75	468.58
684.09	465.57
684.43	462.68
684.77	459.87
685.10	457.14
685.44	454.49
685.78	451.87
686.12	449.28
686.45	446.65
686.79	443.94
687.13	441.41
687.46	438.87
687.80	436.34
688.14	433.78
688.48	431.40
688.81	428.83
689.15	426.30
689.49	423.82
689.82	421.42
690.16	418.95
690.50	416.77
690.83	414.52
691.17	412.20
691.51	410.01
691.84	407.89
692.18	405.73
692.52	403.43
692.85	401.15
693.19	398.99
693.52	396.90
693.86	394.84
694.20	392.74
694.53	390.67
694.87	388.58
695.21	386.46
695.54	384.37
695.88	382.37
696.21	380.37
696.55	378.42
696.88	376.42
697.22	374.49
697.56	372.58
697.89	370.71
698.23	368.93
698.56	367.02
698.90	365.16
699.23	363.20
699.57	361.41
699.90	359.65
700.24	357.83
700.58	356.07
700.91	354.32
701.25	352.64
701.58	351.09
701.92	349.50
702.25	347.99
702.59	346.38
702.92	344.89
703.26	343.40
703.59	341.91
703.93	340.52
704.26	339.11
704.60	337.62
704.93	336.12
705.26	334.61
705.60	333.23
705.93	331.88
706.27	330.66
706.60	329.45
706.94	328.20
707.27	326.91
707.61	325.64
707.94	324.44
708.27	323.21
708.61	321.91
708.94	320.72
709.28	319.51
709.61	318.38
709.94	317.26
710.28	316.05
710.61	314.93
710.95	313.76
711.28	312.69
711.61	311.57
711.95	310.51
712.28	309.44
712.61	308.34
712.95	307.27
713.28	306.30
713.61	305.27
713.95	304.26
714.28	303.29
714.61	302.32
714.95	301.35
715.28	300.39
715.61	299.34
715.95	298.37
716.28	297.36
716.61	296.38
716.95	295.42
717.28	294.57
717.61	293.64
717.94	292.72
718.28	291.79
718.61	290.92
718.94	290.10
719.27	289.34
719.61	288.59
719.94	287.78
720.27	286.90
720.60	286.13
720.94	285.34
721.27	284.64
721.60	283.95
721.93	283.23
722.27	282.56
722.60	281.96
722.93	281.29
723.26	280.68
723.59	280.07
723.93	279.40
724.26	278.72
724.59	278.07
724.92	277.48
725.25	276.90
725.59	276.29
725.92	275.72
726.25	275.09
726.58	274.50
726.91	273.95
727.24	273.41
727.57	272.83
727.91	272.26
728.24	271.68
728.57	271.09
728.90	270.54
729.23	269.94
729.56	269.44
729.89	268.89
730.22	268.32
730.55	267.75
730.89	267.25
731.22	266.77
731.55	266.30
731.88	265.81
732.21	265.32
732.54	264.86
732.87	264.40
733.20	263.94
733.53	263.49
733.86	263.08
734.19	262.64
734.52	262.21
734.85	261.85
735.18	261.41
735.51	260.99
735.84	260.61
736.17	260.27
736.50	259.81
736.83	259.55
737.16	259.20
737.49	258.86
737.82	258.45
738.15	258.07
738.48	257.63
738.81	257.22
739.14	256.82
739.47	256.45
739.80	256.04
740.13	255.74
740.46	255.37
740.79	254.95
741.12	254.62
741.45	254.25
741.78	253.87
742.11	253.54
742.44	253.20
742.77	252.87
743.10	252.50
743.43	252.15
743.75	251.72
744.08	251.54
744.41	251.23
744.74	250.96
745.07	250.63
745.40	250.43
745.73	250.18
746.06	249.88
746.39	249.58
746.71	249.28
747.04	248.94
747.37	248.65
747.70	248.37
748.03	248.07
748.36	247.82
748.68	247.53
749.01	247.23
749.34	246.96
749.67	246.71
750.00	246.48
750.33	246.29
750.65	246.02
750.98	245.64
751.31	245.39
751.64	245.10
751.97	244.93
752.29	244.62
752.62	244.35
752.95	244.07
753.28	243.83
753.60	243.60
753.93	243.42
754.26	243.19
754.59	242.93
754.91	242.72
755.24	242.50
755.57	242.28
755.90	242.08
756.22	241.86
756.55	241.61
756.88	241.38
757.20	241.15
757.53	240.91
757.86	240.67
758.19	240.46
758.51	240.28
758.84	240.04
759.17	239.88
759.49	239.69
759.82	239.59
760.15	239.41
760.47	239.23
760.80	239.02
761.13	238.87
761.45	238.69
761.78	238.51
762.11	238.34
762.43	238.17
762.76	237.99
763.08	237.81
763.41	237.63
763.74	237.47
764.06	237.26
764.39	237.12
764.71	236.97
765.04	236.81
765.37	236.65
765.69	236.47
766.02	236.28
766.34	236.11
766.67	235.92
767.00	235.79
767.32	235.67
767.65	235.58
767.97	235.43
768.30	235.34
768.62	235.20
768.95	235.05
769.27	234.91
769.60	234.81
769.92	234.67
770.25	234.56
770.57	234.41
770.90	234.31
771.22	234.18
771.55	234.06
771.87	233.98
772.20	233.85
772.52	233.84
772.85	233.89
773.17	233.76
773.50	233.64
773.82	233.52
774.15	233.38
774.47	233.23
774.80	233.10
775.12	232.99
775.45	232.88
775.77	232.80
776.09	232.70
776.42	232.61
776.74	232.60
777.07	232.47
777.39	232.38
777.72	232.31
778.04	232.22
778.36	232.16
778.69	232.04
779.01	231.99
779.33	231.83
779.66	231.60
779.98	231.57
780.31	231.50
780.63	231.46
780.95	231.41
781.28	231.33
781.60	231.25
781.92	231.16
782.25	231.12
782.57	231.03
782.89	230.98
783.22	230.90
783.54	230.77
783.86	230.77
784.19	230.74
784.51	230.72
784.83	230.69
785.16	230.61
785.48	230.56
785.80	230.50
786.12	230.45
786.45	230.41
786.77	230.32
787.09	230.28
787.42	230.20
787.74	230.15
788.06	230.07
788.38	230.01
788.71	229.98
789.03	229.92
789.35	229.91
789.67	229.84
789.99	229.81
790.32	229.77
790.64	229.72
790.96	229.70
791.28	229.58
791.61	229.54
791.93	229.48
792.25	229.42
792.57	229.40
792.89	229.32
793.21	229.29
793.54	229.24
793.86	229.18
794.18	229.14
794.50	229.09
794.82	229.07
795.14	229.05
795.47	229.01
795.79	228.97
796.11	228.90
796.43	228.86
796.75	228.82
797.07	228.79
797.39	228.75
797.71	228.66
798.04	228.62
798.36	228.59
798.68	228.54
799.00	228.55
799.32	228.48
799.64	228.50
799.96	228.46
800.28	228.46
800.60	228.45
800.92	228.40
801.24	228.36
801.56	228.35
801.89	228.29
802.21	228.27
802.53	228.21
802.85	228.20
803.17	228.19
803.49	228.11
803.81	228.08
804.13	228.03
804.45	227.99
804.77	227.96
805.09	227.92
805.41	227.90
805.73	227.84
806.05	227.82
806.37	227.74
806.69	227.69
807.01	227.64
807.33	227.59
807.65	227.55
807.97	227.56
808.28	227.51
808.60	227.49
808.92	227.43
809.24	227.50
809.56	227.42
809.88	227.37
810.20	227.36
810.52	227.37
810.84	227.33
811.16	227.29
811.48	227.26
811.80	227.26
812.12	227.24
812.43	227.23
812.75	227.19
813.07	227.19
813.39	227.16
813.71	227.13
814.03	227.08
814.35	227.04
814.67	226.96
814.98	226.93
815.30	226.88
815.62	226.85
815.94	226.72
816.26	226.77
816.58	226.73
816.89	226.72
817.21	226.66
817.53	226.65
817.85	226.67
818.17	226.66
818.48	226.62
818.80	226.63
819.12	226.56
819.44	226.55
819.76	226.49
820.07	226.51
820.39	226.51
820.71	226.52
821.03	226.51
821.34	226.51
821.66	226.51
821.98	226.54
822.30	226.52
822.61	226.57
822.93	226.50
823.25	226.50
823.57	226.45
823.88	226.47
824.20	226.46
824.52	226.43
824.83	226.40
825.15	226.35
825.47	226.29
825.79	226.30
826.10	226.28
826.42	226.26
826.74	226.23
827.05	226.18
827.37	226.16
827.69	226.11
828.00	226.12
828.32	226.11
828.64	226.06
828.95	226.11
829.27	226.08
829.58	226.07
829.90	226.04
830.22	226.08
830.53	225.99
830.85	225.97
831.17	225.95
831.48	225.94
831.80	225.96
832.11	225.96
832.43	225.96
832.75	225.95
833.06	226.00
833.38	225.99
833.69	226.01
834.01	226.01
834.32	226.02
834.64	225.98
834.96	225.97
835.27	225.97
835.59	225.91
835.90	225.86
836.22	225.86
836.53	225.85
836.85	225.83
837.16	225.95
837.48	225.92
837.79	225.91
838.11	225.89
838.42	225.86
838.74	225.89
839.05	225.84
839.37	225.84
839.68	225.78
840.00	225.76
840.31	225.76
840.63	225.73
840.94	225.72
841.26	225.69
841.57	225.71
841.88	225.70
842.20	225.68
842.51	225.70
842.83	225.68
843.14	225.73
843.46	225.73
843.77	225.62
844.08	225.62
844.40	225.65
844.71	225.64
845.03	225.63
845.34	225.60
845.65	225.57
845.97	225.53
846.28	225.53
846.60	225.50
846.91	225.46
847.22	225.45
847.54	225.49
847.85	225.51
848.16	225.50
848.48	225.46
848.79	225.51
849.10	225.49
849.42	225.50
849.73	225.44
850.04	225.43
850.36	225.44
850.67	225.45
850.98	225.41
851.30	225.40
851.61	225.38
851.92	225.35
852.23	225.42
852.55	225.46
852.86	225.44
853.17	225.47
853.49	225.48
853.80	225.50
854.11	225.48
854.42	225.46
854.74	225.43
855.05	225.45
855.36	225.40
855.67	225.41
855.99	225.41
856.30	225.50
856.61	225.46
856.92	225.45
857.23	225.45
857.55	225.43
857.86	225.43
858.17	225.46
858.48	225.47
858.79	225.43
859.11	225.42
859.42	225.42
859.73	225.41
860.04	225.41
860.35	225.39
860.66	225.37
860.98	225.38
861.29	225.40
861.60	225.41
861.91	225.41
862.22	225.38
862.53	225.36
862.84	225.26
863.16	225.30
863.47	225.27
863.78	225.26
864.09	225.30
864.40	225.30
864.71	225.29
865.02	225.29
865.33	225.27
865.64	225.27
865.95	225.27
866.27	225.34
866.58	225.31
866.89	225.30
867.20	225.26
867.51	225.24
867.82	225.19
868.13	225.20
868.44	225.20
868.75	225.24
869.06	225.24
869.37	225.23
869.68	225.19
869.99	225.23
870.30	225.21
870.61	225.21
870.92	225.19
871.23	225.18
871.54	225.19
871.85	225.22
872.16	225.22
872.47	225.20
872.78	225.15
873.09	225.18
873.40	225.15
873.71	225.19
874.02	225.18
874.33	225.20
874.64	225.17
874.95	225.15
875.26	225.09
875.56	225.09
875.87	225.07
876.18	225.05
876.49	225.12
876.80	225.08
877.11	225.03
877.42	225.01
877.73	225.00
878.04	224.96
878.35	224.97
878.66	224.94
878.96	224.93
879.27	224.90
879.58	224.84
879.89	224.83
880.20	224.83
880.51	224.81
880.82	224.78
881.12	224.79
881.43	224.77
881.74	224.76
882.05	224.74
882.36	224.74
882.67	224.75
882.97	224.63
883.28	224.63
883.59	224.64
883.90	224.66
884.21	224.66
884.51	224.67
884.82	224.63
885.13	224.62
885.44	224.62
885.74	224.60
886.05	224.64
886.36	224.69
886.67	224.62
886.98	224.67
887.28	224.68
887.59	224.65
887.90	224.66
888.20	224.67
888.51	224.67
888.82	224.68
889.13	224.68
889.43	224.79
889.74	224.77
890.05	224.78
890.35	224.78
890.66	224.77
890.97	224.69
891.28	224.69
891.58	224.73
891.89	224.76
892.20	224.76
892.50	224.74
892.81	224.70
893.12	224.71
893.42	224.66
893.73	224.66
894.04	224.67
894.34	224.67
894.65	224.66
894.95	224.66
895.26	224.65
895.57	224.69
895.87	224.60
896.18	224.62
896.48	224.63
896.79	224.63
897.10	224.69
897.40	224.72
897.71	224.73
898.01	224.71
898.32	224.69
898.63	224.70
898.93	224.73
899.24	224.73
899.54	224.76
899.85	224.78
900.15	224.79
900.46	224.80
900.76	224.82
901.07	224.83
901.38	224.85
901.68	224.84
901.99	224.82
902.29	224.81
902.60	224.82
902.90	224.80
903.21	224.83
903.51	224.77
903.82	224.82
904.12	224.83
904.43	224.87
904.73	224.90
905.03	224.91
905.34	225.02
905.64	225.02
905.95	225.05
906.25	225.02
906.56	224.98
906.86	225.00
907.17	224.99
907.47	225.00
907.77	224.99
908.08	224.99
908.38	224.99
908.69	225.02
908.99	225.06
909.30	225.08
909.60	225.07
909.90	225.09
910.21	225.05
910.51	225.03
910.81	225.02
911.12	225.00
911.42	225.02
911.73	224.90
912.03	224.89
912.33	224.88
912.64	224.89
912.94	224.91
913.24	224.88
913.55	224.89
913.85	224.88
914.15	224.91
914.46	224.91
914.76	224.88
915.06	224.85
915.37	224.81
915.67	224.79
915.97	224.80
916.27	224.78
916.58	224.78
916.88	224.79
917.18	224.77
917.49	224.80
917.79	224.80
918.09	224.80
918.39	224.81
918.70	224.79
919.00	224.82
919.30	224.88
919.60	224.86
919.91	224.83
920.21	224.83
920.51	224.78
920.81	224.78
921.12	224.79
921.42	224.77
921.72	224.76
922.02	224.77
922.32	224.76
922.63	224.76
922.93	224.79
923.23	224.76
923.53	224.78
923.83	224.74
924.13	224.72
924.44	224.73
924.74	224.73
925.04	224.77
925.34	224.74
925.64	224.68
925.94	224.68
926.24	224.74
926.55	224.72
926.85	224.74
927.15	224.75
927.45	224.73
927.75	224.72
928.05	224.73
928.35	224.68
928.65	224.71
928.95	224.71
929.26	224.68
929.56	224.70
929.86	224.67
930.16	224.65
930.46	224.63
930.76	224.62
931.06	224.58
931.36	224.54
931.66	224.58
931.96	224.58
932.26	224.55
932.56	224.50
932.86	224.52
933.16	224.52
933.46	224.50
933.76	224.49
934.06	224.54
934.36	224.55
934.66	224.58
934.96	224.55
935.26	224.55
935.56	224.56
935.86	224.57
936.16	224.56
936.46	224.57
936.76	224.58
937.06	224.56
937.36	224.59
937.66	224.61
937.96	224.59
938.26	224.56
938.56	224.59
938.86	224.60
939.16	224.60
939.46	224.63
939.76	224.62
940.06	224.59
940.35	224.59
940.65	224.57
940.95	224.58
941.25	224.57
941.55	224.59
941.85	224.58
942.15	224.61
942.45	224.64
942.75	224.63
943.04	224.65
943.34	224.69
943.64	224.69
943.94	224.69
944.24	224.72
944.54	224.74
944.84	224.74
945.13	224.73
945.43	224.75
945.73	224.74
946.03	224.75
946.33	224.76
946.62	224.73
946.92	224.74
947.22	224.74
947.52	224.75
947.82	224.77
948.11	224.77
948.41	224.73
948.71	224.70
949.01	224.71
949.31	224.70
949.60	224.68
949.90	224.68
950.20	224.64
950.50	224.63
950.79	224.62
951.09	224.62
951.39	224.60
951.69	224.57
951.98	224.57
952.28	224.60
952.58	224.62
952.87	224.64
953.17	224.63
953.47	224.64
953.76	224.63
954.06	224.61
954.36	224.58
954.66	224.60
954.95	224.61
955.25	224.63
955.55	224.61
955.84	224.60
956.14	224.61
956.44	224.63
956.73	224.60
957.03	224.61
957.32	224.60
957.62	224.62
957.92	224.65
958.21	224.66
958.51	224.75
958.81	224.74
959.10	224.73
959.40	224.73
959.69	224.72
959.99	224.74
960.29	224.73
960.58	224.76
960.88	224.79
961.17	224.77
961.47	224.74
961.76	224.74
962.06	224.75
962.36	224.73
962.65	224.71
962.95	224.70
963.24	224.70
963.54	224.73
963.83	224.68
964.13	224.66
964.42	224.65
964.72	224.57
965.01	224.57
965.31	224.54
965.60	224.54
965.90	224.60
966.19	224.57
966.49	224.55
966.78	224.52
967.08	224.49
967.37	224.50
967.67	224.50
967.96	224.51
968.26	224.50
968.55	224.53
968.85	224.55
969.14	224.56
969.43	224.56
969.73	224.58
970.02	224.60
970.32	224.57
970.61	224.56
970.91	224.54
971.20	224.53
971.49	224.56
971.79	224.59
972.08	224.54
972.38	224.57
972.67	224.57
972.96	224.60
973.26	224.60
973.55	224.62
973.85	224.63
974.14	224.64
974.43	224.66
974.73	224.61
975.02	224.60
975.31	224.61
975.61	224.64
975.90	224.60
976.19	224.60
976.49	224.65
976.78	224.64
977.07	224.63
977.37	224.65
977.66	224.67
977.95	224.66
978.24	224.68
978.54	224.65
978.83	224.70
979.12	224.69
979.42	224.69
979.71	224.69
980.00	224.70
980.29	224.69
980.59	224.68
980.88	224.70
981.17	224.72
981.46	224.74
981.76	224.72
982.05	224.74
982.34	224.74
982.63	224.74
982.93	224.72
983.22	224.76
983.51	224.73
983.80	224.72
984.09	224.71
984.39	224.70
984.68	224.74
984.97	224.71
985.26	224.69
985.55	224.73
985.85	224.69
986.14	224.70
986.43	224.71
986.72	224.72
987.01	224.70
987.30	224.67
987.59	224.63
987.89	224.64
988.18	224.62
988.47	224.64
988.76	224.64
989.05	224.64
989.34	224.60
989.63	224.65
989.92	224.65
990.22	224.64
990.51	224.63
990.80	224.61
991.09	224.61
991.38	224.61
991.67	224.60
991.96	224.63
992.25	224.59
992.54	224.57
992.83	224.56
993.12	224.60
993.41	224.64
993.70	224.71
993.99	224.71
994.28	224.73
994.58	224.73
994.87	224.73
995.16	224.72
995.45	224.73
995.74	224.70
996.03	224.71
996.32	224.72
996.61	224.75
996.90	224.73
997.19	224.73
997.48	224.75
997.77	224.72
998.06	224.68
998.34	224.70
998.63	224.70
998.92	224.69
999.21	224.69
999.50	224.67
999.79	224.62
1000.08	224.62
1000.37	224.59
1000.66	224.57
1000.95	224.60
1001.24	224.62
1001.53	224.63
1001.82	224.62
1002.11	224.58
1002.40	224.60
1002.68	224.63
1002.97	224.68
1003.26	224.70
1003.55	224.66
1003.84	224.67
1004.13	224.73
1004.42	224.71
1004.71	224.71
1004.99	224.70
1005.28	224.71
1005.57	224.71
1005.86	224.68
1006.15	224.65
1006.44	224.66
1006.72	224.66
1007.01	224.64
1007.30	224.64
1007.59	224.61
1007.88	224.60
1008.17	224.61
1008.45	224.57
1008.74	224.52
1009.03	224.49
1009.32	224.46
1009.60	224.48
1009.89	224.47
1010.18	224.44
1010.47	224.45
1010.76	224.47
1011.04	224.50
1011.33	224.53
1011.62	224.55
1011.91	224.58
1012.19	224.61
1012.48	224.61
1012.77	224.63
1013.05	224.69
1013.34	224.72
1013.63	224.75
1013.92	224.78
1014.20	224.78
1014.49	224.82
1014.78	224.80
1015.06	224.77
1015.35	224.80
1015.64	224.82
1015.92	224.84
1016.21	224.83
1016.50	224.87
1016.78	224.87
1017.07	224.86
1017.36	224.84
1017.64	224.82
1017.93	224.85
1018.22	224.82
1018.50	224.88
1018.79	224.88
1019.08	224.84
1019.36	224.83
1019.65	224.82
1019.93	224.85
1020.22	224.88
1020.51	224.91
1020.79	224.92
1021.08	224.12
1021.36	225.72
1021.65	224.81
1021.94	225.23
1022.22	224.97
1022.51	224.70
1022.79	225.48
1023.08	225.17
1023.36	225.56
1023.65	224.56
>>>>>End Processed Spectral Data<<<<<
