SpectraSuite Data File
++++++++++++++++++++++++++++++++++++
Date: Fri Feb 01 16:41:23 EST 2013
User: group
Dark Spectrum Present: No
Reference Spectrum Present: No
Number of Sampled Component Spectra: 1
Spectrometers: USB2E7196
Integration Time (usec): 35000 (USB2E7196)
Spectra Averaged: 100 (USB2E7196)
Boxcar Smoothing: 10 (USB2E7196)
Correct for Electrical Dark: No (USB2E7196)
Strobe/Lamp Enabled: No (USB2E7196)
Correct for Detector Non-linearity: No (USB2E7196)
Correct for Stray Light: No (USB2E7196)
Number of Pixels in Processed Spectrum: 2048
>>>>>Begin Processed Spectral Data<<<<<
339.09	0.00
339.48	214.24
339.86	215.81
340.24	216.66
340.63	218.63
341.01	221.05
341.39	221.11
341.78	222.05
342.16	223.31
342.54	223.96
342.93	212.30
343.31	223.01
343.69	223.53
344.07	223.97
344.46	224.40
344.84	224.70
345.22	224.90
345.60	225.13
345.99	225.33
346.37	225.43
346.75	225.49
347.13	225.55
347.52	225.58
347.90	225.60
348.28	225.62
348.66	225.66
349.05	225.67
349.43	225.68
349.81	225.72
350.19	225.70
350.57	225.71
350.96	225.79
351.34	225.84
351.72	225.91
352.10	225.96
352.48	225.97
352.87	226.04
353.25	226.11
353.63	226.14
354.01	226.19
354.39	226.24
354.77	226.30
355.15	226.38
355.54	226.44
355.92	226.49
356.30	226.53
356.68	226.63
357.06	226.65
357.44	226.70
357.82	226.76
358.20	226.86
358.58	226.91
358.97	226.97
359.35	227.05
359.73	227.12
360.11	227.21
360.49	227.30
360.87	227.37
361.25	227.43
361.63	227.49
362.01	227.54
362.39	227.59
362.77	227.67
363.15	227.70
363.53	227.74
363.91	227.78
364.29	227.81
364.67	227.73
365.05	227.77
365.43	227.80
365.81	227.84
366.19	227.88
366.57	227.93
366.95	227.93
367.33	227.94
367.71	227.97
368.09	227.95
368.47	227.93
368.85	227.93
369.23	227.94
369.61	227.91
369.99	227.91
370.37	227.95
370.75	227.94
371.13	227.92
371.51	227.87
371.89	227.87
372.27	227.87
372.65	227.87
373.03	227.83
373.41	227.82
373.78	227.76
374.16	227.68
374.54	227.64
374.92	227.62
375.30	227.55
375.68	227.46
376.06	227.44
376.44	227.38
376.82	227.34
377.19	227.26
377.57	227.21
377.95	227.11
378.33	226.99
378.71	226.92
379.09	226.87
379.47	226.82
379.84	226.75
380.22	226.64
380.60	226.55
380.98	226.50
381.36	226.39
381.73	226.32
382.11	226.28
382.49	226.26
382.87	226.18
383.25	226.14
383.62	226.21
384.00	226.12
384.38	226.07
384.76	226.04
385.13	226.05
385.51	226.01
385.89	225.98
386.27	225.94
386.64	225.89
387.02	225.83
387.40	225.80
387.78	225.75
388.15	225.74
388.53	225.70
388.91	225.66
389.29	225.61
389.66	225.62
390.04	225.58
390.42	225.52
390.79	225.50
391.17	225.46
391.55	225.33
391.92	225.34
392.30	225.35
392.68	225.30
393.05	225.26
393.43	225.26
393.81	225.25
394.18	225.27
394.56	225.28
394.94	225.31
395.31	225.28
395.69	225.32
396.06	225.33
396.44	225.40
396.82	225.40
397.19	225.48
397.57	225.50
397.95	225.54
398.32	225.58
398.70	225.65
399.07	225.70
399.45	225.73
399.82	225.75
400.20	225.78
400.58	225.84
400.95	225.90
401.33	225.96
401.70	226.10
402.08	226.17
402.45	226.23
402.83	226.36
403.20	226.44
403.58	226.52
403.95	226.68
404.33	226.77
404.71	226.91
405.08	227.09
405.46	227.23
405.83	227.37
406.21	227.51
406.58	227.65
406.96	227.84
407.33	228.01
407.70	228.20
408.08	228.46
408.45	228.71
408.83	228.94
409.20	229.15
409.58	229.31
409.95	229.55
410.33	229.87
410.70	230.08
411.08	230.41
411.45	230.70
411.82	230.99
412.20	231.33
412.57	231.75
412.95	232.04
413.32	232.47
413.69	232.88
414.07	233.31
414.44	233.79
414.82	234.27
415.19	234.82
415.56	235.39
415.94	235.96
416.31	236.60
416.68	237.22
417.06	237.92
417.43	238.62
417.81	239.37
418.18	240.14
418.55	240.99
418.93	241.87
419.30	242.79
419.67	243.73
420.04	244.68
420.42	245.64
420.79	246.86
421.16	247.98
421.54	249.18
421.91	250.37
422.28	251.60
422.66	252.93
423.03	254.25
423.40	255.55
423.77	256.93
424.15	258.33
424.52	259.81
424.89	261.41
425.26	262.97
425.64	264.42
426.01	266.01
426.38	267.64
426.75	269.27
427.13	271.00
427.50	272.79
427.87	274.65
428.24	276.51
428.61	278.20
428.99	280.14
429.36	282.21
429.73	284.27
430.10	286.27
430.47	288.30
430.85	290.37
431.22	292.61
431.59	295.00
431.96	297.20
432.33	299.64
432.70	301.98
433.08	304.75
433.45	307.36
433.82	309.91
434.19	312.79
434.56	315.57
434.93	318.18
435.30	320.77
435.68	323.65
436.05	326.45
436.42	329.23
436.79	331.69
437.16	334.40
437.53	337.21
437.90	339.97
438.27	342.71
438.64	345.52
439.01	348.08
439.38	350.23
439.75	352.39
440.13	354.91
440.50	357.25
440.87	359.08
441.24	361.00
441.61	363.15
441.98	364.62
442.35	366.40
442.72	368.21
443.09	369.99
443.46	370.95
443.83	371.55
444.20	372.04
444.57	372.85
444.94	373.09
445.31	373.46
445.68	373.84
446.05	373.90
446.42	373.54
446.79	373.13
447.16	372.72
447.53	372.41
447.90	371.23
448.27	370.08
448.64	368.50
449.01	367.34
449.37	365.42
449.74	363.56
450.11	361.32
450.48	358.89
450.85	356.41
451.22	354.31
451.59	352.29
451.96	350.36
452.33	347.79
452.70	345.49
453.07	342.63
453.43	339.71
453.80	336.99
454.17	334.33
454.54	331.81
454.91	329.10
455.28	326.46
455.65	323.95
456.02	321.53
456.38	319.41
456.75	316.83
457.12	314.58
457.49	312.33
457.86	310.21
458.23	308.35
458.59	306.31
458.96	304.23
459.33	302.41
459.70	300.58
460.07	299.10
460.43	297.38
460.80	295.82
461.17	294.44
461.54	292.93
461.91	291.50
462.27	290.11
462.64	288.87
463.01	287.52
463.38	286.25
463.74	284.89
464.11	283.73
464.48	282.72
464.85	281.60
465.21	280.78
465.58	279.89
465.95	278.81
466.32	277.92
466.68	277.05
467.05	276.15
467.42	275.30
467.78	274.39
468.15	273.52
468.52	272.86
468.88	271.99
469.25	271.21
469.62	270.61
469.98	269.91
470.35	269.33
470.72	268.74
471.08	268.09
471.45	267.58
471.82	267.08
472.18	266.48
472.55	266.06
472.92	265.55
473.28	265.09
473.65	264.67
474.02	264.27
474.38	263.92
474.75	263.63
475.11	263.33
475.48	263.10
475.85	262.90
476.21	262.67
476.58	262.55
476.94	262.46
477.31	262.34
477.67	262.21
478.04	262.11
478.41	262.07
478.77	262.10
479.14	262.04
479.50	262.09
479.87	262.15
480.23	262.28
480.60	262.38
480.96	262.50
481.33	262.74
481.69	262.95
482.06	263.14
482.42	263.35
482.79	263.58
483.15	263.88
483.52	264.28
483.88	264.61
484.25	264.95
484.61	265.37
484.98	265.80
485.34	266.35
485.71	266.94
486.07	267.56
486.44	268.18
486.80	268.91
487.17	269.65
487.53	270.47
487.90	271.32
488.26	272.21
488.62	273.22
488.99	274.17
489.35	275.20
489.72	276.32
490.08	277.50
490.44	278.72
490.81	280.05
491.17	281.40
491.54	282.92
491.90	284.48
492.26	286.08
492.63	287.82
492.99	289.62
493.36	291.52
493.72	293.55
494.08	295.63
494.45	297.87
494.81	300.19
495.17	302.63
495.54	305.15
495.90	307.82
496.26	310.59
496.63	313.56
496.99	316.66
497.35	319.92
497.72	323.37
498.08	326.86
498.44	330.51
498.80	334.43
499.17	338.46
499.53	342.62
499.89	346.99
500.26	351.48
500.62	356.12
500.98	361.05
501.34	366.12
501.71	371.40
502.07	376.81
502.43	382.44
502.79	388.23
503.16	394.35
503.52	400.65
503.88	407.05
504.24	413.69
504.60	420.50
504.97	427.62
505.33	434.89
505.69	442.63
506.05	450.42
506.41	458.34
506.78	466.50
507.14	474.92
507.50	483.64
507.86	492.64
508.22	501.83
508.59	511.03
508.95	520.60
509.31	530.46
509.67	540.50
510.03	550.74
510.39	561.30
510.75	572.05
511.12	582.89
511.48	594.15
511.84	605.52
512.20	617.07
512.56	629.03
512.92	641.11
513.28	653.47
513.64	665.85
514.00	678.49
514.37	691.38
514.73	704.41
515.09	717.35
515.45	730.63
515.81	744.19
516.17	758.11
516.53	772.18
516.89	786.30
517.25	800.54
517.61	814.87
517.97	829.28
518.33	843.60
518.69	858.37
519.05	873.28
519.41	888.36
519.77	903.86
520.13	919.15
520.49	934.52
520.85	949.76
521.21	965.34
521.57	981.45
521.93	997.11
522.29	1013.27
522.65	1029.55
523.01	1045.64
523.37	1061.53
523.73	1077.65
524.09	1093.65
524.45	1109.79
524.81	1126.22
525.17	1142.86
525.53	1159.61
525.89	1176.34
526.25	1193.04
526.61	1209.25
526.97	1225.91
527.33	1242.23
527.68	1258.58
528.04	1274.92
528.40	1291.36
528.76	1308.37
529.12	1324.78
529.48	1341.60
529.84	1357.58
530.20	1373.98
530.56	1390.67
530.91	1408.03
531.27	1424.61
531.63	1440.96
531.99	1457.46
532.35	1473.34
532.71	1489.17
533.07	1505.23
533.42	1521.07
533.78	1536.95
534.14	1553.19
534.50	1568.30
534.86	1583.89
535.21	1598.98
535.57	1614.78
535.93	1630.12
536.29	1644.64
536.65	1659.49
537.00	1673.93
537.36	1689.02
537.72	1703.43
538.08	1717.82
538.44	1731.40
538.79	1745.06
539.15	1758.47
539.51	1771.95
539.87	1786.14
540.22	1799.61
540.58	1813.14
540.94	1826.11
541.29	1838.68
541.65	1851.01
542.01	1864.05
542.37	1876.33
542.72	1888.71
543.08	1900.31
543.44	1912.53
543.79	1923.78
544.15	1934.65
544.51	1946.15
544.87	1956.93
545.22	1967.51
545.58	1977.67
545.94	1987.23
546.29	1996.99
546.65	2006.82
547.01	2015.99
547.36	2024.56
547.72	2033.13
548.07	2041.08
548.43	2049.28
548.79	2057.12
549.14	2064.83
549.50	2072.11
549.86	2079.55
550.21	2086.73
550.57	2093.81
550.92	2100.37
551.28	2107.30
551.64	2114.40
551.99	2120.77
552.35	2127.04
552.70	2133.22
553.06	2139.12
553.41	2145.52
553.77	2151.51
554.13	2157.37
554.48	2163.47
554.84	2168.99
555.19	2174.11
555.55	2179.08
555.90	2183.66
556.26	2188.74
556.61	2193.31
556.97	2197.69
557.32	2201.82
557.68	2205.91
558.03	2210.06
558.39	2213.71
558.74	2218.33
559.10	2222.25
559.45	2225.98
559.81	2230.09
560.16	2233.76
560.52	2237.12
560.87	2240.36
561.23	2243.14
561.58	2245.98
561.94	2248.45
562.29	2250.57
562.64	2253.45
563.00	2256.10
563.35	2259.48
563.71	2262.75
564.06	2265.94
564.42	2268.93
564.77	2271.73
565.12	2274.37
565.48	2276.45
565.83	2278.56
566.19	2280.03
566.54	2280.83
566.89	2282.04
567.25	2282.82
567.60	2284.18
567.96	2285.97
568.31	2287.00
568.66	2288.16
569.02	2288.99
569.37	2289.61
569.72	2290.79
570.08	2290.99
570.43	2291.16
570.78	2290.71
571.14	2289.20
571.49	2287.74
571.84	2287.38
572.20	2286.34
572.55	2285.11
572.90	2283.44
573.26	2282.05
573.61	2280.21
573.96	2278.68
574.31	2275.89
574.67	2273.02
575.02	2269.56
575.37	2266.17
575.72	2262.53
576.08	2259.11
576.43	2255.73
576.78	2252.06
577.13	2248.77
577.49	2245.51
577.84	2241.96
578.19	2238.23
578.54	2234.73
578.90	2230.91
579.25	2225.48
579.60	2220.63
579.95	2215.89
580.30	2210.94
580.66	2205.81
581.01	2201.00
581.36	2196.05
581.71	2191.99
582.06	2187.64
582.42	2183.30
582.77	2178.11
583.12	2173.58
583.47	2169.28
583.82	2164.56
584.17	2159.40
584.53	2154.05
584.88	2148.68
585.23	2143.18
585.58	2137.82
585.93	2132.24
586.28	2127.46
586.63	2122.40
586.98	2117.27
587.34	2112.41
587.69	2107.73
588.04	2102.58
588.39	2097.09
588.74	2090.68
589.09	2084.51
589.44	2077.91
589.79	2071.86
590.14	2066.15
590.49	2059.60
590.84	2052.90
591.19	2046.90
591.54	2040.46
591.89	2033.28
592.25	2026.57
592.60	2019.45
592.95	2011.98
593.30	2004.87
593.65	1997.11
594.00	1990.17
594.35	1982.87
594.70	1974.85
595.05	1967.80
595.40	1960.63
595.75	1953.04
596.10	1947.06
596.45	1940.56
596.80	1934.49
597.15	1927.95
597.50	1921.26
597.85	1914.85
598.19	1908.45
598.54	1901.55
598.89	1895.03
599.24	1889.16
599.59	1882.65
599.94	1876.52
600.29	1870.17
600.64	1863.43
600.99	1856.36
601.34	1849.62
601.69	1842.70
602.04	1836.07
602.39	1828.77
602.74	1822.02
603.08	1815.54
603.43	1808.83
603.78	1801.49
604.13	1794.36
604.48	1787.26
604.83	1780.31
605.18	1773.59
605.53	1765.72
605.87	1757.74
606.22	1750.44
606.57	1742.38
606.92	1734.90
607.27	1727.78
607.62	1721.15
607.96	1714.21
608.31	1707.76
608.66	1700.29
609.01	1693.00
609.36	1685.54
609.70	1677.60
610.05	1669.52
610.40	1661.89
610.75	1653.59
611.10	1646.00
611.44	1637.40
611.79	1629.45
612.14	1620.90
612.49	1611.70
612.83	1603.25
613.18	1595.05
613.53	1587.12
613.88	1578.82
614.22	1570.67
614.57	1561.99
614.92	1553.85
615.27	1546.39
615.61	1538.13
615.96	1530.07
616.31	1522.36
616.65	1515.01
617.00	1507.50
617.35	1499.83
617.70	1491.66
618.04	1483.15
618.39	1474.86
618.74	1467.48
619.08	1459.13
619.43	1451.48
619.78	1444.64
620.12	1437.59
620.47	1430.23
620.82	1422.00
621.16	1414.44
621.51	1406.86
621.85	1399.33
622.20	1390.89
622.55	1382.42
622.89	1374.40
623.24	1366.63
623.59	1359.15
623.93	1351.51
624.28	1344.33
624.62	1336.84
624.97	1329.43
625.32	1322.61
625.66	1315.59
626.01	1308.35
626.35	1301.08
626.70	1293.37
627.04	1285.63
627.39	1277.77
627.73	1270.30
628.08	1263.39
628.43	1256.32
628.77	1248.94
629.12	1241.40
629.46	1234.22
629.81	1226.72
630.15	1219.47
630.50	1212.19
630.84	1204.15
631.19	1196.32
631.53	1188.71
631.88	1181.14
632.22	1173.62
632.57	1166.29
632.91	1158.81
633.26	1151.31
633.60	1143.90
633.95	1136.68
634.29	1129.52
634.64	1122.87
634.98	1115.59
635.32	1108.46
635.67	1101.72
636.01	1095.02
636.36	1088.26
636.70	1081.67
637.05	1075.16
637.39	1068.81
637.73	1062.40
638.08	1056.46
638.42	1050.37
638.77	1043.96
639.11	1037.53
639.45	1031.16
639.80	1024.56
640.14	1018.15
640.49	1011.77
640.83	1005.45
641.17	999.34
641.52	993.11
641.86	986.61
642.20	980.69
642.55	974.29
642.89	967.97
643.23	961.50
643.58	955.81
643.92	949.65
644.26	943.63
644.61	937.49
644.95	931.43
645.29	924.94
645.64	918.29
645.98	911.95
646.32	906.03
646.66	900.04
647.01	894.25
647.35	888.55
647.69	882.58
648.04	877.00
648.38	871.23
648.72	865.27
649.06	859.33
649.41	853.38
649.75	847.55
650.09	841.52
650.43	835.77
650.78	829.55
651.12	823.72
651.46	818.11
651.80	812.42
652.14	806.96
652.49	801.60
652.83	796.42
653.17	790.79
653.51	785.12
653.85	779.59
654.20	773.98
654.54	767.97
654.88	762.28
655.22	756.40
655.56	750.65
655.90	745.12
656.25	739.74
656.59	734.37
656.93	729.31
657.27	724.19
657.61	718.71
657.95	713.63
658.29	708.47
658.64	703.10
658.98	697.79
659.32	692.34
659.66	687.13
660.00	681.85
660.34	676.95
660.68	672.00
661.02	667.04
661.36	662.43
661.70	657.93
662.05	653.59
662.39	649.33
662.73	644.83
663.07	640.50
663.41	636.15
663.75	631.79
664.09	627.19
664.43	622.74
664.77	618.69
665.11	614.40
665.45	610.26
665.79	606.25
666.13	602.13
666.47	598.11
666.81	594.00
667.15	589.85
667.49	585.85
667.83	581.95
668.17	577.99
668.51	573.91
668.85	569.92
669.19	565.97
669.53	562.14
669.87	558.35
670.21	554.69
670.55	551.08
670.89	547.59
671.23	544.16
671.57	540.71
671.91	537.20
672.25	533.70
672.58	530.19
672.92	526.68
673.26	523.55
673.60	520.30
673.94	517.13
674.28	514.24
674.62	511.40
674.96	508.36
675.30	505.46
675.64	502.51
675.97	499.70
676.31	496.93
676.65	494.01
676.99	491.26
677.33	488.37
677.67	485.52
678.01	482.48
678.34	479.50
678.68	476.63
679.02	473.79
679.36	471.02
679.70	468.27
680.04	465.53
680.37	462.70
680.71	459.96
681.05	457.36
681.39	454.68
681.73	451.92
682.06	449.38
682.40	446.85
682.74	444.33
683.08	441.71
683.42	439.06
683.75	436.52
684.09	433.94
684.43	431.48
684.77	429.03
685.10	426.67
685.44	424.37
685.78	422.00
686.12	419.70
686.45	417.39
686.79	415.10
687.13	412.91
687.46	410.69
687.80	408.51
688.14	406.26
688.48	404.21
688.81	402.06
689.15	399.88
689.49	397.77
689.82	395.68
690.16	393.62
690.50	391.64
690.83	389.68
691.17	387.68
691.51	385.77
691.84	383.90
692.18	382.00
692.52	380.03
692.85	378.13
693.19	376.25
693.52	374.46
693.86	372.61
694.20	370.77
694.53	368.98
694.87	367.14
695.21	365.33
695.54	363.40
695.88	361.60
696.21	359.90
696.55	358.17
696.88	356.46
697.22	354.76
697.56	353.15
697.89	351.50
698.23	349.92
698.56	348.27
698.90	346.72
699.23	345.07
699.57	343.50
699.90	341.94
700.24	340.42
700.58	338.89
700.91	337.44
701.25	336.02
701.58	334.67
701.92	333.31
702.25	331.92
702.59	330.59
702.92	329.27
703.26	327.96
703.59	326.65
703.93	325.49
704.26	324.30
704.60	323.01
704.93	321.76
705.26	320.51
705.60	319.31
705.93	318.13
706.27	317.08
706.60	316.03
706.94	314.98
707.27	313.82
707.61	312.75
707.94	311.71
708.27	310.61
708.61	309.53
708.94	308.50
709.28	307.53
709.61	306.56
709.94	305.62
710.28	304.60
710.61	303.64
710.95	302.52
711.28	301.61
711.61	300.69
711.95	299.79
712.28	298.80
712.61	297.85
712.95	296.91
713.28	296.00
713.61	295.10
713.95	294.21
714.28	293.40
714.61	292.54
714.95	291.72
715.28	290.89
715.61	290.04
715.95	289.15
716.28	288.33
716.61	287.51
716.95	286.68
717.28	285.91
717.61	285.17
717.94	284.41
718.28	283.60
718.61	282.83
718.94	282.12
719.27	281.53
719.61	280.86
719.94	280.18
720.27	279.50
720.60	278.83
720.94	278.16
721.27	277.52
721.60	276.95
721.93	276.32
722.27	275.76
722.60	275.17
722.93	274.67
723.26	274.15
723.59	273.58
723.93	273.01
724.26	272.50
724.59	271.92
724.92	271.43
725.25	270.92
725.59	270.46
725.92	269.98
726.25	269.45
726.58	268.99
726.91	268.51
727.24	268.03
727.57	267.57
727.91	267.07
728.24	266.61
728.57	266.09
728.90	265.60
729.23	265.09
729.56	264.68
729.89	264.18
730.22	263.68
730.55	263.24
730.89	262.78
731.22	262.30
731.55	261.84
731.88	261.42
732.21	260.99
732.54	260.55
732.87	260.10
733.20	259.69
733.53	259.31
733.86	258.90
734.19	258.53
734.52	258.13
734.85	257.82
735.18	257.43
735.51	257.06
735.84	256.70
736.17	256.38
736.50	255.95
736.83	255.69
737.16	255.33
737.49	254.99
737.82	254.69
738.15	254.42
738.48	254.09
738.81	253.76
739.14	253.45
739.47	253.13
739.80	252.83
740.13	252.54
740.46	252.20
740.79	251.91
741.12	251.57
741.45	251.32
741.78	251.00
742.11	250.72
742.44	250.38
742.77	250.11
743.10	249.81
743.43	249.54
743.75	249.19
744.08	249.03
744.41	248.76
744.74	248.50
745.07	248.18
745.40	247.95
745.73	247.72
746.06	247.44
746.39	247.17
746.71	246.93
747.04	246.64
747.37	246.41
747.70	246.14
748.03	245.93
748.36	245.65
748.68	245.40
749.01	245.14
749.34	244.94
749.67	244.73
750.00	244.53
750.33	244.35
750.65	244.13
750.98	243.83
751.31	243.65
751.64	243.41
751.97	243.26
752.29	243.01
752.62	242.76
752.95	242.52
753.28	242.33
753.60	242.11
753.93	241.94
754.26	241.71
754.59	241.50
754.91	241.28
755.24	241.09
755.57	240.90
755.90	240.74
756.22	240.55
756.55	240.29
756.88	240.05
757.20	239.84
757.53	239.63
757.86	239.43
758.19	239.21
758.51	239.03
758.84	238.79
759.17	238.61
759.49	238.44
759.82	238.32
760.15	238.20
760.47	238.05
760.80	237.87
761.13	237.72
761.45	237.55
761.78	237.41
762.11	237.28
762.43	237.10
762.76	236.94
763.08	236.82
763.41	236.73
763.74	236.60
764.06	236.44
764.39	236.32
764.71	236.14
765.04	236.01
765.37	235.85
765.69	235.76
766.02	235.63
766.34	235.51
766.67	235.33
767.00	235.18
767.32	235.10
767.65	235.09
767.97	234.99
768.30	234.88
768.62	234.78
768.95	234.62
769.27	234.50
769.60	234.41
769.92	234.29
770.25	234.15
770.57	234.06
770.90	233.98
771.22	233.85
771.55	233.81
771.87	233.71
772.20	233.66
772.52	233.61
772.85	233.65
773.17	233.56
773.50	233.49
773.82	233.40
774.15	233.23
774.47	233.03
774.80	232.95
775.12	232.87
775.45	232.75
775.77	232.69
776.09	232.64
776.42	232.56
776.74	232.48
777.07	232.42
777.39	232.35
777.72	232.25
778.04	232.21
778.36	232.15
778.69	232.10
779.01	232.04
779.33	231.92
779.66	231.75
779.98	231.65
780.31	231.62
780.63	231.60
780.95	231.59
781.28	231.54
781.60	231.45
781.92	231.40
782.25	231.40
782.57	231.33
782.89	231.28
783.22	231.20
783.54	231.14
783.86	231.10
784.19	231.03
784.51	231.01
784.83	230.95
785.16	230.89
785.48	230.86
785.80	230.80
786.12	230.77
786.45	230.74
786.77	230.73
787.09	230.66
787.42	230.57
787.74	230.52
788.06	230.48
788.38	230.43
788.71	230.35
789.03	230.31
789.35	230.30
789.67	230.23
789.99	230.21
790.32	230.18
790.64	230.11
790.96	230.18
791.28	230.13
791.61	230.10
791.93	230.02
792.25	229.93
792.57	229.95
792.89	229.86
793.21	229.81
793.54	229.76
793.86	229.73
794.18	229.70
794.50	229.66
794.82	229.63
795.14	229.62
795.47	229.63
795.79	229.56
796.11	229.50
796.43	229.47
796.75	229.44
797.07	229.36
797.39	229.32
797.71	229.18
798.04	229.13
798.36	229.07
798.68	229.05
799.00	229.01
799.32	228.92
799.64	228.91
799.96	228.86
800.28	228.83
800.60	228.76
800.92	228.68
801.24	228.62
801.56	228.60
801.89	228.53
802.21	228.48
802.53	228.44
802.85	228.45
803.17	228.45
803.49	228.39
803.81	228.40
804.13	228.37
804.45	228.33
804.77	228.30
805.09	228.27
805.41	228.23
805.73	228.23
806.05	228.17
806.37	228.14
806.69	228.13
807.01	228.07
807.33	228.07
807.65	228.05
807.97	228.09
808.28	228.04
808.60	227.98
808.92	227.93
809.24	227.95
809.56	227.89
809.88	227.84
810.20	227.83
810.52	227.82
810.84	227.79
811.16	227.76
811.48	227.75
811.80	227.76
812.12	227.73
812.43	227.69
812.75	227.69
813.07	227.65
813.39	227.65
813.71	227.66
814.03	227.62
814.35	227.61
814.67	227.53
814.98	227.51
815.30	227.53
815.62	227.50
815.94	227.44
816.26	227.49
816.58	227.49
816.89	227.48
817.21	227.41
817.53	227.41
817.85	227.41
818.17	227.40
818.48	227.37
818.80	227.41
819.12	227.41
819.44	227.40
819.76	227.42
820.07	227.36
820.39	227.36
820.71	227.37
821.03	227.39
821.34	227.38
821.66	227.38
821.98	227.40
822.30	227.43
822.61	227.49
822.93	227.42
823.25	227.38
823.57	227.38
823.88	227.42
824.20	227.43
824.52	227.42
824.83	227.42
825.15	227.39
825.47	227.36
825.79	227.35
826.10	227.33
826.42	227.30
826.74	227.30
827.05	227.29
827.37	227.24
827.69	227.22
828.00	227.25
828.32	227.26
828.64	227.18
828.95	227.22
829.27	227.14
829.58	227.12
829.90	227.11
830.22	227.07
830.53	227.02
830.85	226.97
831.17	226.93
831.48	226.88
831.80	226.85
832.11	226.81
832.43	226.79
832.75	226.77
833.06	226.81
833.38	226.78
833.69	226.76
834.01	226.76
834.32	226.74
834.64	226.68
834.96	226.63
835.27	226.64
835.59	226.56
835.90	226.58
836.22	226.57
836.53	226.56
836.85	226.57
837.16	226.64
837.48	226.63
837.79	226.64
838.11	226.64
838.42	226.65
838.74	226.65
839.05	226.64
839.37	226.60
839.68	226.54
840.00	226.52
840.31	226.52
840.63	226.50
840.94	226.45
841.26	226.46
841.57	226.45
841.88	226.45
842.20	226.45
842.51	226.35
842.83	226.34
843.14	226.40
843.46	226.38
843.77	226.31
844.08	226.31
844.40	226.29
844.71	226.27
845.03	226.28
845.34	226.28
845.65	226.25
845.97	226.27
846.28	226.26
846.60	226.28
846.91	226.26
847.22	226.24
847.54	226.25
847.85	226.24
848.16	226.23
848.48	226.21
848.79	226.24
849.10	226.31
849.42	226.32
849.73	226.26
850.04	226.28
850.36	226.26
850.67	226.28
850.98	226.30
851.30	226.32
851.61	226.32
851.92	226.32
852.23	226.35
852.55	226.36
852.86	226.36
853.17	226.36
853.49	226.36
853.80	226.40
854.11	226.44
854.42	226.46
854.74	226.43
855.05	226.44
855.36	226.36
855.67	226.33
855.99	226.35
856.30	226.46
856.61	226.43
856.92	226.43
857.23	226.43
857.55	226.39
857.86	226.37
858.17	226.42
858.48	226.42
858.79	226.42
859.11	226.44
859.42	226.43
859.73	226.43
860.04	226.47
860.35	226.44
860.66	226.38
860.98	226.35
861.29	226.39
861.60	226.41
861.91	226.44
862.22	226.44
862.53	226.41
862.84	226.29
863.16	226.36
863.47	226.34
863.78	226.31
864.09	226.36
864.40	226.35
864.71	226.29
865.02	226.27
865.33	226.26
865.64	226.22
865.95	226.22
866.27	226.26
866.58	226.21
866.89	226.22
867.20	226.22
867.51	226.20
867.82	226.20
868.13	226.19
868.44	226.16
868.75	226.19
869.06	226.17
869.37	226.13
869.68	226.07
869.99	226.08
870.30	226.09
870.61	226.06
870.92	226.03
871.23	226.02
871.54	226.01
871.85	226.02
872.16	226.02
872.47	225.98
872.78	225.94
873.09	225.94
873.40	225.91
873.71	225.90
874.02	225.92
874.33	225.83
874.64	225.82
874.95	225.81
875.26	225.75
875.56	225.73
875.87	225.72
876.18	225.70
876.49	225.77
876.80	225.72
877.11	225.71
877.42	225.72
877.73	225.71
878.04	225.66
878.35	225.64
878.66	225.66
878.96	225.64
879.27	225.61
879.58	225.59
879.89	225.58
880.20	225.64
880.51	225.62
880.82	225.66
881.12	225.66
881.43	225.66
881.74	225.66
882.05	225.65
882.36	225.66
882.67	225.67
882.97	225.59
883.28	225.62
883.59	225.59
883.90	225.58
884.21	225.59
884.51	225.62
884.82	225.58
885.13	225.61
885.44	225.61
885.74	225.59
886.05	225.62
886.36	225.61
886.67	225.54
886.98	225.58
887.28	225.61
887.59	225.62
887.90	225.63
888.20	225.64
888.51	225.66
888.82	225.68
889.13	225.66
889.43	225.72
889.74	225.69
890.05	225.71
890.35	225.69
890.66	225.69
890.97	225.68
891.28	225.71
891.58	225.68
891.89	225.73
892.20	225.74
892.50	225.74
892.81	225.78
893.12	225.80
893.42	225.73
893.73	225.76
894.04	225.78
894.34	225.83
894.65	225.83
894.95	225.84
895.26	225.87
895.57	225.96
895.87	225.91
896.18	225.96
896.48	225.98
896.79	226.00
897.10	226.03
897.40	226.05
897.71	226.06
898.01	226.05
898.32	226.08
898.63	226.08
898.93	226.08
899.24	226.07
899.54	226.08
899.85	226.13
900.15	226.12
900.46	226.11
900.76	226.06
901.07	226.08
901.38	226.10
901.68	226.09
901.99	226.05
902.29	226.07
902.60	226.07
902.90	226.05
903.21	226.06
903.51	226.04
903.82	226.09
904.12	226.09
904.43	226.12
904.73	226.11
905.03	226.10
905.34	226.18
905.64	226.18
905.95	226.18
906.25	226.20
906.56	226.18
906.86	226.16
907.17	226.19
907.47	226.19
907.77	226.16
908.08	226.12
908.38	226.14
908.69	226.13
908.99	226.12
909.30	226.15
909.60	226.16
909.90	226.16
910.21	226.13
910.51	226.10
910.81	226.10
911.12	226.10
911.42	226.09
911.73	225.97
912.03	225.95
912.33	225.96
912.64	225.97
912.94	225.95
913.24	225.95
913.55	225.95
913.85	225.91
914.15	225.88
914.46	225.88
914.76	225.84
915.06	225.79
915.37	225.76
915.67	225.70
915.97	225.71
916.27	225.68
916.58	225.67
916.88	225.67
917.18	225.62
917.49	225.68
917.79	225.69
918.09	225.73
918.39	225.78
918.70	225.77
919.00	225.74
919.30	225.79
919.60	225.75
919.91	225.72
920.21	225.75
920.51	225.77
920.81	225.79
921.12	225.79
921.42	225.80
921.72	225.82
922.02	225.86
922.32	225.84
922.63	225.83
922.93	225.84
923.23	225.86
923.53	225.86
923.83	225.79
924.13	225.79
924.44	225.80
924.74	225.81
925.04	225.82
925.34	225.83
925.64	225.78
925.94	225.79
926.24	225.83
926.55	225.83
926.85	225.84
927.15	225.82
927.45	225.83
927.75	225.83
928.05	225.83
928.35	225.81
928.65	225.84
928.95	225.89
929.26	225.86
929.56	225.87
929.86	225.88
930.16	225.87
930.46	225.85
930.76	225.83
931.06	225.79
931.36	225.77
931.66	225.79
931.96	225.83
932.26	225.86
932.56	225.82
932.86	225.82
933.16	225.84
933.46	225.86
933.76	225.86
934.06	225.90
934.36	225.96
934.66	225.96
934.96	225.95
935.26	225.94
935.56	226.00
935.86	225.97
936.16	225.97
936.46	225.98
936.76	225.99
937.06	225.99
937.36	226.01
937.66	226.01
937.96	225.98
938.26	225.96
938.56	225.96
938.86	225.99
939.16	226.01
939.46	226.04
939.76	226.03
940.06	226.03
940.35	226.01
940.65	225.95
940.95	225.97
941.25	225.93
941.55	225.92
941.85	225.93
942.15	225.96
942.45	226.00
942.75	225.98
943.04	226.00
943.34	226.00
943.64	225.98
943.94	225.95
944.24	225.97
944.54	225.98
944.84	225.95
945.13	225.91
945.43	225.88
945.73	225.86
946.03	225.84
946.33	225.81
946.62	225.82
946.92	225.81
947.22	225.81
947.52	225.85
947.82	225.84
948.11	225.79
948.41	225.77
948.71	225.74
949.01	225.73
949.31	225.71
949.60	225.70
949.90	225.72
950.20	225.73
950.50	225.71
950.79	225.66
951.09	225.67
951.39	225.66
951.69	225.65
951.98	225.63
952.28	225.62
952.58	225.60
952.87	225.55
953.17	225.57
953.47	225.53
953.76	225.48
954.06	225.46
954.36	225.43
954.66	225.42
954.95	225.44
955.25	225.44
955.55	225.43
955.84	225.44
956.14	225.43
956.44	225.41
956.73	225.41
957.03	225.43
957.32	225.44
957.62	225.46
957.92	225.51
958.21	225.50
958.51	225.61
958.81	225.64
959.10	225.64
959.40	225.65
959.69	225.65
959.99	225.68
960.29	225.69
960.58	225.68
960.88	225.72
961.17	225.68
961.47	225.70
961.76	225.68
962.06	225.68
962.36	225.68
962.65	225.68
962.95	225.67
963.24	225.67
963.54	225.62
963.83	225.62
964.13	225.61
964.42	225.60
964.72	225.51
965.01	225.53
965.31	225.55
965.60	225.53
965.90	225.60
966.19	225.57
966.49	225.60
966.78	225.63
967.08	225.64
967.37	225.62
967.67	225.61
967.96	225.68
968.26	225.69
968.55	225.74
968.85	225.78
969.14	225.79
969.43	225.78
969.73	225.82
970.02	225.83
970.32	225.85
970.61	225.89
970.91	225.89
971.20	225.86
971.49	225.87
971.79	225.88
972.08	225.84
972.38	225.86
972.67	225.85
972.96	225.85
973.26	225.81
973.55	225.87
973.85	225.86
974.14	225.88
974.43	225.87
974.73	225.84
975.02	225.84
975.31	225.85
975.61	225.87
975.90	225.88
976.19	225.87
976.49	225.85
976.78	225.84
977.07	225.82
977.37	225.81
977.66	225.80
977.95	225.80
978.24	225.80
978.54	225.82
978.83	225.84
979.12	225.84
979.42	225.86
979.71	225.83
980.00	225.84
980.29	225.82
980.59	225.82
980.88	225.84
981.17	225.82
981.46	225.79
981.76	225.78
982.05	225.79
982.34	225.78
982.63	225.76
982.93	225.74
983.22	225.74
983.51	225.76
983.80	225.77
984.09	225.76
984.39	225.75
984.68	225.70
984.97	225.66
985.26	225.64
985.55	225.65
985.85	225.61
986.14	225.64
986.43	225.62
986.72	225.58
987.01	225.53
987.30	225.51
987.59	225.50
987.89	225.47
988.18	225.46
988.47	225.43
988.76	225.43
989.05	225.39
989.34	225.36
989.63	225.36
989.92	225.36
990.22	225.33
990.51	225.32
990.80	225.31
991.09	225.33
991.38	225.33
991.67	225.31
991.96	225.33
992.25	225.30
992.54	225.29
992.83	225.33
993.12	225.32
993.41	225.33
993.70	225.38
993.99	225.42
994.28	225.42
994.58	225.43
994.87	225.41
995.16	225.44
995.45	225.47
995.74	225.43
996.03	225.42
996.32	225.45
996.61	225.45
996.90	225.46
997.19	225.43
997.48	225.43
997.77	225.40
998.06	225.40
998.34	225.38
998.63	225.36
998.92	225.35
999.21	225.40
999.50	225.39
999.79	225.35
1000.08	225.37
1000.37	225.38
1000.66	225.40
1000.95	225.41
1001.24	225.40
1001.53	225.44
1001.82	225.47
1002.11	225.45
1002.40	225.46
1002.68	225.50
1002.97	225.58
1003.26	225.58
1003.55	225.58
1003.84	225.64
1004.13	225.68
1004.42	225.68
1004.71	225.70
1004.99	225.70
1005.28	225.73
1005.57	225.77
1005.86	225.78
1006.15	225.74
1006.44	225.72
1006.72	225.74
1007.01	225.73
1007.30	225.75
1007.59	225.74
1007.88	225.73
1008.17	225.78
1008.45	225.75
1008.74	225.74
1009.03	225.71
1009.32	225.76
1009.60	225.76
1009.89	225.73
1010.18	225.70
1010.47	225.69
1010.76	225.69
1011.04	225.70
1011.33	225.68
1011.62	225.66
1011.91	225.68
1012.19	225.71
1012.48	225.71
1012.77	225.72
1013.05	225.80
1013.34	225.79
1013.63	225.77
1013.92	225.79
1014.20	225.79
1014.49	225.78
1014.78	225.76
1015.06	225.69
1015.35	225.66
1015.64	225.67
1015.92	225.66
1016.21	225.66
1016.50	225.68
1016.78	225.70
1017.07	225.66
1017.36	225.61
1017.64	225.61
1017.93	225.61
1018.22	225.59
1018.50	225.59
1018.79	225.54
1019.08	225.48
1019.36	225.48
1019.65	225.44
1019.93	225.45
1020.22	225.45
1020.51	225.50
1020.79	225.50
1021.08	225.71
1021.36	225.52
1021.65	225.18
1021.94	225.68
1022.22	225.38
1022.51	224.85
1022.79	226.11
1023.08	225.59
1023.36	226.52
1023.65	225.28
>>>>>End Processed Spectral Data<<<<<
