SpectraSuite Data File
++++++++++++++++++++++++++++++++++++
Date: Fri Feb 01 15:28:09 EST 2013
User: group
Dark Spectrum Present: No
Reference Spectrum Present: No
Number of Sampled Component Spectra: 1
Spectrometers: USB2E7196
Integration Time (usec): 35000 (USB2E7196)
Spectra Averaged: 100 (USB2E7196)
Boxcar Smoothing: 10 (USB2E7196)
Correct for Electrical Dark: No (USB2E7196)
Strobe/Lamp Enabled: No (USB2E7196)
Correct for Detector Non-linearity: No (USB2E7196)
Correct for Stray Light: No (USB2E7196)
Number of Pixels in Processed Spectrum: 2048
>>>>>Begin Processed Spectral Data<<<<<
339.09	0.00
339.48	215.07
339.86	216.59
340.24	217.61
340.63	219.68
341.01	221.90
341.39	221.82
341.78	223.50
342.16	223.86
342.54	225.47
342.93	213.34
343.31	224.13
343.69	224.68
344.07	225.13
344.46	225.56
344.84	225.90
345.22	226.13
345.60	226.39
345.99	226.57
346.37	226.73
346.75	226.82
347.13	226.87
347.52	226.94
347.90	226.98
348.28	227.01
348.66	227.04
349.05	227.05
349.43	227.05
349.81	227.08
350.19	227.13
350.57	227.18
350.96	227.27
351.34	227.34
351.72	227.43
352.10	227.53
352.48	227.61
352.87	227.70
353.25	227.76
353.63	227.82
354.01	227.86
354.39	227.93
354.77	228.00
355.15	228.12
355.54	228.19
355.92	228.25
356.30	228.31
356.68	228.45
357.06	228.54
357.44	228.64
357.82	228.71
358.20	228.80
358.58	228.87
358.97	228.94
359.35	229.01
359.73	229.09
360.11	229.14
360.49	229.19
360.87	229.25
361.25	229.33
361.63	229.42
362.01	229.51
362.39	229.56
362.77	229.62
363.15	229.61
363.53	229.65
363.91	229.66
364.29	229.70
364.67	229.65
365.05	229.66
365.43	229.67
365.81	229.69
366.19	229.72
366.57	229.76
366.95	229.75
367.33	229.72
367.71	229.68
368.09	229.69
368.47	229.72
368.85	229.67
369.23	229.66
369.61	229.58
369.99	229.55
370.37	229.54
370.75	229.54
371.13	229.50
371.51	229.44
371.89	229.44
372.27	229.41
372.65	229.37
373.03	229.30
373.41	229.25
373.78	229.17
374.16	229.08
374.54	228.99
374.92	228.93
375.30	228.88
375.68	228.80
376.06	228.74
376.44	228.64
376.82	228.56
377.19	228.51
377.57	228.49
377.95	228.40
378.33	228.28
378.71	228.14
379.09	228.11
379.47	228.07
379.84	227.95
380.22	227.85
380.60	227.75
380.98	227.73
381.36	227.63
381.73	227.59
382.11	227.52
382.49	227.48
382.87	227.40
383.25	227.35
383.62	227.40
384.00	227.34
384.38	227.28
384.76	227.23
385.13	227.20
385.51	227.13
385.89	227.08
386.27	227.05
386.64	227.03
387.02	226.95
387.40	226.88
387.78	226.86
388.15	226.80
388.53	226.76
388.91	226.71
389.29	226.71
389.66	226.66
390.04	226.59
390.42	226.56
390.79	226.54
391.17	226.50
391.55	226.38
391.92	226.34
392.30	226.35
392.68	226.36
393.05	226.35
393.43	226.34
393.81	226.33
394.18	226.32
394.56	226.33
394.94	226.35
395.31	226.36
395.69	226.41
396.06	226.49
396.44	226.55
396.82	226.55
397.19	226.61
397.57	226.65
397.95	226.76
398.32	226.79
398.70	226.84
399.07	226.95
399.45	227.00
399.82	227.07
400.20	227.13
400.58	227.22
400.95	227.26
401.33	227.36
401.70	227.51
402.08	227.61
402.45	227.73
402.83	227.87
403.20	227.97
403.58	228.05
403.95	228.17
404.33	228.28
404.71	228.42
405.08	228.61
405.46	228.75
405.83	228.87
406.21	229.04
406.58	229.24
406.96	229.40
407.33	229.59
407.70	229.80
408.08	230.08
408.45	230.27
408.83	230.51
409.20	230.70
409.58	230.91
409.95	231.16
410.33	231.41
410.70	231.62
411.08	231.93
411.45	232.27
411.82	232.56
412.20	232.93
412.57	233.36
412.95	233.64
413.32	234.04
413.69	234.44
414.07	234.89
414.44	235.34
414.82	235.81
415.19	236.35
415.56	236.86
415.94	237.41
416.31	238.06
416.68	238.65
417.06	239.38
417.43	240.06
417.81	240.86
418.18	241.62
418.55	242.47
418.93	243.33
419.30	244.26
419.67	245.22
420.04	246.17
420.42	247.17
420.79	248.34
421.16	249.48
421.54	250.69
421.91	251.89
422.28	253.12
422.66	254.47
423.03	255.78
423.40	257.14
423.77	258.53
424.15	259.90
424.52	261.39
424.89	263.00
425.26	264.57
425.64	266.01
426.01	267.60
426.38	269.27
426.75	270.97
427.13	272.68
427.50	274.48
427.87	276.37
428.24	278.21
428.61	279.97
428.99	281.95
429.36	284.03
429.73	286.06
430.10	288.07
430.47	290.13
430.85	292.21
431.22	294.43
431.59	296.84
431.96	299.13
432.33	301.63
432.70	304.06
433.08	306.82
433.45	309.50
433.82	312.15
434.19	315.04
434.56	317.82
434.93	320.45
435.30	323.07
435.68	326.01
436.05	328.86
436.42	331.65
436.79	334.15
437.16	336.84
437.53	339.75
437.90	342.62
438.27	345.34
438.64	348.21
439.01	350.83
439.38	353.05
439.75	355.19
440.13	357.68
440.50	360.00
440.87	361.90
441.24	363.81
441.61	365.96
441.98	367.45
442.35	369.30
442.72	371.19
443.09	372.97
443.46	373.93
443.83	374.53
444.20	375.02
444.57	375.86
444.94	376.15
445.31	376.45
445.68	376.75
446.05	376.82
446.42	376.44
446.79	375.97
447.16	375.52
447.53	375.19
447.90	374.02
448.27	372.82
448.64	371.23
449.01	370.07
449.37	368.12
449.74	366.19
450.11	363.90
450.48	361.42
450.85	358.92
451.22	356.78
451.59	354.76
451.96	352.86
452.33	350.26
452.70	347.93
453.07	345.14
453.43	342.25
453.80	339.53
454.17	336.87
454.54	334.39
454.91	331.64
455.28	328.99
455.65	326.49
456.02	324.03
456.38	321.88
456.75	319.22
457.12	316.92
457.49	314.71
457.86	312.58
458.23	310.74
458.59	308.69
458.96	306.64
459.33	304.78
459.70	302.91
460.07	301.39
460.43	299.65
460.80	297.99
461.17	296.57
461.54	295.07
461.91	293.64
462.27	292.16
462.64	290.93
463.01	289.61
463.38	288.32
463.74	286.98
464.11	285.77
464.48	284.79
464.85	283.69
465.21	282.80
465.58	281.89
465.95	280.77
466.32	279.85
466.68	278.92
467.05	278.01
467.42	277.12
467.78	276.19
468.15	275.32
468.52	274.67
468.88	273.78
469.25	272.99
469.62	272.34
469.98	271.69
470.35	271.07
470.72	270.48
471.08	269.82
471.45	269.32
471.82	268.81
472.18	268.17
472.55	267.77
472.92	267.27
473.28	266.77
473.65	266.28
474.02	265.85
474.38	265.46
474.75	265.09
475.11	264.74
475.48	264.48
475.85	264.22
476.21	263.96
476.58	263.78
476.94	263.63
477.31	263.43
477.67	263.27
478.04	263.13
478.41	263.01
478.77	263.04
479.14	262.92
479.50	262.93
479.87	263.01
480.23	263.07
480.60	263.12
480.96	263.20
481.33	263.42
481.69	263.62
482.06	263.82
482.42	264.02
482.79	264.27
483.15	264.55
483.52	264.91
483.88	265.25
484.25	265.61
484.61	266.00
484.98	266.48
485.34	267.00
485.71	267.58
486.07	268.20
486.44	268.76
486.80	269.45
487.17	270.14
487.53	270.95
487.90	271.78
488.26	272.70
488.62	273.69
488.99	274.63
489.35	275.65
489.72	276.77
490.08	277.97
490.44	279.18
490.81	280.54
491.17	281.90
491.54	283.39
491.90	284.92
492.26	286.60
492.63	288.29
492.99	290.07
493.36	291.97
493.72	294.02
494.08	296.16
494.45	298.43
494.81	300.79
495.17	303.20
495.54	305.78
495.90	308.52
496.26	311.34
496.63	314.29
496.99	317.41
497.35	320.69
497.72	324.11
498.08	327.66
498.44	331.33
498.80	335.28
499.17	339.34
499.53	343.52
499.89	347.90
500.26	352.47
500.62	357.15
500.98	362.12
501.34	367.19
501.71	372.47
502.07	377.95
502.43	383.58
502.79	389.45
503.16	395.48
503.52	401.74
503.88	408.17
504.24	414.85
504.60	421.74
504.97	428.88
505.33	436.23
505.69	443.97
506.05	451.76
506.41	459.64
506.78	467.83
507.14	476.26
507.50	484.98
507.86	493.98
508.22	503.25
508.59	512.39
508.95	522.04
509.31	531.90
509.67	542.01
510.03	552.28
510.39	562.85
510.75	573.67
511.12	584.63
511.48	595.93
511.84	607.39
512.20	618.90
512.56	630.82
512.92	643.01
513.28	655.40
513.64	667.92
514.00	680.63
514.37	693.64
514.73	706.76
515.09	719.79
515.45	733.10
515.81	746.60
516.17	760.72
516.53	774.82
516.89	788.98
517.25	803.14
517.61	817.65
517.97	832.20
518.33	846.65
518.69	861.38
519.05	876.46
519.41	891.70
519.77	907.35
520.13	922.85
520.49	938.27
520.85	953.66
521.21	969.49
521.57	985.83
521.93	1001.58
522.29	1018.07
522.65	1034.41
523.01	1050.69
523.37	1066.89
523.73	1083.04
524.09	1099.16
524.45	1115.58
524.81	1132.26
525.17	1149.12
525.53	1166.05
525.89	1183.03
526.25	1199.87
526.61	1216.30
526.97	1233.10
527.33	1249.46
527.68	1266.24
528.04	1282.72
528.40	1299.42
528.76	1316.35
529.12	1332.94
529.48	1349.85
529.84	1365.91
530.20	1382.69
530.56	1399.74
530.91	1417.16
531.27	1433.93
531.63	1450.37
531.99	1466.91
532.35	1482.82
532.71	1498.63
533.07	1514.91
533.42	1530.72
533.78	1546.89
534.14	1563.13
534.50	1578.45
534.86	1594.40
535.21	1609.59
535.57	1625.79
535.93	1641.40
536.29	1656.36
536.65	1671.46
537.00	1686.40
537.36	1701.83
537.72	1716.28
538.08	1730.68
538.44	1744.51
538.79	1758.56
539.15	1772.37
539.51	1786.18
539.87	1800.80
540.22	1814.70
540.58	1828.55
540.94	1841.95
541.29	1854.91
541.65	1867.65
542.01	1880.94
542.37	1893.21
542.72	1905.62
543.08	1917.30
543.44	1929.62
543.79	1940.79
544.15	1951.81
544.51	1963.31
544.87	1974.28
545.22	1985.14
545.58	1995.39
545.94	2005.27
546.29	2015.18
546.65	2024.97
547.01	2034.29
547.36	2043.04
547.72	2051.66
548.07	2059.43
548.43	2067.71
548.79	2075.76
549.14	2083.28
549.50	2090.64
549.86	2098.61
550.21	2105.98
550.57	2113.26
550.92	2119.88
551.28	2127.11
551.64	2134.23
551.99	2140.75
552.35	2146.86
552.70	2153.03
553.06	2159.18
553.41	2165.53
553.77	2171.63
554.13	2177.86
554.48	2184.08
554.84	2189.38
555.19	2194.59
555.55	2199.79
555.90	2204.30
556.26	2209.10
556.61	2213.98
556.97	2218.27
557.32	2222.38
557.68	2226.45
558.03	2230.55
558.39	2234.46
558.74	2239.14
559.10	2243.00
559.45	2246.70
559.81	2251.09
560.16	2254.98
560.52	2258.23
560.87	2261.63
561.23	2264.24
561.58	2267.30
561.94	2269.80
562.29	2272.39
562.64	2275.14
563.00	2277.78
563.35	2281.28
563.71	2284.60
564.06	2287.77
564.42	2290.67
564.77	2293.17
565.12	2295.45
565.48	2297.43
565.83	2299.02
566.19	2300.22
566.54	2301.18
566.89	2302.26
567.25	2302.73
567.60	2304.01
567.96	2305.47
568.31	2306.31
568.66	2307.27
569.02	2307.59
569.37	2307.84
569.72	2308.45
570.08	2308.49
570.43	2308.43
570.78	2307.64
571.14	2306.01
571.49	2304.53
571.84	2304.05
572.20	2302.71
572.55	2301.58
572.90	2300.08
573.26	2298.62
573.61	2296.88
573.96	2295.00
574.31	2291.93
574.67	2288.77
575.02	2285.06
575.37	2281.70
575.72	2277.81
576.08	2274.63
576.43	2271.38
576.78	2267.68
577.13	2264.44
577.49	2261.18
577.84	2257.70
578.19	2254.03
578.54	2250.16
578.90	2245.94
579.25	2240.42
579.60	2235.35
579.95	2230.30
580.30	2225.14
580.66	2220.03
581.01	2214.94
581.36	2209.89
581.71	2205.61
582.06	2201.10
582.42	2196.47
582.77	2191.16
583.12	2186.39
583.47	2181.27
583.82	2176.06
584.17	2170.66
584.53	2165.13
584.88	2159.34
585.23	2153.37
585.58	2147.85
585.93	2142.46
586.28	2137.64
586.63	2132.41
586.98	2127.27
587.34	2122.48
587.69	2117.52
588.04	2112.13
588.39	2106.22
588.74	2099.81
589.09	2093.61
589.44	2086.80
589.79	2080.77
590.14	2075.06
590.49	2068.42
590.84	2062.09
591.19	2056.05
591.54	2049.47
591.89	2041.89
592.25	2035.10
592.60	2027.90
592.95	2020.24
593.30	2012.77
593.65	2005.04
594.00	1997.96
594.35	1990.81
594.70	1982.76
595.05	1975.39
595.40	1968.05
595.75	1960.64
596.10	1954.21
596.45	1947.36
596.80	1941.11
597.15	1934.37
597.50	1927.08
597.85	1920.67
598.19	1913.93
598.54	1906.79
598.89	1900.22
599.24	1894.46
599.59	1887.77
599.94	1881.50
600.29	1875.16
600.64	1868.52
600.99	1860.99
601.34	1854.10
601.69	1847.08
602.04	1839.97
602.39	1832.63
602.74	1825.76
603.08	1819.08
603.43	1812.43
603.78	1805.19
604.13	1797.87
604.48	1790.52
604.83	1783.75
605.18	1776.67
605.53	1768.53
605.87	1760.36
606.22	1753.02
606.57	1744.89
606.92	1737.52
607.27	1730.25
607.62	1723.15
607.96	1715.76
608.31	1709.11
608.66	1701.32
609.01	1693.61
609.36	1686.12
609.70	1678.01
610.05	1669.77
610.40	1661.86
610.75	1653.45
611.10	1645.74
611.44	1637.46
611.79	1629.62
612.14	1620.89
612.49	1611.86
612.83	1603.62
613.18	1595.64
613.53	1587.64
613.88	1579.13
614.22	1570.88
614.57	1562.30
614.92	1554.24
615.27	1546.69
615.61	1538.44
615.96	1530.55
616.31	1523.06
616.65	1515.78
617.00	1508.23
617.35	1500.75
617.70	1492.48
618.04	1483.92
618.39	1475.66
618.74	1467.93
619.08	1459.61
619.43	1452.04
619.78	1445.07
620.12	1437.85
620.47	1430.29
620.82	1422.08
621.16	1414.77
621.51	1407.13
621.85	1399.61
622.20	1391.26
622.55	1383.07
622.89	1375.28
623.24	1367.66
623.59	1360.24
623.93	1352.62
624.28	1345.35
624.62	1337.87
624.97	1330.74
625.32	1324.16
625.66	1317.19
626.01	1310.00
626.35	1302.42
626.70	1294.64
627.04	1286.90
627.39	1279.20
627.73	1271.73
628.08	1264.74
628.43	1257.40
628.77	1249.96
629.12	1242.28
629.46	1234.98
629.81	1227.50
630.15	1220.16
630.50	1212.86
630.84	1204.69
631.19	1196.86
631.53	1189.40
631.88	1181.82
632.22	1174.28
632.57	1166.87
632.91	1159.36
633.26	1152.03
633.60	1144.79
633.95	1137.70
634.29	1130.65
634.64	1123.97
634.98	1116.62
635.32	1109.47
635.67	1102.96
636.01	1096.31
636.36	1089.52
636.70	1083.12
637.05	1076.56
637.39	1070.12
637.73	1063.54
638.08	1057.67
638.42	1051.63
638.77	1045.18
639.11	1038.51
639.45	1032.00
639.80	1025.36
640.14	1018.84
640.49	1012.34
640.83	1006.01
641.17	999.79
641.52	993.50
641.86	987.11
642.20	981.42
642.55	975.19
642.89	968.59
643.23	962.13
643.58	956.36
643.92	950.03
644.26	943.98
644.61	937.93
644.95	931.91
645.29	925.26
645.64	918.51
645.98	912.16
646.32	906.38
646.66	900.46
647.01	894.65
647.35	888.97
647.69	883.13
648.04	877.59
648.38	871.76
648.72	865.71
649.06	859.59
649.41	853.58
649.75	847.57
650.09	841.65
650.43	835.85
650.78	829.68
651.12	823.81
651.46	818.03
651.80	812.27
652.14	806.87
652.49	801.49
652.83	796.26
653.17	790.58
653.51	784.88
653.85	779.45
654.20	773.84
654.54	767.90
654.88	762.13
655.22	756.25
655.56	750.64
655.90	745.22
656.25	740.02
656.59	734.65
656.93	729.58
657.27	724.41
657.61	718.97
657.95	713.87
658.29	708.81
658.64	703.61
658.98	698.34
659.32	692.88
659.66	687.64
660.00	682.38
660.34	677.46
660.68	672.50
661.02	667.42
661.36	662.71
661.70	658.13
662.05	653.80
662.39	649.47
662.73	645.05
663.07	640.63
663.41	636.19
663.75	631.73
664.09	627.16
664.43	622.81
664.77	618.71
665.11	614.48
665.45	610.33
665.79	606.22
666.13	602.09
666.47	598.00
666.81	593.90
667.15	589.75
667.49	585.91
667.83	582.10
668.17	578.20
668.51	574.11
668.85	570.19
669.19	566.29
669.53	562.45
669.87	558.56
670.21	554.90
670.55	551.23
670.89	547.80
671.23	544.43
671.57	540.91
671.91	537.39
672.25	533.93
672.58	530.44
672.92	527.07
673.26	523.95
673.60	520.81
673.94	517.70
674.28	514.82
674.62	511.84
674.96	508.79
675.30	505.89
675.64	502.98
675.97	500.19
676.31	497.36
676.65	494.40
676.99	491.67
677.33	488.80
677.67	485.99
678.01	482.95
678.34	479.85
678.68	477.05
679.02	474.23
679.36	471.45
679.70	468.71
680.04	465.96
680.37	463.08
680.71	460.34
681.05	457.76
681.39	455.06
681.73	452.39
682.06	449.84
682.40	447.30
682.74	444.75
683.08	442.23
683.42	439.66
683.75	437.19
684.09	434.68
684.43	432.21
684.77	429.75
685.10	427.45
685.44	425.20
685.78	422.88
686.12	420.62
686.45	418.36
686.79	416.04
687.13	413.82
687.46	411.67
687.80	409.47
688.14	407.24
688.48	405.20
688.81	402.98
689.15	400.82
689.49	398.60
689.82	396.56
690.16	394.42
690.50	392.49
690.83	390.53
691.17	388.53
691.51	386.60
691.84	384.73
692.18	382.74
692.52	380.75
692.85	378.77
693.19	376.91
693.52	375.08
693.86	373.29
694.20	371.52
694.53	369.71
694.87	367.85
695.21	366.03
695.54	364.18
695.88	362.42
696.21	360.76
696.55	359.08
696.88	357.40
697.22	355.76
697.56	354.12
697.89	352.47
698.23	350.86
698.56	349.26
698.90	347.66
699.23	346.02
699.57	344.49
699.90	342.98
700.24	341.43
700.58	339.90
700.91	338.40
701.25	336.94
701.58	335.56
701.92	334.18
702.25	332.84
702.59	331.50
702.92	330.21
703.26	328.88
703.59	327.62
703.93	326.42
704.26	325.18
704.60	323.87
704.93	322.58
705.26	321.30
705.60	320.16
705.93	319.06
706.27	318.06
706.60	317.04
706.94	315.96
707.27	314.84
707.61	313.77
707.94	312.77
708.27	311.70
708.61	310.64
708.94	309.67
709.28	308.70
709.61	307.74
709.94	306.75
710.28	305.74
710.61	304.81
710.95	303.72
711.28	302.80
711.61	301.89
711.95	300.99
712.28	300.08
712.61	299.09
712.95	298.13
713.28	297.24
713.61	296.35
713.95	295.49
714.28	294.69
714.61	293.84
714.95	293.00
715.28	292.16
715.61	291.35
715.95	290.50
716.28	289.63
716.61	288.83
716.95	288.03
717.28	287.31
717.61	286.52
717.94	285.80
718.28	285.00
718.61	284.30
718.94	283.62
719.27	282.97
719.61	282.35
719.94	281.71
720.27	280.98
720.60	280.30
720.94	279.65
721.27	279.01
721.60	278.45
721.93	277.83
722.27	277.30
722.60	276.73
722.93	276.15
723.26	275.62
723.59	275.09
723.93	274.59
724.26	274.03
724.59	273.49
724.92	272.99
725.25	272.49
725.59	271.95
725.92	271.44
726.25	270.93
726.58	270.43
726.91	269.92
727.24	269.46
727.57	269.01
727.91	268.54
728.24	268.07
728.57	267.55
728.90	267.12
729.23	266.58
729.56	266.13
729.89	265.69
730.22	265.22
730.55	264.70
730.89	264.23
731.22	263.78
731.55	263.33
731.88	262.90
732.21	262.46
732.54	262.04
732.87	261.58
733.20	261.20
733.53	260.81
733.86	260.44
734.19	260.01
734.52	259.58
734.85	259.27
735.18	258.87
735.51	258.53
735.84	258.14
736.17	257.78
736.50	257.38
736.83	257.15
737.16	256.81
737.49	256.50
737.82	256.15
738.15	255.77
738.48	255.39
738.81	255.03
739.14	254.69
739.47	254.34
739.80	254.03
740.13	253.71
740.46	253.34
740.79	252.99
741.12	252.66
741.45	252.37
741.78	251.99
742.11	251.69
742.44	251.32
742.77	251.01
743.10	250.71
743.43	250.35
743.75	249.94
744.08	249.75
744.41	249.48
744.74	249.17
745.07	248.87
745.40	248.63
745.73	248.41
746.06	248.14
746.39	247.90
746.71	247.65
747.04	247.38
747.37	247.11
747.70	246.90
748.03	246.68
748.36	246.43
748.68	246.23
749.01	245.97
749.34	245.77
749.67	245.54
750.00	245.36
750.33	245.24
750.65	245.02
750.98	244.67
751.31	244.44
751.64	244.30
751.97	244.17
752.29	243.96
752.62	243.75
752.95	243.56
753.28	243.37
753.60	243.12
753.93	242.93
754.26	242.80
754.59	242.56
754.91	242.34
755.24	242.16
755.57	241.94
755.90	241.77
756.22	241.58
756.55	241.40
756.88	241.22
757.20	241.00
757.53	240.79
757.86	240.67
758.19	240.53
758.51	240.35
758.84	240.15
759.17	240.03
759.49	239.87
759.82	239.74
760.15	239.61
760.47	239.52
760.80	239.36
761.13	239.22
761.45	239.10
761.78	238.97
762.11	238.87
762.43	238.76
762.76	238.61
763.08	238.48
763.41	238.38
763.74	238.22
764.06	238.09
764.39	238.00
764.71	237.87
765.04	237.74
765.37	237.63
765.69	237.51
766.02	237.38
766.34	237.25
766.67	237.12
767.00	236.96
767.32	236.93
767.65	236.89
767.97	236.77
768.30	236.63
768.62	236.53
768.95	236.41
769.27	236.26
769.60	236.17
769.92	236.03
770.25	235.91
770.57	235.77
770.90	235.66
771.22	235.55
771.55	235.43
771.87	235.33
772.20	235.18
772.52	235.17
772.85	235.16
773.17	235.07
773.50	234.96
773.82	234.90
774.15	234.72
774.47	234.56
774.80	234.43
775.12	234.37
775.45	234.29
775.77	234.19
776.09	234.11
776.42	234.03
776.74	233.97
777.07	233.87
777.39	233.80
777.72	233.72
778.04	233.63
778.36	233.57
778.69	233.47
779.01	233.41
779.33	233.22
779.66	233.05
779.98	232.95
780.31	232.86
780.63	232.80
780.95	232.73
781.28	232.66
781.60	232.60
781.92	232.51
782.25	232.40
782.57	232.34
782.89	232.25
783.22	232.16
783.54	232.09
783.86	232.02
784.19	231.96
784.51	231.90
784.83	231.81
785.16	231.72
785.48	231.67
785.80	231.60
786.12	231.56
786.45	231.49
786.77	231.46
787.09	231.40
787.42	231.34
787.74	231.28
788.06	231.26
788.38	231.21
788.71	231.16
789.03	231.14
789.35	231.09
789.67	231.07
789.99	231.04
790.32	231.00
790.64	230.97
790.96	231.02
791.28	230.95
791.61	230.93
791.93	230.90
792.25	230.86
792.57	230.89
792.89	230.86
793.21	230.83
793.54	230.77
793.86	230.71
794.18	230.66
794.50	230.62
794.82	230.53
795.14	230.50
795.47	230.49
795.79	230.47
796.11	230.45
796.43	230.41
796.75	230.37
797.07	230.34
797.39	230.32
797.71	230.23
798.04	230.25
798.36	230.22
798.68	230.20
799.00	230.19
799.32	230.15
799.64	230.16
799.96	230.15
800.28	230.16
800.60	230.16
800.92	230.17
801.24	230.15
801.56	230.18
801.89	230.14
802.21	230.13
802.53	230.13
802.85	230.13
803.17	230.17
803.49	230.13
803.81	230.12
804.13	230.08
804.45	230.06
804.77	230.02
805.09	229.99
805.41	229.98
805.73	229.93
806.05	229.87
806.37	229.82
806.69	229.77
807.01	229.73
807.33	229.72
807.65	229.67
807.97	229.69
808.28	229.64
808.60	229.64
808.92	229.59
809.24	229.61
809.56	229.56
809.88	229.52
810.20	229.52
810.52	229.52
810.84	229.48
811.16	229.45
811.48	229.43
811.80	229.45
812.12	229.46
812.43	229.47
812.75	229.48
813.07	229.47
813.39	229.44
813.71	229.42
814.03	229.40
814.35	229.38
814.67	229.33
814.98	229.29
815.30	229.24
815.62	229.24
815.94	229.15
816.26	229.20
816.58	229.14
816.89	229.15
817.21	229.10
817.53	229.11
817.85	229.09
818.17	229.08
818.48	229.05
818.80	229.02
819.12	228.98
819.44	228.95
819.76	228.91
820.07	228.91
820.39	228.90
820.71	228.89
821.03	228.86
821.34	228.83
821.66	228.82
821.98	228.80
822.30	228.77
822.61	228.81
822.93	228.71
823.25	228.68
823.57	228.62
823.88	228.62
824.20	228.57
824.52	228.55
824.83	228.51
825.15	228.44
825.47	228.41
825.79	228.37
826.10	228.32
826.42	228.30
826.74	228.27
827.05	228.26
827.37	228.23
827.69	228.23
828.00	228.23
828.32	228.23
828.64	228.23
828.95	228.26
829.27	228.22
829.58	228.18
829.90	228.23
830.22	228.25
830.53	228.20
830.85	228.19
831.17	228.16
831.48	228.15
831.80	228.14
832.11	228.17
832.43	228.14
832.75	228.14
833.06	228.20
833.38	228.18
833.69	228.15
834.01	228.15
834.32	228.12
834.64	228.10
834.96	228.07
835.27	228.07
835.59	228.04
835.90	227.98
836.22	228.00
836.53	227.97
836.85	227.95
837.16	228.05
837.48	228.06
837.79	228.07
838.11	228.10
838.42	228.11
838.74	228.08
839.05	228.09
839.37	228.10
839.68	228.02
840.00	228.03
840.31	228.03
840.63	228.00
840.94	228.00
841.26	228.01
841.57	228.02
841.88	227.99
842.20	227.99
842.51	228.01
842.83	228.01
843.14	228.04
843.46	228.04
843.77	227.99
844.08	227.99
844.40	227.97
844.71	227.94
845.03	227.92
845.34	227.94
845.65	227.94
845.97	227.95
846.28	227.96
846.60	227.96
846.91	227.94
847.22	227.95
847.54	227.97
847.85	227.95
848.16	227.96
848.48	227.97
848.79	227.99
849.10	228.02
849.42	228.01
849.73	227.92
850.04	227.92
850.36	227.88
850.67	227.89
850.98	227.87
851.30	227.89
851.61	227.90
851.92	227.88
852.23	227.89
852.55	227.86
852.86	227.85
853.17	227.86
853.49	227.90
853.80	227.90
854.11	227.89
854.42	227.95
854.74	227.88
855.05	227.86
855.36	227.81
855.67	227.79
855.99	227.81
856.30	227.97
856.61	227.96
856.92	227.94
857.23	227.95
857.55	227.96
857.86	227.94
858.17	227.93
858.48	227.89
858.79	227.86
859.11	227.89
859.42	227.88
859.73	227.88
860.04	227.84
860.35	227.83
860.66	227.81
860.98	227.75
861.29	227.77
861.60	227.78
861.91	227.82
862.22	227.80
862.53	227.76
862.84	227.62
863.16	227.64
863.47	227.64
863.78	227.58
864.09	227.55
864.40	227.54
864.71	227.58
865.02	227.60
865.33	227.57
865.64	227.58
865.95	227.58
866.27	227.63
866.58	227.65
866.89	227.65
867.20	227.65
867.51	227.69
867.82	227.70
868.13	227.71
868.44	227.66
868.75	227.65
869.06	227.62
869.37	227.65
869.68	227.64
869.99	227.65
870.30	227.67
870.61	227.70
870.92	227.68
871.23	227.64
871.54	227.65
871.85	227.68
872.16	227.66
872.47	227.66
872.78	227.59
873.09	227.58
873.40	227.58
873.71	227.55
874.02	227.53
874.33	227.52
874.64	227.51
874.95	227.54
875.26	227.56
875.56	227.56
875.87	227.52
876.18	227.52
876.49	227.60
876.80	227.62
877.11	227.62
877.42	227.65
877.73	227.67
878.04	227.66
878.35	227.64
878.66	227.65
878.96	227.64
879.27	227.63
879.58	227.64
879.89	227.61
880.20	227.65
880.51	227.64
880.82	227.64
881.12	227.65
881.43	227.65
881.74	227.60
882.05	227.63
882.36	227.67
882.67	227.67
882.97	227.55
883.28	227.52
883.59	227.50
883.90	227.50
884.21	227.49
884.51	227.49
884.82	227.51
885.13	227.51
885.44	227.52
885.74	227.54
886.05	227.54
886.36	227.52
886.67	227.47
886.98	227.52
887.28	227.53
887.59	227.49
887.90	227.47
888.20	227.45
888.51	227.46
888.82	227.41
889.13	227.41
889.43	227.50
889.74	227.50
890.05	227.50
890.35	227.48
890.66	227.46
890.97	227.47
891.28	227.42
891.58	227.42
891.89	227.40
892.20	227.37
892.50	227.32
892.81	227.31
893.12	227.32
893.42	227.27
893.73	227.27
894.04	227.27
894.34	227.29
894.65	227.31
894.95	227.29
895.26	227.32
895.57	227.34
895.87	227.25
896.18	227.26
896.48	227.27
896.79	227.26
897.10	227.27
897.40	227.25
897.71	227.27
898.01	227.22
898.32	227.26
898.63	227.23
898.93	227.25
899.24	227.24
899.54	227.22
899.85	227.18
900.15	227.17
900.46	227.15
900.76	227.11
901.07	227.09
901.38	227.09
901.68	227.07
901.99	227.05
902.29	227.02
902.60	227.00
902.90	226.99
903.21	227.00
903.51	226.99
903.82	226.99
904.12	226.97
904.43	226.98
904.73	226.97
905.03	226.98
905.34	227.03
905.64	227.06
905.95	227.03
906.25	227.03
906.56	227.03
906.86	227.03
907.17	227.04
907.47	227.01
907.77	226.97
908.08	226.97
908.38	226.96
908.69	226.97
908.99	226.97
909.30	226.95
909.60	226.90
909.90	226.89
910.21	226.90
910.51	226.87
910.81	226.87
911.12	226.86
911.42	226.88
911.73	226.82
912.03	226.83
912.33	226.89
912.64	226.90
912.94	226.84
913.24	226.85
913.55	226.85
913.85	226.87
914.15	226.91
914.46	226.92
914.76	226.92
915.06	226.93
915.37	226.91
915.67	226.94
915.97	226.99
916.27	226.98
916.58	226.97
916.88	227.02
917.18	227.03
917.49	227.10
917.79	227.09
918.09	227.07
918.39	227.08
918.70	227.08
919.00	227.07
919.30	227.14
919.60	227.13
919.91	227.15
920.21	227.16
920.51	227.14
920.81	227.12
921.12	227.16
921.42	227.19
921.72	227.23
922.02	227.22
922.32	227.25
922.63	227.25
922.93	227.31
923.23	227.28
923.53	227.26
923.83	227.22
924.13	227.23
924.44	227.25
924.74	227.31
925.04	227.31
925.34	227.31
925.64	227.29
925.94	227.31
926.24	227.30
926.55	227.28
926.85	227.29
927.15	227.30
927.45	227.27
927.75	227.26
928.05	227.27
928.35	227.27
928.65	227.27
928.95	227.31
929.26	227.26
929.56	227.29
929.86	227.29
930.16	227.28
930.46	227.25
930.76	227.25
931.06	227.17
931.36	227.14
931.66	227.20
931.96	227.21
932.26	227.19
932.56	227.18
932.86	227.18
933.16	227.18
933.46	227.19
933.76	227.14
934.06	227.17
934.36	227.19
934.66	227.21
934.96	227.18
935.26	227.17
935.56	227.18
935.86	227.16
936.16	227.15
936.46	227.13
936.76	227.16
937.06	227.13
937.36	227.16
937.66	227.15
937.96	227.11
938.26	227.07
938.56	227.09
938.86	227.08
939.16	227.13
939.46	227.16
939.76	227.12
940.06	227.14
940.35	227.12
940.65	227.04
940.95	227.02
941.25	226.98
941.55	226.97
941.85	226.96
942.15	226.96
942.45	227.01
942.75	226.98
943.04	226.97
943.34	227.00
943.64	226.96
943.94	226.96
944.24	226.94
944.54	226.95
944.84	226.93
945.13	226.94
945.43	226.89
945.73	226.85
946.03	226.88
946.33	226.86
946.62	226.88
946.92	226.87
947.22	226.85
947.52	226.87
947.82	226.87
948.11	226.86
948.41	226.85
948.71	226.83
949.01	226.84
949.31	226.84
949.60	226.86
949.90	226.89
950.20	226.89
950.50	226.91
950.79	226.91
951.09	226.94
951.39	226.95
951.69	226.98
951.98	227.01
952.28	226.99
952.58	227.01
952.87	226.99
953.17	227.02
953.47	227.01
953.76	227.04
954.06	227.03
954.36	227.01
954.66	227.00
954.95	227.01
955.25	227.05
955.55	227.05
955.84	227.02
956.14	227.04
956.44	227.04
956.73	227.03
957.03	227.00
957.32	226.99
957.62	227.00
957.92	227.01
958.21	227.01
958.51	227.15
958.81	227.16
959.10	227.17
959.40	227.18
959.69	227.21
959.99	227.21
960.29	227.21
960.58	227.22
960.88	227.27
961.17	227.26
961.47	227.24
961.76	227.22
962.06	227.24
962.36	227.22
962.65	227.22
962.95	227.24
963.24	227.25
963.54	227.27
963.83	227.25
964.13	227.24
964.42	227.20
964.72	227.11
965.01	227.11
965.31	227.09
965.60	227.07
965.90	227.13
966.19	227.08
966.49	227.07
966.78	227.10
967.08	227.08
967.37	227.09
967.67	227.09
967.96	227.14
968.26	227.11
968.55	227.11
968.85	227.11
969.14	227.11
969.43	227.12
969.73	227.10
970.02	227.09
970.32	227.09
970.61	227.05
970.91	227.01
971.20	227.01
971.49	226.99
971.79	227.00
972.08	226.92
972.38	226.94
972.67	226.93
972.96	226.91
973.26	226.87
973.55	226.91
973.85	226.91
974.14	226.87
974.43	226.89
974.73	226.87
975.02	226.86
975.31	226.86
975.61	226.85
975.90	226.83
976.19	226.82
976.49	226.81
976.78	226.86
977.07	226.86
977.37	226.85
977.66	226.88
977.95	226.90
978.24	226.90
978.54	226.93
978.83	226.92
979.12	226.90
979.42	226.92
979.71	226.90
980.00	226.89
980.29	226.90
980.59	226.92
980.88	226.95
981.17	226.96
981.46	226.94
981.76	226.93
982.05	226.94
982.34	226.96
982.63	226.93
982.93	226.94
983.22	226.97
983.51	226.98
983.80	226.98
984.09	226.99
984.39	226.98
984.68	226.98
984.97	227.00
985.26	226.98
985.55	227.00
985.85	226.97
986.14	226.96
986.43	226.96
986.72	226.92
987.01	226.89
987.30	226.92
987.59	226.90
987.89	226.91
988.18	226.93
988.47	226.95
988.76	227.00
989.05	226.97
989.34	226.94
989.63	226.97
989.92	226.96
990.22	226.92
990.51	226.91
990.80	226.93
991.09	226.92
991.38	226.93
991.67	226.91
991.96	226.93
992.25	226.95
992.54	226.93
992.83	226.94
993.12	226.94
993.41	226.95
993.70	226.97
993.99	227.00
994.28	227.01
994.58	227.00
994.87	226.98
995.16	226.99
995.45	226.98
995.74	226.91
996.03	226.92
996.32	226.93
996.61	226.95
996.90	226.94
997.19	226.96
997.48	226.96
997.77	226.97
998.06	226.94
998.34	226.94
998.63	226.93
998.92	226.93
999.21	226.92
999.50	226.91
999.79	226.90
1000.08	226.91
1000.37	226.92
1000.66	226.89
1000.95	226.91
1001.24	226.93
1001.53	226.96
1001.82	226.97
1002.11	226.95
1002.40	226.99
1002.68	227.02
1002.97	227.08
1003.26	227.06
1003.55	227.04
1003.84	227.03
1004.13	227.08
1004.42	227.07
1004.71	227.08
1004.99	227.07
1005.28	227.14
1005.57	227.13
1005.86	227.13
1006.15	227.07
1006.44	227.02
1006.72	227.03
1007.01	227.02
1007.30	227.00
1007.59	226.99
1007.88	227.00
1008.17	227.01
1008.45	226.97
1008.74	226.92
1009.03	226.89
1009.32	226.91
1009.60	226.92
1009.89	226.94
1010.18	226.92
1010.47	226.92
1010.76	226.94
1011.04	226.95
1011.33	226.93
1011.62	226.94
1011.91	226.94
1012.19	227.00
1012.48	227.00
1012.77	226.97
1013.05	227.01
1013.34	227.02
1013.63	227.01
1013.92	227.04
1014.20	227.03
1014.49	227.03
1014.78	227.05
1015.06	227.02
1015.35	227.01
1015.64	227.00
1015.92	227.00
1016.21	226.99
1016.50	226.98
1016.78	226.99
1017.07	227.00
1017.36	226.98
1017.64	226.92
1017.93	226.95
1018.22	226.92
1018.50	226.94
1018.79	226.96
1019.08	226.89
1019.36	226.90
1019.65	226.90
1019.93	226.90
1020.22	226.91
1020.51	226.97
1020.79	226.93
1021.08	226.47
1021.36	227.20
1021.65	226.74
1021.94	226.30
1022.22	227.10
1022.51	226.85
1022.79	227.08
1023.08	226.98
1023.36	228.08
1023.65	226.55
>>>>>End Processed Spectral Data<<<<<
