SpectraSuite Data File
++++++++++++++++++++++++++++++++++++
Date: Fri Feb 01 16:57:45 EST 2013
User: group
Dark Spectrum Present: No
Reference Spectrum Present: No
Number of Sampled Component Spectra: 1
Spectrometers: USB2E7196
Integration Time (usec): 35000 (USB2E7196)
Spectra Averaged: 100 (USB2E7196)
Boxcar Smoothing: 10 (USB2E7196)
Correct for Electrical Dark: No (USB2E7196)
Strobe/Lamp Enabled: No (USB2E7196)
Correct for Detector Non-linearity: No (USB2E7196)
Correct for Stray Light: No (USB2E7196)
Number of Pixels in Processed Spectrum: 2048
>>>>>Begin Processed Spectral Data<<<<<
339.09	0.00
339.48	213.65
339.86	214.58
340.24	216.55
340.63	217.79
341.01	220.50
341.39	220.55
341.78	222.14
342.16	223.26
342.54	223.52
342.93	212.02
343.31	222.75
343.69	223.30
344.07	223.78
344.46	224.19
344.84	224.52
345.22	224.79
345.60	225.04
345.99	225.23
346.37	225.36
346.75	225.46
347.13	225.52
347.52	225.57
347.90	225.65
348.28	225.67
348.66	225.67
349.05	225.64
349.43	225.68
349.81	225.72
350.19	225.75
350.57	225.81
350.96	225.87
351.34	225.94
351.72	225.97
352.10	226.08
352.48	226.14
352.87	226.22
353.25	226.23
353.63	226.28
354.01	226.29
354.39	226.34
354.77	226.40
355.15	226.50
355.54	226.53
355.92	226.55
356.30	226.61
356.68	226.75
357.06	226.84
357.44	226.91
357.82	226.94
358.20	227.02
358.58	227.02
358.97	227.06
359.35	227.13
359.73	227.23
360.11	227.24
360.49	227.32
360.87	227.36
361.25	227.44
361.63	227.49
362.01	227.53
362.39	227.55
362.77	227.61
363.15	227.63
363.53	227.69
363.91	227.72
364.29	227.78
364.67	227.70
365.05	227.69
365.43	227.71
365.81	227.71
366.19	227.74
366.57	227.79
366.95	227.79
367.33	227.76
367.71	227.74
368.09	227.77
368.47	227.74
368.85	227.76
369.23	227.71
369.61	227.66
369.99	227.68
370.37	227.65
370.75	227.68
371.13	227.64
371.51	227.58
371.89	227.54
372.27	227.48
372.65	227.45
373.03	227.42
373.41	227.35
373.78	227.30
374.16	227.20
374.54	227.12
374.92	227.10
375.30	227.05
375.68	226.95
376.06	226.91
376.44	226.85
376.82	226.77
377.19	226.70
377.57	226.66
377.95	226.57
378.33	226.54
378.71	226.39
379.09	226.33
379.47	226.28
379.84	226.22
380.22	226.17
380.60	226.06
380.98	225.99
381.36	225.92
381.73	225.88
382.11	225.82
382.49	225.78
382.87	225.69
383.25	225.60
383.62	225.67
384.00	225.56
384.38	225.52
384.76	225.49
385.13	225.47
385.51	225.42
385.89	225.36
386.27	225.30
386.64	225.28
387.02	225.22
387.40	225.17
387.78	225.14
388.15	225.10
388.53	225.07
388.91	225.05
389.29	225.03
389.66	224.98
390.04	224.95
390.42	224.94
390.79	224.95
391.17	224.95
391.55	224.83
391.92	224.86
392.30	224.85
392.68	224.83
393.05	224.83
393.43	224.83
393.81	224.85
394.18	224.86
394.56	224.84
394.94	224.87
395.31	224.91
395.69	224.93
396.06	224.96
396.44	225.01
396.82	225.02
397.19	225.10
397.57	225.15
397.95	225.21
398.32	225.22
398.70	225.23
399.07	225.31
399.45	225.34
399.82	225.37
400.20	225.41
400.58	225.45
400.95	225.46
401.33	225.54
401.70	225.67
402.08	225.73
402.45	225.84
402.83	225.95
403.20	226.00
403.58	226.09
403.95	226.19
404.33	226.33
404.71	226.42
405.08	226.57
405.46	226.66
405.83	226.76
406.21	226.90
406.58	227.08
406.96	227.21
407.33	227.41
407.70	227.57
408.08	227.81
408.45	228.04
408.83	228.31
409.20	228.50
409.58	228.63
409.95	228.90
410.33	229.14
410.70	229.39
411.08	229.68
411.45	229.98
411.82	230.28
412.20	230.59
412.57	231.00
412.95	231.26
413.32	231.68
413.69	232.10
414.07	232.54
414.44	232.98
414.82	233.46
415.19	234.01
415.56	234.58
415.94	235.12
416.31	235.76
416.68	236.34
417.06	237.09
417.43	237.80
417.81	238.56
418.18	239.33
418.55	240.19
418.93	241.08
419.30	241.99
419.67	242.93
420.04	243.88
420.42	244.87
420.79	246.10
421.16	247.25
421.54	248.45
421.91	249.70
422.28	250.98
422.66	252.31
423.03	253.58
423.40	254.89
423.77	256.27
424.15	257.71
424.52	259.23
424.89	260.86
425.26	262.41
425.64	263.85
426.01	265.42
426.38	267.00
426.75	268.66
427.13	270.37
427.50	272.17
427.87	274.05
428.24	275.90
428.61	277.65
428.99	279.60
429.36	281.69
429.73	283.71
430.10	285.69
430.47	287.75
430.85	289.86
431.22	292.10
431.59	294.49
431.96	296.73
432.33	299.22
432.70	301.57
433.08	304.35
433.45	307.00
433.82	309.60
434.19	312.50
434.56	315.29
434.93	317.93
435.30	320.52
435.68	323.40
436.05	326.23
436.42	328.98
436.79	331.48
437.16	334.17
437.53	336.99
437.90	339.79
438.27	342.47
438.64	345.32
439.01	347.93
439.38	350.17
439.75	352.31
440.13	354.76
440.50	357.05
440.87	358.86
441.24	360.77
441.61	362.92
441.98	364.41
442.35	366.20
442.72	368.05
443.09	369.88
443.46	370.86
443.83	371.43
444.20	371.97
444.57	372.83
444.94	373.13
445.31	373.48
445.68	373.82
446.05	373.92
446.42	373.50
446.79	373.06
447.16	372.60
447.53	372.26
447.90	371.10
448.27	369.97
448.64	368.44
449.01	367.31
449.37	365.37
449.74	363.49
450.11	361.24
450.48	358.80
450.85	356.25
451.22	354.11
451.59	352.09
451.96	350.13
452.33	347.51
452.70	345.13
453.07	342.31
453.43	339.45
453.80	336.66
454.17	334.03
454.54	331.48
454.91	328.77
455.28	326.09
455.65	323.58
456.02	321.18
456.38	319.01
456.75	316.35
457.12	314.08
457.49	311.83
457.86	309.70
458.23	307.82
458.59	305.83
458.96	303.77
459.33	301.97
459.70	300.12
460.07	298.63
460.43	296.93
460.80	295.30
461.17	293.88
461.54	292.43
461.91	290.98
462.27	289.55
462.64	288.31
463.01	287.01
463.38	285.75
463.74	284.40
464.11	283.27
464.48	282.24
464.85	281.15
465.21	280.30
465.58	279.37
465.95	278.28
466.32	277.35
466.68	276.45
467.05	275.53
467.42	274.66
467.78	273.75
468.15	272.89
468.52	272.24
468.88	271.41
469.25	270.66
469.62	270.10
469.98	269.44
470.35	268.81
470.72	268.21
471.08	267.58
471.45	267.06
471.82	266.52
472.18	265.95
472.55	265.51
472.92	265.04
473.28	264.61
473.65	264.19
474.02	263.78
474.38	263.44
474.75	263.15
475.11	262.83
475.48	262.56
475.85	262.32
476.21	262.14
476.58	261.95
476.94	261.80
477.31	261.62
477.67	261.51
478.04	261.44
478.41	261.39
478.77	261.43
479.14	261.38
479.50	261.40
479.87	261.52
480.23	261.66
480.60	261.74
480.96	261.84
481.33	262.06
481.69	262.31
482.06	262.50
482.42	262.74
482.79	262.99
483.15	263.32
483.52	263.75
483.88	264.08
484.25	264.50
484.61	264.96
484.98	265.46
485.34	266.01
485.71	266.61
486.07	267.26
486.44	267.83
486.80	268.57
487.17	269.33
487.53	270.12
487.90	270.97
488.26	271.92
488.62	272.91
488.99	273.93
489.35	274.96
489.72	276.08
490.08	277.28
490.44	278.52
490.81	279.90
491.17	281.27
491.54	282.76
491.90	284.30
492.26	285.94
492.63	287.65
492.99	289.43
493.36	291.35
493.72	293.35
494.08	295.47
494.45	297.69
494.81	300.05
495.17	302.46
495.54	305.04
495.90	307.73
496.26	310.51
496.63	313.42
496.99	316.53
497.35	319.78
497.72	323.17
498.08	326.69
498.44	330.31
498.80	334.19
499.17	338.19
499.53	342.30
499.89	346.63
500.26	351.07
500.62	355.73
500.98	360.67
501.34	365.72
501.71	371.00
502.07	376.43
502.43	381.98
502.79	387.80
503.16	393.81
503.52	400.03
503.88	406.41
504.24	413.04
504.60	419.85
504.97	426.94
505.33	434.18
505.69	441.84
506.05	449.58
506.41	457.35
506.78	465.51
507.14	473.93
507.50	482.56
507.86	491.54
508.22	500.65
508.59	509.75
508.95	519.20
509.31	528.94
509.67	538.85
510.03	549.12
510.39	559.53
510.75	570.20
511.12	580.97
511.48	592.10
511.84	603.36
512.20	614.75
512.56	626.50
512.92	638.48
513.28	650.71
513.64	663.00
514.00	675.64
514.37	688.36
514.73	701.26
515.09	714.07
515.45	727.18
515.81	740.55
516.17	754.36
516.53	768.33
516.89	782.33
517.25	796.37
517.61	810.52
517.97	824.76
518.33	838.97
518.69	853.48
519.05	868.22
519.41	883.22
519.77	898.54
520.13	913.81
520.49	929.02
520.85	944.16
521.21	959.62
521.57	975.53
521.93	991.00
522.29	1007.08
522.65	1023.18
523.01	1039.15
523.37	1054.87
523.73	1070.79
524.09	1086.56
524.45	1102.53
524.81	1118.77
525.17	1135.24
525.53	1151.84
525.89	1168.41
526.25	1185.03
526.61	1201.13
526.97	1217.47
527.33	1233.69
527.68	1249.90
528.04	1266.05
528.40	1282.22
528.76	1298.93
529.12	1315.26
529.48	1331.96
529.84	1347.52
530.20	1363.80
530.56	1380.43
530.91	1397.59
531.27	1413.98
531.63	1430.22
531.99	1446.49
532.35	1462.34
532.71	1478.02
533.07	1493.95
533.42	1509.54
533.78	1525.27
534.14	1541.29
534.50	1556.37
534.86	1571.86
535.21	1586.83
535.57	1602.52
535.93	1617.67
536.29	1632.06
536.65	1646.69
537.00	1661.05
537.36	1676.16
537.72	1690.34
538.08	1704.58
538.44	1718.07
538.79	1731.68
539.15	1745.07
539.51	1758.49
539.87	1772.48
540.22	1785.85
540.58	1799.38
540.94	1812.46
541.29	1824.97
541.65	1837.38
542.01	1850.39
542.37	1862.48
542.72	1874.74
543.08	1886.20
543.44	1898.47
543.79	1909.67
544.15	1920.56
544.51	1931.93
544.87	1942.83
545.22	1953.56
545.58	1963.54
545.94	1973.04
546.29	1982.77
546.65	1992.35
547.01	2001.49
547.36	2010.09
547.72	2018.44
548.07	2026.29
548.43	2034.26
548.79	2042.29
549.14	2049.70
549.50	2056.95
549.86	2064.48
550.21	2071.62
550.57	2078.82
550.92	2085.37
551.28	2092.31
551.64	2099.29
551.99	2105.86
552.35	2111.94
552.70	2117.99
553.06	2123.97
553.41	2130.53
553.77	2136.47
554.13	2142.47
554.48	2148.54
554.84	2154.05
555.19	2159.39
555.55	2164.53
555.90	2169.17
556.26	2174.04
556.61	2178.81
556.97	2183.20
557.32	2187.38
557.68	2191.60
558.03	2195.91
558.39	2199.53
558.74	2204.26
559.10	2208.16
559.45	2211.83
559.81	2216.11
560.16	2220.07
560.52	2223.38
560.87	2226.64
561.23	2229.45
561.58	2232.53
561.94	2235.17
562.29	2237.60
562.64	2240.38
563.00	2242.91
563.35	2246.45
563.71	2249.61
564.06	2252.87
564.42	2255.86
564.77	2258.53
565.12	2260.82
565.48	2262.90
565.83	2265.07
566.19	2266.56
566.54	2267.64
566.89	2268.89
567.25	2269.76
567.60	2271.08
567.96	2272.89
568.31	2273.84
568.66	2275.07
569.02	2275.70
569.37	2276.19
569.72	2277.14
570.08	2277.41
570.43	2277.65
570.78	2277.31
571.14	2275.98
571.49	2274.77
571.84	2274.55
572.20	2273.61
572.55	2272.82
572.90	2271.21
573.26	2269.88
573.61	2268.27
573.96	2266.71
574.31	2264.07
574.67	2261.13
575.02	2257.75
575.37	2254.61
575.72	2251.16
576.08	2247.91
576.43	2244.80
576.78	2241.44
577.13	2238.46
577.49	2235.44
577.84	2232.13
578.19	2228.42
578.54	2225.10
578.90	2221.24
579.25	2215.86
579.60	2211.09
579.95	2206.24
580.30	2201.44
580.66	2196.55
581.01	2191.74
581.36	2186.93
581.71	2182.68
582.06	2178.54
582.42	2174.28
582.77	2169.19
583.12	2164.75
583.47	2160.32
583.82	2155.73
584.17	2150.66
584.53	2145.40
584.88	2140.05
585.23	2134.57
585.58	2129.24
585.93	2123.86
586.28	2119.15
586.63	2114.19
586.98	2109.32
587.34	2104.75
587.69	2100.16
588.04	2095.15
588.39	2089.62
588.74	2083.34
589.09	2077.49
589.44	2070.85
589.79	2064.95
590.14	2059.58
590.49	2053.16
590.84	2046.84
591.19	2040.82
591.54	2034.47
591.89	2027.37
592.25	2020.88
592.60	2013.75
592.95	2006.44
593.30	1999.23
593.65	1991.84
594.00	1984.93
594.35	1977.85
594.70	1970.02
595.05	1963.13
595.40	1955.96
595.75	1948.66
596.10	1942.72
596.45	1936.13
596.80	1930.10
597.15	1923.65
597.50	1916.60
597.85	1910.31
598.19	1903.91
598.54	1897.03
598.89	1890.56
599.24	1884.65
599.59	1878.01
599.94	1872.02
600.29	1865.87
600.64	1859.41
600.99	1852.06
601.34	1845.39
601.69	1838.52
602.04	1831.83
602.39	1824.53
602.74	1817.77
603.08	1811.16
603.43	1804.40
603.78	1797.21
604.13	1790.11
604.48	1783.10
604.83	1776.40
605.18	1769.60
605.53	1761.71
605.87	1753.84
606.22	1746.73
606.57	1738.85
606.92	1731.57
607.27	1724.50
607.62	1717.66
607.96	1710.62
608.31	1704.23
608.66	1696.85
609.01	1689.38
609.36	1681.88
609.70	1673.84
610.05	1666.02
610.40	1658.42
610.75	1650.34
611.10	1642.83
611.44	1634.47
611.79	1626.39
612.14	1617.74
612.49	1608.69
612.83	1600.33
613.18	1592.16
613.53	1584.08
613.88	1575.71
614.22	1567.45
614.57	1558.70
614.92	1550.61
615.27	1543.14
615.61	1534.80
615.96	1526.78
616.31	1519.13
616.65	1511.73
617.00	1504.21
617.35	1496.51
617.70	1488.43
618.04	1479.92
618.39	1471.69
618.74	1464.12
619.08	1455.82
619.43	1448.23
619.78	1441.30
620.12	1434.21
620.47	1426.82
620.82	1418.68
621.16	1411.27
621.51	1403.78
621.85	1396.25
622.20	1387.88
622.55	1379.43
622.89	1371.55
623.24	1363.91
623.59	1356.56
623.93	1349.02
624.28	1341.83
624.62	1334.30
624.97	1327.07
625.32	1320.30
625.66	1313.23
626.01	1306.08
626.35	1298.69
626.70	1291.07
627.04	1283.30
627.39	1275.52
627.73	1268.13
628.08	1261.32
628.43	1254.10
628.77	1246.76
629.12	1239.27
629.46	1232.07
629.81	1224.75
630.15	1217.52
630.50	1210.16
630.84	1202.13
631.19	1194.37
631.53	1186.86
631.88	1179.33
632.22	1171.75
632.57	1164.50
632.91	1156.95
633.26	1149.58
633.60	1142.25
633.95	1135.14
634.29	1128.17
634.64	1121.58
634.98	1114.27
635.32	1107.01
635.67	1100.32
636.01	1093.69
636.36	1086.98
636.70	1080.56
637.05	1073.93
637.39	1067.58
637.73	1061.07
638.08	1055.04
638.42	1049.00
638.77	1042.61
639.11	1036.11
639.45	1029.63
639.80	1022.99
640.14	1016.70
640.49	1010.14
640.83	1003.85
641.17	997.63
641.52	991.27
641.86	984.71
642.20	978.86
642.55	972.55
642.89	966.10
643.23	959.54
643.58	953.80
643.92	947.68
644.26	941.69
644.61	935.60
644.95	929.62
645.29	923.10
645.64	916.41
645.98	910.14
646.32	904.19
646.66	898.18
647.01	892.37
647.35	886.65
647.69	880.83
648.04	875.24
648.38	869.41
648.72	863.51
649.06	857.59
649.41	851.70
649.75	845.80
650.09	839.92
650.43	834.17
650.78	827.98
651.12	821.96
651.46	816.25
651.80	810.57
652.14	805.19
652.49	799.90
652.83	794.72
653.17	789.05
653.51	783.39
653.85	777.98
654.20	772.34
654.54	766.32
654.88	760.66
655.22	754.73
655.56	749.11
655.90	743.62
656.25	738.35
656.59	733.03
656.93	727.92
657.27	722.81
657.61	717.38
657.95	712.25
658.29	707.20
658.64	701.87
658.98	696.56
659.32	691.07
659.66	685.83
660.00	680.56
660.34	675.58
660.68	670.72
661.02	665.70
661.36	660.97
661.70	656.50
662.05	652.17
662.39	647.98
662.73	643.54
663.07	639.17
663.41	634.78
663.75	630.30
664.09	625.73
664.43	621.31
664.77	617.23
665.11	613.04
665.45	608.88
665.79	604.86
666.13	600.74
666.47	596.67
666.81	592.57
667.15	588.47
667.49	584.58
667.83	580.70
668.17	576.81
668.51	572.80
668.85	568.86
669.19	564.98
669.53	561.18
669.87	557.35
670.21	553.61
670.55	549.94
670.89	546.51
671.23	543.18
671.57	539.68
671.91	536.18
672.25	532.68
672.58	529.16
672.92	525.75
673.26	522.63
673.60	519.50
673.94	516.39
674.28	513.47
674.62	510.50
674.96	507.45
675.30	504.56
675.64	501.62
675.97	498.79
676.31	495.95
676.65	493.03
676.99	490.31
677.33	487.52
677.67	484.73
678.01	481.68
678.34	478.68
678.68	475.78
679.02	472.98
679.36	470.28
679.70	467.62
680.04	464.88
680.37	462.03
680.71	459.23
681.05	456.65
681.39	453.99
681.73	451.34
682.06	448.83
682.40	446.30
682.74	443.77
683.08	441.22
683.42	438.61
683.75	436.08
684.09	433.47
684.43	431.03
684.77	428.56
685.10	426.21
685.44	423.87
685.78	421.61
686.12	419.37
686.45	417.07
686.79	414.79
687.13	412.58
687.46	410.40
687.80	408.26
688.14	406.01
688.48	403.89
688.81	401.68
689.15	399.54
689.49	397.33
689.82	395.27
690.16	393.19
690.50	391.21
690.83	389.32
691.17	387.40
691.51	385.45
691.84	383.58
692.18	381.72
692.52	379.81
692.85	377.81
693.19	375.92
693.52	374.02
693.86	372.17
694.20	370.42
694.53	368.65
694.87	366.78
695.21	364.98
695.54	363.15
695.88	361.42
696.21	359.67
696.55	358.01
696.88	356.30
697.22	354.61
697.56	352.95
697.89	351.25
698.23	349.64
698.56	347.98
698.90	346.44
699.23	344.75
699.57	343.14
699.90	341.63
700.24	340.09
700.58	338.61
700.91	337.12
701.25	335.66
701.58	334.26
701.92	332.90
702.25	331.53
702.59	330.20
702.92	328.88
703.26	327.57
703.59	326.31
703.93	325.12
704.26	323.92
704.60	322.68
704.93	321.39
705.26	320.16
705.60	319.00
705.93	317.79
706.27	316.75
706.60	315.73
706.94	314.65
707.27	313.50
707.61	312.39
707.94	311.35
708.27	310.23
708.61	309.12
708.94	308.11
709.28	307.13
709.61	306.14
709.94	305.15
710.28	304.16
710.61	303.15
710.95	302.10
711.28	301.18
711.61	300.19
711.95	299.28
712.28	298.32
712.61	297.36
712.95	296.47
713.28	295.57
713.61	294.64
713.95	293.78
714.28	292.97
714.61	292.12
714.95	291.29
715.28	290.48
715.61	289.66
715.95	288.83
716.28	287.97
716.61	287.16
716.95	286.35
717.28	285.58
717.61	284.82
717.94	284.09
718.28	283.30
718.61	282.57
718.94	281.91
719.27	281.27
719.61	280.59
719.94	279.92
720.27	279.22
720.60	278.56
720.94	277.91
721.27	277.31
721.60	276.74
721.93	276.14
722.27	275.58
722.60	275.01
722.93	274.44
723.26	273.93
723.59	273.35
723.93	272.83
724.26	272.27
724.59	271.73
724.92	271.24
725.25	270.74
725.59	270.24
725.92	269.71
726.25	269.18
726.58	268.72
726.91	268.20
727.24	267.74
727.57	267.28
727.91	266.82
728.24	266.31
728.57	265.81
728.90	265.38
729.23	264.88
729.56	264.48
729.89	263.99
730.22	263.47
730.55	263.04
730.89	262.55
731.22	262.10
731.55	261.66
731.88	261.18
732.21	260.73
732.54	260.33
732.87	259.89
733.20	259.47
733.53	259.11
733.86	258.73
734.19	258.34
734.52	257.99
734.85	257.63
735.18	257.25
735.51	256.90
735.84	256.49
736.17	256.14
736.50	255.70
736.83	255.46
737.16	255.13
737.49	254.78
737.82	254.43
738.15	254.12
738.48	253.79
738.81	253.43
739.14	253.10
739.47	252.75
739.80	252.46
740.13	252.16
740.46	251.77
740.79	251.46
741.12	251.13
741.45	250.78
741.78	250.45
742.11	250.15
742.44	249.83
742.77	249.56
743.10	249.21
743.43	248.92
743.75	248.54
744.08	248.40
744.41	248.14
744.74	247.84
745.07	247.54
745.40	247.27
745.73	247.05
746.06	246.78
746.39	246.51
746.71	246.23
747.04	245.93
747.37	245.69
747.70	245.43
748.03	245.18
748.36	244.94
748.68	244.68
749.01	244.41
749.34	244.21
749.67	243.95
750.00	243.73
750.33	243.55
750.65	243.35
750.98	242.99
751.31	242.73
751.64	242.56
751.97	242.39
752.29	242.17
752.62	241.96
752.95	241.75
753.28	241.55
753.60	241.38
753.93	241.22
754.26	241.00
754.59	240.76
754.91	240.58
755.24	240.40
755.57	240.21
755.90	240.04
756.22	239.82
756.55	239.65
756.88	239.48
757.20	239.28
757.53	239.08
757.86	238.91
758.19	238.77
758.51	238.62
758.84	238.43
759.17	238.27
759.49	238.10
759.82	237.98
760.15	237.84
760.47	237.68
760.80	237.51
761.13	237.40
761.45	237.27
761.78	237.15
762.11	237.00
762.43	236.88
762.76	236.73
763.08	236.62
763.41	236.50
763.74	236.42
764.06	236.27
764.39	236.14
764.71	236.01
765.04	235.85
765.37	235.70
765.69	235.56
766.02	235.44
766.34	235.32
766.67	235.17
767.00	235.08
767.32	235.01
767.65	234.99
767.97	234.88
768.30	234.78
768.62	234.66
768.95	234.53
769.27	234.40
769.60	234.32
769.92	234.16
770.25	234.04
770.57	233.87
770.90	233.78
771.22	233.68
771.55	233.61
771.87	233.52
772.20	233.40
772.52	233.39
772.85	233.45
773.17	233.34
773.50	233.24
773.82	233.12
774.15	232.99
774.47	232.81
774.80	232.73
775.12	232.65
775.45	232.57
775.77	232.49
776.09	232.41
776.42	232.35
776.74	232.31
777.07	232.21
777.39	232.16
777.72	232.05
778.04	232.00
778.36	231.87
778.69	231.82
779.01	231.77
779.33	231.59
779.66	231.39
779.98	231.29
780.31	231.23
780.63	231.19
780.95	231.14
781.28	231.07
781.60	231.00
781.92	230.91
782.25	230.82
782.57	230.78
782.89	230.71
783.22	230.62
783.54	230.53
783.86	230.50
784.19	230.43
784.51	230.44
784.83	230.33
785.16	230.32
785.48	230.25
785.80	230.20
786.12	230.18
786.45	230.16
786.77	230.15
787.09	230.10
787.42	230.02
787.74	229.97
788.06	229.89
788.38	229.82
788.71	229.80
789.03	229.76
789.35	229.74
789.67	229.71
789.99	229.68
790.32	229.64
790.64	229.57
790.96	229.61
791.28	229.52
791.61	229.50
791.93	229.45
792.25	229.45
792.57	229.48
792.89	229.39
793.21	229.36
793.54	229.30
793.86	229.23
794.18	229.19
794.50	229.13
794.82	229.11
795.14	229.10
795.47	229.07
795.79	229.06
796.11	228.99
796.43	228.93
796.75	228.88
797.07	228.86
797.39	228.87
797.71	228.77
798.04	228.73
798.36	228.70
798.68	228.65
799.00	228.61
799.32	228.52
799.64	228.56
799.96	228.48
800.28	228.48
800.60	228.43
800.92	228.43
801.24	228.41
801.56	228.39
801.89	228.34
802.21	228.29
802.53	228.23
802.85	228.21
803.17	228.24
803.49	228.22
803.81	228.17
804.13	228.12
804.45	228.09
804.77	228.10
805.09	228.06
805.41	228.01
805.73	227.94
806.05	227.90
806.37	227.83
806.69	227.79
807.01	227.75
807.33	227.76
807.65	227.69
807.97	227.71
808.28	227.69
808.60	227.69
808.92	227.67
809.24	227.70
809.56	227.65
809.88	227.59
810.20	227.55
810.52	227.55
810.84	227.48
811.16	227.44
811.48	227.39
811.80	227.38
812.12	227.36
812.43	227.37
812.75	227.37
813.07	227.37
813.39	227.36
813.71	227.33
814.03	227.30
814.35	227.29
814.67	227.20
814.98	227.18
815.30	227.14
815.62	227.06
815.94	227.01
816.26	227.03
816.58	226.97
816.89	226.99
817.21	226.94
817.53	226.94
817.85	226.92
818.17	226.87
818.48	226.84
818.80	226.85
819.12	226.81
819.44	226.78
819.76	226.72
820.07	226.71
820.39	226.70
820.71	226.71
821.03	226.68
821.34	226.66
821.66	226.64
821.98	226.65
822.30	226.66
822.61	226.70
822.93	226.65
823.25	226.67
823.57	226.64
823.88	226.67
824.20	226.71
824.52	226.72
824.83	226.75
825.15	226.74
825.47	226.73
825.79	226.75
826.10	226.70
826.42	226.72
826.74	226.71
827.05	226.70
827.37	226.69
827.69	226.69
828.00	226.69
828.32	226.71
828.64	226.65
828.95	226.71
829.27	226.68
829.58	226.70
829.90	226.73
830.22	226.72
830.53	226.68
830.85	226.65
831.17	226.62
831.48	226.59
831.80	226.60
832.11	226.58
832.43	226.58
832.75	226.60
833.06	226.61
833.38	226.62
833.69	226.60
834.01	226.57
834.32	226.58
834.64	226.56
834.96	226.55
835.27	226.56
835.59	226.49
835.90	226.47
836.22	226.44
836.53	226.40
836.85	226.41
837.16	226.52
837.48	226.52
837.79	226.56
838.11	226.58
838.42	226.59
838.74	226.59
839.05	226.58
839.37	226.56
839.68	226.54
840.00	226.53
840.31	226.57
840.63	226.57
840.94	226.56
841.26	226.57
841.57	226.55
841.88	226.55
842.20	226.57
842.51	226.54
842.83	226.51
843.14	226.60
843.46	226.57
843.77	226.49
844.08	226.46
844.40	226.40
844.71	226.37
845.03	226.32
845.34	226.31
845.65	226.27
845.97	226.27
846.28	226.25
846.60	226.21
846.91	226.18
847.22	226.18
847.54	226.15
847.85	226.15
848.16	226.15
848.48	226.14
848.79	226.15
849.10	226.14
849.42	226.16
849.73	226.04
850.04	226.02
850.36	225.99
850.67	225.97
850.98	225.95
851.30	225.96
851.61	225.97
851.92	225.96
852.23	225.98
852.55	226.00
852.86	225.98
853.17	226.00
853.49	226.02
853.80	226.03
854.11	226.05
854.42	226.03
854.74	226.00
855.05	226.00
855.36	225.93
855.67	225.97
855.99	225.99
856.30	226.10
856.61	226.08
856.92	226.10
857.23	226.11
857.55	226.11
857.86	226.09
858.17	226.11
858.48	226.11
858.79	226.12
859.11	226.09
859.42	226.08
859.73	226.05
860.04	226.01
860.35	225.97
860.66	225.94
860.98	225.96
861.29	225.94
861.60	225.90
861.91	225.92
862.22	225.89
862.53	225.88
862.84	225.78
863.16	225.84
863.47	225.79
863.78	225.76
864.09	225.78
864.40	225.79
864.71	225.77
865.02	225.77
865.33	225.76
865.64	225.74
865.95	225.75
866.27	225.82
866.58	225.81
866.89	225.80
867.20	225.79
867.51	225.79
867.82	225.82
868.13	225.87
868.44	225.89
868.75	225.89
869.06	225.90
869.37	225.90
869.68	225.87
869.99	225.89
870.30	225.91
870.61	225.92
870.92	225.90
871.23	225.89
871.54	225.87
871.85	225.90
872.16	225.92
872.47	225.88
872.78	225.82
873.09	225.85
873.40	225.85
873.71	225.88
874.02	225.85
874.33	225.83
874.64	225.80
874.95	225.78
875.26	225.78
875.56	225.76
875.87	225.73
876.18	225.71
876.49	225.84
876.80	225.82
877.11	225.80
877.42	225.80
877.73	225.82
878.04	225.83
878.35	225.79
878.66	225.80
878.96	225.83
879.27	225.84
879.58	225.81
879.89	225.83
880.20	225.83
880.51	225.83
880.82	225.83
881.12	225.85
881.43	225.84
881.74	225.79
882.05	225.76
882.36	225.82
882.67	225.81
882.97	225.69
883.28	225.69
883.59	225.70
883.90	225.71
884.21	225.67
884.51	225.71
884.82	225.71
885.13	225.69
885.44	225.64
885.74	225.66
886.05	225.64
886.36	225.62
886.67	225.56
886.98	225.60
887.28	225.61
887.59	225.61
887.90	225.59
888.20	225.60
888.51	225.63
888.82	225.58
889.13	225.56
889.43	225.60
889.74	225.58
890.05	225.51
890.35	225.50
890.66	225.52
890.97	225.45
891.28	225.44
891.58	225.44
891.89	225.46
892.20	225.41
892.50	225.41
892.81	225.42
893.12	225.43
893.42	225.38
893.73	225.35
894.04	225.34
894.34	225.36
894.65	225.39
894.95	225.36
895.26	225.36
895.57	225.41
895.87	225.34
896.18	225.38
896.48	225.43
896.79	225.40
897.10	225.41
897.40	225.43
897.71	225.43
898.01	225.42
898.32	225.43
898.63	225.41
898.93	225.43
899.24	225.40
899.54	225.41
899.85	225.39
900.15	225.40
900.46	225.41
900.76	225.41
901.07	225.38
901.38	225.37
901.68	225.39
901.99	225.34
902.29	225.34
902.60	225.32
902.90	225.31
903.21	225.33
903.51	225.30
903.82	225.29
904.12	225.27
904.43	225.29
904.73	225.29
905.03	225.31
905.34	225.41
905.64	225.41
905.95	225.41
906.25	225.42
906.56	225.41
906.86	225.37
907.17	225.35
907.47	225.37
907.77	225.35
908.08	225.32
908.38	225.36
908.69	225.37
908.99	225.39
909.30	225.38
909.60	225.38
909.90	225.44
910.21	225.44
910.51	225.43
910.81	225.39
911.12	225.41
911.42	225.43
911.73	225.32
912.03	225.37
912.33	225.38
912.64	225.36
912.94	225.33
913.24	225.35
913.55	225.35
913.85	225.32
914.15	225.37
914.46	225.41
914.76	225.37
915.06	225.33
915.37	225.32
915.67	225.34
915.97	225.35
916.27	225.31
916.58	225.28
916.88	225.29
917.18	225.29
917.49	225.35
917.79	225.31
918.09	225.33
918.39	225.35
918.70	225.38
919.00	225.39
919.30	225.45
919.60	225.43
919.91	225.42
920.21	225.43
920.51	225.39
920.81	225.37
921.12	225.40
921.42	225.41
921.72	225.42
922.02	225.45
922.32	225.46
922.63	225.47
922.93	225.53
923.23	225.53
923.53	225.52
923.83	225.46
924.13	225.46
924.44	225.47
924.74	225.46
925.04	225.43
925.34	225.42
925.64	225.37
925.94	225.40
926.24	225.46
926.55	225.47
926.85	225.49
927.15	225.45
927.45	225.46
927.75	225.46
928.05	225.43
928.35	225.40
928.65	225.41
928.95	225.41
929.26	225.39
929.56	225.42
929.86	225.45
930.16	225.44
930.46	225.44
930.76	225.44
931.06	225.38
931.36	225.39
931.66	225.40
931.96	225.41
932.26	225.40
932.56	225.34
932.86	225.32
933.16	225.30
933.46	225.31
933.76	225.30
934.06	225.30
934.36	225.37
934.66	225.34
934.96	225.32
935.26	225.32
935.56	225.31
935.86	225.30
936.16	225.27
936.46	225.23
936.76	225.23
937.06	225.24
937.36	225.25
937.66	225.25
937.96	225.23
938.26	225.21
938.56	225.21
938.86	225.22
939.16	225.25
939.46	225.31
939.76	225.31
940.06	225.28
940.35	225.29
940.65	225.23
940.95	225.24
941.25	225.21
941.55	225.19
941.85	225.19
942.15	225.19
942.45	225.23
942.75	225.23
943.04	225.25
943.34	225.24
943.64	225.24
943.94	225.21
944.24	225.24
944.54	225.28
944.84	225.27
945.13	225.25
945.43	225.24
945.73	225.20
946.03	225.20
946.33	225.22
946.62	225.18
946.92	225.19
947.22	225.20
947.52	225.20
947.82	225.23
948.11	225.22
948.41	225.20
948.71	225.14
949.01	225.17
949.31	225.17
949.60	225.17
949.90	225.18
950.20	225.18
950.50	225.19
950.79	225.18
951.09	225.20
951.39	225.19
951.69	225.20
951.98	225.20
952.28	225.21
952.58	225.21
952.87	225.21
953.17	225.22
953.47	225.22
953.76	225.25
954.06	225.21
954.36	225.21
954.66	225.21
954.95	225.28
955.25	225.31
955.55	225.29
955.84	225.27
956.14	225.30
956.44	225.30
956.73	225.30
957.03	225.32
957.32	225.31
957.62	225.34
957.92	225.35
958.21	225.37
958.51	225.46
958.81	225.47
959.10	225.52
959.40	225.50
959.69	225.50
959.99	225.50
960.29	225.51
960.58	225.52
960.88	225.54
961.17	225.51
961.47	225.51
961.76	225.51
962.06	225.51
962.36	225.50
962.65	225.50
962.95	225.48
963.24	225.46
963.54	225.48
963.83	225.48
964.13	225.44
964.42	225.41
964.72	225.32
965.01	225.33
965.31	225.28
965.60	225.26
965.90	225.32
966.19	225.30
966.49	225.30
966.78	225.29
967.08	225.28
967.37	225.27
967.67	225.23
967.96	225.25
968.26	225.23
968.55	225.22
968.85	225.24
969.14	225.23
969.43	225.20
969.73	225.18
970.02	225.17
970.32	225.16
970.61	225.17
970.91	225.17
971.20	225.16
971.49	225.13
971.79	225.20
972.08	225.11
972.38	225.14
972.67	225.14
972.96	225.14
973.26	225.13
973.55	225.14
973.85	225.15
974.14	225.14
974.43	225.19
974.73	225.17
975.02	225.16
975.31	225.19
975.61	225.20
975.90	225.19
976.19	225.16
976.49	225.20
976.78	225.18
977.07	225.14
977.37	225.12
977.66	225.14
977.95	225.12
978.24	225.13
978.54	225.10
978.83	225.11
979.12	225.10
979.42	225.12
979.71	225.13
980.00	225.12
980.29	225.14
980.59	225.08
980.88	225.09
981.17	225.07
981.46	225.04
981.76	225.04
982.05	225.07
982.34	225.11
982.63	225.07
982.93	225.10
983.22	225.17
983.51	225.17
983.80	225.17
984.09	225.16
984.39	225.14
984.68	225.14
984.97	225.14
985.26	225.10
985.55	225.11
985.85	225.05
986.14	225.06
986.43	225.06
986.72	225.04
987.01	225.03
987.30	225.04
987.59	225.07
987.89	225.06
988.18	225.00
988.47	224.98
988.76	224.97
989.05	224.94
989.34	224.90
989.63	224.93
989.92	224.94
990.22	224.93
990.51	224.95
990.80	224.97
991.09	224.98
991.38	225.04
991.67	225.03
991.96	225.02
992.25	225.03
992.54	225.01
992.83	225.03
993.12	225.03
993.41	225.01
993.70	225.04
993.99	225.03
994.28	225.05
994.58	225.09
994.87	225.07
995.16	225.08
995.45	225.07
995.74	225.05
996.03	225.04
996.32	225.06
996.61	225.08
996.90	225.07
997.19	225.07
997.48	225.03
997.77	224.99
998.06	224.99
998.34	224.99
998.63	224.98
998.92	224.96
999.21	224.97
999.50	225.00
999.79	224.95
1000.08	224.98
1000.37	224.98
1000.66	224.97
1000.95	225.01
1001.24	225.01
1001.53	225.05
1001.82	225.06
1002.11	225.04
1002.40	225.05
1002.68	225.07
1002.97	225.12
1003.26	225.10
1003.55	225.11
1003.84	225.10
1004.13	225.13
1004.42	225.10
1004.71	225.12
1004.99	225.13
1005.28	225.15
1005.57	225.12
1005.86	225.14
1006.15	225.14
1006.44	225.14
1006.72	225.10
1007.01	225.09
1007.30	225.09
1007.59	225.04
1007.88	225.03
1008.17	225.04
1008.45	225.02
1008.74	225.00
1009.03	224.99
1009.32	224.98
1009.60	224.97
1009.89	224.99
1010.18	225.00
1010.47	225.00
1010.76	225.01
1011.04	225.02
1011.33	225.01
1011.62	225.05
1011.91	225.04
1012.19	225.04
1012.48	225.07
1012.77	225.10
1013.05	225.16
1013.34	225.20
1013.63	225.21
1013.92	225.20
1014.20	225.20
1014.49	225.18
1014.78	225.19
1015.06	225.16
1015.35	225.15
1015.64	225.18
1015.92	225.21
1016.21	225.20
1016.50	225.17
1016.78	225.13
1017.07	225.15
1017.36	225.14
1017.64	225.10
1017.93	225.12
1018.22	225.11
1018.50	225.08
1018.79	225.05
1019.08	224.99
1019.36	224.95
1019.65	224.93
1019.93	224.99
1020.22	224.98
1020.51	225.06
1020.79	225.00
1021.08	225.04
1021.36	224.66
1021.65	224.48
1021.94	225.10
1022.22	224.80
1022.51	224.76
1022.79	225.60
1023.08	224.83
1023.36	226.51
1023.65	224.32
>>>>>End Processed Spectral Data<<<<<
