SpectraSuite Data File
++++++++++++++++++++++++++++++++++++
Date: Fri Feb 01 15:18:37 EST 2013
User: group
Dark Spectrum Present: No
Reference Spectrum Present: No
Number of Sampled Component Spectra: 1
Spectrometers: USB2E7196
Integration Time (usec): 35000 (USB2E7196)
Spectra Averaged: 100 (USB2E7196)
Boxcar Smoothing: 10 (USB2E7196)
Correct for Electrical Dark: No (USB2E7196)
Strobe/Lamp Enabled: No (USB2E7196)
Correct for Detector Non-linearity: No (USB2E7196)
Correct for Stray Light: No (USB2E7196)
Number of Pixels in Processed Spectrum: 2048
>>>>>Begin Processed Spectral Data<<<<<
339.09	0.00
339.48	214.59
339.86	216.59
340.24	217.73
340.63	219.40
341.01	221.46
341.39	221.78
341.78	223.72
342.16	224.22
342.54	224.79
342.93	213.33
343.31	224.15
343.69	224.70
344.07	225.14
344.46	225.59
344.84	225.98
345.22	226.23
345.60	226.52
345.99	226.68
346.37	226.83
346.75	226.96
347.13	227.04
347.52	227.09
347.90	227.12
348.28	227.16
348.66	227.18
349.05	227.17
349.43	227.21
349.81	227.28
350.19	227.32
350.57	227.40
350.96	227.47
351.34	227.52
351.72	227.59
352.10	227.70
352.48	227.74
352.87	227.79
353.25	227.87
353.63	227.88
354.01	227.93
354.39	227.98
354.77	228.04
355.15	228.12
355.54	228.21
355.92	228.27
356.30	228.35
356.68	228.48
357.06	228.57
357.44	228.59
357.82	228.67
358.20	228.74
358.58	228.76
358.97	228.82
359.35	228.91
359.73	229.00
360.11	229.07
360.49	229.15
360.87	229.16
361.25	229.25
361.63	229.33
362.01	229.41
362.39	229.45
362.77	229.49
363.15	229.50
363.53	229.48
363.91	229.49
364.29	229.48
364.67	229.39
365.05	229.38
365.43	229.41
365.81	229.43
366.19	229.46
366.57	229.50
366.95	229.49
367.33	229.41
367.71	229.35
368.09	229.37
368.47	229.33
368.85	229.31
369.23	229.28
369.61	229.23
369.99	229.19
370.37	229.17
370.75	229.17
371.13	229.12
371.51	229.09
371.89	229.06
372.27	229.02
372.65	229.00
373.03	228.97
373.41	228.91
373.78	228.81
374.16	228.70
374.54	228.60
374.92	228.51
375.30	228.47
375.68	228.46
376.06	228.35
376.44	228.26
376.82	228.22
377.19	228.13
377.57	228.09
377.95	228.00
378.33	227.94
378.71	227.79
379.09	227.71
379.47	227.66
379.84	227.55
380.22	227.47
380.60	227.36
380.98	227.27
381.36	227.19
381.73	227.10
382.11	227.05
382.49	227.00
382.87	226.94
383.25	226.88
383.62	226.89
384.00	226.79
384.38	226.76
384.76	226.69
385.13	226.67
385.51	226.59
385.89	226.54
386.27	226.49
386.64	226.48
387.02	226.44
387.40	226.39
387.78	226.38
388.15	226.35
388.53	226.34
388.91	226.32
389.29	226.31
389.66	226.32
390.04	226.27
390.42	226.28
390.79	226.31
391.17	226.31
391.55	226.20
391.92	226.23
392.30	226.25
392.68	226.23
393.05	226.23
393.43	226.25
393.81	226.27
394.18	226.28
394.56	226.31
394.94	226.37
395.31	226.38
395.69	226.42
396.06	226.48
396.44	226.53
396.82	226.56
397.19	226.65
397.57	226.71
397.95	226.80
398.32	226.83
398.70	226.87
399.07	226.95
399.45	227.01
399.82	227.07
400.20	227.16
400.58	227.27
400.95	227.32
401.33	227.42
401.70	227.60
402.08	227.69
402.45	227.82
402.83	227.93
403.20	228.06
403.58	228.18
403.95	228.33
404.33	228.49
404.71	228.64
405.08	228.82
405.46	228.96
405.83	229.09
406.21	229.24
406.58	229.40
406.96	229.55
407.33	229.74
407.70	229.97
408.08	230.21
408.45	230.42
408.83	230.64
409.20	230.81
409.58	230.98
409.95	231.27
410.33	231.51
410.70	231.72
411.08	232.04
411.45	232.32
411.82	232.60
412.20	232.92
412.57	233.33
412.95	233.65
413.32	234.04
413.69	234.45
414.07	234.89
414.44	235.36
414.82	235.86
415.19	236.39
415.56	236.91
415.94	237.49
416.31	238.13
416.68	238.79
417.06	239.52
417.43	240.21
417.81	240.95
418.18	241.72
418.55	242.56
418.93	243.41
419.30	244.33
419.67	245.26
420.04	246.24
420.42	247.21
420.79	248.36
421.16	249.52
421.54	250.71
421.91	251.93
422.28	253.17
422.66	254.50
423.03	255.80
423.40	257.12
423.77	258.52
424.15	259.91
424.52	261.38
424.89	263.00
425.26	264.53
425.64	265.97
426.01	267.57
426.38	269.25
426.75	270.93
427.13	272.65
427.50	274.48
427.87	276.38
428.24	278.26
428.61	280.01
428.99	281.95
429.36	284.06
429.73	286.12
430.10	288.16
430.47	290.25
430.85	292.36
431.22	294.64
431.59	297.00
431.96	299.29
432.33	301.76
432.70	304.13
433.08	306.98
433.45	309.63
433.82	312.23
434.19	315.12
434.56	317.93
434.93	320.60
435.30	323.21
435.68	326.07
436.05	328.89
436.42	331.65
436.79	334.21
437.16	336.94
437.53	339.77
437.90	342.61
438.27	345.34
438.64	348.23
439.01	350.83
439.38	353.13
439.75	355.25
440.13	357.81
440.50	360.18
440.87	361.98
441.24	363.95
441.61	366.16
441.98	367.67
442.35	369.48
442.72	371.30
443.09	373.17
443.46	374.17
443.83	374.76
444.20	375.31
444.57	376.11
444.94	376.43
445.31	376.76
445.68	377.11
446.05	377.14
446.42	376.73
446.79	376.32
447.16	375.85
447.53	375.55
447.90	374.41
448.27	373.22
448.64	371.66
449.01	370.51
449.37	368.48
449.74	366.57
450.11	364.37
450.48	361.95
450.85	359.35
451.22	357.22
451.59	355.20
451.96	353.22
452.33	350.63
452.70	348.22
453.07	345.37
453.43	342.45
453.80	339.69
454.17	337.01
454.54	334.45
454.91	331.70
455.28	329.00
455.65	326.45
456.02	323.97
456.38	321.80
456.75	319.13
457.12	316.90
457.49	314.65
457.86	312.44
458.23	310.57
458.59	308.52
458.96	306.40
459.33	304.55
459.70	302.72
460.07	301.21
460.43	299.47
460.80	297.87
461.17	296.43
461.54	294.93
461.91	293.47
462.27	292.00
462.64	290.75
463.01	289.38
463.38	288.12
463.74	286.76
464.11	285.60
464.48	284.54
464.85	283.40
465.21	282.55
465.58	281.60
465.95	280.46
466.32	279.53
466.68	278.62
467.05	277.74
467.42	276.83
467.78	275.88
468.15	274.98
468.52	274.31
468.88	273.44
469.25	272.66
469.62	272.04
469.98	271.35
470.35	270.74
470.72	270.14
471.08	269.45
471.45	268.89
471.82	268.32
472.18	267.73
472.55	267.29
472.92	266.77
473.28	266.29
473.65	265.86
474.02	265.43
474.38	265.06
474.75	264.68
475.11	264.31
475.48	264.05
475.85	263.85
476.21	263.61
476.58	263.44
476.94	263.26
477.31	263.08
477.67	262.93
478.04	262.80
478.41	262.73
478.77	262.75
479.14	262.69
479.50	262.71
479.87	262.80
480.23	262.87
480.60	262.91
480.96	263.02
481.33	263.22
481.69	263.41
482.06	263.64
482.42	263.85
482.79	264.11
483.15	264.43
483.52	264.83
483.88	265.19
484.25	265.55
484.61	266.02
484.98	266.47
485.34	267.05
485.71	267.64
486.07	268.24
486.44	268.81
486.80	269.51
487.17	270.25
487.53	271.05
487.90	271.91
488.26	272.86
488.62	273.84
488.99	274.82
489.35	275.85
489.72	276.96
490.08	278.18
490.44	279.39
490.81	280.74
491.17	282.05
491.54	283.52
491.90	285.08
492.26	286.75
492.63	288.50
492.99	290.24
493.36	292.10
493.72	294.12
494.08	296.21
494.45	298.50
494.81	300.90
495.17	303.30
495.54	305.85
495.90	308.55
496.26	311.33
496.63	314.29
496.99	317.40
497.35	320.63
497.72	323.98
498.08	327.54
498.44	331.18
498.80	335.13
499.17	339.16
499.53	343.30
499.89	347.68
500.26	352.16
500.62	356.81
500.98	361.81
501.34	366.91
501.71	372.24
502.07	377.61
502.43	383.19
502.79	389.01
503.16	395.08
503.52	401.32
503.88	407.80
504.24	414.40
504.60	421.23
504.97	428.35
505.33	435.71
505.69	443.42
506.05	451.20
506.41	459.08
506.78	467.25
507.14	475.71
507.50	484.36
507.86	493.33
508.22	502.53
508.59	511.66
508.95	521.26
509.31	531.13
509.67	541.26
510.03	551.52
510.39	562.09
510.75	572.89
511.12	583.87
511.48	595.14
511.84	606.55
512.20	618.10
512.56	630.05
512.92	642.24
513.28	654.50
513.64	666.96
514.00	679.59
514.37	692.49
514.73	705.52
515.09	718.54
515.45	731.87
515.81	745.44
516.17	759.59
516.53	773.72
516.89	787.81
517.25	802.02
517.61	816.48
517.97	830.90
518.33	845.43
518.69	860.19
519.05	875.19
519.41	890.40
519.77	905.99
520.13	921.43
520.49	936.85
520.85	952.33
521.21	968.16
521.57	984.41
521.93	1000.26
522.29	1016.70
522.65	1033.05
523.01	1049.43
523.37	1065.61
523.73	1081.69
524.09	1097.83
524.45	1114.28
524.81	1131.01
525.17	1147.93
525.53	1165.00
525.89	1181.85
526.25	1198.70
526.61	1215.16
526.97	1231.97
527.33	1248.47
527.68	1265.29
528.04	1281.87
528.40	1298.58
528.76	1315.72
529.12	1332.47
529.48	1349.54
529.84	1365.65
530.20	1382.37
530.56	1399.46
530.91	1416.89
531.27	1433.71
531.63	1450.25
531.99	1466.94
532.35	1482.97
532.71	1498.85
533.07	1515.17
533.42	1531.09
533.78	1547.27
534.14	1563.56
534.50	1579.07
534.86	1595.12
535.21	1610.21
535.57	1626.24
535.93	1641.94
536.29	1656.74
536.65	1671.94
537.00	1686.66
537.36	1702.13
537.72	1716.64
538.08	1731.00
538.44	1744.85
538.79	1758.89
539.15	1772.66
539.51	1786.39
539.87	1800.76
540.22	1814.55
540.58	1828.35
540.94	1841.83
541.29	1854.84
541.65	1867.77
542.01	1881.08
542.37	1893.49
542.72	1906.06
543.08	1917.79
543.44	1930.00
543.79	1941.31
544.15	1952.24
544.51	1963.87
544.87	1974.89
545.22	1985.83
545.58	1996.15
545.94	2005.95
546.29	2015.76
546.65	2025.54
547.01	2034.85
547.36	2043.73
547.72	2052.34
548.07	2060.24
548.43	2068.59
548.79	2076.62
549.14	2084.07
549.50	2091.33
549.86	2098.95
550.21	2106.27
550.57	2113.55
550.92	2120.27
551.28	2127.40
551.64	2134.50
551.99	2140.95
552.35	2147.01
552.70	2153.27
553.06	2159.20
553.41	2165.51
553.77	2171.69
554.13	2177.92
554.48	2183.91
554.84	2189.23
555.19	2194.50
555.55	2199.57
555.90	2203.84
556.26	2208.64
556.61	2213.28
556.97	2217.48
557.32	2221.74
557.68	2225.97
558.03	2230.30
558.39	2234.04
558.74	2238.63
559.10	2242.54
559.45	2246.26
559.81	2250.63
560.16	2254.38
560.52	2257.68
560.87	2261.24
561.23	2263.89
561.58	2266.80
561.94	2269.23
562.29	2271.74
562.64	2274.32
563.00	2277.01
563.35	2280.62
563.71	2283.72
564.06	2286.96
564.42	2289.83
564.77	2292.27
565.12	2294.47
565.48	2296.18
565.83	2297.80
566.19	2298.95
566.54	2299.87
566.89	2300.90
567.25	2301.34
567.60	2302.65
567.96	2304.16
568.31	2304.84
568.66	2305.77
569.02	2306.23
569.37	2306.69
569.72	2307.41
570.08	2307.44
570.43	2307.21
570.78	2306.43
571.14	2304.88
571.49	2303.60
571.84	2303.31
572.20	2301.88
572.55	2300.72
572.90	2299.17
573.26	2297.83
573.61	2296.16
573.96	2294.23
574.31	2291.28
574.67	2288.27
575.02	2284.44
575.37	2280.98
575.72	2277.15
576.08	2273.84
576.43	2270.50
576.78	2266.77
577.13	2263.51
577.49	2260.47
577.84	2256.95
578.19	2253.24
578.54	2249.43
578.90	2244.97
579.25	2239.22
579.60	2234.24
579.95	2229.12
580.30	2223.97
580.66	2218.63
581.01	2213.39
581.36	2208.42
581.71	2203.97
582.06	2199.46
582.42	2194.80
582.77	2189.42
583.12	2184.69
583.47	2179.75
583.82	2174.54
584.17	2169.30
584.53	2163.75
584.88	2157.99
585.23	2152.21
585.58	2146.59
585.93	2141.14
586.28	2136.39
586.63	2131.23
586.98	2126.10
587.34	2121.47
587.69	2116.58
588.04	2111.37
588.39	2105.67
588.74	2099.11
589.09	2093.04
589.44	2086.09
589.79	2080.23
590.14	2074.80
590.49	2068.16
590.84	2061.70
591.19	2055.58
591.54	2048.96
591.89	2041.30
592.25	2034.35
592.60	2027.10
592.95	2019.48
593.30	2012.04
593.65	2004.18
594.00	1997.15
594.35	1989.92
594.70	1981.69
595.05	1974.26
595.40	1966.90
595.75	1959.37
596.10	1953.05
596.45	1946.11
596.80	1939.79
597.15	1933.01
597.50	1925.60
597.85	1919.19
598.19	1912.44
598.54	1905.29
598.89	1898.62
599.24	1892.83
599.59	1886.06
599.94	1879.76
600.29	1873.34
600.64	1866.63
600.99	1859.18
601.34	1852.29
601.69	1845.08
602.04	1838.07
602.39	1830.90
602.74	1824.07
603.08	1817.38
603.43	1810.55
603.78	1803.36
604.13	1796.23
604.48	1788.81
604.83	1782.15
605.18	1775.06
605.53	1767.11
605.87	1759.11
606.22	1751.76
606.57	1743.72
606.92	1736.40
607.27	1729.26
607.62	1722.25
607.96	1714.94
608.31	1708.29
608.66	1700.61
609.01	1693.20
609.36	1685.68
609.70	1677.45
610.05	1669.27
610.40	1661.54
610.75	1653.18
611.10	1645.41
611.44	1636.99
611.79	1629.13
612.14	1620.32
612.49	1611.19
612.83	1602.84
613.18	1594.72
613.53	1586.71
613.88	1578.16
614.22	1569.86
614.57	1561.16
614.92	1553.17
615.27	1545.50
615.61	1537.25
615.96	1529.28
616.31	1521.62
616.65	1514.22
617.00	1506.59
617.35	1498.96
617.70	1490.53
618.04	1482.04
618.39	1473.84
618.74	1466.25
619.08	1457.85
619.43	1450.21
619.78	1443.33
620.12	1436.15
620.47	1428.63
620.82	1420.54
621.16	1413.25
621.51	1405.68
621.85	1398.16
622.20	1389.60
622.55	1381.43
622.89	1373.59
623.24	1366.00
623.59	1358.69
623.93	1351.15
624.28	1344.07
624.62	1336.53
624.97	1329.36
625.32	1322.68
625.66	1315.71
626.01	1308.52
626.35	1301.00
626.70	1293.34
627.04	1285.60
627.39	1277.76
627.73	1270.26
628.08	1263.17
628.43	1255.83
628.77	1248.41
629.12	1240.83
629.46	1233.69
629.81	1226.28
630.15	1219.06
630.50	1211.60
630.84	1203.48
631.19	1195.69
631.53	1188.19
631.88	1180.70
632.22	1173.19
632.57	1165.96
632.91	1158.47
633.26	1151.06
633.60	1143.75
633.95	1136.66
634.29	1129.68
634.64	1123.14
634.98	1115.96
635.32	1109.00
635.67	1102.49
636.01	1095.93
636.36	1089.09
636.70	1082.64
637.05	1076.03
637.39	1069.60
637.73	1063.21
638.08	1057.24
638.42	1051.20
638.77	1044.72
639.11	1038.06
639.45	1031.70
639.80	1025.00
640.14	1018.52
640.49	1012.03
640.83	1005.78
641.17	999.57
641.52	993.18
641.86	986.78
642.20	980.87
642.55	974.48
642.89	967.90
643.23	961.34
643.58	955.61
643.92	949.39
644.26	943.35
644.61	937.32
644.95	931.29
645.29	924.69
645.64	917.93
645.98	911.62
646.32	905.81
646.66	899.74
647.01	893.89
647.35	888.27
647.69	882.39
648.04	876.91
648.38	871.09
648.72	865.05
649.06	858.85
649.41	852.96
649.75	846.85
650.09	840.93
650.43	835.10
650.78	828.92
651.12	822.98
651.46	817.19
651.80	811.36
652.14	805.92
652.49	800.56
652.83	795.39
653.17	789.67
653.51	783.95
653.85	778.53
654.20	772.96
654.54	766.94
654.88	761.29
655.22	755.44
655.56	749.73
655.90	744.36
656.25	739.14
656.59	733.79
656.93	728.80
657.27	723.58
657.61	718.24
657.95	713.14
658.29	708.03
658.64	702.79
658.98	697.50
659.32	692.04
659.66	686.84
660.00	681.53
660.34	676.63
660.68	671.74
661.02	666.73
661.36	661.99
661.70	657.40
662.05	652.96
662.39	648.60
662.73	644.18
663.07	639.80
663.41	635.36
663.75	630.86
664.09	626.32
664.43	621.98
664.77	617.79
665.11	613.52
665.45	609.41
665.79	605.43
666.13	601.40
666.47	597.26
666.81	593.10
667.15	589.05
667.49	585.18
667.83	581.40
668.17	577.53
668.51	573.49
668.85	569.52
669.19	565.75
669.53	561.95
669.87	558.03
670.21	554.30
670.55	550.69
670.89	547.27
671.23	543.85
671.57	540.36
671.91	536.89
672.25	533.48
672.58	530.06
672.92	526.66
673.26	523.52
673.60	520.39
673.94	517.30
674.28	514.37
674.62	511.43
674.96	508.31
675.30	505.36
675.64	502.39
675.97	499.62
676.31	496.68
676.65	493.70
676.99	491.02
677.33	488.20
677.67	485.40
678.01	482.37
678.34	479.37
678.68	476.54
679.02	473.73
679.36	470.99
679.70	468.21
680.04	465.40
680.37	462.51
680.71	459.75
681.05	457.15
681.39	454.46
681.73	451.81
682.06	449.30
682.40	446.84
682.74	444.33
683.08	441.87
683.42	439.36
683.75	436.93
684.09	434.42
684.43	431.98
684.77	429.51
685.10	427.19
685.44	424.94
685.78	422.65
686.12	420.46
686.45	418.21
686.79	415.92
687.13	413.76
687.46	411.62
687.80	409.50
688.14	407.29
688.48	405.23
688.81	402.99
689.15	400.84
689.49	398.70
689.82	396.68
690.16	394.57
690.50	392.61
690.83	390.65
691.17	388.68
691.51	386.75
691.84	384.90
692.18	382.94
692.52	380.94
692.85	378.99
693.19	377.08
693.52	375.22
693.86	373.44
694.20	371.65
694.53	369.82
694.87	367.93
695.21	366.17
695.54	364.36
695.88	362.64
696.21	360.91
696.55	359.20
696.88	357.49
697.22	355.81
697.56	354.15
697.89	352.45
698.23	350.81
698.56	349.22
698.90	347.61
699.23	346.01
699.57	344.47
699.90	342.94
700.24	341.41
700.58	339.86
700.91	338.37
701.25	336.94
701.58	335.55
701.92	334.21
702.25	332.84
702.59	331.46
702.92	330.16
703.26	328.85
703.59	327.56
703.93	326.38
704.26	325.16
704.60	323.89
704.93	322.63
705.26	321.41
705.60	320.22
705.93	319.07
706.27	318.04
706.60	317.04
706.94	315.95
707.27	314.81
707.61	313.75
707.94	312.75
708.27	311.63
708.61	310.55
708.94	309.56
709.28	308.58
709.61	307.61
709.94	306.63
710.28	305.61
710.61	304.65
710.95	303.59
711.28	302.67
711.61	301.72
711.95	300.80
712.28	299.87
712.61	298.93
712.95	298.02
713.28	297.12
713.61	296.20
713.95	295.32
714.28	294.51
714.61	293.66
714.95	292.79
715.28	291.99
715.61	291.15
715.95	290.28
716.28	289.43
716.61	288.58
716.95	287.80
717.28	287.11
717.61	286.37
717.94	285.59
718.28	284.84
718.61	284.14
718.94	283.49
719.27	282.83
719.61	282.19
719.94	281.52
720.27	280.81
720.60	280.12
720.94	279.52
721.27	278.93
721.60	278.36
721.93	277.77
722.27	277.19
722.60	276.63
722.93	276.06
723.26	275.52
723.59	274.99
723.93	274.45
724.26	273.87
724.59	273.31
724.92	272.81
725.25	272.30
725.59	271.80
725.92	271.26
726.25	270.72
726.58	270.19
726.91	269.70
727.24	269.25
727.57	268.84
727.91	268.32
728.24	267.85
728.57	267.38
728.90	266.92
729.23	266.42
729.56	265.98
729.89	265.52
730.22	265.02
730.55	264.57
730.89	264.09
731.22	263.63
731.55	263.15
731.88	262.70
732.21	262.25
732.54	261.76
732.87	261.37
733.20	260.94
733.53	260.56
733.86	260.19
734.19	259.77
734.52	259.36
734.85	259.02
735.18	258.58
735.51	258.20
735.84	257.82
736.17	257.46
736.50	257.07
736.83	256.86
737.16	256.50
737.49	256.13
737.82	255.79
738.15	255.51
738.48	255.20
738.81	254.85
739.14	254.54
739.47	254.28
739.80	253.89
740.13	253.62
740.46	253.30
740.79	252.98
741.12	252.64
741.45	252.37
741.78	252.06
742.11	251.79
742.44	251.48
742.77	251.19
743.10	250.90
743.43	250.62
743.75	250.24
744.08	250.10
744.41	249.83
744.74	249.55
745.07	249.24
745.40	249.01
745.73	248.81
746.06	248.55
746.39	248.27
746.71	248.07
747.04	247.78
747.37	247.51
747.70	247.26
748.03	247.07
748.36	246.81
748.68	246.55
749.01	246.29
749.34	246.06
749.67	245.83
750.00	245.61
750.33	245.44
750.65	245.22
750.98	244.87
751.31	244.69
751.64	244.48
751.97	244.31
752.29	244.10
752.62	243.85
752.95	243.68
753.28	243.46
753.60	243.24
753.93	243.09
754.26	242.92
754.59	242.71
754.91	242.50
755.24	242.30
755.57	242.12
755.90	241.96
756.22	241.76
756.55	241.58
756.88	241.42
757.20	241.21
757.53	241.02
757.86	240.90
758.19	240.74
758.51	240.58
758.84	240.39
759.17	240.22
759.49	240.09
759.82	239.92
760.15	239.77
760.47	239.62
760.80	239.45
761.13	239.32
761.45	239.15
761.78	239.01
762.11	238.87
762.43	238.72
762.76	238.56
763.08	238.44
763.41	238.28
763.74	238.14
764.06	237.97
764.39	237.81
764.71	237.65
765.04	237.51
765.37	237.36
765.69	237.19
766.02	237.05
766.34	236.90
766.67	236.74
767.00	236.62
767.32	236.53
767.65	236.45
767.97	236.31
768.30	236.21
768.62	236.08
768.95	235.96
769.27	235.81
769.60	235.73
769.92	235.60
770.25	235.47
770.57	235.33
770.90	235.22
771.22	235.13
771.55	235.04
771.87	234.94
772.20	234.84
772.52	234.89
772.85	234.90
773.17	234.83
773.50	234.74
773.82	234.65
774.15	234.51
774.47	234.39
774.80	234.30
775.12	234.20
775.45	234.09
775.77	234.01
776.09	233.97
776.42	233.88
776.74	233.83
777.07	233.77
777.39	233.70
777.72	233.62
778.04	233.57
778.36	233.45
778.69	233.40
779.01	233.31
779.33	233.14
779.66	232.98
779.98	232.86
780.31	232.83
780.63	232.79
780.95	232.72
781.28	232.66
781.60	232.61
781.92	232.56
782.25	232.53
782.57	232.43
782.89	232.33
783.22	232.26
783.54	232.20
783.86	232.14
784.19	232.10
784.51	232.10
784.83	232.03
785.16	232.02
785.48	231.98
785.80	231.96
786.12	231.93
786.45	231.87
786.77	231.85
787.09	231.79
787.42	231.72
787.74	231.71
788.06	231.64
788.38	231.62
788.71	231.55
789.03	231.56
789.35	231.57
789.67	231.53
789.99	231.51
790.32	231.47
790.64	231.45
790.96	231.47
791.28	231.38
791.61	231.35
791.93	231.34
792.25	231.30
792.57	231.32
792.89	231.25
793.21	231.25
793.54	231.21
793.86	231.15
794.18	231.10
794.50	231.03
794.82	231.00
795.14	230.96
795.47	230.97
795.79	230.88
796.11	230.81
796.43	230.76
796.75	230.74
797.07	230.71
797.39	230.65
797.71	230.57
798.04	230.56
798.36	230.55
798.68	230.48
799.00	230.45
799.32	230.37
799.64	230.36
799.96	230.31
800.28	230.30
800.60	230.28
800.92	230.27
801.24	230.25
801.56	230.25
801.89	230.20
802.21	230.15
802.53	230.14
802.85	230.12
803.17	230.16
803.49	230.09
803.81	230.04
804.13	230.05
804.45	230.02
804.77	229.98
805.09	229.95
805.41	229.91
805.73	229.84
806.05	229.80
806.37	229.75
806.69	229.70
807.01	229.66
807.33	229.65
807.65	229.59
807.97	229.60
808.28	229.57
808.60	229.56
808.92	229.54
809.24	229.54
809.56	229.53
809.88	229.47
810.20	229.48
810.52	229.47
810.84	229.43
811.16	229.36
811.48	229.33
811.80	229.31
812.12	229.29
812.43	229.32
812.75	229.28
813.07	229.25
813.39	229.28
813.71	229.24
814.03	229.19
814.35	229.19
814.67	229.13
814.98	229.09
815.30	229.05
815.62	228.99
815.94	228.93
816.26	228.95
816.58	228.91
816.89	228.88
817.21	228.84
817.53	228.79
817.85	228.80
818.17	228.80
818.48	228.72
818.80	228.73
819.12	228.67
819.44	228.62
819.76	228.60
820.07	228.57
820.39	228.54
820.71	228.50
821.03	228.46
821.34	228.41
821.66	228.39
821.98	228.41
822.30	228.38
822.61	228.43
822.93	228.34
823.25	228.31
823.57	228.29
823.88	228.30
824.20	228.31
824.52	228.27
824.83	228.24
825.15	228.25
825.47	228.23
825.79	228.23
826.10	228.23
826.42	228.20
826.74	228.17
827.05	228.17
827.37	228.19
827.69	228.19
828.00	228.20
828.32	228.18
828.64	228.13
828.95	228.21
829.27	228.17
829.58	228.17
829.90	228.20
830.22	228.19
830.53	228.13
830.85	228.12
831.17	228.08
831.48	228.07
831.80	228.08
832.11	228.07
832.43	228.09
832.75	228.09
833.06	228.17
833.38	228.16
833.69	228.14
834.01	228.14
834.32	228.15
834.64	228.14
834.96	228.18
835.27	228.19
835.59	228.16
835.90	228.17
836.22	228.16
836.53	228.12
836.85	228.13
837.16	228.27
837.48	228.27
837.79	228.32
838.11	228.30
838.42	228.32
838.74	228.32
839.05	228.28
839.37	228.28
839.68	228.22
840.00	228.23
840.31	228.24
840.63	228.22
840.94	228.17
841.26	228.15
841.57	228.15
841.88	228.16
842.20	228.13
842.51	228.08
842.83	228.10
843.14	228.21
843.46	228.21
843.77	228.16
844.08	228.15
844.40	228.12
844.71	228.11
845.03	228.09
845.34	228.09
845.65	228.09
845.97	228.10
846.28	228.08
846.60	228.04
846.91	228.04
847.22	228.05
847.54	228.08
847.85	228.08
848.16	228.04
848.48	227.98
848.79	228.02
849.10	228.02
849.42	228.03
849.73	227.91
850.04	227.90
850.36	227.84
850.67	227.84
850.98	227.84
851.30	227.83
851.61	227.81
851.92	227.82
852.23	227.80
852.55	227.79
852.86	227.80
853.17	227.81
853.49	227.81
853.80	227.80
854.11	227.82
854.42	227.83
854.74	227.80
855.05	227.81
855.36	227.75
855.67	227.73
855.99	227.71
856.30	227.80
856.61	227.77
856.92	227.75
857.23	227.73
857.55	227.71
857.86	227.69
858.17	227.70
858.48	227.66
858.79	227.65
859.11	227.65
859.42	227.61
859.73	227.57
860.04	227.56
860.35	227.53
860.66	227.48
860.98	227.45
861.29	227.47
861.60	227.46
861.91	227.47
862.22	227.47
862.53	227.44
862.84	227.32
863.16	227.35
863.47	227.29
863.78	227.28
864.09	227.27
864.40	227.27
864.71	227.24
865.02	227.23
865.33	227.24
865.64	227.22
865.95	227.22
866.27	227.29
866.58	227.27
866.89	227.30
867.20	227.29
867.51	227.27
867.82	227.26
868.13	227.27
868.44	227.23
868.75	227.21
869.06	227.23
869.37	227.23
869.68	227.18
869.99	227.24
870.30	227.22
870.61	227.24
870.92	227.25
871.23	227.23
871.54	227.26
871.85	227.25
872.16	227.26
872.47	227.26
872.78	227.23
873.09	227.23
873.40	227.19
873.71	227.23
874.02	227.26
874.33	227.27
874.64	227.25
874.95	227.31
875.26	227.35
875.56	227.36
875.87	227.36
876.18	227.38
876.49	227.50
876.80	227.53
877.11	227.51
877.42	227.51
877.73	227.57
878.04	227.58
878.35	227.59
878.66	227.56
878.96	227.58
879.27	227.56
879.58	227.58
879.89	227.60
880.20	227.58
880.51	227.58
880.82	227.58
881.12	227.62
881.43	227.58
881.74	227.57
882.05	227.57
882.36	227.60
882.67	227.63
882.97	227.52
883.28	227.53
883.59	227.54
883.90	227.56
884.21	227.56
884.51	227.53
884.82	227.53
885.13	227.54
885.44	227.50
885.74	227.51
886.05	227.50
886.36	227.47
886.67	227.46
886.98	227.50
887.28	227.51
887.59	227.49
887.90	227.49
888.20	227.48
888.51	227.48
888.82	227.44
889.13	227.44
889.43	227.48
889.74	227.47
890.05	227.51
890.35	227.49
890.66	227.46
890.97	227.47
891.28	227.44
891.58	227.43
891.89	227.45
892.20	227.43
892.50	227.42
892.81	227.42
893.12	227.41
893.42	227.33
893.73	227.32
894.04	227.30
894.34	227.31
894.65	227.27
894.95	227.27
895.26	227.25
895.57	227.30
895.87	227.20
896.18	227.19
896.48	227.15
896.79	227.17
897.10	227.20
897.40	227.18
897.71	227.20
898.01	227.19
898.32	227.18
898.63	227.19
898.93	227.16
899.24	227.18
899.54	227.19
899.85	227.21
900.15	227.20
900.46	227.20
900.76	227.18
901.07	227.20
901.38	227.21
901.68	227.22
901.99	227.15
902.29	227.16
902.60	227.18
902.90	227.17
903.21	227.13
903.51	227.07
903.82	227.09
904.12	227.10
904.43	227.13
904.73	227.11
905.03	227.12
905.34	227.26
905.64	227.23
905.95	227.22
906.25	227.21
906.56	227.20
906.86	227.21
907.17	227.21
907.47	227.22
907.77	227.22
908.08	227.23
908.38	227.25
908.69	227.28
908.99	227.29
909.30	227.31
909.60	227.31
909.90	227.37
910.21	227.36
910.51	227.35
910.81	227.33
911.12	227.40
911.42	227.37
911.73	227.28
912.03	227.31
912.33	227.36
912.64	227.39
912.94	227.39
913.24	227.38
913.55	227.38
913.85	227.39
914.15	227.40
914.46	227.39
914.76	227.37
915.06	227.37
915.37	227.39
915.67	227.40
915.97	227.41
916.27	227.39
916.58	227.38
916.88	227.37
917.18	227.37
917.49	227.40
917.79	227.40
918.09	227.39
918.39	227.43
918.70	227.40
919.00	227.39
919.30	227.43
919.60	227.42
919.91	227.43
920.21	227.42
920.51	227.40
920.81	227.37
921.12	227.40
921.42	227.40
921.72	227.36
922.02	227.34
922.32	227.34
922.63	227.32
922.93	227.37
923.23	227.38
923.53	227.36
923.83	227.30
924.13	227.30
924.44	227.29
924.74	227.27
925.04	227.27
925.34	227.26
925.64	227.23
925.94	227.23
926.24	227.26
926.55	227.21
926.85	227.21
927.15	227.21
927.45	227.19
927.75	227.15
928.05	227.14
928.35	227.11
928.65	227.13
928.95	227.11
929.26	227.06
929.56	227.08
929.86	227.10
930.16	227.09
930.46	227.06
930.76	227.04
931.06	226.98
931.36	226.92
931.66	226.94
931.96	226.94
932.26	226.94
932.56	226.89
932.86	226.93
933.16	226.91
933.46	226.90
933.76	226.89
934.06	226.90
934.36	226.95
934.66	226.92
934.96	226.91
935.26	226.94
935.56	226.94
935.86	226.93
936.16	226.88
936.46	226.85
936.76	226.87
937.06	226.85
937.36	226.88
937.66	226.89
937.96	226.87
938.26	226.88
938.56	226.86
938.86	226.87
939.16	226.89
939.46	226.90
939.76	226.91
940.06	226.92
940.35	226.91
940.65	226.88
940.95	226.91
941.25	226.90
941.55	226.90
941.85	226.91
942.15	226.93
942.45	226.97
942.75	226.98
943.04	227.01
943.34	227.06
943.64	227.06
943.94	227.07
944.24	227.08
944.54	227.06
944.84	227.06
945.13	227.05
945.43	227.02
945.73	227.04
946.03	227.05
946.33	227.05
946.62	227.05
946.92	227.04
947.22	227.06
947.52	227.07
947.82	227.07
948.11	227.07
948.41	227.03
948.71	227.03
949.01	227.02
949.31	226.99
949.60	226.98
949.90	227.01
950.20	227.04
950.50	227.00
950.79	227.03
951.09	227.05
951.39	227.06
951.69	227.08
951.98	227.10
952.28	227.13
952.58	227.11
952.87	227.13
953.17	227.16
953.47	227.15
953.76	227.13
954.06	227.14
954.36	227.11
954.66	227.12
954.95	227.14
955.25	227.15
955.55	227.16
955.84	227.19
956.14	227.18
956.44	227.19
956.73	227.23
957.03	227.21
957.32	227.18
957.62	227.17
957.92	227.13
958.21	227.09
958.51	227.19
958.81	227.19
959.10	227.17
959.40	227.16
959.69	227.15
959.99	227.16
960.29	227.14
960.58	227.12
960.88	227.14
961.17	227.13
961.47	227.16
961.76	227.17
962.06	227.14
962.36	227.14
962.65	227.10
962.95	227.07
963.24	227.05
963.54	227.08
963.83	227.10
964.13	227.11
964.42	227.08
964.72	227.01
965.01	227.02
965.31	227.03
965.60	227.03
965.90	227.09
966.19	227.05
966.49	227.08
966.78	227.06
967.08	227.06
967.37	227.06
967.67	227.03
967.96	227.04
968.26	227.04
968.55	227.01
968.85	227.01
969.14	227.01
969.43	227.04
969.73	227.04
970.02	227.01
970.32	227.03
970.61	227.05
970.91	227.00
971.20	227.01
971.49	227.00
971.79	226.99
972.08	226.95
972.38	226.96
972.67	226.93
972.96	226.97
973.26	226.96
973.55	226.98
973.85	226.99
974.14	226.97
974.43	226.99
974.73	226.99
975.02	227.00
975.31	227.01
975.61	226.98
975.90	226.97
976.19	226.97
976.49	226.99
976.78	227.00
977.07	227.00
977.37	227.01
977.66	227.00
977.95	226.98
978.24	226.97
978.54	226.99
978.83	226.98
979.12	227.00
979.42	226.99
979.71	226.98
980.00	226.97
980.29	226.99
980.59	226.98
980.88	227.00
981.17	226.98
981.46	226.98
981.76	227.02
982.05	227.05
982.34	227.04
982.63	227.02
982.93	227.01
983.22	227.03
983.51	227.03
983.80	227.08
984.09	227.08
984.39	227.07
984.68	227.10
984.97	227.09
985.26	227.06
985.55	227.08
985.85	227.08
986.14	227.12
986.43	227.11
986.72	227.09
987.01	227.10
987.30	227.13
987.59	227.10
987.89	227.08
988.18	227.07
988.47	227.09
988.76	227.08
989.05	227.07
989.34	227.07
989.63	227.08
989.92	227.07
990.22	227.10
990.51	227.10
990.80	227.08
991.09	227.10
991.38	227.10
991.67	227.09
991.96	227.05
992.25	227.00
992.54	227.00
992.83	227.00
993.12	226.98
993.41	226.98
993.70	227.03
993.99	227.05
994.28	227.02
994.58	227.03
994.87	227.02
995.16	227.02
995.45	227.00
995.74	226.98
996.03	226.98
996.32	226.95
996.61	226.97
996.90	226.93
997.19	226.94
997.48	226.95
997.77	226.93
998.06	226.91
998.34	226.91
998.63	226.91
998.92	226.91
999.21	226.88
999.50	226.85
999.79	226.82
1000.08	226.82
1000.37	226.83
1000.66	226.79
1000.95	226.81
1001.24	226.80
1001.53	226.82
1001.82	226.79
1002.11	226.78
1002.40	226.81
1002.68	226.82
1002.97	226.88
1003.26	226.84
1003.55	226.80
1003.84	226.79
1004.13	226.88
1004.42	226.86
1004.71	226.88
1004.99	226.88
1005.28	226.92
1005.57	226.93
1005.86	226.91
1006.15	226.89
1006.44	226.86
1006.72	226.88
1007.01	226.87
1007.30	226.86
1007.59	226.85
1007.88	226.88
1008.17	226.86
1008.45	226.82
1008.74	226.78
1009.03	226.76
1009.32	226.80
1009.60	226.82
1009.89	226.81
1010.18	226.75
1010.47	226.76
1010.76	226.76
1011.04	226.77
1011.33	226.79
1011.62	226.82
1011.91	226.87
1012.19	226.86
1012.48	226.88
1012.77	226.88
1013.05	226.93
1013.34	226.92
1013.63	226.92
1013.92	226.93
1014.20	226.92
1014.49	226.96
1014.78	226.96
1015.06	226.92
1015.35	226.92
1015.64	226.95
1015.92	226.97
1016.21	226.97
1016.50	226.98
1016.78	226.98
1017.07	226.96
1017.36	226.92
1017.64	226.89
1017.93	226.88
1018.22	226.86
1018.50	226.83
1018.79	226.85
1019.08	226.82
1019.36	226.85
1019.65	226.85
1019.93	226.86
1020.22	226.89
1020.51	226.93
1020.79	226.91
1021.08	226.54
1021.36	226.24
1021.65	227.15
1021.94	227.02
1022.22	227.03
1022.51	227.14
1022.79	227.27
1023.08	227.07
1023.36	228.11
1023.65	226.16
>>>>>End Processed Spectral Data<<<<<
