SpectraSuite Data File
++++++++++++++++++++++++++++++++++++
Date: Fri Feb 01 17:55:05 EST 2013
User: group
Dark Spectrum Present: No
Reference Spectrum Present: No
Number of Sampled Component Spectra: 1
Spectrometers: USB2E7196
Integration Time (usec): 35000 (USB2E7196)
Spectra Averaged: 100 (USB2E7196)
Boxcar Smoothing: 10 (USB2E7196)
Correct for Electrical Dark: No (USB2E7196)
Strobe/Lamp Enabled: No (USB2E7196)
Correct for Detector Non-linearity: No (USB2E7196)
Correct for Stray Light: No (USB2E7196)
Number of Pixels in Processed Spectrum: 2048
>>>>>Begin Processed Spectral Data<<<<<
339.09	0.00
339.48	212.12
339.86	213.56
340.24	215.70
340.63	217.07
341.01	219.66
341.39	219.13
341.78	220.44
342.16	221.89
342.54	222.57
342.93	210.94
343.31	221.60
343.69	222.18
344.07	222.65
344.46	223.09
344.84	223.46
345.22	223.69
345.60	223.96
345.99	224.17
346.37	224.31
346.75	224.43
347.13	224.51
347.52	224.61
347.90	224.70
348.28	224.74
348.66	224.80
349.05	224.83
349.43	224.91
349.81	224.96
350.19	225.01
350.57	225.10
350.96	225.17
351.34	225.26
351.72	225.36
352.10	225.49
352.48	225.53
352.87	225.60
353.25	225.67
353.63	225.71
354.01	225.81
354.39	225.91
354.77	225.98
355.15	226.07
355.54	226.11
355.92	226.14
356.30	226.20
356.68	226.33
357.06	226.39
357.44	226.43
357.82	226.50
358.20	226.57
358.58	226.61
358.97	226.70
359.35	226.80
359.73	226.85
360.11	226.89
360.49	226.97
360.87	227.03
361.25	227.11
361.63	227.23
362.01	227.25
362.39	227.28
362.77	227.31
363.15	227.35
363.53	227.38
363.91	227.42
364.29	227.43
364.67	227.38
365.05	227.42
365.43	227.42
365.81	227.46
366.19	227.51
366.57	227.53
366.95	227.51
367.33	227.47
367.71	227.48
368.09	227.44
368.47	227.41
368.85	227.38
369.23	227.36
369.61	227.30
369.99	227.33
370.37	227.31
370.75	227.34
371.13	227.28
371.51	227.25
371.89	227.25
372.27	227.24
372.65	227.20
373.03	227.12
373.41	227.07
373.78	227.00
374.16	226.92
374.54	226.86
374.92	226.78
375.30	226.72
375.68	226.63
376.06	226.63
376.44	226.61
376.82	226.54
377.19	226.48
377.57	226.41
377.95	226.30
378.33	226.23
378.71	226.07
379.09	226.04
379.47	225.99
379.84	225.91
380.22	225.83
380.60	225.76
380.98	225.72
381.36	225.66
381.73	225.55
382.11	225.49
382.49	225.46
382.87	225.40
383.25	225.34
383.62	225.38
384.00	225.30
384.38	225.24
384.76	225.19
385.13	225.17
385.51	225.13
385.89	225.05
386.27	225.01
386.64	224.99
387.02	224.88
387.40	224.85
387.78	224.82
388.15	224.76
388.53	224.71
388.91	224.68
389.29	224.67
389.66	224.71
390.04	224.70
390.42	224.68
390.79	224.69
391.17	224.67
391.55	224.56
391.92	224.57
392.30	224.57
392.68	224.55
393.05	224.56
393.43	224.55
393.81	224.58
394.18	224.56
394.56	224.59
394.94	224.66
395.31	224.61
395.69	224.66
396.06	224.67
396.44	224.74
396.82	224.76
397.19	224.86
397.57	224.85
397.95	224.88
398.32	224.90
398.70	224.94
399.07	225.03
399.45	225.09
399.82	225.13
400.20	225.19
400.58	225.27
400.95	225.26
401.33	225.32
401.70	225.48
402.08	225.58
402.45	225.68
402.83	225.78
403.20	225.94
403.58	226.00
403.95	226.16
404.33	226.25
404.71	226.34
405.08	226.51
405.46	226.67
405.83	226.83
406.21	227.01
406.58	227.17
406.96	227.36
407.33	227.55
407.70	227.78
408.08	228.08
408.45	228.36
408.83	228.66
409.20	228.92
409.58	229.13
409.95	229.45
410.33	229.78
410.70	230.10
411.08	230.46
411.45	230.88
411.82	231.26
412.20	231.70
412.57	232.25
412.95	232.65
413.32	233.18
413.69	233.70
414.07	234.26
414.44	234.87
414.82	235.50
415.19	236.23
415.56	236.96
415.94	237.64
416.31	238.46
416.68	239.29
417.06	240.26
417.43	241.15
417.81	242.15
418.18	243.18
418.55	244.34
418.93	245.48
419.30	246.65
419.67	247.90
420.04	249.20
420.42	250.51
420.79	252.03
421.16	253.56
421.54	255.13
421.91	256.72
422.28	258.40
422.66	260.18
423.03	261.87
423.40	263.62
423.77	265.54
424.15	267.46
424.52	269.44
424.89	271.62
425.26	273.68
425.64	275.61
426.01	277.75
426.38	279.92
426.75	282.14
427.13	284.46
427.50	286.89
427.87	289.41
428.24	291.90
428.61	294.26
428.99	296.83
429.36	299.65
429.73	302.43
430.10	305.16
430.47	307.87
430.85	310.73
431.22	313.72
431.59	316.87
431.96	319.85
432.33	323.15
432.70	326.23
433.08	330.05
433.45	333.60
433.82	337.06
434.19	340.90
434.56	344.64
434.93	348.22
435.30	351.72
435.68	355.54
436.05	359.35
436.42	363.06
436.79	366.43
437.16	370.02
437.53	373.78
437.90	377.48
438.27	381.18
438.64	384.97
439.01	388.44
439.38	391.42
439.75	394.31
440.13	397.64
440.50	400.85
440.87	403.25
441.24	405.83
441.61	408.70
441.98	410.73
442.35	413.17
442.72	415.60
443.09	418.02
443.46	419.36
443.83	420.16
444.20	420.86
444.57	422.01
444.94	422.46
445.31	422.97
445.68	423.49
446.05	423.61
446.42	423.08
446.79	422.57
447.16	422.01
447.53	421.63
447.90	420.15
448.27	418.58
448.64	416.53
449.01	415.07
449.37	412.44
449.74	409.92
450.11	406.90
450.48	403.64
450.85	400.26
451.22	397.40
451.59	394.64
451.96	392.09
452.33	388.66
452.70	385.48
453.07	381.67
453.43	377.82
453.80	374.14
454.17	370.59
454.54	367.19
454.91	363.59
455.28	360.03
455.65	356.69
456.02	353.36
456.38	350.48
456.75	346.90
457.12	343.93
457.49	340.97
457.86	338.08
458.23	335.57
458.59	332.85
458.96	330.06
459.33	327.60
459.70	325.06
460.07	322.96
460.43	320.67
460.80	318.49
461.17	316.55
461.54	314.53
461.91	312.60
462.27	310.65
462.64	308.91
463.01	307.07
463.38	305.28
463.74	303.48
464.11	301.88
464.48	300.52
464.85	299.03
465.21	297.86
465.58	296.61
465.95	295.14
466.32	293.91
466.68	292.69
467.05	291.50
467.42	290.34
467.78	289.13
468.15	287.91
468.52	286.99
468.88	285.81
469.25	284.75
469.62	283.87
469.98	282.93
470.35	282.07
470.72	281.23
471.08	280.37
471.45	279.65
471.82	278.91
472.18	278.07
472.55	277.46
472.92	276.69
473.28	276.03
473.65	275.39
474.02	274.79
474.38	274.30
474.75	273.87
475.11	273.31
475.48	272.92
475.85	272.58
476.21	272.22
476.58	271.95
476.94	271.69
477.31	271.44
477.67	271.20
478.04	270.99
478.41	270.87
478.77	270.80
479.14	270.63
479.50	270.57
479.87	270.59
480.23	270.62
480.60	270.68
480.96	270.69
481.33	270.86
481.69	271.00
482.06	271.09
482.42	271.18
482.79	271.41
483.15	271.66
483.52	272.04
483.88	272.36
484.25	272.73
484.61	273.16
484.98	273.57
485.34	274.11
485.71	274.71
486.07	275.27
486.44	275.82
486.80	276.55
487.17	277.28
487.53	278.05
487.90	278.88
488.26	279.81
488.62	280.82
488.99	281.82
489.35	282.90
489.72	284.09
490.08	285.34
490.44	286.64
490.81	288.06
491.17	289.43
491.54	290.98
491.90	292.56
492.26	294.26
492.63	296.12
492.99	297.95
493.36	299.90
493.72	302.09
494.08	304.35
494.45	306.69
494.81	309.19
495.17	311.76
495.54	314.46
495.90	317.30
496.26	320.28
496.63	323.43
496.99	326.69
497.35	330.13
497.72	333.73
498.08	337.45
498.44	341.34
498.80	345.48
499.17	349.74
499.53	354.17
499.89	358.83
500.26	363.59
500.62	368.56
500.98	373.85
501.34	379.15
501.71	384.75
502.07	390.56
502.43	396.51
502.79	402.66
503.16	409.13
503.52	415.74
503.88	422.51
504.24	429.51
504.60	436.79
504.97	444.35
505.33	452.08
505.69	460.28
506.05	468.52
506.41	476.88
506.78	485.51
507.14	494.48
507.50	503.69
507.86	513.22
508.22	523.02
508.59	532.84
508.95	543.02
509.31	553.48
509.67	564.21
510.03	575.16
510.39	586.46
510.75	597.90
511.12	609.58
511.48	621.68
511.84	633.96
512.20	646.37
512.56	659.13
512.92	672.17
513.28	685.42
513.64	698.78
514.00	712.36
514.37	726.32
514.73	740.29
515.09	754.28
515.45	768.53
515.81	783.06
516.17	798.03
516.53	813.28
516.89	828.58
517.25	843.86
517.61	859.36
517.97	874.92
518.33	890.50
518.69	906.47
519.05	922.68
519.41	938.98
519.77	955.70
520.13	972.48
520.49	989.30
520.85	1005.94
521.21	1022.85
521.57	1040.57
521.93	1057.57
522.29	1075.32
522.65	1092.99
523.01	1110.75
523.37	1128.25
523.73	1145.88
524.09	1163.40
524.45	1181.14
524.81	1199.32
525.17	1217.65
525.53	1236.15
525.89	1254.62
526.25	1273.09
526.61	1291.09
526.97	1309.57
527.33	1327.68
527.68	1345.90
528.04	1364.02
528.40	1382.24
528.76	1401.10
529.12	1419.37
529.48	1438.19
529.84	1455.95
530.20	1474.40
530.56	1493.19
530.91	1512.54
531.27	1531.35
531.63	1549.79
531.99	1568.30
532.35	1586.22
532.71	1604.16
533.07	1622.36
533.42	1640.31
533.78	1658.31
534.14	1676.45
534.50	1693.83
534.86	1711.68
535.21	1728.84
535.57	1746.81
535.93	1764.41
536.29	1781.24
536.65	1798.36
537.00	1815.10
537.36	1832.58
537.72	1849.12
538.08	1865.77
538.44	1881.62
538.79	1897.51
539.15	1913.13
539.51	1928.93
539.87	1945.46
540.22	1961.22
540.58	1977.17
540.94	1992.51
541.29	2007.45
541.65	2022.36
542.01	2037.59
542.37	2052.15
542.72	2066.70
543.08	2080.54
543.44	2095.04
543.79	2108.53
544.15	2121.56
544.51	2135.24
544.87	2148.42
545.22	2161.54
545.58	2173.76
545.94	2185.67
546.29	2197.52
546.65	2209.62
547.01	2221.06
547.36	2231.84
547.72	2242.42
548.07	2252.39
548.43	2262.58
548.79	2272.39
549.14	2281.97
549.50	2291.32
549.86	2300.82
550.21	2310.18
550.57	2319.24
550.92	2327.78
551.28	2336.69
551.64	2345.76
551.99	2354.18
552.35	2362.07
552.70	2370.01
553.06	2377.92
553.41	2386.06
553.77	2393.87
554.13	2401.57
554.48	2409.58
554.84	2416.90
555.19	2423.69
555.55	2430.43
555.90	2436.59
556.26	2443.43
556.61	2449.59
556.97	2455.63
557.32	2461.42
557.68	2467.14
558.03	2473.16
558.39	2478.47
558.74	2484.65
559.10	2490.15
559.45	2495.34
559.81	2501.15
560.16	2506.37
560.52	2511.03
560.87	2515.88
561.23	2519.85
561.58	2524.14
561.94	2527.88
562.29	2531.28
562.64	2535.55
563.00	2539.42
563.35	2544.23
563.71	2548.69
564.06	2553.34
564.42	2557.50
564.77	2561.47
565.12	2564.96
565.48	2568.01
565.83	2570.97
566.19	2573.58
566.54	2575.19
566.89	2577.32
567.25	2578.98
567.60	2581.43
567.96	2584.10
568.31	2585.71
568.66	2588.03
569.02	2589.46
569.37	2590.69
569.72	2592.67
570.08	2593.67
570.43	2594.45
570.78	2594.73
571.14	2593.64
571.49	2592.78
571.84	2592.96
572.20	2592.33
572.55	2591.89
572.90	2590.64
573.26	2589.81
573.61	2588.20
573.96	2587.06
574.31	2584.35
574.67	2581.63
575.02	2578.06
575.37	2574.65
575.72	2571.18
576.08	2567.80
576.43	2564.65
576.78	2561.01
577.13	2557.69
577.49	2554.45
577.84	2551.09
578.19	2547.14
578.54	2543.65
578.90	2539.43
579.25	2533.62
579.60	2528.36
579.95	2522.93
580.30	2517.63
580.66	2512.25
581.01	2507.13
581.36	2501.92
581.71	2497.66
582.06	2493.08
582.42	2488.45
582.77	2482.93
583.12	2478.00
583.47	2473.17
583.82	2467.98
584.17	2462.56
584.53	2456.67
584.88	2450.72
585.23	2444.57
585.58	2438.60
585.93	2432.68
586.28	2427.40
586.63	2422.09
586.98	2416.55
587.34	2411.33
587.69	2405.97
588.04	2400.20
588.39	2393.91
588.74	2386.70
589.09	2379.86
589.44	2372.21
589.79	2365.37
590.14	2359.14
590.49	2351.86
590.84	2344.49
591.19	2337.77
591.54	2330.26
591.89	2322.03
592.25	2314.45
592.60	2306.19
592.95	2297.96
593.30	2289.62
593.65	2281.04
594.00	2272.95
594.35	2264.76
594.70	2255.61
595.05	2247.59
595.40	2239.25
595.75	2230.75
596.10	2223.83
596.45	2216.24
596.80	2209.27
597.15	2201.80
597.50	2194.02
597.85	2186.49
598.19	2179.14
598.54	2171.05
598.89	2163.57
599.24	2156.90
599.59	2149.29
599.94	2142.16
600.29	2134.79
600.64	2127.21
600.99	2118.73
601.34	2110.84
601.69	2102.79
602.04	2095.20
602.39	2086.79
602.74	2078.95
603.08	2071.36
603.43	2063.40
603.78	2054.93
604.13	2046.55
604.48	2038.28
604.83	2030.08
605.18	2022.35
605.53	2013.03
605.87	2003.75
606.22	1995.30
606.57	1985.90
606.92	1977.22
607.27	1968.99
607.62	1961.10
607.96	1952.71
608.31	1945.27
608.66	1936.40
609.01	1927.76
609.36	1918.96
609.70	1909.73
610.05	1900.42
610.40	1891.33
610.75	1881.78
611.10	1872.91
611.44	1863.12
611.79	1853.51
612.14	1843.51
612.49	1832.72
612.83	1822.78
613.18	1813.17
613.53	1803.75
613.88	1793.96
614.22	1784.32
614.57	1774.24
614.92	1764.62
615.27	1755.86
615.61	1746.11
615.96	1736.76
616.31	1727.74
616.65	1719.05
617.00	1710.19
617.35	1701.15
617.70	1691.64
618.04	1681.79
618.39	1672.05
618.74	1663.23
619.08	1653.59
619.43	1644.71
619.78	1636.55
620.12	1628.31
620.47	1619.60
620.82	1609.91
621.16	1600.98
621.51	1591.98
621.85	1583.02
622.20	1573.24
622.55	1563.45
622.89	1554.15
623.24	1545.17
623.59	1536.35
623.93	1527.53
624.28	1518.99
624.62	1510.18
624.97	1501.66
625.32	1493.71
625.66	1485.56
626.01	1477.18
626.35	1468.67
626.70	1459.50
627.04	1450.50
627.39	1441.27
627.73	1432.52
628.08	1424.57
628.43	1416.40
628.77	1408.03
629.12	1399.24
629.46	1390.82
629.81	1381.93
630.15	1373.46
630.50	1364.89
630.84	1355.47
631.19	1346.15
631.53	1337.27
631.88	1328.34
632.22	1319.48
632.57	1310.80
632.91	1301.94
633.26	1293.20
633.60	1284.44
633.95	1276.12
634.29	1267.92
634.64	1260.20
634.98	1251.76
635.32	1243.34
635.67	1235.43
636.01	1227.62
636.36	1219.65
636.70	1212.02
637.05	1204.51
637.39	1197.01
637.73	1189.45
638.08	1182.57
638.42	1175.61
638.77	1168.16
639.11	1160.72
639.45	1153.21
639.80	1145.58
640.14	1138.19
640.49	1130.77
640.83	1123.60
641.17	1116.51
641.52	1109.12
641.86	1101.55
642.20	1094.69
642.55	1087.33
642.89	1079.94
643.23	1072.22
643.58	1065.58
643.92	1058.37
644.26	1051.49
644.61	1044.47
644.95	1037.47
645.29	1030.00
645.64	1022.27
645.98	1014.95
646.32	1007.98
646.66	1001.05
647.01	994.34
647.35	987.64
647.69	980.74
648.04	974.29
648.38	967.58
648.72	960.67
649.06	953.86
649.41	947.04
649.75	940.29
650.09	933.41
650.43	926.80
650.78	919.71
651.12	912.79
651.46	906.07
651.80	899.51
652.14	893.37
652.49	887.12
652.83	881.16
653.17	874.73
653.51	868.24
653.85	861.94
654.20	855.55
654.54	848.70
654.88	842.10
655.22	835.28
655.56	828.72
655.90	822.48
656.25	816.41
656.59	810.34
656.93	804.45
657.27	798.52
657.61	792.23
657.95	786.36
658.29	780.61
658.64	774.58
658.98	768.35
659.32	761.93
659.66	755.98
660.00	749.86
660.34	744.07
660.68	738.45
661.02	732.70
661.36	727.25
661.70	722.00
662.05	717.07
662.39	712.16
662.73	706.99
663.07	701.96
663.41	696.82
663.75	691.64
664.09	686.34
664.43	681.26
664.77	676.60
665.11	671.77
665.45	666.99
665.79	662.31
666.13	657.65
666.47	652.99
666.81	648.24
667.15	643.48
667.49	639.02
667.83	634.58
668.17	630.11
668.51	625.42
668.85	620.84
669.19	616.31
669.53	611.88
669.87	607.46
670.21	603.20
670.55	598.95
670.89	594.98
671.23	591.03
671.57	587.03
671.91	582.96
672.25	578.86
672.58	574.86
672.92	570.91
673.26	567.26
673.60	563.68
673.94	560.11
674.28	556.73
674.62	553.39
674.96	549.88
675.30	546.56
675.64	543.27
675.97	540.07
676.31	536.82
676.65	533.48
676.99	530.32
677.33	527.02
677.67	523.79
678.01	520.37
678.34	517.03
678.68	513.72
679.02	510.48
679.36	507.28
679.70	504.13
680.04	501.00
680.37	497.74
680.71	494.49
681.05	491.46
681.39	488.39
681.73	485.28
682.06	482.37
682.40	479.44
682.74	476.49
683.08	473.52
683.42	470.51
683.75	467.61
684.09	464.67
684.43	461.84
684.77	459.09
685.10	456.35
685.44	453.65
685.78	450.97
686.12	448.35
686.45	445.73
686.79	443.10
687.13	440.55
687.46	438.04
687.80	435.58
688.14	433.00
688.48	430.59
688.81	428.06
689.15	425.54
689.49	423.03
689.82	420.60
690.16	418.21
690.50	415.96
690.83	413.73
691.17	411.45
691.51	409.23
691.84	407.05
692.18	404.80
692.52	402.55
692.85	400.32
693.19	398.14
693.52	396.01
693.86	393.82
694.20	391.72
694.53	389.71
694.87	387.57
695.21	385.54
695.54	383.43
695.88	381.37
696.21	379.41
696.55	377.48
696.88	375.54
697.22	373.62
697.56	371.69
697.89	369.78
698.23	367.94
698.56	366.14
698.90	364.34
699.23	362.47
699.57	360.67
699.90	358.87
700.24	357.13
700.58	355.39
700.91	353.78
701.25	352.13
701.58	350.49
701.92	348.92
702.25	347.34
702.59	345.80
702.92	344.31
703.26	342.77
703.59	341.30
703.93	339.92
704.26	338.54
704.60	337.10
704.93	335.64
705.26	334.22
705.60	332.82
705.93	331.46
706.27	330.29
706.60	329.09
706.94	327.86
707.27	326.53
707.61	325.31
707.94	324.07
708.27	322.78
708.61	321.52
708.94	320.33
709.28	319.17
709.61	318.03
709.94	316.91
710.28	315.81
710.61	314.65
710.95	313.39
711.28	312.31
711.61	311.21
711.95	310.14
712.28	309.07
712.61	307.93
712.95	306.86
713.28	305.80
713.61	304.78
713.95	303.80
714.28	302.84
714.61	301.87
714.95	300.89
715.28	299.91
715.61	298.90
715.95	297.94
716.28	296.97
716.61	296.03
716.95	295.08
717.28	294.19
717.61	293.32
717.94	292.50
718.28	291.57
718.61	290.73
718.94	289.93
719.27	289.18
719.61	288.45
719.94	287.68
720.27	286.84
720.60	286.06
720.94	285.33
721.27	284.67
721.60	283.97
721.93	283.32
722.27	282.69
722.60	282.09
722.93	281.41
723.26	280.77
723.59	280.13
723.93	279.50
724.26	278.85
724.59	278.20
724.92	277.57
725.25	277.00
725.59	276.38
725.92	275.81
726.25	275.19
726.58	274.60
726.91	274.02
727.24	273.50
727.57	272.91
727.91	272.31
728.24	271.72
728.57	271.16
728.90	270.61
729.23	270.04
729.56	269.49
729.89	268.96
730.22	268.38
730.55	267.86
730.89	267.35
731.22	266.84
731.55	266.36
731.88	265.88
732.21	265.39
732.54	264.92
732.87	264.44
733.20	263.96
733.53	263.53
733.86	263.11
734.19	262.66
734.52	262.24
734.85	261.87
735.18	261.40
735.51	261.00
735.84	260.58
736.17	260.19
736.50	259.75
736.83	259.47
737.16	259.09
737.49	258.67
737.82	258.27
738.15	257.88
738.48	257.43
738.81	257.04
739.14	256.63
739.47	256.23
739.80	255.84
740.13	255.49
740.46	255.10
740.79	254.70
741.12	254.33
741.45	253.97
741.78	253.58
742.11	253.25
742.44	252.86
742.77	252.49
743.10	252.08
743.43	251.71
743.75	251.26
744.08	251.08
744.41	250.76
744.74	250.44
745.07	250.10
745.40	249.83
745.73	249.54
746.06	249.25
746.39	248.93
746.71	248.65
747.04	248.35
747.37	248.04
747.70	247.77
748.03	247.50
748.36	247.21
748.68	246.93
749.01	246.62
749.34	246.37
749.67	246.12
750.00	245.91
750.33	245.73
750.65	245.46
750.98	245.13
751.31	244.88
751.64	244.63
751.97	244.44
752.29	244.20
752.62	243.95
752.95	243.72
753.28	243.50
753.60	243.23
753.93	243.02
754.26	242.82
754.59	242.58
754.91	242.36
755.24	242.16
755.57	241.93
755.90	241.73
756.22	241.48
756.55	241.28
756.88	241.07
757.20	240.86
757.53	240.69
757.86	240.45
758.19	240.28
758.51	240.10
758.84	239.86
759.17	239.68
759.49	239.50
759.82	239.34
760.15	239.22
760.47	239.04
760.80	238.82
761.13	238.68
761.45	238.49
761.78	238.28
762.11	238.13
762.43	237.98
762.76	237.82
763.08	237.70
763.41	237.51
763.74	237.35
764.06	237.18
764.39	237.02
764.71	236.87
765.04	236.71
765.37	236.54
765.69	236.41
766.02	236.29
766.34	236.15
766.67	236.01
767.00	235.86
767.32	235.80
767.65	235.78
767.97	235.66
768.30	235.55
768.62	235.46
768.95	235.30
769.27	235.19
769.60	235.09
769.92	234.96
770.25	234.85
770.57	234.70
770.90	234.58
771.22	234.43
771.55	234.33
771.87	234.24
772.20	234.13
772.52	234.10
772.85	234.11
773.17	234.02
773.50	233.89
773.82	233.75
774.15	233.59
774.47	233.40
774.80	233.24
775.12	233.15
775.45	233.03
775.77	232.97
776.09	232.83
776.42	232.73
776.74	232.65
777.07	232.55
777.39	232.47
777.72	232.37
778.04	232.32
778.36	232.20
778.69	232.09
779.01	232.02
779.33	231.87
779.66	231.65
779.98	231.56
780.31	231.46
780.63	231.44
780.95	231.41
781.28	231.34
781.60	231.25
781.92	231.14
782.25	231.05
782.57	230.97
782.89	230.91
783.22	230.84
783.54	230.78
783.86	230.73
784.19	230.65
784.51	230.61
784.83	230.53
785.16	230.49
785.48	230.43
785.80	230.36
786.12	230.31
786.45	230.24
786.77	230.20
787.09	230.15
787.42	230.02
787.74	229.93
788.06	229.88
788.38	229.84
788.71	229.76
789.03	229.74
789.35	229.73
789.67	229.69
789.99	229.65
790.32	229.57
790.64	229.54
790.96	229.58
791.28	229.49
791.61	229.42
791.93	229.39
792.25	229.31
792.57	229.31
792.89	229.23
793.21	229.19
793.54	229.11
793.86	229.08
794.18	229.06
794.50	228.99
794.82	228.92
795.14	228.90
795.47	228.93
795.79	228.87
796.11	228.79
796.43	228.74
796.75	228.69
797.07	228.65
797.39	228.61
797.71	228.49
798.04	228.49
798.36	228.46
798.68	228.42
799.00	228.47
799.32	228.44
799.64	228.42
799.96	228.38
800.28	228.35
800.60	228.29
800.92	228.26
801.24	228.23
801.56	228.20
801.89	228.15
802.21	228.09
802.53	228.07
802.85	228.06
803.17	228.07
803.49	228.00
803.81	227.96
804.13	227.92
804.45	227.92
804.77	227.86
805.09	227.82
805.41	227.78
805.73	227.69
806.05	227.61
806.37	227.59
806.69	227.55
807.01	227.53
807.33	227.54
807.65	227.49
807.97	227.53
808.28	227.49
808.60	227.49
808.92	227.45
809.24	227.50
809.56	227.47
809.88	227.40
810.20	227.42
810.52	227.42
810.84	227.38
811.16	227.31
811.48	227.29
811.80	227.32
812.12	227.31
812.43	227.31
812.75	227.29
813.07	227.25
813.39	227.24
813.71	227.18
814.03	227.12
814.35	227.09
814.67	227.02
814.98	226.99
815.30	226.95
815.62	226.92
815.94	226.78
816.26	226.79
816.58	226.76
816.89	226.74
817.21	226.69
817.53	226.66
817.85	226.66
818.17	226.64
818.48	226.55
818.80	226.52
819.12	226.48
819.44	226.43
819.76	226.41
820.07	226.41
820.39	226.42
820.71	226.43
821.03	226.43
821.34	226.39
821.66	226.38
821.98	226.38
822.30	226.37
822.61	226.42
822.93	226.35
823.25	226.33
823.57	226.29
823.88	226.29
824.20	226.28
824.52	226.26
824.83	226.26
825.15	226.26
825.47	226.25
825.79	226.28
826.10	226.26
826.42	226.26
826.74	226.22
827.05	226.18
827.37	226.13
827.69	226.11
828.00	226.11
828.32	226.13
828.64	226.10
828.95	226.12
829.27	226.10
829.58	226.09
829.90	226.10
830.22	226.06
830.53	226.04
830.85	226.01
831.17	225.99
831.48	225.97
831.80	225.94
832.11	225.89
832.43	225.82
832.75	225.82
833.06	225.86
833.38	225.81
833.69	225.78
834.01	225.84
834.32	225.82
834.64	225.78
834.96	225.78
835.27	225.76
835.59	225.72
835.90	225.67
836.22	225.64
836.53	225.59
836.85	225.62
837.16	225.71
837.48	225.72
837.79	225.72
838.11	225.70
838.42	225.70
838.74	225.71
839.05	225.72
839.37	225.72
839.68	225.63
840.00	225.65
840.31	225.68
840.63	225.63
840.94	225.61
841.26	225.62
841.57	225.56
841.88	225.55
842.20	225.51
842.51	225.52
842.83	225.50
843.14	225.61
843.46	225.60
843.77	225.53
844.08	225.50
844.40	225.46
844.71	225.45
845.03	225.42
845.34	225.43
845.65	225.39
845.97	225.37
846.28	225.38
846.60	225.37
846.91	225.35
847.22	225.33
847.54	225.37
847.85	225.36
848.16	225.35
848.48	225.35
848.79	225.41
849.10	225.41
849.42	225.42
849.73	225.32
850.04	225.30
850.36	225.26
850.67	225.28
850.98	225.29
851.30	225.29
851.61	225.31
851.92	225.28
852.23	225.33
852.55	225.35
852.86	225.37
853.17	225.38
853.49	225.40
853.80	225.43
854.11	225.40
854.42	225.43
854.74	225.44
855.05	225.46
855.36	225.39
855.67	225.39
855.99	225.39
856.30	225.50
856.61	225.49
856.92	225.47
857.23	225.46
857.55	225.43
857.86	225.41
858.17	225.44
858.48	225.45
858.79	225.42
859.11	225.44
859.42	225.40
859.73	225.38
860.04	225.37
860.35	225.37
860.66	225.37
860.98	225.35
861.29	225.34
861.60	225.30
861.91	225.34
862.22	225.31
862.53	225.31
862.84	225.17
863.16	225.22
863.47	225.24
863.78	225.24
864.09	225.24
864.40	225.25
864.71	225.24
865.02	225.23
865.33	225.24
865.64	225.20
865.95	225.21
866.27	225.30
866.58	225.27
866.89	225.24
867.20	225.23
867.51	225.20
867.82	225.20
868.13	225.22
868.44	225.19
868.75	225.20
869.06	225.18
869.37	225.18
869.68	225.13
869.99	225.12
870.30	225.10
870.61	225.12
870.92	225.11
871.23	225.09
871.54	225.09
871.85	225.10
872.16	225.13
872.47	225.13
872.78	225.04
873.09	225.04
873.40	225.06
873.71	225.08
874.02	225.09
874.33	225.10
874.64	225.08
874.95	225.09
875.26	225.09
875.56	225.08
875.87	225.10
876.18	225.12
876.49	225.23
876.80	225.22
877.11	225.20
877.42	225.19
877.73	225.21
878.04	225.22
878.35	225.21
878.66	225.20
878.96	225.18
879.27	225.17
879.58	225.14
879.89	225.09
880.20	225.12
880.51	225.11
880.82	225.09
881.12	225.10
881.43	225.08
881.74	225.06
882.05	225.09
882.36	225.06
882.67	225.05
882.97	224.93
883.28	224.96
883.59	224.95
883.90	224.97
884.21	224.95
884.51	224.91
884.82	224.89
885.13	224.88
885.44	224.88
885.74	224.90
886.05	224.92
886.36	224.97
886.67	224.92
886.98	224.95
887.28	224.98
887.59	225.02
887.90	225.04
888.20	225.04
888.51	225.03
888.82	225.02
889.13	225.02
889.43	225.13
889.74	225.11
890.05	225.11
890.35	225.11
890.66	225.12
890.97	225.13
891.28	225.12
891.58	225.13
891.89	225.12
892.20	225.12
892.50	225.09
892.81	225.06
893.12	225.05
893.42	225.00
893.73	224.99
894.04	224.95
894.34	224.94
894.65	224.95
894.95	224.92
895.26	224.95
895.57	224.99
895.87	224.88
896.18	224.89
896.48	224.88
896.79	224.88
897.10	224.89
897.40	224.90
897.71	224.89
898.01	224.84
898.32	224.86
898.63	224.81
898.93	224.84
899.24	224.85
899.54	224.86
899.85	224.88
900.15	224.85
900.46	224.83
900.76	224.82
901.07	224.77
901.38	224.77
901.68	224.74
901.99	224.67
902.29	224.67
902.60	224.63
902.90	224.63
903.21	224.61
903.51	224.62
903.82	224.61
904.12	224.61
904.43	224.65
904.73	224.66
905.03	224.70
905.34	224.76
905.64	224.74
905.95	224.71
906.25	224.69
906.56	224.70
906.86	224.69
907.17	224.68
907.47	224.72
907.77	224.72
908.08	224.72
908.38	224.75
908.69	224.71
908.99	224.72
909.30	224.71
909.60	224.71
909.90	224.70
910.21	224.67
910.51	224.64
910.81	224.61
911.12	224.59
911.42	224.56
911.73	224.47
912.03	224.47
912.33	224.52
912.64	224.51
912.94	224.51
913.24	224.50
913.55	224.50
913.85	224.45
914.15	224.45
914.46	224.44
914.76	224.41
915.06	224.40
915.37	224.40
915.67	224.41
915.97	224.41
916.27	224.33
916.58	224.36
916.88	224.38
917.18	224.38
917.49	224.44
917.79	224.45
918.09	224.44
918.39	224.46
918.70	224.43
919.00	224.44
919.30	224.48
919.60	224.44
919.91	224.44
920.21	224.48
920.51	224.50
920.81	224.50
921.12	224.53
921.42	224.57
921.72	224.57
922.02	224.56
922.32	224.57
922.63	224.62
922.93	224.65
923.23	224.64
923.53	224.63
923.83	224.58
924.13	224.53
924.44	224.55
924.74	224.56
925.04	224.58
925.34	224.59
925.64	224.54
925.94	224.57
926.24	224.64
926.55	224.63
926.85	224.63
927.15	224.65
927.45	224.64
927.75	224.63
928.05	224.64
928.35	224.64
928.65	224.66
928.95	224.70
929.26	224.67
929.56	224.68
929.86	224.69
930.16	224.69
930.46	224.75
930.76	224.78
931.06	224.76
931.36	224.75
931.66	224.74
931.96	224.78
932.26	224.78
932.56	224.74
932.86	224.75
933.16	224.74
933.46	224.73
933.76	224.74
934.06	224.79
934.36	224.83
934.66	224.87
934.96	224.86
935.26	224.81
935.56	224.83
935.86	224.82
936.16	224.84
936.46	224.88
936.76	224.86
937.06	224.84
937.36	224.85
937.66	224.88
937.96	224.89
938.26	224.88
938.56	224.89
938.86	224.88
939.16	224.94
939.46	224.96
939.76	224.98
940.06	224.96
940.35	224.92
940.65	224.87
940.95	224.83
941.25	224.79
941.55	224.82
941.85	224.83
942.15	224.86
942.45	224.89
942.75	224.83
943.04	224.82
943.34	224.84
943.64	224.83
943.94	224.79
944.24	224.78
944.54	224.75
944.84	224.74
945.13	224.75
945.43	224.71
945.73	224.68
946.03	224.66
946.33	224.67
946.62	224.65
946.92	224.63
947.22	224.67
947.52	224.68
947.82	224.69
948.11	224.66
948.41	224.66
948.71	224.60
949.01	224.65
949.31	224.66
949.60	224.61
949.90	224.62
950.20	224.61
950.50	224.59
950.79	224.61
951.09	224.62
951.39	224.58
951.69	224.56
951.98	224.55
952.28	224.54
952.58	224.56
952.87	224.57
953.17	224.58
953.47	224.56
953.76	224.56
954.06	224.55
954.36	224.52
954.66	224.52
954.95	224.54
955.25	224.55
955.55	224.53
955.84	224.53
956.14	224.54
956.44	224.55
956.73	224.55
957.03	224.53
957.32	224.53
957.62	224.55
957.92	224.56
958.21	224.57
958.51	224.69
958.81	224.64
959.10	224.63
959.40	224.67
959.69	224.68
959.99	224.68
960.29	224.67
960.58	224.66
960.88	224.67
961.17	224.65
961.47	224.58
961.76	224.58
962.06	224.60
962.36	224.57
962.65	224.59
962.95	224.58
963.24	224.57
963.54	224.58
963.83	224.57
964.13	224.55
964.42	224.55
964.72	224.48
965.01	224.52
965.31	224.54
965.60	224.46
965.90	224.48
966.19	224.50
966.49	224.48
966.78	224.50
967.08	224.48
967.37	224.51
967.67	224.56
967.96	224.57
968.26	224.53
968.55	224.59
968.85	224.60
969.14	224.63
969.43	224.63
969.73	224.61
970.02	224.60
970.32	224.63
970.61	224.64
970.91	224.60
971.20	224.56
971.49	224.55
971.79	224.62
972.08	224.60
972.38	224.60
972.67	224.62
972.96	224.64
973.26	224.65
973.55	224.67
973.85	224.66
974.14	224.64
974.43	224.68
974.73	224.65
975.02	224.65
975.31	224.63
975.61	224.61
975.90	224.62
976.19	224.63
976.49	224.63
976.78	224.62
977.07	224.62
977.37	224.67
977.66	224.71
977.95	224.70
978.24	224.70
978.54	224.71
978.83	224.73
979.12	224.72
979.42	224.72
979.71	224.71
980.00	224.73
980.29	224.74
980.59	224.71
980.88	224.71
981.17	224.70
981.46	224.69
981.76	224.69
982.05	224.68
982.34	224.70
982.63	224.67
982.93	224.64
983.22	224.66
983.51	224.64
983.80	224.59
984.09	224.59
984.39	224.59
984.68	224.59
984.97	224.60
985.26	224.58
985.55	224.58
985.85	224.58
986.14	224.56
986.43	224.59
986.72	224.61
987.01	224.60
987.30	224.56
987.59	224.58
987.89	224.60
988.18	224.62
988.47	224.60
988.76	224.60
989.05	224.61
989.34	224.61
989.63	224.62
989.92	224.62
990.22	224.58
990.51	224.54
990.80	224.56
991.09	224.51
991.38	224.51
991.67	224.50
991.96	224.48
992.25	224.44
992.54	224.41
992.83	224.40
993.12	224.38
993.41	224.41
993.70	224.44
993.99	224.46
994.28	224.45
994.58	224.49
994.87	224.50
995.16	224.53
995.45	224.48
995.74	224.46
996.03	224.46
996.32	224.48
996.61	224.52
996.90	224.49
997.19	224.49
997.48	224.50
997.77	224.47
998.06	224.49
998.34	224.52
998.63	224.51
998.92	224.53
999.21	224.53
999.50	224.54
999.79	224.50
1000.08	224.49
1000.37	224.47
1000.66	224.44
1000.95	224.44
1001.24	224.41
1001.53	224.45
1001.82	224.43
1002.11	224.39
1002.40	224.40
1002.68	224.38
1002.97	224.47
1003.26	224.45
1003.55	224.44
1003.84	224.47
1004.13	224.48
1004.42	224.45
1004.71	224.47
1004.99	224.46
1005.28	224.48
1005.57	224.45
1005.86	224.45
1006.15	224.43
1006.44	224.43
1006.72	224.43
1007.01	224.43
1007.30	224.45
1007.59	224.45
1007.88	224.46
1008.17	224.49
1008.45	224.49
1008.74	224.48
1009.03	224.39
1009.32	224.39
1009.60	224.40
1009.89	224.39
1010.18	224.35
1010.47	224.37
1010.76	224.36
1011.04	224.38
1011.33	224.38
1011.62	224.40
1011.91	224.40
1012.19	224.42
1012.48	224.41
1012.77	224.40
1013.05	224.43
1013.34	224.44
1013.63	224.43
1013.92	224.41
1014.20	224.39
1014.49	224.41
1014.78	224.45
1015.06	224.42
1015.35	224.42
1015.64	224.42
1015.92	224.42
1016.21	224.44
1016.50	224.42
1016.78	224.42
1017.07	224.42
1017.36	224.38
1017.64	224.37
1017.93	224.36
1018.22	224.34
1018.50	224.36
1018.79	224.34
1019.08	224.31
1019.36	224.31
1019.65	224.28
1019.93	224.34
1020.22	224.35
1020.51	224.38
1020.79	224.34
1021.08	224.40
1021.36	224.46
1021.65	223.86
1021.94	224.31
1022.22	224.53
1022.51	224.02
1022.79	224.98
1023.08	224.25
1023.36	225.52
1023.65	224.19
>>>>>End Processed Spectral Data<<<<<
