SpectraSuite Data File
++++++++++++++++++++++++++++++++++++
Date: Fri Feb 01 15:10:33 EST 2013
User: group
Dark Spectrum Present: No
Reference Spectrum Present: No
Number of Sampled Component Spectra: 1
Spectrometers: USB2E7196
Integration Time (usec): 35000 (USB2E7196)
Spectra Averaged: 100 (USB2E7196)
Boxcar Smoothing: 10 (USB2E7196)
Correct for Electrical Dark: No (USB2E7196)
Strobe/Lamp Enabled: No (USB2E7196)
Correct for Detector Non-linearity: No (USB2E7196)
Correct for Stray Light: No (USB2E7196)
Number of Pixels in Processed Spectrum: 2048
>>>>>Begin Processed Spectral Data<<<<<
339.09	0.00
339.48	215.27
339.86	216.92
340.24	218.25
340.63	219.59
341.01	222.65
341.39	222.03
341.78	223.82
342.16	224.56
342.54	225.51
342.93	213.80
343.31	224.63
343.69	225.18
344.07	225.66
344.46	226.09
344.84	226.48
345.22	226.70
345.60	226.96
345.99	227.12
346.37	227.28
346.75	227.41
347.13	227.48
347.52	227.51
347.90	227.57
348.28	227.59
348.66	227.61
349.05	227.61
349.43	227.66
349.81	227.70
350.19	227.76
350.57	227.83
350.96	227.87
351.34	227.91
351.72	227.96
352.10	228.02
352.48	228.12
352.87	228.17
353.25	228.23
353.63	228.31
354.01	228.41
354.39	228.49
354.77	228.54
355.15	228.63
355.54	228.66
355.92	228.71
356.30	228.78
356.68	228.90
357.06	228.94
357.44	228.99
357.82	229.03
358.20	229.14
358.58	229.17
358.97	229.24
359.35	229.31
359.73	229.41
360.11	229.46
360.49	229.48
360.87	229.50
361.25	229.54
361.63	229.58
362.01	229.61
362.39	229.59
362.77	229.64
363.15	229.66
363.53	229.68
363.91	229.69
364.29	229.71
364.67	229.63
365.05	229.63
365.43	229.61
365.81	229.62
366.19	229.60
366.57	229.63
366.95	229.59
367.33	229.55
367.71	229.52
368.09	229.54
368.47	229.49
368.85	229.46
369.23	229.46
369.61	229.37
369.99	229.34
370.37	229.30
370.75	229.25
371.13	229.17
371.51	229.11
371.89	229.05
372.27	229.00
372.65	228.92
373.03	228.89
373.41	228.83
373.78	228.74
374.16	228.65
374.54	228.55
374.92	228.49
375.30	228.41
375.68	228.32
376.06	228.25
376.44	228.18
376.82	228.12
377.19	228.06
377.57	227.99
377.95	227.90
378.33	227.80
378.71	227.67
379.09	227.60
379.47	227.55
379.84	227.47
380.22	227.36
380.60	227.30
380.98	227.19
381.36	227.12
381.73	227.03
382.11	226.96
382.49	226.86
382.87	226.77
383.25	226.70
383.62	226.72
384.00	226.60
384.38	226.52
384.76	226.49
385.13	226.42
385.51	226.41
385.89	226.34
386.27	226.28
386.64	226.27
387.02	226.25
387.40	226.20
387.78	226.18
388.15	226.17
388.53	226.12
388.91	226.11
389.29	226.10
389.66	226.11
390.04	226.08
390.42	226.11
390.79	226.11
391.17	226.12
391.55	226.06
391.92	226.08
392.30	226.11
392.68	226.10
393.05	226.12
393.43	226.10
393.81	226.11
394.18	226.15
394.56	226.15
394.94	226.19
395.31	226.21
395.69	226.29
396.06	226.34
396.44	226.43
396.82	226.46
397.19	226.59
397.57	226.62
397.95	226.72
398.32	226.73
398.70	226.82
399.07	226.89
399.45	226.95
399.82	227.03
400.20	227.09
400.58	227.17
400.95	227.22
401.33	227.34
401.70	227.50
402.08	227.62
402.45	227.75
402.83	227.88
403.20	228.02
403.58	228.10
403.95	228.26
404.33	228.39
404.71	228.54
405.08	228.70
405.46	228.84
405.83	229.00
406.21	229.16
406.58	229.32
406.96	229.49
407.33	229.66
407.70	229.87
408.08	230.15
408.45	230.37
408.83	230.61
409.20	230.80
409.58	231.01
409.95	231.29
410.33	231.57
410.70	231.82
411.08	232.11
411.45	232.43
411.82	232.71
412.20	233.08
412.57	233.48
412.95	233.78
413.32	234.20
413.69	234.60
414.07	235.05
414.44	235.53
414.82	236.04
415.19	236.62
415.56	237.16
415.94	237.66
416.31	238.31
416.68	238.94
417.06	239.67
417.43	240.33
417.81	241.10
418.18	241.86
418.55	242.69
418.93	243.56
419.30	244.47
419.67	245.39
420.04	246.34
420.42	247.36
420.79	248.52
421.16	249.65
421.54	250.86
421.91	252.08
422.28	253.28
422.66	254.57
423.03	255.85
423.40	257.20
423.77	258.62
424.15	260.02
424.52	261.51
424.89	263.12
425.26	264.68
425.64	266.10
426.01	267.71
426.38	269.39
426.75	271.07
427.13	272.78
427.50	274.58
427.87	276.43
428.24	278.26
428.61	280.04
428.99	281.95
429.36	284.02
429.73	286.10
430.10	288.15
430.47	290.25
430.85	292.40
431.22	294.62
431.59	297.00
431.96	299.28
432.33	301.75
432.70	304.14
433.08	306.97
433.45	309.65
433.82	312.25
434.19	315.10
434.56	317.94
434.93	320.59
435.30	323.23
435.68	326.15
436.05	328.99
436.42	331.80
436.79	334.40
437.16	337.16
437.53	339.98
437.90	342.84
438.27	345.55
438.64	348.36
439.01	350.97
439.38	353.27
439.75	355.40
440.13	357.95
440.50	360.28
440.87	362.11
441.24	364.09
441.61	366.24
441.98	367.77
442.35	369.54
442.72	371.43
443.09	373.22
443.46	374.17
443.83	374.81
444.20	375.32
444.57	376.09
444.94	376.32
445.31	376.71
445.68	377.06
446.05	377.17
446.42	376.78
446.79	376.38
447.16	375.88
447.53	375.65
447.90	374.48
448.27	373.33
448.64	371.80
449.01	370.65
449.37	368.69
449.74	366.75
450.11	364.53
450.48	362.06
450.85	359.54
451.22	357.46
451.59	355.44
451.96	353.47
452.33	350.92
452.70	348.63
453.07	345.75
453.43	342.89
453.80	340.10
454.17	337.47
454.54	334.95
454.91	332.23
455.28	329.53
455.65	327.05
456.02	324.58
456.38	322.38
456.75	319.67
457.12	317.40
457.49	315.22
457.86	313.06
458.23	311.20
458.59	309.17
458.96	307.07
459.33	305.17
459.70	303.31
460.07	301.79
460.43	299.99
460.80	298.40
461.17	296.89
461.54	295.41
461.91	293.95
462.27	292.47
462.64	291.22
463.01	289.85
463.38	288.50
463.74	287.14
464.11	285.99
464.48	284.98
464.85	283.88
465.21	282.99
465.58	282.05
465.95	280.93
466.32	280.00
466.68	279.07
467.05	278.21
467.42	277.29
467.78	276.34
468.15	275.48
468.52	274.78
468.88	273.90
469.25	273.11
469.62	272.52
469.98	271.82
470.35	271.18
470.72	270.55
471.08	269.91
471.45	269.36
471.82	268.79
472.18	268.17
472.55	267.74
472.92	267.17
473.28	266.68
473.65	266.24
474.02	265.82
474.38	265.41
474.75	265.04
475.11	264.69
475.48	264.39
475.85	264.19
476.21	263.96
476.58	263.78
476.94	263.64
477.31	263.42
477.67	263.28
478.04	263.19
478.41	263.11
478.77	263.12
479.14	263.01
479.50	263.01
479.87	263.08
480.23	263.16
480.60	263.24
480.96	263.31
481.33	263.50
481.69	263.66
482.06	263.88
482.42	264.05
482.79	264.34
483.15	264.68
483.52	265.01
483.88	265.33
484.25	265.73
484.61	266.16
484.98	266.60
485.34	267.13
485.71	267.72
486.07	268.34
486.44	268.89
486.80	269.62
487.17	270.33
487.53	271.13
487.90	271.94
488.26	272.86
488.62	273.85
488.99	274.80
489.35	275.83
489.72	276.94
490.08	278.17
490.44	279.37
490.81	280.68
491.17	282.03
491.54	283.52
491.90	285.05
492.26	286.66
492.63	288.40
492.99	290.16
493.36	291.99
493.72	294.03
494.08	296.16
494.45	298.41
494.81	300.79
495.17	303.24
495.54	305.82
495.90	308.52
496.26	311.32
496.63	314.26
496.99	317.38
497.35	320.61
497.72	323.99
498.08	327.51
498.44	331.17
498.80	335.08
499.17	339.06
499.53	343.21
499.89	347.59
500.26	352.12
500.62	356.84
500.98	361.84
501.34	366.89
501.71	372.26
502.07	377.69
502.43	383.33
502.79	389.12
503.16	395.15
503.52	401.40
503.88	407.81
504.24	414.48
504.60	421.31
504.97	428.42
505.33	435.73
505.69	443.41
506.05	451.17
506.41	459.04
506.78	467.26
507.14	475.70
507.50	484.43
507.86	493.40
508.22	502.50
508.59	511.69
508.95	521.23
509.31	530.96
509.67	541.11
510.03	551.38
510.39	561.94
510.75	572.82
511.12	583.70
511.48	594.97
511.84	606.40
512.20	618.03
512.56	630.06
512.92	642.19
513.28	654.50
513.64	667.08
514.00	679.77
514.37	692.67
514.73	705.75
515.09	718.76
515.45	732.08
515.81	745.80
516.17	759.74
516.53	773.88
516.89	788.06
517.25	802.22
517.61	816.58
517.97	831.03
518.33	845.41
518.69	860.22
519.05	875.28
519.41	890.49
519.77	905.98
520.13	921.38
520.49	936.79
520.85	952.35
521.21	968.00
521.57	984.34
521.93	1000.12
522.29	1016.57
522.65	1032.86
523.01	1049.13
523.37	1065.14
523.73	1081.41
524.09	1097.54
524.45	1113.96
524.81	1130.63
525.17	1147.58
525.53	1164.62
525.89	1181.51
526.25	1198.40
526.61	1214.84
526.97	1231.66
527.33	1248.18
527.68	1264.88
528.04	1281.53
528.40	1298.17
528.76	1315.28
529.12	1331.81
529.48	1348.76
529.84	1364.84
530.20	1381.55
530.56	1398.61
530.91	1416.08
531.27	1432.89
531.63	1449.48
531.99	1466.17
532.35	1482.23
532.71	1498.20
533.07	1514.50
533.42	1530.47
533.78	1546.67
534.14	1563.06
534.50	1578.51
534.86	1594.46
535.21	1609.65
535.57	1625.65
535.93	1641.09
536.29	1655.92
536.65	1671.16
537.00	1686.08
537.36	1701.45
537.72	1716.05
538.08	1730.53
538.44	1744.34
538.79	1758.30
539.15	1772.12
539.51	1785.92
539.87	1800.25
540.22	1814.02
540.58	1827.93
540.94	1841.52
541.29	1854.48
541.65	1867.24
542.01	1880.53
542.37	1892.83
542.72	1905.49
543.08	1917.23
543.44	1929.78
543.79	1941.22
544.15	1952.21
544.51	1963.73
544.87	1974.75
545.22	1985.62
545.58	1995.90
545.94	2005.81
546.29	2015.74
546.65	2025.35
547.01	2034.49
547.36	2043.44
547.72	2051.92
548.07	2059.64
548.43	2067.79
548.79	2075.84
549.14	2083.36
549.50	2090.69
549.86	2098.44
550.21	2105.79
550.57	2113.15
550.92	2119.73
551.28	2126.81
551.64	2134.06
551.99	2140.70
552.35	2146.86
552.70	2152.99
553.06	2158.95
553.41	2165.24
553.77	2171.22
554.13	2177.55
554.48	2183.73
554.84	2189.08
555.19	2194.51
555.55	2199.76
555.90	2204.12
556.26	2208.91
556.61	2213.61
556.97	2217.75
557.32	2221.97
557.68	2225.98
558.03	2230.23
558.39	2234.00
558.74	2238.51
559.10	2242.24
559.45	2245.81
559.81	2250.22
560.16	2253.93
560.52	2257.26
560.87	2260.65
561.23	2263.38
561.58	2266.35
561.94	2268.87
562.29	2271.29
562.64	2273.84
563.00	2276.40
563.35	2279.98
563.71	2283.16
564.06	2286.24
564.42	2289.14
564.77	2291.48
565.12	2293.63
565.48	2295.27
565.83	2297.07
566.19	2298.37
566.54	2299.24
566.89	2300.27
567.25	2300.62
567.60	2301.94
567.96	2303.43
568.31	2304.18
568.66	2305.13
569.02	2305.59
569.37	2305.80
569.72	2306.36
570.08	2306.43
570.43	2306.26
570.78	2305.52
571.14	2303.86
571.49	2302.43
571.84	2301.97
572.20	2300.71
572.55	2299.51
572.90	2298.07
573.26	2296.61
573.61	2294.65
573.96	2292.73
574.31	2289.78
574.67	2286.63
575.02	2283.02
575.37	2279.48
575.72	2275.54
576.08	2272.14
576.43	2268.66
576.78	2264.87
577.13	2261.78
577.49	2258.57
577.84	2255.03
578.19	2251.26
578.54	2247.32
578.90	2243.03
579.25	2237.49
579.60	2232.47
579.95	2227.41
580.30	2222.18
580.66	2216.72
581.01	2211.80
581.36	2206.71
581.71	2202.40
582.06	2197.93
582.42	2193.31
582.77	2188.00
583.12	2183.39
583.47	2178.49
583.82	2173.32
584.17	2168.07
584.53	2162.42
584.88	2156.65
585.23	2150.76
585.58	2145.13
585.93	2139.83
586.28	2135.07
586.63	2129.77
586.98	2124.76
587.34	2120.11
587.69	2115.08
588.04	2109.73
588.39	2103.96
588.74	2097.45
589.09	2091.24
589.44	2084.39
589.79	2078.19
590.14	2072.49
590.49	2065.82
590.84	2059.25
591.19	2053.20
591.54	2046.56
591.89	2038.99
592.25	2032.05
592.60	2024.79
592.95	2017.07
593.30	2009.55
593.65	2001.74
594.00	1994.68
594.35	1987.31
594.70	1979.14
595.05	1971.86
595.40	1964.71
595.75	1957.15
596.10	1950.84
596.45	1943.91
596.80	1937.59
597.15	1930.89
597.50	1923.62
597.85	1917.17
598.19	1910.50
598.54	1903.33
598.89	1896.81
599.24	1890.89
599.59	1884.14
599.94	1877.92
600.29	1871.61
600.64	1865.01
600.99	1857.44
601.34	1850.54
601.69	1843.52
602.04	1836.49
602.39	1829.06
602.74	1822.12
603.08	1815.34
603.43	1808.65
603.78	1801.36
604.13	1794.08
604.48	1786.65
604.83	1779.85
605.18	1772.73
605.53	1764.70
605.87	1756.73
606.22	1749.45
606.57	1741.46
606.92	1734.18
607.27	1726.90
607.62	1719.93
607.96	1712.62
608.31	1706.05
608.66	1698.39
609.01	1690.69
609.36	1683.19
609.70	1675.19
610.05	1667.01
610.40	1659.28
610.75	1650.85
611.10	1643.10
611.44	1634.70
611.79	1626.83
612.14	1618.12
612.49	1608.98
612.83	1600.70
613.18	1592.49
613.53	1584.40
613.88	1575.99
614.22	1567.64
614.57	1559.05
614.92	1551.02
615.27	1543.39
615.61	1535.09
615.96	1527.16
616.31	1519.59
616.65	1512.15
617.00	1504.61
617.35	1496.97
617.70	1488.65
618.04	1480.15
618.39	1472.02
618.74	1464.54
619.08	1456.28
619.43	1448.79
619.78	1441.97
620.12	1434.80
620.47	1427.23
620.82	1419.06
621.16	1411.49
621.51	1403.98
621.85	1396.39
622.20	1387.81
622.55	1379.46
622.89	1371.62
623.24	1364.06
623.59	1356.72
623.93	1349.24
624.28	1342.07
624.62	1334.54
624.97	1327.40
625.32	1320.82
625.66	1313.69
626.01	1306.29
626.35	1298.79
626.70	1291.08
627.04	1283.32
627.39	1275.55
627.73	1268.21
628.08	1261.22
628.43	1253.97
628.77	1246.63
629.12	1239.11
629.46	1232.00
629.81	1224.78
630.15	1217.57
630.50	1210.16
630.84	1201.93
631.19	1194.05
631.53	1186.62
631.88	1179.22
632.22	1171.55
632.57	1164.17
632.91	1156.82
633.26	1149.56
633.60	1142.22
633.95	1135.20
634.29	1128.22
634.64	1121.56
634.98	1114.30
635.32	1107.23
635.67	1100.80
636.01	1094.15
636.36	1087.40
636.70	1081.03
637.05	1074.42
637.39	1067.98
637.73	1061.52
638.08	1055.76
638.42	1049.89
638.77	1043.43
639.11	1036.77
639.45	1030.50
639.80	1023.86
640.14	1017.43
640.49	1011.02
640.83	1004.83
641.17	998.51
641.52	992.23
641.86	985.93
642.20	980.09
642.55	973.86
642.89	967.35
643.23	960.81
643.58	955.00
643.92	948.76
644.26	942.68
644.61	936.70
644.95	930.53
645.29	923.83
645.64	917.02
645.98	910.67
646.32	904.86
646.66	898.86
647.01	893.08
647.35	887.38
647.69	881.54
648.04	876.01
648.38	870.25
648.72	864.22
649.06	858.04
649.41	852.11
649.75	846.04
650.09	840.02
650.43	834.22
650.78	828.04
651.12	822.03
651.46	816.31
651.80	810.61
652.14	805.29
652.49	799.98
652.83	794.84
653.17	789.20
653.51	783.44
653.85	777.99
654.20	772.30
654.54	766.30
654.88	760.64
655.22	754.69
655.56	749.04
655.90	743.62
656.25	738.44
656.59	733.12
656.93	728.06
657.27	722.92
657.61	717.50
657.95	712.45
658.29	707.38
658.64	702.15
658.98	696.80
659.32	691.38
659.66	686.25
660.00	680.88
660.34	675.94
660.68	671.09
661.02	666.15
661.36	661.56
661.70	657.08
662.05	652.65
662.39	648.37
662.73	643.90
663.07	639.48
663.41	635.03
663.75	630.55
664.09	626.05
664.43	621.65
664.77	617.57
665.11	613.33
665.45	609.27
665.79	605.22
666.13	601.12
666.47	597.03
666.81	592.84
667.15	588.77
667.49	584.91
667.83	581.12
668.17	577.13
668.51	573.07
668.85	569.06
669.19	565.25
669.53	561.43
669.87	557.56
670.21	553.94
670.55	550.31
670.89	546.87
671.23	543.43
671.57	539.99
671.91	536.52
672.25	533.07
672.58	529.58
672.92	526.22
673.26	523.05
673.60	519.93
673.94	516.84
674.28	513.98
674.62	511.03
674.96	507.97
675.30	505.08
675.64	502.16
675.97	499.42
676.31	496.58
676.65	493.69
676.99	491.01
677.33	488.09
677.67	485.29
678.01	482.29
678.34	479.32
678.68	476.49
679.02	473.65
679.36	470.93
679.70	468.23
680.04	465.45
680.37	462.61
680.71	459.88
681.05	457.26
681.39	454.54
681.73	451.89
682.06	449.34
682.40	446.83
682.74	444.23
683.08	441.69
683.42	439.07
683.75	436.60
684.09	434.12
684.43	431.69
684.77	429.25
685.10	426.92
685.44	424.69
685.78	422.41
686.12	420.16
686.45	417.89
686.79	415.63
687.13	413.45
687.46	411.31
687.80	409.17
688.14	407.01
688.48	404.95
688.81	402.75
689.15	400.60
689.49	398.46
689.82	396.49
690.16	394.44
690.50	392.48
690.83	390.56
691.17	388.56
691.51	386.66
691.84	384.81
692.18	382.85
692.52	380.83
692.85	378.88
693.19	377.02
693.52	375.18
693.86	373.38
694.20	371.62
694.53	369.81
694.87	367.95
695.21	366.17
695.54	364.38
695.88	362.65
696.21	360.91
696.55	359.22
696.88	357.49
697.22	355.86
697.56	354.24
697.89	352.52
698.23	350.93
698.56	349.35
698.90	347.76
699.23	346.12
699.57	344.61
699.90	343.08
700.24	341.50
700.58	339.92
700.91	338.37
701.25	336.85
701.58	335.54
701.92	334.13
702.25	332.77
702.59	331.36
702.92	330.02
703.26	328.75
703.59	327.48
703.93	326.31
704.26	325.03
704.60	323.74
704.93	322.52
705.26	321.26
705.60	320.06
705.93	318.92
706.27	317.90
706.60	316.81
706.94	315.73
707.27	314.62
707.61	313.67
707.94	312.67
708.27	311.60
708.61	310.49
708.94	309.50
709.28	308.50
709.61	307.62
709.94	306.70
710.28	305.70
710.61	304.71
710.95	303.66
711.28	302.79
711.61	301.88
711.95	300.91
712.28	299.96
712.61	298.96
712.95	298.05
713.28	297.18
713.61	296.30
713.95	295.43
714.28	294.62
714.61	293.73
714.95	292.92
715.28	292.11
715.61	291.26
715.95	290.43
716.28	289.58
716.61	288.73
716.95	287.91
717.28	287.16
717.61	286.45
717.94	285.72
718.28	284.93
718.61	284.19
718.94	283.55
719.27	282.91
719.61	282.33
719.94	281.67
720.27	280.96
720.60	280.29
720.94	279.71
721.27	279.12
721.60	278.56
721.93	277.92
722.27	277.37
722.60	276.79
722.93	276.25
723.26	275.75
723.59	275.16
723.93	274.58
724.26	274.05
724.59	273.47
724.92	272.93
725.25	272.44
725.59	271.91
725.92	271.42
726.25	270.90
726.58	270.38
726.91	269.89
727.24	269.46
727.57	269.01
727.91	268.48
728.24	268.04
728.57	267.58
728.90	267.13
729.23	266.60
729.56	266.19
729.89	265.72
730.22	265.18
730.55	264.76
730.89	264.33
731.22	263.86
731.55	263.40
731.88	262.97
732.21	262.53
732.54	262.12
732.87	261.69
733.20	261.30
733.53	260.91
733.86	260.53
734.19	260.09
734.52	259.70
734.85	259.36
735.18	258.89
735.51	258.47
735.84	258.08
736.17	257.73
736.50	257.30
736.83	257.06
737.16	256.74
737.49	256.41
737.82	256.07
738.15	255.76
738.48	255.46
738.81	255.16
739.14	254.82
739.47	254.48
739.80	254.17
740.13	253.85
740.46	253.52
740.79	253.15
741.12	252.83
741.45	252.48
741.78	252.12
742.11	251.85
742.44	251.51
742.77	251.25
743.10	250.98
743.43	250.69
743.75	250.28
744.08	250.11
744.41	249.81
744.74	249.51
745.07	249.20
745.40	248.95
745.73	248.69
746.06	248.42
746.39	248.15
746.71	247.86
747.04	247.56
747.37	247.27
747.70	247.04
748.03	246.79
748.36	246.62
748.68	246.39
749.01	246.14
749.34	245.94
749.67	245.72
750.00	245.52
750.33	245.37
750.65	245.16
750.98	244.82
751.31	244.60
751.64	244.42
751.97	244.24
752.29	244.05
752.62	243.81
752.95	243.59
753.28	243.40
753.60	243.23
753.93	243.10
754.26	242.94
754.59	242.72
754.91	242.52
755.24	242.30
755.57	242.12
755.90	241.95
756.22	241.76
756.55	241.56
756.88	241.36
757.20	241.13
757.53	240.97
757.86	240.85
758.19	240.70
758.51	240.53
758.84	240.35
759.17	240.15
759.49	240.00
759.82	239.91
760.15	239.76
760.47	239.63
760.80	239.47
761.13	239.39
761.45	239.26
761.78	239.15
762.11	239.02
762.43	238.92
762.76	238.78
763.08	238.69
763.41	238.57
763.74	238.45
764.06	238.31
764.39	238.17
764.71	238.03
765.04	237.91
765.37	237.80
765.69	237.65
766.02	237.58
766.34	237.49
766.67	237.31
767.00	237.21
767.32	237.12
767.65	237.07
767.97	236.94
768.30	236.84
768.62	236.75
768.95	236.61
769.27	236.50
769.60	236.41
769.92	236.28
770.25	236.16
770.57	236.01
770.90	235.90
771.22	235.78
771.55	235.66
771.87	235.59
772.20	235.46
772.52	235.47
772.85	235.47
773.17	235.30
773.50	235.21
773.82	235.12
774.15	234.94
774.47	234.79
774.80	234.63
775.12	234.49
775.45	234.37
775.77	234.31
776.09	234.20
776.42	234.11
776.74	234.00
777.07	233.92
777.39	233.87
777.72	233.79
778.04	233.70
778.36	233.61
778.69	233.50
779.01	233.47
779.33	233.29
779.66	233.09
779.98	233.05
780.31	233.00
780.63	232.95
780.95	232.88
781.28	232.79
781.60	232.76
781.92	232.73
782.25	232.65
782.57	232.58
782.89	232.50
783.22	232.43
783.54	232.37
783.86	232.30
784.19	232.24
784.51	232.20
784.83	232.16
785.16	232.09
785.48	232.04
785.80	231.97
786.12	231.91
786.45	231.84
786.77	231.78
787.09	231.70
787.42	231.60
787.74	231.58
788.06	231.53
788.38	231.48
788.71	231.41
789.03	231.38
789.35	231.33
789.67	231.27
789.99	231.24
790.32	231.19
790.64	231.15
790.96	231.19
791.28	231.13
791.61	231.05
791.93	231.07
792.25	231.04
792.57	231.07
792.89	231.06
793.21	231.06
793.54	231.02
793.86	231.00
794.18	231.02
794.50	230.98
794.82	230.99
795.14	230.96
795.47	230.95
795.79	230.94
796.11	230.90
796.43	230.89
796.75	230.89
797.07	230.86
797.39	230.84
797.71	230.73
798.04	230.73
798.36	230.75
798.68	230.70
799.00	230.67
799.32	230.60
799.64	230.59
799.96	230.58
800.28	230.59
800.60	230.56
800.92	230.53
801.24	230.48
801.56	230.43
801.89	230.41
802.21	230.40
802.53	230.34
802.85	230.35
803.17	230.37
803.49	230.31
803.81	230.26
804.13	230.22
804.45	230.22
804.77	230.20
805.09	230.18
805.41	230.12
805.73	230.10
806.05	230.05
806.37	230.02
806.69	229.95
807.01	229.89
807.33	229.87
807.65	229.81
807.97	229.86
808.28	229.83
808.60	229.78
808.92	229.70
809.24	229.75
809.56	229.70
809.88	229.65
810.20	229.62
810.52	229.61
810.84	229.55
811.16	229.46
811.48	229.41
811.80	229.39
812.12	229.41
812.43	229.39
812.75	229.35
813.07	229.31
813.39	229.29
813.71	229.24
814.03	229.20
814.35	229.17
814.67	229.07
814.98	229.04
815.30	229.02
815.62	229.00
815.94	228.91
816.26	228.94
816.58	228.88
816.89	228.90
817.21	228.84
817.53	228.81
817.85	228.81
818.17	228.75
818.48	228.69
818.80	228.64
819.12	228.61
819.44	228.57
819.76	228.52
820.07	228.50
820.39	228.46
820.71	228.41
821.03	228.39
821.34	228.37
821.66	228.35
821.98	228.35
822.30	228.33
822.61	228.40
822.93	228.29
823.25	228.28
823.57	228.24
823.88	228.26
824.20	228.27
824.52	228.30
824.83	228.31
825.15	228.28
825.47	228.24
825.79	228.25
826.10	228.24
826.42	228.25
826.74	228.24
827.05	228.29
827.37	228.30
827.69	228.30
828.00	228.28
828.32	228.27
828.64	228.25
828.95	228.32
829.27	228.25
829.58	228.28
829.90	228.26
830.22	228.24
830.53	228.22
830.85	228.20
831.17	228.15
831.48	228.15
831.80	228.14
832.11	228.19
832.43	228.17
832.75	228.17
833.06	228.22
833.38	228.22
833.69	228.22
834.01	228.24
834.32	228.25
834.64	228.26
834.96	228.27
835.27	228.25
835.59	228.20
835.90	228.19
836.22	228.15
836.53	228.14
836.85	228.13
837.16	228.26
837.48	228.29
837.79	228.34
838.11	228.35
838.42	228.35
838.74	228.34
839.05	228.33
839.37	228.35
839.68	228.28
840.00	228.28
840.31	228.29
840.63	228.27
840.94	228.27
841.26	228.31
841.57	228.31
841.88	228.34
842.20	228.34
842.51	228.34
842.83	228.37
843.14	228.45
843.46	228.46
843.77	228.38
844.08	228.36
844.40	228.31
844.71	228.30
845.03	228.32
845.34	228.31
845.65	228.32
845.97	228.31
846.28	228.32
846.60	228.29
846.91	228.24
847.22	228.22
847.54	228.23
847.85	228.20
848.16	228.14
848.48	228.10
848.79	228.11
849.10	228.12
849.42	228.11
849.73	228.01
850.04	228.00
850.36	227.97
850.67	227.96
850.98	227.95
851.30	227.93
851.61	227.90
851.92	227.88
852.23	227.85
852.55	227.82
852.86	227.81
853.17	227.80
853.49	227.81
853.80	227.81
854.11	227.76
854.42	227.76
854.74	227.72
855.05	227.72
855.36	227.68
855.67	227.67
855.99	227.65
856.30	227.77
856.61	227.74
856.92	227.67
857.23	227.66
857.55	227.66
857.86	227.65
858.17	227.67
858.48	227.65
858.79	227.66
859.11	227.64
859.42	227.59
859.73	227.55
860.04	227.54
860.35	227.50
860.66	227.48
860.98	227.45
861.29	227.46
861.60	227.42
861.91	227.43
862.22	227.38
862.53	227.35
862.84	227.22
863.16	227.25
863.47	227.26
863.78	227.24
864.09	227.22
864.40	227.23
864.71	227.19
865.02	227.19
865.33	227.15
865.64	227.14
865.95	227.13
866.27	227.23
866.58	227.21
866.89	227.22
867.20	227.24
867.51	227.20
867.82	227.20
868.13	227.26
868.44	227.22
868.75	227.23
869.06	227.24
869.37	227.25
869.68	227.24
869.99	227.28
870.30	227.28
870.61	227.32
870.92	227.33
871.23	227.34
871.54	227.36
871.85	227.39
872.16	227.44
872.47	227.47
872.78	227.40
873.09	227.40
873.40	227.43
873.71	227.44
874.02	227.46
874.33	227.47
874.64	227.43
874.95	227.47
875.26	227.47
875.56	227.49
875.87	227.47
876.18	227.49
876.49	227.58
876.80	227.61
877.11	227.57
877.42	227.59
877.73	227.62
878.04	227.64
878.35	227.66
878.66	227.68
878.96	227.69
879.27	227.73
879.58	227.73
879.89	227.74
880.20	227.76
880.51	227.78
880.82	227.78
881.12	227.79
881.43	227.79
881.74	227.79
882.05	227.77
882.36	227.83
882.67	227.85
882.97	227.75
883.28	227.72
883.59	227.73
883.90	227.74
884.21	227.75
884.51	227.74
884.82	227.73
885.13	227.69
885.44	227.66
885.74	227.64
886.05	227.67
886.36	227.63
886.67	227.58
886.98	227.64
887.28	227.69
887.59	227.70
887.90	227.69
888.20	227.69
888.51	227.70
888.82	227.66
889.13	227.61
889.43	227.69
889.74	227.69
890.05	227.67
890.35	227.64
890.66	227.65
890.97	227.63
891.28	227.60
891.58	227.59
891.89	227.59
892.20	227.54
892.50	227.49
892.81	227.49
893.12	227.48
893.42	227.43
893.73	227.38
894.04	227.38
894.34	227.38
894.65	227.33
894.95	227.31
895.26	227.31
895.57	227.34
895.87	227.22
896.18	227.24
896.48	227.22
896.79	227.19
897.10	227.15
897.40	227.12
897.71	227.11
898.01	227.10
898.32	227.11
898.63	227.13
898.93	227.15
899.24	227.17
899.54	227.16
899.85	227.14
900.15	227.11
900.46	227.09
900.76	227.06
901.07	227.10
901.38	227.10
901.68	227.07
901.99	227.02
902.29	227.02
902.60	226.97
902.90	226.99
903.21	227.00
903.51	226.97
903.82	226.99
904.12	226.98
904.43	226.99
904.73	226.95
905.03	226.97
905.34	227.05
905.64	227.02
905.95	227.03
906.25	227.00
906.56	227.01
906.86	227.02
907.17	227.01
907.47	227.00
907.77	227.01
908.08	227.03
908.38	227.03
908.69	227.08
908.99	227.14
909.30	227.14
909.60	227.15
909.90	227.18
910.21	227.15
910.51	227.16
910.81	227.20
911.12	227.25
911.42	227.26
911.73	227.19
912.03	227.18
912.33	227.21
912.64	227.22
912.94	227.24
913.24	227.23
913.55	227.26
913.85	227.26
914.15	227.30
914.46	227.35
914.76	227.35
915.06	227.36
915.37	227.30
915.67	227.32
915.97	227.31
916.27	227.30
916.58	227.33
916.88	227.37
917.18	227.36
917.49	227.42
917.79	227.41
918.09	227.44
918.39	227.49
918.70	227.52
919.00	227.56
919.30	227.61
919.60	227.61
919.91	227.61
920.21	227.64
920.51	227.61
920.81	227.58
921.12	227.60
921.42	227.57
921.72	227.62
922.02	227.63
922.32	227.67
922.63	227.68
922.93	227.76
923.23	227.75
923.53	227.74
923.83	227.67
924.13	227.70
924.44	227.66
924.74	227.67
925.04	227.68
925.34	227.69
925.64	227.63
925.94	227.64
926.24	227.68
926.55	227.65
926.85	227.68
927.15	227.67
927.45	227.66
927.75	227.63
928.05	227.61
928.35	227.58
928.65	227.59
928.95	227.59
929.26	227.53
929.56	227.56
929.86	227.56
930.16	227.56
930.46	227.51
930.76	227.50
931.06	227.45
931.36	227.42
931.66	227.41
931.96	227.42
932.26	227.42
932.56	227.37
932.86	227.36
933.16	227.33
933.46	227.31
933.76	227.28
934.06	227.31
934.36	227.32
934.66	227.31
934.96	227.26
935.26	227.28
935.56	227.30
935.86	227.22
936.16	227.20
936.46	227.16
936.76	227.15
937.06	227.15
937.36	227.12
937.66	227.11
937.96	227.11
938.26	227.08
938.56	227.07
938.86	227.06
939.16	227.11
939.46	227.10
939.76	227.10
940.06	227.11
940.35	227.10
940.65	227.08
940.95	227.10
941.25	227.10
941.55	227.05
941.85	227.01
942.15	227.05
942.45	227.10
942.75	227.11
943.04	227.12
943.34	227.13
943.64	227.13
943.94	227.11
944.24	227.10
944.54	227.15
944.84	227.12
945.13	227.13
945.43	227.10
945.73	227.12
946.03	227.12
946.33	227.13
946.62	227.12
946.92	227.10
947.22	227.09
947.52	227.10
947.82	227.14
948.11	227.12
948.41	227.10
948.71	227.06
949.01	227.06
949.31	227.05
949.60	227.05
949.90	227.09
950.20	227.08
950.50	227.09
950.79	227.10
951.09	227.13
951.39	227.14
951.69	227.09
951.98	227.09
952.28	227.11
952.58	227.07
952.87	227.09
953.17	227.11
953.47	227.12
953.76	227.11
954.06	227.10
954.36	227.12
954.66	227.14
954.95	227.15
955.25	227.19
955.55	227.22
955.84	227.20
956.14	227.18
956.44	227.21
956.73	227.19
957.03	227.18
957.32	227.15
957.62	227.14
957.92	227.18
958.21	227.21
958.51	227.32
958.81	227.35
959.10	227.39
959.40	227.40
959.69	227.42
959.99	227.45
960.29	227.46
960.58	227.43
960.88	227.43
961.17	227.43
961.47	227.40
961.76	227.39
962.06	227.41
962.36	227.39
962.65	227.39
962.95	227.37
963.24	227.33
963.54	227.36
963.83	227.39
964.13	227.41
964.42	227.38
964.72	227.29
965.01	227.29
965.31	227.26
965.60	227.21
965.90	227.27
966.19	227.25
966.49	227.26
966.78	227.27
967.08	227.30
967.37	227.27
967.67	227.25
967.96	227.24
968.26	227.23
968.55	227.24
968.85	227.18
969.14	227.20
969.43	227.24
969.73	227.24
970.02	227.21
970.32	227.18
970.61	227.15
970.91	227.15
971.20	227.12
971.49	227.07
971.79	227.12
972.08	227.02
972.38	226.99
972.67	226.96
972.96	226.95
973.26	226.90
973.55	226.94
973.85	226.94
974.14	226.94
974.43	226.92
974.73	226.93
975.02	226.95
975.31	226.91
975.61	226.87
975.90	226.86
976.19	226.84
976.49	226.84
976.78	226.85
977.07	226.80
977.37	226.79
977.66	226.82
977.95	226.80
978.24	226.83
978.54	226.85
978.83	226.83
979.12	226.80
979.42	226.82
979.71	226.80
980.00	226.80
980.29	226.80
980.59	226.80
980.88	226.83
981.17	226.83
981.46	226.84
981.76	226.85
982.05	226.86
982.34	226.89
982.63	226.90
982.93	226.90
983.22	226.96
983.51	226.98
983.80	227.00
984.09	227.00
984.39	226.98
984.68	226.98
984.97	227.02
985.26	227.05
985.55	227.04
985.85	227.06
986.14	227.10
986.43	227.12
986.72	227.12
987.01	227.10
987.30	227.11
987.59	227.13
987.89	227.12
988.18	227.13
988.47	227.12
988.76	227.11
989.05	227.12
989.34	227.13
989.63	227.15
989.92	227.15
990.22	227.17
990.51	227.17
990.80	227.15
991.09	227.16
991.38	227.18
991.67	227.21
991.96	227.19
992.25	227.16
992.54	227.14
992.83	227.18
993.12	227.16
993.41	227.21
993.70	227.23
993.99	227.26
994.28	227.24
994.58	227.23
994.87	227.23
995.16	227.22
995.45	227.20
995.74	227.16
996.03	227.16
996.32	227.14
996.61	227.14
996.90	227.16
997.19	227.14
997.48	227.14
997.77	227.12
998.06	227.12
998.34	227.14
998.63	227.12
998.92	227.09
999.21	227.09
999.50	227.11
999.79	227.08
1000.08	227.09
1000.37	227.13
1000.66	227.11
1000.95	227.13
1001.24	227.13
1001.53	227.10
1001.82	227.12
1002.11	227.10
1002.40	227.11
1002.68	227.12
1002.97	227.19
1003.26	227.19
1003.55	227.10
1003.84	227.11
1004.13	227.12
1004.42	227.11
1004.71	227.11
1004.99	227.11
1005.28	227.14
1005.57	227.09
1005.86	227.09
1006.15	227.06
1006.44	226.98
1006.72	227.01
1007.01	226.97
1007.30	226.94
1007.59	226.95
1007.88	226.96
1008.17	226.97
1008.45	226.96
1008.74	226.91
1009.03	226.87
1009.32	226.83
1009.60	226.86
1009.89	226.84
1010.18	226.80
1010.47	226.79
1010.76	226.79
1011.04	226.76
1011.33	226.76
1011.62	226.77
1011.91	226.75
1012.19	226.74
1012.48	226.78
1012.77	226.75
1013.05	226.82
1013.34	226.87
1013.63	226.85
1013.92	226.83
1014.20	226.78
1014.49	226.80
1014.78	226.84
1015.06	226.79
1015.35	226.79
1015.64	226.81
1015.92	226.80
1016.21	226.81
1016.50	226.80
1016.78	226.82
1017.07	226.84
1017.36	226.82
1017.64	226.83
1017.93	226.87
1018.22	226.86
1018.50	226.84
1018.79	226.88
1019.08	226.81
1019.36	226.78
1019.65	226.81
1019.93	226.85
1020.22	226.92
1020.51	226.97
1020.79	226.94
1021.08	226.54
1021.36	226.70
1021.65	227.33
1021.94	226.59
1022.22	226.62
1022.51	227.29
1022.79	227.73
1023.08	227.43
1023.36	228.20
1023.65	226.66
>>>>>End Processed Spectral Data<<<<<
