SpectraSuite Data File
++++++++++++++++++++++++++++++++++++
Date: Fri Feb 01 14:50:02 EST 2013
User: group
Dark Spectrum Present: No
Reference Spectrum Present: No
Number of Sampled Component Spectra: 1
Spectrometers: USB2E7196
Integration Time (usec): 35000 (USB2E7196)
Spectra Averaged: 100 (USB2E7196)
Boxcar Smoothing: 10 (USB2E7196)
Correct for Electrical Dark: No (USB2E7196)
Strobe/Lamp Enabled: No (USB2E7196)
Correct for Detector Non-linearity: No (USB2E7196)
Correct for Stray Light: No (USB2E7196)
Number of Pixels in Processed Spectrum: 2048
>>>>>Begin Processed Spectral Data<<<<<
339.09	0.00
339.48	215.95
339.86	217.58
340.24	219.44
340.63	220.05
341.01	222.88
341.39	222.83
341.78	223.76
342.16	224.96
342.54	226.20
342.93	214.17
343.31	225.00
343.69	225.55
344.07	226.00
344.46	226.39
344.84	226.75
345.22	226.99
345.60	227.22
345.99	227.40
346.37	227.53
346.75	227.62
347.13	227.68
347.52	227.75
347.90	227.83
348.28	227.84
348.66	227.92
349.05	227.88
349.43	227.92
349.81	227.98
350.19	228.01
350.57	228.07
350.96	228.20
351.34	228.27
351.72	228.32
352.10	228.42
352.48	228.49
352.87	228.57
353.25	228.63
353.63	228.73
354.01	228.84
354.39	228.93
354.77	228.99
355.15	229.09
355.54	229.13
355.92	229.17
356.30	229.25
356.68	229.39
357.06	229.47
357.44	229.53
357.82	229.57
358.20	229.65
358.58	229.71
358.97	229.75
359.35	229.83
359.73	229.90
360.11	229.96
360.49	230.02
360.87	230.05
361.25	230.11
361.63	230.18
362.01	230.22
362.39	230.22
362.77	230.29
363.15	230.29
363.53	230.33
363.91	230.36
364.29	230.34
364.67	230.24
365.05	230.23
365.43	230.22
365.81	230.23
366.19	230.25
366.57	230.27
366.95	230.26
367.33	230.22
367.71	230.21
368.09	230.20
368.47	230.14
368.85	230.16
369.23	230.12
369.61	230.01
369.99	230.01
370.37	230.01
370.75	229.98
371.13	229.94
371.51	229.88
371.89	229.83
372.27	229.80
372.65	229.72
373.03	229.69
373.41	229.67
373.78	229.58
374.16	229.47
374.54	229.36
374.92	229.27
375.30	229.21
375.68	229.12
376.06	229.04
376.44	228.96
376.82	228.85
377.19	228.76
377.57	228.71
377.95	228.57
378.33	228.45
378.71	228.32
379.09	228.24
379.47	228.17
379.84	228.06
380.22	227.93
380.60	227.86
380.98	227.77
381.36	227.66
381.73	227.57
382.11	227.51
382.49	227.44
382.87	227.36
383.25	227.32
383.62	227.37
384.00	227.26
384.38	227.22
384.76	227.18
385.13	227.16
385.51	227.10
385.89	227.03
386.27	226.99
386.64	226.95
387.02	226.90
387.40	226.85
387.78	226.83
388.15	226.81
388.53	226.77
388.91	226.72
389.29	226.69
389.66	226.69
390.04	226.64
390.42	226.65
390.79	226.62
391.17	226.57
391.55	226.46
391.92	226.47
392.30	226.49
392.68	226.49
393.05	226.48
393.43	226.48
393.81	226.52
394.18	226.51
394.56	226.54
394.94	226.59
395.31	226.63
395.69	226.69
396.06	226.76
396.44	226.81
396.82	226.86
397.19	226.97
397.57	227.00
397.95	227.11
398.32	227.16
398.70	227.25
399.07	227.37
399.45	227.41
399.82	227.49
400.20	227.55
400.58	227.64
400.95	227.66
401.33	227.80
401.70	227.97
402.08	228.12
402.45	228.22
402.83	228.34
403.20	228.46
403.58	228.56
403.95	228.70
404.33	228.83
404.71	228.95
405.08	229.13
405.46	229.33
405.83	229.47
406.21	229.63
406.58	229.80
406.96	229.95
407.33	230.15
407.70	230.37
408.08	230.66
408.45	230.87
408.83	231.19
409.20	231.42
409.58	231.61
409.95	231.90
410.33	232.18
410.70	232.46
411.08	232.72
411.45	233.03
411.82	233.33
412.20	233.70
412.57	234.15
412.95	234.47
413.32	234.85
413.69	235.28
414.07	235.70
414.44	236.17
414.82	236.70
415.19	237.25
415.56	237.80
415.94	238.36
416.31	238.98
416.68	239.54
417.06	240.26
417.43	240.95
417.81	241.68
418.18	242.44
418.55	243.25
418.93	244.15
419.30	245.07
419.67	246.03
420.04	247.02
420.42	247.97
420.79	249.13
421.16	250.27
421.54	251.42
421.91	252.64
422.28	253.86
422.66	255.15
423.03	256.46
423.40	257.82
423.77	259.18
424.15	260.60
424.52	262.08
424.89	263.67
425.26	265.20
425.64	266.63
426.01	268.25
426.38	269.88
426.75	271.55
427.13	273.25
427.50	275.02
427.87	276.83
428.24	278.69
428.61	280.43
428.99	282.35
429.36	284.46
429.73	286.52
430.10	288.54
430.47	290.54
430.85	292.63
431.22	294.80
431.59	297.18
431.96	299.42
432.33	301.91
432.70	304.27
433.08	307.05
433.45	309.71
433.82	312.23
434.19	315.15
434.56	317.90
434.93	320.53
435.30	323.15
435.68	326.10
436.05	328.92
436.42	331.69
436.79	334.25
437.16	336.92
437.53	339.74
437.90	342.54
438.27	345.29
438.64	348.13
439.01	350.75
439.38	353.01
439.75	355.16
440.13	357.67
440.50	359.98
440.87	361.81
441.24	363.68
441.61	365.86
441.98	367.34
442.35	369.13
442.72	371.02
443.09	372.81
443.46	373.76
443.83	374.35
444.20	374.85
444.57	375.65
444.94	375.91
445.31	376.27
445.68	376.64
446.05	376.69
446.42	376.27
446.79	375.84
447.16	375.36
447.53	375.03
447.90	373.86
448.27	372.70
448.64	371.14
449.01	370.01
449.37	368.07
449.74	366.19
450.11	363.99
450.48	361.49
450.85	358.95
451.22	356.81
451.59	354.78
451.96	352.86
452.33	350.25
452.70	347.94
453.07	345.10
453.43	342.20
453.80	339.49
454.17	336.81
454.54	334.29
454.91	331.59
455.28	328.94
455.65	326.48
456.02	324.08
456.38	321.94
456.75	319.34
457.12	317.14
457.49	314.91
457.86	312.73
458.23	310.88
458.59	308.88
458.96	306.82
459.33	304.99
459.70	303.15
460.07	301.65
460.43	299.99
460.80	298.37
461.17	296.94
461.54	295.45
461.91	294.07
462.27	292.64
462.64	291.41
463.01	290.05
463.38	288.74
463.74	287.33
464.11	286.17
464.48	285.14
464.85	284.00
465.21	283.11
465.58	282.19
465.95	281.10
466.32	280.19
466.68	279.30
467.05	278.40
467.42	277.48
467.78	276.53
468.15	275.64
468.52	274.99
468.88	274.10
469.25	273.32
469.62	272.69
469.98	271.98
470.35	271.32
470.72	270.70
471.08	270.04
471.45	269.48
471.82	268.93
472.18	268.30
472.55	267.89
472.92	267.37
473.28	266.89
473.65	266.42
474.02	265.96
474.38	265.58
474.75	265.27
475.11	264.91
475.48	264.68
475.85	264.40
476.21	264.13
476.58	263.94
476.94	263.79
477.31	263.61
477.67	263.47
478.04	263.40
478.41	263.35
478.77	263.39
479.14	263.32
479.50	263.33
479.87	263.39
480.23	263.46
480.60	263.50
480.96	263.63
481.33	263.84
481.69	264.03
482.06	264.20
482.42	264.37
482.79	264.65
483.15	264.96
483.52	265.35
483.88	265.68
484.25	266.07
484.61	266.51
484.98	266.95
485.34	267.49
485.71	268.03
486.07	268.61
486.44	269.15
486.80	269.85
487.17	270.56
487.53	271.37
487.90	272.14
488.26	273.08
488.62	274.01
488.99	274.94
489.35	275.97
489.72	277.06
490.08	278.25
490.44	279.48
490.81	280.74
491.17	282.08
491.54	283.55
491.90	285.04
492.26	286.64
492.63	288.32
492.99	290.06
493.36	291.93
493.72	293.96
494.08	296.07
494.45	298.32
494.81	300.64
495.17	303.02
495.54	305.61
495.90	308.27
496.26	311.06
496.63	314.03
496.99	317.11
497.35	320.28
497.72	323.63
498.08	327.07
498.44	330.73
498.80	334.60
499.17	338.59
499.53	342.72
499.89	347.04
500.26	351.55
500.62	356.18
500.98	361.07
501.34	366.12
501.71	371.40
502.07	376.80
502.43	382.38
502.79	388.14
503.16	394.17
503.52	400.39
503.88	406.72
504.24	413.21
504.60	420.02
504.97	427.18
505.33	434.50
505.69	442.16
506.05	449.89
506.41	457.69
506.78	465.79
507.14	474.19
507.50	482.85
507.86	491.81
508.22	500.92
508.59	510.09
508.95	519.58
509.31	529.32
509.67	539.36
510.03	549.64
510.39	560.15
510.75	570.85
511.12	581.72
511.48	593.01
511.84	604.45
512.20	615.97
512.56	627.86
512.92	639.97
513.28	652.27
513.64	664.71
514.00	677.45
514.37	690.39
514.73	703.42
515.09	716.49
515.45	729.77
515.81	743.38
516.17	757.35
516.53	771.50
516.89	785.72
517.25	799.84
517.61	814.22
517.97	828.72
518.33	843.17
518.69	857.97
519.05	873.02
519.41	888.24
519.77	903.79
520.13	919.26
520.49	934.67
520.85	950.13
521.21	965.82
521.57	982.02
521.93	997.92
522.29	1014.38
522.65	1030.63
523.01	1046.88
523.37	1062.94
523.73	1079.12
524.09	1095.18
524.45	1111.52
524.81	1128.22
525.17	1145.15
525.53	1162.04
525.89	1179.03
526.25	1195.92
526.61	1212.26
526.97	1229.05
527.33	1245.64
527.68	1262.37
528.04	1278.86
528.40	1295.54
528.76	1312.70
529.12	1329.35
529.48	1346.18
529.84	1362.22
530.20	1378.97
530.56	1396.00
530.91	1413.36
531.27	1430.28
531.63	1446.81
531.99	1463.45
532.35	1479.49
532.71	1495.31
533.07	1511.68
533.42	1527.57
533.78	1543.64
534.14	1559.94
534.50	1575.31
534.86	1591.13
535.21	1606.28
535.57	1622.34
535.93	1637.84
536.29	1652.65
536.65	1667.78
537.00	1682.71
537.36	1697.99
537.72	1712.52
538.08	1726.89
538.44	1740.84
538.79	1754.77
539.15	1768.56
539.51	1782.27
539.87	1796.80
540.22	1810.60
540.58	1824.34
540.94	1837.71
541.29	1850.66
541.65	1863.50
542.01	1876.77
542.37	1889.17
542.72	1901.65
543.08	1913.45
543.44	1926.00
543.79	1937.18
544.15	1948.19
544.51	1959.56
544.87	1970.58
545.22	1981.42
545.58	1991.75
545.94	2001.53
546.29	2011.37
546.65	2021.01
547.01	2030.11
547.36	2038.74
547.72	2047.22
548.07	2055.11
548.43	2063.31
548.79	2071.32
549.14	2078.82
549.50	2086.21
549.86	2093.77
550.21	2101.10
550.57	2108.18
550.92	2114.64
551.28	2121.89
551.64	2128.91
551.99	2135.54
552.35	2141.72
552.70	2147.86
553.06	2153.62
553.41	2159.82
553.77	2165.74
554.13	2171.81
554.48	2177.99
554.84	2183.25
555.19	2188.53
555.55	2193.53
555.90	2197.80
556.26	2202.46
556.61	2207.13
556.97	2211.13
557.32	2215.30
557.68	2219.23
558.03	2223.33
558.39	2226.91
558.74	2231.22
559.10	2234.83
559.45	2238.30
559.81	2242.50
560.16	2245.98
560.52	2249.20
560.87	2252.64
561.23	2255.21
561.58	2258.14
561.94	2260.44
562.29	2262.68
562.64	2265.18
563.00	2267.72
563.35	2271.11
563.71	2274.22
564.06	2277.18
564.42	2279.95
564.77	2282.14
565.12	2284.22
565.48	2286.04
565.83	2287.68
566.19	2288.92
566.54	2289.88
566.89	2290.95
567.25	2291.24
567.60	2292.47
567.96	2293.94
568.31	2294.40
568.66	2295.19
569.02	2295.52
569.37	2295.85
569.72	2296.60
570.08	2296.38
570.43	2295.92
570.78	2294.94
571.14	2293.06
571.49	2291.35
571.84	2290.77
572.20	2289.42
572.55	2288.06
572.90	2286.01
573.26	2284.34
573.61	2282.35
573.96	2280.29
574.31	2276.98
574.67	2273.63
575.02	2269.76
575.37	2266.01
575.72	2261.98
576.08	2258.33
576.43	2254.75
576.78	2250.75
577.13	2247.06
577.49	2243.77
577.84	2240.32
578.19	2236.42
578.54	2232.46
578.90	2228.03
579.25	2222.23
579.60	2217.08
579.95	2211.92
580.30	2206.90
580.66	2201.66
581.01	2196.47
581.36	2191.26
581.71	2186.87
582.06	2182.37
582.42	2177.71
582.77	2172.31
583.12	2167.62
583.47	2162.77
583.82	2157.60
584.17	2152.15
584.53	2146.72
584.88	2140.89
585.23	2134.76
585.58	2129.20
585.93	2123.62
586.28	2118.85
586.63	2113.77
586.98	2108.64
587.34	2103.83
587.69	2098.78
588.04	2093.25
588.39	2087.48
588.74	2080.97
589.09	2074.58
589.44	2067.70
589.79	2061.43
590.14	2055.71
590.49	2048.88
590.84	2042.11
591.19	2035.94
591.54	2029.30
591.89	2021.53
592.25	2014.59
592.60	2007.51
592.95	1999.69
593.30	1992.28
593.65	1984.45
594.00	1977.18
594.35	1969.72
594.70	1961.55
595.05	1954.27
595.40	1946.95
595.75	1939.25
596.10	1932.78
596.45	1925.93
596.80	1919.53
597.15	1912.96
597.50	1905.82
597.85	1899.40
598.19	1892.98
598.54	1885.93
598.89	1879.36
599.24	1873.52
599.59	1866.76
599.94	1860.29
600.29	1853.99
600.64	1847.37
600.99	1839.92
601.34	1833.05
601.69	1826.12
602.04	1819.20
602.39	1811.89
602.74	1805.03
603.08	1798.54
603.43	1791.94
603.78	1784.83
604.13	1777.65
604.48	1770.40
604.83	1763.55
605.18	1756.60
605.53	1748.73
605.87	1740.60
606.22	1733.40
606.57	1725.72
606.92	1718.42
607.27	1711.36
607.62	1704.55
607.96	1697.20
608.31	1690.80
608.66	1683.21
609.01	1675.74
609.36	1668.28
609.70	1660.27
610.05	1652.34
610.40	1644.75
610.75	1636.41
611.10	1628.79
611.44	1620.57
611.79	1612.59
612.14	1604.17
612.49	1595.09
612.83	1586.69
613.18	1578.75
613.53	1570.68
613.88	1562.16
614.22	1554.12
614.57	1545.62
614.92	1537.83
615.27	1530.63
615.61	1522.31
615.96	1514.43
616.31	1506.81
616.65	1499.53
617.00	1492.01
617.35	1484.36
617.70	1475.96
618.04	1467.50
618.39	1459.36
618.74	1451.89
619.08	1443.74
619.43	1436.22
619.78	1429.51
620.12	1422.54
620.47	1415.21
620.82	1407.29
621.16	1400.00
621.51	1392.41
621.85	1384.93
622.20	1376.47
622.55	1368.16
622.89	1360.37
623.24	1352.87
623.59	1345.71
623.93	1338.31
624.28	1331.23
624.62	1323.88
624.97	1316.77
625.32	1310.20
625.66	1303.22
626.01	1296.03
626.35	1288.67
626.70	1280.92
627.04	1273.29
627.39	1265.61
627.73	1258.18
628.08	1251.22
628.43	1244.00
628.77	1236.80
629.12	1229.30
629.46	1222.24
629.81	1214.83
630.15	1207.76
630.50	1200.48
630.84	1192.22
631.19	1184.34
631.53	1176.90
631.88	1169.44
632.22	1162.00
632.57	1154.91
632.91	1147.51
633.26	1140.28
633.60	1132.98
633.95	1126.02
634.29	1119.10
634.64	1112.37
634.98	1105.13
635.32	1098.12
635.67	1091.62
636.01	1085.18
636.36	1078.54
636.70	1072.12
637.05	1065.67
637.39	1059.32
637.73	1053.04
638.08	1047.44
638.42	1041.54
638.77	1035.18
639.11	1028.70
639.45	1022.39
639.80	1015.68
640.14	1009.33
640.49	1002.90
640.83	996.80
641.17	990.80
641.52	984.58
641.86	978.36
642.20	972.65
642.55	966.49
642.89	960.06
643.23	953.54
643.58	947.91
643.92	941.74
644.26	935.83
644.61	929.98
644.95	923.88
645.29	917.30
645.64	910.72
645.98	904.54
646.32	898.78
646.66	892.89
647.01	887.18
647.35	881.59
647.69	875.78
648.04	870.27
648.38	864.47
648.72	858.55
649.06	852.55
649.41	846.69
649.75	840.71
650.09	834.85
650.43	829.11
650.78	822.97
651.12	817.17
651.46	811.49
651.80	805.67
652.14	800.39
652.49	795.15
652.83	790.03
653.17	784.39
653.51	778.79
653.85	773.41
654.20	767.92
654.54	761.92
654.88	756.32
655.22	750.47
655.56	744.81
655.90	739.39
656.25	734.13
656.59	728.86
656.93	723.84
657.27	718.74
657.61	713.37
657.95	708.35
658.29	703.26
658.64	698.05
658.98	692.85
659.32	687.40
659.66	682.24
660.00	677.06
660.34	672.22
660.68	667.29
661.02	662.33
661.36	657.65
661.70	653.29
662.05	648.98
662.39	644.76
662.73	640.36
663.07	636.01
663.41	631.69
663.75	627.27
664.09	622.78
664.43	618.45
664.77	614.40
665.11	610.16
665.45	606.14
665.79	602.18
666.13	598.11
666.47	594.09
666.81	589.94
667.15	585.88
667.49	582.02
667.83	578.24
668.17	574.35
668.51	570.34
668.85	566.37
669.19	562.52
669.53	558.68
669.87	554.88
670.21	551.26
670.55	547.67
670.89	544.22
671.23	540.86
671.57	537.41
671.91	533.94
672.25	530.52
672.58	527.02
672.92	523.65
673.26	520.44
673.60	517.37
673.94	514.31
674.28	511.39
674.62	508.51
674.96	505.48
675.30	502.60
675.64	499.73
675.97	496.99
676.31	494.19
676.65	491.31
676.99	488.58
677.33	485.71
677.67	482.90
678.01	479.91
678.34	477.00
678.68	474.17
679.02	471.42
679.36	468.74
679.70	466.07
680.04	463.33
680.37	460.63
680.71	457.87
681.05	455.34
681.39	452.69
681.73	450.01
682.06	447.54
682.40	445.04
682.74	442.58
683.08	440.08
683.42	437.54
683.75	435.11
684.09	432.64
684.43	430.27
684.77	427.87
685.10	425.63
685.44	423.34
685.78	421.08
686.12	418.89
686.45	416.61
686.79	414.33
687.13	412.26
687.46	410.07
687.80	407.93
688.14	405.73
688.48	403.71
688.81	401.52
689.15	399.35
689.49	397.25
689.82	395.20
690.16	393.13
690.50	391.23
690.83	389.34
691.17	387.41
691.51	385.50
691.84	383.73
692.18	381.78
692.52	379.84
692.85	377.97
693.19	376.12
693.52	374.33
693.86	372.56
694.20	370.70
694.53	368.98
694.87	367.21
695.21	365.46
695.54	363.64
695.88	361.95
696.21	360.29
696.55	358.67
696.88	356.95
697.22	355.34
697.56	353.70
697.89	352.07
698.23	350.44
698.56	348.88
698.90	347.27
699.23	345.63
699.57	344.12
699.90	342.57
700.24	340.99
700.58	339.44
700.91	337.96
701.25	336.57
701.58	335.22
701.92	333.88
702.25	332.49
702.59	331.16
702.92	329.83
703.26	328.56
703.59	327.29
703.93	326.12
704.26	324.86
704.60	323.58
704.93	322.31
705.26	321.13
705.60	319.96
705.93	318.84
706.27	317.87
706.60	316.77
706.94	315.70
707.27	314.62
707.61	313.55
707.94	312.53
708.27	311.48
708.61	310.37
708.94	309.36
709.28	308.38
709.61	307.44
709.94	306.51
710.28	305.47
710.61	304.47
710.95	303.45
711.28	302.54
711.61	301.64
711.95	300.74
712.28	299.77
712.61	298.83
712.95	297.92
713.28	297.01
713.61	296.14
713.95	295.24
714.28	294.42
714.61	293.59
714.95	292.75
715.28	291.91
715.61	291.04
715.95	290.19
716.28	289.40
716.61	288.60
716.95	287.83
717.28	287.11
717.61	286.36
717.94	285.63
718.28	284.83
718.61	284.08
718.94	283.40
719.27	282.77
719.61	282.09
719.94	281.46
720.27	280.78
720.60	280.18
720.94	279.57
721.27	278.97
721.60	278.40
721.93	277.82
722.27	277.29
722.60	276.76
722.93	276.21
723.26	275.67
723.59	275.09
723.93	274.55
724.26	274.03
724.59	273.45
724.92	272.92
725.25	272.44
725.59	271.94
725.92	271.45
726.25	270.95
726.58	270.47
726.91	269.98
727.24	269.51
727.57	269.03
727.91	268.54
728.24	268.11
728.57	267.62
728.90	267.18
729.23	266.68
729.56	266.26
729.89	265.80
730.22	265.31
730.55	264.89
730.89	264.45
731.22	264.01
731.55	263.61
731.88	263.20
732.21	262.78
732.54	262.37
732.87	261.91
733.20	261.53
733.53	261.15
733.86	260.78
734.19	260.40
734.52	260.05
734.85	259.77
735.18	259.36
735.51	259.02
735.84	258.67
736.17	258.33
736.50	257.92
736.83	257.69
737.16	257.36
737.49	257.00
737.82	256.65
738.15	256.30
738.48	255.95
738.81	255.61
739.14	255.29
739.47	254.98
739.80	254.70
740.13	254.40
740.46	254.07
740.79	253.72
741.12	253.43
741.45	253.08
741.78	252.70
742.11	252.43
742.44	252.10
742.77	251.80
743.10	251.48
743.43	251.19
743.75	250.79
744.08	250.63
744.41	250.36
744.74	250.09
745.07	249.79
745.40	249.51
745.73	249.31
746.06	249.02
746.39	248.75
746.71	248.46
747.04	248.18
747.37	247.93
747.70	247.69
748.03	247.44
748.36	247.23
748.68	246.99
749.01	246.74
749.34	246.51
749.67	246.26
750.00	246.06
750.33	245.94
750.65	245.71
750.98	245.37
751.31	245.14
751.64	244.90
751.97	244.78
752.29	244.64
752.62	244.40
752.95	244.17
753.28	243.96
753.60	243.74
753.93	243.57
754.26	243.38
754.59	243.16
754.91	242.93
755.24	242.72
755.57	242.52
755.90	242.32
756.22	242.11
756.55	241.90
756.88	241.70
757.20	241.42
757.53	241.22
757.86	241.06
758.19	240.88
758.51	240.73
758.84	240.53
759.17	240.30
759.49	240.14
759.82	240.08
760.15	239.96
760.47	239.85
760.80	239.68
761.13	239.53
761.45	239.40
761.78	239.27
762.11	239.15
762.43	239.00
762.76	238.89
763.08	238.81
763.41	238.72
763.74	238.59
764.06	238.46
764.39	238.38
764.71	238.26
765.04	238.19
765.37	238.08
765.69	237.94
766.02	237.84
766.34	237.69
766.67	237.54
767.00	237.41
767.32	237.37
767.65	237.30
767.97	237.18
768.30	237.07
768.62	236.95
768.95	236.81
769.27	236.73
769.60	236.63
769.92	236.52
770.25	236.41
770.57	236.32
770.90	236.23
771.22	236.11
771.55	236.01
771.87	235.90
772.20	235.81
772.52	235.80
772.85	235.82
773.17	235.76
773.50	235.63
773.82	235.53
774.15	235.38
774.47	235.27
774.80	235.19
775.12	235.12
775.45	235.03
775.77	234.96
776.09	234.87
776.42	234.74
776.74	234.68
777.07	234.60
777.39	234.53
777.72	234.45
778.04	234.40
778.36	234.30
778.69	234.22
779.01	234.14
779.33	233.97
779.66	233.81
779.98	233.73
780.31	233.67
780.63	233.66
780.95	233.57
781.28	233.50
781.60	233.41
781.92	233.31
782.25	233.26
782.57	233.21
782.89	233.15
783.22	233.12
783.54	233.01
783.86	232.95
784.19	232.87
784.51	232.82
784.83	232.71
785.16	232.66
785.48	232.64
785.80	232.61
786.12	232.53
786.45	232.49
786.77	232.43
787.09	232.39
787.42	232.28
787.74	232.25
788.06	232.20
788.38	232.16
788.71	232.14
789.03	232.10
789.35	232.07
789.67	232.03
789.99	231.98
790.32	231.94
790.64	231.90
790.96	231.93
791.28	231.86
791.61	231.84
791.93	231.81
792.25	231.76
792.57	231.75
792.89	231.69
793.21	231.67
793.54	231.59
793.86	231.52
794.18	231.49
794.50	231.44
794.82	231.41
795.14	231.39
795.47	231.34
795.79	231.32
796.11	231.27
796.43	231.23
796.75	231.20
797.07	231.18
797.39	231.14
797.71	231.05
798.04	230.99
798.36	230.98
798.68	230.94
799.00	230.89
799.32	230.83
799.64	230.84
799.96	230.79
800.28	230.80
800.60	230.79
800.92	230.78
801.24	230.77
801.56	230.75
801.89	230.70
802.21	230.70
802.53	230.67
802.85	230.67
803.17	230.66
803.49	230.64
803.81	230.58
804.13	230.56
804.45	230.53
804.77	230.54
805.09	230.51
805.41	230.49
805.73	230.50
806.05	230.43
806.37	230.40
806.69	230.39
807.01	230.36
807.33	230.32
807.65	230.24
807.97	230.25
808.28	230.19
808.60	230.19
808.92	230.13
809.24	230.17
809.56	230.08
809.88	230.00
810.20	229.96
810.52	229.98
810.84	229.94
811.16	229.93
811.48	229.88
811.80	229.89
812.12	229.89
812.43	229.86
812.75	229.86
813.07	229.85
813.39	229.81
813.71	229.75
814.03	229.74
814.35	229.74
814.67	229.65
814.98	229.62
815.30	229.58
815.62	229.55
815.94	229.44
816.26	229.49
816.58	229.47
816.89	229.48
817.21	229.42
817.53	229.41
817.85	229.41
818.17	229.41
818.48	229.35
818.80	229.35
819.12	229.31
819.44	229.29
819.76	229.25
820.07	229.24
820.39	229.27
820.71	229.24
821.03	229.22
821.34	229.20
821.66	229.21
821.98	229.19
822.30	229.18
822.61	229.24
822.93	229.19
823.25	229.17
823.57	229.13
823.88	229.17
824.20	229.13
824.52	229.10
824.83	229.07
825.15	229.04
825.47	228.96
825.79	228.95
826.10	228.93
826.42	228.91
826.74	228.89
827.05	228.85
827.37	228.86
827.69	228.87
828.00	228.89
828.32	228.86
828.64	228.82
828.95	228.88
829.27	228.82
829.58	228.82
829.90	228.85
830.22	228.84
830.53	228.82
830.85	228.78
831.17	228.73
831.48	228.73
831.80	228.71
832.11	228.72
832.43	228.72
832.75	228.71
833.06	228.75
833.38	228.72
833.69	228.73
834.01	228.74
834.32	228.70
834.64	228.70
834.96	228.67
835.27	228.65
835.59	228.59
835.90	228.54
836.22	228.53
836.53	228.52
836.85	228.51
837.16	228.59
837.48	228.60
837.79	228.65
838.11	228.63
838.42	228.64
838.74	228.65
839.05	228.63
839.37	228.60
839.68	228.57
840.00	228.58
840.31	228.58
840.63	228.55
840.94	228.55
841.26	228.51
841.57	228.52
841.88	228.56
842.20	228.54
842.51	228.56
842.83	228.54
843.14	228.62
843.46	228.61
843.77	228.55
844.08	228.55
844.40	228.53
844.71	228.56
845.03	228.56
845.34	228.56
845.65	228.58
845.97	228.62
846.28	228.61
846.60	228.60
846.91	228.58
847.22	228.57
847.54	228.59
847.85	228.61
848.16	228.62
848.48	228.63
848.79	228.68
849.10	228.69
849.42	228.70
849.73	228.60
850.04	228.56
850.36	228.54
850.67	228.53
850.98	228.53
851.30	228.49
851.61	228.50
851.92	228.49
852.23	228.51
852.55	228.50
852.86	228.49
853.17	228.51
853.49	228.52
853.80	228.54
854.11	228.53
854.42	228.52
854.74	228.47
855.05	228.45
855.36	228.37
855.67	228.40
855.99	228.39
856.30	228.51
856.61	228.54
856.92	228.52
857.23	228.54
857.55	228.52
857.86	228.51
858.17	228.52
858.48	228.49
858.79	228.47
859.11	228.49
859.42	228.48
859.73	228.48
860.04	228.46
860.35	228.44
860.66	228.41
860.98	228.39
861.29	228.39
861.60	228.37
861.91	228.41
862.22	228.41
862.53	228.38
862.84	228.25
863.16	228.25
863.47	228.21
863.78	228.17
864.09	228.18
864.40	228.18
864.71	228.15
865.02	228.15
865.33	228.14
865.64	228.09
865.95	228.10
866.27	228.15
866.58	228.14
866.89	228.15
867.20	228.10
867.51	228.08
867.82	228.09
868.13	228.12
868.44	228.09
868.75	228.06
869.06	228.04
869.37	228.09
869.68	228.07
869.99	228.13
870.30	228.15
870.61	228.12
870.92	228.10
871.23	228.10
871.54	228.11
871.85	228.10
872.16	228.13
872.47	228.08
872.78	228.00
873.09	228.00
873.40	227.99
873.71	228.04
874.02	228.05
874.33	228.06
874.64	228.04
874.95	228.09
875.26	228.06
875.56	228.07
875.87	228.04
876.18	228.00
876.49	228.05
876.80	228.03
877.11	228.06
877.42	228.09
877.73	228.07
878.04	228.06
878.35	228.08
878.66	228.09
878.96	228.11
879.27	228.13
879.58	228.10
879.89	228.11
880.20	228.12
880.51	228.12
880.82	228.10
881.12	228.06
881.43	228.03
881.74	228.02
882.05	228.03
882.36	228.03
882.67	228.07
882.97	227.97
883.28	227.96
883.59	227.93
883.90	227.91
884.21	227.92
884.51	227.92
884.82	227.91
885.13	227.92
885.44	227.90
885.74	227.85
886.05	227.87
886.36	227.85
886.67	227.83
886.98	227.87
887.28	227.88
887.59	227.92
887.90	227.91
888.20	227.90
888.51	227.91
888.82	227.92
889.13	227.93
889.43	228.03
889.74	228.03
890.05	228.05
890.35	228.06
890.66	228.02
890.97	227.98
891.28	227.96
891.58	227.93
891.89	227.93
892.20	227.93
892.50	227.90
892.81	227.91
893.12	227.89
893.42	227.87
893.73	227.86
894.04	227.87
894.34	227.88
894.65	227.89
894.95	227.89
895.26	227.86
895.57	227.87
895.87	227.76
896.18	227.77
896.48	227.75
896.79	227.74
897.10	227.78
897.40	227.81
897.71	227.82
898.01	227.83
898.32	227.86
898.63	227.85
898.93	227.87
899.24	227.90
899.54	227.89
899.85	227.85
900.15	227.88
900.46	227.87
900.76	227.91
901.07	227.92
901.38	227.92
901.68	227.93
901.99	227.91
902.29	227.90
902.60	227.89
902.90	227.89
903.21	227.89
903.51	227.89
903.82	227.91
904.12	227.91
904.43	227.86
904.73	227.84
905.03	227.86
905.34	227.94
905.64	227.92
905.95	227.93
906.25	227.93
906.56	227.91
906.86	227.88
907.17	227.84
907.47	227.82
907.77	227.82
908.08	227.79
908.38	227.77
908.69	227.80
908.99	227.80
909.30	227.83
909.60	227.81
909.90	227.80
910.21	227.77
910.51	227.75
910.81	227.77
911.12	227.78
911.42	227.76
911.73	227.66
912.03	227.65
912.33	227.68
912.64	227.68
912.94	227.66
913.24	227.65
913.55	227.64
913.85	227.64
914.15	227.67
914.46	227.72
914.76	227.75
915.06	227.74
915.37	227.73
915.67	227.72
915.97	227.73
916.27	227.72
916.58	227.72
916.88	227.73
917.18	227.75
917.49	227.83
917.79	227.89
918.09	227.91
918.39	227.94
918.70	227.92
919.00	227.92
919.30	227.99
919.60	227.99
919.91	228.01
920.21	228.00
920.51	227.94
920.81	227.92
921.12	227.91
921.42	227.89
921.72	227.88
922.02	227.90
922.32	227.90
922.63	227.87
922.93	227.90
923.23	227.92
923.53	227.90
923.83	227.81
924.13	227.82
924.44	227.81
924.74	227.84
925.04	227.87
925.34	227.92
925.64	227.89
925.94	227.90
926.24	227.93
926.55	227.95
926.85	227.97
927.15	227.95
927.45	227.95
927.75	227.95
928.05	228.01
928.35	228.00
928.65	228.03
928.95	228.08
929.26	228.05
929.56	228.05
929.86	228.07
930.16	228.08
930.46	228.03
930.76	228.06
931.06	227.99
931.36	227.96
931.66	227.94
931.96	227.93
932.26	227.92
932.56	227.85
932.86	227.85
933.16	227.87
933.46	227.91
933.76	227.87
934.06	227.89
934.36	227.89
934.66	227.89
934.96	227.87
935.26	227.86
935.56	227.87
935.86	227.83
936.16	227.81
936.46	227.77
936.76	227.77
937.06	227.75
937.36	227.76
937.66	227.75
937.96	227.74
938.26	227.72
938.56	227.72
938.86	227.72
939.16	227.72
939.46	227.69
939.76	227.66
940.06	227.69
940.35	227.70
940.65	227.65
940.95	227.63
941.25	227.62
941.55	227.61
941.85	227.60
942.15	227.62
942.45	227.63
942.75	227.65
943.04	227.64
943.34	227.66
943.64	227.63
943.94	227.60
944.24	227.61
944.54	227.60
944.84	227.59
945.13	227.57
945.43	227.54
945.73	227.57
946.03	227.61
946.33	227.56
946.62	227.56
946.92	227.56
947.22	227.56
947.52	227.57
947.82	227.57
948.11	227.55
948.41	227.53
948.71	227.52
949.01	227.52
949.31	227.52
949.60	227.49
949.90	227.54
950.20	227.54
950.50	227.52
950.79	227.53
951.09	227.57
951.39	227.60
951.69	227.63
951.98	227.62
952.28	227.58
952.58	227.62
952.87	227.57
953.17	227.56
953.47	227.58
953.76	227.56
954.06	227.55
954.36	227.54
954.66	227.53
954.95	227.56
955.25	227.55
955.55	227.57
955.84	227.57
956.14	227.56
956.44	227.59
956.73	227.60
957.03	227.57
957.32	227.57
957.62	227.56
957.92	227.55
958.21	227.52
958.51	227.66
958.81	227.64
959.10	227.64
959.40	227.67
959.69	227.65
959.99	227.65
960.29	227.65
960.58	227.64
960.88	227.72
961.17	227.70
961.47	227.73
961.76	227.73
962.06	227.74
962.36	227.73
962.65	227.73
962.95	227.74
963.24	227.76
963.54	227.75
963.83	227.76
964.13	227.74
964.42	227.74
964.72	227.67
965.01	227.69
965.31	227.70
965.60	227.65
965.90	227.70
966.19	227.68
966.49	227.68
966.78	227.70
967.08	227.69
967.37	227.70
967.67	227.68
967.96	227.69
968.26	227.69
968.55	227.70
968.85	227.70
969.14	227.65
969.43	227.63
969.73	227.62
970.02	227.62
970.32	227.64
970.61	227.63
970.91	227.56
971.20	227.58
971.49	227.59
971.79	227.62
972.08	227.58
972.38	227.61
972.67	227.62
972.96	227.59
973.26	227.57
973.55	227.56
973.85	227.54
974.14	227.52
974.43	227.52
974.73	227.50
975.02	227.48
975.31	227.49
975.61	227.48
975.90	227.48
976.19	227.49
976.49	227.50
976.78	227.53
977.07	227.56
977.37	227.52
977.66	227.50
977.95	227.48
978.24	227.48
978.54	227.49
978.83	227.47
979.12	227.47
979.42	227.45
979.71	227.45
980.00	227.46
980.29	227.47
980.59	227.46
980.88	227.47
981.17	227.48
981.46	227.50
981.76	227.49
982.05	227.53
982.34	227.51
982.63	227.53
982.93	227.51
983.22	227.53
983.51	227.54
983.80	227.57
984.09	227.58
984.39	227.56
984.68	227.56
984.97	227.57
985.26	227.57
985.55	227.57
985.85	227.54
986.14	227.55
986.43	227.56
986.72	227.54
987.01	227.54
987.30	227.55
987.59	227.55
987.89	227.57
988.18	227.52
988.47	227.53
988.76	227.51
989.05	227.49
989.34	227.46
989.63	227.47
989.92	227.47
990.22	227.46
990.51	227.44
990.80	227.46
991.09	227.49
991.38	227.50
991.67	227.47
991.96	227.47
992.25	227.48
992.54	227.47
992.83	227.48
993.12	227.45
993.41	227.44
993.70	227.50
993.99	227.53
994.28	227.55
994.58	227.55
994.87	227.55
995.16	227.53
995.45	227.56
995.74	227.54
996.03	227.55
996.32	227.57
996.61	227.59
996.90	227.55
997.19	227.52
997.48	227.54
997.77	227.56
998.06	227.57
998.34	227.57
998.63	227.57
998.92	227.57
999.21	227.60
999.50	227.61
999.79	227.55
1000.08	227.54
1000.37	227.55
1000.66	227.56
1000.95	227.56
1001.24	227.62
1001.53	227.62
1001.82	227.64
1002.11	227.61
1002.40	227.62
1002.68	227.69
1002.97	227.78
1003.26	227.77
1003.55	227.74
1003.84	227.75
1004.13	227.81
1004.42	227.79
1004.71	227.80
1004.99	227.78
1005.28	227.81
1005.57	227.80
1005.86	227.79
1006.15	227.79
1006.44	227.80
1006.72	227.77
1007.01	227.79
1007.30	227.76
1007.59	227.74
1007.88	227.68
1008.17	227.69
1008.45	227.65
1008.74	227.56
1009.03	227.50
1009.32	227.49
1009.60	227.49
1009.89	227.49
1010.18	227.44
1010.47	227.45
1010.76	227.42
1011.04	227.41
1011.33	227.39
1011.62	227.40
1011.91	227.40
1012.19	227.42
1012.48	227.39
1012.77	227.39
1013.05	227.41
1013.34	227.42
1013.63	227.41
1013.92	227.45
1014.20	227.45
1014.49	227.47
1014.78	227.52
1015.06	227.47
1015.35	227.48
1015.64	227.50
1015.92	227.47
1016.21	227.47
1016.50	227.44
1016.78	227.47
1017.07	227.48
1017.36	227.47
1017.64	227.47
1017.93	227.48
1018.22	227.42
1018.50	227.40
1018.79	227.39
1019.08	227.36
1019.36	227.36
1019.65	227.34
1019.93	227.36
1020.22	227.38
1020.51	227.42
1020.79	227.36
1021.08	226.70
1021.36	226.81
1021.65	227.53
1021.94	227.56
1022.22	227.51
1022.51	227.05
1022.79	227.98
1023.08	227.68
1023.36	228.31
1023.65	226.80
>>>>>End Processed Spectral Data<<<<<
