SpectraSuite Data File
++++++++++++++++++++++++++++++++++++
Date: Fri Feb 01 16:32:04 EST 2013
User: group
Dark Spectrum Present: No
Reference Spectrum Present: No
Number of Sampled Component Spectra: 1
Spectrometers: USB2E7196
Integration Time (usec): 35000 (USB2E7196)
Spectra Averaged: 100 (USB2E7196)
Boxcar Smoothing: 10 (USB2E7196)
Correct for Electrical Dark: No (USB2E7196)
Strobe/Lamp Enabled: No (USB2E7196)
Correct for Detector Non-linearity: No (USB2E7196)
Correct for Stray Light: No (USB2E7196)
Number of Pixels in Processed Spectrum: 2048
>>>>>Begin Processed Spectral Data<<<<<
339.09	0.00
339.48	214.41
339.86	215.26
340.24	216.66
340.63	217.95
341.01	220.85
341.39	220.75
341.78	222.44
342.16	223.25
342.54	223.61
342.93	212.31
343.31	223.04
343.69	223.55
344.07	224.02
344.46	224.43
344.84	224.79
345.22	225.02
345.60	225.23
345.99	225.39
346.37	225.54
346.75	225.64
347.13	225.69
347.52	225.76
347.90	225.83
348.28	225.84
348.66	225.87
349.05	225.86
349.43	225.87
349.81	225.91
350.19	225.94
350.57	226.01
350.96	226.08
351.34	226.14
351.72	226.20
352.10	226.28
352.48	226.34
352.87	226.41
353.25	226.46
353.63	226.55
354.01	226.63
354.39	226.67
354.77	226.78
355.15	226.92
355.54	226.96
355.92	226.98
356.30	227.08
356.68	227.22
357.06	227.27
357.44	227.35
357.82	227.38
358.20	227.46
358.58	227.47
358.97	227.50
359.35	227.57
359.73	227.65
360.11	227.68
360.49	227.77
360.87	227.82
361.25	227.88
361.63	227.95
362.01	228.02
362.39	228.06
362.77	228.09
363.15	228.06
363.53	228.11
363.91	228.11
364.29	228.15
364.67	228.06
365.05	228.11
365.43	228.15
365.81	228.17
366.19	228.24
366.57	228.32
366.95	228.32
367.33	228.31
367.71	228.32
368.09	228.36
368.47	228.34
368.85	228.32
369.23	228.35
369.61	228.30
369.99	228.28
370.37	228.25
370.75	228.26
371.13	228.26
371.51	228.21
371.89	228.21
372.27	228.13
372.65	228.15
373.03	228.13
373.41	228.04
373.78	228.02
374.16	227.89
374.54	227.78
374.92	227.72
375.30	227.68
375.68	227.60
376.06	227.54
376.44	227.50
376.82	227.45
377.19	227.39
377.57	227.32
377.95	227.23
378.33	227.17
378.71	227.04
379.09	226.97
379.47	226.95
379.84	226.89
380.22	226.84
380.60	226.74
380.98	226.66
381.36	226.60
381.73	226.48
382.11	226.48
382.49	226.46
382.87	226.41
383.25	226.36
383.62	226.43
384.00	226.36
384.38	226.30
384.76	226.27
385.13	226.28
385.51	226.22
385.89	226.17
386.27	226.15
386.64	226.14
387.02	226.08
387.40	226.01
387.78	225.97
388.15	225.92
388.53	225.85
388.91	225.82
389.29	225.80
389.66	225.83
390.04	225.75
390.42	225.73
390.79	225.71
391.17	225.68
391.55	225.56
391.92	225.55
392.30	225.54
392.68	225.51
393.05	225.46
393.43	225.46
393.81	225.48
394.18	225.45
394.56	225.48
394.94	225.52
395.31	225.53
395.69	225.56
396.06	225.61
396.44	225.67
396.82	225.69
397.19	225.77
397.57	225.78
397.95	225.82
398.32	225.82
398.70	225.85
399.07	225.95
399.45	225.98
399.82	226.02
400.20	226.07
400.58	226.10
400.95	226.17
401.33	226.26
401.70	226.39
402.08	226.46
402.45	226.51
402.83	226.63
403.20	226.71
403.58	226.81
403.95	226.96
404.33	227.09
404.71	227.20
405.08	227.34
405.46	227.47
405.83	227.65
406.21	227.80
406.58	227.97
406.96	228.08
407.33	228.26
407.70	228.47
408.08	228.73
408.45	228.96
408.83	229.19
409.20	229.41
409.58	229.59
409.95	229.86
410.33	230.16
410.70	230.41
411.08	230.71
411.45	231.00
411.82	231.28
412.20	231.61
412.57	232.05
412.95	232.35
413.32	232.77
413.69	233.15
414.07	233.59
414.44	234.07
414.82	234.57
415.19	235.16
415.56	235.72
415.94	236.29
416.31	236.95
416.68	237.58
417.06	238.30
417.43	238.97
417.81	239.76
418.18	240.51
418.55	241.35
418.93	242.26
419.30	243.15
419.67	244.12
420.04	245.09
420.42	246.08
420.79	247.26
421.16	248.39
421.54	249.64
421.91	250.87
422.28	252.11
422.66	253.44
423.03	254.72
423.40	256.03
423.77	257.45
424.15	258.88
424.52	260.36
424.89	261.97
425.26	263.57
425.64	265.01
426.01	266.63
426.38	268.28
426.75	269.91
427.13	271.66
427.50	273.45
427.87	275.32
428.24	277.17
428.61	278.96
428.99	280.91
429.36	282.96
429.73	285.02
430.10	287.04
430.47	289.10
430.85	291.22
431.22	293.44
431.59	295.79
431.96	298.03
432.33	300.50
432.70	302.87
433.08	305.63
433.45	308.25
433.82	310.84
434.19	313.70
434.56	316.51
434.93	319.14
435.30	321.69
435.68	324.57
436.05	327.37
436.42	330.11
436.79	332.62
437.16	335.27
437.53	338.06
437.90	340.84
438.27	343.53
438.64	346.33
439.01	348.91
439.38	351.13
439.75	353.27
440.13	355.74
440.50	358.04
440.87	359.86
441.24	361.82
441.61	363.94
441.98	365.37
442.35	367.16
442.72	368.96
443.09	370.73
443.46	371.70
443.83	372.25
444.20	372.77
444.57	373.55
444.94	373.90
445.31	374.25
445.68	374.58
446.05	374.67
446.42	374.27
446.79	373.85
447.16	373.37
447.53	372.99
447.90	371.81
448.27	370.61
448.64	368.98
449.01	367.82
449.37	365.88
449.74	364.00
450.11	361.76
450.48	359.31
450.85	356.83
451.22	354.68
451.59	352.67
451.96	350.71
452.33	348.14
452.70	345.76
453.07	342.93
453.43	340.02
453.80	337.30
454.17	334.64
454.54	332.08
454.91	329.38
455.28	326.75
455.65	324.29
456.02	321.88
456.38	319.79
456.75	317.12
457.12	314.85
457.49	312.62
457.86	310.42
458.23	308.58
458.59	306.55
458.96	304.49
459.33	302.65
459.70	300.79
460.07	299.29
460.43	297.59
460.80	295.95
461.17	294.57
461.54	293.05
461.91	291.66
462.27	290.25
462.64	289.03
463.01	287.74
463.38	286.47
463.74	285.14
464.11	283.98
464.48	282.99
464.85	281.92
465.21	281.10
465.58	280.20
465.95	279.12
466.32	278.24
466.68	277.36
467.05	276.47
467.42	275.60
467.78	274.67
468.15	273.80
468.52	273.20
468.88	272.35
469.25	271.57
469.62	270.99
469.98	270.31
470.35	269.67
470.72	269.04
471.08	268.37
471.45	267.84
471.82	267.34
472.18	266.78
472.55	266.38
472.92	265.89
473.28	265.44
473.65	265.03
474.02	264.59
474.38	264.21
474.75	263.92
475.11	263.63
475.48	263.43
475.85	263.23
476.21	262.97
476.58	262.81
476.94	262.72
477.31	262.52
477.67	262.41
478.04	262.30
478.41	262.26
478.77	262.35
479.14	262.29
479.50	262.29
479.87	262.37
480.23	262.45
480.60	262.53
480.96	262.65
481.33	262.86
481.69	263.06
482.06	263.33
482.42	263.50
482.79	263.73
483.15	264.07
483.52	264.43
483.88	264.84
484.25	265.24
484.61	265.64
484.98	266.10
485.34	266.66
485.71	267.29
486.07	267.94
486.44	268.46
486.80	269.15
487.17	269.87
487.53	270.67
487.90	271.51
488.26	272.44
488.62	273.43
488.99	274.40
489.35	275.46
489.72	276.54
490.08	277.76
490.44	279.01
490.81	280.32
491.17	281.67
491.54	283.12
491.90	284.65
492.26	286.32
492.63	288.06
492.99	289.78
493.36	291.65
493.72	293.66
494.08	295.79
494.45	298.05
494.81	300.42
495.17	302.86
495.54	305.42
495.90	308.09
496.26	310.93
496.63	313.86
496.99	316.98
497.35	320.25
497.72	323.67
498.08	327.20
498.44	330.87
498.80	334.82
499.17	338.87
499.53	343.08
499.89	347.42
500.26	351.90
500.62	356.59
500.98	361.53
501.34	366.58
501.71	371.90
502.07	377.35
502.43	382.98
502.79	388.81
503.16	394.93
503.52	401.20
503.88	407.61
504.24	414.27
504.60	421.20
504.97	428.37
505.33	435.67
505.69	443.33
506.05	451.15
506.41	459.05
506.78	467.17
507.14	475.59
507.50	484.36
507.86	493.45
508.22	502.65
508.59	511.93
508.95	521.48
509.31	531.28
509.67	541.37
510.03	551.66
510.39	562.19
510.75	572.99
511.12	583.91
511.48	595.18
511.84	606.60
512.20	618.03
512.56	629.89
512.92	642.07
513.28	654.44
513.64	666.86
514.00	679.62
514.37	692.60
514.73	705.62
515.09	718.64
515.45	731.87
515.81	745.47
516.17	759.46
516.53	773.65
516.89	787.89
517.25	802.03
517.61	816.45
517.97	830.87
518.33	845.24
518.69	859.97
519.05	874.89
519.41	890.10
519.77	905.65
520.13	921.13
520.49	936.45
520.85	951.82
521.21	967.47
521.57	983.55
521.93	999.24
522.29	1015.50
522.65	1031.67
523.01	1047.90
523.37	1063.90
523.73	1079.97
524.09	1095.88
524.45	1112.08
524.81	1128.59
525.17	1145.30
525.53	1162.23
525.89	1178.97
526.25	1195.75
526.61	1212.02
526.97	1228.63
527.33	1244.98
527.68	1261.48
528.04	1277.90
528.40	1294.40
528.76	1311.31
529.12	1327.78
529.48	1344.57
529.84	1360.50
530.20	1377.00
530.56	1393.86
530.91	1411.19
531.27	1427.82
531.63	1444.29
531.99	1460.75
532.35	1476.68
532.71	1492.41
533.07	1508.48
533.42	1524.31
533.78	1540.31
534.14	1556.60
534.50	1571.72
534.86	1587.53
535.21	1602.49
535.57	1618.20
535.93	1633.61
536.29	1648.44
536.65	1663.45
537.00	1678.05
537.36	1693.26
537.72	1707.66
538.08	1721.90
538.44	1735.46
538.79	1749.29
539.15	1762.82
539.51	1776.41
539.87	1790.63
540.22	1804.27
540.58	1817.83
540.94	1831.11
541.29	1843.86
541.65	1856.41
542.01	1869.71
542.37	1881.98
542.72	1894.49
543.08	1906.33
543.44	1918.61
543.79	1929.65
544.15	1940.55
544.51	1952.15
544.87	1963.05
545.22	1973.83
545.58	1984.16
545.94	1994.01
546.29	2003.77
546.65	2013.42
547.01	2022.60
547.36	2031.26
547.72	2039.68
548.07	2047.49
548.43	2055.54
548.79	2063.47
549.14	2070.91
549.50	2078.08
549.86	2085.63
550.21	2092.76
550.57	2099.79
550.92	2106.27
551.28	2113.30
551.64	2120.30
551.99	2126.61
552.35	2132.73
552.70	2138.79
553.06	2144.57
553.41	2150.96
553.77	2156.99
554.13	2163.14
554.48	2169.29
554.84	2174.68
555.19	2179.99
555.55	2185.21
555.90	2189.69
556.26	2194.63
556.61	2199.33
556.97	2203.51
557.32	2207.57
557.68	2211.79
558.03	2216.17
558.39	2219.89
558.74	2224.61
559.10	2228.44
559.45	2232.31
559.81	2236.67
560.16	2240.65
560.52	2244.08
560.87	2247.31
561.23	2249.81
561.58	2252.71
561.94	2255.22
562.29	2257.68
562.64	2260.30
563.00	2262.89
563.35	2266.38
563.71	2269.35
564.06	2272.54
564.42	2275.65
564.77	2278.29
565.12	2280.57
565.48	2282.54
565.83	2284.42
566.19	2285.61
566.54	2286.56
566.89	2287.62
567.25	2288.21
567.60	2289.44
567.96	2291.00
568.31	2291.82
568.66	2293.03
569.02	2293.85
569.37	2294.30
569.72	2295.30
570.08	2295.51
570.43	2295.71
570.78	2295.32
571.14	2294.00
571.49	2292.84
571.84	2292.52
572.20	2291.45
572.55	2290.41
572.90	2288.91
573.26	2287.67
573.61	2286.16
573.96	2284.59
574.31	2281.66
574.67	2278.72
575.02	2275.19
575.37	2271.92
575.72	2268.16
576.08	2264.87
576.43	2261.47
576.78	2257.71
577.13	2254.55
577.49	2251.50
577.84	2247.91
578.19	2244.19
578.54	2240.68
578.90	2236.49
579.25	2231.08
579.60	2226.10
579.95	2221.14
580.30	2216.08
580.66	2210.86
581.01	2205.97
581.36	2201.10
581.71	2197.13
582.06	2192.78
582.42	2188.42
582.77	2183.31
583.12	2179.01
583.47	2174.42
583.82	2169.53
584.17	2164.38
584.53	2158.98
584.88	2153.40
585.23	2147.70
585.58	2142.38
585.93	2136.97
586.28	2132.25
586.63	2127.12
586.98	2122.26
587.34	2117.68
587.69	2112.92
588.04	2107.78
588.39	2102.17
588.74	2095.66
589.09	2089.54
589.44	2082.71
589.79	2076.78
590.14	2071.21
590.49	2064.60
590.84	2058.32
591.19	2052.42
591.54	2046.06
591.89	2038.78
592.25	2032.08
592.60	2024.93
592.95	2017.31
593.30	2009.95
593.65	2002.45
594.00	1995.56
594.35	1988.14
594.70	1980.26
595.05	1973.17
595.40	1965.94
595.75	1958.50
596.10	1952.39
596.45	1945.74
596.80	1939.72
597.15	1933.15
597.50	1926.07
597.85	1919.77
598.19	1913.13
598.54	1905.87
598.89	1899.25
599.24	1893.37
599.59	1886.76
599.94	1880.58
600.29	1874.14
600.64	1867.62
600.99	1860.12
601.34	1853.30
601.69	1846.56
602.04	1839.72
602.39	1832.37
602.74	1825.53
603.08	1818.80
603.43	1812.08
603.78	1804.71
604.13	1797.45
604.48	1790.00
604.83	1783.07
605.18	1776.13
605.53	1768.19
605.87	1760.44
606.22	1753.29
606.57	1745.33
606.92	1738.08
607.27	1731.01
607.62	1724.27
607.96	1716.94
608.31	1710.41
608.66	1702.85
609.01	1695.22
609.36	1687.52
609.70	1679.44
610.05	1671.38
610.40	1663.73
610.75	1655.45
611.10	1647.83
611.44	1639.42
611.79	1631.63
612.14	1623.07
612.49	1613.89
612.83	1605.51
613.18	1597.34
613.53	1589.18
613.88	1580.68
614.22	1572.22
614.57	1563.72
614.92	1555.64
615.27	1548.12
615.61	1539.73
615.96	1531.60
616.31	1523.93
616.65	1516.57
617.00	1509.12
617.35	1501.49
617.70	1493.24
618.04	1484.73
618.39	1476.46
618.74	1468.87
619.08	1460.48
619.43	1452.86
619.78	1445.95
620.12	1438.78
620.47	1431.20
620.82	1423.07
621.16	1415.67
621.51	1408.15
621.85	1400.56
622.20	1391.98
622.55	1383.63
622.89	1375.78
623.24	1368.18
623.59	1360.85
623.93	1353.41
624.28	1346.18
624.62	1338.66
624.97	1331.33
625.32	1324.49
625.66	1317.54
626.01	1310.34
626.35	1302.88
626.70	1295.12
627.04	1287.34
627.39	1279.59
627.73	1272.19
628.08	1265.31
628.43	1257.90
628.77	1250.59
629.12	1242.97
629.46	1235.87
629.81	1228.46
630.15	1221.28
630.50	1213.80
630.84	1205.60
631.19	1197.61
631.53	1190.11
631.88	1182.54
632.22	1174.96
632.57	1167.64
632.91	1160.13
633.26	1152.76
633.60	1145.46
633.95	1138.25
634.29	1131.20
634.64	1124.38
634.98	1117.02
635.32	1109.84
635.67	1103.27
636.01	1096.65
636.36	1089.73
636.70	1083.14
637.05	1076.59
637.39	1070.12
637.73	1063.59
638.08	1057.73
638.42	1051.73
638.77	1045.23
639.11	1038.63
639.45	1032.26
639.80	1025.73
640.14	1019.23
640.49	1012.72
640.83	1006.34
641.17	1000.11
641.52	993.72
641.86	987.29
642.20	981.43
642.55	975.12
642.89	968.68
643.23	962.00
643.58	956.30
643.92	950.19
644.26	944.07
644.61	938.07
644.95	932.09
645.29	925.59
645.64	918.88
645.98	912.49
646.32	906.61
646.66	900.61
647.01	894.74
647.35	889.03
647.69	883.23
648.04	877.78
648.38	872.03
648.72	866.10
649.06	860.02
649.41	854.20
649.75	848.27
650.09	842.37
650.43	836.67
650.78	830.46
651.12	824.51
651.46	818.82
651.80	813.05
652.14	807.72
652.49	802.30
652.83	797.14
653.17	791.47
653.51	785.80
653.85	780.36
654.20	774.73
654.54	768.73
654.88	762.99
655.22	757.01
655.56	751.38
655.90	746.00
656.25	740.79
656.59	735.44
656.93	730.40
657.27	725.28
657.61	719.87
657.95	714.82
658.29	709.75
658.64	704.53
658.98	699.27
659.32	693.77
659.66	688.56
660.00	683.28
660.34	678.35
660.68	673.45
661.02	668.43
661.36	663.71
661.70	659.19
662.05	654.82
662.39	650.56
662.73	646.11
663.07	641.77
663.41	637.36
663.75	632.81
664.09	628.19
664.43	623.73
664.77	619.55
665.11	615.30
665.45	611.16
665.79	607.05
666.13	602.93
666.47	598.89
666.81	594.73
667.15	590.56
667.49	586.63
667.83	582.80
668.17	578.88
668.51	574.83
668.85	570.85
669.19	567.06
669.53	563.15
669.87	559.18
670.21	555.34
670.55	551.66
670.89	548.23
671.23	544.77
671.57	541.20
671.91	537.65
672.25	534.16
672.58	530.62
672.92	527.14
673.26	523.90
673.60	520.69
673.94	517.54
674.28	514.65
674.62	511.76
674.96	508.68
675.30	505.71
675.64	502.71
675.97	499.90
676.31	496.98
676.65	494.05
676.99	491.42
677.33	488.57
677.67	485.76
678.01	482.73
678.34	479.73
678.68	476.88
679.02	474.10
679.36	471.29
679.70	468.57
680.04	465.85
680.37	462.96
680.71	460.13
681.05	457.51
681.39	454.74
681.73	452.00
682.06	449.43
682.40	446.91
682.74	444.37
683.08	441.82
683.42	439.21
683.75	436.72
684.09	434.12
684.43	431.68
684.77	429.20
685.10	426.85
685.44	424.59
685.78	422.28
686.12	419.96
686.45	417.68
686.79	415.35
687.13	413.12
687.46	411.00
687.80	408.85
688.14	406.63
688.48	404.59
688.81	402.37
689.15	400.22
689.49	398.04
689.82	395.98
690.16	393.85
690.50	391.86
690.83	389.89
691.17	387.90
691.51	385.99
691.84	384.16
692.18	382.20
692.52	380.17
692.85	378.23
693.19	376.39
693.52	374.53
693.86	372.74
694.20	370.97
694.53	369.11
694.87	367.26
695.21	365.50
695.54	363.68
695.88	361.96
696.21	360.23
696.55	358.56
696.88	356.87
697.22	355.23
697.56	353.67
697.89	352.04
698.23	350.42
698.56	348.76
698.90	347.15
699.23	345.53
699.57	343.98
699.90	342.45
700.24	340.92
700.58	339.43
700.91	337.94
701.25	336.50
701.58	335.14
701.92	333.74
702.25	332.38
702.59	331.02
702.92	329.65
703.26	328.37
703.59	327.08
703.93	325.92
704.26	324.69
704.60	323.35
704.93	322.02
705.26	320.80
705.60	319.65
705.93	318.51
706.27	317.45
706.60	316.42
706.94	315.35
707.27	314.18
707.61	313.11
707.94	312.08
708.27	310.95
708.61	309.87
708.94	308.90
709.28	307.90
709.61	306.91
709.94	305.99
710.28	304.92
710.61	303.96
710.95	302.86
711.28	301.96
711.61	300.99
711.95	300.12
712.28	299.14
712.61	298.18
712.95	297.21
713.28	296.34
713.61	295.45
713.95	294.50
714.28	293.66
714.61	292.78
714.95	291.93
715.28	291.10
715.61	290.21
715.95	289.34
716.28	288.46
716.61	287.65
716.95	286.86
717.28	286.14
717.61	285.37
717.94	284.62
718.28	283.81
718.61	283.12
718.94	282.41
719.27	281.74
719.61	281.07
719.94	280.40
720.27	279.69
720.60	279.01
720.94	278.41
721.27	277.79
721.60	277.22
721.93	276.63
722.27	276.10
722.60	275.57
722.93	275.01
723.26	274.45
723.59	273.86
723.93	273.29
724.26	272.72
724.59	272.14
724.92	271.61
725.25	271.12
725.59	270.57
725.92	270.07
726.25	269.55
726.58	269.06
726.91	268.58
727.24	268.09
727.57	267.61
727.91	267.10
728.24	266.65
728.57	266.18
728.90	265.69
729.23	265.17
729.56	264.73
729.89	264.29
730.22	263.81
730.55	263.36
730.89	262.91
731.22	262.47
731.55	262.05
731.88	261.63
732.21	261.18
732.54	260.75
732.87	260.31
733.20	259.96
733.53	259.58
733.86	259.21
734.19	258.83
734.52	258.48
734.85	258.18
735.18	257.75
735.51	257.39
735.84	257.01
736.17	256.67
736.50	256.29
736.83	256.04
737.16	255.70
737.49	255.40
737.82	255.08
738.15	254.71
738.48	254.40
738.81	254.05
739.14	253.73
739.47	253.44
739.80	253.13
740.13	252.81
740.46	252.48
740.79	252.16
741.12	251.90
741.45	251.56
741.78	251.22
742.11	250.96
742.44	250.64
742.77	250.39
743.10	250.08
743.43	249.77
743.75	249.38
744.08	249.28
744.41	249.00
744.74	248.73
745.07	248.47
745.40	248.22
745.73	247.99
746.06	247.70
746.39	247.43
746.71	247.13
747.04	246.85
747.37	246.59
747.70	246.33
748.03	246.05
748.36	245.83
748.68	245.57
749.01	245.31
749.34	245.05
749.67	244.80
750.00	244.61
750.33	244.47
750.65	244.28
750.98	243.92
751.31	243.65
751.64	243.44
751.97	243.27
752.29	243.06
752.62	242.80
752.95	242.60
753.28	242.40
753.60	242.21
753.93	242.06
754.26	241.88
754.59	241.66
754.91	241.44
755.24	241.22
755.57	241.03
755.90	240.87
756.22	240.68
756.55	240.49
756.88	240.28
757.20	240.06
757.53	239.83
757.86	239.66
758.19	239.51
758.51	239.36
758.84	239.16
759.17	238.96
759.49	238.86
759.82	238.74
760.15	238.57
760.47	238.42
760.80	238.22
761.13	238.07
761.45	237.89
761.78	237.76
762.11	237.62
762.43	237.47
762.76	237.29
763.08	237.19
763.41	237.07
763.74	236.93
764.06	236.75
764.39	236.63
764.71	236.48
765.04	236.35
765.37	236.16
765.69	236.04
766.02	235.90
766.34	235.76
766.67	235.63
767.00	235.56
767.32	235.53
767.65	235.48
767.97	235.35
768.30	235.26
768.62	235.14
768.95	235.03
769.27	234.94
769.60	234.85
769.92	234.74
770.25	234.62
770.57	234.53
770.90	234.42
771.22	234.31
771.55	234.24
771.87	234.16
772.20	234.08
772.52	234.08
772.85	234.13
773.17	234.06
773.50	233.92
773.82	233.80
774.15	233.62
774.47	233.50
774.80	233.41
775.12	233.30
775.45	233.21
775.77	233.14
776.09	233.08
776.42	233.03
776.74	232.96
777.07	232.85
777.39	232.76
777.72	232.70
778.04	232.65
778.36	232.57
778.69	232.45
779.01	232.40
779.33	232.22
779.66	232.04
779.98	231.96
780.31	231.92
780.63	231.87
780.95	231.86
781.28	231.80
781.60	231.75
781.92	231.70
782.25	231.65
782.57	231.56
782.89	231.48
783.22	231.40
783.54	231.31
783.86	231.30
784.19	231.20
784.51	231.15
784.83	231.06
785.16	230.96
785.48	230.95
785.80	230.91
786.12	230.90
786.45	230.84
786.77	230.80
787.09	230.75
787.42	230.70
787.74	230.63
788.06	230.56
788.38	230.48
788.71	230.42
789.03	230.42
789.35	230.41
789.67	230.37
789.99	230.32
790.32	230.27
790.64	230.19
790.96	230.27
791.28	230.20
791.61	230.17
791.93	230.18
792.25	230.13
792.57	230.20
792.89	230.10
793.21	230.09
793.54	230.01
793.86	229.95
794.18	229.87
794.50	229.82
794.82	229.80
795.14	229.81
795.47	229.80
795.79	229.73
796.11	229.66
796.43	229.62
796.75	229.56
797.07	229.54
797.39	229.54
797.71	229.43
798.04	229.42
798.36	229.39
798.68	229.33
799.00	229.34
799.32	229.21
799.64	229.19
799.96	229.16
800.28	229.18
800.60	229.14
800.92	229.15
801.24	229.09
801.56	229.05
801.89	229.00
802.21	228.99
802.53	228.93
802.85	228.93
803.17	228.93
803.49	228.91
803.81	228.87
804.13	228.88
804.45	228.83
804.77	228.80
805.09	228.78
805.41	228.76
805.73	228.67
806.05	228.62
806.37	228.59
806.69	228.52
807.01	228.47
807.33	228.46
807.65	228.39
807.97	228.43
808.28	228.40
808.60	228.37
808.92	228.32
809.24	228.37
809.56	228.33
809.88	228.26
810.20	228.24
810.52	228.24
810.84	228.16
811.16	228.15
811.48	228.11
811.80	228.13
812.12	228.13
812.43	228.13
812.75	228.13
813.07	228.12
813.39	228.12
813.71	228.10
814.03	228.07
814.35	228.08
814.67	228.04
814.98	228.01
815.30	227.98
815.62	227.95
815.94	227.87
816.26	227.90
816.58	227.90
816.89	227.88
817.21	227.85
817.53	227.87
817.85	227.84
818.17	227.83
818.48	227.77
818.80	227.75
819.12	227.74
819.44	227.72
819.76	227.67
820.07	227.66
820.39	227.63
820.71	227.64
821.03	227.62
821.34	227.58
821.66	227.60
821.98	227.57
822.30	227.55
822.61	227.59
822.93	227.50
823.25	227.47
823.57	227.46
823.88	227.47
824.20	227.42
824.52	227.44
824.83	227.42
825.15	227.37
825.47	227.34
825.79	227.34
826.10	227.30
826.42	227.31
826.74	227.26
827.05	227.24
827.37	227.19
827.69	227.16
828.00	227.15
828.32	227.11
828.64	227.11
828.95	227.16
829.27	227.12
829.58	227.15
829.90	227.16
830.22	227.12
830.53	227.08
830.85	227.11
831.17	227.07
831.48	227.05
831.80	227.05
832.11	227.03
832.43	227.02
832.75	227.00
833.06	227.02
833.38	227.02
833.69	227.02
834.01	227.06
834.32	227.05
834.64	227.05
834.96	227.07
835.27	227.06
835.59	227.01
835.90	226.97
836.22	226.96
836.53	226.92
836.85	226.93
837.16	227.02
837.48	227.00
837.79	227.06
838.11	227.04
838.42	227.05
838.74	227.04
839.05	227.01
839.37	227.01
839.68	226.97
840.00	226.99
840.31	226.99
840.63	226.97
840.94	226.97
841.26	226.96
841.57	226.95
841.88	226.97
842.20	226.96
842.51	226.96
842.83	226.98
843.14	227.08
843.46	227.06
843.77	227.01
844.08	227.00
844.40	226.96
844.71	226.94
845.03	226.93
845.34	226.95
845.65	226.95
845.97	226.92
846.28	226.93
846.60	226.92
846.91	226.91
847.22	226.89
847.54	226.89
847.85	226.89
848.16	226.87
848.48	226.84
848.79	226.88
849.10	226.86
849.42	226.83
849.73	226.71
850.04	226.74
850.36	226.69
850.67	226.70
850.98	226.67
851.30	226.69
851.61	226.68
851.92	226.66
852.23	226.70
852.55	226.72
852.86	226.71
853.17	226.71
853.49	226.71
853.80	226.75
854.11	226.75
854.42	226.73
854.74	226.72
855.05	226.72
855.36	226.63
855.67	226.65
855.99	226.65
856.30	226.80
856.61	226.77
856.92	226.79
857.23	226.75
857.55	226.74
857.86	226.75
858.17	226.77
858.48	226.75
858.79	226.71
859.11	226.71
859.42	226.70
859.73	226.70
860.04	226.66
860.35	226.63
860.66	226.60
860.98	226.62
861.29	226.63
861.60	226.61
861.91	226.65
862.22	226.62
862.53	226.60
862.84	226.46
863.16	226.46
863.47	226.41
863.78	226.41
864.09	226.44
864.40	226.41
864.71	226.38
865.02	226.42
865.33	226.40
865.64	226.40
865.95	226.37
866.27	226.41
866.58	226.39
866.89	226.40
867.20	226.36
867.51	226.35
867.82	226.35
868.13	226.35
868.44	226.31
868.75	226.34
869.06	226.32
869.37	226.32
869.68	226.32
869.99	226.34
870.30	226.34
870.61	226.32
870.92	226.36
871.23	226.37
871.54	226.37
871.85	226.40
872.16	226.39
872.47	226.41
872.78	226.36
873.09	226.38
873.40	226.38
873.71	226.43
874.02	226.44
874.33	226.40
874.64	226.39
874.95	226.41
875.26	226.37
875.56	226.40
875.87	226.39
876.18	226.36
876.49	226.43
876.80	226.44
877.11	226.44
877.42	226.40
877.73	226.38
878.04	226.33
878.35	226.30
878.66	226.29
878.96	226.29
879.27	226.25
879.58	226.25
879.89	226.22
880.20	226.22
880.51	226.18
880.82	226.21
881.12	226.20
881.43	226.18
881.74	226.16
882.05	226.13
882.36	226.14
882.67	226.15
882.97	226.07
883.28	226.05
883.59	226.04
883.90	226.06
884.21	226.09
884.51	226.09
884.82	226.12
885.13	226.11
885.44	226.10
885.74	226.12
886.05	226.08
886.36	226.08
886.67	226.08
886.98	226.15
887.28	226.17
887.59	226.17
887.90	226.17
888.20	226.20
888.51	226.23
888.82	226.21
889.13	226.22
889.43	226.28
889.74	226.28
890.05	226.26
890.35	226.24
890.66	226.20
890.97	226.18
891.28	226.15
891.58	226.17
891.89	226.17
892.20	226.18
892.50	226.19
892.81	226.23
893.12	226.18
893.42	226.13
893.73	226.11
894.04	226.10
894.34	226.11
894.65	226.09
894.95	226.07
895.26	226.08
895.57	226.11
895.87	226.00
896.18	226.02
896.48	226.04
896.79	226.04
897.10	226.08
897.40	226.10
897.71	226.09
898.01	226.06
898.32	226.06
898.63	226.04
898.93	226.06
899.24	226.04
899.54	226.04
899.85	226.03
900.15	225.99
900.46	226.01
900.76	226.02
901.07	226.02
901.38	226.00
901.68	226.01
901.99	225.94
902.29	225.94
902.60	225.89
902.90	225.87
903.21	225.84
903.51	225.82
903.82	225.79
904.12	225.81
904.43	225.84
904.73	225.85
905.03	225.86
905.34	225.93
905.64	225.92
905.95	225.93
906.25	225.94
906.56	225.97
906.86	225.98
907.17	226.01
907.47	226.01
907.77	226.02
908.08	225.98
908.38	226.02
908.69	226.04
908.99	226.06
909.30	226.07
909.60	226.07
909.90	226.08
910.21	226.06
910.51	226.05
910.81	226.02
911.12	226.02
911.42	226.01
911.73	225.91
912.03	225.92
912.33	225.94
912.64	225.94
912.94	225.93
913.24	225.90
913.55	225.88
913.85	225.89
914.15	225.92
914.46	225.95
914.76	225.96
915.06	225.95
915.37	225.94
915.67	225.94
915.97	225.97
916.27	225.97
916.58	226.00
916.88	225.98
917.18	225.95
917.49	226.03
917.79	226.01
918.09	226.03
918.39	226.02
918.70	225.99
919.00	225.96
919.30	226.03
919.60	226.01
919.91	225.95
920.21	225.94
920.51	225.88
920.81	225.88
921.12	225.85
921.42	225.85
921.72	225.86
922.02	225.84
922.32	225.88
922.63	225.85
922.93	225.90
923.23	225.94
923.53	225.96
923.83	225.89
924.13	225.90
924.44	225.91
924.74	225.94
925.04	226.00
925.34	225.99
925.64	225.97
925.94	226.00
926.24	226.08
926.55	226.06
926.85	226.12
927.15	226.11
927.45	226.15
927.75	226.14
928.05	226.15
928.35	226.18
928.65	226.16
928.95	226.20
929.26	226.16
929.56	226.16
929.86	226.18
930.16	226.14
930.46	226.16
930.76	226.17
931.06	226.15
931.36	226.10
931.66	226.11
931.96	226.07
932.26	226.06
932.56	226.04
932.86	226.05
933.16	226.05
933.46	226.03
933.76	226.00
934.06	226.03
934.36	226.05
934.66	226.02
934.96	226.02
935.26	225.99
935.56	225.96
935.86	225.94
936.16	225.92
936.46	225.97
936.76	225.95
937.06	225.94
937.36	225.92
937.66	225.93
937.96	225.96
938.26	225.95
938.56	226.00
938.86	225.99
939.16	226.02
939.46	226.03
939.76	226.03
940.06	226.01
940.35	226.01
940.65	226.00
940.95	226.01
941.25	226.01
941.55	226.03
941.85	226.05
942.15	226.06
942.45	226.11
942.75	226.05
943.04	226.07
943.34	226.08
943.64	226.08
943.94	226.07
944.24	226.06
944.54	226.07
944.84	226.02
945.13	226.04
945.43	226.01
945.73	226.00
946.03	225.98
946.33	226.00
946.62	225.98
946.92	225.97
947.22	225.97
947.52	225.95
947.82	225.93
948.11	225.91
948.41	225.89
948.71	225.82
949.01	225.87
949.31	225.85
949.60	225.84
949.90	225.85
950.20	225.84
950.50	225.82
950.79	225.78
951.09	225.79
951.39	225.75
951.69	225.73
951.98	225.73
952.28	225.73
952.58	225.70
952.87	225.67
953.17	225.66
953.47	225.64
953.76	225.62
954.06	225.61
954.36	225.60
954.66	225.60
954.95	225.67
955.25	225.65
955.55	225.66
955.84	225.62
956.14	225.63
956.44	225.63
956.73	225.61
957.03	225.64
957.32	225.64
957.62	225.64
957.92	225.67
958.21	225.67
958.51	225.77
958.81	225.80
959.10	225.79
959.40	225.84
959.69	225.86
959.99	225.89
960.29	225.90
960.58	225.93
960.88	225.94
961.17	225.89
961.47	225.93
961.76	225.94
962.06	225.95
962.36	225.94
962.65	225.99
962.95	226.01
963.24	226.04
963.54	226.06
963.83	226.06
964.13	226.06
964.42	226.00
964.72	225.97
965.01	226.02
965.31	226.05
965.60	226.04
965.90	226.12
966.19	226.09
966.49	226.06
966.78	226.06
967.08	226.06
967.37	226.08
967.67	226.04
967.96	226.08
968.26	226.12
968.55	226.15
968.85	226.12
969.14	226.10
969.43	226.11
969.73	226.10
970.02	226.10
970.32	226.11
970.61	226.17
970.91	226.12
971.20	226.09
971.49	226.09
971.79	226.08
972.08	226.00
972.38	226.02
972.67	226.03
972.96	226.02
973.26	226.04
973.55	226.07
973.85	226.05
974.14	226.06
974.43	226.05
974.73	226.02
975.02	226.01
975.31	226.02
975.61	226.03
975.90	226.02
976.19	226.01
976.49	226.01
976.78	226.00
977.07	226.01
977.37	226.01
977.66	226.02
977.95	226.03
978.24	226.05
978.54	226.06
978.83	226.08
979.12	226.09
979.42	226.08
979.71	226.09
980.00	226.10
980.29	226.07
980.59	226.07
980.88	226.10
981.17	226.07
981.46	226.09
981.76	226.06
982.05	226.10
982.34	226.09
982.63	226.10
982.93	226.11
983.22	226.10
983.51	226.10
983.80	226.12
984.09	226.11
984.39	226.12
984.68	226.11
984.97	226.12
985.26	226.08
985.55	226.06
985.85	226.00
986.14	225.98
986.43	226.01
986.72	225.99
987.01	225.97
987.30	225.99
987.59	225.97
987.89	225.99
988.18	225.95
988.47	225.97
988.76	225.93
989.05	225.91
989.34	225.91
989.63	225.92
989.92	225.88
990.22	225.86
990.51	225.82
990.80	225.78
991.09	225.77
991.38	225.81
991.67	225.83
991.96	225.81
992.25	225.84
992.54	225.81
992.83	225.77
993.12	225.75
993.41	225.77
993.70	225.79
993.99	225.78
994.28	225.78
994.58	225.80
994.87	225.78
995.16	225.81
995.45	225.79
995.74	225.77
996.03	225.76
996.32	225.76
996.61	225.81
996.90	225.81
997.19	225.80
997.48	225.78
997.77	225.74
998.06	225.77
998.34	225.74
998.63	225.73
998.92	225.77
999.21	225.79
999.50	225.79
999.79	225.74
1000.08	225.75
1000.37	225.76
1000.66	225.70
1000.95	225.74
1001.24	225.71
1001.53	225.73
1001.82	225.71
1002.11	225.72
1002.40	225.72
1002.68	225.73
1002.97	225.86
1003.26	225.87
1003.55	225.86
1003.84	225.90
1004.13	225.92
1004.42	225.96
1004.71	225.97
1004.99	225.96
1005.28	225.98
1005.57	225.96
1005.86	225.98
1006.15	225.97
1006.44	225.95
1006.72	226.00
1007.01	225.99
1007.30	225.99
1007.59	225.98
1007.88	225.96
1008.17	225.97
1008.45	225.97
1008.74	225.93
1009.03	225.86
1009.32	225.84
1009.60	225.83
1009.89	225.80
1010.18	225.79
1010.47	225.76
1010.76	225.76
1011.04	225.77
1011.33	225.81
1011.62	225.81
1011.91	225.78
1012.19	225.79
1012.48	225.78
1012.77	225.77
1013.05	225.80
1013.34	225.83
1013.63	225.82
1013.92	225.85
1014.20	225.85
1014.49	225.89
1014.78	225.89
1015.06	225.86
1015.35	225.89
1015.64	225.91
1015.92	225.95
1016.21	225.92
1016.50	225.92
1016.78	225.92
1017.07	225.92
1017.36	225.86
1017.64	225.82
1017.93	225.84
1018.22	225.80
1018.50	225.81
1018.79	225.80
1019.08	225.77
1019.36	225.76
1019.65	225.73
1019.93	225.73
1020.22	225.71
1020.51	225.72
1020.79	225.68
1021.08	225.15
1021.36	225.60
1021.65	225.80
1021.94	225.71
1022.22	225.71
1022.51	224.96
1022.79	225.90
1023.08	225.34
1023.36	226.64
1023.65	225.22
>>>>>End Processed Spectral Data<<<<<
