SpectraSuite Data File
++++++++++++++++++++++++++++++++++++
Date: Fri Feb 01 15:54:49 EST 2013
User: group
Dark Spectrum Present: No
Reference Spectrum Present: No
Number of Sampled Component Spectra: 1
Spectrometers: USB2E7196
Integration Time (usec): 35000 (USB2E7196)
Spectra Averaged: 100 (USB2E7196)
Boxcar Smoothing: 10 (USB2E7196)
Correct for Electrical Dark: No (USB2E7196)
Strobe/Lamp Enabled: No (USB2E7196)
Correct for Detector Non-linearity: No (USB2E7196)
Correct for Stray Light: No (USB2E7196)
Number of Pixels in Processed Spectrum: 2048
>>>>>Begin Processed Spectral Data<<<<<
339.09	0.00
339.48	215.01
339.86	216.06
340.24	217.20
340.63	219.21
341.01	220.83
341.39	221.27
341.78	222.77
342.16	224.59
342.54	224.67
342.93	212.99
343.31	223.76
343.69	224.32
344.07	224.77
344.46	225.23
344.84	225.61
345.22	225.88
345.60	226.16
345.99	226.36
346.37	226.47
346.75	226.59
347.13	226.65
347.52	226.69
347.90	226.78
348.28	226.80
348.66	226.85
349.05	226.83
349.43	226.87
349.81	226.92
350.19	226.96
350.57	227.03
350.96	227.08
351.34	227.15
351.72	227.21
352.10	227.33
352.48	227.40
352.87	227.42
353.25	227.50
353.63	227.54
354.01	227.61
354.39	227.73
354.77	227.79
355.15	227.93
355.54	227.98
355.92	228.02
356.30	228.12
356.68	228.29
357.06	228.39
357.44	228.43
357.82	228.49
358.20	228.56
358.58	228.63
358.97	228.72
359.35	228.81
359.73	228.88
360.11	228.91
360.49	228.95
360.87	229.02
361.25	229.09
361.63	229.18
362.01	229.24
362.39	229.23
362.77	229.26
363.15	229.27
363.53	229.29
363.91	229.33
364.29	229.33
364.67	229.21
365.05	229.22
365.43	229.23
365.81	229.24
366.19	229.29
366.57	229.36
366.95	229.36
367.33	229.32
367.71	229.29
368.09	229.30
368.47	229.28
368.85	229.24
369.23	229.24
369.61	229.14
369.99	229.15
370.37	229.11
370.75	229.14
371.13	229.08
371.51	229.04
371.89	228.99
372.27	228.96
372.65	228.92
373.03	228.87
373.41	228.84
373.78	228.81
374.16	228.72
374.54	228.58
374.92	228.52
375.30	228.47
375.68	228.40
376.06	228.36
376.44	228.29
376.82	228.22
377.19	228.13
377.57	228.06
377.95	227.92
378.33	227.83
378.71	227.71
379.09	227.66
379.47	227.60
379.84	227.54
380.22	227.44
380.60	227.37
380.98	227.29
381.36	227.21
381.73	227.10
382.11	227.03
382.49	226.99
382.87	226.90
383.25	226.84
383.62	226.89
384.00	226.80
384.38	226.76
384.76	226.75
385.13	226.73
385.51	226.72
385.89	226.69
386.27	226.68
386.64	226.64
387.02	226.56
387.40	226.54
387.78	226.49
388.15	226.51
388.53	226.47
388.91	226.46
389.29	226.44
389.66	226.46
390.04	226.42
390.42	226.38
390.79	226.39
391.17	226.36
391.55	226.24
391.92	226.25
392.30	226.26
392.68	226.22
393.05	226.22
393.43	226.20
393.81	226.22
394.18	226.22
394.56	226.26
394.94	226.31
395.31	226.31
395.69	226.36
396.06	226.39
396.44	226.41
396.82	226.45
397.19	226.51
397.57	226.54
397.95	226.62
398.32	226.66
398.70	226.72
399.07	226.81
399.45	226.85
399.82	226.89
400.20	226.95
400.58	226.99
400.95	227.03
401.33	227.13
401.70	227.29
402.08	227.34
402.45	227.43
402.83	227.55
403.20	227.66
403.58	227.77
403.95	227.87
404.33	227.99
404.71	228.10
405.08	228.28
405.46	228.40
405.83	228.55
406.21	228.69
406.58	228.82
406.96	228.98
407.33	229.18
407.70	229.39
408.08	229.66
408.45	229.91
408.83	230.16
409.20	230.35
409.58	230.51
409.95	230.79
410.33	231.04
410.70	231.26
411.08	231.55
411.45	231.85
411.82	232.15
412.20	232.53
412.57	232.93
412.95	233.23
413.32	233.67
413.69	234.06
414.07	234.50
414.44	235.01
414.82	235.47
415.19	236.02
415.56	236.55
415.94	237.09
416.31	237.73
416.68	238.33
417.06	239.07
417.43	239.78
417.81	240.53
418.18	241.34
418.55	242.18
418.93	243.07
419.30	243.95
419.67	244.90
420.04	245.86
420.42	246.86
420.79	248.00
421.16	249.11
421.54	250.31
421.91	251.55
422.28	252.83
422.66	254.17
423.03	255.48
423.40	256.87
423.77	258.29
424.15	259.72
424.52	261.22
424.89	262.82
425.26	264.36
425.64	265.85
426.01	267.46
426.38	269.09
426.75	270.77
427.13	272.51
427.50	274.32
427.87	276.20
428.24	278.04
428.61	279.80
428.99	281.74
429.36	283.84
429.73	285.89
430.10	287.88
430.47	289.97
430.85	292.09
431.22	294.31
431.59	296.70
431.96	298.93
432.33	301.44
432.70	303.86
433.08	306.69
433.45	309.33
433.82	311.89
434.19	314.87
434.56	317.67
434.93	320.35
435.30	322.99
435.68	325.91
436.05	328.77
436.42	331.60
436.79	334.13
437.16	336.81
437.53	339.66
437.90	342.46
438.27	345.22
438.64	348.05
439.01	350.64
439.38	352.85
439.75	355.01
440.13	357.48
440.50	359.76
440.87	361.59
441.24	363.49
441.61	365.66
441.98	367.07
442.35	368.89
442.72	370.72
443.09	372.48
443.46	373.40
443.83	373.95
444.20	374.43
444.57	375.28
444.94	375.58
445.31	375.89
445.68	376.24
446.05	376.26
446.42	375.85
446.79	375.42
447.16	374.97
447.53	374.66
447.90	373.48
448.27	372.36
448.64	370.75
449.01	369.60
449.37	367.60
449.74	365.69
450.11	363.37
450.48	360.85
450.85	358.32
451.22	356.21
451.59	354.21
451.96	352.26
452.33	349.64
452.70	347.29
453.07	344.43
453.43	341.53
453.80	338.74
454.17	336.04
454.54	333.48
454.91	330.75
455.28	328.09
455.65	325.61
456.02	323.10
456.38	320.97
456.75	318.34
457.12	316.11
457.49	313.89
457.86	311.75
458.23	309.91
458.59	307.86
458.96	305.75
459.33	303.90
459.70	302.06
460.07	300.59
460.43	298.84
460.80	297.27
461.17	295.84
461.54	294.39
461.91	292.97
462.27	291.53
462.64	290.29
463.01	288.87
463.38	287.59
463.74	286.24
464.11	285.07
464.48	284.03
464.85	282.92
465.21	282.09
465.58	281.20
465.95	280.12
466.32	279.24
466.68	278.39
467.05	277.51
467.42	276.60
467.78	275.64
468.15	274.79
468.52	274.12
468.88	273.28
469.25	272.56
469.62	271.96
469.98	271.27
470.35	270.64
470.72	270.09
471.08	269.45
471.45	268.94
471.82	268.39
472.18	267.80
472.55	267.39
472.92	266.86
473.28	266.37
473.65	265.93
474.02	265.47
474.38	265.08
474.75	264.75
475.11	264.41
475.48	264.13
475.85	263.93
476.21	263.68
476.58	263.49
476.94	263.30
477.31	263.10
477.67	262.99
478.04	262.90
478.41	262.84
478.77	262.90
479.14	262.83
479.50	262.85
479.87	262.94
480.23	263.02
480.60	263.11
480.96	263.21
481.33	263.41
481.69	263.62
482.06	263.84
482.42	264.03
482.79	264.31
483.15	264.61
483.52	264.98
483.88	265.33
484.25	265.73
484.61	266.17
484.98	266.69
485.34	267.23
485.71	267.85
486.07	268.48
486.44	269.06
486.80	269.75
487.17	270.51
487.53	271.33
487.90	272.20
488.26	273.11
488.62	274.13
488.99	275.11
489.35	276.15
489.72	277.31
490.08	278.53
490.44	279.77
490.81	281.09
491.17	282.45
491.54	283.91
491.90	285.45
492.26	287.08
492.63	288.76
492.99	290.52
493.36	292.41
493.72	294.41
494.08	296.50
494.45	298.75
494.81	301.11
495.17	303.54
495.54	306.08
495.90	308.78
496.26	311.55
496.63	314.54
496.99	317.67
497.35	320.90
497.72	324.31
498.08	327.80
498.44	331.54
498.80	335.47
499.17	339.57
499.53	343.72
499.89	348.08
500.26	352.61
500.62	357.28
500.98	362.23
501.34	367.36
501.71	372.68
502.07	378.12
502.43	383.74
502.79	389.57
503.16	395.64
503.52	401.90
503.88	408.37
504.24	414.99
504.60	421.92
504.97	429.07
505.33	436.45
505.69	444.20
506.05	451.96
506.41	459.81
506.78	467.96
507.14	476.44
507.50	485.20
507.86	494.29
508.22	503.50
508.59	512.68
508.95	522.22
509.31	531.99
509.67	542.11
510.03	552.38
510.39	562.90
510.75	573.70
511.12	584.62
511.48	595.90
511.84	607.35
512.20	618.80
512.56	630.71
512.92	642.79
513.28	655.08
513.64	667.56
514.00	680.33
514.37	693.27
514.73	706.31
515.09	719.32
515.45	732.62
515.81	746.20
516.17	760.26
516.53	774.37
516.89	788.63
517.25	802.75
517.61	817.20
517.97	831.72
518.33	846.14
518.69	860.92
519.05	875.91
519.41	891.11
519.77	906.71
520.13	922.20
520.49	937.59
520.85	953.03
521.21	968.87
521.57	985.11
521.93	1000.81
522.29	1017.21
522.65	1033.41
523.01	1049.51
523.37	1065.48
523.73	1081.56
524.09	1097.55
524.45	1113.84
524.81	1130.46
525.17	1147.27
525.53	1164.16
525.89	1181.06
526.25	1197.95
526.61	1214.29
526.97	1230.92
527.33	1247.39
527.68	1263.90
528.04	1280.29
528.40	1296.88
528.76	1313.80
529.12	1330.29
529.48	1347.17
529.84	1363.18
530.20	1379.91
530.56	1397.03
530.91	1414.47
531.27	1431.25
531.63	1447.76
531.99	1464.28
532.35	1480.28
532.71	1496.10
533.07	1512.32
533.42	1528.16
533.78	1544.11
534.14	1560.27
534.50	1575.65
534.86	1591.40
535.21	1606.66
535.57	1622.77
535.93	1638.21
536.29	1652.96
536.65	1668.01
537.00	1682.75
537.36	1698.05
537.72	1712.44
538.08	1726.62
538.44	1740.39
538.79	1754.27
539.15	1768.00
539.51	1781.63
539.87	1795.99
540.22	1809.78
540.58	1823.50
540.94	1836.76
541.29	1849.65
541.65	1862.27
542.01	1875.51
542.37	1887.93
542.72	1900.16
543.08	1911.86
543.44	1924.29
543.79	1935.49
544.15	1946.49
544.51	1958.11
544.87	1969.02
545.22	1979.76
545.58	1990.13
545.94	1999.88
546.29	2009.69
546.65	2019.47
547.01	2028.83
547.36	2037.42
547.72	2045.77
548.07	2053.52
548.43	2061.75
548.79	2069.70
549.14	2077.27
549.50	2084.44
549.86	2092.06
550.21	2099.52
550.57	2106.56
550.92	2113.15
551.28	2120.16
551.64	2127.16
551.99	2133.71
552.35	2139.79
552.70	2146.01
553.06	2151.95
553.41	2158.29
553.77	2164.29
554.13	2170.39
554.48	2176.40
554.84	2181.88
555.19	2187.16
555.55	2192.38
555.90	2196.84
556.26	2201.90
556.61	2206.63
556.97	2210.98
557.32	2215.11
557.68	2219.26
558.03	2223.70
558.39	2227.25
558.74	2231.88
559.10	2235.76
559.45	2239.28
559.81	2243.70
560.16	2247.65
560.52	2250.75
560.87	2254.06
561.23	2256.71
561.58	2259.66
561.94	2262.14
562.29	2264.49
562.64	2267.19
563.00	2269.82
563.35	2273.41
563.71	2276.35
564.06	2279.60
564.42	2282.45
564.77	2284.82
565.12	2286.95
565.48	2288.73
565.83	2290.65
566.19	2291.97
566.54	2292.93
566.89	2294.06
567.25	2294.57
567.60	2295.78
567.96	2297.60
568.31	2298.56
568.66	2299.69
569.02	2300.25
569.37	2300.66
569.72	2301.64
570.08	2301.80
570.43	2301.76
570.78	2301.15
571.14	2299.67
571.49	2298.32
571.84	2298.03
572.20	2296.97
572.55	2296.11
572.90	2294.64
573.26	2293.29
573.61	2291.69
573.96	2289.93
574.31	2287.05
574.67	2284.01
575.02	2280.37
575.37	2276.93
575.72	2273.06
576.08	2269.84
576.43	2266.54
576.78	2262.92
577.13	2259.81
577.49	2256.63
577.84	2253.13
578.19	2249.29
578.54	2245.65
578.90	2241.47
579.25	2235.94
579.60	2230.99
579.95	2225.77
580.30	2220.80
580.66	2215.77
581.01	2210.83
581.36	2205.85
581.71	2201.67
582.06	2197.28
582.42	2192.79
582.77	2187.58
583.12	2183.12
583.47	2178.17
583.82	2173.09
584.17	2167.85
584.53	2162.22
584.88	2156.83
585.23	2151.04
585.58	2145.68
585.93	2140.27
586.28	2135.40
586.63	2130.32
586.98	2125.25
587.34	2120.68
587.69	2115.65
588.04	2110.25
588.39	2104.52
588.74	2098.20
589.09	2092.07
589.44	2085.31
589.79	2079.38
590.14	2073.82
590.49	2067.21
590.84	2060.97
591.19	2055.06
591.54	2048.56
591.89	2041.25
592.25	2034.30
592.60	2027.11
592.95	2019.30
593.30	2011.78
593.65	2004.29
594.00	1997.17
594.35	1989.97
594.70	1981.82
595.05	1974.59
595.40	1967.39
595.75	1959.91
596.10	1953.50
596.45	1946.73
596.80	1940.53
597.15	1933.84
597.50	1926.61
597.85	1920.14
598.19	1913.41
598.54	1906.20
598.89	1899.58
599.24	1893.57
599.59	1886.83
599.94	1880.70
600.29	1874.43
600.64	1868.00
600.99	1860.51
601.34	1853.78
601.69	1846.78
602.04	1840.04
602.39	1832.71
602.74	1825.80
603.08	1818.94
603.43	1812.34
603.78	1805.00
604.13	1797.81
604.48	1790.45
604.83	1783.60
605.18	1776.67
605.53	1768.75
605.87	1760.85
606.22	1753.64
606.57	1745.68
606.92	1738.47
607.27	1731.23
607.62	1724.35
607.96	1717.10
608.31	1710.55
608.66	1702.83
609.01	1695.28
609.36	1687.64
609.70	1679.59
610.05	1671.40
610.40	1663.72
610.75	1655.20
611.10	1647.58
611.44	1639.14
611.79	1631.19
612.14	1622.53
612.49	1613.33
612.83	1604.93
613.18	1596.75
613.53	1588.62
613.88	1580.10
614.22	1571.76
614.57	1563.20
614.92	1555.19
615.27	1547.56
615.61	1539.12
615.96	1531.21
616.31	1523.70
616.65	1516.29
617.00	1508.76
617.35	1501.20
617.70	1492.87
618.04	1484.46
618.39	1476.17
618.74	1468.54
619.08	1460.31
619.43	1452.71
619.78	1445.87
620.12	1438.74
620.47	1431.18
620.82	1423.13
621.16	1415.78
621.51	1408.24
621.85	1400.66
622.20	1392.09
622.55	1383.79
622.89	1376.03
623.24	1368.42
623.59	1360.96
623.93	1353.49
624.28	1346.31
624.62	1338.79
624.97	1331.75
625.32	1325.21
625.66	1318.14
626.01	1311.07
626.35	1303.55
626.70	1295.87
627.04	1288.11
627.39	1280.29
627.73	1272.88
628.08	1265.79
628.43	1258.43
628.77	1251.04
629.12	1243.46
629.46	1236.38
629.81	1228.95
630.15	1221.72
630.50	1214.32
630.84	1206.14
631.19	1198.19
631.53	1190.55
631.88	1183.04
632.22	1175.26
632.57	1167.83
632.91	1160.29
633.26	1152.71
633.60	1145.30
633.95	1138.18
634.29	1131.11
634.64	1124.41
634.98	1117.06
635.32	1109.97
635.67	1103.41
636.01	1096.69
636.36	1089.84
636.70	1083.23
637.05	1076.66
637.39	1070.22
637.73	1063.62
638.08	1057.69
638.42	1051.74
638.77	1045.49
639.11	1038.88
639.45	1032.56
639.80	1025.80
640.14	1019.44
640.49	1012.98
640.83	1006.71
641.17	1000.45
641.52	994.05
641.86	987.63
642.20	981.72
642.55	975.41
642.89	968.85
643.23	962.28
643.58	956.47
643.92	950.31
644.26	944.18
644.61	938.13
644.95	932.12
645.29	925.45
645.64	918.62
645.98	912.14
646.32	906.30
646.66	900.21
647.01	894.44
647.35	888.71
647.69	882.85
648.04	877.34
648.38	871.52
648.72	865.57
649.06	859.50
649.41	853.68
649.75	847.75
650.09	841.78
650.43	836.06
650.78	829.93
651.12	824.02
651.46	818.28
651.80	812.51
652.14	807.07
652.49	801.73
652.83	796.57
653.17	790.94
653.51	785.24
653.85	779.88
654.20	774.36
654.54	768.35
654.88	762.59
655.22	756.69
655.56	751.06
655.90	745.65
656.25	740.43
656.59	735.04
656.93	729.94
657.27	724.92
657.61	719.49
657.95	714.46
658.29	709.37
658.64	704.14
658.98	698.84
659.32	693.39
659.66	688.17
660.00	682.89
660.34	677.96
660.68	673.04
661.02	668.02
661.36	663.21
661.70	658.73
662.05	654.38
662.39	650.01
662.73	645.51
663.07	641.12
663.41	636.68
663.75	632.22
664.09	627.63
664.43	623.20
664.77	619.07
665.11	614.82
665.45	610.69
665.79	606.63
666.13	602.55
666.47	598.56
666.81	594.42
667.15	590.31
667.49	586.49
667.83	582.67
668.17	578.68
668.51	574.54
668.85	570.53
669.19	566.69
669.53	562.92
669.87	559.02
670.21	555.35
670.55	551.68
670.89	548.28
671.23	544.86
671.57	541.30
671.91	537.70
672.25	534.18
672.58	530.56
672.92	527.15
673.26	523.89
673.60	520.66
673.94	517.53
674.28	514.62
674.62	511.61
674.96	508.47
675.30	505.61
675.64	502.75
675.97	499.94
676.31	497.11
676.65	494.16
676.99	491.44
677.33	488.56
677.67	485.73
678.01	482.69
678.34	479.72
678.68	476.88
679.02	474.07
679.36	471.31
679.70	468.70
680.04	465.94
680.37	463.10
680.71	460.30
681.05	457.68
681.39	454.99
681.73	452.35
682.06	449.84
682.40	447.32
682.74	444.80
683.08	442.31
683.42	439.67
683.75	437.19
684.09	434.66
684.43	432.17
684.77	429.68
685.10	427.29
685.44	424.97
685.78	422.68
686.12	420.50
686.45	418.19
686.79	415.88
687.13	413.70
687.46	411.49
687.80	409.42
688.14	407.25
688.48	405.19
688.81	402.91
689.15	400.76
689.49	398.57
689.82	396.51
690.16	394.42
690.50	392.51
690.83	390.59
691.17	388.63
691.51	386.70
691.84	384.87
692.18	382.93
692.52	380.98
692.85	379.02
693.19	377.12
693.52	375.27
693.86	373.43
694.20	371.65
694.53	369.86
694.87	368.00
695.21	366.21
695.54	364.38
695.88	362.69
696.21	360.92
696.55	359.24
696.88	357.53
697.22	355.87
697.56	354.24
697.89	352.55
698.23	350.92
698.56	349.31
698.90	347.72
699.23	346.10
699.57	344.54
699.90	343.03
700.24	341.47
700.58	339.93
700.91	338.46
701.25	337.02
701.58	335.66
701.92	334.27
702.25	332.91
702.59	331.56
702.92	330.19
703.26	328.91
703.59	327.60
703.93	326.42
704.26	325.16
704.60	323.84
704.93	322.59
705.26	321.35
705.60	320.19
705.93	319.02
706.27	317.98
706.60	316.94
706.94	315.87
707.27	314.77
707.61	313.74
707.94	312.73
708.27	311.64
708.61	310.57
708.94	309.57
709.28	308.58
709.61	307.61
709.94	306.71
710.28	305.73
710.61	304.78
710.95	303.67
711.28	302.74
711.61	301.80
711.95	300.89
712.28	299.92
712.61	298.94
712.95	298.03
713.28	297.14
713.61	296.23
713.95	295.34
714.28	294.45
714.61	293.61
714.95	292.77
715.28	291.89
715.61	291.01
715.95	290.16
716.28	289.32
716.61	288.47
716.95	287.63
717.28	286.87
717.61	286.10
717.94	285.42
718.28	284.64
718.61	283.95
718.94	283.26
719.27	282.63
719.61	282.00
719.94	281.35
720.27	280.62
720.60	279.94
720.94	279.29
721.27	278.73
721.60	278.12
721.93	277.51
722.27	276.98
722.60	276.45
722.93	275.85
723.26	275.30
723.59	274.76
723.93	274.21
724.26	273.68
724.59	273.15
724.92	272.59
725.25	272.13
725.59	271.59
725.92	271.06
726.25	270.55
726.58	270.05
726.91	269.56
727.24	269.10
727.57	268.63
727.91	268.12
728.24	267.66
728.57	267.14
728.90	266.70
729.23	266.17
729.56	265.71
729.89	265.27
730.22	264.80
730.55	264.35
730.89	263.87
731.22	263.42
731.55	262.97
731.88	262.56
732.21	262.12
732.54	261.68
732.87	261.29
733.20	260.91
733.53	260.52
733.86	260.12
734.19	259.71
734.52	259.34
734.85	259.05
735.18	258.60
735.51	258.28
735.84	257.91
736.17	257.60
736.50	257.20
736.83	256.94
737.16	256.57
737.49	256.23
737.82	255.87
738.15	255.54
738.48	255.20
738.81	254.86
739.14	254.49
739.47	254.19
739.80	253.84
740.13	253.51
740.46	253.20
740.79	252.90
741.12	252.61
741.45	252.28
741.78	251.92
742.11	251.66
742.44	251.33
742.77	251.03
743.10	250.69
743.43	250.43
743.75	250.08
744.08	249.94
744.41	249.62
744.74	249.39
745.07	249.09
745.40	248.84
745.73	248.58
746.06	248.36
746.39	248.12
746.71	247.86
747.04	247.58
747.37	247.32
747.70	247.06
748.03	246.80
748.36	246.60
748.68	246.35
749.01	246.10
749.34	245.90
749.67	245.69
750.00	245.49
750.33	245.31
750.65	245.08
750.98	244.74
751.31	244.58
751.64	244.35
751.97	244.19
752.29	243.97
752.62	243.74
752.95	243.51
753.28	243.27
753.60	243.07
753.93	242.87
754.26	242.68
754.59	242.47
754.91	242.26
755.24	242.06
755.57	241.86
755.90	241.72
756.22	241.53
756.55	241.31
756.88	241.11
757.20	240.89
757.53	240.70
757.86	240.53
758.19	240.36
758.51	240.20
758.84	239.98
759.17	239.80
759.49	239.62
759.82	239.49
760.15	239.37
760.47	239.24
760.80	239.06
761.13	238.89
761.45	238.72
761.78	238.58
762.11	238.44
762.43	238.29
762.76	238.12
763.08	237.97
763.41	237.81
763.74	237.66
764.06	237.48
764.39	237.38
764.71	237.25
765.04	237.12
765.37	236.99
765.69	236.89
766.02	236.82
766.34	236.70
766.67	236.56
767.00	236.45
767.32	236.35
767.65	236.31
767.97	236.21
768.30	236.10
768.62	235.99
768.95	235.89
769.27	235.80
769.60	235.71
769.92	235.61
770.25	235.52
770.57	235.44
770.90	235.34
771.22	235.19
771.55	235.09
771.87	235.03
772.20	234.94
772.52	234.91
772.85	234.91
773.17	234.81
773.50	234.71
773.82	234.59
774.15	234.46
774.47	234.32
774.80	234.22
775.12	234.15
775.45	234.03
775.77	233.93
776.09	233.85
776.42	233.74
776.74	233.67
777.07	233.59
777.39	233.51
777.72	233.49
778.04	233.44
778.36	233.34
778.69	233.25
779.01	233.17
779.33	233.04
779.66	232.85
779.98	232.82
780.31	232.73
780.63	232.70
780.95	232.64
781.28	232.55
781.60	232.49
781.92	232.45
782.25	232.44
782.57	232.36
782.89	232.28
783.22	232.22
783.54	232.17
783.86	232.12
784.19	232.07
784.51	232.02
784.83	231.96
785.16	231.93
785.48	231.88
785.80	231.86
786.12	231.78
786.45	231.75
786.77	231.70
787.09	231.67
787.42	231.59
787.74	231.56
788.06	231.58
788.38	231.54
788.71	231.47
789.03	231.41
789.35	231.39
789.67	231.36
789.99	231.34
790.32	231.29
790.64	231.27
790.96	231.26
791.28	231.17
791.61	231.12
791.93	231.08
792.25	231.01
792.57	231.02
792.89	230.97
793.21	230.93
793.54	230.86
793.86	230.82
794.18	230.79
794.50	230.74
794.82	230.68
795.14	230.62
795.47	230.61
795.79	230.58
796.11	230.50
796.43	230.45
796.75	230.44
797.07	230.40
797.39	230.33
797.71	230.25
798.04	230.22
798.36	230.18
798.68	230.14
799.00	230.16
799.32	230.10
799.64	230.10
799.96	230.06
800.28	230.06
800.60	230.01
800.92	229.96
801.24	229.92
801.56	229.86
801.89	229.83
802.21	229.80
802.53	229.74
802.85	229.77
803.17	229.78
803.49	229.71
803.81	229.68
804.13	229.64
804.45	229.65
804.77	229.64
805.09	229.65
805.41	229.59
805.73	229.53
806.05	229.48
806.37	229.43
806.69	229.41
807.01	229.41
807.33	229.42
807.65	229.40
807.97	229.43
808.28	229.42
808.60	229.41
808.92	229.37
809.24	229.43
809.56	229.38
809.88	229.32
810.20	229.31
810.52	229.29
810.84	229.29
811.16	229.24
811.48	229.21
811.80	229.24
812.12	229.22
812.43	229.18
812.75	229.15
813.07	229.12
813.39	229.11
813.71	229.04
814.03	229.00
814.35	228.98
814.67	228.93
814.98	228.88
815.30	228.86
815.62	228.83
815.94	228.78
816.26	228.84
816.58	228.83
816.89	228.80
817.21	228.76
817.53	228.77
817.85	228.75
818.17	228.70
818.48	228.63
818.80	228.66
819.12	228.62
819.44	228.62
819.76	228.62
820.07	228.57
820.39	228.57
820.71	228.55
821.03	228.51
821.34	228.51
821.66	228.53
821.98	228.50
822.30	228.50
822.61	228.50
822.93	228.42
823.25	228.39
823.57	228.35
823.88	228.35
824.20	228.30
824.52	228.29
824.83	228.31
825.15	228.30
825.47	228.26
825.79	228.28
826.10	228.24
826.42	228.20
826.74	228.22
827.05	228.21
827.37	228.25
827.69	228.26
828.00	228.23
828.32	228.21
828.64	228.22
828.95	228.21
829.27	228.18
829.58	228.17
829.90	228.17
830.22	228.18
830.53	228.17
830.85	228.15
831.17	228.12
831.48	228.12
831.80	228.11
832.11	228.07
832.43	228.04
832.75	228.01
833.06	228.05
833.38	228.02
833.69	227.99
834.01	227.92
834.32	227.90
834.64	227.89
834.96	227.85
835.27	227.84
835.59	227.83
835.90	227.79
836.22	227.80
836.53	227.80
836.85	227.80
837.16	227.89
837.48	227.87
837.79	227.91
838.11	227.91
838.42	227.90
838.74	227.92
839.05	227.92
839.37	227.95
839.68	227.88
840.00	227.84
840.31	227.86
840.63	227.88
840.94	227.84
841.26	227.80
841.57	227.81
841.88	227.80
842.20	227.78
842.51	227.78
842.83	227.76
843.14	227.84
843.46	227.82
843.77	227.75
844.08	227.75
844.40	227.73
844.71	227.70
845.03	227.67
845.34	227.63
845.65	227.59
845.97	227.57
846.28	227.56
846.60	227.58
846.91	227.54
847.22	227.52
847.54	227.54
847.85	227.55
848.16	227.55
848.48	227.52
848.79	227.54
849.10	227.58
849.42	227.55
849.73	227.43
850.04	227.39
850.36	227.37
850.67	227.39
850.98	227.38
851.30	227.37
851.61	227.35
851.92	227.38
852.23	227.39
852.55	227.39
852.86	227.41
853.17	227.39
853.49	227.41
853.80	227.39
854.11	227.44
854.42	227.46
854.74	227.43
855.05	227.42
855.36	227.36
855.67	227.31
855.99	227.30
856.30	227.45
856.61	227.46
856.92	227.44
857.23	227.43
857.55	227.39
857.86	227.38
858.17	227.43
858.48	227.38
858.79	227.40
859.11	227.41
859.42	227.42
859.73	227.43
860.04	227.43
860.35	227.45
860.66	227.39
860.98	227.39
861.29	227.42
861.60	227.42
861.91	227.47
862.22	227.46
862.53	227.49
862.84	227.32
863.16	227.33
863.47	227.33
863.78	227.32
864.09	227.35
864.40	227.37
864.71	227.34
865.02	227.36
865.33	227.33
865.64	227.32
865.95	227.30
866.27	227.38
866.58	227.35
866.89	227.36
867.20	227.38
867.51	227.33
867.82	227.34
868.13	227.37
868.44	227.31
868.75	227.36
869.06	227.32
869.37	227.38
869.68	227.40
869.99	227.42
870.30	227.44
870.61	227.45
870.92	227.43
871.23	227.46
871.54	227.47
871.85	227.54
872.16	227.54
872.47	227.54
872.78	227.46
873.09	227.50
873.40	227.48
873.71	227.47
874.02	227.50
874.33	227.46
874.64	227.44
874.95	227.47
875.26	227.40
875.56	227.42
875.87	227.42
876.18	227.38
876.49	227.49
876.80	227.47
877.11	227.46
877.42	227.45
877.73	227.42
878.04	227.39
878.35	227.35
878.66	227.35
878.96	227.33
879.27	227.32
879.58	227.27
879.89	227.25
880.20	227.24
880.51	227.22
880.82	227.21
881.12	227.18
881.43	227.17
881.74	227.17
882.05	227.14
882.36	227.15
882.67	227.16
882.97	227.00
883.28	226.98
883.59	226.97
883.90	226.98
884.21	226.99
884.51	227.01
884.82	226.98
885.13	226.96
885.44	226.95
885.74	226.95
886.05	226.96
886.36	226.98
886.67	226.94
886.98	226.98
887.28	227.03
887.59	227.05
887.90	227.04
888.20	227.05
888.51	227.08
888.82	227.05
889.13	227.03
889.43	227.12
889.74	227.10
890.05	227.09
890.35	227.10
890.66	227.10
890.97	227.06
891.28	227.05
891.58	227.08
891.89	227.12
892.20	227.08
892.50	227.07
892.81	227.06
893.12	227.10
893.42	227.07
893.73	227.03
894.04	227.03
894.34	227.03
894.65	227.04
894.95	227.00
895.26	227.01
895.57	227.08
895.87	226.99
896.18	227.04
896.48	227.06
896.79	227.05
897.10	227.08
897.40	227.08
897.71	227.14
898.01	227.10
898.32	227.10
898.63	227.11
898.93	227.13
899.24	227.16
899.54	227.18
899.85	227.15
900.15	227.16
900.46	227.19
900.76	227.23
901.07	227.25
901.38	227.27
901.68	227.26
901.99	227.18
902.29	227.20
902.60	227.16
902.90	227.14
903.21	227.13
903.51	227.09
903.82	227.10
904.12	227.09
904.43	227.14
904.73	227.12
905.03	227.13
905.34	227.20
905.64	227.18
905.95	227.14
906.25	227.16
906.56	227.16
906.86	227.12
907.17	227.08
907.47	227.06
907.77	227.05
908.08	227.05
908.38	227.06
908.69	227.09
908.99	227.12
909.30	227.14
909.60	227.17
909.90	227.19
910.21	227.20
910.51	227.18
910.81	227.11
911.12	227.09
911.42	227.11
911.73	227.06
912.03	227.03
912.33	227.07
912.64	227.06
912.94	227.08
913.24	227.09
913.55	227.07
913.85	227.09
914.15	227.10
914.46	227.11
914.76	227.08
915.06	227.05
915.37	227.04
915.67	227.05
915.97	227.02
916.27	226.98
916.58	226.96
916.88	226.94
917.18	226.95
917.49	227.03
917.79	226.99
918.09	226.96
918.39	227.02
918.70	227.00
919.00	227.00
919.30	227.02
919.60	227.01
919.91	227.02
920.21	226.96
920.51	226.96
920.81	226.93
921.12	226.95
921.42	226.94
921.72	226.93
922.02	226.89
922.32	226.90
922.63	226.91
922.93	226.93
923.23	226.91
923.53	226.93
923.83	226.85
924.13	226.85
924.44	226.85
924.74	226.85
925.04	226.86
925.34	226.85
925.64	226.81
925.94	226.79
926.24	226.84
926.55	226.85
926.85	226.84
927.15	226.84
927.45	226.83
927.75	226.82
928.05	226.79
928.35	226.77
928.65	226.78
928.95	226.79
929.26	226.77
929.56	226.78
929.86	226.79
930.16	226.79
930.46	226.80
930.76	226.76
931.06	226.70
931.36	226.68
931.66	226.68
931.96	226.70
932.26	226.73
932.56	226.69
932.86	226.72
933.16	226.71
933.46	226.72
933.76	226.73
934.06	226.78
934.36	226.86
934.66	226.89
934.96	226.91
935.26	226.92
935.56	226.95
935.86	226.94
936.16	226.96
936.46	227.00
936.76	227.00
937.06	227.03
937.36	227.04
937.66	227.06
937.96	227.08
938.26	227.05
938.56	227.02
938.86	227.03
939.16	227.06
939.46	227.09
939.76	227.11
940.06	227.13
940.35	227.12
940.65	227.07
940.95	227.08
941.25	227.06
941.55	227.05
941.85	227.03
942.15	227.08
942.45	227.07
942.75	227.03
943.04	227.05
943.34	227.07
943.64	227.08
943.94	227.07
944.24	227.05
944.54	227.06
944.84	227.10
945.13	227.11
945.43	227.10
945.73	227.08
946.03	227.08
946.33	227.08
946.62	227.08
946.92	227.07
947.22	227.11
947.52	227.10
947.82	227.14
948.11	227.13
948.41	227.14
948.71	227.13
949.01	227.15
949.31	227.11
949.60	227.12
949.90	227.15
950.20	227.15
950.50	227.19
950.79	227.18
951.09	227.16
951.39	227.11
951.69	227.12
951.98	227.15
952.28	227.15
952.58	227.13
952.87	227.09
953.17	227.11
953.47	227.08
953.76	227.09
954.06	227.06
954.36	227.08
954.66	227.06
954.95	227.06
955.25	227.08
955.55	227.12
955.84	227.10
956.14	227.09
956.44	227.10
956.73	227.04
957.03	227.05
957.32	227.05
957.62	227.05
957.92	227.04
958.21	226.98
958.51	227.06
958.81	227.08
959.10	227.10
959.40	227.10
959.69	227.05
959.99	227.07
960.29	227.04
960.58	226.99
960.88	227.02
961.17	227.02
961.47	226.98
961.76	226.97
962.06	226.97
962.36	227.00
962.65	226.97
962.95	226.99
963.24	226.95
963.54	226.96
963.83	226.94
964.13	226.92
964.42	226.94
964.72	226.86
965.01	226.82
965.31	226.80
965.60	226.77
965.90	226.83
966.19	226.77
966.49	226.78
966.78	226.78
967.08	226.76
967.37	226.72
967.67	226.71
967.96	226.73
968.26	226.70
968.55	226.67
968.85	226.65
969.14	226.65
969.43	226.67
969.73	226.66
970.02	226.66
970.32	226.68
970.61	226.65
970.91	226.64
971.20	226.63
971.49	226.60
971.79	226.61
972.08	226.55
972.38	226.54
972.67	226.53
972.96	226.54
973.26	226.50
973.55	226.55
973.85	226.55
974.14	226.52
974.43	226.53
974.73	226.48
975.02	226.50
975.31	226.49
975.61	226.50
975.90	226.46
976.19	226.47
976.49	226.45
976.78	226.45
977.07	226.45
977.37	226.47
977.66	226.49
977.95	226.46
978.24	226.49
978.54	226.55
978.83	226.55
979.12	226.59
979.42	226.62
979.71	226.61
980.00	226.63
980.29	226.64
980.59	226.64
980.88	226.69
981.17	226.71
981.46	226.73
981.76	226.73
982.05	226.81
982.34	226.84
982.63	226.85
982.93	226.90
983.22	226.92
983.51	226.96
983.80	226.97
984.09	227.01
984.39	227.00
984.68	226.99
984.97	227.03
985.26	227.01
985.55	227.02
985.85	227.01
986.14	227.02
986.43	227.03
986.72	227.04
987.01	227.01
987.30	226.99
987.59	226.99
987.89	226.98
988.18	226.92
988.47	226.90
988.76	226.91
989.05	226.86
989.34	226.86
989.63	226.87
989.92	226.88
990.22	226.89
990.51	226.90
990.80	226.85
991.09	226.83
991.38	226.85
991.67	226.83
991.96	226.80
992.25	226.79
992.54	226.78
992.83	226.77
993.12	226.77
993.41	226.80
993.70	226.80
993.99	226.81
994.28	226.82
994.58	226.81
994.87	226.79
995.16	226.79
995.45	226.75
995.74	226.68
996.03	226.68
996.32	226.65
996.61	226.63
996.90	226.69
997.19	226.69
997.48	226.70
997.77	226.65
998.06	226.66
998.34	226.62
998.63	226.61
998.92	226.59
999.21	226.58
999.50	226.55
999.79	226.51
1000.08	226.51
1000.37	226.52
1000.66	226.48
1000.95	226.49
1001.24	226.49
1001.53	226.52
1001.82	226.51
1002.11	226.46
1002.40	226.46
1002.68	226.47
1002.97	226.51
1003.26	226.51
1003.55	226.47
1003.84	226.50
1004.13	226.51
1004.42	226.54
1004.71	226.52
1004.99	226.51
1005.28	226.55
1005.57	226.54
1005.86	226.53
1006.15	226.52
1006.44	226.52
1006.72	226.55
1007.01	226.54
1007.30	226.53
1007.59	226.50
1007.88	226.51
1008.17	226.55
1008.45	226.54
1008.74	226.50
1009.03	226.45
1009.32	226.39
1009.60	226.39
1009.89	226.36
1010.18	226.34
1010.47	226.35
1010.76	226.35
1011.04	226.38
1011.33	226.46
1011.62	226.49
1011.91	226.52
1012.19	226.49
1012.48	226.50
1012.77	226.51
1013.05	226.58
1013.34	226.60
1013.63	226.62
1013.92	226.65
1014.20	226.65
1014.49	226.66
1014.78	226.70
1015.06	226.67
1015.35	226.71
1015.64	226.73
1015.92	226.77
1016.21	226.78
1016.50	226.76
1016.78	226.82
1017.07	226.83
1017.36	226.73
1017.64	226.69
1017.93	226.71
1018.22	226.73
1018.50	226.71
1018.79	226.73
1019.08	226.67
1019.36	226.68
1019.65	226.70
1019.93	226.73
1020.22	226.72
1020.51	226.79
1020.79	226.78
1021.08	226.76
1021.36	226.28
1021.65	226.99
1021.94	226.68
1022.22	226.83
1022.51	227.29
1022.79	227.13
1023.08	226.64
1023.36	228.17
1023.65	226.67
>>>>>End Processed Spectral Data<<<<<
