SpectraSuite Data File
++++++++++++++++++++++++++++++++++++
Date: Fri Feb 01 15:24:31 EST 2013
User: group
Dark Spectrum Present: No
Reference Spectrum Present: No
Number of Sampled Component Spectra: 1
Spectrometers: USB2E7196
Integration Time (usec): 35000 (USB2E7196)
Spectra Averaged: 100 (USB2E7196)
Boxcar Smoothing: 10 (USB2E7196)
Correct for Electrical Dark: No (USB2E7196)
Strobe/Lamp Enabled: No (USB2E7196)
Correct for Detector Non-linearity: No (USB2E7196)
Correct for Stray Light: No (USB2E7196)
Number of Pixels in Processed Spectrum: 2048
>>>>>Begin Processed Spectral Data<<<<<
339.09	0.00
339.48	215.06
339.86	216.84
340.24	218.00
340.63	219.58
341.01	222.27
341.39	222.14
341.78	223.10
342.16	224.75
342.54	225.62
342.93	213.71
343.31	224.51
343.69	225.06
344.07	225.54
344.46	225.98
344.84	226.38
345.22	226.62
345.60	226.90
345.99	227.11
346.37	227.25
346.75	227.34
347.13	227.41
347.52	227.44
347.90	227.52
348.28	227.50
348.66	227.53
349.05	227.54
349.43	227.56
349.81	227.61
350.19	227.67
350.57	227.72
350.96	227.77
351.34	227.84
351.72	227.91
352.10	227.98
352.48	228.03
352.87	228.08
353.25	228.12
353.63	228.15
354.01	228.23
354.39	228.29
354.77	228.34
355.15	228.43
355.54	228.51
355.92	228.55
356.30	228.61
356.68	228.74
357.06	228.81
357.44	228.85
357.82	228.91
358.20	228.95
358.58	229.02
358.97	229.03
359.35	229.07
359.73	229.15
360.11	229.18
360.49	229.23
360.87	229.23
361.25	229.29
361.63	229.36
362.01	229.37
362.39	229.36
362.77	229.38
363.15	229.38
363.53	229.42
363.91	229.43
364.29	229.45
364.67	229.36
365.05	229.37
365.43	229.38
365.81	229.37
366.19	229.39
366.57	229.40
366.95	229.41
367.33	229.42
367.71	229.39
368.09	229.38
368.47	229.34
368.85	229.35
369.23	229.33
369.61	229.27
369.99	229.25
370.37	229.27
370.75	229.28
371.13	229.19
371.51	229.08
371.89	229.05
372.27	228.99
372.65	228.94
373.03	228.88
373.41	228.79
373.78	228.74
374.16	228.64
374.54	228.53
374.92	228.45
375.30	228.36
375.68	228.28
376.06	228.24
376.44	228.17
376.82	228.09
377.19	228.02
377.57	227.95
377.95	227.85
378.33	227.74
378.71	227.60
379.09	227.58
379.47	227.57
379.84	227.49
380.22	227.44
380.60	227.37
380.98	227.28
381.36	227.26
381.73	227.19
382.11	227.17
382.49	227.09
382.87	227.03
383.25	227.00
383.62	227.04
384.00	226.96
384.38	226.94
384.76	226.90
385.13	226.85
385.51	226.79
385.89	226.76
386.27	226.73
386.64	226.72
387.02	226.67
387.40	226.63
387.78	226.56
388.15	226.52
388.53	226.48
388.91	226.46
389.29	226.44
389.66	226.50
390.04	226.47
390.42	226.48
390.79	226.47
391.17	226.45
391.55	226.39
391.92	226.38
392.30	226.37
392.68	226.35
393.05	226.38
393.43	226.41
393.81	226.41
394.18	226.44
394.56	226.47
394.94	226.50
395.31	226.49
395.69	226.57
396.06	226.63
396.44	226.69
396.82	226.72
397.19	226.81
397.57	226.78
397.95	226.84
398.32	226.89
398.70	226.96
399.07	227.06
399.45	227.11
399.82	227.20
400.20	227.28
400.58	227.39
400.95	227.45
401.33	227.55
401.70	227.71
402.08	227.81
402.45	227.88
402.83	228.03
403.20	228.16
403.58	228.26
403.95	228.39
404.33	228.52
404.71	228.67
405.08	228.86
405.46	229.00
405.83	229.15
406.21	229.30
406.58	229.47
406.96	229.62
407.33	229.80
407.70	230.02
408.08	230.27
408.45	230.49
408.83	230.68
409.20	230.89
409.58	231.07
409.95	231.33
410.33	231.61
410.70	231.85
411.08	232.16
411.45	232.49
411.82	232.78
412.20	233.15
412.57	233.57
412.95	233.85
413.32	234.26
413.69	234.69
414.07	235.14
414.44	235.62
414.82	236.11
415.19	236.64
415.56	237.15
415.94	237.70
416.31	238.33
416.68	239.00
417.06	239.73
417.43	240.43
417.81	241.22
418.18	242.00
418.55	242.84
418.93	243.71
419.30	244.56
419.67	245.49
420.04	246.40
420.42	247.40
420.79	248.59
421.16	249.74
421.54	250.90
421.91	252.10
422.28	253.38
422.66	254.67
423.03	256.01
423.40	257.33
423.77	258.76
424.15	260.19
424.52	261.67
424.89	263.28
425.26	264.81
425.64	266.26
426.01	267.84
426.38	269.50
426.75	271.16
427.13	272.90
427.50	274.72
427.87	276.63
428.24	278.50
428.61	280.26
428.99	282.23
429.36	284.37
429.73	286.43
430.10	288.42
430.47	290.50
430.85	292.60
431.22	294.88
431.59	297.22
431.96	299.49
432.33	301.99
432.70	304.35
433.08	307.18
433.45	309.82
433.82	312.47
434.19	315.36
434.56	318.19
434.93	320.85
435.30	323.53
435.68	326.44
436.05	329.26
436.42	332.04
436.79	334.55
437.16	337.23
437.53	340.04
437.90	342.84
438.27	345.57
438.64	348.41
439.01	351.02
439.38	353.30
439.75	355.46
440.13	357.96
440.50	360.27
440.87	362.15
441.24	364.10
441.61	366.26
441.98	367.73
442.35	369.56
442.72	371.41
443.09	373.21
443.46	374.20
443.83	374.78
444.20	375.33
444.57	376.18
444.94	376.50
445.31	376.83
445.68	377.21
446.05	377.36
446.42	376.98
446.79	376.53
447.16	376.10
447.53	375.80
447.90	374.66
448.27	373.54
448.64	371.90
449.01	370.76
449.37	368.77
449.74	366.85
450.11	364.56
450.48	362.13
450.85	359.56
451.22	357.37
451.59	355.38
451.96	353.41
452.33	350.76
452.70	348.37
453.07	345.62
453.43	342.71
453.80	339.89
454.17	337.20
454.54	334.66
454.91	331.90
455.28	329.21
455.65	326.67
456.02	324.22
456.38	322.10
456.75	319.46
457.12	317.17
457.49	315.01
457.86	312.85
458.23	311.00
458.59	308.99
458.96	306.90
459.33	305.01
459.70	303.10
460.07	301.62
460.43	299.90
460.80	298.21
461.17	296.80
461.54	295.24
461.91	293.78
462.27	292.31
462.64	291.07
463.01	289.70
463.38	288.45
463.74	287.08
464.11	285.88
464.48	284.79
464.85	283.71
465.21	282.79
465.58	281.84
465.95	280.73
466.32	279.78
466.68	278.90
467.05	277.99
467.42	277.11
467.78	276.17
468.15	275.31
468.52	274.62
468.88	273.75
469.25	273.00
469.62	272.39
469.98	271.72
470.35	271.03
470.72	270.40
471.08	269.73
471.45	269.17
471.82	268.60
472.18	268.04
472.55	267.60
472.92	267.09
473.28	266.62
473.65	266.15
474.02	265.70
474.38	265.31
474.75	265.02
475.11	264.65
475.48	264.37
475.85	264.09
476.21	263.89
476.58	263.66
476.94	263.54
477.31	263.35
477.67	263.18
478.04	263.08
478.41	263.02
478.77	263.04
479.14	263.01
479.50	263.04
479.87	263.08
480.23	263.14
480.60	263.21
480.96	263.29
481.33	263.50
481.69	263.70
482.06	263.91
482.42	264.06
482.79	264.33
483.15	264.67
483.52	265.04
483.88	265.38
484.25	265.80
484.61	266.20
484.98	266.64
485.34	267.24
485.71	267.85
486.07	268.44
486.44	269.02
486.80	269.70
487.17	270.42
487.53	271.25
487.90	272.10
488.26	273.02
488.62	274.01
488.99	275.00
489.35	276.07
489.72	277.19
490.08	278.40
490.44	279.66
490.81	280.99
491.17	282.36
491.54	283.89
491.90	285.41
492.26	287.07
492.63	288.83
492.99	290.59
493.36	292.45
493.72	294.50
494.08	296.60
494.45	298.82
494.81	301.20
495.17	303.61
495.54	306.17
495.90	308.86
496.26	311.68
496.63	314.65
496.99	317.75
497.35	321.01
497.72	324.43
498.08	327.93
498.44	331.58
498.80	335.46
499.17	339.44
499.53	343.58
499.89	347.94
500.26	352.41
500.62	357.12
500.98	362.11
501.34	367.21
501.71	372.53
502.07	377.99
502.43	383.61
502.79	389.46
503.16	395.55
503.52	401.82
503.88	408.19
504.24	414.74
504.60	421.61
504.97	428.75
505.33	436.06
505.69	443.76
506.05	451.61
506.41	459.51
506.78	467.70
507.14	476.20
507.50	484.88
507.86	493.84
508.22	502.94
508.59	512.10
508.95	521.66
509.31	531.42
509.67	541.50
510.03	551.75
510.39	562.29
510.75	573.08
511.12	583.98
511.48	595.33
511.84	606.84
512.20	618.38
512.56	630.32
512.92	642.45
513.28	654.74
513.64	667.25
514.00	679.98
514.37	692.98
514.73	706.01
515.09	719.15
515.45	732.59
515.81	746.25
516.17	760.26
516.53	774.40
516.89	788.62
517.25	802.83
517.61	817.29
517.97	831.76
518.33	846.23
518.69	861.09
519.05	876.09
519.41	891.33
519.77	906.96
520.13	922.47
520.49	937.97
520.85	953.50
521.21	969.21
521.57	985.54
521.93	1001.27
522.29	1017.75
522.65	1033.94
523.01	1050.24
523.37	1066.28
523.73	1082.55
524.09	1098.74
524.45	1115.29
524.81	1131.93
525.17	1148.80
525.53	1165.74
525.89	1182.69
526.25	1199.54
526.61	1215.96
526.97	1232.68
527.33	1249.11
527.68	1265.75
528.04	1282.28
528.40	1298.99
528.76	1316.00
529.12	1332.60
529.48	1349.54
529.84	1365.69
530.20	1382.48
530.56	1399.55
530.91	1417.02
531.27	1433.81
531.63	1450.30
531.99	1466.78
532.35	1482.85
532.71	1498.77
533.07	1515.04
533.42	1530.86
533.78	1546.99
534.14	1563.27
534.50	1578.60
534.86	1594.76
535.21	1609.89
535.57	1625.89
535.93	1641.33
536.29	1656.23
536.65	1671.55
537.00	1686.55
537.36	1701.81
537.72	1716.40
538.08	1730.84
538.44	1744.71
538.79	1758.69
539.15	1772.46
539.51	1786.26
539.87	1800.63
540.22	1814.50
540.58	1828.50
540.94	1842.08
541.29	1855.08
541.65	1867.97
542.01	1881.36
542.37	1893.59
542.72	1906.08
543.08	1917.93
543.44	1930.58
543.79	1941.85
544.15	1952.77
544.51	1964.16
544.87	1975.19
545.22	1985.98
545.58	1996.19
545.94	2005.93
546.29	2015.85
546.65	2025.60
547.01	2034.84
547.36	2043.62
547.72	2052.13
548.07	2059.83
548.43	2068.01
548.79	2075.91
549.14	2083.39
549.50	2090.84
549.86	2098.75
550.21	2106.11
550.57	2113.28
550.92	2119.67
551.28	2126.83
551.64	2133.84
551.99	2140.58
552.35	2146.80
552.70	2153.01
553.06	2158.86
553.41	2165.27
553.77	2171.28
554.13	2177.50
554.48	2183.65
554.84	2189.05
555.19	2194.32
555.55	2199.53
555.90	2203.93
556.26	2208.94
556.61	2213.68
556.97	2217.85
557.32	2221.73
557.68	2226.05
558.03	2230.30
558.39	2234.14
558.74	2238.74
559.10	2242.68
559.45	2246.29
559.81	2250.58
560.16	2254.36
560.52	2257.70
560.87	2261.23
561.23	2263.84
561.58	2266.80
561.94	2269.29
562.29	2271.69
562.64	2274.30
563.00	2276.88
563.35	2280.42
563.71	2283.50
564.06	2286.68
564.42	2289.53
564.77	2292.01
565.12	2294.05
565.48	2295.79
565.83	2297.48
566.19	2298.71
566.54	2299.60
566.89	2300.69
567.25	2301.40
567.60	2302.63
567.96	2304.20
568.31	2304.90
568.66	2305.85
569.02	2306.30
569.37	2306.55
569.72	2307.45
570.08	2307.62
570.43	2307.67
570.78	2306.97
571.14	2305.44
571.49	2304.09
571.84	2303.83
572.20	2302.57
572.55	2301.38
572.90	2299.99
573.26	2298.52
573.61	2296.82
573.96	2294.94
574.31	2291.83
574.67	2288.51
575.02	2284.99
575.37	2281.58
575.72	2277.63
576.08	2274.51
576.43	2271.30
576.78	2267.67
577.13	2264.40
577.49	2261.14
577.84	2257.54
578.19	2253.73
578.54	2249.78
578.90	2245.54
579.25	2239.92
579.60	2234.85
579.95	2229.90
580.30	2224.67
580.66	2219.44
581.01	2214.37
581.36	2209.37
581.71	2204.93
582.06	2200.50
582.42	2195.90
582.77	2190.67
583.12	2186.00
583.47	2180.90
583.82	2175.64
584.17	2170.18
584.53	2164.62
584.88	2158.95
585.23	2153.09
585.58	2147.56
585.93	2142.11
586.28	2137.20
586.63	2131.97
586.98	2126.97
587.34	2122.38
587.69	2117.57
588.04	2112.29
588.39	2106.59
588.74	2100.08
589.09	2093.93
589.44	2087.08
589.79	2081.02
590.14	2075.21
590.49	2068.58
590.84	2062.26
591.19	2056.17
591.54	2049.71
591.89	2042.21
592.25	2035.39
592.60	2028.05
592.95	2020.31
593.30	2012.99
593.65	2005.37
594.00	1998.25
594.35	1990.85
594.70	1982.62
595.05	1975.18
595.40	1967.86
595.75	1960.33
596.10	1953.86
596.45	1947.05
596.80	1940.77
597.15	1933.95
597.50	1926.82
597.85	1920.49
598.19	1913.70
598.54	1906.53
598.89	1899.94
599.24	1894.06
599.59	1887.14
599.94	1881.04
600.29	1874.79
600.64	1868.22
600.99	1860.67
601.34	1853.73
601.69	1846.84
602.04	1839.85
602.39	1832.54
602.74	1825.72
603.08	1819.01
603.43	1812.42
603.78	1805.19
604.13	1797.98
604.48	1790.63
604.83	1783.86
605.18	1776.76
605.53	1768.80
605.87	1760.81
606.22	1753.46
606.57	1745.38
606.92	1738.16
607.27	1730.88
607.62	1723.91
607.96	1716.52
608.31	1709.81
608.66	1702.14
609.01	1694.43
609.36	1686.87
609.70	1678.82
610.05	1670.62
610.40	1662.69
610.75	1654.25
611.10	1646.49
611.44	1638.14
611.79	1630.17
612.14	1621.42
612.49	1612.39
612.83	1604.00
613.18	1595.81
613.53	1587.76
613.88	1579.32
614.22	1570.96
614.57	1562.36
614.92	1554.20
615.27	1546.63
615.61	1538.25
615.96	1530.35
616.31	1522.81
616.65	1515.51
617.00	1507.91
617.35	1500.42
617.70	1492.02
618.04	1483.56
618.39	1475.43
618.74	1467.70
619.08	1459.34
619.43	1451.81
619.78	1444.90
620.12	1437.75
620.47	1430.21
620.82	1421.98
621.16	1414.61
621.51	1407.03
621.85	1399.42
622.20	1391.00
622.55	1382.62
622.89	1374.77
623.24	1367.10
623.59	1359.76
623.93	1352.10
624.28	1344.82
624.62	1337.17
624.97	1330.02
625.32	1323.41
625.66	1316.28
626.01	1309.03
626.35	1301.63
626.70	1293.83
627.04	1285.89
627.39	1278.10
627.73	1270.68
628.08	1263.75
628.43	1256.35
628.77	1248.97
629.12	1241.33
629.46	1234.06
629.81	1226.65
630.15	1219.56
630.50	1212.15
630.84	1203.80
631.19	1196.02
631.53	1188.59
631.88	1180.99
632.22	1173.42
632.57	1165.96
632.91	1158.50
633.26	1151.18
633.60	1143.87
633.95	1136.74
634.29	1129.73
634.64	1123.08
634.98	1115.69
635.32	1108.59
635.67	1102.02
636.01	1095.43
636.36	1088.71
636.70	1082.35
637.05	1075.88
637.39	1069.34
637.73	1062.84
638.08	1057.11
638.42	1050.98
638.77	1044.51
639.11	1037.91
639.45	1031.58
639.80	1024.92
640.14	1018.48
640.49	1011.88
640.83	1005.62
641.17	999.44
641.52	993.12
641.86	986.68
642.20	980.88
642.55	974.67
642.89	968.22
643.23	961.68
643.58	955.90
643.92	949.68
644.26	943.59
644.61	937.63
644.95	931.59
645.29	924.93
645.64	918.21
645.98	911.89
646.32	906.12
646.66	900.09
647.01	894.29
647.35	888.57
647.69	882.85
648.04	877.30
648.38	871.54
648.72	865.61
649.06	859.57
649.41	853.67
649.75	847.64
650.09	841.67
650.43	835.78
650.78	829.57
651.12	823.71
651.46	817.93
651.80	812.10
652.14	806.69
652.49	801.37
652.83	796.27
653.17	790.58
653.51	784.84
653.85	779.44
654.20	773.80
654.54	767.85
654.88	762.13
655.22	756.20
655.56	750.50
655.90	745.05
656.25	739.76
656.59	734.41
656.93	729.28
657.27	724.07
657.61	718.72
657.95	713.72
658.29	708.50
658.64	703.32
658.98	698.06
659.32	692.60
659.66	687.30
660.00	681.97
660.34	677.00
660.68	672.15
661.02	667.13
661.36	662.45
661.70	657.90
662.05	653.49
662.39	649.18
662.73	644.76
663.07	640.37
663.41	636.01
663.75	631.59
664.09	627.06
664.43	622.77
664.77	618.71
665.11	614.40
665.45	610.32
665.79	606.25
666.13	602.13
666.47	598.11
666.81	593.98
667.15	589.89
667.49	586.05
667.83	582.20
668.17	578.30
668.51	574.20
668.85	570.22
669.19	566.42
669.53	562.60
669.87	558.66
670.21	554.95
670.55	551.26
670.89	547.73
671.23	544.32
671.57	540.74
671.91	537.17
672.25	533.68
672.58	530.16
672.92	526.73
673.26	523.59
673.60	520.44
673.94	517.39
674.28	514.51
674.62	511.59
674.96	508.49
675.30	505.57
675.64	502.70
675.97	499.98
676.31	497.05
676.65	494.08
676.99	491.39
677.33	488.57
677.67	485.79
678.01	482.84
678.34	479.82
678.68	477.01
679.02	474.18
679.36	471.43
679.70	468.69
680.04	465.92
680.37	463.03
680.71	460.18
681.05	457.55
681.39	454.79
681.73	452.11
682.06	449.59
682.40	447.01
682.74	444.51
683.08	441.95
683.42	439.40
683.75	436.94
684.09	434.42
684.43	431.95
684.77	429.42
685.10	427.08
685.44	424.84
685.78	422.60
686.12	420.39
686.45	418.12
686.79	415.85
687.13	413.72
687.46	411.56
687.80	409.40
688.14	407.18
688.48	405.19
688.81	402.96
689.15	400.82
689.49	398.77
689.82	396.70
690.16	394.61
690.50	392.65
690.83	390.76
691.17	388.78
691.51	386.89
691.84	385.09
692.18	383.17
692.52	381.13
692.85	379.15
693.19	377.24
693.52	375.44
693.86	373.65
694.20	371.88
694.53	370.10
694.87	368.31
695.21	366.57
695.54	364.74
695.88	363.05
696.21	361.35
696.55	359.64
696.88	357.96
697.22	356.33
697.56	354.70
697.89	353.03
698.23	351.42
698.56	349.84
698.90	348.25
699.23	346.61
699.57	345.09
699.90	343.59
700.24	342.12
700.58	340.58
700.91	339.03
701.25	337.56
701.58	336.17
701.92	334.87
702.25	333.49
702.59	332.12
702.92	330.71
703.26	329.39
703.59	328.09
703.93	326.89
704.26	325.63
704.60	324.37
704.93	323.09
705.26	321.86
705.60	320.66
705.93	319.55
706.27	318.49
706.60	317.47
706.94	316.36
707.27	315.20
707.61	314.14
707.94	313.18
708.27	312.06
708.61	310.98
708.94	309.92
709.28	308.95
709.61	307.99
709.94	307.06
710.28	306.05
710.61	305.08
710.95	304.02
711.28	303.14
711.61	302.17
711.95	301.24
712.28	300.29
712.61	299.31
712.95	298.31
713.28	297.43
713.61	296.49
713.95	295.60
714.28	294.77
714.61	293.90
714.95	293.02
715.28	292.22
715.61	291.33
715.95	290.49
716.28	289.60
716.61	288.75
716.95	287.99
717.28	287.26
717.61	286.50
717.94	285.77
718.28	284.95
718.61	284.24
718.94	283.57
719.27	282.91
719.61	282.25
719.94	281.61
720.27	280.87
720.60	280.23
720.94	279.59
721.27	279.00
721.60	278.46
721.93	277.86
722.27	277.31
722.60	276.79
722.93	276.19
723.26	275.66
723.59	275.09
723.93	274.51
724.26	273.96
724.59	273.38
724.92	272.82
725.25	272.34
725.59	271.81
725.92	271.27
726.25	270.78
726.58	270.27
726.91	269.77
727.24	269.31
727.57	268.86
727.91	268.38
728.24	267.87
728.57	267.38
728.90	266.94
729.23	266.40
729.56	265.96
729.89	265.52
730.22	265.05
730.55	264.59
730.89	264.16
731.22	263.72
731.55	263.31
731.88	262.88
732.21	262.44
732.54	262.00
732.87	261.60
733.20	261.19
733.53	260.86
733.86	260.54
734.19	260.15
734.52	259.78
734.85	259.45
735.18	259.07
735.51	258.70
735.84	258.32
736.17	258.01
736.50	257.61
736.83	257.40
737.16	257.06
737.49	256.75
737.82	256.40
738.15	256.06
738.48	255.72
738.81	255.43
739.14	255.07
739.47	254.75
739.80	254.41
740.13	254.08
740.46	253.71
740.79	253.33
741.12	253.03
741.45	252.70
741.78	252.36
742.11	252.05
742.44	251.71
742.77	251.42
743.10	251.14
743.43	250.85
743.75	250.44
744.08	250.31
744.41	250.02
744.74	249.74
745.07	249.44
745.40	249.20
745.73	248.97
746.06	248.72
746.39	248.43
746.71	248.19
747.04	247.96
747.37	247.71
747.70	247.47
748.03	247.25
748.36	247.01
748.68	246.78
749.01	246.54
749.34	246.33
749.67	246.11
750.00	245.88
750.33	245.71
750.65	245.51
750.98	245.14
751.31	244.94
751.64	244.77
751.97	244.63
752.29	244.39
752.62	244.12
752.95	243.93
753.28	243.77
753.60	243.56
753.93	243.34
754.26	243.15
754.59	242.96
754.91	242.75
755.24	242.55
755.57	242.36
755.90	242.17
756.22	241.97
756.55	241.76
756.88	241.54
757.20	241.28
757.53	241.11
757.86	240.94
758.19	240.78
758.51	240.61
758.84	240.38
759.17	240.24
759.49	240.09
759.82	239.97
760.15	239.80
760.47	239.65
760.80	239.47
761.13	239.33
761.45	239.13
761.78	238.98
762.11	238.85
762.43	238.69
762.76	238.57
763.08	238.43
763.41	238.29
763.74	238.17
764.06	238.08
764.39	237.89
764.71	237.75
765.04	237.61
765.37	237.44
765.69	237.32
766.02	237.13
766.34	236.99
766.67	236.83
767.00	236.74
767.32	236.64
767.65	236.61
767.97	236.49
768.30	236.40
768.62	236.26
768.95	236.14
769.27	236.05
769.60	235.95
769.92	235.84
770.25	235.72
770.57	235.61
770.90	235.49
771.22	235.40
771.55	235.31
771.87	235.19
772.20	235.11
772.52	235.09
772.85	235.13
773.17	235.02
773.50	234.95
773.82	234.84
774.15	234.72
774.47	234.60
774.80	234.49
775.12	234.40
775.45	234.35
775.77	234.26
776.09	234.17
776.42	234.11
776.74	234.07
777.07	233.97
777.39	233.91
777.72	233.84
778.04	233.79
778.36	233.73
778.69	233.64
779.01	233.56
779.33	233.40
779.66	233.22
779.98	233.17
780.31	233.10
780.63	233.10
780.95	233.04
781.28	232.96
781.60	232.89
781.92	232.84
782.25	232.77
782.57	232.68
782.89	232.61
783.22	232.52
783.54	232.46
783.86	232.45
784.19	232.36
784.51	232.31
784.83	232.22
785.16	232.18
785.48	232.17
785.80	232.12
786.12	232.11
786.45	232.08
786.77	232.06
787.09	232.02
787.42	231.94
787.74	231.93
788.06	231.88
788.38	231.86
788.71	231.81
789.03	231.78
789.35	231.79
789.67	231.74
789.99	231.71
790.32	231.64
790.64	231.60
790.96	231.66
791.28	231.60
791.61	231.59
791.93	231.54
792.25	231.48
792.57	231.58
792.89	231.52
793.21	231.50
793.54	231.45
793.86	231.39
794.18	231.34
794.50	231.27
794.82	231.26
795.14	231.25
795.47	231.26
795.79	231.22
796.11	231.19
796.43	231.14
796.75	231.13
797.07	231.08
797.39	231.05
797.71	230.96
798.04	230.94
798.36	230.90
798.68	230.87
799.00	230.88
799.32	230.76
799.64	230.76
799.96	230.73
800.28	230.71
800.60	230.68
800.92	230.67
801.24	230.64
801.56	230.61
801.89	230.54
802.21	230.49
802.53	230.44
802.85	230.41
803.17	230.44
803.49	230.38
803.81	230.39
804.13	230.32
804.45	230.27
804.77	230.27
805.09	230.21
805.41	230.16
805.73	230.08
806.05	230.04
806.37	229.96
806.69	229.90
807.01	229.84
807.33	229.81
807.65	229.74
807.97	229.76
808.28	229.69
808.60	229.67
808.92	229.64
809.24	229.68
809.56	229.64
809.88	229.57
810.20	229.52
810.52	229.47
810.84	229.44
811.16	229.41
811.48	229.35
811.80	229.36
812.12	229.30
812.43	229.30
812.75	229.25
813.07	229.24
813.39	229.23
813.71	229.20
814.03	229.17
814.35	229.14
814.67	229.02
814.98	229.02
815.30	228.97
815.62	228.93
815.94	228.84
816.26	228.84
816.58	228.77
816.89	228.78
817.21	228.72
817.53	228.72
817.85	228.67
818.17	228.67
818.48	228.63
818.80	228.63
819.12	228.58
819.44	228.56
819.76	228.51
820.07	228.49
820.39	228.46
820.71	228.44
821.03	228.42
821.34	228.40
821.66	228.41
821.98	228.41
822.30	228.42
822.61	228.46
822.93	228.41
823.25	228.44
823.57	228.41
823.88	228.43
824.20	228.40
824.52	228.41
824.83	228.40
825.15	228.36
825.47	228.40
825.79	228.39
826.10	228.38
826.42	228.38
826.74	228.40
827.05	228.38
827.37	228.40
827.69	228.39
828.00	228.43
828.32	228.39
828.64	228.41
828.95	228.44
829.27	228.41
829.58	228.41
829.90	228.45
830.22	228.45
830.53	228.46
830.85	228.45
831.17	228.41
831.48	228.39
831.80	228.40
832.11	228.37
832.43	228.33
832.75	228.33
833.06	228.37
833.38	228.32
833.69	228.34
834.01	228.36
834.32	228.35
834.64	228.33
834.96	228.35
835.27	228.32
835.59	228.28
835.90	228.25
836.22	228.23
836.53	228.17
836.85	228.18
837.16	228.24
837.48	228.25
837.79	228.28
838.11	228.32
838.42	228.32
838.74	228.33
839.05	228.36
839.37	228.36
839.68	228.32
840.00	228.31
840.31	228.32
840.63	228.25
840.94	228.24
841.26	228.21
841.57	228.17
841.88	228.18
842.20	228.14
842.51	228.13
842.83	228.14
843.14	228.24
843.46	228.19
843.77	228.13
844.08	228.13
844.40	228.10
844.71	228.07
845.03	228.06
845.34	228.04
845.65	228.01
845.97	228.02
846.28	228.00
846.60	227.97
846.91	227.96
847.22	227.98
847.54	227.99
847.85	227.99
848.16	228.00
848.48	227.98
848.79	227.99
849.10	228.01
849.42	228.01
849.73	227.91
850.04	227.91
850.36	227.86
850.67	227.84
850.98	227.83
851.30	227.82
851.61	227.79
851.92	227.79
852.23	227.82
852.55	227.79
852.86	227.78
853.17	227.82
853.49	227.82
853.80	227.83
854.11	227.85
854.42	227.84
854.74	227.80
855.05	227.77
855.36	227.72
855.67	227.70
855.99	227.67
856.30	227.77
856.61	227.78
856.92	227.75
857.23	227.75
857.55	227.75
857.86	227.72
858.17	227.74
858.48	227.71
858.79	227.69
859.11	227.70
859.42	227.65
859.73	227.61
860.04	227.62
860.35	227.58
860.66	227.57
860.98	227.56
861.29	227.57
861.60	227.59
861.91	227.63
862.22	227.62
862.53	227.62
862.84	227.53
863.16	227.57
863.47	227.57
863.78	227.61
864.09	227.60
864.40	227.61
864.71	227.62
865.02	227.63
865.33	227.62
865.64	227.60
865.95	227.64
866.27	227.74
866.58	227.72
866.89	227.70
867.20	227.69
867.51	227.71
867.82	227.73
868.13	227.76
868.44	227.76
868.75	227.79
869.06	227.80
869.37	227.77
869.68	227.76
869.99	227.77
870.30	227.75
870.61	227.77
870.92	227.76
871.23	227.76
871.54	227.80
871.85	227.83
872.16	227.85
872.47	227.85
872.78	227.79
873.09	227.79
873.40	227.81
873.71	227.81
874.02	227.79
874.33	227.78
874.64	227.76
874.95	227.78
875.26	227.74
875.56	227.73
875.87	227.72
876.18	227.69
876.49	227.79
876.80	227.80
877.11	227.79
877.42	227.80
877.73	227.80
878.04	227.77
878.35	227.75
878.66	227.73
878.96	227.72
879.27	227.72
879.58	227.69
879.89	227.68
880.20	227.69
880.51	227.68
880.82	227.69
881.12	227.69
881.43	227.65
881.74	227.64
882.05	227.66
882.36	227.65
882.67	227.67
882.97	227.56
883.28	227.57
883.59	227.58
883.90	227.56
884.21	227.54
884.51	227.52
884.82	227.52
885.13	227.53
885.44	227.51
885.74	227.50
886.05	227.53
886.36	227.54
886.67	227.50
886.98	227.58
887.28	227.56
887.59	227.54
887.90	227.53
888.20	227.53
888.51	227.51
888.82	227.51
889.13	227.47
889.43	227.53
889.74	227.49
890.05	227.46
890.35	227.46
890.66	227.44
890.97	227.42
891.28	227.40
891.58	227.37
891.89	227.37
892.20	227.35
892.50	227.28
892.81	227.25
893.12	227.23
893.42	227.15
893.73	227.12
894.04	227.12
894.34	227.12
894.65	227.09
894.95	227.06
895.26	227.08
895.57	227.12
895.87	227.04
896.18	227.03
896.48	227.04
896.79	227.00
897.10	227.02
897.40	227.01
897.71	227.02
898.01	227.00
898.32	227.01
898.63	227.01
898.93	227.03
899.24	227.04
899.54	227.05
899.85	227.04
900.15	227.05
900.46	227.04
900.76	227.05
901.07	227.07
901.38	227.10
901.68	227.09
901.99	227.05
902.29	227.05
902.60	227.07
902.90	227.08
903.21	227.12
903.51	227.14
903.82	227.17
904.12	227.19
904.43	227.23
904.73	227.25
905.03	227.27
905.34	227.37
905.64	227.37
905.95	227.37
906.25	227.40
906.56	227.41
906.86	227.43
907.17	227.42
907.47	227.40
907.77	227.38
908.08	227.40
908.38	227.42
908.69	227.47
908.99	227.49
909.30	227.50
909.60	227.50
909.90	227.51
910.21	227.49
910.51	227.49
910.81	227.49
911.12	227.49
911.42	227.52
911.73	227.46
912.03	227.48
912.33	227.52
912.64	227.52
912.94	227.51
913.24	227.50
913.55	227.52
913.85	227.52
914.15	227.55
914.46	227.58
914.76	227.58
915.06	227.56
915.37	227.56
915.67	227.56
915.97	227.55
916.27	227.55
916.58	227.56
916.88	227.59
917.18	227.55
917.49	227.65
917.79	227.64
918.09	227.64
918.39	227.68
918.70	227.68
919.00	227.69
919.30	227.77
919.60	227.76
919.91	227.75
920.21	227.76
920.51	227.77
920.81	227.75
921.12	227.76
921.42	227.74
921.72	227.74
922.02	227.71
922.32	227.73
922.63	227.73
922.93	227.77
923.23	227.72
923.53	227.74
923.83	227.65
924.13	227.67
924.44	227.66
924.74	227.61
925.04	227.60
925.34	227.58
925.64	227.52
925.94	227.53
926.24	227.56
926.55	227.55
926.85	227.54
927.15	227.51
927.45	227.50
927.75	227.50
928.05	227.48
928.35	227.46
928.65	227.46
928.95	227.43
929.26	227.38
929.56	227.37
929.86	227.39
930.16	227.35
930.46	227.29
930.76	227.28
931.06	227.23
931.36	227.16
931.66	227.17
931.96	227.15
932.26	227.14
932.56	227.09
932.86	227.09
933.16	227.07
933.46	227.03
933.76	226.99
934.06	227.01
934.36	227.05
934.66	227.05
934.96	227.02
935.26	227.02
935.56	227.05
935.86	227.07
936.16	227.03
936.46	227.03
936.76	227.01
937.06	226.95
937.36	226.96
937.66	226.99
937.96	226.99
938.26	226.96
938.56	226.94
938.86	226.94
939.16	226.94
939.46	226.96
939.76	226.97
940.06	226.97
940.35	226.94
940.65	226.87
940.95	226.89
941.25	226.89
941.55	226.88
941.85	226.88
942.15	226.89
942.45	226.96
942.75	226.93
943.04	226.97
943.34	227.04
943.64	227.05
943.94	227.05
944.24	227.06
944.54	227.11
944.84	227.14
945.13	227.14
945.43	227.15
945.73	227.13
946.03	227.15
946.33	227.16
946.62	227.18
946.92	227.20
947.22	227.20
947.52	227.23
947.82	227.26
948.11	227.25
948.41	227.27
948.71	227.23
949.01	227.26
949.31	227.26
949.60	227.24
949.90	227.31
950.20	227.36
950.50	227.34
950.79	227.35
951.09	227.34
951.39	227.38
951.69	227.39
951.98	227.44
952.28	227.46
952.58	227.51
952.87	227.50
953.17	227.53
953.47	227.54
953.76	227.56
954.06	227.53
954.36	227.52
954.66	227.49
954.95	227.53
955.25	227.57
955.55	227.60
955.84	227.62
956.14	227.59
956.44	227.57
956.73	227.59
957.03	227.59
957.32	227.60
957.62	227.60
957.92	227.61
958.21	227.60
958.51	227.67
958.81	227.65
959.10	227.68
959.40	227.69
959.69	227.70
959.99	227.68
960.29	227.70
960.58	227.69
960.88	227.72
961.17	227.67
961.47	227.67
961.76	227.64
962.06	227.62
962.36	227.61
962.65	227.59
962.95	227.58
963.24	227.56
963.54	227.56
963.83	227.53
964.13	227.51
964.42	227.43
964.72	227.35
965.01	227.33
965.31	227.30
965.60	227.27
965.90	227.30
966.19	227.24
966.49	227.20
966.78	227.18
967.08	227.13
967.37	227.13
967.67	227.08
967.96	227.06
968.26	227.05
968.55	227.03
968.85	227.04
969.14	227.01
969.43	226.96
969.73	226.94
970.02	226.91
970.32	226.92
970.61	226.94
970.91	226.87
971.20	226.85
971.49	226.82
971.79	226.83
972.08	226.77
972.38	226.78
972.67	226.77
972.96	226.80
973.26	226.81
973.55	226.83
973.85	226.84
974.14	226.83
974.43	226.83
974.73	226.80
975.02	226.77
975.31	226.76
975.61	226.78
975.90	226.78
976.19	226.76
976.49	226.75
976.78	226.77
977.07	226.80
977.37	226.80
977.66	226.81
977.95	226.76
978.24	226.74
978.54	226.79
978.83	226.77
979.12	226.75
979.42	226.74
979.71	226.70
980.00	226.70
980.29	226.74
980.59	226.73
980.88	226.77
981.17	226.77
981.46	226.80
981.76	226.82
982.05	226.83
982.34	226.87
982.63	226.87
982.93	226.87
983.22	226.89
983.51	226.91
983.80	226.97
984.09	227.04
984.39	227.08
984.68	227.08
984.97	227.12
985.26	227.13
985.55	227.19
985.85	227.18
986.14	227.23
986.43	227.25
986.72	227.24
987.01	227.25
987.30	227.26
987.59	227.24
987.89	227.26
988.18	227.28
988.47	227.29
988.76	227.31
989.05	227.33
989.34	227.33
989.63	227.36
989.92	227.32
990.22	227.30
990.51	227.31
990.80	227.27
991.09	227.28
991.38	227.29
991.67	227.25
991.96	227.26
992.25	227.24
992.54	227.21
992.83	227.23
993.12	227.16
993.41	227.18
993.70	227.23
993.99	227.24
994.28	227.22
994.58	227.21
994.87	227.19
995.16	227.18
995.45	227.16
995.74	227.11
996.03	227.11
996.32	227.13
996.61	227.11
996.90	227.11
997.19	227.10
997.48	227.12
997.77	227.13
998.06	227.11
998.34	227.09
998.63	227.08
998.92	227.04
999.21	227.11
999.50	227.10
999.79	227.07
1000.08	227.03
1000.37	227.01
1000.66	226.98
1000.95	226.99
1001.24	226.98
1001.53	226.99
1001.82	226.99
1002.11	226.94
1002.40	226.88
1002.68	226.91
1002.97	226.97
1003.26	226.95
1003.55	226.89
1003.84	226.86
1004.13	226.89
1004.42	226.88
1004.71	226.84
1004.99	226.86
1005.28	226.87
1005.57	226.85
1005.86	226.81
1006.15	226.80
1006.44	226.80
1006.72	226.83
1007.01	226.82
1007.30	226.81
1007.59	226.78
1007.88	226.78
1008.17	226.82
1008.45	226.83
1008.74	226.79
1009.03	226.76
1009.32	226.76
1009.60	226.77
1009.89	226.78
1010.18	226.74
1010.47	226.75
1010.76	226.76
1011.04	226.76
1011.33	226.76
1011.62	226.78
1011.91	226.80
1012.19	226.82
1012.48	226.84
1012.77	226.82
1013.05	226.85
1013.34	226.88
1013.63	226.90
1013.92	226.92
1014.20	226.90
1014.49	226.91
1014.78	226.90
1015.06	226.89
1015.35	226.89
1015.64	226.92
1015.92	226.92
1016.21	226.95
1016.50	226.94
1016.78	226.98
1017.07	227.01
1017.36	226.96
1017.64	226.95
1017.93	226.98
1018.22	226.97
1018.50	226.97
1018.79	226.99
1019.08	226.96
1019.36	226.94
1019.65	226.94
1019.93	226.97
1020.22	227.03
1020.51	227.09
1020.79	227.13
1021.08	226.80
1021.36	227.20
1021.65	227.47
1021.94	226.68
1022.22	226.96
1022.51	227.16
1022.79	227.77
1023.08	227.71
1023.36	228.42
1023.65	227.17
>>>>>End Processed Spectral Data<<<<<
