SpectraSuite Data File
++++++++++++++++++++++++++++++++++++
Date: Fri Feb 01 17:14:45 EST 2013
User: group
Dark Spectrum Present: No
Reference Spectrum Present: No
Number of Sampled Component Spectra: 1
Spectrometers: USB2E7196
Integration Time (usec): 35000 (USB2E7196)
Spectra Averaged: 100 (USB2E7196)
Boxcar Smoothing: 10 (USB2E7196)
Correct for Electrical Dark: No (USB2E7196)
Strobe/Lamp Enabled: No (USB2E7196)
Correct for Detector Non-linearity: No (USB2E7196)
Correct for Stray Light: No (USB2E7196)
Number of Pixels in Processed Spectrum: 2048
>>>>>Begin Processed Spectral Data<<<<<
339.09	0.00
339.48	212.39
339.86	214.31
340.24	215.48
340.63	217.30
341.01	220.04
341.39	220.16
341.78	221.53
342.16	222.37
342.54	223.23
342.93	211.39
343.31	222.06
343.69	222.62
344.07	223.09
344.46	223.51
344.84	223.88
345.22	224.09
345.60	224.31
345.99	224.46
346.37	224.59
346.75	224.68
347.13	224.73
347.52	224.78
347.90	224.80
348.28	224.84
348.66	224.89
349.05	224.87
349.43	224.96
349.81	225.03
350.19	225.05
350.57	225.10
350.96	225.15
351.34	225.23
351.72	225.30
352.10	225.41
352.48	225.50
352.87	225.55
353.25	225.65
353.63	225.69
354.01	225.79
354.39	225.84
354.77	225.92
355.15	226.01
355.54	226.08
355.92	226.14
356.30	226.20
356.68	226.37
357.06	226.45
357.44	226.48
357.82	226.55
358.20	226.65
358.58	226.75
358.97	226.82
359.35	226.92
359.73	227.02
360.11	227.05
360.49	227.15
360.87	227.19
361.25	227.28
361.63	227.37
362.01	227.43
362.39	227.47
362.77	227.50
363.15	227.53
363.53	227.56
363.91	227.62
364.29	227.68
364.67	227.59
365.05	227.64
365.43	227.66
365.81	227.71
366.19	227.77
366.57	227.81
366.95	227.82
367.33	227.80
367.71	227.79
368.09	227.82
368.47	227.79
368.85	227.80
369.23	227.79
369.61	227.76
369.99	227.78
370.37	227.80
370.75	227.85
371.13	227.84
371.51	227.80
371.89	227.80
372.27	227.76
372.65	227.74
373.03	227.67
373.41	227.63
373.78	227.52
374.16	227.41
374.54	227.33
374.92	227.27
375.30	227.21
375.68	227.15
376.06	227.10
376.44	227.03
376.82	226.98
377.19	226.89
377.57	226.81
377.95	226.73
378.33	226.63
378.71	226.52
379.09	226.45
379.47	226.39
379.84	226.28
380.22	226.19
380.60	226.10
380.98	226.06
381.36	225.98
381.73	225.95
382.11	225.89
382.49	225.82
382.87	225.78
383.25	225.73
383.62	225.81
384.00	225.74
384.38	225.68
384.76	225.65
385.13	225.66
385.51	225.60
385.89	225.50
386.27	225.50
386.64	225.44
387.02	225.40
387.40	225.34
387.78	225.32
388.15	225.31
388.53	225.28
388.91	225.25
389.29	225.20
389.66	225.17
390.04	225.13
390.42	225.10
390.79	225.04
391.17	225.01
391.55	224.85
391.92	224.80
392.30	224.83
392.68	224.76
393.05	224.74
393.43	224.73
393.81	224.77
394.18	224.73
394.56	224.74
394.94	224.75
395.31	224.77
395.69	224.79
396.06	224.80
396.44	224.84
396.82	224.83
397.19	224.92
397.57	224.95
397.95	225.01
398.32	225.06
398.70	225.14
399.07	225.23
399.45	225.30
399.82	225.38
400.20	225.38
400.58	225.44
400.95	225.48
401.33	225.58
401.70	225.72
402.08	225.79
402.45	225.86
402.83	225.98
403.20	226.08
403.58	226.18
403.95	226.34
404.33	226.45
404.71	226.57
405.08	226.76
405.46	226.87
405.83	227.04
406.21	227.18
406.58	227.37
406.96	227.52
407.33	227.69
407.70	227.88
408.08	228.16
408.45	228.41
408.83	228.64
409.20	228.87
409.58	229.04
409.95	229.30
410.33	229.59
410.70	229.82
411.08	230.11
411.45	230.44
411.82	230.70
412.20	231.05
412.57	231.48
412.95	231.75
413.32	232.19
413.69	232.57
414.07	233.03
414.44	233.49
414.82	233.94
415.19	234.50
415.56	235.06
415.94	235.63
416.31	236.26
416.68	236.91
417.06	237.62
417.43	238.32
417.81	239.12
418.18	239.90
418.55	240.77
418.93	241.68
419.30	242.58
419.67	243.56
420.04	244.58
420.42	245.60
420.79	246.81
421.16	247.97
421.54	249.19
421.91	250.43
422.28	251.69
422.66	253.04
423.03	254.35
423.40	255.72
423.77	257.18
424.15	258.65
424.52	260.12
424.89	261.79
425.26	263.38
425.64	264.89
426.01	266.54
426.38	268.22
426.75	269.92
427.13	271.69
427.50	273.52
427.87	275.40
428.24	277.30
428.61	279.10
428.99	281.08
429.36	283.20
429.73	285.29
430.10	287.34
430.47	289.46
430.85	291.62
431.22	293.92
431.59	296.33
431.96	298.63
432.33	301.17
432.70	303.62
433.08	306.46
433.45	309.13
433.82	311.76
434.19	314.71
434.56	317.58
434.93	320.28
435.30	322.96
435.68	325.90
436.05	328.79
436.42	331.58
436.79	334.13
437.16	336.89
437.53	339.74
437.90	342.58
438.27	345.38
438.64	348.28
439.01	350.93
439.38	353.22
439.75	355.43
440.13	357.97
440.50	360.29
440.87	362.18
441.24	364.18
441.61	366.41
441.98	367.95
442.35	369.79
442.72	371.68
443.09	373.52
443.46	374.52
443.83	375.11
444.20	375.64
444.57	376.53
444.94	376.86
445.31	377.24
445.68	377.65
446.05	377.77
446.42	377.43
446.79	376.99
447.16	376.54
447.53	376.23
447.90	375.10
448.27	373.93
448.64	372.28
449.01	371.13
449.37	369.09
449.74	367.18
450.11	364.91
450.48	362.37
450.85	359.82
451.22	357.70
451.59	355.64
451.96	353.66
452.33	351.01
452.70	348.61
453.07	345.77
453.43	342.79
453.80	339.95
454.17	337.18
454.54	334.57
454.91	331.78
455.28	329.03
455.65	326.48
456.02	323.99
456.38	321.81
456.75	319.06
457.12	316.77
457.49	314.48
457.86	312.25
458.23	310.41
458.59	308.29
458.96	306.11
459.33	304.21
459.70	302.32
460.07	300.79
460.43	299.01
460.80	297.34
461.17	295.88
461.54	294.34
461.91	292.86
462.27	291.40
462.64	290.14
463.01	288.78
463.38	287.41
463.74	286.01
464.11	284.85
464.48	283.79
464.85	282.64
465.21	281.73
465.58	280.80
465.95	279.67
466.32	278.73
466.68	277.82
467.05	276.94
467.42	276.04
467.78	275.08
468.15	274.22
468.52	273.56
468.88	272.71
469.25	271.94
469.62	271.32
469.98	270.67
470.35	270.01
470.72	269.38
471.08	268.75
471.45	268.22
471.82	267.69
472.18	267.09
472.55	266.69
472.92	266.19
473.28	265.72
473.65	265.25
474.02	264.86
474.38	264.50
474.75	264.20
475.11	263.85
475.48	263.60
475.85	263.33
476.21	263.09
476.58	262.90
476.94	262.74
477.31	262.57
477.67	262.41
478.04	262.36
478.41	262.31
478.77	262.37
479.14	262.31
479.50	262.33
479.87	262.40
480.23	262.49
480.60	262.59
480.96	262.64
481.33	262.87
481.69	263.05
482.06	263.26
482.42	263.40
482.79	263.62
483.15	263.92
483.52	264.28
483.88	264.61
484.25	264.99
484.61	265.43
484.98	265.87
485.34	266.40
485.71	266.96
486.07	267.57
486.44	268.10
486.80	268.81
487.17	269.55
487.53	270.37
487.90	271.21
488.26	272.13
488.62	273.13
488.99	274.09
489.35	275.11
489.72	276.24
490.08	277.45
490.44	278.73
490.81	280.04
491.17	281.42
491.54	282.90
491.90	284.45
492.26	286.10
492.63	287.85
492.99	289.61
493.36	291.49
493.72	293.52
494.08	295.62
494.45	297.82
494.81	300.15
495.17	302.61
495.54	305.17
495.90	307.83
496.26	310.60
496.63	313.57
496.99	316.69
497.35	319.92
497.72	323.36
498.08	326.86
498.44	330.53
498.80	334.51
499.17	338.56
499.53	342.69
499.89	347.08
500.26	351.58
500.62	356.22
500.98	361.14
501.34	366.18
501.71	371.47
502.07	376.93
502.43	382.50
502.79	388.25
503.16	394.30
503.52	400.53
503.88	406.89
504.24	413.42
504.60	420.23
504.97	427.33
505.33	434.53
505.69	442.18
506.05	449.93
506.41	457.70
506.78	465.76
507.14	474.16
507.50	482.74
507.86	491.71
508.22	500.81
508.59	509.94
508.95	519.35
509.31	529.05
509.67	539.04
510.03	549.22
510.39	559.71
510.75	570.32
511.12	581.07
511.48	592.15
511.84	603.52
512.20	614.86
512.56	626.62
512.92	638.65
513.28	650.86
513.64	663.13
514.00	675.65
514.37	688.40
514.73	701.24
515.09	714.08
515.45	727.09
515.81	740.46
516.17	754.23
516.53	768.23
516.89	782.26
517.25	796.20
517.61	810.36
517.97	824.53
518.33	838.71
518.69	853.29
519.05	868.09
519.41	882.91
519.77	898.17
520.13	913.37
520.49	928.49
520.85	943.51
521.21	958.82
521.57	974.77
521.93	990.29
522.29	1006.36
522.65	1022.32
523.01	1038.13
523.37	1053.83
523.73	1069.66
524.09	1085.41
524.45	1101.41
524.81	1117.72
525.17	1134.18
525.53	1150.72
525.89	1167.30
526.25	1183.76
526.61	1199.92
526.97	1216.43
527.33	1232.66
527.68	1248.84
528.04	1264.93
528.40	1281.16
528.76	1297.97
529.12	1314.21
529.48	1330.79
529.84	1346.43
530.20	1362.67
530.56	1379.31
530.91	1396.46
531.27	1413.05
531.63	1429.24
531.99	1445.39
532.35	1461.13
532.71	1476.72
533.07	1492.69
533.42	1508.41
533.78	1524.29
534.14	1540.15
534.50	1555.25
534.86	1570.62
535.21	1585.62
535.57	1601.29
535.93	1616.51
536.29	1631.06
536.65	1645.97
537.00	1660.31
537.36	1675.38
537.72	1689.70
538.08	1704.15
538.44	1717.62
538.79	1731.18
539.15	1744.40
539.51	1757.86
539.87	1771.91
540.22	1785.26
540.58	1798.71
540.94	1811.60
541.29	1823.95
541.65	1836.30
542.01	1849.16
542.37	1861.49
542.72	1873.70
543.08	1885.39
543.44	1897.73
543.79	1908.79
544.15	1919.52
544.51	1930.99
544.87	1941.93
545.22	1952.88
545.58	1962.98
545.94	1972.85
546.29	1982.75
546.65	1992.69
547.01	2002.12
547.36	2011.03
547.72	2019.76
548.07	2027.96
548.43	2036.15
548.79	2044.24
549.14	2052.10
549.50	2059.53
549.86	2067.19
550.21	2074.65
550.57	2082.12
550.92	2088.88
551.28	2096.21
551.64	2103.41
551.99	2110.15
552.35	2116.45
552.70	2122.52
553.06	2128.70
553.41	2135.27
553.77	2141.38
554.13	2147.64
554.48	2153.80
554.84	2159.36
555.19	2164.66
555.55	2169.87
555.90	2174.74
556.26	2180.15
556.61	2185.14
556.97	2189.96
557.32	2194.39
557.68	2198.75
558.03	2202.90
558.39	2206.80
558.74	2211.57
559.10	2215.72
559.45	2219.57
559.81	2224.08
560.16	2228.20
560.52	2231.62
560.87	2235.08
561.23	2237.92
561.58	2241.08
561.94	2243.95
562.29	2246.59
562.64	2249.89
563.00	2252.67
563.35	2256.43
563.71	2259.70
564.06	2263.02
564.42	2266.06
564.77	2269.08
565.12	2271.84
565.48	2274.35
565.83	2276.54
566.19	2278.27
566.54	2279.30
566.89	2280.86
567.25	2281.96
567.60	2283.47
567.96	2285.62
568.31	2286.78
568.66	2288.18
569.02	2289.11
569.37	2289.87
569.72	2290.97
570.08	2291.32
570.43	2291.64
570.78	2291.47
571.14	2290.30
571.49	2289.32
571.84	2289.02
572.20	2288.16
572.55	2287.22
572.90	2285.82
573.26	2284.72
573.61	2283.06
573.96	2281.93
574.31	2279.22
574.67	2276.36
575.02	2273.13
575.37	2269.77
575.72	2266.42
576.08	2263.21
576.43	2259.97
576.78	2256.65
577.13	2253.62
577.49	2250.57
577.84	2247.42
578.19	2243.84
578.54	2240.47
578.90	2236.45
579.25	2231.26
579.60	2226.54
579.95	2221.87
580.30	2216.87
580.66	2211.79
581.01	2207.12
581.36	2202.06
581.71	2198.27
582.06	2194.23
582.42	2190.04
582.77	2185.24
583.12	2180.87
583.47	2176.71
583.82	2172.28
584.17	2167.17
584.53	2162.06
584.88	2156.77
585.23	2151.38
585.58	2146.12
585.93	2140.80
586.28	2136.11
586.63	2131.47
586.98	2126.45
587.34	2121.81
587.69	2117.21
588.04	2112.32
588.39	2106.85
588.74	2100.66
589.09	2094.51
589.44	2087.87
589.79	2081.68
590.14	2076.00
590.49	2069.66
590.84	2063.17
591.19	2057.09
591.54	2050.77
591.89	2043.65
592.25	2037.10
592.60	2029.95
592.95	2022.65
593.30	2015.60
593.65	2008.18
594.00	2001.13
594.35	1994.03
594.70	1986.00
595.05	1979.09
595.40	1971.93
595.75	1964.62
596.10	1958.67
596.45	1952.11
596.80	1945.99
597.15	1939.70
597.50	1933.12
597.85	1926.56
598.19	1920.16
598.54	1913.53
598.89	1907.05
599.24	1901.05
599.59	1894.62
599.94	1888.42
600.29	1882.06
600.64	1875.43
600.99	1868.10
601.34	1861.43
601.69	1854.45
602.04	1847.87
602.39	1840.52
602.74	1833.79
603.08	1827.24
603.43	1820.50
603.78	1813.27
604.13	1806.08
604.48	1798.97
604.83	1792.04
605.18	1785.37
605.53	1777.56
605.87	1769.34
606.22	1761.93
606.57	1753.98
606.92	1746.21
607.27	1739.01
607.62	1732.09
607.96	1724.87
608.31	1718.53
608.66	1710.98
609.01	1703.52
609.36	1696.10
609.70	1688.09
610.05	1679.94
610.40	1672.20
610.75	1663.89
611.10	1656.24
611.44	1647.83
611.79	1639.70
612.14	1630.88
612.49	1621.54
612.83	1612.97
613.18	1604.77
613.53	1596.76
613.88	1588.28
614.22	1580.20
614.57	1571.57
614.92	1563.52
615.27	1556.08
615.61	1547.66
615.96	1539.50
616.31	1531.79
616.65	1524.28
617.00	1516.78
617.35	1509.01
617.70	1500.59
618.04	1492.22
618.39	1483.75
618.74	1476.14
619.08	1467.87
619.43	1460.26
619.78	1453.37
620.12	1446.31
620.47	1438.86
620.82	1430.50
621.16	1422.95
621.51	1415.16
621.85	1407.53
622.20	1399.01
622.55	1390.52
622.89	1382.55
623.24	1374.78
623.59	1367.25
623.93	1359.68
624.28	1352.25
624.62	1344.84
624.97	1337.69
625.32	1330.62
625.66	1323.63
626.01	1316.42
626.35	1309.05
626.70	1301.27
627.04	1293.64
627.39	1285.67
627.73	1278.12
628.08	1271.20
628.43	1264.05
628.77	1256.75
629.12	1249.14
629.46	1241.85
629.81	1234.18
630.15	1226.76
630.50	1219.37
630.84	1211.26
631.19	1203.16
631.53	1195.68
631.88	1187.98
632.22	1180.24
632.57	1172.84
632.91	1165.30
633.26	1157.88
633.60	1150.31
633.95	1143.00
634.29	1135.60
634.64	1128.78
634.98	1121.50
635.32	1114.34
635.67	1107.47
636.01	1100.74
636.36	1093.95
636.70	1087.46
637.05	1080.98
637.39	1074.63
637.73	1068.13
638.08	1062.08
638.42	1056.05
638.77	1049.57
639.11	1043.04
639.45	1036.63
639.80	1030.02
640.14	1023.53
640.49	1016.96
640.83	1010.55
641.17	1004.35
641.52	998.12
641.86	991.64
642.20	985.71
642.55	979.12
642.89	972.76
643.23	966.08
643.58	960.21
643.92	953.93
644.26	947.94
644.61	941.78
644.95	935.67
645.29	929.20
645.64	922.45
645.98	915.96
646.32	909.86
646.66	903.78
647.01	898.04
647.35	892.30
647.69	886.30
648.04	880.74
648.38	874.93
648.72	868.99
649.06	863.00
649.41	857.02
649.75	851.26
650.09	845.19
650.43	839.51
650.78	833.35
651.12	827.39
651.46	821.60
651.80	815.97
652.14	810.55
652.49	805.14
652.83	799.93
653.17	794.39
653.51	788.80
653.85	783.33
654.20	777.68
654.54	771.72
654.88	765.97
655.22	760.08
655.56	754.29
655.90	748.73
656.25	743.53
656.59	738.11
656.93	732.93
657.27	727.78
657.61	722.26
657.95	717.18
658.29	712.05
658.64	706.71
658.98	701.23
659.32	695.71
659.66	690.54
660.00	685.30
660.34	680.41
660.68	675.44
661.02	670.42
661.36	665.70
661.70	661.15
662.05	656.72
662.39	652.44
662.73	648.00
663.07	643.49
663.41	638.96
663.75	634.61
664.09	630.06
664.43	625.74
664.77	621.69
665.11	617.43
665.45	613.25
665.79	609.17
666.13	605.14
666.47	601.00
666.81	596.86
667.15	592.60
667.49	588.55
667.83	584.63
668.17	580.68
668.51	576.58
668.85	572.55
669.19	568.65
669.53	564.79
669.87	560.96
670.21	557.31
670.55	553.63
670.89	550.05
671.23	546.58
671.57	542.94
671.91	539.40
672.25	535.83
672.58	532.30
672.92	528.86
673.26	525.55
673.60	522.46
673.94	519.32
674.28	516.45
674.62	513.53
674.96	510.47
675.30	507.62
675.64	504.67
675.97	501.85
676.31	498.96
676.65	495.96
676.99	493.21
677.33	490.32
677.67	487.48
678.01	484.44
678.34	481.54
678.68	478.64
679.02	475.83
679.36	473.02
679.70	470.33
680.04	467.59
680.37	464.76
680.71	461.95
681.05	459.31
681.39	456.53
681.73	453.74
682.06	451.17
682.40	448.61
682.74	445.99
683.08	443.38
683.42	440.78
683.75	438.32
684.09	435.67
684.43	433.21
684.77	430.76
685.10	428.36
685.44	425.92
685.78	423.64
686.12	421.25
686.45	418.96
686.79	416.68
687.13	414.38
687.46	412.18
687.80	409.96
688.14	407.64
688.48	405.56
688.81	403.41
689.15	401.23
689.49	399.00
689.82	396.91
690.16	394.75
690.50	392.75
690.83	390.80
691.17	388.84
691.51	386.88
691.84	384.96
692.18	383.08
692.52	381.16
692.85	379.21
693.19	377.39
693.52	375.54
693.86	373.62
694.20	371.89
694.53	370.05
694.87	368.14
695.21	366.38
695.54	364.53
695.88	362.72
696.21	361.00
696.55	359.34
696.88	357.67
697.22	356.03
697.56	354.36
697.89	352.64
698.23	351.05
698.56	349.43
698.90	347.86
699.23	346.20
699.57	344.65
699.90	343.08
700.24	341.44
700.58	339.94
700.91	338.51
701.25	336.99
701.58	335.61
701.92	334.26
702.25	332.86
702.59	331.52
702.92	330.21
703.26	328.89
703.59	327.58
703.93	326.39
704.26	325.17
704.60	323.94
704.93	322.72
705.26	321.45
705.60	320.24
705.93	319.08
706.27	317.99
706.60	316.90
706.94	315.81
707.27	314.69
707.61	313.56
707.94	312.47
708.27	311.39
708.61	310.29
708.94	309.22
709.28	308.21
709.61	307.24
709.94	306.28
710.28	305.29
710.61	304.28
710.95	303.19
711.28	302.23
711.61	301.23
711.95	300.28
712.28	299.33
712.61	298.34
712.95	297.36
713.28	296.46
713.61	295.52
713.95	294.62
714.28	293.83
714.61	292.96
714.95	292.10
715.28	291.31
715.61	290.43
715.95	289.57
716.28	288.70
716.61	287.87
716.95	287.04
717.28	286.23
717.61	285.45
717.94	284.68
718.28	283.91
718.61	283.17
718.94	282.43
719.27	281.76
719.61	281.09
719.94	280.42
720.27	279.71
720.60	279.07
720.94	278.44
721.27	277.78
721.60	277.21
721.93	276.58
722.27	275.98
722.60	275.39
722.93	274.81
723.26	274.29
723.59	273.71
723.93	273.14
724.26	272.56
724.59	271.98
724.92	271.45
725.25	270.92
725.59	270.42
725.92	269.89
726.25	269.38
726.58	268.88
726.91	268.40
727.24	267.91
727.57	267.41
727.91	266.87
728.24	266.38
728.57	265.85
728.90	265.38
729.23	264.86
729.56	264.46
729.89	263.99
730.22	263.47
730.55	262.97
730.89	262.52
731.22	262.07
731.55	261.64
731.88	261.18
732.21	260.75
732.54	260.28
732.87	259.88
733.20	259.45
733.53	259.05
733.86	258.66
734.19	258.26
734.52	257.89
734.85	257.57
735.18	257.15
735.51	256.80
735.84	256.41
736.17	256.05
736.50	255.62
736.83	255.39
737.16	255.06
737.49	254.73
737.82	254.36
738.15	254.02
738.48	253.71
738.81	253.39
739.14	253.06
739.47	252.72
739.80	252.40
740.13	252.09
740.46	251.79
740.79	251.47
741.12	251.15
741.45	250.83
741.78	250.50
742.11	250.25
742.44	249.93
742.77	249.65
743.10	249.37
743.43	249.12
743.75	248.77
744.08	248.65
744.41	248.35
744.74	248.14
745.07	247.87
745.40	247.63
745.73	247.37
746.06	247.13
746.39	246.92
746.71	246.66
747.04	246.41
747.37	246.12
747.70	245.92
748.03	245.67
748.36	245.45
748.68	245.20
749.01	244.96
749.34	244.73
749.67	244.52
750.00	244.29
750.33	244.13
750.65	243.90
750.98	243.56
751.31	243.37
751.64	243.12
751.97	243.00
752.29	242.75
752.62	242.50
752.95	242.24
753.28	241.99
753.60	241.75
753.93	241.56
754.26	241.39
754.59	241.12
754.91	240.91
755.24	240.69
755.57	240.49
755.90	240.28
756.22	240.09
756.55	239.90
756.88	239.71
757.20	239.48
757.53	239.32
757.86	239.12
758.19	238.96
758.51	238.80
758.84	238.57
759.17	238.41
759.49	238.28
759.82	238.20
760.15	238.05
760.47	237.92
760.80	237.73
761.13	237.58
761.45	237.44
761.78	237.25
762.11	237.14
762.43	237.00
762.76	236.83
763.08	236.71
763.41	236.55
763.74	236.40
764.06	236.23
764.39	236.07
764.71	235.92
765.04	235.80
765.37	235.66
765.69	235.51
766.02	235.38
766.34	235.27
766.67	235.10
767.00	235.02
767.32	234.92
767.65	234.87
767.97	234.77
768.30	234.64
768.62	234.53
768.95	234.35
769.27	234.21
769.60	234.13
769.92	233.98
770.25	233.87
770.57	233.73
770.90	233.62
771.22	233.48
771.55	233.42
771.87	233.29
772.20	233.19
772.52	233.16
772.85	233.20
773.17	233.06
773.50	232.96
773.82	232.81
774.15	232.69
774.47	232.54
774.80	232.43
775.12	232.33
775.45	232.27
775.77	232.22
776.09	232.20
776.42	232.07
776.74	232.06
777.07	231.96
777.39	231.90
777.72	231.83
778.04	231.77
778.36	231.66
778.69	231.59
779.01	231.53
779.33	231.40
779.66	231.16
779.98	231.09
780.31	231.03
780.63	231.05
780.95	231.01
781.28	230.94
781.60	230.88
781.92	230.86
782.25	230.80
782.57	230.77
782.89	230.66
783.22	230.64
783.54	230.55
783.86	230.51
784.19	230.46
784.51	230.44
784.83	230.39
785.16	230.33
785.48	230.26
785.80	230.22
786.12	230.18
786.45	230.16
786.77	230.14
787.09	230.08
787.42	229.96
787.74	229.92
788.06	229.90
788.38	229.86
788.71	229.80
789.03	229.77
789.35	229.72
789.67	229.70
789.99	229.66
790.32	229.60
790.64	229.59
790.96	229.61
791.28	229.52
791.61	229.50
791.93	229.49
792.25	229.45
792.57	229.46
792.89	229.39
793.21	229.35
793.54	229.29
793.86	229.24
794.18	229.21
794.50	229.17
794.82	229.12
795.14	229.10
795.47	229.07
795.79	229.05
796.11	229.00
796.43	228.96
796.75	228.91
797.07	228.92
797.39	228.84
797.71	228.73
798.04	228.70
798.36	228.67
798.68	228.61
799.00	228.61
799.32	228.55
799.64	228.55
799.96	228.49
800.28	228.47
800.60	228.43
800.92	228.41
801.24	228.37
801.56	228.33
801.89	228.24
802.21	228.21
802.53	228.16
802.85	228.16
803.17	228.16
803.49	228.12
803.81	228.09
804.13	228.07
804.45	228.03
804.77	228.02
805.09	227.97
805.41	227.95
805.73	227.85
806.05	227.76
806.37	227.74
806.69	227.74
807.01	227.68
807.33	227.67
807.65	227.61
807.97	227.62
808.28	227.60
808.60	227.59
808.92	227.55
809.24	227.59
809.56	227.50
809.88	227.43
810.20	227.39
810.52	227.34
810.84	227.31
811.16	227.30
811.48	227.26
811.80	227.27
812.12	227.24
812.43	227.27
812.75	227.28
813.07	227.24
813.39	227.20
813.71	227.19
814.03	227.14
814.35	227.10
814.67	227.02
814.98	226.98
815.30	226.96
815.62	226.91
815.94	226.81
816.26	226.84
816.58	226.80
816.89	226.78
817.21	226.74
817.53	226.74
817.85	226.71
818.17	226.67
818.48	226.60
818.80	226.60
819.12	226.57
819.44	226.53
819.76	226.49
820.07	226.48
820.39	226.47
820.71	226.49
821.03	226.51
821.34	226.53
821.66	226.53
821.98	226.51
822.30	226.52
822.61	226.55
822.93	226.49
823.25	226.51
823.57	226.52
823.88	226.55
824.20	226.51
824.52	226.54
824.83	226.53
825.15	226.54
825.47	226.52
825.79	226.47
826.10	226.47
826.42	226.43
826.74	226.49
827.05	226.46
827.37	226.45
827.69	226.44
828.00	226.40
828.32	226.42
828.64	226.43
828.95	226.45
829.27	226.45
829.58	226.46
829.90	226.50
830.22	226.48
830.53	226.43
830.85	226.47
831.17	226.41
831.48	226.43
831.80	226.42
832.11	226.40
832.43	226.43
832.75	226.41
833.06	226.51
833.38	226.44
833.69	226.47
834.01	226.47
834.32	226.44
834.64	226.47
834.96	226.46
835.27	226.45
835.59	226.44
835.90	226.42
836.22	226.45
836.53	226.41
836.85	226.40
837.16	226.51
837.48	226.51
837.79	226.52
838.11	226.50
838.42	226.47
838.74	226.49
839.05	226.45
839.37	226.49
839.68	226.39
840.00	226.39
840.31	226.38
840.63	226.38
840.94	226.37
841.26	226.31
841.57	226.28
841.88	226.26
842.20	226.22
842.51	226.21
842.83	226.18
843.14	226.26
843.46	226.28
843.77	226.23
844.08	226.16
844.40	226.17
844.71	226.18
845.03	226.19
845.34	226.17
845.65	226.18
845.97	226.14
846.28	226.16
846.60	226.15
846.91	226.14
847.22	226.09
847.54	226.10
847.85	226.10
848.16	226.10
848.48	226.08
848.79	226.12
849.10	226.07
849.42	226.06
849.73	225.93
850.04	225.83
850.36	225.76
850.67	225.80
850.98	225.78
851.30	225.78
851.61	225.77
851.92	225.77
852.23	225.80
852.55	225.79
852.86	225.79
853.17	225.77
853.49	225.76
853.80	225.78
854.11	225.78
854.42	225.76
854.74	225.75
855.05	225.76
855.36	225.68
855.67	225.66
855.99	225.66
856.30	225.80
856.61	225.86
856.92	225.86
857.23	225.83
857.55	225.81
857.86	225.76
858.17	225.75
858.48	225.72
858.79	225.66
859.11	225.64
859.42	225.61
859.73	225.61
860.04	225.61
860.35	225.58
860.66	225.57
860.98	225.56
861.29	225.57
861.60	225.55
861.91	225.59
862.22	225.59
862.53	225.54
862.84	225.41
863.16	225.40
863.47	225.38
863.78	225.37
864.09	225.36
864.40	225.40
864.71	225.39
865.02	225.40
865.33	225.41
865.64	225.41
865.95	225.40
866.27	225.45
866.58	225.42
866.89	225.44
867.20	225.45
867.51	225.46
867.82	225.48
868.13	225.51
868.44	225.47
868.75	225.51
869.06	225.52
869.37	225.54
869.68	225.49
869.99	225.51
870.30	225.52
870.61	225.55
870.92	225.53
871.23	225.56
871.54	225.58
871.85	225.61
872.16	225.63
872.47	225.66
872.78	225.62
873.09	225.64
873.40	225.61
873.71	225.61
874.02	225.62
874.33	225.56
874.64	225.53
874.95	225.56
875.26	225.53
875.56	225.55
875.87	225.54
876.18	225.57
876.49	225.68
876.80	225.69
877.11	225.66
877.42	225.66
877.73	225.65
878.04	225.64
878.35	225.63
878.66	225.63
878.96	225.59
879.27	225.57
879.58	225.55
879.89	225.58
880.20	225.62
880.51	225.63
880.82	225.65
881.12	225.65
881.43	225.65
881.74	225.64
882.05	225.65
882.36	225.67
882.67	225.65
882.97	225.51
883.28	225.50
883.59	225.52
883.90	225.54
884.21	225.54
884.51	225.52
884.82	225.56
885.13	225.53
885.44	225.55
885.74	225.54
886.05	225.53
886.36	225.52
886.67	225.47
886.98	225.51
887.28	225.51
887.59	225.49
887.90	225.45
888.20	225.45
888.51	225.45
888.82	225.41
889.13	225.41
889.43	225.51
889.74	225.48
890.05	225.47
890.35	225.45
890.66	225.42
890.97	225.41
891.28	225.36
891.58	225.33
891.89	225.32
892.20	225.32
892.50	225.33
892.81	225.29
893.12	225.28
893.42	225.24
893.73	225.25
894.04	225.30
894.34	225.32
894.65	225.30
894.95	225.31
895.26	225.29
895.57	225.34
895.87	225.25
896.18	225.27
896.48	225.26
896.79	225.28
897.10	225.29
897.40	225.28
897.71	225.31
898.01	225.31
898.32	225.32
898.63	225.33
898.93	225.35
899.24	225.36
899.54	225.35
899.85	225.32
900.15	225.31
900.46	225.26
900.76	225.27
901.07	225.26
901.38	225.26
901.68	225.29
901.99	225.24
902.29	225.25
902.60	225.27
902.90	225.26
903.21	225.23
903.51	225.22
903.82	225.23
904.12	225.23
904.43	225.24
904.73	225.26
905.03	225.20
905.34	225.26
905.64	225.27
905.95	225.28
906.25	225.29
906.56	225.30
906.86	225.32
907.17	225.31
907.47	225.31
907.77	225.29
908.08	225.24
908.38	225.27
908.69	225.26
908.99	225.23
909.30	225.22
909.60	225.23
909.90	225.25
910.21	225.23
910.51	225.20
910.81	225.18
911.12	225.19
911.42	225.22
911.73	225.14
912.03	225.13
912.33	225.16
912.64	225.14
912.94	225.12
913.24	225.10
913.55	225.07
913.85	225.07
914.15	225.12
914.46	225.13
914.76	225.10
915.06	225.09
915.37	225.07
915.67	225.05
915.97	225.04
916.27	225.01
916.58	225.02
916.88	225.03
917.18	225.04
917.49	225.08
917.79	225.09
918.09	225.11
918.39	225.10
918.70	225.06
919.00	225.07
919.30	225.14
919.60	225.11
919.91	225.08
920.21	225.11
920.51	225.08
920.81	225.07
921.12	225.08
921.42	225.07
921.72	225.08
922.02	225.12
922.32	225.12
922.63	225.11
922.93	225.14
923.23	225.15
923.53	225.16
923.83	225.07
924.13	225.08
924.44	225.06
924.74	225.11
925.04	225.13
925.34	225.11
925.64	225.04
925.94	225.08
926.24	225.16
926.55	225.12
926.85	225.10
927.15	225.14
927.45	225.13
927.75	225.13
928.05	225.13
928.35	225.10
928.65	225.15
928.95	225.15
929.26	225.16
929.56	225.18
929.86	225.16
930.16	225.15
930.46	225.13
930.76	225.14
931.06	225.10
931.36	225.08
931.66	225.09
931.96	225.10
932.26	225.07
932.56	225.03
932.86	225.06
933.16	225.09
933.46	225.08
933.76	225.10
934.06	225.15
934.36	225.20
934.66	225.20
934.96	225.17
935.26	225.19
935.56	225.18
935.86	225.14
936.16	225.16
936.46	225.13
936.76	225.13
937.06	225.11
937.36	225.13
937.66	225.13
937.96	225.14
938.26	225.13
938.56	225.18
938.86	225.18
939.16	225.22
939.46	225.21
939.76	225.22
940.06	225.22
940.35	225.17
940.65	225.13
940.95	225.16
941.25	225.12
941.55	225.12
941.85	225.15
942.15	225.18
942.45	225.20
942.75	225.24
943.04	225.26
943.34	225.31
943.64	225.30
943.94	225.31
944.24	225.33
944.54	225.35
944.84	225.33
945.13	225.32
945.43	225.32
945.73	225.32
946.03	225.31
946.33	225.29
946.62	225.30
946.92	225.29
947.22	225.32
947.52	225.36
947.82	225.35
948.11	225.34
948.41	225.31
948.71	225.30
949.01	225.30
949.31	225.27
949.60	225.25
949.90	225.25
950.20	225.26
950.50	225.24
950.79	225.22
951.09	225.21
951.39	225.22
951.69	225.20
951.98	225.21
952.28	225.23
952.58	225.20
952.87	225.20
953.17	225.22
953.47	225.17
953.76	225.16
954.06	225.15
954.36	225.10
954.66	225.10
954.95	225.12
955.25	225.14
955.55	225.18
955.84	225.17
956.14	225.20
956.44	225.20
956.73	225.16
957.03	225.18
957.32	225.21
957.62	225.20
957.92	225.23
958.21	225.21
958.51	225.30
958.81	225.35
959.10	225.35
959.40	225.35
959.69	225.36
959.99	225.38
960.29	225.38
960.58	225.40
960.88	225.43
961.17	225.39
961.47	225.38
961.76	225.34
962.06	225.33
962.36	225.30
962.65	225.29
962.95	225.31
963.24	225.28
963.54	225.29
963.83	225.33
964.13	225.30
964.42	225.27
964.72	225.18
965.01	225.19
965.31	225.20
965.60	225.16
965.90	225.22
966.19	225.18
966.49	225.17
966.78	225.17
967.08	225.17
967.37	225.19
967.67	225.16
967.96	225.18
968.26	225.18
968.55	225.22
968.85	225.22
969.14	225.19
969.43	225.20
969.73	225.15
970.02	225.10
970.32	225.09
970.61	225.11
970.91	225.12
971.20	225.10
971.49	225.07
971.79	225.08
972.08	224.99
972.38	225.02
972.67	225.02
972.96	225.03
973.26	225.03
973.55	225.05
973.85	225.03
974.14	225.02
974.43	224.99
974.73	224.93
975.02	224.94
975.31	224.93
975.61	224.91
975.90	224.92
976.19	224.89
976.49	224.89
976.78	224.88
977.07	224.84
977.37	224.81
977.66	224.83
977.95	224.83
978.24	224.83
978.54	224.85
978.83	224.85
979.12	224.85
979.42	224.85
979.71	224.82
980.00	224.83
980.29	224.84
980.59	224.84
980.88	224.89
981.17	224.86
981.46	224.89
981.76	224.88
982.05	224.90
982.34	224.94
982.63	224.93
982.93	224.92
983.22	224.93
983.51	224.92
983.80	224.95
984.09	224.96
984.39	224.94
984.68	224.94
984.97	224.94
985.26	224.92
985.55	224.90
985.85	224.88
986.14	224.90
986.43	224.91
986.72	224.92
987.01	224.89
987.30	224.88
987.59	224.88
987.89	224.90
988.18	224.88
988.47	224.86
988.76	224.86
989.05	224.86
989.34	224.88
989.63	224.92
989.92	224.90
990.22	224.89
990.51	224.91
990.80	224.89
991.09	224.92
991.38	224.92
991.67	224.94
991.96	224.95
992.25	224.99
992.54	224.94
992.83	224.93
993.12	224.91
993.41	224.95
993.70	224.98
993.99	224.99
994.28	225.01
994.58	225.02
994.87	225.02
995.16	225.01
995.45	224.98
995.74	224.95
996.03	224.97
996.32	224.98
996.61	225.01
996.90	225.00
997.19	224.99
997.48	225.01
997.77	224.98
998.06	224.93
998.34	224.95
998.63	224.95
998.92	224.98
999.21	224.99
999.50	225.00
999.79	225.00
1000.08	225.00
1000.37	224.98
1000.66	225.00
1000.95	225.03
1001.24	225.06
1001.53	225.11
1001.82	225.11
1002.11	225.10
1002.40	225.11
1002.68	225.13
1002.97	225.20
1003.26	225.19
1003.55	225.14
1003.84	225.16
1004.13	225.23
1004.42	225.21
1004.71	225.26
1004.99	225.26
1005.28	225.30
1005.57	225.32
1005.86	225.29
1006.15	225.30
1006.44	225.29
1006.72	225.27
1007.01	225.22
1007.30	225.20
1007.59	225.16
1007.88	225.16
1008.17	225.14
1008.45	225.10
1008.74	225.05
1009.03	225.00
1009.32	224.99
1009.60	225.01
1009.89	224.99
1010.18	224.92
1010.47	224.89
1010.76	224.86
1011.04	224.84
1011.33	224.86
1011.62	224.84
1011.91	224.83
1012.19	224.81
1012.48	224.80
1012.77	224.81
1013.05	224.89
1013.34	224.90
1013.63	224.89
1013.92	224.85
1014.20	224.85
1014.49	224.87
1014.78	224.86
1015.06	224.83
1015.35	224.83
1015.64	224.83
1015.92	224.83
1016.21	224.84
1016.50	224.87
1016.78	224.85
1017.07	224.86
1017.36	224.78
1017.64	224.79
1017.93	224.79
1018.22	224.78
1018.50	224.81
1018.79	224.79
1019.08	224.75
1019.36	224.74
1019.65	224.74
1019.93	224.76
1020.22	224.78
1020.51	224.81
1020.79	224.82
1021.08	224.79
1021.36	225.00
1021.65	224.69
1021.94	225.12
1022.22	224.66
1022.51	224.58
1022.79	224.69
1023.08	225.01
1023.36	225.88
1023.65	224.36
>>>>>End Processed Spectral Data<<<<<
