SpectraSuite Data File
++++++++++++++++++++++++++++++++++++
Date: Fri Feb 01 14:53:38 EST 2013
User: group
Dark Spectrum Present: No
Reference Spectrum Present: No
Number of Sampled Component Spectra: 1
Spectrometers: USB2E7196
Integration Time (usec): 35000 (USB2E7196)
Spectra Averaged: 100 (USB2E7196)
Boxcar Smoothing: 10 (USB2E7196)
Correct for Electrical Dark: No (USB2E7196)
Strobe/Lamp Enabled: No (USB2E7196)
Correct for Detector Non-linearity: No (USB2E7196)
Correct for Stray Light: No (USB2E7196)
Number of Pixels in Processed Spectrum: 2048
>>>>>Begin Processed Spectral Data<<<<<
339.09	0.00
339.48	215.48
339.86	217.09
340.24	218.33
340.63	220.29
341.01	222.49
341.39	222.73
341.78	224.06
342.16	224.63
342.54	225.68
342.93	213.85
343.31	224.65
343.69	225.21
344.07	225.66
344.46	226.08
344.84	226.43
345.22	226.69
345.60	226.91
345.99	227.10
346.37	227.26
346.75	227.36
347.13	227.43
347.52	227.50
347.90	227.56
348.28	227.61
348.66	227.64
349.05	227.65
349.43	227.66
349.81	227.71
350.19	227.75
350.57	227.80
350.96	227.86
351.34	227.96
351.72	228.04
352.10	228.17
352.48	228.26
352.87	228.33
353.25	228.39
353.63	228.43
354.01	228.49
354.39	228.55
354.77	228.63
355.15	228.75
355.54	228.80
355.92	228.88
356.30	228.95
356.68	229.09
357.06	229.15
357.44	229.22
357.82	229.26
358.20	229.33
358.58	229.42
358.97	229.50
359.35	229.57
359.73	229.62
360.11	229.65
360.49	229.67
360.87	229.69
361.25	229.69
361.63	229.81
362.01	229.85
362.39	229.85
362.77	229.86
363.15	229.85
363.53	229.87
363.91	229.86
364.29	229.85
364.67	229.75
365.05	229.77
365.43	229.80
365.81	229.80
366.19	229.84
366.57	229.83
366.95	229.79
367.33	229.76
367.71	229.75
368.09	229.73
368.47	229.72
368.85	229.71
369.23	229.71
369.61	229.60
369.99	229.58
370.37	229.59
370.75	229.57
371.13	229.50
371.51	229.43
371.89	229.39
372.27	229.34
372.65	229.28
373.03	229.20
373.41	229.12
373.78	229.02
374.16	228.93
374.54	228.87
374.92	228.78
375.30	228.69
375.68	228.61
376.06	228.54
376.44	228.47
376.82	228.39
377.19	228.31
377.57	228.28
377.95	228.18
378.33	228.08
378.71	227.97
379.09	227.92
379.47	227.86
379.84	227.74
380.22	227.66
380.60	227.55
380.98	227.48
381.36	227.39
381.73	227.33
382.11	227.28
382.49	227.18
382.87	227.11
383.25	227.07
383.62	227.11
384.00	227.04
384.38	226.96
384.76	226.91
385.13	226.92
385.51	226.85
385.89	226.81
386.27	226.74
386.64	226.69
387.02	226.66
387.40	226.62
387.78	226.60
388.15	226.56
388.53	226.54
388.91	226.50
389.29	226.49
389.66	226.48
390.04	226.43
390.42	226.46
390.79	226.45
391.17	226.43
391.55	226.31
391.92	226.28
392.30	226.28
392.68	226.25
393.05	226.21
393.43	226.23
393.81	226.25
394.18	226.27
394.56	226.31
394.94	226.35
395.31	226.39
395.69	226.48
396.06	226.52
396.44	226.54
396.82	226.61
397.19	226.70
397.57	226.73
397.95	226.80
398.32	226.81
398.70	226.85
399.07	226.93
399.45	227.00
399.82	227.07
400.20	227.12
400.58	227.21
400.95	227.29
401.33	227.40
401.70	227.55
402.08	227.66
402.45	227.77
402.83	227.89
403.20	228.01
403.58	228.11
403.95	228.28
404.33	228.44
404.71	228.59
405.08	228.76
405.46	228.89
405.83	229.06
406.21	229.23
406.58	229.45
406.96	229.60
407.33	229.80
407.70	230.05
408.08	230.32
408.45	230.61
408.83	230.87
409.20	231.06
409.58	231.28
409.95	231.54
410.33	231.86
410.70	232.12
411.08	232.39
411.45	232.71
411.82	233.00
412.20	233.38
412.57	233.82
412.95	234.14
413.32	234.58
413.69	235.00
414.07	235.46
414.44	235.94
414.82	236.45
415.19	236.98
415.56	237.52
415.94	238.09
416.31	238.66
416.68	239.26
417.06	239.99
417.43	240.65
417.81	241.45
418.18	242.16
418.55	243.01
418.93	243.90
419.30	244.76
419.67	245.73
420.04	246.64
420.42	247.61
420.79	248.75
421.16	249.90
421.54	251.11
421.91	252.32
422.28	253.55
422.66	254.85
423.03	256.15
423.40	257.45
423.77	258.86
424.15	260.30
424.52	261.81
424.89	263.40
425.26	264.97
425.64	266.37
426.01	267.97
426.38	269.63
426.75	271.30
427.13	273.05
427.50	274.80
427.87	276.69
428.24	278.55
428.61	280.33
428.99	282.29
429.36	284.35
429.73	286.40
430.10	288.42
430.47	290.49
430.85	292.61
431.22	294.89
431.59	297.27
431.96	299.51
432.33	301.97
432.70	304.38
433.08	307.20
433.45	309.87
433.82	312.48
434.19	315.37
434.56	318.17
434.93	320.79
435.30	323.43
435.68	326.36
436.05	329.17
436.42	331.91
436.79	334.47
437.16	337.16
437.53	339.99
437.90	342.82
438.27	345.58
438.64	348.43
439.01	350.98
439.38	353.22
439.75	355.37
440.13	357.82
440.50	360.13
440.87	361.95
441.24	363.85
441.61	366.02
441.98	367.51
442.35	369.33
442.72	371.20
443.09	373.00
443.46	373.96
443.83	374.59
444.20	375.15
444.57	375.96
444.94	376.27
445.31	376.67
445.68	377.02
446.05	377.07
446.42	376.66
446.79	376.27
447.16	375.85
447.53	375.55
447.90	374.42
448.27	373.28
448.64	371.71
449.01	370.63
449.37	368.65
449.74	366.73
450.11	364.48
450.48	362.04
450.85	359.50
451.22	357.35
451.59	355.33
451.96	353.34
452.33	350.71
452.70	348.31
453.07	345.40
453.43	342.52
453.80	339.75
454.17	337.12
454.54	334.56
454.91	331.80
455.28	329.14
455.65	326.70
456.02	324.26
456.38	322.11
456.75	319.42
457.12	317.20
457.49	314.94
457.86	312.76
458.23	310.94
458.59	308.95
458.96	306.88
459.33	305.02
459.70	303.19
460.07	301.69
460.43	299.96
460.80	298.37
461.17	296.90
461.54	295.42
461.91	293.96
462.27	292.54
462.64	291.31
463.01	289.95
463.38	288.61
463.74	287.27
464.11	286.09
464.48	285.06
464.85	283.93
465.21	283.08
465.58	282.13
465.95	281.01
466.32	280.06
466.68	279.14
467.05	278.24
467.42	277.35
467.78	276.43
468.15	275.58
468.52	274.92
468.88	274.06
469.25	273.30
469.62	272.66
469.98	271.96
470.35	271.35
470.72	270.72
471.08	270.08
471.45	269.49
471.82	268.94
472.18	268.33
472.55	267.90
472.92	267.36
473.28	266.89
473.65	266.44
474.02	265.98
474.38	265.63
474.75	265.30
475.11	264.92
475.48	264.64
475.85	264.42
476.21	264.16
476.58	263.97
476.94	263.83
477.31	263.64
477.67	263.48
478.04	263.30
478.41	263.28
478.77	263.30
479.14	263.20
479.50	263.23
479.87	263.29
480.23	263.37
480.60	263.40
480.96	263.47
481.33	263.64
481.69	263.85
482.06	264.01
482.42	264.15
482.79	264.45
483.15	264.76
483.52	265.10
483.88	265.41
484.25	265.79
484.61	266.12
484.98	266.58
485.34	267.10
485.71	267.71
486.07	268.26
486.44	268.81
486.80	269.51
487.17	270.21
487.53	271.01
487.90	271.84
488.26	272.80
488.62	273.84
488.99	274.79
489.35	275.80
489.72	276.88
490.08	278.09
490.44	279.28
490.81	280.61
491.17	281.90
491.54	283.39
491.90	284.91
492.26	286.54
492.63	288.24
492.99	290.00
493.36	291.88
493.72	293.92
494.08	296.04
494.45	298.27
494.81	300.61
495.17	303.00
495.54	305.48
495.90	308.10
496.26	310.87
496.63	313.81
496.99	316.92
497.35	320.21
497.72	323.58
498.08	327.04
498.44	330.67
498.80	334.61
499.17	338.62
499.53	342.78
499.89	347.15
500.26	351.57
500.62	356.26
500.98	361.15
501.34	366.18
501.71	371.40
502.07	376.81
502.43	382.35
502.79	388.12
503.16	394.17
503.52	400.41
503.88	406.78
504.24	413.40
504.60	420.22
504.97	427.29
505.33	434.57
505.69	442.24
506.05	449.99
506.41	457.87
506.78	465.95
507.14	474.32
507.50	483.01
507.86	492.09
508.22	501.19
508.59	510.34
508.95	519.83
509.31	529.66
509.67	539.75
510.03	550.02
510.39	560.63
510.75	571.43
511.12	582.38
511.48	593.60
511.84	605.02
512.20	616.57
512.56	628.54
512.92	640.74
513.28	653.07
513.64	665.54
514.00	678.14
514.37	691.17
514.73	704.22
515.09	717.24
515.45	730.46
515.81	744.15
516.17	758.11
516.53	772.28
516.89	786.42
517.25	800.55
517.61	814.97
517.97	829.45
518.33	843.94
518.69	858.68
519.05	873.71
519.41	888.98
519.77	904.48
520.13	919.91
520.49	935.26
520.85	950.72
521.21	966.46
521.57	982.84
521.93	998.65
522.29	1015.10
522.65	1031.38
523.01	1047.67
523.37	1063.65
523.73	1080.00
524.09	1096.12
524.45	1112.56
524.81	1129.35
525.17	1146.31
525.53	1163.17
525.89	1179.96
526.25	1196.86
526.61	1213.39
526.97	1230.06
527.33	1246.57
527.68	1263.31
528.04	1279.93
528.40	1296.63
528.76	1313.75
529.12	1330.36
529.48	1347.32
529.84	1363.41
530.20	1380.15
530.56	1397.25
530.91	1414.73
531.27	1431.59
531.63	1448.29
531.99	1465.00
532.35	1481.04
532.71	1496.83
533.07	1513.19
533.42	1529.20
533.78	1545.31
534.14	1561.61
534.50	1577.00
534.86	1593.12
535.21	1608.18
535.57	1624.23
535.93	1639.74
536.29	1654.59
536.65	1669.83
537.00	1684.74
537.36	1700.08
537.72	1714.72
538.08	1729.20
538.44	1743.02
538.79	1756.91
539.15	1770.59
539.51	1784.41
539.87	1798.92
540.22	1812.89
540.58	1826.73
540.94	1840.29
541.29	1853.31
541.65	1866.07
542.01	1879.56
542.37	1891.76
542.72	1904.42
543.08	1916.10
543.44	1928.58
543.79	1939.97
544.15	1950.82
544.51	1962.32
544.87	1973.34
545.22	1984.11
545.58	1994.46
545.94	2004.31
546.29	2014.29
546.65	2024.07
547.01	2033.27
547.36	2042.01
547.72	2050.43
548.07	2058.47
548.43	2066.63
548.79	2074.61
549.14	2082.18
549.50	2089.42
549.86	2097.29
550.21	2104.62
550.57	2111.87
550.92	2118.55
551.28	2125.61
551.64	2132.76
551.99	2139.24
552.35	2145.40
552.70	2151.63
553.06	2157.48
553.41	2163.72
553.77	2169.77
554.13	2175.87
554.48	2181.91
554.84	2187.23
555.19	2192.47
555.55	2197.42
555.90	2201.84
556.26	2206.59
556.61	2211.27
556.97	2215.44
557.32	2219.49
557.68	2223.43
558.03	2227.66
558.39	2231.19
558.74	2235.64
559.10	2239.33
559.45	2242.87
559.81	2247.10
560.16	2250.70
560.52	2253.74
560.87	2257.18
561.23	2259.74
561.58	2262.61
561.94	2265.09
562.29	2267.27
562.64	2269.74
563.00	2272.30
563.35	2275.59
563.71	2278.69
564.06	2281.67
564.42	2284.49
564.77	2286.73
565.12	2288.81
565.48	2290.54
565.83	2292.11
566.19	2293.19
566.54	2294.07
566.89	2295.08
567.25	2295.38
567.60	2296.59
567.96	2298.19
568.31	2298.82
568.66	2299.53
569.02	2299.87
569.37	2300.00
569.72	2300.72
570.08	2300.77
570.43	2300.47
570.78	2299.53
571.14	2297.77
571.49	2296.19
571.84	2295.53
572.20	2294.10
572.55	2292.89
572.90	2290.98
573.26	2289.30
573.61	2287.44
573.96	2285.46
574.31	2282.23
574.67	2279.06
575.02	2275.19
575.37	2271.56
575.72	2267.40
576.08	2264.06
576.43	2260.52
576.78	2256.60
577.13	2253.22
577.49	2250.06
577.84	2246.44
578.19	2242.68
578.54	2238.83
578.90	2234.45
579.25	2228.85
579.60	2223.90
579.95	2218.68
580.30	2213.52
580.66	2208.35
581.01	2203.23
581.36	2198.07
581.71	2193.82
582.06	2189.23
582.42	2184.72
582.77	2179.32
583.12	2174.67
583.47	2169.53
583.82	2164.39
584.17	2159.06
584.53	2153.31
584.88	2147.39
585.23	2141.35
585.58	2135.77
585.93	2130.23
586.28	2125.34
586.63	2120.00
586.98	2114.78
587.34	2110.11
587.69	2105.14
588.04	2099.71
588.39	2093.94
588.74	2087.37
589.09	2081.06
589.44	2074.13
589.79	2067.97
590.14	2062.25
590.49	2055.47
590.84	2048.93
591.19	2042.70
591.54	2036.11
591.89	2028.63
592.25	2021.62
592.60	2014.42
592.95	2006.61
593.30	1999.10
593.65	1991.33
594.00	1984.14
594.35	1976.69
594.70	1968.37
595.05	1961.11
595.40	1953.97
595.75	1946.36
596.10	1940.03
596.45	1933.08
596.80	1926.76
597.15	1919.89
597.50	1912.68
597.85	1906.28
598.19	1899.79
598.54	1892.75
598.89	1885.96
599.24	1880.10
599.59	1873.43
599.94	1867.19
600.29	1860.94
600.64	1854.19
600.99	1846.75
601.34	1839.86
601.69	1832.89
602.04	1826.00
602.39	1818.65
602.74	1811.66
603.08	1804.96
603.43	1798.21
603.78	1790.95
604.13	1783.79
604.48	1776.65
604.83	1769.96
605.18	1763.00
605.53	1754.95
605.87	1746.95
606.22	1739.84
606.57	1731.89
606.92	1724.68
607.27	1717.44
607.62	1710.58
607.96	1703.47
608.31	1697.04
608.66	1689.55
609.01	1681.95
609.36	1674.51
609.70	1666.61
610.05	1658.56
610.40	1650.96
610.75	1642.68
611.10	1635.06
611.44	1626.76
611.79	1618.73
612.14	1609.99
612.49	1600.92
612.83	1592.67
613.18	1584.53
613.53	1576.30
613.88	1567.85
614.22	1559.56
614.57	1551.04
614.92	1542.98
615.27	1535.49
615.61	1527.10
615.96	1519.15
616.31	1511.62
616.65	1504.22
617.00	1496.61
617.35	1488.99
617.70	1480.63
618.04	1472.19
618.39	1464.05
618.74	1456.55
619.08	1448.29
619.43	1440.83
619.78	1434.03
620.12	1426.87
620.47	1419.46
620.82	1411.46
621.16	1404.12
621.51	1396.61
621.85	1389.08
622.20	1380.73
622.55	1372.46
622.89	1364.64
623.24	1357.12
623.59	1349.89
623.93	1342.56
624.28	1335.38
624.62	1327.85
624.97	1320.74
625.32	1313.99
625.66	1307.12
626.01	1299.94
626.35	1292.67
626.70	1284.87
627.04	1277.17
627.39	1269.47
627.73	1262.05
628.08	1255.18
628.43	1247.91
628.77	1240.59
629.12	1233.09
629.46	1225.91
629.81	1218.58
630.15	1211.50
630.50	1204.19
630.84	1195.93
631.19	1187.98
631.53	1180.58
631.88	1173.09
632.22	1165.62
632.57	1158.49
632.91	1150.98
633.26	1143.71
633.60	1136.33
633.95	1129.39
634.29	1122.38
634.64	1115.73
634.98	1108.51
635.32	1101.45
635.67	1094.93
636.01	1088.35
636.36	1081.60
636.70	1075.14
637.05	1068.62
637.39	1062.21
637.73	1055.79
638.08	1050.10
638.42	1044.30
638.77	1037.95
639.11	1031.54
639.45	1025.29
639.80	1018.66
640.14	1012.36
640.49	1005.81
640.83	999.56
641.17	993.44
641.52	987.24
641.86	980.87
642.20	975.09
642.55	968.88
642.89	962.52
643.23	956.10
643.58	950.39
643.92	944.28
644.26	938.22
644.61	932.26
644.95	926.28
645.29	919.64
645.64	912.83
645.98	906.57
646.32	900.79
646.66	894.79
647.01	889.02
647.35	883.39
647.69	877.63
648.04	872.20
648.38	866.43
648.72	860.38
649.06	854.32
649.41	848.47
649.75	842.47
650.09	836.58
650.43	830.70
650.78	824.63
651.12	818.73
651.46	813.08
651.80	807.32
652.14	801.92
652.49	796.62
652.83	791.51
653.17	785.87
653.51	780.08
653.85	774.65
654.20	769.05
654.54	763.06
654.88	757.34
655.22	751.42
655.56	745.79
655.90	740.45
656.25	735.25
656.59	729.98
656.93	725.01
657.27	719.81
657.61	714.51
657.95	709.43
658.29	704.32
658.64	699.09
658.98	693.83
659.32	688.41
659.66	683.26
660.00	678.02
660.34	673.11
660.68	668.30
661.02	663.30
661.36	658.62
661.70	654.20
662.05	649.94
662.39	645.69
662.73	641.29
663.07	636.98
663.41	632.62
663.75	628.20
664.09	623.67
664.43	619.36
664.77	615.34
665.11	611.15
665.45	607.14
665.79	603.15
666.13	599.12
666.47	595.06
666.81	590.97
667.15	586.83
667.49	582.95
667.83	579.16
668.17	575.29
668.51	571.34
668.85	567.29
669.19	563.45
669.53	559.66
669.87	555.80
670.21	552.08
670.55	548.48
670.89	545.03
671.23	541.62
671.57	538.16
671.91	534.62
672.25	531.19
672.58	527.72
672.92	524.38
673.26	521.32
673.60	518.24
673.94	515.21
674.28	512.36
674.62	509.48
674.96	506.45
675.30	503.56
675.64	500.64
675.97	497.93
676.31	495.15
676.65	492.29
676.99	489.65
677.33	486.85
677.67	484.05
678.01	481.05
678.34	478.16
678.68	475.36
679.02	472.56
679.36	469.83
679.70	467.12
680.04	464.37
680.37	461.45
680.71	458.71
681.05	456.12
681.39	453.46
681.73	450.87
682.06	448.38
682.40	445.84
682.74	443.36
683.08	440.84
683.42	438.27
683.75	435.80
684.09	433.27
684.43	430.82
684.77	428.44
685.10	426.18
685.44	423.90
685.78	421.64
686.12	419.45
686.45	417.16
686.79	414.90
687.13	412.76
687.46	410.68
687.80	408.51
688.14	406.34
688.48	404.29
688.81	402.02
689.15	399.90
689.49	397.84
689.82	395.76
690.16	393.71
690.50	391.74
690.83	389.82
691.17	387.84
691.51	385.93
691.84	384.07
692.18	382.13
692.52	380.16
692.85	378.20
693.19	376.34
693.52	374.47
693.86	372.71
694.20	370.91
694.53	369.09
694.87	367.23
695.21	365.43
695.54	363.64
695.88	361.96
696.21	360.23
696.55	358.52
696.88	356.81
697.22	355.14
697.56	353.55
697.89	351.90
698.23	350.34
698.56	348.76
698.90	347.18
699.23	345.51
699.57	343.98
699.90	342.46
700.24	340.93
700.58	339.45
700.91	337.92
701.25	336.48
701.58	335.13
701.92	333.84
702.25	332.49
702.59	331.16
702.92	329.81
703.26	328.55
703.59	327.29
703.93	326.13
704.26	324.90
704.60	323.60
704.93	322.37
705.26	321.11
705.60	319.95
705.93	318.82
706.27	317.85
706.60	316.83
706.94	315.73
707.27	314.61
707.61	313.58
707.94	312.56
708.27	311.48
708.61	310.39
708.94	309.36
709.28	308.41
709.61	307.46
709.94	306.53
710.28	305.50
710.61	304.52
710.95	303.47
711.28	302.58
711.61	301.69
711.95	300.80
712.28	299.92
712.61	298.97
712.95	298.05
713.28	297.17
713.61	296.25
713.95	295.37
714.28	294.55
714.61	293.71
714.95	292.90
715.28	292.06
715.61	291.21
715.95	290.38
716.28	289.53
716.61	288.70
716.95	287.92
717.28	287.23
717.61	286.48
717.94	285.80
718.28	285.03
718.61	284.31
718.94	283.62
719.27	282.96
719.61	282.31
719.94	281.69
720.27	280.98
720.60	280.39
720.94	279.83
721.27	279.22
721.60	278.65
721.93	278.07
722.27	277.54
722.60	277.02
722.93	276.47
723.26	275.95
723.59	275.43
723.93	274.88
724.26	274.31
724.59	273.80
724.92	273.27
725.25	272.76
725.59	272.21
725.92	271.70
726.25	271.17
726.58	270.69
726.91	270.15
727.24	269.68
727.57	269.17
727.91	268.64
728.24	268.19
728.57	267.70
728.90	267.23
729.23	266.75
729.56	266.31
729.89	265.84
730.22	265.34
730.55	264.87
730.89	264.41
731.22	263.98
731.55	263.56
731.88	263.10
732.21	262.68
732.54	262.25
732.87	261.81
733.20	261.41
733.53	261.00
733.86	260.65
734.19	260.24
734.52	259.86
734.85	259.54
735.18	259.12
735.51	258.74
735.84	258.37
736.17	258.01
736.50	257.62
736.83	257.36
737.16	257.02
737.49	256.66
737.82	256.32
738.15	255.94
738.48	255.58
738.81	255.26
739.14	254.93
739.47	254.66
739.80	254.31
740.13	254.01
740.46	253.66
740.79	253.29
741.12	252.96
741.45	252.61
741.78	252.26
742.11	251.97
742.44	251.63
742.77	251.33
743.10	250.99
743.43	250.66
743.75	250.27
744.08	250.14
744.41	249.86
744.74	249.57
745.07	249.31
745.40	249.03
745.73	248.77
746.06	248.49
746.39	248.21
746.71	247.95
747.04	247.67
747.37	247.44
747.70	247.21
748.03	246.99
748.36	246.78
748.68	246.57
749.01	246.32
749.34	246.11
749.67	245.88
750.00	245.66
750.33	245.55
750.65	245.34
750.98	244.98
751.31	244.74
751.64	244.56
751.97	244.41
752.29	244.18
752.62	243.98
752.95	243.77
753.28	243.57
753.60	243.36
753.93	243.20
754.26	243.02
754.59	242.84
754.91	242.60
755.24	242.46
755.57	242.28
755.90	242.12
756.22	241.96
756.55	241.78
756.88	241.62
757.20	241.41
757.53	241.24
757.86	241.09
758.19	240.98
758.51	240.82
758.84	240.66
759.17	240.55
759.49	240.41
759.82	240.34
760.15	240.18
760.47	240.10
760.80	239.94
761.13	239.82
761.45	239.68
761.78	239.60
762.11	239.43
762.43	239.33
762.76	239.21
763.08	239.10
763.41	239.01
763.74	238.87
764.06	238.72
764.39	238.57
764.71	238.45
765.04	238.33
765.37	238.17
765.69	237.98
766.02	237.86
766.34	237.71
766.67	237.55
767.00	237.47
767.32	237.37
767.65	237.34
767.97	237.24
768.30	237.11
768.62	236.98
768.95	236.86
769.27	236.70
769.60	236.60
769.92	236.41
770.25	236.27
770.57	236.18
770.90	236.08
771.22	236.00
771.55	235.89
771.87	235.76
772.20	235.67
772.52	235.66
772.85	235.65
773.17	235.55
773.50	235.46
773.82	235.32
774.15	235.17
774.47	234.99
774.80	234.85
775.12	234.75
775.45	234.66
775.77	234.56
776.09	234.47
776.42	234.36
776.74	234.32
777.07	234.21
777.39	234.12
777.72	234.02
778.04	233.90
778.36	233.80
778.69	233.76
779.01	233.70
779.33	233.53
779.66	233.35
779.98	233.26
780.31	233.16
780.63	233.14
780.95	233.09
781.28	232.97
781.60	232.90
781.92	232.85
782.25	232.76
782.57	232.69
782.89	232.64
783.22	232.56
783.54	232.45
783.86	232.42
784.19	232.31
784.51	232.28
784.83	232.22
785.16	232.18
785.48	232.10
785.80	232.06
786.12	231.99
786.45	231.93
786.77	231.91
787.09	231.88
787.42	231.80
787.74	231.75
788.06	231.73
788.38	231.65
788.71	231.58
789.03	231.56
789.35	231.54
789.67	231.49
789.99	231.49
790.32	231.44
790.64	231.41
790.96	231.49
791.28	231.44
791.61	231.43
791.93	231.37
792.25	231.32
792.57	231.34
792.89	231.34
793.21	231.32
793.54	231.27
793.86	231.23
794.18	231.19
794.50	231.15
794.82	231.13
795.14	231.14
795.47	231.16
795.79	231.11
796.11	231.07
796.43	231.04
796.75	230.99
797.07	230.98
797.39	230.96
797.71	230.85
798.04	230.83
798.36	230.82
798.68	230.81
799.00	230.85
799.32	230.79
799.64	230.77
799.96	230.76
800.28	230.74
800.60	230.75
800.92	230.75
801.24	230.75
801.56	230.72
801.89	230.68
802.21	230.67
802.53	230.65
802.85	230.64
803.17	230.67
803.49	230.67
803.81	230.64
804.13	230.63
804.45	230.58
804.77	230.54
805.09	230.51
805.41	230.46
805.73	230.39
806.05	230.33
806.37	230.33
806.69	230.33
807.01	230.32
807.33	230.28
807.65	230.22
807.97	230.23
808.28	230.19
808.60	230.15
808.92	230.09
809.24	230.14
809.56	230.11
809.88	230.03
810.20	230.00
810.52	229.98
810.84	229.93
811.16	229.95
811.48	229.95
811.80	229.97
812.12	229.94
812.43	229.91
812.75	229.88
813.07	229.80
813.39	229.77
813.71	229.72
814.03	229.65
814.35	229.63
814.67	229.57
814.98	229.53
815.30	229.49
815.62	229.47
815.94	229.39
816.26	229.35
816.58	229.29
816.89	229.23
817.21	229.19
817.53	229.14
817.85	229.08
818.17	229.02
818.48	228.93
818.80	228.95
819.12	228.90
819.44	228.86
819.76	228.82
820.07	228.76
820.39	228.71
820.71	228.71
821.03	228.71
821.34	228.65
821.66	228.63
821.98	228.65
822.30	228.60
822.61	228.60
822.93	228.57
823.25	228.57
823.57	228.52
823.88	228.52
824.20	228.54
824.52	228.54
824.83	228.53
825.15	228.50
825.47	228.42
825.79	228.43
826.10	228.39
826.42	228.37
826.74	228.39
827.05	228.40
827.37	228.37
827.69	228.29
828.00	228.28
828.32	228.28
828.64	228.25
828.95	228.30
829.27	228.27
829.58	228.25
829.90	228.25
830.22	228.28
830.53	228.26
830.85	228.22
831.17	228.19
831.48	228.22
831.80	228.25
832.11	228.27
832.43	228.24
832.75	228.27
833.06	228.34
833.38	228.29
833.69	228.28
834.01	228.31
834.32	228.37
834.64	228.36
834.96	228.36
835.27	228.36
835.59	228.33
835.90	228.36
836.22	228.36
836.53	228.35
836.85	228.36
837.16	228.44
837.48	228.49
837.79	228.53
838.11	228.52
838.42	228.51
838.74	228.53
839.05	228.56
839.37	228.54
839.68	228.54
840.00	228.57
840.31	228.62
840.63	228.62
840.94	228.57
841.26	228.61
841.57	228.63
841.88	228.62
842.20	228.61
842.51	228.57
842.83	228.63
843.14	228.69
843.46	228.69
843.77	228.64
844.08	228.61
844.40	228.55
844.71	228.54
845.03	228.54
845.34	228.54
845.65	228.51
845.97	228.52
846.28	228.50
846.60	228.48
846.91	228.41
847.22	228.39
847.54	228.43
847.85	228.40
848.16	228.36
848.48	228.36
848.79	228.37
849.10	228.35
849.42	228.31
849.73	228.23
850.04	228.21
850.36	228.16
850.67	228.16
850.98	228.16
851.30	228.15
851.61	228.12
851.92	228.09
852.23	228.12
852.55	228.10
852.86	228.06
853.17	228.04
853.49	228.08
853.80	228.08
854.11	228.06
854.42	228.05
854.74	228.02
855.05	227.99
855.36	227.93
855.67	227.93
855.99	227.91
856.30	228.01
856.61	227.99
856.92	227.99
857.23	227.96
857.55	227.93
857.86	227.90
858.17	227.92
858.48	227.89
858.79	227.83
859.11	227.83
859.42	227.85
859.73	227.81
860.04	227.77
860.35	227.75
860.66	227.69
860.98	227.67
861.29	227.68
861.60	227.68
861.91	227.72
862.22	227.68
862.53	227.65
862.84	227.53
863.16	227.54
863.47	227.53
863.78	227.52
864.09	227.50
864.40	227.55
864.71	227.51
865.02	227.51
865.33	227.51
865.64	227.49
865.95	227.46
866.27	227.51
866.58	227.50
866.89	227.50
867.20	227.52
867.51	227.48
867.82	227.50
868.13	227.54
868.44	227.49
868.75	227.50
869.06	227.52
869.37	227.55
869.68	227.53
869.99	227.55
870.30	227.59
870.61	227.62
870.92	227.58
871.23	227.58
871.54	227.61
871.85	227.68
872.16	227.71
872.47	227.69
872.78	227.67
873.09	227.67
873.40	227.66
873.71	227.67
874.02	227.72
874.33	227.72
874.64	227.70
874.95	227.75
875.26	227.77
875.56	227.76
875.87	227.74
876.18	227.76
876.49	227.86
876.80	227.85
877.11	227.86
877.42	227.90
877.73	227.90
878.04	227.89
878.35	227.83
878.66	227.85
878.96	227.88
879.27	227.87
879.58	227.88
879.89	227.89
880.20	227.90
880.51	227.89
880.82	227.87
881.12	227.87
881.43	227.83
881.74	227.83
882.05	227.86
882.36	227.86
882.67	227.90
882.97	227.77
883.28	227.77
883.59	227.72
883.90	227.75
884.21	227.80
884.51	227.82
884.82	227.84
885.13	227.82
885.44	227.81
885.74	227.82
886.05	227.81
886.36	227.81
886.67	227.82
886.98	227.89
887.28	227.90
887.59	227.87
887.90	227.88
888.20	227.87
888.51	227.85
888.82	227.84
889.13	227.81
889.43	227.86
889.74	227.85
890.05	227.88
890.35	227.83
890.66	227.79
890.97	227.72
891.28	227.69
891.58	227.67
891.89	227.65
892.20	227.62
892.50	227.62
892.81	227.60
893.12	227.55
893.42	227.49
893.73	227.49
894.04	227.49
894.34	227.46
894.65	227.43
894.95	227.40
895.26	227.40
895.57	227.44
895.87	227.38
896.18	227.35
896.48	227.36
896.79	227.38
897.10	227.39
897.40	227.40
897.71	227.42
898.01	227.42
898.32	227.44
898.63	227.42
898.93	227.45
899.24	227.42
899.54	227.44
899.85	227.44
900.15	227.42
900.46	227.43
900.76	227.46
901.07	227.45
901.38	227.48
901.68	227.46
901.99	227.41
902.29	227.41
902.60	227.45
902.90	227.43
903.21	227.41
903.51	227.39
903.82	227.40
904.12	227.40
904.43	227.41
904.73	227.40
905.03	227.42
905.34	227.46
905.64	227.49
905.95	227.48
906.25	227.48
906.56	227.49
906.86	227.47
907.17	227.47
907.47	227.50
907.77	227.49
908.08	227.50
908.38	227.51
908.69	227.51
908.99	227.49
909.30	227.50
909.60	227.50
909.90	227.53
910.21	227.52
910.51	227.46
910.81	227.48
911.12	227.49
911.42	227.52
911.73	227.44
912.03	227.44
912.33	227.47
912.64	227.49
912.94	227.48
913.24	227.49
913.55	227.51
913.85	227.52
914.15	227.54
914.46	227.55
914.76	227.52
915.06	227.52
915.37	227.55
915.67	227.54
915.97	227.53
916.27	227.53
916.58	227.54
916.88	227.57
917.18	227.57
917.49	227.62
917.79	227.60
918.09	227.65
918.39	227.71
918.70	227.71
919.00	227.70
919.30	227.73
919.60	227.73
919.91	227.71
920.21	227.71
920.51	227.70
920.81	227.71
921.12	227.78
921.42	227.77
921.72	227.75
922.02	227.75
922.32	227.76
922.63	227.72
922.93	227.75
923.23	227.76
923.53	227.75
923.83	227.70
924.13	227.68
924.44	227.67
924.74	227.64
925.04	227.68
925.34	227.64
925.64	227.63
925.94	227.64
926.24	227.68
926.55	227.66
926.85	227.66
927.15	227.63
927.45	227.62
927.75	227.63
928.05	227.64
928.35	227.64
928.65	227.66
928.95	227.72
929.26	227.71
929.56	227.71
929.86	227.74
930.16	227.71
930.46	227.74
930.76	227.72
931.06	227.69
931.36	227.63
931.66	227.67
931.96	227.64
932.26	227.63
932.56	227.60
932.86	227.60
933.16	227.59
933.46	227.58
933.76	227.52
934.06	227.52
934.36	227.51
934.66	227.50
934.96	227.41
935.26	227.38
935.56	227.35
935.86	227.34
936.16	227.30
936.46	227.28
936.76	227.23
937.06	227.23
937.36	227.18
937.66	227.16
937.96	227.12
938.26	227.13
938.56	227.11
938.86	227.10
939.16	227.11
939.46	227.12
939.76	227.10
940.06	227.11
940.35	227.08
940.65	227.02
940.95	227.01
941.25	227.05
941.55	227.02
941.85	227.03
942.15	227.02
942.45	227.02
942.75	227.05
943.04	227.10
943.34	227.11
943.64	227.13
943.94	227.13
944.24	227.13
944.54	227.12
944.84	227.11
945.13	227.08
945.43	227.09
945.73	227.10
946.03	227.09
946.33	227.10
946.62	227.07
946.92	227.10
947.22	227.10
947.52	227.10
947.82	227.15
948.11	227.15
948.41	227.12
948.71	227.12
949.01	227.12
949.31	227.08
949.60	227.10
949.90	227.14
950.20	227.16
950.50	227.17
950.79	227.20
951.09	227.23
951.39	227.27
951.69	227.26
951.98	227.27
952.28	227.33
952.58	227.33
952.87	227.39
953.17	227.41
953.47	227.45
953.76	227.47
954.06	227.43
954.36	227.44
954.66	227.45
954.95	227.46
955.25	227.50
955.55	227.54
955.84	227.52
956.14	227.54
956.44	227.54
956.73	227.56
957.03	227.59
957.32	227.61
957.62	227.58
957.92	227.61
958.21	227.60
958.51	227.65
958.81	227.66
959.10	227.66
959.40	227.68
959.69	227.68
959.99	227.68
960.29	227.71
960.58	227.71
960.88	227.75
961.17	227.76
961.47	227.75
961.76	227.76
962.06	227.77
962.36	227.78
962.65	227.81
962.95	227.80
963.24	227.78
963.54	227.77
963.83	227.79
964.13	227.81
964.42	227.81
964.72	227.73
965.01	227.72
965.31	227.75
965.60	227.70
965.90	227.74
966.19	227.73
966.49	227.75
966.78	227.73
967.08	227.73
967.37	227.75
967.67	227.74
967.96	227.73
968.26	227.72
968.55	227.69
968.85	227.67
969.14	227.64
969.43	227.61
969.73	227.59
970.02	227.57
970.32	227.51
970.61	227.46
970.91	227.45
971.20	227.49
971.49	227.44
971.79	227.46
972.08	227.37
972.38	227.37
972.67	227.31
972.96	227.30
973.26	227.28
973.55	227.26
973.85	227.22
974.14	227.22
974.43	227.21
974.73	227.15
975.02	227.11
975.31	227.10
975.61	227.09
975.90	227.07
976.19	227.04
976.49	227.06
976.78	227.10
977.07	227.09
977.37	227.04
977.66	227.05
977.95	227.05
978.24	227.06
978.54	227.10
978.83	227.15
979.12	227.14
979.42	227.13
979.71	227.12
980.00	227.13
980.29	227.09
980.59	227.06
980.88	227.10
981.17	227.12
981.46	227.14
981.76	227.15
982.05	227.22
982.34	227.24
982.63	227.24
982.93	227.24
983.22	227.27
983.51	227.31
983.80	227.31
984.09	227.33
984.39	227.35
984.68	227.29
984.97	227.28
985.26	227.31
985.55	227.32
985.85	227.30
986.14	227.31
986.43	227.38
986.72	227.41
987.01	227.41
987.30	227.44
987.59	227.42
987.89	227.41
988.18	227.37
988.47	227.38
988.76	227.38
989.05	227.37
989.34	227.37
989.63	227.39
989.92	227.38
990.22	227.34
990.51	227.35
990.80	227.37
991.09	227.34
991.38	227.36
991.67	227.34
991.96	227.33
992.25	227.32
992.54	227.24
992.83	227.23
993.12	227.22
993.41	227.23
993.70	227.28
993.99	227.31
994.28	227.33
994.58	227.37
994.87	227.37
995.16	227.38
995.45	227.38
995.74	227.32
996.03	227.32
996.32	227.34
996.61	227.34
996.90	227.32
997.19	227.36
997.48	227.34
997.77	227.37
998.06	227.39
998.34	227.40
998.63	227.43
998.92	227.43
999.21	227.47
999.50	227.45
999.79	227.43
1000.08	227.44
1000.37	227.43
1000.66	227.41
1000.95	227.42
1001.24	227.43
1001.53	227.44
1001.82	227.45
1002.11	227.45
1002.40	227.46
1002.68	227.47
1002.97	227.55
1003.26	227.54
1003.55	227.53
1003.84	227.51
1004.13	227.55
1004.42	227.55
1004.71	227.52
1004.99	227.53
1005.28	227.54
1005.57	227.53
1005.86	227.51
1006.15	227.48
1006.44	227.47
1006.72	227.49
1007.01	227.44
1007.30	227.40
1007.59	227.38
1007.88	227.36
1008.17	227.34
1008.45	227.28
1008.74	227.25
1009.03	227.17
1009.32	227.14
1009.60	227.13
1009.89	227.12
1010.18	227.07
1010.47	227.04
1010.76	227.05
1011.04	227.00
1011.33	227.05
1011.62	227.05
1011.91	227.02
1012.19	226.99
1012.48	226.98
1012.77	226.96
1013.05	227.03
1013.34	227.06
1013.63	227.07
1013.92	227.09
1014.20	227.08
1014.49	227.09
1014.78	227.11
1015.06	227.08
1015.35	227.09
1015.64	227.11
1015.92	227.12
1016.21	227.09
1016.50	227.11
1016.78	227.10
1017.07	227.10
1017.36	227.02
1017.64	227.03
1017.93	227.07
1018.22	227.09
1018.50	227.09
1018.79	227.07
1019.08	227.06
1019.36	227.04
1019.65	227.03
1019.93	227.04
1020.22	227.08
1020.51	227.14
1020.79	227.11
1021.08	226.96
1021.36	226.88
1021.65	227.28
1021.94	227.77
1022.22	227.04
1022.51	227.18
1022.79	227.60
1023.08	227.09
1023.36	228.11
1023.65	226.57
>>>>>End Processed Spectral Data<<<<<
