SpectraSuite Data File
++++++++++++++++++++++++++++++++++++
Date: Fri Feb 01 15:47:29 EST 2013
User: group
Dark Spectrum Present: No
Reference Spectrum Present: No
Number of Sampled Component Spectra: 1
Spectrometers: USB2E7196
Integration Time (usec): 35000 (USB2E7196)
Spectra Averaged: 100 (USB2E7196)
Boxcar Smoothing: 10 (USB2E7196)
Correct for Electrical Dark: No (USB2E7196)
Strobe/Lamp Enabled: No (USB2E7196)
Correct for Detector Non-linearity: No (USB2E7196)
Correct for Stray Light: No (USB2E7196)
Number of Pixels in Processed Spectrum: 2048
>>>>>Begin Processed Spectral Data<<<<<
339.09	0.00
339.48	214.41
339.86	216.29
340.24	218.14
340.63	218.99
341.01	222.20
341.39	222.30
341.78	223.12
342.16	224.36
342.54	224.93
342.93	213.28
343.31	224.06
343.69	224.66
344.07	225.14
344.46	225.56
344.84	225.96
345.22	226.18
345.60	226.40
345.99	226.61
346.37	226.77
346.75	226.89
347.13	226.98
347.52	227.03
347.90	227.11
348.28	227.13
348.66	227.19
349.05	227.21
349.43	227.26
349.81	227.27
350.19	227.33
350.57	227.39
350.96	227.49
351.34	227.55
351.72	227.63
352.10	227.69
352.48	227.74
352.87	227.80
353.25	227.86
353.63	227.97
354.01	228.00
354.39	228.07
354.77	228.11
355.15	228.18
355.54	228.25
355.92	228.31
356.30	228.39
356.68	228.53
357.06	228.62
357.44	228.69
357.82	228.76
358.20	228.83
358.58	228.88
358.97	228.92
359.35	229.01
359.73	229.08
360.11	229.11
360.49	229.18
360.87	229.19
361.25	229.26
361.63	229.30
362.01	229.34
362.39	229.34
362.77	229.39
363.15	229.44
363.53	229.46
363.91	229.50
364.29	229.51
364.67	229.42
365.05	229.41
365.43	229.38
365.81	229.39
366.19	229.41
366.57	229.47
366.95	229.45
367.33	229.40
367.71	229.36
368.09	229.40
368.47	229.39
368.85	229.34
369.23	229.33
369.61	229.25
369.99	229.26
370.37	229.26
370.75	229.26
371.13	229.19
371.51	229.14
371.89	229.07
372.27	229.00
372.65	228.94
373.03	228.89
373.41	228.84
373.78	228.77
374.16	228.64
374.54	228.55
374.92	228.45
375.30	228.37
375.68	228.25
376.06	228.16
376.44	228.08
376.82	228.04
377.19	227.98
377.57	227.92
377.95	227.83
378.33	227.74
378.71	227.60
379.09	227.53
379.47	227.47
379.84	227.38
380.22	227.29
380.60	227.23
380.98	227.15
381.36	227.09
381.73	227.01
382.11	226.96
382.49	226.89
382.87	226.85
383.25	226.79
383.62	226.87
384.00	226.79
384.38	226.70
384.76	226.67
385.13	226.63
385.51	226.59
385.89	226.51
386.27	226.47
386.64	226.47
387.02	226.39
387.40	226.31
387.78	226.28
388.15	226.30
388.53	226.25
388.91	226.24
389.29	226.18
389.66	226.19
390.04	226.18
390.42	226.20
390.79	226.17
391.17	226.16
391.55	226.04
391.92	226.05
392.30	226.08
392.68	226.05
393.05	226.05
393.43	226.03
393.81	226.04
394.18	226.05
394.56	226.05
394.94	226.11
395.31	226.16
395.69	226.23
396.06	226.23
396.44	226.25
396.82	226.26
397.19	226.37
397.57	226.42
397.95	226.46
398.32	226.47
398.70	226.52
399.07	226.63
399.45	226.69
399.82	226.78
400.20	226.82
400.58	226.93
400.95	226.94
401.33	227.05
401.70	227.24
402.08	227.35
402.45	227.45
402.83	227.57
403.20	227.64
403.58	227.75
403.95	227.92
404.33	228.07
404.71	228.23
405.08	228.39
405.46	228.54
405.83	228.71
406.21	228.87
406.58	229.07
406.96	229.22
407.33	229.40
407.70	229.59
408.08	229.88
408.45	230.08
408.83	230.34
409.20	230.56
409.58	230.72
409.95	230.98
410.33	231.24
410.70	231.52
411.08	231.85
411.45	232.18
411.82	232.46
412.20	232.81
412.57	233.21
412.95	233.52
413.32	233.90
413.69	234.29
414.07	234.72
414.44	235.19
414.82	235.68
415.19	236.24
415.56	236.82
415.94	237.35
416.31	237.99
416.68	238.63
417.06	239.36
417.43	240.02
417.81	240.77
418.18	241.55
418.55	242.36
418.93	243.20
419.30	244.09
419.67	245.03
420.04	245.97
420.42	246.99
420.79	248.20
421.16	249.36
421.54	250.59
421.91	251.79
422.28	253.05
422.66	254.39
423.03	255.66
423.40	256.97
423.77	258.40
424.15	259.79
424.52	261.28
424.89	262.86
425.26	264.42
425.64	265.87
426.01	267.47
426.38	269.11
426.75	270.84
427.13	272.51
427.50	274.31
427.87	276.19
428.24	278.01
428.61	279.73
428.99	281.67
429.36	283.80
429.73	285.87
430.10	287.87
430.47	289.90
430.85	292.08
431.22	294.35
431.59	296.71
431.96	298.97
432.33	301.46
432.70	303.85
433.08	306.68
433.45	309.34
433.82	311.91
434.19	314.83
434.56	317.65
434.93	320.34
435.30	322.97
435.68	325.90
436.05	328.72
436.42	331.55
436.79	334.06
437.16	336.70
437.53	339.51
437.90	342.34
438.27	345.10
438.64	347.93
439.01	350.46
439.38	352.67
439.75	354.85
440.13	357.33
440.50	359.69
440.87	361.54
441.24	363.47
441.61	365.65
441.98	367.08
442.35	368.82
442.72	370.66
443.09	372.48
443.46	373.44
443.83	374.04
444.20	374.51
444.57	375.37
444.94	375.68
445.31	376.04
445.68	376.42
446.05	376.51
446.42	376.07
446.79	375.67
447.16	375.29
447.53	374.98
447.90	373.83
448.27	372.65
448.64	371.01
449.01	369.86
449.37	367.90
449.74	366.05
450.11	363.82
450.48	361.38
450.85	358.85
451.22	356.72
451.59	354.69
451.96	352.75
452.33	350.13
452.70	347.73
453.07	344.92
453.43	341.98
453.80	339.21
454.17	336.59
454.54	334.09
454.91	331.36
455.28	328.71
455.65	326.23
456.02	323.80
456.38	321.68
456.75	319.07
457.12	316.83
457.49	314.62
457.86	312.47
458.23	310.65
458.59	308.61
458.96	306.51
459.33	304.67
459.70	302.83
460.07	301.34
460.43	299.68
460.80	298.07
461.17	296.64
461.54	295.15
461.91	293.68
462.27	292.16
462.64	290.88
463.01	289.52
463.38	288.26
463.74	286.89
464.11	285.72
464.48	284.67
464.85	283.58
465.21	282.69
465.58	281.78
465.95	280.67
466.32	279.75
466.68	278.89
467.05	278.01
467.42	277.10
467.78	276.17
468.15	275.27
468.52	274.60
468.88	273.75
469.25	272.97
469.62	272.32
469.98	271.71
470.35	271.09
470.72	270.48
471.08	269.79
471.45	269.25
471.82	268.70
472.18	268.09
472.55	267.70
472.92	267.17
473.28	266.68
473.65	266.23
474.02	265.79
474.38	265.41
474.75	265.07
475.11	264.73
475.48	264.45
475.85	264.22
476.21	263.95
476.58	263.76
476.94	263.59
477.31	263.45
477.67	263.29
478.04	263.19
478.41	263.12
478.77	263.13
479.14	263.04
479.50	263.04
479.87	263.14
480.23	263.14
480.60	263.23
480.96	263.32
481.33	263.51
481.69	263.68
482.06	263.87
482.42	264.07
482.79	264.33
483.15	264.66
483.52	265.02
483.88	265.41
484.25	265.79
484.61	266.25
484.98	266.71
485.34	267.25
485.71	267.84
486.07	268.43
486.44	269.04
486.80	269.77
487.17	270.51
487.53	271.29
487.90	272.14
488.26	273.06
488.62	274.04
488.99	275.01
489.35	276.05
489.72	277.16
490.08	278.35
490.44	279.59
490.81	280.90
491.17	282.28
491.54	283.76
491.90	285.28
492.26	286.91
492.63	288.60
492.99	290.35
493.36	292.24
493.72	294.24
494.08	296.34
494.45	298.55
494.81	300.91
495.17	303.33
495.54	305.91
495.90	308.57
496.26	311.39
496.63	314.34
496.99	317.47
497.35	320.70
497.72	324.16
498.08	327.71
498.44	331.37
498.80	335.27
499.17	339.34
499.53	343.52
499.89	347.90
500.26	352.43
500.62	357.15
500.98	362.07
501.34	367.18
501.71	372.50
502.07	378.00
502.43	383.59
502.79	389.45
503.16	395.49
503.52	401.80
503.88	408.20
504.24	414.81
504.60	421.70
504.97	428.89
505.33	436.16
505.69	443.86
506.05	451.68
506.41	459.56
506.78	467.69
507.14	476.14
507.50	484.91
507.86	493.96
508.22	503.12
508.59	512.40
508.95	521.98
509.31	531.77
509.67	541.88
510.03	552.23
510.39	562.72
510.75	573.61
511.12	584.55
511.48	595.87
511.84	607.40
512.20	618.89
512.56	630.76
512.92	643.00
513.28	655.30
513.64	667.74
514.00	680.51
514.37	693.45
514.73	706.54
515.09	719.54
515.45	732.86
515.81	746.46
516.17	760.41
516.53	774.55
516.89	788.82
517.25	802.91
517.61	817.34
517.97	831.85
518.33	846.23
518.69	861.07
519.05	876.08
519.41	891.20
519.77	906.79
520.13	922.28
520.49	937.58
520.85	953.12
521.21	968.89
521.57	985.11
521.93	1000.90
522.29	1017.23
522.65	1033.44
523.01	1049.63
523.37	1065.71
523.73	1081.88
524.09	1097.94
524.45	1114.24
524.81	1130.91
525.17	1147.62
525.53	1164.58
525.89	1181.47
526.25	1198.18
526.61	1214.53
526.97	1231.28
527.33	1247.71
527.68	1264.36
528.04	1280.80
528.40	1297.31
528.76	1314.38
529.12	1330.98
529.48	1347.87
529.84	1363.91
530.20	1380.55
530.56	1397.49
530.91	1414.97
531.27	1431.71
531.63	1448.21
531.99	1464.70
532.35	1480.61
532.71	1496.57
533.07	1512.65
533.42	1528.55
533.78	1544.69
534.14	1560.94
534.50	1576.32
534.86	1592.20
535.21	1607.36
535.57	1623.42
535.93	1638.95
536.29	1653.80
536.65	1668.89
537.00	1683.60
537.36	1698.99
537.72	1713.70
538.08	1728.13
538.44	1741.83
538.79	1755.73
539.15	1769.50
539.51	1783.30
539.87	1797.67
540.22	1811.48
540.58	1825.39
540.94	1838.75
541.29	1851.65
541.65	1864.36
542.01	1877.57
542.37	1889.89
542.72	1902.35
543.08	1914.11
543.44	1926.51
543.79	1937.65
544.15	1948.53
544.51	1960.16
544.87	1971.14
545.22	1981.77
545.58	1992.09
545.94	2001.91
546.29	2011.78
546.65	2021.60
547.01	2030.90
547.36	2039.61
547.72	2047.99
548.07	2055.82
548.43	2063.90
548.79	2071.95
549.14	2079.39
549.50	2086.67
549.86	2094.45
550.21	2101.74
550.57	2108.87
550.92	2115.41
551.28	2122.57
551.64	2129.67
551.99	2136.12
552.35	2142.21
552.70	2148.31
553.06	2154.17
553.41	2160.42
553.77	2166.50
554.13	2172.60
554.48	2178.72
554.84	2184.20
555.19	2189.58
555.55	2194.74
555.90	2199.24
556.26	2203.98
556.61	2208.79
556.97	2213.03
557.32	2217.11
557.68	2221.22
558.03	2225.60
558.39	2229.36
558.74	2233.88
559.10	2237.74
559.45	2241.41
559.81	2245.74
560.16	2249.67
560.52	2252.89
560.87	2256.25
561.23	2258.77
561.58	2261.69
561.94	2264.23
562.29	2266.59
562.64	2269.14
563.00	2271.72
563.35	2275.35
563.71	2278.49
564.06	2281.74
564.42	2284.73
564.77	2287.19
565.12	2289.48
565.48	2291.28
565.83	2293.02
566.19	2294.32
566.54	2295.29
566.89	2296.42
567.25	2296.94
567.60	2298.17
567.96	2299.93
568.31	2300.87
568.66	2302.08
569.02	2302.61
569.37	2302.81
569.72	2303.70
570.08	2303.91
570.43	2303.98
570.78	2303.35
571.14	2301.81
571.49	2300.63
571.84	2300.21
572.20	2299.11
572.55	2298.05
572.90	2296.50
573.26	2295.15
573.61	2293.48
573.96	2291.65
574.31	2288.70
574.67	2285.67
575.02	2282.19
575.37	2278.81
575.72	2274.91
576.08	2271.58
576.43	2268.27
576.78	2264.58
577.13	2261.41
577.49	2258.29
577.84	2254.56
578.19	2250.73
578.54	2246.98
578.90	2242.47
579.25	2236.89
579.60	2231.78
579.95	2226.71
580.30	2221.78
580.66	2216.67
581.01	2211.66
581.36	2206.66
581.71	2202.39
582.06	2197.86
582.42	2193.34
582.77	2188.04
583.12	2183.54
583.47	2178.75
583.82	2173.60
584.17	2168.46
584.53	2162.89
584.88	2157.32
585.23	2151.66
585.58	2146.15
585.93	2140.88
586.28	2136.16
586.63	2131.14
586.98	2126.11
587.34	2121.37
587.69	2116.31
588.04	2111.03
588.39	2105.45
588.74	2099.11
589.09	2093.06
589.44	2086.35
589.79	2080.24
590.14	2074.66
590.49	2068.01
590.84	2061.64
591.19	2055.73
591.54	2049.11
591.89	2041.76
592.25	2034.84
592.60	2027.61
592.95	2020.21
593.30	2012.71
593.65	2005.22
594.00	1998.20
594.35	1990.97
594.70	1982.98
595.05	1975.70
595.40	1968.45
595.75	1960.86
596.10	1954.53
596.45	1947.79
596.80	1941.62
597.15	1935.06
597.50	1927.82
597.85	1921.43
598.19	1914.80
598.54	1907.57
598.89	1900.99
599.24	1895.07
599.59	1888.33
599.94	1882.18
600.29	1875.67
600.64	1869.17
600.99	1861.59
601.34	1854.69
601.69	1847.71
602.04	1840.77
602.39	1833.52
602.74	1826.46
603.08	1819.67
603.43	1812.89
603.78	1805.40
604.13	1798.21
604.48	1790.78
604.83	1783.97
605.18	1776.97
605.53	1768.89
605.87	1760.92
606.22	1753.76
606.57	1745.92
606.92	1738.69
607.27	1731.41
607.62	1724.47
607.96	1717.17
608.31	1710.55
608.66	1702.89
609.01	1695.29
609.36	1687.83
609.70	1679.74
610.05	1671.84
610.40	1664.13
610.75	1655.83
611.10	1648.20
611.44	1639.71
611.79	1631.73
612.14	1622.99
612.49	1613.87
612.83	1605.55
613.18	1597.47
613.53	1589.20
613.88	1580.55
614.22	1572.22
614.57	1563.61
614.92	1555.55
615.27	1548.01
615.61	1539.64
615.96	1531.62
616.31	1524.03
616.65	1516.54
617.00	1509.01
617.35	1501.26
617.70	1493.01
618.04	1484.53
618.39	1476.36
618.74	1468.78
619.08	1460.52
619.43	1452.95
619.78	1446.08
620.12	1438.73
620.47	1431.17
620.82	1423.04
621.16	1415.66
621.51	1408.01
621.85	1400.47
622.20	1391.89
622.55	1383.48
622.89	1375.63
623.24	1367.98
623.59	1360.56
623.93	1353.11
624.28	1345.95
624.62	1338.43
624.97	1331.22
625.32	1324.48
625.66	1317.55
626.01	1310.25
626.35	1302.75
626.70	1295.10
627.04	1287.27
627.39	1279.62
627.73	1272.22
628.08	1265.29
628.43	1257.89
628.77	1250.50
629.12	1242.91
629.46	1235.87
629.81	1228.51
630.15	1221.32
630.50	1213.95
630.84	1205.79
631.19	1197.89
631.53	1190.31
631.88	1182.77
632.22	1175.13
632.57	1167.74
632.91	1160.11
633.26	1152.74
633.60	1145.44
633.95	1138.27
634.29	1131.25
634.64	1124.64
634.98	1117.21
635.32	1110.15
635.67	1103.60
636.01	1097.02
636.36	1090.23
636.70	1083.73
637.05	1077.13
637.39	1070.70
637.73	1064.16
638.08	1058.38
638.42	1052.35
638.77	1045.93
639.11	1039.33
639.45	1033.01
639.80	1026.37
640.14	1019.95
640.49	1013.53
640.83	1007.26
641.17	1000.99
641.52	994.63
641.86	988.19
642.20	982.32
642.55	975.99
642.89	969.44
643.23	962.95
643.58	957.18
643.92	950.90
644.26	944.85
644.61	938.79
644.95	932.73
645.29	926.00
645.64	919.20
645.98	912.88
646.32	907.08
646.66	901.04
647.01	895.27
647.35	889.62
647.69	883.70
648.04	878.11
648.38	872.30
648.72	866.29
649.06	860.16
649.41	854.29
649.75	848.30
650.09	842.42
650.43	836.65
650.78	830.49
651.12	824.43
651.46	818.66
651.80	812.89
652.14	807.50
652.49	802.07
652.83	796.89
653.17	791.16
653.51	785.40
653.85	780.02
654.20	774.31
654.54	768.16
654.88	762.48
655.22	756.67
655.56	751.05
655.90	745.55
656.25	740.30
656.59	735.00
656.93	729.95
657.27	724.84
657.61	719.32
657.95	714.18
658.29	709.19
658.64	703.96
658.98	698.69
659.32	693.29
659.66	688.19
660.00	682.88
660.34	677.95
660.68	672.99
661.02	667.87
661.36	663.15
661.70	658.70
662.05	654.34
662.39	649.94
662.73	645.42
663.07	641.15
663.41	636.69
663.75	632.19
664.09	627.55
664.43	623.09
664.77	618.95
665.11	614.72
665.45	610.66
665.79	606.54
666.13	602.40
666.47	598.31
666.81	594.13
667.15	590.02
667.49	586.13
667.83	582.33
668.17	578.41
668.51	574.38
668.85	570.41
669.19	566.55
669.53	562.71
669.87	558.88
670.21	555.12
670.55	551.49
670.89	548.08
671.23	544.73
671.57	541.21
671.91	537.72
672.25	534.22
672.58	530.66
672.92	527.31
673.26	524.19
673.60	521.04
673.94	517.92
674.28	515.02
674.62	512.10
674.96	509.00
675.30	506.16
675.64	503.24
675.97	500.47
676.31	497.59
676.65	494.63
676.99	491.91
677.33	489.06
677.67	486.21
678.01	483.14
678.34	480.09
678.68	477.31
679.02	474.50
679.36	471.79
679.70	469.06
680.04	466.28
680.37	463.36
680.71	460.59
681.05	457.98
681.39	455.31
681.73	452.58
682.06	450.08
682.40	447.50
682.74	444.93
683.08	442.36
683.42	439.74
683.75	437.26
684.09	434.68
684.43	432.22
684.77	429.79
685.10	427.42
685.44	425.14
685.78	422.85
686.12	420.60
686.45	418.27
686.79	415.96
687.13	413.72
687.46	411.59
687.80	409.48
688.14	407.30
688.48	405.25
688.81	402.98
689.15	400.83
689.49	398.65
689.82	396.59
690.16	394.47
690.50	392.59
690.83	390.69
691.17	388.73
691.51	386.81
691.84	384.92
692.18	383.04
692.52	381.07
692.85	379.11
693.19	377.23
693.52	375.43
693.86	373.63
694.20	371.86
694.53	370.02
694.87	368.13
695.21	366.30
695.54	364.47
695.88	362.83
696.21	361.07
696.55	359.45
696.88	357.74
697.22	356.09
697.56	354.41
697.89	352.68
698.23	351.08
698.56	349.48
698.90	347.91
699.23	346.20
699.57	344.63
699.90	343.08
700.24	341.53
700.58	339.96
700.91	338.45
701.25	337.01
701.58	335.64
701.92	334.29
702.25	332.88
702.59	331.51
702.92	330.14
703.26	328.84
703.59	327.52
703.93	326.35
704.26	325.14
704.60	323.85
704.93	322.57
705.26	321.36
705.60	320.18
705.93	319.02
706.27	318.01
706.60	316.98
706.94	315.85
707.27	314.71
707.61	313.70
707.94	312.68
708.27	311.61
708.61	310.54
708.94	309.54
709.28	308.60
709.61	307.63
709.94	306.72
710.28	305.70
710.61	304.72
710.95	303.64
711.28	302.75
711.61	301.81
711.95	300.93
712.28	299.97
712.61	298.95
712.95	298.03
713.28	297.19
713.61	296.30
713.95	295.47
714.28	294.63
714.61	293.75
714.95	292.90
715.28	292.02
715.61	291.15
715.95	290.28
716.28	289.39
716.61	288.53
716.95	287.71
717.28	286.96
717.61	286.17
717.94	285.46
718.28	284.64
718.61	283.94
718.94	283.21
719.27	282.55
719.61	281.98
719.94	281.34
720.27	280.60
720.60	279.95
720.94	279.29
721.27	278.71
721.60	278.13
721.93	277.51
722.27	277.00
722.60	276.45
722.93	275.89
723.26	275.33
723.59	274.79
723.93	274.19
724.26	273.65
724.59	273.13
724.92	272.58
725.25	272.10
725.59	271.54
725.92	271.05
726.25	270.57
726.58	270.07
726.91	269.58
727.24	269.13
727.57	268.64
727.91	268.17
728.24	267.70
728.57	267.20
728.90	266.78
729.23	266.29
729.56	265.91
729.89	265.45
730.22	265.03
730.55	264.59
730.89	264.22
731.22	263.76
731.55	263.33
731.88	262.92
732.21	262.44
732.54	262.05
732.87	261.67
733.20	261.26
733.53	260.85
733.86	260.46
734.19	260.05
734.52	259.71
734.85	259.40
735.18	258.98
735.51	258.64
735.84	258.28
736.17	257.93
736.50	257.52
736.83	257.27
737.16	256.90
737.49	256.55
737.82	256.17
738.15	255.85
738.48	255.52
738.81	255.17
739.14	254.88
739.47	254.56
739.80	254.23
740.13	253.93
740.46	253.60
740.79	253.25
741.12	252.94
741.45	252.59
741.78	252.21
742.11	251.90
742.44	251.58
742.77	251.28
743.10	250.97
743.43	250.65
743.75	250.26
744.08	250.11
744.41	249.84
744.74	249.58
745.07	249.29
745.40	249.08
745.73	248.86
746.06	248.59
746.39	248.33
746.71	248.03
747.04	247.74
747.37	247.47
747.70	247.26
748.03	247.02
748.36	246.79
748.68	246.63
749.01	246.40
749.34	246.14
749.67	245.88
750.00	245.65
750.33	245.45
750.65	245.21
750.98	244.85
751.31	244.63
751.64	244.41
751.97	244.30
752.29	244.01
752.62	243.73
752.95	243.53
753.28	243.28
753.60	243.12
753.93	242.95
754.26	242.76
754.59	242.50
754.91	242.30
755.24	242.07
755.57	241.85
755.90	241.67
756.22	241.53
756.55	241.31
756.88	241.12
757.20	240.89
757.53	240.71
757.86	240.57
758.19	240.41
758.51	240.25
758.84	239.97
759.17	239.81
759.49	239.70
759.82	239.58
760.15	239.45
760.47	239.30
760.80	239.10
761.13	238.97
761.45	238.85
761.78	238.68
762.11	238.57
762.43	238.40
762.76	238.24
763.08	238.07
763.41	237.98
763.74	237.85
764.06	237.72
764.39	237.63
764.71	237.49
765.04	237.35
765.37	237.21
765.69	237.08
766.02	236.95
766.34	236.81
766.67	236.63
767.00	236.49
767.32	236.44
767.65	236.40
767.97	236.28
768.30	236.18
768.62	236.10
768.95	235.94
769.27	235.83
769.60	235.71
769.92	235.64
770.25	235.53
770.57	235.40
770.90	235.29
771.22	235.18
771.55	235.05
771.87	234.97
772.20	234.83
772.52	234.85
772.85	234.89
773.17	234.81
773.50	234.71
773.82	234.63
774.15	234.45
774.47	234.31
774.80	234.21
775.12	234.11
775.45	234.00
775.77	233.96
776.09	233.88
776.42	233.84
776.74	233.75
777.07	233.65
777.39	233.57
777.72	233.51
778.04	233.48
778.36	233.41
778.69	233.33
779.01	233.32
779.33	233.17
779.66	233.01
779.98	232.91
780.31	232.86
780.63	232.84
780.95	232.81
781.28	232.72
781.60	232.67
781.92	232.59
782.25	232.53
782.57	232.46
782.89	232.40
783.22	232.32
783.54	232.22
783.86	232.21
784.19	232.16
784.51	232.11
784.83	232.02
785.16	231.98
785.48	231.92
785.80	231.88
786.12	231.83
786.45	231.79
786.77	231.77
787.09	231.72
787.42	231.64
787.74	231.60
788.06	231.56
788.38	231.52
788.71	231.48
789.03	231.45
789.35	231.43
789.67	231.39
789.99	231.35
790.32	231.33
790.64	231.29
790.96	231.35
791.28	231.29
791.61	231.27
791.93	231.24
792.25	231.19
792.57	231.17
792.89	231.12
793.21	231.07
793.54	231.03
793.86	230.95
794.18	230.93
794.50	230.89
794.82	230.84
795.14	230.79
795.47	230.76
795.79	230.73
796.11	230.68
796.43	230.60
796.75	230.58
797.07	230.54
797.39	230.47
797.71	230.35
798.04	230.30
798.36	230.28
798.68	230.24
799.00	230.20
799.32	230.16
799.64	230.16
799.96	230.11
800.28	230.07
800.60	230.10
800.92	230.06
801.24	230.05
801.56	230.02
801.89	229.99
802.21	229.99
802.53	229.94
802.85	229.92
803.17	229.94
803.49	229.91
803.81	229.89
804.13	229.85
804.45	229.82
804.77	229.83
805.09	229.77
805.41	229.75
805.73	229.71
806.05	229.63
806.37	229.58
806.69	229.56
807.01	229.51
807.33	229.49
807.65	229.43
807.97	229.40
808.28	229.37
808.60	229.36
808.92	229.30
809.24	229.31
809.56	229.29
809.88	229.21
810.20	229.16
810.52	229.16
810.84	229.12
811.16	229.06
811.48	229.04
811.80	229.07
812.12	229.03
812.43	229.00
812.75	229.00
813.07	228.96
813.39	228.98
813.71	228.92
814.03	228.85
814.35	228.83
814.67	228.78
814.98	228.77
815.30	228.72
815.62	228.66
815.94	228.60
816.26	228.59
816.58	228.58
816.89	228.57
817.21	228.54
817.53	228.55
817.85	228.58
818.17	228.53
818.48	228.47
818.80	228.46
819.12	228.44
819.44	228.40
819.76	228.37
820.07	228.33
820.39	228.34
820.71	228.34
821.03	228.33
821.34	228.31
821.66	228.30
821.98	228.28
822.30	228.31
822.61	228.35
822.93	228.30
823.25	228.30
823.57	228.27
823.88	228.30
824.20	228.27
824.52	228.24
824.83	228.23
825.15	228.19
825.47	228.20
825.79	228.22
826.10	228.22
826.42	228.21
826.74	228.20
827.05	228.21
827.37	228.19
827.69	228.18
828.00	228.21
828.32	228.20
828.64	228.19
828.95	228.22
829.27	228.21
829.58	228.21
829.90	228.19
830.22	228.23
830.53	228.19
830.85	228.14
831.17	228.17
831.48	228.16
831.80	228.18
832.11	228.16
832.43	228.15
832.75	228.13
833.06	228.19
833.38	228.16
833.69	228.12
834.01	228.16
834.32	228.16
834.64	228.12
834.96	228.11
835.27	228.12
835.59	228.07
835.90	228.02
836.22	228.01
836.53	228.02
836.85	227.97
837.16	228.07
837.48	228.08
837.79	228.07
838.11	228.08
838.42	228.08
838.74	228.08
839.05	228.06
839.37	228.06
839.68	227.98
840.00	227.97
840.31	228.00
840.63	227.99
840.94	227.94
841.26	227.93
841.57	227.91
841.88	227.90
842.20	227.89
842.51	227.89
842.83	227.87
843.14	227.93
843.46	227.95
843.77	227.89
844.08	227.89
844.40	227.83
844.71	227.81
845.03	227.81
845.34	227.79
845.65	227.75
845.97	227.72
846.28	227.74
846.60	227.75
846.91	227.70
847.22	227.69
847.54	227.72
847.85	227.73
848.16	227.74
848.48	227.71
848.79	227.74
849.10	227.73
849.42	227.73
849.73	227.61
850.04	227.57
850.36	227.52
850.67	227.53
850.98	227.55
851.30	227.60
851.61	227.59
851.92	227.57
852.23	227.62
852.55	227.64
852.86	227.62
853.17	227.60
853.49	227.60
853.80	227.57
854.11	227.59
854.42	227.57
854.74	227.52
855.05	227.51
855.36	227.46
855.67	227.46
855.99	227.45
856.30	227.57
856.61	227.57
856.92	227.55
857.23	227.53
857.55	227.49
857.86	227.43
858.17	227.38
858.48	227.35
858.79	227.30
859.11	227.31
859.42	227.32
859.73	227.30
860.04	227.29
860.35	227.25
860.66	227.18
860.98	227.18
861.29	227.21
861.60	227.20
861.91	227.22
862.22	227.19
862.53	227.17
862.84	227.03
863.16	227.07
863.47	227.01
863.78	227.03
864.09	227.04
864.40	227.02
864.71	227.03
865.02	227.04
865.33	227.01
865.64	226.98
865.95	226.96
866.27	227.04
866.58	227.02
866.89	227.04
867.20	227.06
867.51	227.05
867.82	227.03
868.13	227.06
868.44	227.07
868.75	227.08
869.06	227.10
869.37	227.16
869.68	227.11
869.99	227.17
870.30	227.15
870.61	227.18
870.92	227.22
871.23	227.22
871.54	227.24
871.85	227.29
872.16	227.30
872.47	227.28
872.78	227.23
873.09	227.29
873.40	227.25
873.71	227.26
874.02	227.26
874.33	227.27
874.64	227.26
874.95	227.24
875.26	227.24
875.56	227.24
875.87	227.22
876.18	227.23
876.49	227.33
876.80	227.34
877.11	227.35
877.42	227.33
877.73	227.32
878.04	227.31
878.35	227.31
878.66	227.34
878.96	227.35
879.27	227.35
879.58	227.31
879.89	227.38
880.20	227.41
880.51	227.42
880.82	227.42
881.12	227.43
881.43	227.42
881.74	227.42
882.05	227.44
882.36	227.44
882.67	227.46
882.97	227.37
883.28	227.37
883.59	227.33
883.90	227.36
884.21	227.39
884.51	227.42
884.82	227.42
885.13	227.45
885.44	227.44
885.74	227.44
886.05	227.45
886.36	227.41
886.67	227.36
886.98	227.41
887.28	227.42
887.59	227.40
887.90	227.40
888.20	227.37
888.51	227.38
888.82	227.35
889.13	227.35
889.43	227.41
889.74	227.39
890.05	227.39
890.35	227.34
890.66	227.30
890.97	227.27
891.28	227.23
891.58	227.17
891.89	227.18
892.20	227.18
892.50	227.14
892.81	227.11
893.12	227.11
893.42	227.03
893.73	227.00
894.04	227.00
894.34	227.01
894.65	226.97
894.95	226.96
895.26	226.98
895.57	226.99
895.87	226.85
896.18	226.84
896.48	226.85
896.79	226.84
897.10	226.88
897.40	226.83
897.71	226.85
898.01	226.87
898.32	226.84
898.63	226.82
898.93	226.84
899.24	226.87
899.54	226.87
899.85	226.88
900.15	226.87
900.46	226.84
900.76	226.87
901.07	226.88
901.38	226.82
901.68	226.85
901.99	226.82
902.29	226.85
902.60	226.83
902.90	226.84
903.21	226.84
903.51	226.82
903.82	226.86
904.12	226.85
904.43	226.82
904.73	226.86
905.03	226.84
905.34	226.94
905.64	226.92
905.95	226.91
906.25	226.92
906.56	226.92
906.86	226.96
907.17	226.88
907.47	226.92
907.77	226.92
908.08	226.91
908.38	226.93
908.69	226.96
908.99	227.01
909.30	227.01
909.60	227.04
909.90	227.08
910.21	227.04
910.51	227.06
910.81	227.08
911.12	227.08
911.42	227.10
911.73	227.02
912.03	227.05
912.33	227.08
912.64	227.11
912.94	227.12
913.24	227.10
913.55	227.14
913.85	227.16
914.15	227.18
914.46	227.17
914.76	227.16
915.06	227.16
915.37	227.15
915.67	227.14
915.97	227.16
916.27	227.14
916.58	227.15
916.88	227.14
917.18	227.14
917.49	227.22
917.79	227.26
918.09	227.26
918.39	227.27
918.70	227.26
919.00	227.23
919.30	227.30
919.60	227.28
919.91	227.26
920.21	227.22
920.51	227.22
920.81	227.24
921.12	227.22
921.42	227.21
921.72	227.19
922.02	227.20
922.32	227.17
922.63	227.14
922.93	227.22
923.23	227.21
923.53	227.21
923.83	227.11
924.13	227.08
924.44	227.07
924.74	227.09
925.04	227.10
925.34	227.10
925.64	227.03
925.94	227.07
926.24	227.12
926.55	227.14
926.85	227.14
927.15	227.13
927.45	227.15
927.75	227.11
928.05	227.15
928.35	227.16
928.65	227.18
928.95	227.16
929.26	227.10
929.56	227.10
929.86	227.10
930.16	227.11
930.46	227.08
930.76	227.09
931.06	227.04
931.36	227.01
931.66	227.00
931.96	227.03
932.26	227.01
932.56	226.98
932.86	226.95
933.16	226.95
933.46	226.93
933.76	226.91
934.06	226.93
934.36	226.95
934.66	226.93
934.96	226.93
935.26	226.93
935.56	226.92
935.86	226.92
936.16	226.90
936.46	226.88
936.76	226.88
937.06	226.84
937.36	226.82
937.66	226.82
937.96	226.81
938.26	226.76
938.56	226.73
938.86	226.75
939.16	226.78
939.46	226.78
939.76	226.77
940.06	226.77
940.35	226.72
940.65	226.66
940.95	226.65
941.25	226.64
941.55	226.66
941.85	226.65
942.15	226.67
942.45	226.71
942.75	226.71
943.04	226.74
943.34	226.77
943.64	226.78
943.94	226.76
944.24	226.78
944.54	226.81
944.84	226.85
945.13	226.82
945.43	226.80
945.73	226.78
946.03	226.78
946.33	226.76
946.62	226.78
946.92	226.80
947.22	226.81
947.52	226.78
947.82	226.78
948.11	226.80
948.41	226.78
948.71	226.74
949.01	226.77
949.31	226.73
949.60	226.75
949.90	226.76
950.20	226.77
950.50	226.77
950.79	226.75
951.09	226.73
951.39	226.75
951.69	226.77
951.98	226.82
952.28	226.87
952.58	226.89
952.87	226.90
953.17	226.95
953.47	226.92
953.76	226.95
954.06	226.93
954.36	226.92
954.66	226.91
954.95	226.95
955.25	226.98
955.55	227.02
955.84	227.01
956.14	227.02
956.44	227.06
956.73	227.07
957.03	227.13
957.32	227.13
957.62	227.09
957.92	227.11
958.21	227.09
958.51	227.15
958.81	227.14
959.10	227.15
959.40	227.12
959.69	227.14
959.99	227.15
960.29	227.15
960.58	227.14
960.88	227.17
961.17	227.16
961.47	227.12
961.76	227.11
962.06	227.13
962.36	227.09
962.65	227.06
962.95	227.05
963.24	226.99
963.54	227.02
963.83	227.04
964.13	227.03
964.42	227.00
964.72	226.93
965.01	226.93
965.31	226.90
965.60	226.90
965.90	226.92
966.19	226.87
966.49	226.85
966.78	226.84
967.08	226.82
967.37	226.81
967.67	226.76
967.96	226.76
968.26	226.71
968.55	226.73
968.85	226.71
969.14	226.66
969.43	226.64
969.73	226.62
970.02	226.60
970.32	226.57
970.61	226.54
970.91	226.47
971.20	226.46
971.49	226.47
971.79	226.46
972.08	226.42
972.38	226.44
972.67	226.46
972.96	226.49
973.26	226.46
973.55	226.44
973.85	226.47
974.14	226.45
974.43	226.48
974.73	226.47
975.02	226.49
975.31	226.52
975.61	226.54
975.90	226.53
976.19	226.51
976.49	226.53
976.78	226.56
977.07	226.61
977.37	226.60
977.66	226.62
977.95	226.61
978.24	226.65
978.54	226.64
978.83	226.66
979.12	226.67
979.42	226.68
979.71	226.69
980.00	226.72
980.29	226.75
980.59	226.74
980.88	226.80
981.17	226.80
981.46	226.82
981.76	226.82
982.05	226.86
982.34	226.90
982.63	226.93
982.93	226.96
983.22	226.97
983.51	226.99
983.80	227.03
984.09	227.04
984.39	227.02
984.68	227.02
984.97	227.01
985.26	226.97
985.55	226.98
985.85	226.99
986.14	226.99
986.43	226.98
986.72	226.99
987.01	226.95
987.30	226.96
987.59	226.94
987.89	226.94
988.18	226.92
988.47	226.88
988.76	226.88
989.05	226.87
989.34	226.87
989.63	226.89
989.92	226.84
990.22	226.84
990.51	226.83
990.80	226.81
991.09	226.82
991.38	226.85
991.67	226.83
991.96	226.83
992.25	226.85
992.54	226.84
992.83	226.80
993.12	226.80
993.41	226.79
993.70	226.83
993.99	226.87
994.28	226.91
994.58	226.95
994.87	226.89
995.16	226.85
995.45	226.83
995.74	226.80
996.03	226.79
996.32	226.77
996.61	226.80
996.90	226.82
997.19	226.80
997.48	226.80
997.77	226.79
998.06	226.78
998.34	226.79
998.63	226.79
998.92	226.81
999.21	226.82
999.50	226.82
999.79	226.76
1000.08	226.74
1000.37	226.71
1000.66	226.68
1000.95	226.71
1001.24	226.74
1001.53	226.74
1001.82	226.72
1002.11	226.69
1002.40	226.72
1002.68	226.72
1002.97	226.81
1003.26	226.80
1003.55	226.77
1003.84	226.79
1004.13	226.79
1004.42	226.78
1004.71	226.75
1004.99	226.71
1005.28	226.69
1005.57	226.67
1005.86	226.65
1006.15	226.63
1006.44	226.58
1006.72	226.62
1007.01	226.58
1007.30	226.60
1007.59	226.60
1007.88	226.60
1008.17	226.63
1008.45	226.59
1008.74	226.54
1009.03	226.47
1009.32	226.47
1009.60	226.49
1009.89	226.51
1010.18	226.48
1010.47	226.46
1010.76	226.49
1011.04	226.54
1011.33	226.57
1011.62	226.59
1011.91	226.60
1012.19	226.62
1012.48	226.63
1012.77	226.64
1013.05	226.72
1013.34	226.74
1013.63	226.75
1013.92	226.78
1014.20	226.79
1014.49	226.81
1014.78	226.83
1015.06	226.82
1015.35	226.85
1015.64	226.85
1015.92	226.87
1016.21	226.89
1016.50	226.90
1016.78	226.89
1017.07	226.87
1017.36	226.87
1017.64	226.88
1017.93	226.92
1018.22	226.95
1018.50	226.97
1018.79	226.96
1019.08	226.87
1019.36	226.87
1019.65	226.88
1019.93	226.90
1020.22	226.93
1020.51	227.00
1020.79	227.01
1021.08	227.43
1021.36	226.69
1021.65	226.98
1021.94	226.19
1022.22	227.28
1022.51	227.16
1022.79	227.14
1023.08	227.49
1023.36	228.41
1023.65	226.68
>>>>>End Processed Spectral Data<<<<<
