SpectraSuite Data File
++++++++++++++++++++++++++++++++++++
Date: Fri Feb 01 16:15:12 EST 2013
User: group
Dark Spectrum Present: No
Reference Spectrum Present: No
Number of Sampled Component Spectra: 1
Spectrometers: USB2E7196
Integration Time (usec): 35000 (USB2E7196)
Spectra Averaged: 100 (USB2E7196)
Boxcar Smoothing: 10 (USB2E7196)
Correct for Electrical Dark: No (USB2E7196)
Strobe/Lamp Enabled: No (USB2E7196)
Correct for Detector Non-linearity: No (USB2E7196)
Correct for Stray Light: No (USB2E7196)
Number of Pixels in Processed Spectrum: 2048
>>>>>Begin Processed Spectral Data<<<<<
339.09	0.00
339.48	214.04
339.86	215.78
340.24	217.24
340.63	218.22
341.01	220.18
341.39	220.93
341.78	222.64
342.16	223.55
342.54	224.06
342.93	212.61
343.31	223.35
343.69	223.91
344.07	224.38
344.46	224.80
344.84	225.20
345.22	225.49
345.60	225.76
345.99	225.94
346.37	226.08
346.75	226.17
347.13	226.27
347.52	226.31
347.90	226.43
348.28	226.43
348.66	226.49
349.05	226.49
349.43	226.49
349.81	226.53
350.19	226.59
350.57	226.61
350.96	226.67
351.34	226.78
351.72	226.89
352.10	226.99
352.48	227.04
352.87	227.11
353.25	227.17
353.63	227.23
354.01	227.31
354.39	227.36
354.77	227.47
355.15	227.57
355.54	227.63
355.92	227.63
356.30	227.70
356.68	227.81
357.06	227.87
357.44	227.93
357.82	227.98
358.20	228.06
358.58	228.16
358.97	228.22
359.35	228.28
359.73	228.33
360.11	228.37
360.49	228.44
360.87	228.47
361.25	228.54
361.63	228.61
362.01	228.63
362.39	228.71
362.77	228.73
363.15	228.74
363.53	228.77
363.91	228.81
364.29	228.83
364.67	228.78
365.05	228.79
365.43	228.82
365.81	228.84
366.19	228.84
366.57	228.86
366.95	228.86
367.33	228.81
367.71	228.82
368.09	228.83
368.47	228.83
368.85	228.80
369.23	228.79
369.61	228.74
369.99	228.76
370.37	228.71
370.75	228.72
371.13	228.69
371.51	228.67
371.89	228.61
372.27	228.58
372.65	228.49
373.03	228.42
373.41	228.37
373.78	228.31
374.16	228.22
374.54	228.10
374.92	228.02
375.30	227.98
375.68	227.90
376.06	227.84
376.44	227.75
376.82	227.68
377.19	227.61
377.57	227.54
377.95	227.44
378.33	227.37
378.71	227.23
379.09	227.14
379.47	227.10
379.84	227.04
380.22	226.98
380.60	226.94
380.98	226.88
381.36	226.78
381.73	226.69
382.11	226.66
382.49	226.61
382.87	226.54
383.25	226.46
383.62	226.46
384.00	226.41
384.38	226.32
384.76	226.27
385.13	226.24
385.51	226.17
385.89	226.09
386.27	226.04
386.64	226.01
387.02	225.98
387.40	225.91
387.78	225.88
388.15	225.84
388.53	225.79
388.91	225.74
389.29	225.74
389.66	225.74
390.04	225.70
390.42	225.69
390.79	225.68
391.17	225.66
391.55	225.54
391.92	225.53
392.30	225.59
392.68	225.58
393.05	225.58
393.43	225.60
393.81	225.62
394.18	225.60
394.56	225.66
394.94	225.67
395.31	225.68
395.69	225.74
396.06	225.78
396.44	225.85
396.82	225.88
397.19	225.97
397.57	225.99
397.95	226.05
398.32	226.08
398.70	226.16
399.07	226.26
399.45	226.31
399.82	226.37
400.20	226.40
400.58	226.50
400.95	226.56
401.33	226.66
401.70	226.83
402.08	226.94
402.45	227.00
402.83	227.10
403.20	227.23
403.58	227.32
403.95	227.45
404.33	227.54
404.71	227.69
405.08	227.87
405.46	228.04
405.83	228.18
406.21	228.33
406.58	228.49
406.96	228.64
407.33	228.86
407.70	229.06
408.08	229.34
408.45	229.54
408.83	229.74
409.20	229.96
409.58	230.13
409.95	230.41
410.33	230.74
410.70	231.02
411.08	231.30
411.45	231.59
411.82	231.89
412.20	232.27
412.57	232.68
412.95	232.97
413.32	233.35
413.69	233.75
414.07	234.22
414.44	234.66
414.82	235.15
415.19	235.67
415.56	236.21
415.94	236.76
416.31	237.41
416.68	238.04
417.06	238.74
417.43	239.37
417.81	240.09
418.18	240.81
418.55	241.62
418.93	242.45
419.30	243.37
419.67	244.28
420.04	245.23
420.42	246.22
420.79	247.37
421.16	248.53
421.54	249.70
421.91	250.90
422.28	252.17
422.66	253.50
423.03	254.78
423.40	256.13
423.77	257.52
424.15	258.91
424.52	260.40
424.89	262.01
425.26	263.57
425.64	265.00
426.01	266.63
426.38	268.29
426.75	270.03
427.13	271.73
427.50	273.55
427.87	275.38
428.24	277.22
428.61	278.98
428.99	280.88
429.36	283.01
429.73	285.05
430.10	287.07
430.47	289.13
430.85	291.27
431.22	293.51
431.59	295.89
431.96	298.11
432.33	300.59
432.70	302.93
433.08	305.76
433.45	308.42
433.82	310.99
434.19	313.86
434.56	316.62
434.93	319.23
435.30	321.86
435.68	324.74
436.05	327.57
436.42	330.33
436.79	332.88
437.16	335.51
437.53	338.30
437.90	341.08
438.27	343.79
438.64	346.58
439.01	349.16
439.38	351.37
439.75	353.54
440.13	356.02
440.50	358.39
440.87	360.22
441.24	362.13
441.61	364.31
441.98	365.82
442.35	367.63
442.72	369.50
443.09	371.29
443.46	372.27
443.83	372.87
444.20	373.38
444.57	374.20
444.94	374.54
445.31	374.91
445.68	375.26
446.05	375.32
446.42	374.94
446.79	374.43
447.16	373.97
447.53	373.67
447.90	372.54
448.27	371.36
448.64	369.79
449.01	368.67
449.37	366.70
449.74	364.82
450.11	362.56
450.48	360.06
450.85	357.54
451.22	355.42
451.59	353.40
451.96	351.50
452.33	348.89
452.70	346.53
453.07	343.71
453.43	340.82
453.80	338.09
454.17	335.42
454.54	332.94
454.91	330.26
455.28	327.57
455.65	325.08
456.02	322.65
456.38	320.49
456.75	317.81
457.12	315.55
457.49	313.32
457.86	311.19
458.23	309.40
458.59	307.38
458.96	305.32
459.33	303.43
459.70	301.54
460.07	300.08
460.43	298.36
460.80	296.75
461.17	295.36
461.54	293.87
461.91	292.47
462.27	291.06
462.64	289.86
463.01	288.50
463.38	287.23
463.74	285.85
464.11	284.70
464.48	283.74
464.85	282.67
465.21	281.80
465.58	280.87
465.95	279.75
466.32	278.85
466.68	277.95
467.05	277.06
467.42	276.19
467.78	275.27
468.15	274.41
468.52	273.75
468.88	272.89
469.25	272.13
469.62	271.50
469.98	270.81
470.35	270.14
470.72	269.57
471.08	268.91
471.45	268.38
471.82	267.86
472.18	267.21
472.55	266.76
472.92	266.25
473.28	265.80
473.65	265.37
474.02	264.90
474.38	264.52
474.75	264.21
475.11	263.86
475.48	263.56
475.85	263.31
476.21	263.11
476.58	262.95
476.94	262.81
477.31	262.64
477.67	262.51
478.04	262.40
478.41	262.31
478.77	262.34
479.14	262.30
479.50	262.33
479.87	262.42
480.23	262.51
480.60	262.57
480.96	262.64
481.33	262.84
481.69	263.10
482.06	263.31
482.42	263.53
482.79	263.79
483.15	264.13
483.52	264.54
483.88	264.88
484.25	265.22
484.61	265.67
484.98	266.17
485.34	266.69
485.71	267.28
486.07	267.88
486.44	268.45
486.80	269.14
487.17	269.85
487.53	270.70
487.90	271.56
488.26	272.48
488.62	273.48
488.99	274.44
489.35	275.47
489.72	276.62
490.08	277.83
490.44	279.11
490.81	280.42
491.17	281.75
491.54	283.22
491.90	284.79
492.26	286.40
492.63	288.13
492.99	289.93
493.36	291.82
493.72	293.91
494.08	296.03
494.45	298.30
494.81	300.69
495.17	303.12
495.54	305.69
495.90	308.36
496.26	311.13
496.63	314.09
496.99	317.21
497.35	320.43
497.72	323.85
498.08	327.31
498.44	331.01
498.80	334.94
499.17	339.02
499.53	343.20
499.89	347.60
500.26	352.14
500.62	356.81
500.98	361.81
501.34	366.84
501.71	372.18
502.07	377.65
502.43	383.25
502.79	389.07
503.16	395.10
503.52	401.43
503.88	407.88
504.24	414.54
504.60	421.38
504.97	428.50
505.33	435.80
505.69	443.58
506.05	451.37
506.41	459.30
506.78	467.42
507.14	475.91
507.50	484.65
507.86	493.70
508.22	502.92
508.59	512.10
508.95	521.79
509.31	531.56
509.67	541.68
510.03	552.04
510.39	562.58
510.75	573.47
511.12	584.31
511.48	595.58
511.84	607.05
512.20	618.64
512.56	630.60
512.92	642.85
513.28	655.13
513.64	667.58
514.00	680.32
514.37	693.26
514.73	706.28
515.09	719.26
515.45	732.42
515.81	745.99
516.17	759.98
516.53	774.06
516.89	788.17
517.25	802.27
517.61	816.61
517.97	831.12
518.33	845.46
518.69	860.21
519.05	875.25
519.41	890.36
519.77	905.87
520.13	921.34
520.49	936.58
520.85	951.97
521.21	967.66
521.57	983.77
521.93	999.53
522.29	1015.82
522.65	1032.07
523.01	1048.27
523.37	1064.32
523.73	1080.47
524.09	1096.51
524.45	1112.86
524.81	1129.44
525.17	1146.05
525.53	1162.76
525.89	1179.61
526.25	1196.39
526.61	1212.62
526.97	1229.35
527.33	1245.74
527.68	1262.18
528.04	1278.72
528.40	1295.26
528.76	1312.32
529.12	1328.88
529.48	1345.62
529.84	1361.66
530.20	1378.27
530.56	1395.17
530.91	1412.49
531.27	1429.12
531.63	1445.47
531.99	1461.84
532.35	1477.87
532.71	1493.84
533.07	1510.05
533.42	1525.81
533.78	1541.89
534.14	1558.19
534.50	1573.51
534.86	1589.28
535.21	1604.47
535.57	1620.28
535.93	1635.75
536.29	1650.40
536.65	1665.35
537.00	1680.03
537.36	1695.22
537.72	1709.56
538.08	1724.02
538.44	1737.74
538.79	1751.59
539.15	1765.13
539.51	1778.85
539.87	1792.94
540.22	1806.62
540.58	1820.29
540.94	1833.61
541.29	1846.33
541.65	1858.81
542.01	1871.92
542.37	1884.15
542.72	1896.57
543.08	1908.26
543.44	1920.56
543.79	1931.63
544.15	1942.54
544.51	1954.06
544.87	1964.91
545.22	1975.68
545.58	1985.86
545.94	1995.60
546.29	2005.39
546.65	2015.28
547.01	2024.72
547.36	2033.54
547.72	2041.92
548.07	2049.66
548.43	2057.65
548.79	2065.58
549.14	2073.20
549.50	2080.43
549.86	2088.09
550.21	2095.35
550.57	2102.49
550.92	2109.09
551.28	2116.24
551.64	2123.35
551.99	2129.76
552.35	2135.91
552.70	2142.07
553.06	2147.96
553.41	2154.16
553.77	2160.21
554.13	2166.20
554.48	2172.15
554.84	2177.59
555.19	2182.90
555.55	2188.11
555.90	2192.65
556.26	2197.64
556.61	2202.33
556.97	2206.71
557.32	2210.75
557.68	2214.80
558.03	2219.12
558.39	2222.70
558.74	2227.28
559.10	2231.01
559.45	2234.80
559.81	2239.16
560.16	2242.93
560.52	2246.13
560.87	2249.51
561.23	2252.11
561.58	2255.10
561.94	2257.66
562.29	2259.97
562.64	2262.62
563.00	2265.26
563.35	2268.91
563.71	2272.08
564.06	2275.22
564.42	2277.92
564.77	2280.49
565.12	2282.85
565.48	2284.82
565.83	2286.65
566.19	2288.02
566.54	2289.10
566.89	2290.19
567.25	2290.80
567.60	2292.21
567.96	2294.01
568.31	2294.93
568.66	2296.06
569.02	2296.63
569.37	2296.98
569.72	2297.81
570.08	2298.13
570.43	2298.22
570.78	2297.58
571.14	2296.03
571.49	2294.69
571.84	2294.46
572.20	2293.55
572.55	2292.38
572.90	2290.65
573.26	2289.43
573.61	2287.76
573.96	2286.01
574.31	2283.34
574.67	2280.38
575.02	2276.76
575.37	2273.35
575.72	2269.60
576.08	2266.32
576.43	2263.04
576.78	2259.38
577.13	2256.28
577.49	2253.15
577.84	2249.65
578.19	2245.87
578.54	2242.31
578.90	2238.26
579.25	2232.76
579.60	2227.79
579.95	2222.91
580.30	2218.06
580.66	2212.81
581.01	2207.83
581.36	2202.97
581.71	2198.64
582.06	2194.27
582.42	2189.70
582.77	2184.63
583.12	2180.18
583.47	2175.52
583.82	2170.62
584.17	2165.35
584.53	2159.77
584.88	2154.05
585.23	2148.33
585.58	2143.01
585.93	2137.51
586.28	2132.66
586.63	2127.75
586.98	2122.72
587.34	2118.07
587.69	2113.18
588.04	2108.05
588.39	2102.45
588.74	2095.95
589.09	2089.89
589.44	2083.15
589.79	2077.20
590.14	2071.46
590.49	2064.85
590.84	2058.44
591.19	2052.42
591.54	2046.01
591.89	2038.82
592.25	2032.18
592.60	2025.06
592.95	2017.44
593.30	2010.16
593.65	2002.67
594.00	1995.66
594.35	1988.38
594.70	1980.23
595.05	1973.12
595.40	1965.89
595.75	1958.42
596.10	1952.26
596.45	1945.60
596.80	1939.40
597.15	1932.86
597.50	1925.88
597.85	1919.46
598.19	1912.88
598.54	1905.82
598.89	1899.24
599.24	1893.30
599.59	1886.58
599.94	1880.32
600.29	1874.15
600.64	1867.59
600.99	1860.25
601.34	1853.39
601.69	1846.54
602.04	1839.86
602.39	1832.52
602.74	1825.67
603.08	1818.89
603.43	1812.29
603.78	1804.93
604.13	1797.76
604.48	1790.54
604.83	1783.67
605.18	1776.81
605.53	1768.75
605.87	1760.69
606.22	1753.53
606.57	1745.62
606.92	1738.27
607.27	1731.12
607.62	1724.12
607.96	1717.01
608.31	1710.37
608.66	1702.69
609.01	1695.09
609.36	1687.49
609.70	1679.52
610.05	1671.47
610.40	1663.87
610.75	1655.36
611.10	1647.72
611.44	1639.32
611.79	1631.34
612.14	1622.65
612.49	1613.42
612.83	1605.24
613.18	1597.20
613.53	1589.06
613.88	1580.58
614.22	1572.39
614.57	1563.78
614.92	1555.82
615.27	1548.22
615.61	1539.74
615.96	1531.74
616.31	1524.11
616.65	1516.76
617.00	1509.15
617.35	1501.44
617.70	1493.08
618.04	1484.75
618.39	1476.46
618.74	1468.77
619.08	1460.38
619.43	1452.83
619.78	1445.87
620.12	1438.58
620.47	1430.97
620.82	1422.76
621.16	1415.27
621.51	1407.62
621.85	1400.06
622.20	1391.44
622.55	1383.04
622.89	1375.35
623.24	1367.67
623.59	1360.21
623.93	1352.71
624.28	1345.55
624.62	1338.05
624.97	1330.87
625.32	1324.05
625.66	1317.01
626.01	1309.94
626.35	1302.50
626.70	1294.65
627.04	1286.93
627.39	1279.06
627.73	1271.69
628.08	1264.86
628.43	1257.58
628.77	1250.23
629.12	1242.69
629.46	1235.65
629.81	1228.14
630.15	1220.82
630.50	1213.48
630.84	1205.32
631.19	1197.26
631.53	1189.65
631.88	1182.08
632.22	1174.49
632.57	1167.14
632.91	1159.63
633.26	1152.17
633.60	1144.84
633.95	1137.80
634.29	1130.73
634.64	1124.11
634.98	1116.73
635.32	1109.63
635.67	1103.09
636.01	1096.47
636.36	1089.62
636.70	1082.99
637.05	1076.49
637.39	1070.11
637.73	1063.59
638.08	1057.65
638.42	1051.77
638.77	1045.33
639.11	1038.77
639.45	1032.43
639.80	1025.69
640.14	1019.25
640.49	1012.75
640.83	1006.51
641.17	1000.26
641.52	993.95
641.86	987.54
642.20	981.75
642.55	975.28
642.89	968.80
643.23	962.20
643.58	956.45
643.92	950.32
644.26	944.21
644.61	938.14
644.95	932.19
645.29	925.69
645.64	918.89
645.98	912.62
646.32	906.81
646.66	900.80
647.01	895.05
647.35	889.40
647.69	883.49
648.04	877.86
648.38	872.12
648.72	866.25
649.06	860.23
649.41	854.35
649.75	848.43
650.09	842.43
650.43	836.72
650.78	830.53
651.12	824.50
651.46	818.82
651.80	813.13
652.14	807.71
652.49	802.30
652.83	797.12
653.17	791.42
653.51	785.66
653.85	780.18
654.20	774.59
654.54	768.59
654.88	762.93
655.22	757.03
655.56	751.33
655.90	745.81
656.25	740.50
656.59	735.11
656.93	730.12
657.27	725.01
657.61	719.52
657.95	714.53
658.29	709.49
658.64	704.18
658.98	698.87
659.32	693.42
659.66	688.24
660.00	682.97
660.34	678.05
660.68	673.12
661.02	668.14
661.36	663.39
661.70	658.89
662.05	654.48
662.39	650.26
662.73	645.77
663.07	641.45
663.41	637.00
663.75	632.48
664.09	627.80
664.43	623.42
664.77	619.32
665.11	615.01
665.45	610.89
665.79	606.85
666.13	602.66
666.47	598.55
666.81	594.39
667.15	590.31
667.49	586.40
667.83	582.64
668.17	578.62
668.51	574.52
668.85	570.40
669.19	566.58
669.53	562.70
669.87	558.85
670.21	555.14
670.55	551.54
670.89	548.18
671.23	544.78
671.57	541.26
671.91	537.68
672.25	534.12
672.58	530.57
672.92	527.11
673.26	524.00
673.60	520.83
673.94	517.67
674.28	514.69
674.62	511.70
674.96	508.57
675.30	505.68
675.64	502.78
675.97	500.04
676.31	497.15
676.65	494.18
676.99	491.46
677.33	488.50
677.67	485.70
678.01	482.64
678.34	479.67
678.68	476.78
679.02	474.01
679.36	471.23
679.70	468.49
680.04	465.79
680.37	462.90
680.71	460.09
681.05	457.48
681.39	454.77
681.73	452.07
682.06	449.56
682.40	447.00
682.74	444.47
683.08	441.93
683.42	439.29
683.75	436.81
684.09	434.22
684.43	431.81
684.77	429.24
685.10	426.87
685.44	424.54
685.78	422.24
686.12	419.99
686.45	417.76
686.79	415.49
687.13	413.29
687.46	411.13
687.80	408.99
688.14	406.80
688.48	404.71
688.81	402.46
689.15	400.31
689.49	398.18
689.82	396.11
690.16	394.02
690.50	392.10
690.83	390.19
691.17	388.22
691.51	386.29
691.84	384.53
692.18	382.61
692.52	380.65
692.85	378.73
693.19	376.80
693.52	374.96
693.86	373.13
694.20	371.34
694.53	369.54
694.87	367.67
695.21	365.88
695.54	364.11
695.88	362.44
696.21	360.71
696.55	359.05
696.88	357.40
697.22	355.73
697.56	354.08
697.89	352.42
698.23	350.85
698.56	349.23
698.90	347.64
699.23	346.02
699.57	344.44
699.90	342.89
700.24	341.38
700.58	339.86
700.91	338.32
701.25	336.88
701.58	335.50
701.92	334.12
702.25	332.72
702.59	331.29
702.92	329.97
703.26	328.67
703.59	327.37
703.93	326.13
704.26	324.90
704.60	323.64
704.93	322.38
705.26	321.10
705.60	319.94
705.93	318.71
706.27	317.61
706.60	316.56
706.94	315.47
707.27	314.36
707.61	313.30
707.94	312.28
708.27	311.16
708.61	310.07
708.94	309.15
709.28	308.18
709.61	307.22
709.94	306.26
710.28	305.20
710.61	304.20
710.95	303.14
711.28	302.22
711.61	301.23
711.95	300.30
712.28	299.35
712.61	298.35
712.95	297.46
713.28	296.62
713.61	295.75
713.95	294.89
714.28	294.01
714.61	293.16
714.95	292.31
715.28	291.47
715.61	290.61
715.95	289.73
716.28	288.88
716.61	288.07
716.95	287.25
717.28	286.55
717.61	285.80
717.94	285.09
718.28	284.27
718.61	283.59
718.94	282.88
719.27	282.22
719.61	281.57
719.94	280.89
720.27	280.13
720.60	279.45
720.94	278.75
721.27	278.13
721.60	277.57
721.93	277.01
722.27	276.47
722.60	275.91
722.93	275.27
723.26	274.74
723.59	274.17
723.93	273.57
724.26	272.96
724.59	272.42
724.92	271.91
725.25	271.41
725.59	270.87
725.92	270.38
726.25	269.89
726.58	269.41
726.91	268.92
727.24	268.49
727.57	268.03
727.91	267.57
728.24	267.13
728.57	266.63
728.90	266.14
729.23	265.64
729.56	265.20
729.89	264.73
730.22	264.23
730.55	263.76
730.89	263.36
731.22	262.97
731.55	262.56
731.88	262.10
732.21	261.69
732.54	261.24
732.87	260.79
733.20	260.41
733.53	260.00
733.86	259.62
734.19	259.23
734.52	258.84
734.85	258.54
735.18	258.13
735.51	257.73
735.84	257.36
736.17	257.03
736.50	256.64
736.83	256.43
737.16	256.11
737.49	255.80
737.82	255.46
738.15	255.11
738.48	254.73
738.81	254.43
739.14	254.14
739.47	253.85
739.80	253.54
740.13	253.22
740.46	252.91
740.79	252.58
741.12	252.27
741.45	251.93
741.78	251.56
742.11	251.30
742.44	250.97
742.77	250.70
743.10	250.38
743.43	250.09
743.75	249.69
744.08	249.53
744.41	249.24
744.74	248.96
745.07	248.65
745.40	248.40
745.73	248.18
746.06	247.87
746.39	247.60
746.71	247.35
747.04	247.08
747.37	246.81
747.70	246.56
748.03	246.32
748.36	246.15
748.68	245.91
749.01	245.64
749.34	245.44
749.67	245.21
750.00	244.99
750.33	244.80
750.65	244.59
750.98	244.25
751.31	244.02
751.64	243.80
751.97	243.65
752.29	243.43
752.62	243.13
752.95	242.92
753.28	242.72
753.60	242.49
753.93	242.33
754.26	242.17
754.59	241.92
754.91	241.66
755.24	241.43
755.57	241.23
755.90	241.03
756.22	240.81
756.55	240.57
756.88	240.39
757.20	240.18
757.53	240.00
757.86	239.85
758.19	239.71
758.51	239.59
758.84	239.40
759.17	239.23
759.49	239.11
759.82	239.01
760.15	238.85
760.47	238.70
760.80	238.49
761.13	238.34
761.45	238.21
761.78	238.09
762.11	237.95
762.43	237.82
762.76	237.73
763.08	237.63
763.41	237.55
763.74	237.44
764.06	237.29
764.39	237.13
764.71	236.98
765.04	236.84
765.37	236.68
765.69	236.55
766.02	236.45
766.34	236.28
766.67	236.14
767.00	236.06
767.32	236.00
767.65	235.96
767.97	235.83
768.30	235.72
768.62	235.60
768.95	235.49
769.27	235.40
769.60	235.25
769.92	235.16
770.25	235.03
770.57	234.92
770.90	234.84
771.22	234.77
771.55	234.70
771.87	234.61
772.20	234.54
772.52	234.54
772.85	234.54
773.17	234.48
773.50	234.36
773.82	234.24
774.15	234.10
774.47	233.95
774.80	233.85
775.12	233.78
775.45	233.72
775.77	233.66
776.09	233.55
776.42	233.48
776.74	233.38
777.07	233.30
777.39	233.21
777.72	233.10
778.04	233.08
778.36	233.00
778.69	232.95
779.01	232.86
779.33	232.67
779.66	232.51
779.98	232.45
780.31	232.37
780.63	232.35
780.95	232.30
781.28	232.27
781.60	232.24
781.92	232.17
782.25	232.10
782.57	232.00
782.89	231.94
783.22	231.89
783.54	231.80
783.86	231.73
784.19	231.65
784.51	231.62
784.83	231.53
785.16	231.40
785.48	231.30
785.80	231.25
786.12	231.22
786.45	231.18
786.77	231.12
787.09	231.04
787.42	230.97
787.74	230.92
788.06	230.86
788.38	230.75
788.71	230.73
789.03	230.70
789.35	230.66
789.67	230.61
789.99	230.57
790.32	230.53
790.64	230.52
790.96	230.57
791.28	230.49
791.61	230.47
791.93	230.49
792.25	230.46
792.57	230.47
792.89	230.42
793.21	230.36
793.54	230.31
793.86	230.27
794.18	230.21
794.50	230.15
794.82	230.08
795.14	230.10
795.47	230.04
795.79	229.96
796.11	229.89
796.43	229.86
796.75	229.84
797.07	229.82
797.39	229.77
797.71	229.66
798.04	229.62
798.36	229.56
798.68	229.50
799.00	229.43
799.32	229.38
799.64	229.33
799.96	229.29
800.28	229.28
800.60	229.25
800.92	229.24
801.24	229.22
801.56	229.24
801.89	229.16
802.21	229.12
802.53	229.10
802.85	229.11
803.17	229.13
803.49	229.07
803.81	229.03
804.13	228.95
804.45	228.92
804.77	228.95
805.09	228.92
805.41	228.93
805.73	228.93
806.05	228.86
806.37	228.83
806.69	228.81
807.01	228.78
807.33	228.75
807.65	228.70
807.97	228.68
808.28	228.61
808.60	228.62
808.92	228.63
809.24	228.67
809.56	228.65
809.88	228.58
810.20	228.58
810.52	228.59
810.84	228.59
811.16	228.58
811.48	228.51
811.80	228.53
812.12	228.51
812.43	228.48
812.75	228.49
813.07	228.49
813.39	228.46
813.71	228.43
814.03	228.44
814.35	228.42
814.67	228.39
814.98	228.41
815.30	228.38
815.62	228.35
815.94	228.28
816.26	228.29
816.58	228.25
816.89	228.21
817.21	228.15
817.53	228.15
817.85	228.11
818.17	228.09
818.48	228.03
818.80	228.02
819.12	228.03
819.44	227.97
819.76	227.97
820.07	227.98
820.39	227.93
820.71	227.94
821.03	227.93
821.34	227.92
821.66	227.89
821.98	227.88
822.30	227.82
822.61	227.83
822.93	227.77
823.25	227.75
823.57	227.74
823.88	227.76
824.20	227.72
824.52	227.75
824.83	227.71
825.15	227.67
825.47	227.62
825.79	227.61
826.10	227.58
826.42	227.53
826.74	227.49
827.05	227.49
827.37	227.46
827.69	227.42
828.00	227.39
828.32	227.36
828.64	227.34
828.95	227.40
829.27	227.37
829.58	227.35
829.90	227.36
830.22	227.35
830.53	227.30
830.85	227.30
831.17	227.26
831.48	227.30
831.80	227.32
832.11	227.31
832.43	227.28
832.75	227.28
833.06	227.30
833.38	227.28
833.69	227.27
834.01	227.22
834.32	227.23
834.64	227.22
834.96	227.24
835.27	227.23
835.59	227.17
835.90	227.12
836.22	227.14
836.53	227.12
836.85	227.10
837.16	227.17
837.48	227.12
837.79	227.16
838.11	227.13
838.42	227.12
838.74	227.13
839.05	227.13
839.37	227.13
839.68	227.10
840.00	227.14
840.31	227.13
840.63	227.17
840.94	227.15
841.26	227.13
841.57	227.12
841.88	227.13
842.20	227.14
842.51	227.15
842.83	227.13
843.14	227.23
843.46	227.25
843.77	227.20
844.08	227.24
844.40	227.22
844.71	227.21
845.03	227.20
845.34	227.20
845.65	227.19
845.97	227.20
846.28	227.20
846.60	227.14
846.91	227.17
847.22	227.12
847.54	227.13
847.85	227.17
848.16	227.15
848.48	227.13
848.79	227.16
849.10	227.21
849.42	227.19
849.73	227.07
850.04	227.06
850.36	227.03
850.67	227.04
850.98	227.02
851.30	227.04
851.61	227.01
851.92	227.00
852.23	227.06
852.55	227.04
852.86	227.08
853.17	227.11
853.49	227.14
853.80	227.17
854.11	227.18
854.42	227.15
854.74	227.15
855.05	227.16
855.36	227.11
855.67	227.07
855.99	227.07
856.30	227.21
856.61	227.18
856.92	227.18
857.23	227.17
857.55	227.13
857.86	227.10
858.17	227.13
858.48	227.09
858.79	227.03
859.11	227.06
859.42	226.97
859.73	226.91
860.04	226.88
860.35	226.83
860.66	226.76
860.98	226.77
861.29	226.74
861.60	226.72
861.91	226.72
862.22	226.72
862.53	226.72
862.84	226.59
863.16	226.62
863.47	226.59
863.78	226.55
864.09	226.58
864.40	226.60
864.71	226.59
865.02	226.59
865.33	226.59
865.64	226.56
865.95	226.58
866.27	226.65
866.58	226.61
866.89	226.62
867.20	226.62
867.51	226.61
867.82	226.60
868.13	226.60
868.44	226.57
868.75	226.55
869.06	226.53
869.37	226.52
869.68	226.48
869.99	226.47
870.30	226.49
870.61	226.49
870.92	226.48
871.23	226.44
871.54	226.44
871.85	226.44
872.16	226.46
872.47	226.45
872.78	226.40
873.09	226.43
873.40	226.43
873.71	226.44
874.02	226.43
874.33	226.40
874.64	226.41
874.95	226.42
875.26	226.43
875.56	226.41
875.87	226.42
876.18	226.43
876.49	226.53
876.80	226.54
877.11	226.52
877.42	226.53
877.73	226.54
878.04	226.55
878.35	226.53
878.66	226.53
878.96	226.55
879.27	226.52
879.58	226.53
879.89	226.52
880.20	226.58
880.51	226.59
880.82	226.62
881.12	226.61
881.43	226.64
881.74	226.61
882.05	226.65
882.36	226.64
882.67	226.68
882.97	226.58
883.28	226.55
883.59	226.55
883.90	226.56
884.21	226.55
884.51	226.57
884.82	226.60
885.13	226.58
885.44	226.59
885.74	226.64
886.05	226.63
886.36	226.68
886.67	226.65
886.98	226.71
887.28	226.71
887.59	226.72
887.90	226.72
888.20	226.72
888.51	226.72
888.82	226.72
889.13	226.69
889.43	226.78
889.74	226.80
890.05	226.81
890.35	226.80
890.66	226.81
890.97	226.79
891.28	226.78
891.58	226.82
891.89	226.81
892.20	226.79
892.50	226.77
892.81	226.73
893.12	226.73
893.42	226.67
893.73	226.71
894.04	226.69
894.34	226.67
894.65	226.71
894.95	226.71
895.26	226.72
895.57	226.76
895.87	226.69
896.18	226.69
896.48	226.69
896.79	226.69
897.10	226.72
897.40	226.69
897.71	226.69
898.01	226.65
898.32	226.62
898.63	226.61
898.93	226.60
899.24	226.56
899.54	226.54
899.85	226.51
900.15	226.48
900.46	226.49
900.76	226.48
901.07	226.47
901.38	226.44
901.68	226.43
901.99	226.37
902.29	226.35
902.60	226.31
902.90	226.26
903.21	226.25
903.51	226.19
903.82	226.21
904.12	226.16
904.43	226.15
904.73	226.14
905.03	226.13
905.34	226.22
905.64	226.21
905.95	226.16
906.25	226.15
906.56	226.12
906.86	226.08
907.17	226.07
907.47	226.04
907.77	226.02
908.08	226.01
908.38	226.00
908.69	225.98
908.99	226.00
909.30	225.98
909.60	225.97
909.90	226.02
910.21	225.97
910.51	225.97
910.81	225.94
911.12	225.95
911.42	225.95
911.73	225.83
912.03	225.86
912.33	225.90
912.64	225.90
912.94	225.89
913.24	225.89
913.55	225.89
913.85	225.88
914.15	225.89
914.46	225.91
914.76	225.90
915.06	225.90
915.37	225.90
915.67	225.96
915.97	225.95
916.27	225.89
916.58	225.89
916.88	225.89
917.18	225.93
917.49	226.00
917.79	225.99
918.09	226.02
918.39	226.03
918.70	226.05
919.00	226.06
919.30	226.15
919.60	226.16
919.91	226.19
920.21	226.19
920.51	226.19
920.81	226.16
921.12	226.20
921.42	226.23
921.72	226.23
922.02	226.22
922.32	226.26
922.63	226.32
922.93	226.39
923.23	226.41
923.53	226.41
923.83	226.38
924.13	226.40
924.44	226.41
924.74	226.46
925.04	226.48
925.34	226.51
925.64	226.47
925.94	226.49
926.24	226.51
926.55	226.53
926.85	226.56
927.15	226.60
927.45	226.60
927.75	226.60
928.05	226.63
928.35	226.62
928.65	226.64
928.95	226.64
929.26	226.59
929.56	226.62
929.86	226.63
930.16	226.64
930.46	226.63
930.76	226.64
931.06	226.57
931.36	226.56
931.66	226.58
931.96	226.58
932.26	226.58
932.56	226.57
932.86	226.55
933.16	226.56
933.46	226.54
933.76	226.53
934.06	226.52
934.36	226.55
934.66	226.54
934.96	226.52
935.26	226.53
935.56	226.53
935.86	226.48
936.16	226.42
936.46	226.38
936.76	226.39
937.06	226.36
937.36	226.37
937.66	226.36
937.96	226.30
938.26	226.26
938.56	226.23
938.86	226.21
939.16	226.23
939.46	226.25
939.76	226.25
940.06	226.23
940.35	226.21
940.65	226.13
940.95	226.12
941.25	226.08
941.55	226.04
941.85	226.04
942.15	226.07
942.45	226.09
942.75	226.10
943.04	226.08
943.34	226.09
943.64	226.07
943.94	226.04
944.24	226.02
944.54	226.05
944.84	226.05
945.13	226.06
945.43	226.02
945.73	225.99
946.03	225.99
946.33	226.00
946.62	225.99
946.92	225.98
947.22	225.98
947.52	225.99
947.82	225.99
948.11	225.97
948.41	225.96
948.71	225.96
949.01	225.96
949.31	225.96
949.60	225.96
949.90	225.96
950.20	225.96
950.50	225.99
950.79	226.00
951.09	226.03
951.39	226.02
951.69	226.01
951.98	226.04
952.28	226.01
952.58	226.01
952.87	226.04
953.17	226.08
953.47	226.10
953.76	226.09
954.06	226.10
954.36	226.05
954.66	226.06
954.95	226.10
955.25	226.10
955.55	226.12
955.84	226.11
956.14	226.12
956.44	226.14
956.73	226.09
957.03	226.10
957.32	226.08
957.62	226.08
957.92	226.12
958.21	226.09
958.51	226.22
958.81	226.25
959.10	226.25
959.40	226.26
959.69	226.25
959.99	226.29
960.29	226.28
960.58	226.33
960.88	226.36
961.17	226.34
961.47	226.37
961.76	226.35
962.06	226.38
962.36	226.37
962.65	226.37
962.95	226.43
963.24	226.41
963.54	226.40
963.83	226.40
964.13	226.37
964.42	226.35
964.72	226.29
965.01	226.28
965.31	226.28
965.60	226.27
965.90	226.34
966.19	226.32
966.49	226.35
966.78	226.32
967.08	226.33
967.37	226.31
967.67	226.27
967.96	226.27
968.26	226.29
968.55	226.32
968.85	226.29
969.14	226.26
969.43	226.25
969.73	226.26
970.02	226.26
970.32	226.26
970.61	226.25
970.91	226.22
971.20	226.19
971.49	226.17
971.79	226.19
972.08	226.10
972.38	226.10
972.67	226.07
972.96	226.11
973.26	226.09
973.55	226.15
973.85	226.18
974.14	226.19
974.43	226.17
974.73	226.15
975.02	226.18
975.31	226.20
975.61	226.21
975.90	226.22
976.19	226.20
976.49	226.20
976.78	226.20
977.07	226.19
977.37	226.19
977.66	226.21
977.95	226.18
978.24	226.16
978.54	226.18
978.83	226.15
979.12	226.15
979.42	226.17
979.71	226.11
980.00	226.06
980.29	226.07
980.59	226.03
980.88	226.05
981.17	226.06
981.46	226.04
981.76	226.05
982.05	226.06
982.34	226.07
982.63	226.05
982.93	226.06
983.22	226.09
983.51	226.11
983.80	226.15
984.09	226.18
984.39	226.18
984.68	226.21
984.97	226.24
985.26	226.21
985.55	226.22
985.85	226.21
986.14	226.24
986.43	226.22
986.72	226.25
987.01	226.22
987.30	226.19
987.59	226.20
987.89	226.20
988.18	226.18
988.47	226.17
988.76	226.17
989.05	226.16
989.34	226.13
989.63	226.14
989.92	226.09
990.22	226.03
990.51	226.08
990.80	226.04
991.09	226.03
991.38	226.08
991.67	226.06
991.96	226.06
992.25	226.08
992.54	226.07
992.83	226.07
993.12	226.05
993.41	226.06
993.70	226.10
993.99	226.13
994.28	226.16
994.58	226.17
994.87	226.13
995.16	226.13
995.45	226.16
995.74	226.13
996.03	226.16
996.32	226.20
996.61	226.17
996.90	226.15
997.19	226.13
997.48	226.12
997.77	226.09
998.06	226.08
998.34	226.04
998.63	226.05
998.92	226.06
999.21	226.06
999.50	226.08
999.79	226.06
1000.08	226.02
1000.37	225.98
1000.66	225.99
1000.95	226.03
1001.24	226.03
1001.53	226.03
1001.82	226.02
1002.11	226.00
1002.40	226.01
1002.68	226.02
1002.97	226.11
1003.26	226.14
1003.55	226.11
1003.84	226.13
1004.13	226.17
1004.42	226.16
1004.71	226.16
1004.99	226.13
1005.28	226.17
1005.57	226.13
1005.86	226.07
1006.15	226.11
1006.44	226.13
1006.72	226.12
1007.01	226.13
1007.30	226.13
1007.59	226.13
1007.88	226.11
1008.17	226.12
1008.45	226.12
1008.74	226.08
1009.03	226.03
1009.32	226.02
1009.60	226.00
1009.89	225.99
1010.18	225.93
1010.47	225.97
1010.76	225.97
1011.04	225.98
1011.33	225.97
1011.62	225.99
1011.91	226.02
1012.19	225.99
1012.48	225.97
1012.77	225.98
1013.05	226.00
1013.34	226.01
1013.63	226.00
1013.92	226.02
1014.20	226.03
1014.49	226.03
1014.78	226.06
1015.06	226.04
1015.35	226.06
1015.64	226.10
1015.92	226.13
1016.21	226.16
1016.50	226.16
1016.78	226.15
1017.07	226.17
1017.36	226.18
1017.64	226.17
1017.93	226.20
1018.22	226.22
1018.50	226.21
1018.79	226.20
1019.08	226.17
1019.36	226.21
1019.65	226.19
1019.93	226.22
1020.22	226.18
1020.51	226.22
1020.79	226.22
1021.08	226.40
1021.36	225.88
1021.65	225.86
1021.94	226.18
1022.22	226.55
1022.51	225.82
1022.79	226.36
1023.08	225.86
1023.36	227.00
1023.65	226.43
>>>>>End Processed Spectral Data<<<<<
