SpectraSuite Data File
++++++++++++++++++++++++++++++++++++
Date: Fri Feb 01 16:10:41 EST 2013
User: group
Dark Spectrum Present: No
Reference Spectrum Present: No
Number of Sampled Component Spectra: 1
Spectrometers: USB2E7196
Integration Time (usec): 35000 (USB2E7196)
Spectra Averaged: 100 (USB2E7196)
Boxcar Smoothing: 10 (USB2E7196)
Correct for Electrical Dark: No (USB2E7196)
Strobe/Lamp Enabled: No (USB2E7196)
Correct for Detector Non-linearity: No (USB2E7196)
Correct for Stray Light: No (USB2E7196)
Number of Pixels in Processed Spectrum: 2048
>>>>>Begin Processed Spectral Data<<<<<
339.09	0.00
339.48	214.60
339.86	215.95
340.24	217.30
340.63	219.08
341.01	221.66
341.39	222.07
341.78	223.19
342.16	223.37
342.54	224.22
342.93	212.90
343.31	223.65
343.69	224.17
344.07	224.63
344.46	225.05
344.84	225.40
345.22	225.63
345.60	225.84
345.99	226.00
346.37	226.16
346.75	226.28
347.13	226.31
347.52	226.37
347.90	226.44
348.28	226.47
348.66	226.52
349.05	226.52
349.43	226.55
349.81	226.59
350.19	226.63
350.57	226.72
350.96	226.80
351.34	226.90
351.72	227.00
352.10	227.08
352.48	227.16
352.87	227.22
353.25	227.31
353.63	227.40
354.01	227.46
354.39	227.55
354.77	227.64
355.15	227.71
355.54	227.83
355.92	227.85
356.30	227.96
356.68	228.08
357.06	228.17
357.44	228.23
357.82	228.29
358.20	228.35
358.58	228.37
358.97	228.43
359.35	228.47
359.73	228.56
360.11	228.64
360.49	228.71
360.87	228.77
361.25	228.82
361.63	228.88
362.01	228.94
362.39	228.97
362.77	229.00
363.15	229.06
363.53	229.06
363.91	229.09
364.29	229.10
364.67	229.05
365.05	229.04
365.43	229.05
365.81	229.08
366.19	229.11
366.57	229.14
366.95	229.14
367.33	229.11
367.71	229.09
368.09	229.11
368.47	229.07
368.85	229.05
369.23	229.01
369.61	228.93
369.99	228.90
370.37	228.87
370.75	228.87
371.13	228.79
371.51	228.74
371.89	228.71
372.27	228.69
372.65	228.65
373.03	228.65
373.41	228.57
373.78	228.53
374.16	228.46
374.54	228.41
374.92	228.34
375.30	228.31
375.68	228.22
376.06	228.12
376.44	228.04
376.82	227.98
377.19	227.90
377.57	227.87
377.95	227.80
378.33	227.74
378.71	227.61
379.09	227.58
379.47	227.52
379.84	227.44
380.22	227.35
380.60	227.23
380.98	227.13
381.36	227.09
381.73	227.01
382.11	226.91
382.49	226.82
382.87	226.73
383.25	226.67
383.62	226.72
384.00	226.66
384.38	226.63
384.76	226.61
385.13	226.61
385.51	226.56
385.89	226.48
386.27	226.41
386.64	226.38
387.02	226.30
387.40	226.23
387.78	226.21
388.15	226.17
388.53	226.17
388.91	226.17
389.29	226.13
389.66	226.11
390.04	226.12
390.42	226.14
390.79	226.16
391.17	226.15
391.55	226.03
391.92	226.00
392.30	225.98
392.68	225.91
393.05	225.91
393.43	225.90
393.81	225.92
394.18	225.93
394.56	225.97
394.94	225.98
395.31	226.02
395.69	226.05
396.06	226.10
396.44	226.11
396.82	226.11
397.19	226.21
397.57	226.23
397.95	226.27
398.32	226.27
398.70	226.36
399.07	226.43
399.45	226.49
399.82	226.60
400.20	226.69
400.58	226.78
400.95	226.83
401.33	226.94
401.70	227.10
402.08	227.18
402.45	227.29
402.83	227.42
403.20	227.51
403.58	227.61
403.95	227.73
404.33	227.89
404.71	228.01
405.08	228.17
405.46	228.31
405.83	228.44
406.21	228.59
406.58	228.73
406.96	228.90
407.33	229.09
407.70	229.28
408.08	229.52
408.45	229.76
408.83	229.98
409.20	230.17
409.58	230.34
409.95	230.61
410.33	230.85
410.70	231.12
411.08	231.44
411.45	231.76
411.82	232.05
412.20	232.37
412.57	232.83
412.95	233.12
413.32	233.51
413.69	233.93
414.07	234.39
414.44	234.85
414.82	235.29
415.19	235.83
415.56	236.37
415.94	236.92
416.31	237.56
416.68	238.18
417.06	238.90
417.43	239.60
417.81	240.37
418.18	241.14
418.55	241.96
418.93	242.82
419.30	243.69
419.67	244.62
420.04	245.56
420.42	246.51
420.79	247.69
421.16	248.85
421.54	250.02
421.91	251.22
422.28	252.43
422.66	253.73
423.03	255.05
423.40	256.37
423.77	257.74
424.15	259.15
424.52	260.64
424.89	262.25
425.26	263.76
425.64	265.17
426.01	266.76
426.38	268.42
426.75	270.11
427.13	271.82
427.50	273.60
427.87	275.46
428.24	277.28
428.61	279.00
428.99	280.96
429.36	283.04
429.73	285.08
430.10	287.13
430.47	289.23
430.85	291.32
431.22	293.57
431.59	295.98
431.96	298.20
432.33	300.66
432.70	303.03
433.08	305.86
433.45	308.53
433.82	311.13
434.19	314.02
434.56	316.81
434.93	319.49
435.30	322.13
435.68	325.02
436.05	327.86
436.42	330.65
436.79	333.14
437.16	335.88
437.53	338.73
437.90	341.56
438.27	344.29
438.64	347.09
439.01	349.69
439.38	351.90
439.75	354.08
440.13	356.56
440.50	358.88
440.87	360.72
441.24	362.67
441.61	364.86
441.98	366.32
442.35	368.13
442.72	369.97
443.09	371.77
443.46	372.76
443.83	373.37
444.20	373.90
444.57	374.70
444.94	374.99
445.31	375.35
445.68	375.67
446.05	375.77
446.42	375.41
446.79	375.00
447.16	374.55
447.53	374.20
447.90	373.04
448.27	371.91
448.64	370.32
449.01	369.15
449.37	367.16
449.74	365.30
450.11	363.06
450.48	360.57
450.85	358.07
451.22	355.95
451.59	353.97
451.96	352.01
452.33	349.40
452.70	347.06
453.07	344.16
453.43	341.29
453.80	338.49
454.17	335.77
454.54	333.21
454.91	330.52
455.28	327.88
455.65	325.40
456.02	322.98
456.38	320.87
456.75	318.23
457.12	315.97
457.49	313.74
457.86	311.58
458.23	309.77
458.59	307.75
458.96	305.69
459.33	303.84
459.70	301.99
460.07	300.52
460.43	298.82
460.80	297.26
461.17	295.80
461.54	294.32
461.91	292.96
462.27	291.48
462.64	290.24
463.01	288.92
463.38	287.61
463.74	286.22
464.11	285.01
464.48	283.98
464.85	282.90
465.21	282.05
465.58	281.15
465.95	280.03
466.32	279.12
466.68	278.23
467.05	277.30
467.42	276.40
467.78	275.50
468.15	274.62
468.52	273.92
468.88	273.11
469.25	272.34
469.62	271.69
469.98	271.05
470.35	270.40
470.72	269.77
471.08	269.14
471.45	268.63
471.82	268.12
472.18	267.52
472.55	267.07
472.92	266.55
473.28	266.03
473.65	265.55
474.02	265.10
474.38	264.69
474.75	264.38
475.11	264.05
475.48	263.76
475.85	263.53
476.21	263.31
476.58	263.11
476.94	262.96
477.31	262.80
477.67	262.65
478.04	262.55
478.41	262.51
478.77	262.54
479.14	262.48
479.50	262.47
479.87	262.56
480.23	262.65
480.60	262.72
480.96	262.86
481.33	263.12
481.69	263.30
482.06	263.51
482.42	263.74
482.79	264.01
483.15	264.34
483.52	264.74
483.88	265.11
484.25	265.45
484.61	265.87
484.98	266.30
485.34	266.87
485.71	267.49
486.07	268.11
486.44	268.66
486.80	269.34
487.17	270.09
487.53	270.90
487.90	271.75
488.26	272.65
488.62	273.63
488.99	274.57
489.35	275.62
489.72	276.73
490.08	277.87
490.44	279.12
490.81	280.44
491.17	281.78
491.54	283.26
491.90	284.84
492.26	286.51
492.63	288.26
492.99	290.04
493.36	291.92
493.72	293.93
494.08	296.05
494.45	298.33
494.81	300.69
495.17	303.15
495.54	305.72
495.90	308.44
496.26	311.24
496.63	314.24
496.99	317.39
497.35	320.67
497.72	324.10
498.08	327.60
498.44	331.30
498.80	335.22
499.17	339.29
499.53	343.47
499.89	347.89
500.26	352.45
500.62	357.12
500.98	362.10
501.34	367.19
501.71	372.52
502.07	377.95
502.43	383.59
502.79	389.43
503.16	395.52
503.52	401.76
503.88	408.20
504.24	414.84
504.60	421.72
504.97	428.89
505.33	436.18
505.69	443.91
506.05	451.71
506.41	459.57
506.78	467.70
507.14	476.18
507.50	484.83
507.86	493.78
508.22	503.03
508.59	512.22
508.95	521.82
509.31	531.64
509.67	541.79
510.03	552.05
510.39	562.56
510.75	573.26
511.12	584.24
511.48	595.54
511.84	607.00
512.20	618.44
512.56	630.37
512.92	642.61
513.28	654.96
513.64	667.41
514.00	680.11
514.37	693.08
514.73	706.05
515.09	719.12
515.45	732.38
515.81	745.95
516.17	759.97
516.53	774.14
516.89	788.36
517.25	802.46
517.61	816.87
517.97	831.42
518.33	845.81
518.69	860.56
519.05	875.47
519.41	890.60
519.77	906.19
520.13	921.64
520.49	936.95
520.85	952.31
521.21	968.02
521.57	984.26
521.93	999.87
522.29	1016.30
522.65	1032.50
523.01	1048.79
523.37	1064.81
523.73	1080.89
524.09	1096.91
524.45	1113.06
524.81	1129.77
525.17	1146.55
525.53	1163.26
525.89	1180.35
526.25	1197.15
526.61	1213.63
526.97	1230.35
527.33	1246.79
527.68	1263.35
528.04	1279.72
528.40	1296.33
528.76	1313.22
529.12	1329.88
529.48	1346.90
529.84	1362.86
530.20	1379.41
530.56	1396.26
530.91	1413.68
531.27	1430.31
531.63	1446.71
531.99	1463.39
532.35	1479.09
532.71	1494.85
533.07	1511.10
533.42	1526.76
533.78	1542.77
534.14	1558.87
534.50	1574.14
534.86	1589.94
535.21	1604.99
535.57	1620.99
535.93	1636.47
536.29	1651.18
536.65	1665.93
537.00	1680.57
537.36	1695.77
537.72	1710.26
538.08	1724.67
538.44	1738.31
538.79	1752.22
539.15	1765.76
539.51	1779.24
539.87	1793.66
540.22	1807.34
540.58	1821.04
540.94	1834.30
541.29	1847.12
541.65	1859.74
542.01	1872.78
542.37	1885.06
542.72	1897.43
543.08	1909.17
543.44	1921.39
543.79	1932.74
544.15	1943.64
544.51	1955.09
544.87	1966.04
545.22	1976.80
545.58	1986.92
545.94	1996.56
546.29	2006.48
546.65	2016.41
547.01	2025.74
547.36	2034.36
547.72	2042.89
548.07	2050.69
548.43	2058.97
548.79	2066.96
549.14	2074.57
549.50	2081.85
549.86	2089.47
550.21	2096.75
550.57	2103.83
550.92	2110.40
551.28	2117.32
551.64	2124.52
551.99	2131.03
552.35	2137.10
552.70	2143.35
553.06	2149.37
553.41	2155.86
553.77	2161.72
554.13	2167.73
554.48	2173.90
554.84	2179.46
555.19	2184.72
555.55	2189.91
555.90	2194.30
556.26	2199.08
556.61	2203.72
556.97	2208.11
557.32	2212.20
557.68	2216.43
558.03	2220.77
558.39	2224.48
558.74	2229.25
559.10	2233.12
559.45	2236.82
559.81	2241.17
560.16	2244.94
560.52	2248.15
560.87	2251.51
561.23	2254.26
561.58	2257.19
561.94	2259.59
562.29	2261.81
562.64	2264.46
563.00	2267.04
563.35	2270.49
563.71	2273.65
564.06	2276.80
564.42	2279.82
564.77	2282.35
565.12	2284.58
565.48	2286.45
565.83	2288.34
566.19	2289.61
566.54	2290.51
566.89	2291.81
567.25	2292.50
567.60	2293.76
567.96	2295.53
568.31	2296.24
568.66	2297.43
569.02	2298.06
569.37	2298.49
569.72	2299.44
570.08	2299.64
570.43	2299.69
570.78	2299.16
571.14	2297.68
571.49	2296.50
571.84	2296.23
572.20	2295.22
572.55	2294.13
572.90	2292.56
573.26	2291.19
573.61	2289.47
573.96	2287.77
574.31	2284.79
574.67	2281.72
575.02	2278.20
575.37	2274.90
575.72	2271.22
576.08	2267.87
576.43	2264.51
576.78	2260.91
577.13	2257.85
577.49	2254.81
577.84	2251.46
578.19	2247.81
578.54	2244.20
578.90	2239.97
579.25	2234.27
579.60	2229.38
579.95	2224.54
580.30	2219.57
580.66	2214.43
581.01	2209.45
581.36	2204.71
581.71	2200.31
582.06	2195.96
582.42	2191.60
582.77	2186.39
583.12	2181.88
583.47	2177.19
583.82	2172.29
584.17	2166.95
584.53	2161.39
584.88	2155.70
585.23	2150.09
585.58	2144.58
585.93	2139.13
586.28	2134.37
586.63	2129.36
586.98	2124.27
587.34	2119.55
587.69	2114.79
588.04	2109.61
588.39	2104.12
588.74	2097.48
589.09	2091.54
589.44	2084.75
589.79	2078.60
590.14	2072.95
590.49	2066.46
590.84	2060.09
591.19	2054.04
591.54	2047.77
591.89	2040.67
592.25	2034.04
592.60	2026.58
592.95	2019.04
593.30	2011.78
593.65	2004.29
594.00	1997.30
594.35	1989.99
594.70	1981.95
595.05	1974.66
595.40	1967.47
595.75	1959.96
596.10	1953.84
596.45	1947.16
596.80	1941.08
597.15	1934.53
597.50	1927.47
597.85	1921.01
598.19	1914.29
598.54	1907.16
598.89	1900.40
599.24	1894.27
599.59	1887.49
599.94	1881.49
600.29	1875.07
600.64	1868.54
600.99	1861.12
601.34	1854.24
601.69	1847.45
602.04	1840.68
602.39	1833.34
602.74	1826.50
603.08	1819.76
603.43	1812.96
603.78	1805.60
604.13	1798.42
604.48	1791.16
604.83	1784.22
605.18	1777.37
605.53	1769.43
605.87	1761.55
606.22	1754.38
606.57	1746.46
606.92	1739.17
607.27	1731.90
607.62	1725.15
607.96	1717.84
608.31	1711.20
608.66	1703.67
609.01	1696.10
609.36	1688.43
609.70	1680.45
610.05	1672.38
610.40	1664.70
610.75	1656.43
611.10	1648.69
611.44	1640.10
611.79	1632.23
612.14	1623.53
612.49	1614.30
612.83	1605.79
613.18	1597.64
613.53	1589.49
613.88	1580.95
614.22	1572.55
614.57	1563.90
614.92	1555.80
615.27	1548.25
615.61	1539.82
615.96	1531.83
616.31	1524.22
616.65	1516.79
617.00	1509.16
617.35	1501.43
617.70	1493.05
618.04	1484.57
618.39	1476.40
618.74	1468.93
619.08	1460.48
619.43	1452.94
619.78	1445.97
620.12	1438.95
620.47	1431.45
620.82	1423.38
621.16	1416.00
621.51	1408.57
621.85	1400.99
622.20	1392.52
622.55	1384.10
622.89	1376.36
623.24	1368.70
623.59	1361.14
623.93	1353.68
624.28	1346.61
624.62	1339.16
624.97	1331.96
625.32	1325.17
625.66	1318.20
626.01	1311.00
626.35	1303.68
626.70	1295.87
627.04	1288.23
627.39	1280.39
627.73	1272.94
628.08	1265.91
628.43	1258.61
628.77	1251.18
629.12	1243.58
629.46	1236.31
629.81	1228.92
630.15	1221.59
630.50	1214.19
630.84	1206.07
631.19	1198.14
631.53	1190.64
631.88	1183.07
632.22	1175.49
632.57	1168.18
632.91	1160.60
633.26	1153.24
633.60	1145.64
633.95	1138.61
634.29	1131.49
634.64	1124.81
634.98	1117.42
635.32	1110.37
635.67	1103.78
636.01	1097.15
636.36	1090.36
636.70	1083.82
637.05	1077.27
637.39	1070.82
637.73	1064.23
638.08	1058.29
638.42	1052.38
638.77	1045.87
639.11	1039.26
639.45	1032.89
639.80	1026.20
640.14	1019.84
640.49	1013.21
640.83	1006.95
641.17	1000.64
641.52	994.30
641.86	987.93
642.20	982.11
642.55	975.67
642.89	969.18
643.23	962.51
643.58	956.77
643.92	950.66
644.26	944.59
644.61	938.51
644.95	932.51
645.29	925.99
645.64	919.21
645.98	912.85
646.32	906.98
646.66	900.98
647.01	895.24
647.35	889.53
647.69	883.69
648.04	878.12
648.38	872.38
648.72	866.48
649.06	860.29
649.41	854.42
649.75	848.50
650.09	842.50
650.43	836.80
650.78	830.62
651.12	824.66
651.46	818.89
651.80	813.23
652.14	807.81
652.49	802.45
652.83	797.21
653.17	791.54
653.51	785.81
653.85	780.39
654.20	774.63
654.54	768.65
654.88	762.93
655.22	757.16
655.56	751.45
655.90	745.93
656.25	740.74
656.59	735.30
656.93	730.21
657.27	725.08
657.61	719.70
657.95	714.63
658.29	709.55
658.64	704.27
658.98	698.90
659.32	693.45
659.66	688.25
660.00	682.96
660.34	677.95
660.68	673.13
661.02	668.04
661.36	663.40
661.70	658.81
662.05	654.44
662.39	650.12
662.73	645.67
663.07	641.26
663.41	636.83
663.75	632.40
664.09	627.85
664.43	623.42
664.77	619.27
665.11	614.99
665.45	610.80
665.79	606.77
666.13	602.74
666.47	598.67
666.81	594.50
667.15	590.39
667.49	586.54
667.83	582.62
668.17	578.73
668.51	574.66
668.85	570.67
669.19	566.83
669.53	562.92
669.87	559.01
670.21	555.29
670.55	551.60
670.89	548.11
671.23	544.71
671.57	541.25
671.91	537.71
672.25	534.15
672.58	530.63
672.92	527.21
673.26	523.98
673.60	520.82
673.94	517.74
674.28	514.84
674.62	511.85
674.96	508.72
675.30	505.84
675.64	502.94
675.97	500.18
676.31	497.29
676.65	494.36
676.99	491.68
677.33	488.85
677.67	486.06
678.01	483.03
678.34	480.02
678.68	477.12
679.02	474.24
679.36	471.49
679.70	468.77
680.04	465.95
680.37	463.13
680.71	460.33
681.05	457.65
681.39	454.90
681.73	452.27
682.06	449.77
682.40	447.20
682.74	444.64
683.08	442.05
683.42	439.40
683.75	436.92
684.09	434.36
684.43	431.84
684.77	429.42
685.10	427.10
685.44	424.82
685.78	422.53
686.12	420.33
686.45	418.04
686.79	415.76
687.13	413.58
687.46	411.38
687.80	409.23
688.14	406.97
688.48	404.95
688.81	402.68
689.15	400.49
689.49	398.32
689.82	396.24
690.16	394.17
690.50	392.25
690.83	390.31
691.17	388.33
691.51	386.47
691.84	384.63
692.18	382.69
692.52	380.71
692.85	378.77
693.19	376.88
693.52	375.09
693.86	373.26
694.20	371.51
694.53	369.72
694.87	367.83
695.21	366.05
695.54	364.20
695.88	362.44
696.21	360.72
696.55	359.01
696.88	357.33
697.22	355.65
697.56	354.03
697.89	352.35
698.23	350.72
698.56	349.12
698.90	347.49
699.23	345.81
699.57	344.26
699.90	342.75
700.24	341.22
700.58	339.68
700.91	338.21
701.25	336.73
701.58	335.36
701.92	334.02
702.25	332.67
702.59	331.32
702.92	330.03
703.26	328.77
703.59	327.48
703.93	326.29
704.26	325.08
704.60	323.77
704.93	322.51
705.26	321.27
705.60	320.09
705.93	318.89
706.27	317.86
706.60	316.78
706.94	315.67
707.27	314.61
707.61	313.56
707.94	312.53
708.27	311.46
708.61	310.37
708.94	309.36
709.28	308.42
709.61	307.43
709.94	306.52
710.28	305.52
710.61	304.54
710.95	303.47
711.28	302.51
711.61	301.60
711.95	300.71
712.28	299.81
712.61	298.82
712.95	297.90
713.28	297.05
713.61	296.16
713.95	295.30
714.28	294.41
714.61	293.56
714.95	292.73
715.28	291.90
715.61	291.02
715.95	290.16
716.28	289.28
716.61	288.45
716.95	287.60
717.28	286.82
717.61	286.07
717.94	285.33
718.28	284.56
718.61	283.82
718.94	283.12
719.27	282.44
719.61	281.82
719.94	281.21
720.27	280.49
720.60	279.83
720.94	279.22
721.27	278.59
721.60	278.00
721.93	277.36
722.27	276.77
722.60	276.20
722.93	275.63
723.26	275.11
723.59	274.56
723.93	273.99
724.26	273.44
724.59	272.89
724.92	272.34
725.25	271.86
725.59	271.34
725.92	270.84
726.25	270.34
726.58	269.85
726.91	269.31
727.24	268.83
727.57	268.36
727.91	267.82
728.24	267.33
728.57	266.84
728.90	266.39
729.23	265.95
729.56	265.55
729.89	265.10
730.22	264.57
730.55	264.10
730.89	263.64
731.22	263.18
731.55	262.72
731.88	262.32
732.21	261.87
732.54	261.41
732.87	260.93
733.20	260.52
733.53	260.13
733.86	259.73
734.19	259.36
734.52	258.97
734.85	258.69
735.18	258.30
735.51	257.93
735.84	257.56
736.17	257.18
736.50	256.76
736.83	256.51
737.16	256.18
737.49	255.84
737.82	255.48
738.15	255.18
738.48	254.87
738.81	254.53
739.14	254.21
739.47	253.95
739.80	253.65
740.13	253.33
740.46	252.99
740.79	252.73
741.12	252.43
741.45	252.14
741.78	251.78
742.11	251.51
742.44	251.21
742.77	250.90
743.10	250.60
743.43	250.27
743.75	249.91
744.08	249.77
744.41	249.50
744.74	249.27
745.07	249.00
745.40	248.74
745.73	248.54
746.06	248.28
746.39	248.00
746.71	247.75
747.04	247.47
747.37	247.21
747.70	246.96
748.03	246.68
748.36	246.43
748.68	246.18
749.01	245.92
749.34	245.69
749.67	245.50
750.00	245.27
750.33	245.16
750.65	244.94
750.98	244.59
751.31	244.39
751.64	244.15
751.97	243.95
752.29	243.77
752.62	243.49
752.95	243.25
753.28	243.05
753.60	242.83
753.93	242.67
754.26	242.47
754.59	242.23
754.91	242.03
755.24	241.84
755.57	241.64
755.90	241.41
756.22	241.17
756.55	240.95
756.88	240.74
757.20	240.51
757.53	240.30
757.86	240.12
758.19	239.93
758.51	239.78
758.84	239.59
759.17	239.39
759.49	239.24
759.82	239.09
760.15	238.93
760.47	238.76
760.80	238.60
761.13	238.48
761.45	238.35
761.78	238.20
762.11	238.07
762.43	237.94
762.76	237.84
763.08	237.77
763.41	237.64
763.74	237.54
764.06	237.38
764.39	237.24
764.71	237.14
765.04	236.99
765.37	236.83
765.69	236.69
766.02	236.54
766.34	236.42
766.67	236.30
767.00	236.20
767.32	236.16
767.65	236.11
767.97	235.97
768.30	235.79
768.62	235.70
768.95	235.56
769.27	235.42
769.60	235.33
769.92	235.15
770.25	235.03
770.57	234.89
770.90	234.79
771.22	234.71
771.55	234.60
771.87	234.52
772.20	234.43
772.52	234.42
772.85	234.46
773.17	234.37
773.50	234.28
773.82	234.15
774.15	234.00
774.47	233.81
774.80	233.74
775.12	233.66
775.45	233.59
775.77	233.49
776.09	233.45
776.42	233.38
776.74	233.38
777.07	233.32
777.39	233.25
777.72	233.17
778.04	233.12
778.36	233.05
778.69	232.99
779.01	232.94
779.33	232.78
779.66	232.63
779.98	232.58
780.31	232.51
780.63	232.53
780.95	232.50
781.28	232.46
781.60	232.37
781.92	232.35
782.25	232.28
782.57	232.23
782.89	232.18
783.22	232.10
783.54	232.00
783.86	231.97
784.19	231.91
784.51	231.87
784.83	231.80
785.16	231.70
785.48	231.68
785.80	231.65
786.12	231.62
786.45	231.53
786.77	231.46
787.09	231.39
787.42	231.26
787.74	231.20
788.06	231.16
788.38	231.13
788.71	231.04
789.03	231.02
789.35	231.00
789.67	230.92
789.99	230.88
790.32	230.85
790.64	230.79
790.96	230.83
791.28	230.77
791.61	230.69
791.93	230.70
792.25	230.61
792.57	230.63
792.89	230.59
793.21	230.58
793.54	230.54
793.86	230.48
794.18	230.49
794.50	230.46
794.82	230.42
795.14	230.40
795.47	230.38
795.79	230.31
796.11	230.22
796.43	230.18
796.75	230.14
797.07	230.09
797.39	230.03
797.71	229.91
798.04	229.86
798.36	229.85
798.68	229.80
799.00	229.76
799.32	229.66
799.64	229.62
799.96	229.56
800.28	229.53
800.60	229.52
800.92	229.46
801.24	229.40
801.56	229.39
801.89	229.33
802.21	229.28
802.53	229.23
802.85	229.24
803.17	229.29
803.49	229.22
803.81	229.19
804.13	229.17
804.45	229.15
804.77	229.15
805.09	229.13
805.41	229.10
805.73	229.06
806.05	229.02
806.37	228.99
806.69	228.96
807.01	228.93
807.33	228.93
807.65	228.87
807.97	228.93
808.28	228.91
808.60	228.88
808.92	228.88
809.24	228.91
809.56	228.87
809.88	228.76
810.20	228.77
810.52	228.76
810.84	228.73
811.16	228.73
811.48	228.69
811.80	228.69
812.12	228.67
812.43	228.67
812.75	228.66
813.07	228.63
813.39	228.65
813.71	228.64
814.03	228.59
814.35	228.59
814.67	228.53
814.98	228.49
815.30	228.47
815.62	228.42
815.94	228.36
816.26	228.41
816.58	228.40
816.89	228.38
817.21	228.32
817.53	228.36
817.85	228.31
818.17	228.31
818.48	228.30
818.80	228.30
819.12	228.30
819.44	228.28
819.76	228.26
820.07	228.23
820.39	228.22
820.71	228.22
821.03	228.21
821.34	228.20
821.66	228.20
821.98	228.20
822.30	228.19
822.61	228.26
822.93	228.18
823.25	228.18
823.57	228.17
823.88	228.23
824.20	228.19
824.52	228.19
824.83	228.17
825.15	228.11
825.47	228.10
825.79	228.06
826.10	228.04
826.42	228.03
826.74	228.03
827.05	228.04
827.37	228.03
827.69	228.00
828.00	227.96
828.32	227.96
828.64	227.97
828.95	228.02
829.27	227.97
829.58	227.95
829.90	227.93
830.22	227.93
830.53	227.88
830.85	227.82
831.17	227.81
831.48	227.80
831.80	227.81
832.11	227.79
832.43	227.80
832.75	227.79
833.06	227.85
833.38	227.83
833.69	227.79
834.01	227.79
834.32	227.82
834.64	227.84
834.96	227.85
835.27	227.84
835.59	227.81
835.90	227.76
836.22	227.75
836.53	227.75
836.85	227.73
837.16	227.82
837.48	227.83
837.79	227.85
838.11	227.83
838.42	227.83
838.74	227.85
839.05	227.84
839.37	227.82
839.68	227.73
840.00	227.71
840.31	227.72
840.63	227.72
840.94	227.70
841.26	227.64
841.57	227.62
841.88	227.60
842.20	227.57
842.51	227.59
842.83	227.59
843.14	227.63
843.46	227.61
843.77	227.55
844.08	227.54
844.40	227.48
844.71	227.46
845.03	227.46
845.34	227.42
845.65	227.38
845.97	227.42
846.28	227.42
846.60	227.41
846.91	227.35
847.22	227.31
847.54	227.26
847.85	227.27
848.16	227.25
848.48	227.25
848.79	227.25
849.10	227.24
849.42	227.24
849.73	227.21
850.04	227.23
850.36	227.19
850.67	227.17
850.98	227.20
851.30	227.20
851.61	227.18
851.92	227.17
852.23	227.21
852.55	227.17
852.86	227.17
853.17	227.15
853.49	227.20
853.80	227.23
854.11	227.26
854.42	227.27
854.74	227.24
855.05	227.21
855.36	227.17
855.67	227.14
855.99	227.14
856.30	227.19
856.61	227.16
856.92	227.15
857.23	227.17
857.55	227.13
857.86	227.08
858.17	227.08
858.48	227.07
858.79	227.03
859.11	227.01
859.42	227.00
859.73	226.99
860.04	226.96
860.35	226.89
860.66	226.85
860.98	226.83
861.29	226.82
861.60	226.81
861.91	226.82
862.22	226.79
862.53	226.74
862.84	226.63
863.16	226.65
863.47	226.62
863.78	226.60
864.09	226.63
864.40	226.69
864.71	226.70
865.02	226.73
865.33	226.73
865.64	226.70
865.95	226.72
866.27	226.80
866.58	226.80
866.89	226.86
867.20	226.85
867.51	226.86
867.82	226.88
868.13	226.89
868.44	226.87
868.75	226.89
869.06	226.93
869.37	226.97
869.68	226.91
869.99	226.91
870.30	226.92
870.61	226.94
870.92	226.91
871.23	226.90
871.54	226.90
871.85	226.94
872.16	226.97
872.47	226.96
872.78	226.88
873.09	226.91
873.40	226.89
873.71	226.91
874.02	226.92
874.33	226.91
874.64	226.91
874.95	226.94
875.26	226.93
875.56	226.94
875.87	226.89
876.18	226.94
876.49	227.07
876.80	227.06
877.11	227.00
877.42	226.97
877.73	226.97
878.04	226.95
878.35	226.91
878.66	226.89
878.96	226.89
879.27	226.88
879.58	226.89
879.89	226.87
880.20	226.89
880.51	226.86
880.82	226.86
881.12	226.84
881.43	226.82
881.74	226.81
882.05	226.78
882.36	226.83
882.67	226.84
882.97	226.71
883.28	226.74
883.59	226.76
883.90	226.78
884.21	226.78
884.51	226.79
884.82	226.80
885.13	226.79
885.44	226.75
885.74	226.74
886.05	226.72
886.36	226.73
886.67	226.68
886.98	226.73
887.28	226.76
887.59	226.77
887.90	226.78
888.20	226.79
888.51	226.81
888.82	226.76
889.13	226.75
889.43	226.81
889.74	226.78
890.05	226.77
890.35	226.74
890.66	226.74
890.97	226.72
891.28	226.73
891.58	226.74
891.89	226.77
892.20	226.78
892.50	226.75
892.81	226.74
893.12	226.75
893.42	226.71
893.73	226.69
894.04	226.67
894.34	226.68
894.65	226.65
894.95	226.65
895.26	226.68
895.57	226.72
895.87	226.65
896.18	226.67
896.48	226.71
896.79	226.71
897.10	226.73
897.40	226.74
897.71	226.74
898.01	226.76
898.32	226.76
898.63	226.78
898.93	226.79
899.24	226.80
899.54	226.80
899.85	226.77
900.15	226.79
900.46	226.79
900.76	226.79
901.07	226.81
901.38	226.84
901.68	226.85
901.99	226.82
902.29	226.83
902.60	226.82
902.90	226.79
903.21	226.82
903.51	226.80
903.82	226.83
904.12	226.84
904.43	226.86
904.73	226.85
905.03	226.83
905.34	226.92
905.64	226.90
905.95	226.89
906.25	226.90
906.56	226.90
906.86	226.91
907.17	226.90
907.47	226.89
907.77	226.86
908.08	226.83
908.38	226.79
908.69	226.81
908.99	226.84
909.30	226.83
909.60	226.82
909.90	226.81
910.21	226.77
910.51	226.74
910.81	226.72
911.12	226.73
911.42	226.73
911.73	226.62
912.03	226.63
912.33	226.68
912.64	226.67
912.94	226.66
913.24	226.66
913.55	226.66
913.85	226.68
914.15	226.67
914.46	226.66
914.76	226.66
915.06	226.61
915.37	226.57
915.67	226.58
915.97	226.59
916.27	226.59
916.58	226.61
916.88	226.60
917.18	226.58
917.49	226.65
917.79	226.63
918.09	226.67
918.39	226.71
918.70	226.66
919.00	226.64
919.30	226.65
919.60	226.65
919.91	226.66
920.21	226.65
920.51	226.65
920.81	226.65
921.12	226.65
921.42	226.66
921.72	226.67
922.02	226.65
922.32	226.65
922.63	226.62
922.93	226.62
923.23	226.61
923.53	226.61
923.83	226.53
924.13	226.54
924.44	226.54
924.74	226.55
925.04	226.59
925.34	226.65
925.64	226.60
925.94	226.60
926.24	226.61
926.55	226.63
926.85	226.60
927.15	226.59
927.45	226.58
927.75	226.59
928.05	226.60
928.35	226.60
928.65	226.59
928.95	226.60
929.26	226.60
929.56	226.63
929.86	226.64
930.16	226.61
930.46	226.62
930.76	226.62
931.06	226.56
931.36	226.54
931.66	226.51
931.96	226.53
932.26	226.52
932.56	226.48
932.86	226.47
933.16	226.51
933.46	226.50
933.76	226.52
934.06	226.53
934.36	226.56
934.66	226.58
934.96	226.62
935.26	226.63
935.56	226.64
935.86	226.63
936.16	226.63
936.46	226.63
936.76	226.61
937.06	226.58
937.36	226.60
937.66	226.58
937.96	226.59
938.26	226.56
938.56	226.60
938.86	226.60
939.16	226.63
939.46	226.66
939.76	226.67
940.06	226.67
940.35	226.66
940.65	226.62
940.95	226.63
941.25	226.59
941.55	226.60
941.85	226.61
942.15	226.61
942.45	226.63
942.75	226.65
943.04	226.68
943.34	226.73
943.64	226.70
943.94	226.68
944.24	226.72
944.54	226.73
944.84	226.72
945.13	226.72
945.43	226.70
945.73	226.69
946.03	226.68
946.33	226.66
946.62	226.64
946.92	226.62
947.22	226.62
947.52	226.62
947.82	226.58
948.11	226.55
948.41	226.55
948.71	226.54
949.01	226.52
949.31	226.51
949.60	226.45
949.90	226.46
950.20	226.48
950.50	226.43
950.79	226.41
951.09	226.40
951.39	226.36
951.69	226.35
951.98	226.35
952.28	226.36
952.58	226.37
952.87	226.34
953.17	226.35
953.47	226.33
953.76	226.30
954.06	226.32
954.36	226.33
954.66	226.31
954.95	226.33
955.25	226.33
955.55	226.33
955.84	226.34
956.14	226.37
956.44	226.35
956.73	226.33
957.03	226.32
957.32	226.33
957.62	226.34
957.92	226.34
958.21	226.33
958.51	226.43
958.81	226.43
959.10	226.49
959.40	226.52
959.69	226.52
959.99	226.54
960.29	226.53
960.58	226.51
960.88	226.55
961.17	226.51
961.47	226.53
961.76	226.52
962.06	226.53
962.36	226.51
962.65	226.54
962.95	226.57
963.24	226.54
963.54	226.54
963.83	226.54
964.13	226.59
964.42	226.56
964.72	226.48
965.01	226.50
965.31	226.46
965.60	226.42
965.90	226.47
966.19	226.45
966.49	226.44
966.78	226.46
967.08	226.44
967.37	226.47
967.67	226.44
967.96	226.45
968.26	226.46
968.55	226.47
968.85	226.45
969.14	226.43
969.43	226.46
969.73	226.46
970.02	226.46
970.32	226.42
970.61	226.43
970.91	226.39
971.20	226.34
971.49	226.31
971.79	226.34
972.08	226.29
972.38	226.31
972.67	226.32
972.96	226.33
973.26	226.32
973.55	226.34
973.85	226.34
974.14	226.37
974.43	226.38
974.73	226.37
975.02	226.35
975.31	226.37
975.61	226.36
975.90	226.34
976.19	226.31
976.49	226.34
976.78	226.39
977.07	226.37
977.37	226.44
977.66	226.46
977.95	226.43
978.24	226.43
978.54	226.43
978.83	226.40
979.12	226.36
979.42	226.34
979.71	226.32
980.00	226.33
980.29	226.28
980.59	226.25
980.88	226.27
981.17	226.26
981.46	226.28
981.76	226.30
982.05	226.34
982.34	226.36
982.63	226.32
982.93	226.30
983.22	226.33
983.51	226.33
983.80	226.33
984.09	226.33
984.39	226.33
984.68	226.35
984.97	226.38
985.26	226.37
985.55	226.41
985.85	226.38
986.14	226.41
986.43	226.42
986.72	226.41
987.01	226.37
987.30	226.39
987.59	226.34
987.89	226.31
988.18	226.24
988.47	226.25
988.76	226.23
989.05	226.20
989.34	226.20
989.63	226.21
989.92	226.20
990.22	226.21
990.51	226.18
990.80	226.18
991.09	226.16
991.38	226.18
991.67	226.17
991.96	226.16
992.25	226.14
992.54	226.13
992.83	226.12
993.12	226.11
993.41	226.11
993.70	226.18
993.99	226.23
994.28	226.27
994.58	226.27
994.87	226.27
995.16	226.26
995.45	226.26
995.74	226.22
996.03	226.26
996.32	226.25
996.61	226.28
996.90	226.25
997.19	226.26
997.48	226.25
997.77	226.21
998.06	226.21
998.34	226.22
998.63	226.24
998.92	226.27
999.21	226.31
999.50	226.31
999.79	226.30
1000.08	226.27
1000.37	226.28
1000.66	226.27
1000.95	226.29
1001.24	226.32
1001.53	226.32
1001.82	226.28
1002.11	226.24
1002.40	226.27
1002.68	226.30
1002.97	226.40
1003.26	226.38
1003.55	226.35
1003.84	226.39
1004.13	226.44
1004.42	226.43
1004.71	226.43
1004.99	226.39
1005.28	226.41
1005.57	226.42
1005.86	226.42
1006.15	226.44
1006.44	226.41
1006.72	226.45
1007.01	226.48
1007.30	226.49
1007.59	226.48
1007.88	226.48
1008.17	226.50
1008.45	226.50
1008.74	226.43
1009.03	226.38
1009.32	226.42
1009.60	226.48
1009.89	226.48
1010.18	226.41
1010.47	226.39
1010.76	226.37
1011.04	226.38
1011.33	226.38
1011.62	226.39
1011.91	226.39
1012.19	226.38
1012.48	226.38
1012.77	226.35
1013.05	226.37
1013.34	226.38
1013.63	226.37
1013.92	226.39
1014.20	226.36
1014.49	226.37
1014.78	226.40
1015.06	226.38
1015.35	226.33
1015.64	226.32
1015.92	226.29
1016.21	226.31
1016.50	226.32
1016.78	226.32
1017.07	226.35
1017.36	226.33
1017.64	226.27
1017.93	226.25
1018.22	226.26
1018.50	226.26
1018.79	226.27
1019.08	226.19
1019.36	226.18
1019.65	226.19
1019.93	226.21
1020.22	226.23
1020.51	226.28
1020.79	226.26
1021.08	226.68
1021.36	226.20
1021.65	226.06
1021.94	225.78
1022.22	226.21
1022.51	226.49
1022.79	226.82
1023.08	226.12
1023.36	227.73
1023.65	226.04
>>>>>End Processed Spectral Data<<<<<
