SpectraSuite Data File
++++++++++++++++++++++++++++++++++++
Date: Fri Feb 01 16:04:59 EST 2013
User: group
Dark Spectrum Present: No
Reference Spectrum Present: No
Number of Sampled Component Spectra: 1
Spectrometers: USB2E7196
Integration Time (usec): 35000 (USB2E7196)
Spectra Averaged: 100 (USB2E7196)
Boxcar Smoothing: 10 (USB2E7196)
Correct for Electrical Dark: No (USB2E7196)
Strobe/Lamp Enabled: No (USB2E7196)
Correct for Detector Non-linearity: No (USB2E7196)
Correct for Stray Light: No (USB2E7196)
Number of Pixels in Processed Spectrum: 2048
>>>>>Begin Processed Spectral Data<<<<<
339.09	0.00
339.48	214.58
339.86	216.11
340.24	217.67
340.63	219.52
341.01	221.43
341.39	221.51
341.78	222.91
342.16	224.39
342.54	224.62
342.93	213.00
343.31	223.79
343.69	224.34
344.07	224.81
344.46	225.25
344.84	225.60
345.22	225.83
345.60	226.09
345.99	226.28
346.37	226.38
346.75	226.49
347.13	226.61
347.52	226.67
347.90	226.70
348.28	226.70
348.66	226.75
349.05	226.74
349.43	226.82
349.81	226.90
350.19	226.93
350.57	226.99
350.96	227.09
351.34	227.12
351.72	227.18
352.10	227.27
352.48	227.32
352.87	227.37
353.25	227.44
353.63	227.49
354.01	227.55
354.39	227.63
354.77	227.69
355.15	227.78
355.54	227.82
355.92	227.91
356.30	228.04
356.68	228.16
357.06	228.24
357.44	228.29
357.82	228.35
358.20	228.45
358.58	228.52
358.97	228.53
359.35	228.64
359.73	228.73
360.11	228.82
360.49	228.86
360.87	228.94
361.25	229.01
361.63	229.11
362.01	229.18
362.39	229.20
362.77	229.24
363.15	229.28
363.53	229.28
363.91	229.28
364.29	229.28
364.67	229.21
365.05	229.24
365.43	229.26
365.81	229.29
366.19	229.30
366.57	229.36
366.95	229.39
367.33	229.38
367.71	229.36
368.09	229.34
368.47	229.34
368.85	229.31
369.23	229.30
369.61	229.26
369.99	229.25
370.37	229.25
370.75	229.26
371.13	229.19
371.51	229.16
371.89	229.15
372.27	229.13
372.65	229.13
373.03	229.11
373.41	229.06
373.78	229.00
374.16	228.92
374.54	228.84
374.92	228.77
375.30	228.73
375.68	228.67
376.06	228.60
376.44	228.54
376.82	228.47
377.19	228.41
377.57	228.30
377.95	228.18
378.33	228.07
378.71	227.91
379.09	227.86
379.47	227.81
379.84	227.72
380.22	227.62
380.60	227.48
380.98	227.42
381.36	227.33
381.73	227.24
382.11	227.20
382.49	227.11
382.87	227.01
383.25	226.92
383.62	226.95
384.00	226.88
384.38	226.78
384.76	226.75
385.13	226.72
385.51	226.67
385.89	226.60
386.27	226.63
386.64	226.64
387.02	226.58
387.40	226.53
387.78	226.50
388.15	226.48
388.53	226.45
388.91	226.38
389.29	226.34
389.66	226.32
390.04	226.27
390.42	226.25
390.79	226.24
391.17	226.22
391.55	226.10
391.92	226.10
392.30	226.11
392.68	226.10
393.05	226.09
393.43	226.07
393.81	226.09
394.18	226.05
394.56	226.06
394.94	226.07
395.31	226.08
395.69	226.15
396.06	226.18
396.44	226.18
396.82	226.22
397.19	226.30
397.57	226.33
397.95	226.40
398.32	226.43
398.70	226.50
399.07	226.56
399.45	226.61
399.82	226.67
400.20	226.74
400.58	226.82
400.95	226.86
401.33	226.97
401.70	227.12
402.08	227.22
402.45	227.31
402.83	227.45
403.20	227.54
403.58	227.65
403.95	227.77
404.33	227.91
404.71	228.01
405.08	228.19
405.46	228.31
405.83	228.45
406.21	228.62
406.58	228.82
406.96	229.00
407.33	229.21
407.70	229.41
408.08	229.66
408.45	229.87
408.83	230.10
409.20	230.33
409.58	230.53
409.95	230.81
410.33	231.09
410.70	231.32
411.08	231.64
411.45	231.95
411.82	232.24
412.20	232.62
412.57	233.06
412.95	233.36
413.32	233.78
413.69	234.18
414.07	234.60
414.44	235.02
414.82	235.51
415.19	236.06
415.56	236.59
415.94	237.17
416.31	237.83
416.68	238.47
417.06	239.15
417.43	239.85
417.81	240.61
418.18	241.39
418.55	242.24
418.93	243.12
419.30	243.97
419.67	244.94
420.04	245.94
420.42	246.92
420.79	248.14
421.16	249.28
421.54	250.49
421.91	251.70
422.28	252.96
422.66	254.27
423.03	255.56
423.40	256.90
423.77	258.33
424.15	259.74
424.52	261.25
424.89	262.88
425.26	264.39
425.64	265.85
426.01	267.45
426.38	269.10
426.75	270.75
427.13	272.48
427.50	274.29
427.87	276.10
428.24	277.94
428.61	279.65
428.99	281.60
429.36	283.69
429.73	285.76
430.10	287.82
430.47	289.89
430.85	292.03
431.22	294.29
431.59	296.66
431.96	298.91
432.33	301.36
432.70	303.74
433.08	306.55
433.45	309.15
433.82	311.73
434.19	314.59
434.56	317.43
434.93	320.07
435.30	322.68
435.68	325.61
436.05	328.44
436.42	331.25
436.79	333.79
437.16	336.50
437.53	339.29
437.90	342.07
438.27	344.79
438.64	347.59
439.01	350.13
439.38	352.36
439.75	354.50
440.13	356.98
440.50	359.29
440.87	361.18
441.24	363.15
441.61	365.36
441.98	366.85
442.35	368.61
442.72	370.47
443.09	372.22
443.46	373.22
443.83	373.78
444.20	374.26
444.57	375.10
444.94	375.32
445.31	375.75
445.68	376.11
446.05	376.21
446.42	375.82
446.79	375.46
447.16	374.94
447.53	374.63
447.90	373.48
448.27	372.34
448.64	370.72
449.01	369.55
449.37	367.55
449.74	365.67
450.11	363.43
450.48	360.93
450.85	358.47
451.22	356.31
451.59	354.34
451.96	352.39
452.33	349.75
452.70	347.39
453.07	344.49
453.43	341.57
453.80	338.78
454.17	336.13
454.54	333.53
454.91	330.85
455.28	328.19
455.65	325.70
456.02	323.25
456.38	321.12
456.75	318.49
457.12	316.25
457.49	314.05
457.86	311.90
458.23	310.04
458.59	307.95
458.96	305.85
459.33	303.97
459.70	302.15
460.07	300.65
460.43	298.99
460.80	297.40
461.17	295.97
461.54	294.50
461.91	293.07
462.27	291.65
462.64	290.38
463.01	288.99
463.38	287.70
463.74	286.35
464.11	285.17
464.48	284.13
464.85	283.05
465.21	282.16
465.58	281.24
465.95	280.19
466.32	279.33
466.68	278.43
467.05	277.55
467.42	276.64
467.78	275.71
468.15	274.84
468.52	274.17
468.88	273.35
469.25	272.55
469.62	271.90
469.98	271.21
470.35	270.61
470.72	270.04
471.08	269.39
471.45	268.87
471.82	268.36
472.18	267.79
472.55	267.36
472.92	266.85
473.28	266.36
473.65	265.92
474.02	265.45
474.38	265.09
474.75	264.77
475.11	264.43
475.48	264.18
475.85	263.92
476.21	263.71
476.58	263.51
476.94	263.39
477.31	263.21
477.67	263.08
478.04	262.97
478.41	262.91
478.77	262.98
479.14	262.86
479.50	262.83
479.87	262.89
480.23	262.92
480.60	262.98
480.96	263.12
481.33	263.32
481.69	263.53
482.06	263.73
482.42	263.93
482.79	264.20
483.15	264.49
483.52	264.86
483.88	265.19
484.25	265.56
484.61	265.94
484.98	266.41
485.34	266.95
485.71	267.52
486.07	268.12
486.44	268.65
486.80	269.37
487.17	270.10
487.53	270.90
487.90	271.72
488.26	272.68
488.62	273.61
488.99	274.58
489.35	275.60
489.72	276.73
490.08	277.92
490.44	279.16
490.81	280.52
491.17	281.91
491.54	283.40
491.90	284.95
492.26	286.63
492.63	288.38
492.99	290.19
493.36	292.11
493.72	294.16
494.08	296.27
494.45	298.55
494.81	300.90
495.17	303.34
495.54	305.93
495.90	308.58
496.26	311.38
496.63	314.32
496.99	317.44
497.35	320.70
497.72	324.14
498.08	327.64
498.44	331.29
498.80	335.19
499.17	339.22
499.53	343.37
499.89	347.76
500.26	352.26
500.62	356.97
500.98	361.93
501.34	367.02
501.71	372.36
502.07	377.79
502.43	383.45
502.79	389.27
503.16	395.35
503.52	401.70
503.88	408.10
504.24	414.84
504.60	421.75
504.97	428.88
505.33	436.23
505.69	444.01
506.05	451.84
506.41	459.69
506.78	467.95
507.14	476.44
507.50	485.27
507.86	494.32
508.22	503.50
508.59	512.76
508.95	522.36
509.31	532.19
509.67	542.30
510.03	552.63
510.39	563.31
510.75	574.17
511.12	585.06
511.48	596.36
511.84	607.75
512.20	619.25
512.56	631.27
512.92	643.41
513.28	655.78
513.64	668.27
514.00	681.08
514.37	693.93
514.73	706.98
515.09	720.01
515.45	733.35
515.81	746.93
516.17	760.95
516.53	775.13
516.89	789.35
517.25	803.53
517.61	817.90
517.97	832.29
518.33	846.65
518.69	861.48
519.05	876.50
519.41	891.68
519.77	907.19
520.13	922.68
520.49	938.12
520.85	953.49
521.21	969.18
521.57	985.43
521.93	1001.14
522.29	1017.63
522.65	1033.85
523.01	1049.99
523.37	1065.99
523.73	1082.07
524.09	1098.17
524.45	1114.46
524.81	1131.09
525.17	1147.89
525.53	1164.70
525.89	1181.64
526.25	1198.49
526.61	1214.93
526.97	1231.72
527.33	1248.19
527.68	1264.61
528.04	1281.00
528.40	1297.49
528.76	1314.55
529.12	1331.06
529.48	1347.98
529.84	1363.91
530.20	1380.45
530.56	1397.36
530.91	1414.74
531.27	1431.51
531.63	1447.86
531.99	1464.39
532.35	1480.27
532.71	1496.07
533.07	1512.36
533.42	1528.17
533.78	1544.09
534.14	1560.26
534.50	1575.48
534.86	1591.44
535.21	1606.63
535.57	1622.49
535.93	1637.95
536.29	1652.61
536.65	1667.61
537.00	1682.36
537.36	1697.51
537.72	1711.94
538.08	1726.35
538.44	1740.03
538.79	1753.70
539.15	1767.17
539.51	1780.90
539.87	1795.35
540.22	1809.05
540.58	1822.68
540.94	1835.81
541.29	1848.67
541.65	1861.18
542.01	1874.28
542.37	1886.30
542.72	1898.65
543.08	1910.35
543.44	1922.65
543.79	1933.85
544.15	1944.76
544.51	1956.17
544.87	1967.07
545.22	1978.01
545.58	1988.20
545.94	1998.04
546.29	2007.90
546.65	2017.88
547.01	2027.03
547.36	2035.51
547.72	2044.00
548.07	2051.96
548.43	2060.19
548.79	2068.08
549.14	2075.71
549.50	2083.03
549.86	2090.89
550.21	2098.18
550.57	2105.42
550.92	2112.06
551.28	2119.20
551.64	2126.26
551.99	2132.81
552.35	2139.13
552.70	2145.11
553.06	2151.06
553.41	2157.40
553.77	2163.61
554.13	2169.56
554.48	2175.74
554.84	2181.33
555.19	2186.64
555.55	2191.75
555.90	2196.27
556.26	2201.29
556.61	2206.02
556.97	2210.46
557.32	2214.51
557.68	2218.71
558.03	2222.95
558.39	2226.72
558.74	2231.25
559.10	2235.26
559.45	2238.96
559.81	2243.24
560.16	2247.20
560.52	2250.38
560.87	2253.82
561.23	2256.37
561.58	2259.52
561.94	2262.02
562.29	2264.45
562.64	2267.21
563.00	2269.76
563.35	2273.40
563.71	2276.37
564.06	2279.62
564.42	2282.41
564.77	2285.04
565.12	2287.41
565.48	2289.30
565.83	2291.14
566.19	2292.48
566.54	2293.33
566.89	2294.45
567.25	2295.01
567.60	2296.19
567.96	2298.08
568.31	2298.81
568.66	2300.08
569.02	2300.58
569.37	2300.92
569.72	2301.81
570.08	2301.89
570.43	2302.03
570.78	2301.32
571.14	2299.91
571.49	2298.50
571.84	2298.29
572.20	2297.20
572.55	2296.06
572.90	2294.58
573.26	2293.16
573.61	2291.49
573.96	2289.77
574.31	2286.91
574.67	2283.92
575.02	2280.25
575.37	2276.78
575.72	2273.18
576.08	2269.81
576.43	2266.58
576.78	2262.85
577.13	2259.53
577.49	2256.44
577.84	2252.88
578.19	2249.16
578.54	2245.70
578.90	2241.56
579.25	2235.94
579.60	2230.88
579.95	2225.85
580.30	2220.75
580.66	2215.51
581.01	2210.49
581.36	2205.36
581.71	2201.20
582.06	2196.73
582.42	2192.39
582.77	2187.12
583.12	2182.54
583.47	2177.74
583.82	2172.66
584.17	2167.47
584.53	2161.96
584.88	2156.39
585.23	2150.56
585.58	2145.10
585.93	2139.46
586.28	2134.67
586.63	2129.62
586.98	2124.70
587.34	2120.01
587.69	2115.13
588.04	2110.02
588.39	2104.47
588.74	2098.22
589.09	2091.99
589.44	2085.32
589.79	2079.24
590.14	2073.76
590.49	2067.10
590.84	2060.67
591.19	2054.67
591.54	2048.22
591.89	2040.93
592.25	2034.27
592.60	2027.20
592.95	2019.78
593.30	2012.54
593.65	2004.94
594.00	1997.85
594.35	1990.39
594.70	1982.41
595.05	1975.38
595.40	1968.04
595.75	1960.57
596.10	1954.35
596.45	1947.71
596.80	1941.55
597.15	1934.98
597.50	1927.91
597.85	1921.51
598.19	1914.90
598.54	1907.81
598.89	1901.29
599.24	1895.43
599.59	1888.64
599.94	1882.44
600.29	1875.94
600.64	1869.40
600.99	1862.04
601.34	1855.30
601.69	1848.44
602.04	1841.62
602.39	1834.29
602.74	1827.54
603.08	1820.75
603.43	1814.05
603.78	1806.76
604.13	1799.51
604.48	1792.27
604.83	1785.36
605.18	1778.46
605.53	1770.47
605.87	1762.53
606.22	1755.25
606.57	1747.16
606.92	1739.69
607.27	1732.57
607.62	1725.76
607.96	1718.51
608.31	1711.85
608.66	1704.27
609.01	1696.72
609.36	1689.10
609.70	1681.02
610.05	1673.00
610.40	1665.35
610.75	1656.88
611.10	1649.14
611.44	1640.74
611.79	1632.75
612.14	1623.97
612.49	1614.64
612.83	1606.36
613.18	1598.21
613.53	1590.03
613.88	1581.60
614.22	1573.39
614.57	1564.73
614.92	1556.68
615.27	1549.04
615.61	1540.68
615.96	1532.57
616.31	1524.95
616.65	1517.48
617.00	1509.92
617.35	1502.14
617.70	1493.80
618.04	1485.37
618.39	1477.10
618.74	1469.38
619.08	1461.13
619.43	1453.71
619.78	1446.87
620.12	1439.68
620.47	1432.13
620.82	1423.95
621.16	1416.45
621.51	1408.86
621.85	1401.21
622.20	1392.76
622.55	1384.31
622.89	1376.47
623.24	1368.85
623.59	1361.44
623.93	1354.02
624.28	1346.85
624.62	1339.40
624.97	1332.23
625.32	1325.45
625.66	1318.51
626.01	1311.40
626.35	1303.94
626.70	1296.12
627.04	1288.36
627.39	1280.51
627.73	1273.10
628.08	1266.24
628.43	1258.95
628.77	1251.61
629.12	1244.07
629.46	1236.86
629.81	1229.47
630.15	1222.25
630.50	1214.81
630.84	1206.64
631.19	1198.68
631.53	1191.10
631.88	1183.58
632.22	1175.92
632.57	1168.61
632.91	1161.02
633.26	1153.60
633.60	1146.15
633.95	1139.04
634.29	1132.05
634.64	1125.27
634.98	1117.93
635.32	1110.76
635.67	1104.15
636.01	1097.51
636.36	1090.71
636.70	1084.02
637.05	1077.49
637.39	1071.07
637.73	1064.63
638.08	1058.71
638.42	1052.68
638.77	1046.16
639.11	1039.55
639.45	1033.16
639.80	1026.52
640.14	1020.20
640.49	1013.73
640.83	1007.46
641.17	1001.23
641.52	994.88
641.86	988.44
642.20	982.61
642.55	976.25
642.89	969.90
643.23	963.33
643.58	957.59
643.92	951.50
644.26	945.46
644.61	939.39
644.95	933.35
645.29	926.72
645.64	920.00
645.98	913.72
646.32	907.86
646.66	901.89
647.01	896.12
647.35	890.38
647.69	884.52
648.04	878.86
648.38	873.08
648.72	867.08
649.06	861.08
649.41	855.21
649.75	849.28
650.09	843.27
650.43	837.42
650.78	831.19
651.12	825.22
651.46	819.42
651.80	813.65
652.14	808.27
652.49	802.98
652.83	797.87
653.17	792.16
653.51	786.42
653.85	780.98
654.20	775.27
654.54	769.12
654.88	763.28
655.22	757.43
655.56	751.67
655.90	746.23
656.25	740.97
656.59	735.55
656.93	730.48
657.27	725.34
657.61	719.95
657.95	714.89
658.29	709.83
658.64	704.60
658.98	699.24
659.32	693.68
659.66	688.46
660.00	683.15
660.34	678.25
660.68	673.31
661.02	668.21
661.36	663.51
661.70	659.04
662.05	654.77
662.39	650.51
662.73	646.06
663.07	641.71
663.41	637.29
663.75	632.82
664.09	628.23
664.43	623.82
664.77	619.67
665.11	615.40
665.45	611.23
665.79	607.18
666.13	603.08
666.47	598.98
666.81	594.79
667.15	590.60
667.49	586.66
667.83	582.84
668.17	578.93
668.51	574.87
668.85	570.90
669.19	567.06
669.53	563.11
669.87	559.23
670.21	555.47
670.55	551.79
670.89	548.25
671.23	544.82
671.57	541.28
671.91	537.72
672.25	534.15
672.58	530.62
672.92	527.16
673.26	523.99
673.60	520.84
673.94	517.71
674.28	514.83
674.62	511.89
674.96	508.75
675.30	505.84
675.64	502.91
675.97	500.12
676.31	497.21
676.65	494.35
676.99	491.64
677.33	488.83
677.67	486.03
678.01	483.08
678.34	480.10
678.68	477.19
679.02	474.40
679.36	471.65
679.70	468.92
680.04	466.20
680.37	463.35
680.71	460.57
681.05	457.97
681.39	455.23
681.73	452.53
682.06	450.04
682.40	447.52
682.74	444.98
683.08	442.42
683.42	439.84
683.75	437.31
684.09	434.75
684.43	432.26
684.77	429.79
685.10	427.42
685.44	425.10
685.78	422.82
686.12	420.59
686.45	418.35
686.79	416.10
687.13	413.89
687.46	411.76
687.80	409.62
688.14	407.37
688.48	405.34
688.81	403.10
689.15	400.95
689.49	398.78
689.82	396.72
690.16	394.65
690.50	392.69
690.83	390.76
691.17	388.83
691.51	386.92
691.84	385.06
692.18	383.15
692.52	381.19
692.85	379.28
693.19	377.38
693.52	375.51
693.86	373.69
694.20	371.85
694.53	370.00
694.87	368.16
695.21	366.42
695.54	364.60
695.88	362.91
696.21	361.18
696.55	359.51
696.88	357.82
697.22	356.09
697.56	354.48
697.89	352.83
698.23	351.23
698.56	349.62
698.90	348.03
699.23	346.37
699.57	344.80
699.90	343.24
700.24	341.72
700.58	340.21
700.91	338.72
701.25	337.32
701.58	335.99
701.92	334.59
702.25	333.18
702.59	331.78
702.92	330.45
703.26	329.13
703.59	327.81
703.93	326.59
704.26	325.41
704.60	324.06
704.93	322.78
705.26	321.50
705.60	320.30
705.93	319.16
706.27	318.11
706.60	317.07
706.94	316.01
707.27	314.86
707.61	313.78
707.94	312.72
708.27	311.59
708.61	310.49
708.94	309.49
709.28	308.50
709.61	307.53
709.94	306.54
710.28	305.52
710.61	304.55
710.95	303.47
711.28	302.51
711.61	301.61
711.95	300.72
712.28	299.77
712.61	298.81
712.95	297.84
713.28	296.98
713.61	296.06
713.95	295.15
714.28	294.32
714.61	293.47
714.95	292.60
715.28	291.79
715.61	290.90
715.95	290.05
716.28	289.22
716.61	288.45
716.95	287.62
717.28	286.89
717.61	286.13
717.94	285.42
718.28	284.61
718.61	283.87
718.94	283.17
719.27	282.52
719.61	281.84
719.94	281.21
720.27	280.50
720.60	279.84
720.94	279.23
721.27	278.65
721.60	278.07
721.93	277.52
722.27	276.96
722.60	276.43
722.93	275.86
723.26	275.29
723.59	274.68
723.93	274.16
724.26	273.56
724.59	273.01
724.92	272.49
725.25	272.02
725.59	271.48
725.92	270.99
726.25	270.50
726.58	270.02
726.91	269.49
727.24	268.98
727.57	268.57
727.91	268.09
728.24	267.61
728.57	267.10
728.90	266.63
729.23	266.17
729.56	265.72
729.89	265.27
730.22	264.81
730.55	264.37
730.89	263.89
731.22	263.51
731.55	263.07
731.88	262.62
732.21	262.16
732.54	261.74
732.87	261.31
733.20	260.90
733.53	260.48
733.86	260.09
734.19	259.72
734.52	259.25
734.85	258.92
735.18	258.50
735.51	258.15
735.84	257.75
736.17	257.35
736.50	256.97
736.83	256.71
737.16	256.37
737.49	256.01
737.82	255.69
738.15	255.33
738.48	254.96
738.81	254.63
739.14	254.33
739.47	254.02
739.80	253.70
740.13	253.36
740.46	253.04
740.79	252.74
741.12	252.44
741.45	252.15
741.78	251.79
742.11	251.49
742.44	251.15
742.77	250.88
743.10	250.60
743.43	250.28
743.75	249.90
744.08	249.76
744.41	249.47
744.74	249.21
745.07	248.92
745.40	248.72
745.73	248.50
746.06	248.22
746.39	247.95
746.71	247.66
747.04	247.39
747.37	247.12
747.70	246.89
748.03	246.64
748.36	246.42
748.68	246.19
749.01	245.94
749.34	245.77
749.67	245.53
750.00	245.33
750.33	245.19
750.65	244.99
750.98	244.63
751.31	244.42
751.64	244.21
751.97	244.06
752.29	243.86
752.62	243.61
752.95	243.41
753.28	243.20
753.60	243.00
753.93	242.83
754.26	242.65
754.59	242.41
754.91	242.17
755.24	241.97
755.57	241.80
755.90	241.62
756.22	241.38
756.55	241.20
756.88	240.99
757.20	240.77
757.53	240.58
757.86	240.45
758.19	240.32
758.51	240.15
758.84	239.96
759.17	239.79
759.49	239.65
759.82	239.52
760.15	239.40
760.47	239.24
760.80	239.10
761.13	239.02
761.45	238.87
761.78	238.77
762.11	238.65
762.43	238.50
762.76	238.37
763.08	238.29
763.41	238.19
763.74	238.10
764.06	237.99
764.39	237.83
764.71	237.68
765.04	237.52
765.37	237.39
765.69	237.28
766.02	237.17
766.34	237.07
766.67	236.93
767.00	236.85
767.32	236.82
767.65	236.75
767.97	236.64
768.30	236.53
768.62	236.42
768.95	236.28
769.27	236.15
769.60	236.08
769.92	235.93
770.25	235.77
770.57	235.62
770.90	235.50
771.22	235.39
771.55	235.29
771.87	235.23
772.20	235.14
772.52	235.13
772.85	235.13
773.17	235.01
773.50	234.91
773.82	234.78
774.15	234.66
774.47	234.50
774.80	234.39
775.12	234.30
775.45	234.22
775.77	234.11
776.09	234.03
776.42	233.93
776.74	233.89
777.07	233.81
777.39	233.71
777.72	233.62
778.04	233.57
778.36	233.51
778.69	233.43
779.01	233.37
779.33	233.18
779.66	233.00
779.98	232.92
780.31	232.85
780.63	232.80
780.95	232.70
781.28	232.63
781.60	232.55
781.92	232.46
782.25	232.37
782.57	232.36
782.89	232.27
783.22	232.20
783.54	232.11
783.86	232.04
784.19	231.97
784.51	231.95
784.83	231.87
785.16	231.77
785.48	231.69
785.80	231.61
786.12	231.57
786.45	231.50
786.77	231.44
787.09	231.35
787.42	231.26
787.74	231.24
788.06	231.17
788.38	231.11
788.71	231.08
789.03	231.04
789.35	230.97
789.67	230.93
789.99	230.90
790.32	230.85
790.64	230.83
790.96	230.86
791.28	230.78
791.61	230.76
791.93	230.74
792.25	230.71
792.57	230.73
792.89	230.66
793.21	230.61
793.54	230.56
793.86	230.56
794.18	230.53
794.50	230.49
794.82	230.46
795.14	230.43
795.47	230.41
795.79	230.37
796.11	230.32
796.43	230.29
796.75	230.26
797.07	230.26
797.39	230.20
797.71	230.11
798.04	230.08
798.36	230.06
798.68	230.03
799.00	230.01
799.32	229.96
799.64	229.95
799.96	229.92
800.28	229.93
800.60	229.90
800.92	229.90
801.24	229.84
801.56	229.82
801.89	229.80
802.21	229.80
802.53	229.78
802.85	229.79
803.17	229.82
803.49	229.79
803.81	229.75
804.13	229.73
804.45	229.72
804.77	229.72
805.09	229.67
805.41	229.64
805.73	229.60
806.05	229.53
806.37	229.51
806.69	229.48
807.01	229.43
807.33	229.44
807.65	229.38
807.97	229.39
808.28	229.35
808.60	229.31
808.92	229.27
809.24	229.28
809.56	229.22
809.88	229.17
810.20	229.15
810.52	229.13
810.84	229.09
811.16	229.06
811.48	229.04
811.80	229.04
812.12	229.01
812.43	229.02
812.75	228.99
813.07	229.00
813.39	228.99
813.71	228.98
814.03	228.92
814.35	228.89
814.67	228.84
814.98	228.79
815.30	228.76
815.62	228.71
815.94	228.63
816.26	228.67
816.58	228.61
816.89	228.56
817.21	228.51
817.53	228.50
817.85	228.48
818.17	228.44
818.48	228.40
818.80	228.41
819.12	228.37
819.44	228.38
819.76	228.34
820.07	228.30
820.39	228.27
820.71	228.27
821.03	228.25
821.34	228.24
821.66	228.26
821.98	228.26
822.30	228.25
822.61	228.30
822.93	228.24
823.25	228.23
823.57	228.24
823.88	228.25
824.20	228.25
824.52	228.24
824.83	228.21
825.15	228.21
825.47	228.18
825.79	228.16
826.10	228.10
826.42	228.05
826.74	228.04
827.05	228.02
827.37	227.96
827.69	227.95
828.00	227.93
828.32	227.92
828.64	227.88
828.95	227.93
829.27	227.90
829.58	227.90
829.90	227.91
830.22	227.91
830.53	227.86
830.85	227.83
831.17	227.79
831.48	227.76
831.80	227.77
832.11	227.75
832.43	227.74
832.75	227.75
833.06	227.81
833.38	227.79
833.69	227.79
834.01	227.79
834.32	227.79
834.64	227.78
834.96	227.77
835.27	227.78
835.59	227.77
835.90	227.71
836.22	227.69
836.53	227.68
836.85	227.66
837.16	227.75
837.48	227.73
837.79	227.79
838.11	227.81
838.42	227.76
838.74	227.76
839.05	227.76
839.37	227.72
839.68	227.64
840.00	227.62
840.31	227.61
840.63	227.61
840.94	227.61
841.26	227.61
841.57	227.61
841.88	227.62
842.20	227.59
842.51	227.60
842.83	227.60
843.14	227.71
843.46	227.69
843.77	227.65
844.08	227.65
844.40	227.61
844.71	227.61
845.03	227.64
845.34	227.64
845.65	227.64
845.97	227.65
846.28	227.69
846.60	227.72
846.91	227.74
847.22	227.73
847.54	227.73
847.85	227.74
848.16	227.71
848.48	227.70
848.79	227.75
849.10	227.79
849.42	227.78
849.73	227.65
850.04	227.63
850.36	227.61
850.67	227.63
850.98	227.62
851.30	227.62
851.61	227.60
851.92	227.59
852.23	227.59
852.55	227.60
852.86	227.61
853.17	227.61
853.49	227.62
853.80	227.65
854.11	227.68
854.42	227.69
854.74	227.71
855.05	227.70
855.36	227.62
855.67	227.59
855.99	227.60
856.30	227.67
856.61	227.66
856.92	227.62
857.23	227.62
857.55	227.63
857.86	227.63
858.17	227.68
858.48	227.66
858.79	227.64
859.11	227.65
859.42	227.61
859.73	227.58
860.04	227.56
860.35	227.52
860.66	227.49
860.98	227.47
861.29	227.48
861.60	227.47
861.91	227.48
862.22	227.48
862.53	227.44
862.84	227.33
863.16	227.38
863.47	227.39
863.78	227.35
864.09	227.35
864.40	227.31
864.71	227.26
865.02	227.28
865.33	227.26
865.64	227.26
865.95	227.24
866.27	227.32
866.58	227.28
866.89	227.31
867.20	227.30
867.51	227.28
867.82	227.24
868.13	227.24
868.44	227.22
868.75	227.20
869.06	227.21
869.37	227.26
869.68	227.20
869.99	227.16
870.30	227.21
870.61	227.20
870.92	227.20
871.23	227.18
871.54	227.18
871.85	227.21
872.16	227.19
872.47	227.19
872.78	227.13
873.09	227.12
873.40	227.09
873.71	227.09
874.02	227.10
874.33	227.10
874.64	227.10
874.95	227.12
875.26	227.10
875.56	227.10
875.87	227.09
876.18	227.06
876.49	227.21
876.80	227.15
877.11	227.13
877.42	227.16
877.73	227.19
878.04	227.16
878.35	227.15
878.66	227.16
878.96	227.13
879.27	227.13
879.58	227.15
879.89	227.15
880.20	227.19
880.51	227.17
880.82	227.19
881.12	227.16
881.43	227.14
881.74	227.15
882.05	227.12
882.36	227.09
882.67	227.10
882.97	226.96
883.28	226.95
883.59	226.96
883.90	226.94
884.21	226.93
884.51	226.92
884.82	226.89
885.13	226.90
885.44	226.91
885.74	226.90
886.05	226.88
886.36	226.87
886.67	226.84
886.98	226.86
887.28	226.83
887.59	226.84
887.90	226.84
888.20	226.85
888.51	226.91
888.82	226.90
889.13	226.92
889.43	227.02
889.74	227.06
890.05	227.01
890.35	227.00
890.66	226.98
890.97	226.98
891.28	227.00
891.58	226.98
891.89	227.00
892.20	226.99
892.50	226.98
892.81	226.94
893.12	226.91
893.42	226.90
893.73	226.91
894.04	226.92
894.34	226.93
894.65	226.91
894.95	226.86
895.26	226.91
895.57	226.96
895.87	226.84
896.18	226.83
896.48	226.87
896.79	226.86
897.10	226.89
897.40	226.86
897.71	226.87
898.01	226.85
898.32	226.86
898.63	226.85
898.93	226.89
899.24	226.93
899.54	226.94
899.85	226.93
900.15	226.95
900.46	226.93
900.76	226.93
901.07	226.92
901.38	226.92
901.68	226.91
901.99	226.85
902.29	226.89
902.60	226.87
902.90	226.84
903.21	226.83
903.51	226.82
903.82	226.88
904.12	226.86
904.43	226.88
904.73	226.89
905.03	226.88
905.34	226.95
905.64	226.90
905.95	226.87
906.25	226.85
906.56	226.80
906.86	226.77
907.17	226.76
907.47	226.79
907.77	226.79
908.08	226.77
908.38	226.78
908.69	226.78
908.99	226.80
909.30	226.82
909.60	226.84
909.90	226.84
910.21	226.82
910.51	226.81
910.81	226.81
911.12	226.80
911.42	226.79
911.73	226.71
912.03	226.74
912.33	226.80
912.64	226.78
912.94	226.78
913.24	226.78
913.55	226.76
913.85	226.75
914.15	226.76
914.46	226.75
914.76	226.75
915.06	226.73
915.37	226.70
915.67	226.68
915.97	226.64
916.27	226.59
916.58	226.58
916.88	226.58
917.18	226.57
917.49	226.62
917.79	226.63
918.09	226.67
918.39	226.69
918.70	226.70
919.00	226.73
919.30	226.79
919.60	226.81
919.91	226.81
920.21	226.82
920.51	226.80
920.81	226.81
921.12	226.82
921.42	226.83
921.72	226.83
922.02	226.85
922.32	226.88
922.63	226.90
922.93	226.91
923.23	226.90
923.53	226.85
923.83	226.79
924.13	226.80
924.44	226.76
924.74	226.78
925.04	226.76
925.34	226.77
925.64	226.72
925.94	226.74
926.24	226.81
926.55	226.79
926.85	226.83
927.15	226.83
927.45	226.84
927.75	226.79
928.05	226.79
928.35	226.80
928.65	226.82
928.95	226.83
929.26	226.81
929.56	226.83
929.86	226.85
930.16	226.85
930.46	226.85
930.76	226.86
931.06	226.80
931.36	226.79
931.66	226.79
931.96	226.82
932.26	226.79
932.56	226.73
932.86	226.74
933.16	226.73
933.46	226.73
933.76	226.70
934.06	226.75
934.36	226.79
934.66	226.79
934.96	226.75
935.26	226.75
935.56	226.76
935.86	226.77
936.16	226.80
936.46	226.80
936.76	226.78
937.06	226.77
937.36	226.76
937.66	226.79
937.96	226.77
938.26	226.75
938.56	226.75
938.86	226.79
939.16	226.81
939.46	226.82
939.76	226.83
940.06	226.85
940.35	226.84
940.65	226.82
940.95	226.82
941.25	226.82
941.55	226.81
941.85	226.84
942.15	226.85
942.45	226.87
942.75	226.87
943.04	226.89
943.34	226.93
943.64	226.95
943.94	226.91
944.24	226.89
944.54	226.89
944.84	226.91
945.13	226.88
945.43	226.87
945.73	226.88
946.03	226.84
946.33	226.81
946.62	226.80
946.92	226.82
947.22	226.83
947.52	226.86
947.82	226.89
948.11	226.87
948.41	226.85
948.71	226.83
949.01	226.86
949.31	226.85
949.60	226.82
949.90	226.84
950.20	226.86
950.50	226.84
950.79	226.85
951.09	226.84
951.39	226.81
951.69	226.78
951.98	226.74
952.28	226.77
952.58	226.80
952.87	226.78
953.17	226.75
953.47	226.72
953.76	226.69
954.06	226.67
954.36	226.64
954.66	226.59
954.95	226.60
955.25	226.56
955.55	226.58
955.84	226.55
956.14	226.54
956.44	226.53
956.73	226.52
957.03	226.51
957.32	226.49
957.62	226.50
957.92	226.53
958.21	226.56
958.51	226.63
958.81	226.62
959.10	226.64
959.40	226.64
959.69	226.65
959.99	226.66
960.29	226.66
960.58	226.66
960.88	226.74
961.17	226.74
961.47	226.75
961.76	226.74
962.06	226.79
962.36	226.77
962.65	226.80
962.95	226.80
963.24	226.78
963.54	226.85
963.83	226.86
964.13	226.86
964.42	226.83
964.72	226.78
965.01	226.79
965.31	226.78
965.60	226.77
965.90	226.85
966.19	226.84
966.49	226.84
966.78	226.85
967.08	226.82
967.37	226.82
967.67	226.81
967.96	226.82
968.26	226.80
968.55	226.81
968.85	226.81
969.14	226.83
969.43	226.87
969.73	226.81
970.02	226.79
970.32	226.79
970.61	226.79
970.91	226.74
971.20	226.72
971.49	226.74
971.79	226.76
972.08	226.67
972.38	226.67
972.67	226.67
972.96	226.66
973.26	226.62
973.55	226.66
973.85	226.68
974.14	226.68
974.43	226.69
974.73	226.68
975.02	226.66
975.31	226.64
975.61	226.62
975.90	226.63
976.19	226.65
976.49	226.65
976.78	226.66
977.07	226.68
977.37	226.68
977.66	226.67
977.95	226.66
978.24	226.70
978.54	226.72
978.83	226.72
979.12	226.75
979.42	226.78
979.71	226.76
980.00	226.73
980.29	226.74
980.59	226.72
980.88	226.74
981.17	226.75
981.46	226.74
981.76	226.72
982.05	226.74
982.34	226.76
982.63	226.76
982.93	226.78
983.22	226.80
983.51	226.77
983.80	226.79
984.09	226.80
984.39	226.79
984.68	226.78
984.97	226.76
985.26	226.71
985.55	226.72
985.85	226.73
986.14	226.77
986.43	226.75
986.72	226.74
987.01	226.70
987.30	226.69
987.59	226.67
987.89	226.68
988.18	226.65
988.47	226.59
988.76	226.58
989.05	226.55
989.34	226.55
989.63	226.57
989.92	226.56
990.22	226.56
990.51	226.51
990.80	226.49
991.09	226.48
991.38	226.51
991.67	226.51
991.96	226.47
992.25	226.45
992.54	226.44
992.83	226.43
993.12	226.42
993.41	226.46
993.70	226.53
993.99	226.54
994.28	226.55
994.58	226.60
994.87	226.58
995.16	226.56
995.45	226.53
995.74	226.51
996.03	226.49
996.32	226.49
996.61	226.52
996.90	226.53
997.19	226.54
997.48	226.53
997.77	226.47
998.06	226.43
998.34	226.38
998.63	226.37
998.92	226.40
999.21	226.42
999.50	226.38
999.79	226.36
1000.08	226.37
1000.37	226.38
1000.66	226.37
1000.95	226.39
1001.24	226.40
1001.53	226.43
1001.82	226.42
1002.11	226.42
1002.40	226.43
1002.68	226.46
1002.97	226.50
1003.26	226.51
1003.55	226.50
1003.84	226.54
1004.13	226.59
1004.42	226.60
1004.71	226.61
1004.99	226.60
1005.28	226.64
1005.57	226.67
1005.86	226.65
1006.15	226.65
1006.44	226.65
1006.72	226.66
1007.01	226.66
1007.30	226.66
1007.59	226.61
1007.88	226.60
1008.17	226.63
1008.45	226.62
1008.74	226.58
1009.03	226.55
1009.32	226.54
1009.60	226.57
1009.89	226.56
1010.18	226.53
1010.47	226.57
1010.76	226.60
1011.04	226.57
1011.33	226.55
1011.62	226.56
1011.91	226.55
1012.19	226.54
1012.48	226.51
1012.77	226.51
1013.05	226.56
1013.34	226.57
1013.63	226.59
1013.92	226.62
1014.20	226.60
1014.49	226.60
1014.78	226.62
1015.06	226.60
1015.35	226.61
1015.64	226.59
1015.92	226.61
1016.21	226.64
1016.50	226.64
1016.78	226.62
1017.07	226.65
1017.36	226.61
1017.64	226.57
1017.93	226.57
1018.22	226.58
1018.50	226.61
1018.79	226.58
1019.08	226.54
1019.36	226.53
1019.65	226.53
1019.93	226.55
1020.22	226.59
1020.51	226.64
1020.79	226.61
1021.08	226.78
1021.36	226.68
1021.65	226.20
1021.94	226.85
1022.22	226.38
1022.51	226.25
1022.79	226.84
1023.08	227.46
1023.36	227.85
1023.65	226.33
>>>>>End Processed Spectral Data<<<<<
