SpectraSuite Data File
++++++++++++++++++++++++++++++++++++
Date: Fri Feb 01 15:00:29 EST 2013
User: group
Dark Spectrum Present: No
Reference Spectrum Present: No
Number of Sampled Component Spectra: 1
Spectrometers: USB2E7196
Integration Time (usec): 35000 (USB2E7196)
Spectra Averaged: 100 (USB2E7196)
Boxcar Smoothing: 10 (USB2E7196)
Correct for Electrical Dark: No (USB2E7196)
Strobe/Lamp Enabled: No (USB2E7196)
Correct for Detector Non-linearity: No (USB2E7196)
Correct for Stray Light: No (USB2E7196)
Number of Pixels in Processed Spectrum: 2048
>>>>>Begin Processed Spectral Data<<<<<
339.09	0.00
339.48	214.74
339.86	216.66
340.24	217.87
340.63	219.48
341.01	222.73
341.39	222.03
341.78	223.17
342.16	224.28
342.54	225.36
342.93	213.45
343.31	224.24
343.69	224.80
344.07	225.29
344.46	225.71
344.84	226.10
345.22	226.33
345.60	226.59
345.99	226.78
346.37	226.94
346.75	227.05
347.13	227.10
347.52	227.17
347.90	227.26
348.28	227.32
348.66	227.39
349.05	227.36
349.43	227.44
349.81	227.43
350.19	227.49
350.57	227.56
350.96	227.62
351.34	227.69
351.72	227.79
352.10	227.88
352.48	227.95
352.87	227.98
353.25	228.02
353.63	228.09
354.01	228.18
354.39	228.25
354.77	228.32
355.15	228.41
355.54	228.46
355.92	228.49
356.30	228.52
356.68	228.61
357.06	228.69
357.44	228.71
357.82	228.84
358.20	228.90
358.58	228.94
358.97	228.99
359.35	229.09
359.73	229.11
360.11	229.15
360.49	229.21
360.87	229.25
361.25	229.32
361.63	229.36
362.01	229.37
362.39	229.39
362.77	229.40
363.15	229.41
363.53	229.42
363.91	229.46
364.29	229.48
364.67	229.40
365.05	229.42
365.43	229.46
365.81	229.46
366.19	229.49
366.57	229.52
366.95	229.52
367.33	229.48
367.71	229.50
368.09	229.49
368.47	229.45
368.85	229.42
369.23	229.39
369.61	229.36
369.99	229.35
370.37	229.36
370.75	229.36
371.13	229.29
371.51	229.24
371.89	229.17
372.27	229.09
372.65	229.04
373.03	228.98
373.41	228.89
373.78	228.79
374.16	228.66
374.54	228.56
374.92	228.48
375.30	228.38
375.68	228.28
376.06	228.22
376.44	228.15
376.82	228.07
377.19	228.00
377.57	227.87
377.95	227.77
378.33	227.61
378.71	227.44
379.09	227.40
379.47	227.30
379.84	227.23
380.22	227.18
380.60	227.08
380.98	227.02
381.36	226.94
381.73	226.90
382.11	226.85
382.49	226.80
382.87	226.72
383.25	226.65
383.62	226.71
384.00	226.60
384.38	226.53
384.76	226.53
385.13	226.50
385.51	226.48
385.89	226.42
386.27	226.40
386.64	226.40
387.02	226.35
387.40	226.33
387.78	226.29
388.15	226.24
388.53	226.22
388.91	226.19
389.29	226.17
389.66	226.14
390.04	226.11
390.42	226.09
390.79	226.10
391.17	226.11
391.55	225.98
391.92	226.01
392.30	226.04
392.68	226.02
393.05	226.05
393.43	226.07
393.81	226.08
394.18	226.12
394.56	226.16
394.94	226.18
395.31	226.19
395.69	226.26
396.06	226.36
396.44	226.41
396.82	226.45
397.19	226.55
397.57	226.60
397.95	226.70
398.32	226.73
398.70	226.81
399.07	226.90
399.45	226.98
399.82	227.05
400.20	227.08
400.58	227.18
400.95	227.20
401.33	227.32
401.70	227.48
402.08	227.59
402.45	227.69
402.83	227.86
403.20	227.99
403.58	228.10
403.95	228.21
404.33	228.37
404.71	228.50
405.08	228.69
405.46	228.85
405.83	229.01
406.21	229.16
406.58	229.33
406.96	229.51
407.33	229.72
407.70	229.93
408.08	230.23
408.45	230.44
408.83	230.71
409.20	230.94
409.58	231.13
409.95	231.37
410.33	231.64
410.70	231.89
411.08	232.20
411.45	232.51
411.82	232.86
412.20	233.18
412.57	233.57
412.95	233.84
413.32	234.27
413.69	234.69
414.07	235.16
414.44	235.66
414.82	236.13
415.19	236.65
415.56	237.19
415.94	237.72
416.31	238.36
416.68	238.98
417.06	239.67
417.43	240.36
417.81	241.14
418.18	241.93
418.55	242.75
418.93	243.61
419.30	244.53
419.67	245.43
420.04	246.40
420.42	247.39
420.79	248.58
421.16	249.71
421.54	250.88
421.91	252.04
422.28	253.25
422.66	254.55
423.03	255.91
423.40	257.21
423.77	258.64
424.15	260.06
424.52	261.54
424.89	263.12
425.26	264.67
425.64	266.13
426.01	267.71
426.38	269.37
426.75	271.05
427.13	272.77
427.50	274.53
427.87	276.39
428.24	278.27
428.61	280.02
428.99	281.96
429.36	284.03
429.73	286.13
430.10	288.16
430.47	290.24
430.85	292.33
431.22	294.60
431.59	296.95
431.96	299.16
432.33	301.65
432.70	304.04
433.08	306.80
433.45	309.48
433.82	312.10
434.19	315.00
434.56	317.82
434.93	320.47
435.30	323.15
435.68	326.07
436.05	328.92
436.42	331.72
436.79	334.26
437.16	336.95
437.53	339.78
437.90	342.60
438.27	345.33
438.64	348.13
439.01	350.74
439.38	352.97
439.75	355.20
440.13	357.67
440.50	360.03
440.87	361.92
441.24	363.83
441.61	366.00
441.98	367.47
442.35	369.30
442.72	371.17
443.09	372.94
443.46	373.94
443.83	374.48
444.20	375.00
444.57	375.80
444.94	376.13
445.31	376.48
445.68	376.86
446.05	376.94
446.42	376.58
446.79	376.18
447.16	375.81
447.53	375.46
447.90	374.31
448.27	373.16
448.64	371.60
449.01	370.48
449.37	368.48
449.74	366.59
450.11	364.31
450.48	361.88
450.85	359.41
451.22	357.26
451.59	355.24
451.96	353.31
452.33	350.74
452.70	348.39
453.07	345.53
453.43	342.62
453.80	339.86
454.17	337.21
454.54	334.63
454.91	331.86
455.28	329.17
455.65	326.70
456.02	324.20
456.38	322.02
456.75	319.32
457.12	317.08
457.49	314.84
457.86	312.65
458.23	310.76
458.59	308.67
458.96	306.56
459.33	304.70
459.70	302.83
460.07	301.31
460.43	299.56
460.80	297.96
461.17	296.51
461.54	295.00
461.91	293.56
462.27	292.10
462.64	290.86
463.01	289.49
463.38	288.15
463.74	286.77
464.11	285.60
464.48	284.56
464.85	283.45
465.21	282.57
465.58	281.64
465.95	280.52
466.32	279.60
466.68	278.70
467.05	277.78
467.42	276.87
467.78	275.87
468.15	274.97
468.52	274.30
468.88	273.39
469.25	272.63
469.62	271.97
469.98	271.27
470.35	270.59
470.72	270.00
471.08	269.34
471.45	268.81
471.82	268.25
472.18	267.63
472.55	267.16
472.92	266.64
473.28	266.17
473.65	265.72
474.02	265.26
474.38	264.85
474.75	264.53
475.11	264.16
475.48	263.92
475.85	263.70
476.21	263.44
476.58	263.24
476.94	263.06
477.31	262.85
477.67	262.72
478.04	262.61
478.41	262.55
478.77	262.60
479.14	262.51
479.50	262.56
479.87	262.63
480.23	262.70
480.60	262.75
480.96	262.79
481.33	263.03
481.69	263.21
482.06	263.40
482.42	263.58
482.79	263.88
483.15	264.23
483.52	264.57
483.88	264.92
484.25	265.32
484.61	265.77
484.98	266.24
485.34	266.82
485.71	267.40
486.07	268.01
486.44	268.57
486.80	269.27
487.17	269.96
487.53	270.80
487.90	271.67
488.26	272.61
488.62	273.63
488.99	274.59
489.35	275.68
489.72	276.87
490.08	278.11
490.44	279.31
490.81	280.62
491.17	281.94
491.54	283.41
491.90	284.93
492.26	286.57
492.63	288.26
492.99	290.02
493.36	291.92
493.72	293.94
494.08	296.03
494.45	298.29
494.81	300.65
495.17	303.04
495.54	305.57
495.90	308.25
496.26	311.06
496.63	313.99
496.99	317.09
497.35	320.27
497.72	323.63
498.08	327.17
498.44	330.78
498.80	334.73
499.17	338.76
499.53	342.90
499.89	347.25
500.26	351.80
500.62	356.47
500.98	361.41
501.34	366.49
501.71	371.82
502.07	377.24
502.43	382.80
502.79	388.61
503.16	394.69
503.52	400.92
503.88	407.29
504.24	413.93
504.60	420.73
504.97	427.87
505.33	435.19
505.69	442.83
506.05	450.61
506.41	458.47
506.78	466.58
507.14	475.03
507.50	483.70
507.86	492.69
508.22	501.86
508.59	511.07
508.95	520.62
509.31	530.40
509.67	540.42
510.03	550.68
510.39	561.26
510.75	572.05
511.12	582.95
511.48	594.20
511.84	605.57
512.20	617.11
512.56	629.07
512.92	641.22
513.28	653.50
513.64	665.98
514.00	678.66
514.37	691.62
514.73	704.56
515.09	717.66
515.45	730.93
515.81	744.52
516.17	758.41
516.53	772.47
516.89	786.66
517.25	800.92
517.61	815.44
517.97	829.86
518.33	844.32
518.69	859.14
519.05	874.19
519.41	889.39
519.77	905.01
520.13	920.46
520.49	935.82
520.85	951.41
521.21	967.28
521.57	983.53
521.93	999.36
522.29	1015.94
522.65	1032.19
523.01	1048.50
523.37	1064.57
523.73	1080.92
524.09	1097.12
524.45	1113.59
524.81	1130.33
525.17	1147.20
525.53	1164.19
525.89	1181.13
526.25	1198.02
526.61	1214.48
526.97	1231.38
527.33	1247.86
527.68	1264.63
528.04	1281.28
528.40	1297.95
528.76	1315.13
529.12	1331.86
529.48	1348.75
529.84	1364.80
530.20	1381.50
530.56	1398.65
530.91	1416.10
531.27	1432.97
531.63	1449.57
531.99	1466.13
532.35	1482.13
532.71	1498.05
533.07	1514.35
533.42	1530.31
533.78	1546.50
534.14	1562.78
534.50	1578.10
534.86	1594.15
535.21	1609.24
535.57	1625.33
535.93	1640.87
536.29	1655.58
536.65	1670.65
537.00	1685.63
537.36	1701.04
537.72	1715.90
538.08	1730.30
538.44	1744.26
538.79	1758.14
539.15	1772.02
539.51	1785.78
539.87	1800.24
540.22	1814.09
540.58	1828.07
540.94	1841.55
541.29	1854.61
541.65	1867.49
542.01	1880.89
542.37	1893.29
542.72	1905.93
543.08	1917.72
543.44	1930.30
543.79	1941.54
544.15	1952.79
544.51	1964.37
544.87	1975.51
545.22	1986.20
545.58	1996.49
545.94	2006.21
546.29	2016.08
546.65	2025.80
547.01	2035.18
547.36	2044.04
547.72	2052.58
548.07	2060.28
548.43	2068.45
548.79	2076.38
549.14	2083.87
549.50	2091.29
549.86	2099.03
550.21	2106.26
550.57	2113.46
550.92	2120.03
551.28	2127.21
551.64	2134.20
551.99	2140.91
552.35	2146.95
552.70	2152.98
553.06	2158.86
553.41	2165.28
553.77	2171.33
554.13	2177.32
554.48	2183.31
554.84	2188.39
555.19	2193.66
555.55	2198.84
555.90	2203.28
556.26	2208.16
556.61	2212.98
556.97	2216.99
557.32	2221.05
557.68	2225.23
558.03	2229.39
558.39	2232.95
558.74	2237.50
559.10	2241.23
559.45	2244.65
559.81	2248.99
560.16	2252.81
560.52	2256.20
560.87	2259.57
561.23	2262.05
561.58	2265.04
561.94	2267.65
562.29	2270.28
562.64	2272.79
563.00	2275.50
563.35	2278.86
563.71	2281.83
564.06	2284.79
564.42	2287.61
564.77	2289.92
565.12	2291.99
565.48	2293.71
565.83	2295.47
566.19	2296.58
566.54	2297.61
566.89	2298.57
567.25	2298.86
567.60	2300.12
567.96	2301.56
568.31	2302.31
568.66	2303.25
569.02	2303.77
569.37	2303.87
569.72	2304.41
570.08	2304.38
570.43	2304.18
570.78	2303.49
571.14	2301.78
571.49	2300.38
571.84	2299.84
572.20	2298.51
572.55	2297.34
572.90	2295.81
573.26	2294.19
573.61	2292.42
573.96	2290.28
574.31	2287.10
574.67	2284.01
575.02	2280.26
575.37	2276.68
575.72	2272.62
576.08	2269.35
576.43	2265.98
576.78	2262.19
577.13	2258.90
577.49	2255.81
577.84	2252.12
578.19	2248.28
578.54	2244.48
578.90	2240.03
579.25	2234.51
579.60	2229.38
579.95	2224.20
580.30	2218.96
580.66	2213.72
581.01	2208.62
581.36	2203.60
581.71	2199.43
582.06	2194.82
582.42	2190.04
582.77	2184.71
583.12	2179.94
583.47	2174.97
583.82	2169.60
584.17	2164.28
584.53	2158.70
584.88	2152.86
585.23	2146.95
585.58	2141.39
585.93	2135.83
586.28	2131.09
586.63	2125.79
586.98	2120.79
587.34	2116.05
587.69	2111.08
588.04	2105.64
588.39	2099.83
588.74	2093.33
589.09	2087.06
589.44	2080.15
589.79	2074.17
590.14	2068.48
590.49	2061.89
590.84	2055.52
591.19	2049.45
591.54	2042.86
591.89	2035.32
592.25	2028.39
592.60	2021.14
592.95	2013.40
593.30	2005.97
593.65	1998.22
594.00	1991.18
594.35	1983.72
594.70	1975.54
595.05	1968.20
595.40	1960.99
595.75	1953.50
596.10	1947.08
596.45	1940.07
596.80	1933.82
597.15	1927.05
597.50	1919.68
597.85	1913.20
598.19	1906.48
598.54	1899.27
598.89	1892.58
599.24	1886.67
599.59	1879.92
599.94	1873.59
600.29	1867.17
600.64	1860.55
600.99	1852.90
601.34	1846.01
601.69	1839.06
602.04	1832.02
602.39	1824.64
602.74	1817.69
603.08	1810.92
603.43	1804.21
603.78	1797.10
604.13	1789.92
604.48	1782.57
604.83	1775.84
605.18	1768.66
605.53	1760.50
605.87	1752.47
606.22	1745.20
606.57	1737.29
606.92	1729.99
607.27	1722.75
607.62	1715.81
607.96	1708.53
608.31	1701.86
608.66	1694.11
609.01	1686.48
609.36	1679.10
609.70	1671.06
610.05	1662.97
610.40	1655.19
610.75	1646.83
611.10	1639.05
611.44	1630.64
611.79	1622.70
612.14	1614.04
612.49	1605.11
612.83	1596.84
613.18	1588.81
613.53	1580.79
613.88	1572.19
614.22	1563.95
614.57	1555.51
614.92	1547.57
615.27	1539.92
615.61	1531.65
615.96	1523.75
616.31	1516.27
616.65	1508.84
617.00	1501.27
617.35	1493.62
617.70	1485.36
618.04	1476.95
618.39	1468.76
618.74	1461.21
619.08	1452.96
619.43	1445.35
619.78	1438.44
620.12	1431.24
620.47	1423.80
620.82	1415.61
621.16	1408.26
621.51	1400.71
621.85	1393.11
622.20	1384.60
622.55	1376.47
622.89	1368.79
623.24	1361.40
623.59	1354.04
623.93	1346.56
624.28	1339.39
624.62	1331.95
624.97	1324.79
625.32	1318.06
625.66	1311.10
626.01	1303.94
626.35	1296.59
626.70	1288.85
627.04	1281.10
627.39	1273.37
627.73	1265.98
628.08	1259.12
628.43	1251.76
628.77	1244.29
629.12	1236.74
629.46	1229.56
629.81	1222.26
630.15	1215.04
630.50	1207.55
630.84	1199.35
631.19	1191.50
631.53	1184.16
631.88	1176.67
632.22	1169.11
632.57	1161.90
632.91	1154.36
633.26	1147.00
633.60	1139.58
633.95	1132.73
634.29	1125.73
634.64	1119.21
634.98	1111.86
635.32	1104.77
635.67	1098.30
636.01	1091.85
636.36	1085.09
636.70	1078.70
637.05	1072.10
637.39	1065.63
637.73	1059.16
638.08	1053.38
638.42	1047.45
638.77	1040.99
639.11	1034.39
639.45	1028.06
639.80	1021.30
640.14	1014.95
640.49	1008.40
640.83	1002.18
641.17	995.93
641.52	989.72
641.86	983.37
642.20	977.57
642.55	971.34
642.89	964.97
643.23	958.45
643.58	952.67
643.92	946.40
644.26	940.33
644.61	934.40
644.95	928.46
645.29	921.85
645.64	915.10
645.98	908.84
646.32	903.10
646.66	897.15
647.01	891.48
647.35	885.81
647.69	880.07
648.04	874.50
648.38	868.69
648.72	862.62
649.06	856.42
649.41	850.47
649.75	844.43
650.09	838.35
650.43	832.54
650.78	826.48
651.12	820.63
651.46	814.95
651.80	809.14
652.14	803.71
652.49	798.37
652.83	793.19
653.17	787.44
653.51	781.67
653.85	776.23
654.20	770.55
654.54	764.63
654.88	758.99
655.22	753.19
655.56	747.51
655.90	742.13
656.25	736.92
656.59	731.60
656.93	726.53
657.27	721.52
657.61	716.09
657.95	710.91
658.29	705.80
658.64	700.57
658.98	695.37
659.32	689.86
659.66	684.67
660.00	679.41
660.34	674.55
660.68	669.75
661.02	664.76
661.36	660.08
661.70	655.64
662.05	651.24
662.39	646.90
662.73	642.52
663.07	638.11
663.41	633.68
663.75	629.22
664.09	624.74
664.43	620.36
664.77	616.32
665.11	612.14
665.45	608.10
665.79	603.99
666.13	599.87
666.47	595.81
666.81	591.66
667.15	587.59
667.49	583.66
667.83	579.87
668.17	575.93
668.51	571.91
668.85	567.84
669.19	564.05
669.53	560.24
669.87	556.36
670.21	552.75
670.55	549.16
670.89	545.81
671.23	542.38
671.57	538.96
671.91	535.48
672.25	532.02
672.58	528.55
672.92	525.20
673.26	522.15
673.60	519.10
673.94	516.08
674.28	513.18
674.62	510.33
674.96	507.24
675.30	504.38
675.64	501.55
675.97	498.83
676.31	495.99
676.65	493.09
676.99	490.47
677.33	487.61
677.67	484.86
678.01	481.84
678.34	478.85
678.68	475.96
679.02	473.11
679.36	470.39
679.70	467.68
680.04	464.95
680.37	462.02
680.71	459.26
681.05	456.64
681.39	453.96
681.73	451.33
682.06	448.81
682.40	446.25
682.74	443.71
683.08	441.22
683.42	438.59
683.75	436.16
684.09	433.61
684.43	431.19
684.77	428.74
685.10	426.44
685.44	424.23
685.78	422.00
686.12	419.81
686.45	417.50
686.79	415.27
687.13	413.11
687.46	410.96
687.80	408.81
688.14	406.58
688.48	404.55
688.81	402.28
689.15	400.10
689.49	398.01
689.82	395.93
690.16	393.81
690.50	391.92
690.83	389.95
691.17	387.98
691.51	386.06
691.84	384.21
692.18	382.25
692.52	380.18
692.85	378.25
693.19	376.40
693.52	374.63
693.86	372.75
694.20	370.96
694.53	369.20
694.87	367.38
695.21	365.64
695.54	363.82
695.88	362.14
696.21	360.41
696.55	358.75
696.88	357.06
697.22	355.43
697.56	353.80
697.89	352.11
698.23	350.51
698.56	348.86
698.90	347.28
699.23	345.64
699.57	344.17
699.90	342.64
700.24	341.04
700.58	339.45
700.91	337.97
701.25	336.54
701.58	335.16
701.92	333.77
702.25	332.36
702.59	330.99
702.92	329.66
703.26	328.37
703.59	327.05
703.93	325.87
704.26	324.64
704.60	323.34
704.93	322.13
705.26	320.88
705.60	319.77
705.93	318.64
706.27	317.64
706.60	316.60
706.94	315.48
707.27	314.41
707.61	313.37
707.94	312.37
708.27	311.29
708.61	310.22
708.94	309.22
709.28	308.25
709.61	307.31
709.94	306.33
710.28	305.33
710.61	304.41
710.95	303.30
711.28	302.40
711.61	301.45
711.95	300.50
712.28	299.53
712.61	298.59
712.95	297.64
713.28	296.73
713.61	295.81
713.95	294.98
714.28	294.16
714.61	293.36
714.95	292.52
715.28	291.66
715.61	290.78
715.95	289.99
716.28	289.16
716.61	288.34
716.95	287.53
717.28	286.81
717.61	286.02
717.94	285.34
718.28	284.54
718.61	283.88
718.94	283.22
719.27	282.59
719.61	281.91
719.94	281.25
720.27	280.54
720.60	279.89
720.94	279.27
721.27	278.66
721.60	278.03
721.93	277.43
722.27	276.91
722.60	276.43
722.93	275.86
723.26	275.33
723.59	274.72
723.93	274.23
724.26	273.68
724.59	273.13
724.92	272.61
725.25	272.16
725.59	271.62
725.92	271.13
726.25	270.61
726.58	270.15
726.91	269.66
727.24	269.24
727.57	268.78
727.91	268.27
728.24	267.79
728.57	267.28
728.90	266.85
729.23	266.36
729.56	265.91
729.89	265.41
730.22	264.93
730.55	264.50
730.89	264.04
731.22	263.59
731.55	263.15
731.88	262.74
732.21	262.26
732.54	261.80
732.87	261.38
733.20	261.03
733.53	260.64
733.86	260.28
734.19	259.86
734.52	259.51
734.85	259.15
735.18	258.76
735.51	258.41
735.84	258.01
736.17	257.65
736.50	257.24
736.83	256.99
737.16	256.66
737.49	256.30
737.82	255.93
738.15	255.60
738.48	255.28
738.81	254.95
739.14	254.64
739.47	254.31
739.80	253.98
740.13	253.63
740.46	253.30
740.79	252.97
741.12	252.63
741.45	252.27
741.78	251.96
742.11	251.65
742.44	251.35
742.77	251.05
743.10	250.76
743.43	250.44
743.75	250.06
744.08	249.90
744.41	249.63
744.74	249.37
745.07	249.06
745.40	248.84
745.73	248.56
746.06	248.31
746.39	248.07
746.71	247.82
747.04	247.55
747.37	247.30
747.70	247.04
748.03	246.83
748.36	246.62
748.68	246.39
749.01	246.13
749.34	245.89
749.67	245.68
750.00	245.45
750.33	245.34
750.65	245.13
750.98	244.78
751.31	244.59
751.64	244.38
751.97	244.23
752.29	243.98
752.62	243.74
752.95	243.53
753.28	243.34
753.60	243.17
753.93	242.99
754.26	242.76
754.59	242.56
754.91	242.36
755.24	242.16
755.57	241.98
755.90	241.83
756.22	241.66
756.55	241.46
756.88	241.29
757.20	241.06
757.53	240.87
757.86	240.73
758.19	240.56
758.51	240.39
758.84	240.19
759.17	240.04
759.49	239.93
759.82	239.80
760.15	239.65
760.47	239.48
760.80	239.33
761.13	239.25
761.45	239.13
761.78	238.99
762.11	238.84
762.43	238.68
762.76	238.52
763.08	238.42
763.41	238.30
763.74	238.18
764.06	238.05
764.39	237.92
764.71	237.80
765.04	237.71
765.37	237.59
765.69	237.47
766.02	237.35
766.34	237.22
766.67	237.08
767.00	236.98
767.32	236.91
767.65	236.87
767.97	236.74
768.30	236.64
768.62	236.53
768.95	236.46
769.27	236.39
769.60	236.30
769.92	236.16
770.25	236.03
770.57	235.90
770.90	235.76
771.22	235.67
771.55	235.57
771.87	235.48
772.20	235.43
772.52	235.41
772.85	235.41
773.17	235.32
773.50	235.23
773.82	235.14
774.15	234.98
774.47	234.83
774.80	234.73
775.12	234.64
775.45	234.50
775.77	234.38
776.09	234.27
776.42	234.21
776.74	234.15
777.07	234.09
777.39	234.00
777.72	233.94
778.04	233.89
778.36	233.81
778.69	233.72
779.01	233.63
779.33	233.49
779.66	233.30
779.98	233.21
780.31	233.10
780.63	233.08
780.95	233.03
781.28	232.94
781.60	232.85
781.92	232.74
782.25	232.73
782.57	232.66
782.89	232.56
783.22	232.46
783.54	232.39
783.86	232.30
784.19	232.26
784.51	232.26
784.83	232.15
785.16	232.08
785.48	231.99
785.80	231.90
786.12	231.84
786.45	231.81
786.77	231.74
787.09	231.70
787.42	231.59
787.74	231.58
788.06	231.51
788.38	231.48
788.71	231.44
789.03	231.39
789.35	231.36
789.67	231.33
789.99	231.29
790.32	231.24
790.64	231.20
790.96	231.21
791.28	231.06
791.61	231.00
791.93	230.97
792.25	230.94
792.57	230.99
792.89	230.93
793.21	230.89
793.54	230.87
793.86	230.88
794.18	230.85
794.50	230.78
794.82	230.78
795.14	230.73
795.47	230.71
795.79	230.66
796.11	230.62
796.43	230.61
796.75	230.57
797.07	230.53
797.39	230.50
797.71	230.45
798.04	230.48
798.36	230.49
798.68	230.46
799.00	230.46
799.32	230.38
799.64	230.40
799.96	230.40
800.28	230.39
800.60	230.30
800.92	230.30
801.24	230.24
801.56	230.23
801.89	230.22
802.21	230.22
802.53	230.22
802.85	230.23
803.17	230.25
803.49	230.22
803.81	230.21
804.13	230.22
804.45	230.19
804.77	230.19
805.09	230.16
805.41	230.14
805.73	230.13
806.05	230.08
806.37	230.06
806.69	230.00
807.01	229.98
807.33	229.98
807.65	229.91
807.97	229.98
808.28	229.93
808.60	229.91
808.92	229.86
809.24	229.87
809.56	229.79
809.88	229.74
810.20	229.73
810.52	229.75
810.84	229.70
811.16	229.65
811.48	229.60
811.80	229.66
812.12	229.61
812.43	229.58
812.75	229.56
813.07	229.52
813.39	229.55
813.71	229.50
814.03	229.49
814.35	229.47
814.67	229.37
814.98	229.34
815.30	229.30
815.62	229.27
815.94	229.19
816.26	229.22
816.58	229.18
816.89	229.13
817.21	229.05
817.53	229.01
817.85	229.00
818.17	228.97
818.48	228.86
818.80	228.87
819.12	228.85
819.44	228.84
819.76	228.77
820.07	228.72
820.39	228.71
820.71	228.66
821.03	228.63
821.34	228.61
821.66	228.63
821.98	228.60
822.30	228.57
822.61	228.62
822.93	228.54
823.25	228.51
823.57	228.53
823.88	228.54
824.20	228.54
824.52	228.53
824.83	228.51
825.15	228.47
825.47	228.46
825.79	228.44
826.10	228.40
826.42	228.41
826.74	228.40
827.05	228.35
827.37	228.35
827.69	228.29
828.00	228.32
828.32	228.25
828.64	228.27
828.95	228.30
829.27	228.24
829.58	228.22
829.90	228.23
830.22	228.22
830.53	228.18
830.85	228.16
831.17	228.12
831.48	228.11
831.80	228.11
832.11	228.05
832.43	228.02
832.75	228.02
833.06	228.08
833.38	228.04
833.69	228.05
834.01	228.06
834.32	228.05
834.64	228.00
834.96	228.03
835.27	228.00
835.59	227.99
835.90	227.96
836.22	227.99
836.53	227.98
836.85	227.93
837.16	228.04
837.48	228.03
837.79	228.09
838.11	228.08
838.42	228.08
838.74	228.10
839.05	228.09
839.37	228.06
839.68	227.98
840.00	227.98
840.31	227.97
840.63	227.97
840.94	227.98
841.26	228.01
841.57	228.02
841.88	228.01
842.20	227.99
842.51	228.00
842.83	227.99
843.14	228.08
843.46	228.11
843.77	228.05
844.08	228.04
844.40	228.01
844.71	227.98
845.03	228.01
845.34	228.00
845.65	228.01
845.97	228.02
846.28	228.05
846.60	228.06
846.91	228.06
847.22	228.05
847.54	228.09
847.85	228.10
848.16	228.09
848.48	228.08
848.79	228.13
849.10	228.13
849.42	228.15
849.73	228.06
850.04	228.05
850.36	228.01
850.67	228.03
850.98	228.00
851.30	228.06
851.61	228.03
851.92	228.06
852.23	228.10
852.55	228.09
852.86	228.04
853.17	228.07
853.49	228.08
853.80	228.10
854.11	228.10
854.42	228.10
854.74	228.07
855.05	228.04
855.36	227.97
855.67	227.97
855.99	227.90
856.30	228.01
856.61	228.00
856.92	228.00
857.23	227.98
857.55	227.95
857.86	227.92
858.17	227.90
858.48	227.83
858.79	227.76
859.11	227.74
859.42	227.72
859.73	227.63
860.04	227.60
860.35	227.57
860.66	227.54
860.98	227.49
861.29	227.49
861.60	227.48
861.91	227.48
862.22	227.45
862.53	227.44
862.84	227.28
863.16	227.26
863.47	227.23
863.78	227.22
864.09	227.20
864.40	227.18
864.71	227.18
865.02	227.21
865.33	227.22
865.64	227.20
865.95	227.21
866.27	227.30
866.58	227.34
866.89	227.36
867.20	227.31
867.51	227.29
867.82	227.28
868.13	227.30
868.44	227.27
868.75	227.28
869.06	227.30
869.37	227.31
869.68	227.25
869.99	227.27
870.30	227.28
870.61	227.30
870.92	227.28
871.23	227.27
871.54	227.27
871.85	227.29
872.16	227.31
872.47	227.32
872.78	227.26
873.09	227.23
873.40	227.21
873.71	227.23
874.02	227.28
874.33	227.26
874.64	227.24
874.95	227.28
875.26	227.26
875.56	227.26
875.87	227.27
876.18	227.33
876.49	227.42
876.80	227.44
877.11	227.45
877.42	227.45
877.73	227.46
878.04	227.46
878.35	227.46
878.66	227.46
878.96	227.49
879.27	227.49
879.58	227.50
879.89	227.51
880.20	227.56
880.51	227.56
880.82	227.60
881.12	227.61
881.43	227.63
881.74	227.63
882.05	227.63
882.36	227.64
882.67	227.65
882.97	227.58
883.28	227.56
883.59	227.54
883.90	227.57
884.21	227.58
884.51	227.62
884.82	227.59
885.13	227.62
885.44	227.61
885.74	227.58
886.05	227.60
886.36	227.60
886.67	227.55
886.98	227.59
887.28	227.57
887.59	227.56
887.90	227.54
888.20	227.53
888.51	227.56
888.82	227.54
889.13	227.52
889.43	227.56
889.74	227.56
890.05	227.56
890.35	227.52
890.66	227.51
890.97	227.44
891.28	227.46
891.58	227.44
891.89	227.44
892.20	227.46
892.50	227.45
892.81	227.42
893.12	227.42
893.42	227.37
893.73	227.36
894.04	227.36
894.34	227.37
894.65	227.34
894.95	227.32
895.26	227.34
895.57	227.38
895.87	227.29
896.18	227.29
896.48	227.28
896.79	227.29
897.10	227.28
897.40	227.31
897.71	227.29
898.01	227.30
898.32	227.30
898.63	227.23
898.93	227.22
899.24	227.22
899.54	227.20
899.85	227.17
900.15	227.15
900.46	227.17
900.76	227.15
901.07	227.15
901.38	227.14
901.68	227.13
901.99	227.08
902.29	227.10
902.60	227.05
902.90	227.05
903.21	227.08
903.51	227.07
903.82	227.04
904.12	227.05
904.43	227.01
904.73	226.99
905.03	227.03
905.34	227.09
905.64	227.06
905.95	227.08
906.25	227.09
906.56	227.10
906.86	227.05
907.17	227.04
907.47	227.05
907.77	227.02
908.08	226.99
908.38	227.00
908.69	226.98
908.99	227.00
909.30	227.04
909.60	227.04
909.90	227.04
910.21	227.03
910.51	227.04
910.81	227.05
911.12	227.06
911.42	227.09
911.73	226.98
912.03	227.03
912.33	227.04
912.64	227.06
912.94	227.06
913.24	227.06
913.55	227.08
913.85	227.09
914.15	227.15
914.46	227.21
914.76	227.21
915.06	227.21
915.37	227.25
915.67	227.22
915.97	227.22
916.27	227.22
916.58	227.26
916.88	227.25
917.18	227.27
917.49	227.39
917.79	227.37
918.09	227.43
918.39	227.46
918.70	227.48
919.00	227.47
919.30	227.53
919.60	227.59
919.91	227.60
920.21	227.62
920.51	227.61
920.81	227.61
921.12	227.64
921.42	227.69
921.72	227.67
922.02	227.72
922.32	227.75
922.63	227.75
922.93	227.79
923.23	227.79
923.53	227.78
923.83	227.72
924.13	227.75
924.44	227.73
924.74	227.73
925.04	227.71
925.34	227.72
925.64	227.68
925.94	227.64
926.24	227.68
926.55	227.66
926.85	227.67
927.15	227.67
927.45	227.65
927.75	227.62
928.05	227.61
928.35	227.57
928.65	227.55
928.95	227.57
929.26	227.54
929.56	227.56
929.86	227.56
930.16	227.54
930.46	227.52
930.76	227.51
931.06	227.48
931.36	227.48
931.66	227.46
931.96	227.48
932.26	227.47
932.56	227.44
932.86	227.42
933.16	227.40
933.46	227.35
933.76	227.35
934.06	227.33
934.36	227.34
934.66	227.32
934.96	227.29
935.26	227.30
935.56	227.30
935.86	227.25
936.16	227.21
936.46	227.18
936.76	227.15
937.06	227.16
937.36	227.16
937.66	227.14
937.96	227.17
938.26	227.11
938.56	227.08
938.86	227.03
939.16	227.02
939.46	227.03
939.76	227.03
940.06	227.01
940.35	227.00
940.65	226.94
940.95	226.95
941.25	226.95
941.55	226.90
941.85	226.89
942.15	226.89
942.45	226.89
942.75	226.89
943.04	226.89
943.34	226.87
943.64	226.84
943.94	226.80
944.24	226.77
944.54	226.79
944.84	226.82
945.13	226.83
945.43	226.85
945.73	226.85
946.03	226.83
946.33	226.82
946.62	226.83
946.92	226.84
947.22	226.84
947.52	226.83
947.82	226.85
948.11	226.84
948.41	226.83
948.71	226.80
949.01	226.81
949.31	226.79
949.60	226.82
949.90	226.84
950.20	226.84
950.50	226.84
950.79	226.84
951.09	226.87
951.39	226.88
951.69	226.86
951.98	226.88
952.28	226.92
952.58	226.94
952.87	226.95
953.17	226.96
953.47	226.95
953.76	226.99
954.06	226.98
954.36	226.98
954.66	227.03
954.95	227.10
955.25	227.11
955.55	227.18
955.84	227.16
956.14	227.22
956.44	227.25
956.73	227.27
957.03	227.31
957.32	227.30
957.62	227.31
957.92	227.36
958.21	227.33
958.51	227.43
958.81	227.43
959.10	227.45
959.40	227.49
959.69	227.54
959.99	227.56
960.29	227.55
960.58	227.54
960.88	227.53
961.17	227.53
961.47	227.56
961.76	227.52
962.06	227.53
962.36	227.53
962.65	227.54
962.95	227.54
963.24	227.53
963.54	227.54
963.83	227.54
964.13	227.52
964.42	227.50
964.72	227.43
965.01	227.42
965.31	227.40
965.60	227.38
965.90	227.41
966.19	227.39
966.49	227.42
966.78	227.42
967.08	227.41
967.37	227.41
967.67	227.36
967.96	227.39
968.26	227.35
968.55	227.29
968.85	227.27
969.14	227.23
969.43	227.22
969.73	227.18
970.02	227.16
970.32	227.15
970.61	227.19
970.91	227.15
971.20	227.12
971.49	227.10
971.79	227.07
972.08	227.00
972.38	226.96
972.67	226.94
972.96	226.96
973.26	226.90
973.55	226.92
973.85	226.89
974.14	226.86
974.43	226.86
974.73	226.86
975.02	226.84
975.31	226.90
975.61	226.88
975.90	226.88
976.19	226.85
976.49	226.86
976.78	226.83
977.07	226.81
977.37	226.79
977.66	226.81
977.95	226.78
978.24	226.79
978.54	226.81
978.83	226.80
979.12	226.78
979.42	226.80
979.71	226.77
980.00	226.78
980.29	226.79
980.59	226.77
980.88	226.79
981.17	226.81
981.46	226.76
981.76	226.76
982.05	226.80
982.34	226.83
982.63	226.82
982.93	226.84
983.22	226.88
983.51	226.90
983.80	226.93
984.09	226.96
984.39	226.93
984.68	226.92
984.97	226.94
985.26	226.93
985.55	226.96
985.85	226.94
986.14	226.96
986.43	226.97
986.72	226.99
987.01	226.96
987.30	226.97
987.59	226.98
987.89	226.99
988.18	226.94
988.47	226.95
988.76	226.93
989.05	226.91
989.34	226.90
989.63	226.94
989.92	226.92
990.22	226.94
990.51	226.98
990.80	226.97
991.09	226.98
991.38	226.99
991.67	226.97
991.96	226.97
992.25	227.00
992.54	226.98
992.83	226.99
993.12	227.03
993.41	227.04
993.70	227.05
993.99	227.09
994.28	227.13
994.58	227.14
994.87	227.16
995.16	227.14
995.45	227.11
995.74	227.11
996.03	227.14
996.32	227.13
996.61	227.15
996.90	227.15
997.19	227.14
997.48	227.15
997.77	227.16
998.06	227.16
998.34	227.13
998.63	227.13
998.92	227.12
999.21	227.12
999.50	227.12
999.79	227.12
1000.08	227.08
1000.37	227.08
1000.66	227.05
1000.95	227.05
1001.24	227.11
1001.53	227.16
1001.82	227.14
1002.11	227.10
1002.40	227.11
1002.68	227.10
1002.97	227.15
1003.26	227.13
1003.55	227.11
1003.84	227.14
1004.13	227.18
1004.42	227.18
1004.71	227.17
1004.99	227.15
1005.28	227.16
1005.57	227.15
1005.86	227.12
1006.15	227.11
1006.44	227.06
1006.72	227.05
1007.01	227.05
1007.30	227.01
1007.59	226.97
1007.88	226.94
1008.17	226.95
1008.45	226.93
1008.74	226.88
1009.03	226.85
1009.32	226.82
1009.60	226.80
1009.89	226.76
1010.18	226.68
1010.47	226.67
1010.76	226.66
1011.04	226.62
1011.33	226.59
1011.62	226.58
1011.91	226.58
1012.19	226.61
1012.48	226.62
1012.77	226.61
1013.05	226.63
1013.34	226.60
1013.63	226.59
1013.92	226.57
1014.20	226.52
1014.49	226.46
1014.78	226.47
1015.06	226.43
1015.35	226.45
1015.64	226.50
1015.92	226.53
1016.21	226.53
1016.50	226.53
1016.78	226.53
1017.07	226.56
1017.36	226.56
1017.64	226.54
1017.93	226.56
1018.22	226.49
1018.50	226.49
1018.79	226.52
1019.08	226.44
1019.36	226.48
1019.65	226.49
1019.93	226.55
1020.22	226.58
1020.51	226.67
1020.79	226.65
1021.08	225.94
1021.36	226.48
1021.65	226.67
1021.94	226.02
1022.22	227.16
1022.51	226.73
1022.79	227.06
1023.08	226.57
1023.36	227.63
1023.65	226.26
>>>>>End Processed Spectral Data<<<<<
