SpectraSuite Data File
++++++++++++++++++++++++++++++++++++
Date: Fri Feb 01 14:51:12 EST 2013
User: group
Dark Spectrum Present: No
Reference Spectrum Present: No
Number of Sampled Component Spectra: 1
Spectrometers: USB2E7196
Integration Time (usec): 35000 (USB2E7196)
Spectra Averaged: 100 (USB2E7196)
Boxcar Smoothing: 10 (USB2E7196)
Correct for Electrical Dark: No (USB2E7196)
Strobe/Lamp Enabled: No (USB2E7196)
Correct for Detector Non-linearity: No (USB2E7196)
Correct for Stray Light: No (USB2E7196)
Number of Pixels in Processed Spectrum: 2048
>>>>>Begin Processed Spectral Data<<<<<
339.09	0.00
339.48	215.10
339.86	217.07
340.24	218.78
340.63	219.74
341.01	222.42
341.39	222.27
341.78	223.79
342.16	224.33
342.54	225.30
342.93	213.85
343.31	224.66
343.69	225.23
344.07	225.70
344.46	226.11
344.84	226.47
345.22	226.71
345.60	226.96
345.99	227.15
346.37	227.32
346.75	227.44
347.13	227.47
347.52	227.52
347.90	227.58
348.28	227.62
348.66	227.63
349.05	227.63
349.43	227.69
349.81	227.72
350.19	227.74
350.57	227.77
350.96	227.82
351.34	227.88
351.72	227.94
352.10	228.01
352.48	228.08
352.87	228.15
353.25	228.21
353.63	228.28
354.01	228.31
354.39	228.37
354.77	228.46
355.15	228.57
355.54	228.60
355.92	228.62
356.30	228.69
356.68	228.83
357.06	228.89
357.44	228.93
357.82	229.03
358.20	229.10
358.58	229.13
358.97	229.19
359.35	229.27
359.73	229.34
360.11	229.37
360.49	229.43
360.87	229.50
361.25	229.53
361.63	229.57
362.01	229.62
362.39	229.64
362.77	229.66
363.15	229.68
363.53	229.69
363.91	229.72
364.29	229.73
364.67	229.63
365.05	229.66
365.43	229.67
365.81	229.66
366.19	229.69
366.57	229.73
366.95	229.72
367.33	229.68
367.71	229.64
368.09	229.67
368.47	229.61
368.85	229.54
369.23	229.52
369.61	229.47
369.99	229.43
370.37	229.41
370.75	229.40
371.13	229.33
371.51	229.27
371.89	229.23
372.27	229.15
372.65	229.11
373.03	229.04
373.41	228.97
373.78	228.88
374.16	228.78
374.54	228.68
374.92	228.58
375.30	228.49
375.68	228.43
376.06	228.35
376.44	228.28
376.82	228.22
377.19	228.17
377.57	228.09
377.95	228.02
378.33	227.95
378.71	227.82
379.09	227.74
379.47	227.70
379.84	227.59
380.22	227.52
380.60	227.43
380.98	227.33
381.36	227.26
381.73	227.18
382.11	227.12
382.49	227.08
382.87	227.00
383.25	226.99
383.62	227.05
384.00	226.97
384.38	226.90
384.76	226.90
385.13	226.84
385.51	226.81
385.89	226.74
386.27	226.69
386.64	226.66
387.02	226.67
387.40	226.64
387.78	226.63
388.15	226.62
388.53	226.61
388.91	226.61
389.29	226.59
389.66	226.61
390.04	226.59
390.42	226.60
390.79	226.62
391.17	226.60
391.55	226.51
391.92	226.51
392.30	226.54
392.68	226.51
393.05	226.56
393.43	226.57
393.81	226.62
394.18	226.66
394.56	226.70
394.94	226.71
395.31	226.72
395.69	226.77
396.06	226.86
396.44	226.90
396.82	226.98
397.19	227.08
397.57	227.15
397.95	227.23
398.32	227.28
398.70	227.34
399.07	227.47
399.45	227.51
399.82	227.62
400.20	227.71
400.58	227.77
400.95	227.82
401.33	227.92
401.70	228.06
402.08	228.15
402.45	228.27
402.83	228.40
403.20	228.51
403.58	228.65
403.95	228.76
404.33	228.92
404.71	229.02
405.08	229.19
405.46	229.35
405.83	229.52
406.21	229.68
406.58	229.89
406.96	230.03
407.33	230.25
407.70	230.45
408.08	230.73
408.45	230.99
408.83	231.21
409.20	231.42
409.58	231.59
409.95	231.86
410.33	232.11
410.70	232.35
411.08	232.68
411.45	232.97
411.82	233.26
412.20	233.60
412.57	234.02
412.95	234.30
413.32	234.68
413.69	235.06
414.07	235.47
414.44	235.91
414.82	236.39
415.19	236.89
415.56	237.42
415.94	237.94
416.31	238.57
416.68	239.19
417.06	239.92
417.43	240.62
417.81	241.39
418.18	242.15
418.55	243.00
418.93	243.86
419.30	244.73
419.67	245.70
420.04	246.65
420.42	247.61
420.79	248.77
421.16	249.90
421.54	251.02
421.91	252.20
422.28	253.46
422.66	254.78
423.03	256.09
423.40	257.39
423.77	258.78
424.15	260.17
424.52	261.68
424.89	263.25
425.26	264.79
425.64	266.22
426.01	267.78
426.38	269.42
426.75	271.04
427.13	272.77
427.50	274.52
427.87	276.36
428.24	278.22
428.61	279.97
428.99	281.92
429.36	284.04
429.73	286.13
430.10	288.12
430.47	290.17
430.85	292.30
431.22	294.54
431.59	296.91
431.96	299.20
432.33	301.67
432.70	304.08
433.08	306.90
433.45	309.56
433.82	312.16
434.19	315.05
434.56	317.89
434.93	320.54
435.30	323.18
435.68	326.06
436.05	328.87
436.42	331.68
436.79	334.19
437.16	336.95
437.53	339.78
437.90	342.63
438.27	345.36
438.64	348.17
439.01	350.80
439.38	353.05
439.75	355.18
440.13	357.66
440.50	360.01
440.87	361.86
441.24	363.84
441.61	366.04
441.98	367.56
442.35	369.34
442.72	371.25
443.09	373.06
443.46	374.12
443.83	374.74
444.20	375.23
444.57	376.09
444.94	376.37
445.31	376.71
445.68	377.02
446.05	377.09
446.42	376.71
446.79	376.27
447.16	375.83
447.53	375.51
447.90	374.33
448.27	373.15
448.64	371.57
449.01	370.36
449.37	368.39
449.74	366.46
450.11	364.28
450.48	361.81
450.85	359.31
451.22	357.15
451.59	355.12
451.96	353.22
452.33	350.62
452.70	348.28
453.07	345.49
453.43	342.64
453.80	339.89
454.17	337.25
454.54	334.69
454.91	331.99
455.28	329.34
455.65	326.91
456.02	324.48
456.38	322.33
456.75	319.66
457.12	317.38
457.49	315.20
457.86	313.03
458.23	311.13
458.59	309.08
458.96	307.01
459.33	305.17
459.70	303.33
460.07	301.81
460.43	300.09
460.80	298.44
461.17	296.99
461.54	295.51
461.91	294.08
462.27	292.65
462.64	291.39
463.01	290.04
463.38	288.68
463.74	287.29
464.11	286.13
464.48	285.13
464.85	284.02
465.21	283.09
465.58	282.15
465.95	281.04
466.32	280.06
466.68	279.15
467.05	278.24
467.42	277.27
467.78	276.32
468.15	275.39
468.52	274.68
468.88	273.78
469.25	273.00
469.62	272.35
469.98	271.65
470.35	270.99
470.72	270.38
471.08	269.72
471.45	269.17
471.82	268.59
472.18	267.97
472.55	267.55
472.92	267.06
473.28	266.57
473.65	266.16
474.02	265.72
474.38	265.32
474.75	265.01
475.11	264.65
475.48	264.36
475.85	264.15
476.21	263.91
476.58	263.72
476.94	263.52
477.31	263.37
477.67	263.21
478.04	263.07
478.41	262.98
478.77	263.05
479.14	262.95
479.50	262.92
479.87	262.98
480.23	263.02
480.60	263.08
480.96	263.16
481.33	263.29
481.69	263.52
482.06	263.70
482.42	263.87
482.79	264.12
483.15	264.47
483.52	264.81
483.88	265.18
484.25	265.59
484.61	266.03
484.98	266.46
485.34	267.02
485.71	267.63
486.07	268.25
486.44	268.77
486.80	269.50
487.17	270.25
487.53	271.09
487.90	271.94
488.26	272.89
488.62	273.88
488.99	274.85
489.35	275.86
489.72	277.01
490.08	278.21
490.44	279.45
490.81	280.74
491.17	282.08
491.54	283.55
491.90	285.10
492.26	286.72
492.63	288.43
492.99	290.19
493.36	292.06
493.72	294.07
494.08	296.18
494.45	298.39
494.81	300.76
495.17	303.15
495.54	305.70
495.90	308.33
496.26	311.11
496.63	314.04
496.99	317.11
497.35	320.29
497.72	323.63
498.08	327.14
498.44	330.75
498.80	334.63
499.17	338.64
499.53	342.79
499.89	347.11
500.26	351.57
500.62	356.20
500.98	361.12
501.34	366.17
501.71	371.45
502.07	376.82
502.43	382.39
502.79	388.17
503.16	394.14
503.52	400.38
503.88	406.73
504.24	413.33
504.60	420.16
504.97	427.24
505.33	434.51
505.69	442.12
506.05	449.87
506.41	457.72
506.78	465.84
507.14	474.20
507.50	482.90
507.86	491.90
508.22	500.99
508.59	510.12
508.95	519.62
509.31	529.41
509.67	539.50
510.03	549.79
510.39	560.27
510.75	571.00
511.12	581.85
511.48	593.15
511.84	604.63
512.20	616.22
512.56	628.13
512.92	640.31
513.28	652.66
513.64	665.15
514.00	677.82
514.37	690.67
514.73	703.72
515.09	716.71
515.45	730.00
515.81	743.55
516.17	757.51
516.53	771.67
516.89	785.79
517.25	799.98
517.61	814.31
517.97	828.75
518.33	843.19
518.69	858.01
519.05	873.08
519.41	888.22
519.77	903.69
520.13	919.26
520.49	934.64
520.85	950.09
521.21	965.77
521.57	981.92
521.93	997.81
522.29	1014.20
522.65	1030.51
523.01	1046.78
523.37	1062.96
523.73	1079.29
524.09	1095.47
524.45	1111.85
524.81	1128.57
525.17	1145.42
525.53	1162.39
525.89	1179.34
526.25	1196.14
526.61	1212.45
526.97	1229.25
527.33	1245.82
527.68	1262.39
528.04	1278.92
528.40	1295.57
528.76	1312.72
529.12	1329.53
529.48	1346.35
529.84	1362.42
530.20	1379.15
530.56	1396.26
530.91	1413.65
531.27	1430.54
531.63	1446.98
531.99	1463.62
532.35	1479.64
532.71	1495.56
533.07	1511.91
533.42	1527.93
533.78	1544.10
534.14	1560.46
534.50	1575.78
534.86	1591.76
535.21	1606.96
535.57	1623.05
535.93	1638.50
536.29	1653.29
536.65	1668.46
537.00	1683.42
537.36	1698.86
537.72	1713.41
538.08	1727.79
538.44	1741.71
538.79	1755.58
539.15	1769.37
539.51	1783.28
539.87	1797.70
540.22	1811.51
540.58	1825.28
540.94	1838.71
541.29	1851.60
541.65	1864.32
542.01	1877.71
542.37	1889.99
542.72	1902.60
543.08	1914.28
543.44	1926.77
543.79	1938.10
544.15	1949.04
544.51	1960.44
544.87	1971.46
545.22	1982.28
545.58	1992.34
545.94	2002.17
546.29	2012.05
546.65	2021.80
547.01	2030.85
547.36	2039.49
547.72	2048.03
548.07	2055.94
548.43	2064.04
548.79	2072.12
549.14	2079.58
549.50	2086.78
549.86	2094.57
550.21	2101.76
550.57	2108.88
550.92	2115.48
551.28	2122.59
551.64	2129.69
551.99	2136.39
552.35	2142.37
552.70	2148.54
553.06	2154.59
553.41	2160.72
553.77	2166.60
554.13	2172.71
554.48	2178.81
554.84	2184.15
555.19	2189.29
555.55	2194.19
555.90	2198.47
556.26	2203.12
556.61	2207.88
556.97	2212.09
557.32	2215.94
557.68	2219.92
558.03	2224.14
558.39	2227.70
558.74	2232.20
559.10	2235.89
559.45	2239.25
559.81	2243.64
560.16	2247.28
560.52	2250.51
560.87	2253.96
561.23	2256.51
561.58	2259.33
561.94	2261.78
562.29	2264.17
562.64	2266.76
563.00	2269.31
563.35	2272.78
563.71	2275.88
564.06	2278.82
564.42	2281.50
564.77	2283.92
565.12	2286.10
565.48	2287.88
565.83	2289.54
566.19	2290.52
566.54	2291.27
566.89	2292.27
567.25	2292.48
567.60	2293.58
567.96	2295.00
568.31	2295.56
568.66	2296.43
569.02	2296.80
569.37	2296.83
569.72	2297.25
570.08	2297.11
570.43	2296.73
570.78	2295.70
571.14	2293.78
571.49	2292.33
571.84	2291.78
572.20	2290.29
572.55	2289.03
572.90	2287.19
573.26	2285.56
573.61	2283.64
573.96	2281.68
574.31	2278.58
574.67	2275.34
575.02	2271.44
575.37	2267.74
575.72	2263.77
576.08	2260.27
576.43	2256.70
576.78	2252.87
577.13	2249.59
577.49	2246.43
577.84	2242.96
578.19	2239.36
578.54	2235.57
578.90	2231.08
579.25	2225.46
579.60	2220.37
579.95	2215.10
580.30	2209.96
580.66	2204.61
581.01	2199.48
581.36	2194.37
581.71	2189.98
582.06	2185.34
582.42	2180.79
582.77	2175.39
583.12	2170.59
583.47	2165.51
583.82	2160.42
584.17	2155.11
584.53	2149.49
584.88	2143.72
585.23	2137.72
585.58	2131.91
585.93	2126.46
586.28	2121.55
586.63	2116.28
586.98	2111.07
587.34	2106.27
587.69	2101.27
588.04	2095.92
588.39	2090.14
588.74	2083.53
589.09	2077.17
589.44	2070.26
589.79	2064.01
590.14	2058.36
590.49	2051.63
590.84	2045.26
591.19	2039.02
591.54	2032.32
591.89	2024.72
592.25	2017.62
592.60	2010.35
592.95	2002.66
593.30	1995.08
593.65	1987.31
594.00	1980.14
594.35	1972.75
594.70	1964.67
595.05	1957.28
595.40	1949.92
595.75	1942.38
596.10	1935.88
596.45	1929.17
596.80	1922.87
597.15	1916.10
597.50	1908.87
597.85	1902.47
598.19	1895.78
598.54	1888.62
598.89	1881.96
599.24	1876.08
599.59	1869.50
599.94	1863.28
600.29	1856.93
600.64	1850.46
600.99	1843.00
601.34	1836.15
601.69	1829.20
602.04	1822.21
602.39	1814.88
602.74	1808.12
603.08	1801.31
603.43	1794.72
603.78	1787.40
604.13	1780.26
604.48	1773.07
604.83	1766.27
605.18	1759.17
605.53	1751.06
605.87	1743.10
606.22	1735.84
606.57	1727.87
606.92	1720.43
607.27	1713.19
607.62	1706.28
607.96	1698.93
608.31	1692.42
608.66	1684.79
609.01	1677.35
609.36	1669.90
609.70	1661.87
610.05	1653.69
610.40	1646.19
610.75	1637.87
611.10	1630.26
611.44	1621.97
611.79	1614.02
612.14	1605.48
612.49	1596.50
612.83	1588.33
613.18	1580.32
613.53	1572.38
613.88	1564.02
614.22	1555.87
614.57	1547.40
614.92	1539.53
615.27	1532.08
615.61	1523.80
615.96	1515.86
616.31	1508.20
616.65	1500.86
617.00	1493.46
617.35	1485.94
617.70	1477.53
618.04	1469.07
618.39	1460.91
618.74	1453.37
619.08	1445.25
619.43	1437.69
619.78	1430.86
620.12	1423.77
620.47	1416.31
620.82	1408.23
621.16	1401.03
621.51	1393.54
621.85	1386.10
622.20	1377.60
622.55	1369.41
622.89	1361.66
623.24	1354.22
623.59	1346.90
623.93	1339.52
624.28	1332.42
624.62	1325.09
624.97	1318.06
625.32	1311.43
625.66	1304.50
626.01	1297.31
626.35	1289.93
626.70	1282.27
627.04	1274.56
627.39	1266.82
627.73	1259.58
628.08	1252.63
628.43	1245.27
628.77	1238.02
629.12	1230.52
629.46	1223.44
629.81	1216.10
630.15	1209.06
630.50	1201.71
630.84	1193.76
631.19	1185.87
631.53	1178.47
631.88	1170.88
632.22	1163.45
632.57	1156.34
632.91	1148.87
633.26	1141.68
633.60	1134.44
633.95	1127.41
634.29	1120.44
634.64	1113.88
634.98	1106.53
635.32	1099.58
635.67	1093.10
636.01	1086.57
636.36	1079.80
636.70	1073.36
637.05	1066.90
637.39	1060.49
637.73	1054.17
638.08	1048.44
638.42	1042.61
638.77	1036.16
639.11	1029.73
639.45	1023.40
639.80	1016.71
640.14	1010.41
640.49	1003.91
640.83	997.67
641.17	991.60
641.52	985.45
641.86	979.15
642.20	973.38
642.55	967.19
642.89	960.72
643.23	954.29
643.58	948.68
643.92	942.71
644.26	936.72
644.61	930.74
644.95	924.67
645.29	918.10
645.64	911.41
645.98	905.15
646.32	899.37
646.66	893.45
647.01	887.78
647.35	882.18
647.69	876.49
648.04	870.98
648.38	865.27
648.72	859.29
649.06	853.28
649.41	847.51
649.75	841.48
650.09	835.64
650.43	829.83
650.78	823.74
651.12	817.73
651.46	811.96
651.80	806.25
652.14	800.96
652.49	795.61
652.83	790.46
653.17	784.83
653.51	779.16
653.85	773.83
654.20	768.28
654.54	762.29
654.88	756.60
655.22	750.87
655.56	745.26
655.90	739.82
656.25	734.62
656.59	729.21
656.93	724.28
657.27	719.21
657.61	713.84
657.95	708.71
658.29	703.68
658.64	698.60
658.98	693.42
659.32	688.05
659.66	682.88
660.00	677.63
660.34	672.70
660.68	667.83
661.02	662.79
661.36	658.08
661.70	653.67
662.05	649.29
662.39	644.96
662.73	640.52
663.07	636.29
663.41	631.86
663.75	627.47
664.09	622.89
664.43	618.56
664.77	614.43
665.11	610.22
665.45	606.20
665.79	602.11
666.13	598.00
666.47	593.86
666.81	589.77
667.15	585.71
667.49	581.96
667.83	578.25
668.17	574.38
668.51	570.40
668.85	566.41
669.19	562.68
669.53	558.84
669.87	554.99
670.21	551.36
670.55	547.74
670.89	544.38
671.23	541.01
671.57	537.56
671.91	534.14
672.25	530.76
672.58	527.30
672.92	523.92
673.26	520.78
673.60	517.71
673.94	514.61
674.28	511.76
674.62	508.82
674.96	505.73
675.30	502.85
675.64	500.01
675.97	497.23
676.31	494.42
676.65	491.57
676.99	488.88
677.33	485.95
677.67	483.21
678.01	480.16
678.34	477.24
678.68	474.39
679.02	471.58
679.36	468.84
679.70	466.16
680.04	463.46
680.37	460.67
680.71	457.94
681.05	455.40
681.39	452.76
681.73	450.17
682.06	447.71
682.40	445.19
682.74	442.69
683.08	440.24
683.42	437.61
683.75	435.14
684.09	432.66
684.43	430.28
684.77	427.87
685.10	425.59
685.44	423.35
685.78	421.12
686.12	418.92
686.45	416.68
686.79	414.41
687.13	412.28
687.46	410.14
687.80	408.01
688.14	405.81
688.48	403.77
688.81	401.52
689.15	399.38
689.49	397.29
689.82	395.19
690.16	393.12
690.50	391.23
690.83	389.33
691.17	387.40
691.51	385.52
691.84	383.69
692.18	381.77
692.52	379.79
692.85	377.89
693.19	376.01
693.52	374.21
693.86	372.42
694.20	370.60
694.53	368.84
694.87	367.02
695.21	365.26
695.54	363.48
695.88	361.82
696.21	360.08
696.55	358.40
696.88	356.75
697.22	355.13
697.56	353.53
697.89	351.89
698.23	350.28
698.56	348.67
698.90	347.11
699.23	345.48
699.57	343.97
699.90	342.43
700.24	340.93
700.58	339.43
700.91	337.92
701.25	336.51
701.58	335.09
701.92	333.75
702.25	332.35
702.59	330.93
702.92	329.60
703.26	328.31
703.59	327.06
703.93	325.86
704.26	324.63
704.60	323.35
704.93	322.10
705.26	320.85
705.60	319.70
705.93	318.57
706.27	317.56
706.60	316.49
706.94	315.41
707.27	314.26
707.61	313.16
707.94	312.15
708.27	311.07
708.61	310.01
708.94	309.02
709.28	308.07
709.61	307.15
709.94	306.19
710.28	305.18
710.61	304.21
710.95	303.15
711.28	302.20
711.61	301.29
711.95	300.39
712.28	299.47
712.61	298.52
712.95	297.54
713.28	296.69
713.61	295.83
713.95	294.95
714.28	294.16
714.61	293.32
714.95	292.52
715.28	291.67
715.61	290.82
715.95	289.96
716.28	289.11
716.61	288.32
716.95	287.55
717.28	286.82
717.61	286.05
717.94	285.35
718.28	284.58
718.61	283.85
718.94	283.17
719.27	282.51
719.61	281.85
719.94	281.24
720.27	280.54
720.60	279.91
720.94	279.35
721.27	278.77
721.60	278.23
721.93	277.65
722.27	277.15
722.60	276.63
722.93	276.09
723.26	275.55
723.59	274.99
723.93	274.45
724.26	273.92
724.59	273.43
724.92	272.92
725.25	272.44
725.59	271.91
725.92	271.43
726.25	270.93
726.58	270.44
726.91	269.98
727.24	269.55
727.57	269.05
727.91	268.52
728.24	268.05
728.57	267.56
728.90	267.13
729.23	266.63
729.56	266.20
729.89	265.74
730.22	265.30
730.55	264.85
730.89	264.42
731.22	264.00
731.55	263.55
731.88	263.15
732.21	262.73
732.54	262.34
732.87	261.90
733.20	261.53
733.53	261.16
733.86	260.76
734.19	260.31
734.52	259.92
734.85	259.61
735.18	259.22
735.51	258.86
735.84	258.46
736.17	258.11
736.50	257.72
736.83	257.48
737.16	257.12
737.49	256.79
737.82	256.43
738.15	256.07
738.48	255.72
738.81	255.38
739.14	255.05
739.47	254.71
739.80	254.42
740.13	254.07
740.46	253.70
740.79	253.37
741.12	253.07
741.45	252.75
741.78	252.39
742.11	252.09
742.44	251.77
742.77	251.46
743.10	251.17
743.43	250.88
743.75	250.50
744.08	250.39
744.41	250.13
744.74	249.85
745.07	249.58
745.40	249.33
745.73	249.09
746.06	248.80
746.39	248.52
746.71	248.23
747.04	247.99
747.37	247.74
747.70	247.47
748.03	247.22
748.36	247.03
748.68	246.78
749.01	246.51
749.34	246.28
749.67	246.08
750.00	245.86
750.33	245.69
750.65	245.49
750.98	245.12
751.31	244.87
751.64	244.66
751.97	244.50
752.29	244.26
752.62	244.01
752.95	243.83
753.28	243.62
753.60	243.47
753.93	243.29
754.26	243.12
754.59	242.91
754.91	242.73
755.24	242.53
755.57	242.37
755.90	242.24
756.22	242.06
756.55	241.84
756.88	241.67
757.20	241.42
757.53	241.24
757.86	241.09
758.19	240.97
758.51	240.84
758.84	240.66
759.17	240.52
759.49	240.37
759.82	240.26
760.15	240.14
760.47	239.97
760.80	239.80
761.13	239.68
761.45	239.57
761.78	239.45
762.11	239.31
762.43	239.18
762.76	239.01
763.08	238.91
763.41	238.83
763.74	238.66
764.06	238.51
764.39	238.36
764.71	238.24
765.04	238.10
765.37	237.93
765.69	237.78
766.02	237.64
766.34	237.49
766.67	237.35
767.00	237.29
767.32	237.25
767.65	237.24
767.97	237.12
768.30	237.02
768.62	236.91
768.95	236.80
769.27	236.70
769.60	236.59
769.92	236.45
770.25	236.32
770.57	236.23
770.90	236.15
771.22	236.04
771.55	235.92
771.87	235.82
772.20	235.76
772.52	235.72
772.85	235.75
773.17	235.68
773.50	235.58
773.82	235.42
774.15	235.26
774.47	235.04
774.80	234.92
775.12	234.82
775.45	234.70
775.77	234.61
776.09	234.51
776.42	234.43
776.74	234.37
777.07	234.27
777.39	234.20
777.72	234.12
778.04	234.03
778.36	233.94
778.69	233.88
779.01	233.79
779.33	233.63
779.66	233.46
779.98	233.36
780.31	233.25
780.63	233.23
780.95	233.15
781.28	233.09
781.60	233.02
781.92	232.93
782.25	232.84
782.57	232.73
782.89	232.66
783.22	232.56
783.54	232.49
783.86	232.43
784.19	232.28
784.51	232.24
784.83	232.18
785.16	232.10
785.48	232.02
785.80	231.97
786.12	231.92
786.45	231.84
786.77	231.82
787.09	231.76
787.42	231.69
787.74	231.63
788.06	231.59
788.38	231.54
788.71	231.49
789.03	231.49
789.35	231.50
789.67	231.41
789.99	231.41
790.32	231.35
790.64	231.32
790.96	231.42
791.28	231.33
791.61	231.30
791.93	231.29
792.25	231.23
792.57	231.27
792.89	231.23
793.21	231.23
793.54	231.16
793.86	231.17
794.18	231.16
794.50	231.13
794.82	231.09
795.14	231.10
795.47	231.11
795.79	231.07
796.11	231.02
796.43	231.01
796.75	230.97
797.07	230.95
797.39	230.93
797.71	230.86
798.04	230.88
798.36	230.89
798.68	230.91
799.00	230.96
799.32	230.87
799.64	230.88
799.96	230.89
800.28	230.89
800.60	230.83
800.92	230.80
801.24	230.77
801.56	230.78
801.89	230.75
802.21	230.73
802.53	230.70
802.85	230.72
803.17	230.79
803.49	230.76
803.81	230.73
804.13	230.69
804.45	230.65
804.77	230.61
805.09	230.58
805.41	230.50
805.73	230.44
806.05	230.41
806.37	230.40
806.69	230.34
807.01	230.32
807.33	230.34
807.65	230.28
807.97	230.31
808.28	230.29
808.60	230.26
808.92	230.20
809.24	230.24
809.56	230.19
809.88	230.14
810.20	230.11
810.52	230.11
810.84	230.04
811.16	230.02
811.48	230.02
811.80	230.01
812.12	230.00
812.43	230.00
812.75	229.99
813.07	229.95
813.39	229.92
813.71	229.87
814.03	229.83
814.35	229.83
814.67	229.75
814.98	229.72
815.30	229.69
815.62	229.64
815.94	229.56
816.26	229.56
816.58	229.49
816.89	229.46
817.21	229.39
817.53	229.40
817.85	229.34
818.17	229.26
818.48	229.19
818.80	229.14
819.12	229.07
819.44	229.03
819.76	228.96
820.07	228.93
820.39	228.90
820.71	228.85
821.03	228.82
821.34	228.77
821.66	228.74
821.98	228.71
822.30	228.72
822.61	228.76
822.93	228.70
823.25	228.66
823.57	228.64
823.88	228.64
824.20	228.62
824.52	228.61
824.83	228.60
825.15	228.56
825.47	228.55
825.79	228.54
826.10	228.51
826.42	228.48
826.74	228.48
827.05	228.46
827.37	228.45
827.69	228.44
828.00	228.43
828.32	228.40
828.64	228.38
828.95	228.38
829.27	228.31
829.58	228.29
829.90	228.27
830.22	228.28
830.53	228.27
830.85	228.27
831.17	228.26
831.48	228.25
831.80	228.25
832.11	228.23
832.43	228.21
832.75	228.19
833.06	228.24
833.38	228.20
833.69	228.22
834.01	228.22
834.32	228.20
834.64	228.19
834.96	228.19
835.27	228.17
835.59	228.16
835.90	228.16
836.22	228.17
836.53	228.18
836.85	228.18
837.16	228.27
837.48	228.26
837.79	228.27
838.11	228.30
838.42	228.32
838.74	228.32
839.05	228.31
839.37	228.32
839.68	228.26
840.00	228.25
840.31	228.24
840.63	228.23
840.94	228.23
841.26	228.21
841.57	228.22
841.88	228.28
842.20	228.26
842.51	228.26
842.83	228.24
843.14	228.34
843.46	228.34
843.77	228.29
844.08	228.30
844.40	228.27
844.71	228.27
845.03	228.25
845.34	228.27
845.65	228.29
845.97	228.31
846.28	228.36
846.60	228.37
846.91	228.35
847.22	228.35
847.54	228.38
847.85	228.46
848.16	228.46
848.48	228.43
848.79	228.49
849.10	228.51
849.42	228.53
849.73	228.45
850.04	228.40
850.36	228.37
850.67	228.38
850.98	228.38
851.30	228.39
851.61	228.41
851.92	228.39
852.23	228.42
852.55	228.41
852.86	228.41
853.17	228.43
853.49	228.49
853.80	228.50
854.11	228.51
854.42	228.48
854.74	228.49
855.05	228.47
855.36	228.42
855.67	228.39
855.99	228.40
856.30	228.52
856.61	228.53
856.92	228.52
857.23	228.50
857.55	228.48
857.86	228.46
858.17	228.45
858.48	228.43
858.79	228.41
859.11	228.37
859.42	228.34
859.73	228.30
860.04	228.27
860.35	228.24
860.66	228.18
860.98	228.17
861.29	228.14
861.60	228.13
861.91	228.12
862.22	228.10
862.53	228.05
862.84	227.91
863.16	227.96
863.47	227.94
863.78	227.98
864.09	227.99
864.40	227.98
864.71	227.95
865.02	227.98
865.33	227.93
865.64	227.91
865.95	227.91
866.27	227.98
866.58	227.95
866.89	227.96
867.20	227.95
867.51	227.93
867.82	227.92
868.13	227.97
868.44	227.97
868.75	228.01
869.06	228.01
869.37	228.01
869.68	227.92
869.99	227.91
870.30	227.88
870.61	227.89
870.92	227.89
871.23	227.90
871.54	227.89
871.85	227.93
872.16	227.97
872.47	227.94
872.78	227.88
873.09	227.89
873.40	227.90
873.71	227.90
874.02	227.89
874.33	227.87
874.64	227.80
874.95	227.80
875.26	227.74
875.56	227.73
875.87	227.74
876.18	227.78
876.49	227.88
876.80	227.88
877.11	227.84
877.42	227.86
877.73	227.87
878.04	227.85
878.35	227.85
878.66	227.86
878.96	227.86
879.27	227.88
879.58	227.87
879.89	227.85
880.20	227.90
880.51	227.89
880.82	227.90
881.12	227.94
881.43	227.93
881.74	227.95
882.05	227.96
882.36	227.93
882.67	227.95
882.97	227.86
883.28	227.85
883.59	227.86
883.90	227.84
884.21	227.86
884.51	227.87
884.82	227.88
885.13	227.85
885.44	227.83
885.74	227.82
886.05	227.85
886.36	227.85
886.67	227.82
886.98	227.88
887.28	227.87
887.59	227.88
887.90	227.88
888.20	227.88
888.51	227.89
888.82	227.94
889.13	227.94
889.43	228.03
889.74	228.04
890.05	228.07
890.35	228.08
890.66	228.07
890.97	228.04
891.28	228.02
891.58	228.05
891.89	228.06
892.20	228.04
892.50	228.01
892.81	228.03
893.12	228.00
893.42	227.93
893.73	227.95
894.04	227.93
894.34	227.95
894.65	227.95
894.95	227.95
895.26	227.93
895.57	227.94
895.87	227.81
896.18	227.80
896.48	227.82
896.79	227.80
897.10	227.77
897.40	227.75
897.71	227.76
898.01	227.73
898.32	227.72
898.63	227.72
898.93	227.68
899.24	227.66
899.54	227.68
899.85	227.70
900.15	227.67
900.46	227.69
900.76	227.66
901.07	227.62
901.38	227.60
901.68	227.57
901.99	227.49
902.29	227.48
902.60	227.47
902.90	227.43
903.21	227.42
903.51	227.37
903.82	227.41
904.12	227.41
904.43	227.39
904.73	227.39
905.03	227.41
905.34	227.52
905.64	227.50
905.95	227.48
906.25	227.47
906.56	227.48
906.86	227.45
907.17	227.42
907.47	227.47
907.77	227.46
908.08	227.43
908.38	227.47
908.69	227.50
908.99	227.50
909.30	227.50
909.60	227.51
909.90	227.52
910.21	227.47
910.51	227.45
910.81	227.47
911.12	227.49
911.42	227.48
911.73	227.40
912.03	227.40
912.33	227.43
912.64	227.42
912.94	227.41
913.24	227.40
913.55	227.41
913.85	227.38
914.15	227.39
914.46	227.45
914.76	227.43
915.06	227.45
915.37	227.47
915.67	227.47
915.97	227.47
916.27	227.47
916.58	227.49
916.88	227.49
917.18	227.47
917.49	227.53
917.79	227.52
918.09	227.53
918.39	227.55
918.70	227.55
919.00	227.56
919.30	227.62
919.60	227.63
919.91	227.62
920.21	227.65
920.51	227.61
920.81	227.61
921.12	227.64
921.42	227.61
921.72	227.56
922.02	227.57
922.32	227.55
922.63	227.62
922.93	227.63
923.23	227.65
923.53	227.67
923.83	227.62
924.13	227.61
924.44	227.63
924.74	227.65
925.04	227.67
925.34	227.68
925.64	227.60
925.94	227.59
926.24	227.67
926.55	227.64
926.85	227.67
927.15	227.64
927.45	227.64
927.75	227.64
928.05	227.67
928.35	227.66
928.65	227.69
928.95	227.66
929.26	227.66
929.56	227.68
929.86	227.68
930.16	227.68
930.46	227.69
930.76	227.69
931.06	227.65
931.36	227.62
931.66	227.65
931.96	227.70
932.26	227.71
932.56	227.65
932.86	227.66
933.16	227.65
933.46	227.66
933.76	227.62
934.06	227.67
934.36	227.70
934.66	227.70
934.96	227.68
935.26	227.70
935.56	227.70
935.86	227.67
936.16	227.63
936.46	227.58
936.76	227.56
937.06	227.52
937.36	227.55
937.66	227.56
937.96	227.54
938.26	227.49
938.56	227.47
938.86	227.47
939.16	227.50
939.46	227.51
939.76	227.54
940.06	227.52
940.35	227.45
940.65	227.39
940.95	227.41
941.25	227.38
941.55	227.36
941.85	227.38
942.15	227.41
942.45	227.43
942.75	227.44
943.04	227.44
943.34	227.46
943.64	227.44
943.94	227.39
944.24	227.39
944.54	227.36
944.84	227.35
945.13	227.34
945.43	227.32
945.73	227.30
946.03	227.26
946.33	227.27
946.62	227.30
946.92	227.29
947.22	227.28
947.52	227.27
947.82	227.28
948.11	227.24
948.41	227.21
948.71	227.17
949.01	227.16
949.31	227.14
949.60	227.15
949.90	227.17
950.20	227.18
950.50	227.16
950.79	227.19
951.09	227.20
951.39	227.19
951.69	227.20
951.98	227.24
952.28	227.22
952.58	227.20
952.87	227.20
953.17	227.22
953.47	227.26
953.76	227.25
954.06	227.26
954.36	227.27
954.66	227.28
954.95	227.32
955.25	227.35
955.55	227.39
955.84	227.40
956.14	227.41
956.44	227.44
956.73	227.46
957.03	227.44
957.32	227.47
957.62	227.51
957.92	227.50
958.21	227.51
958.51	227.65
958.81	227.70
959.10	227.72
959.40	227.74
959.69	227.72
959.99	227.76
960.29	227.74
960.58	227.73
960.88	227.78
961.17	227.79
961.47	227.79
961.76	227.75
962.06	227.73
962.36	227.69
962.65	227.68
962.95	227.67
963.24	227.70
963.54	227.70
963.83	227.70
964.13	227.72
964.42	227.66
964.72	227.60
965.01	227.59
965.31	227.56
965.60	227.53
965.90	227.61
966.19	227.59
966.49	227.59
966.78	227.60
967.08	227.57
967.37	227.58
967.67	227.57
967.96	227.60
968.26	227.60
968.55	227.63
968.85	227.63
969.14	227.64
969.43	227.63
969.73	227.63
970.02	227.62
970.32	227.57
970.61	227.57
970.91	227.54
971.20	227.51
971.49	227.51
971.79	227.54
972.08	227.46
972.38	227.50
972.67	227.52
972.96	227.54
973.26	227.51
973.55	227.52
973.85	227.51
974.14	227.52
974.43	227.54
974.73	227.50
975.02	227.49
975.31	227.48
975.61	227.48
975.90	227.44
976.19	227.39
976.49	227.39
976.78	227.39
977.07	227.38
977.37	227.39
977.66	227.41
977.95	227.36
978.24	227.34
978.54	227.32
978.83	227.26
979.12	227.22
979.42	227.26
979.71	227.24
980.00	227.24
980.29	227.19
980.59	227.18
980.88	227.20
981.17	227.20
981.46	227.18
981.76	227.15
982.05	227.20
982.34	227.22
982.63	227.22
982.93	227.22
983.22	227.24
983.51	227.22
983.80	227.21
984.09	227.24
984.39	227.24
984.68	227.23
984.97	227.28
985.26	227.26
985.55	227.21
985.85	227.17
986.14	227.18
986.43	227.24
986.72	227.20
987.01	227.20
987.30	227.20
987.59	227.21
987.89	227.22
988.18	227.16
988.47	227.17
988.76	227.16
989.05	227.14
989.34	227.15
989.63	227.17
989.92	227.16
990.22	227.14
990.51	227.13
990.80	227.12
991.09	227.10
991.38	227.11
991.67	227.14
991.96	227.15
992.25	227.14
992.54	227.11
992.83	227.15
993.12	227.13
993.41	227.15
993.70	227.21
993.99	227.21
994.28	227.23
994.58	227.27
994.87	227.28
995.16	227.29
995.45	227.28
995.74	227.24
996.03	227.27
996.32	227.27
996.61	227.28
996.90	227.29
997.19	227.26
997.48	227.29
997.77	227.30
998.06	227.27
998.34	227.26
998.63	227.25
998.92	227.19
999.21	227.20
999.50	227.19
999.79	227.13
1000.08	227.16
1000.37	227.13
1000.66	227.10
1000.95	227.09
1001.24	227.09
1001.53	227.10
1001.82	227.11
1002.11	227.06
1002.40	227.11
1002.68	227.17
1002.97	227.24
1003.26	227.26
1003.55	227.25
1003.84	227.24
1004.13	227.29
1004.42	227.31
1004.71	227.31
1004.99	227.36
1005.28	227.37
1005.57	227.37
1005.86	227.38
1006.15	227.37
1006.44	227.39
1006.72	227.39
1007.01	227.43
1007.30	227.45
1007.59	227.42
1007.88	227.41
1008.17	227.44
1008.45	227.41
1008.74	227.37
1009.03	227.32
1009.32	227.35
1009.60	227.30
1009.89	227.29
1010.18	227.28
1010.47	227.27
1010.76	227.30
1011.04	227.29
1011.33	227.33
1011.62	227.30
1011.91	227.29
1012.19	227.26
1012.48	227.26
1012.77	227.26
1013.05	227.28
1013.34	227.27
1013.63	227.30
1013.92	227.34
1014.20	227.35
1014.49	227.32
1014.78	227.30
1015.06	227.27
1015.35	227.25
1015.64	227.29
1015.92	227.31
1016.21	227.34
1016.50	227.38
1016.78	227.36
1017.07	227.36
1017.36	227.33
1017.64	227.37
1017.93	227.40
1018.22	227.43
1018.50	227.46
1018.79	227.50
1019.08	227.45
1019.36	227.45
1019.65	227.42
1019.93	227.44
1020.22	227.46
1020.51	227.51
1020.79	227.53
1021.08	227.60
1021.36	227.53
1021.65	228.08
1021.94	227.19
1022.22	227.26
1022.51	227.04
1022.79	228.12
1023.08	227.88
1023.36	228.11
1023.65	227.33
>>>>>End Processed Spectral Data<<<<<
