SpectraSuite Data File
++++++++++++++++++++++++++++++++++++
Date: Fri Feb 01 17:41:10 EST 2013
User: group
Dark Spectrum Present: No
Reference Spectrum Present: No
Number of Sampled Component Spectra: 1
Spectrometers: USB2E7196
Integration Time (usec): 35000 (USB2E7196)
Spectra Averaged: 100 (USB2E7196)
Boxcar Smoothing: 10 (USB2E7196)
Correct for Electrical Dark: No (USB2E7196)
Strobe/Lamp Enabled: No (USB2E7196)
Correct for Detector Non-linearity: No (USB2E7196)
Correct for Stray Light: No (USB2E7196)
Number of Pixels in Processed Spectrum: 2048
>>>>>Begin Processed Spectral Data<<<<<
339.09	0.00
339.48	212.63
339.86	214.03
340.24	215.40
340.63	216.89
341.01	219.72
341.39	219.70
341.78	221.12
342.16	221.24
342.54	222.78
342.93	211.07
343.31	221.73
343.69	222.26
344.07	222.71
344.46	223.14
344.84	223.52
345.22	223.77
345.60	223.98
345.99	224.13
346.37	224.29
346.75	224.38
347.13	224.45
347.52	224.51
347.90	224.55
348.28	224.58
348.66	224.65
349.05	224.66
349.43	224.67
349.81	224.70
350.19	224.75
350.57	224.81
350.96	224.87
351.34	224.95
351.72	225.05
352.10	225.18
352.48	225.23
352.87	225.28
353.25	225.30
353.63	225.39
354.01	225.48
354.39	225.55
354.77	225.64
355.15	225.73
355.54	225.80
355.92	225.87
356.30	225.93
356.68	226.05
357.06	226.14
357.44	226.20
357.82	226.28
358.20	226.35
358.58	226.44
358.97	226.48
359.35	226.57
359.73	226.62
360.11	226.66
360.49	226.73
360.87	226.79
361.25	226.89
361.63	226.98
362.01	227.05
362.39	227.11
362.77	227.15
363.15	227.20
363.53	227.20
363.91	227.23
364.29	227.26
364.67	227.18
365.05	227.18
365.43	227.20
365.81	227.23
366.19	227.28
366.57	227.31
366.95	227.32
367.33	227.30
367.71	227.29
368.09	227.30
368.47	227.30
368.85	227.27
369.23	227.27
369.61	227.19
369.99	227.20
370.37	227.19
370.75	227.22
371.13	227.16
371.51	227.14
371.89	227.12
372.27	227.09
372.65	227.07
373.03	227.04
373.41	227.03
373.78	226.96
374.16	226.88
374.54	226.76
374.92	226.72
375.30	226.67
375.68	226.60
376.06	226.56
376.44	226.47
376.82	226.43
377.19	226.35
377.57	226.28
377.95	226.18
378.33	226.11
378.71	225.97
379.09	225.94
379.47	225.88
379.84	225.83
380.22	225.74
380.60	225.64
380.98	225.59
381.36	225.51
381.73	225.43
382.11	225.36
382.49	225.33
382.87	225.26
383.25	225.20
383.62	225.24
384.00	225.15
384.38	225.12
384.76	225.11
385.13	225.12
385.51	225.09
385.89	225.00
386.27	224.95
386.64	224.93
387.02	224.89
387.40	224.82
387.78	224.80
388.15	224.81
388.53	224.82
388.91	224.78
389.29	224.77
389.66	224.77
390.04	224.74
390.42	224.74
390.79	224.73
391.17	224.72
391.55	224.61
391.92	224.61
392.30	224.58
392.68	224.55
393.05	224.53
393.43	224.52
393.81	224.58
394.18	224.56
394.56	224.58
394.94	224.59
395.31	224.61
395.69	224.63
396.06	224.65
396.44	224.68
396.82	224.70
397.19	224.79
397.57	224.81
397.95	224.89
398.32	224.91
398.70	224.92
399.07	224.96
399.45	225.02
399.82	225.10
400.20	225.18
400.58	225.24
400.95	225.27
401.33	225.34
401.70	225.44
402.08	225.54
402.45	225.62
402.83	225.69
403.20	225.81
403.58	225.90
403.95	226.04
404.33	226.18
404.71	226.28
405.08	226.41
405.46	226.52
405.83	226.67
406.21	226.81
406.58	227.01
406.96	227.20
407.33	227.38
407.70	227.59
408.08	227.87
408.45	228.07
408.83	228.33
409.20	228.59
409.58	228.81
409.95	229.09
410.33	229.38
410.70	229.66
411.08	229.97
411.45	230.27
411.82	230.58
412.20	230.95
412.57	231.39
412.95	231.74
413.32	232.24
413.69	232.67
414.07	233.18
414.44	233.68
414.82	234.21
415.19	234.85
415.56	235.44
415.94	236.01
416.31	236.73
416.68	237.42
417.06	238.19
417.43	238.89
417.81	239.75
418.18	240.58
418.55	241.55
418.93	242.51
419.30	243.57
419.67	244.60
420.04	245.66
420.42	246.77
420.79	248.08
421.16	249.36
421.54	250.71
421.91	252.07
422.28	253.44
422.66	254.91
423.03	256.35
423.40	257.83
423.77	259.45
424.15	261.09
424.52	262.77
424.89	264.60
425.26	266.42
425.64	268.05
426.01	269.89
426.38	271.73
426.75	273.62
427.13	275.56
427.50	277.65
427.87	279.77
428.24	281.92
428.61	283.87
428.99	286.03
429.36	288.42
429.73	290.75
430.10	293.10
430.47	295.49
430.85	297.90
431.22	300.47
431.59	303.14
431.96	305.65
432.33	308.43
432.70	311.11
433.08	314.25
433.45	317.22
433.82	320.15
434.19	323.40
434.56	326.57
434.93	329.53
435.30	332.46
435.68	335.73
436.05	338.93
436.42	342.16
436.79	345.00
437.16	348.04
437.53	351.17
437.90	354.32
438.27	357.34
438.64	360.53
439.01	363.42
439.38	365.98
439.75	368.40
440.13	371.24
440.50	373.87
440.87	375.95
441.24	378.18
441.61	380.62
441.98	382.31
442.35	384.39
442.72	386.49
443.09	388.55
443.46	389.69
443.83	390.33
444.20	390.84
444.57	391.82
444.94	392.15
445.31	392.59
445.68	392.99
446.05	393.10
446.42	392.65
446.79	392.24
447.16	391.73
447.53	391.45
447.90	390.13
448.27	388.83
448.64	387.08
449.01	385.79
449.37	383.59
449.74	381.46
450.11	378.95
450.48	376.22
450.85	373.37
451.22	370.94
451.59	368.70
451.96	366.51
452.33	363.56
452.70	360.87
453.07	357.69
453.43	354.45
453.80	351.36
454.17	348.36
454.54	345.44
454.91	342.33
455.28	339.29
455.65	336.50
456.02	333.72
456.38	331.28
456.75	328.27
457.12	325.76
457.49	323.25
457.86	320.79
458.23	318.70
458.59	316.40
458.96	314.04
459.33	311.93
459.70	309.84
460.07	308.20
460.43	306.30
460.80	304.44
461.17	302.77
461.54	301.06
461.91	299.45
462.27	297.82
462.64	296.45
463.01	294.92
463.38	293.41
463.74	291.88
464.11	290.57
464.48	289.41
464.85	288.12
465.21	287.09
465.58	286.03
465.95	284.74
466.32	283.74
466.68	282.69
467.05	281.67
467.42	280.62
467.78	279.52
468.15	278.52
468.52	277.78
468.88	276.84
469.25	275.99
469.62	275.26
469.98	274.51
470.35	273.78
470.72	273.11
471.08	272.40
471.45	271.81
471.82	271.19
472.18	270.55
472.55	270.04
472.92	269.46
473.28	268.97
473.65	268.47
474.02	267.92
474.38	267.53
474.75	267.18
475.11	266.80
475.48	266.44
475.85	266.15
476.21	265.86
476.58	265.60
476.94	265.42
477.31	265.19
477.67	264.98
478.04	264.86
478.41	264.77
478.77	264.76
479.14	264.63
479.50	264.61
479.87	264.61
480.23	264.67
480.60	264.71
480.96	264.72
481.33	264.92
481.69	265.08
482.06	265.24
482.42	265.37
482.79	265.64
483.15	266.01
483.52	266.39
483.88	266.76
484.25	267.13
484.61	267.54
484.98	267.99
485.34	268.58
485.71	269.11
486.07	269.67
486.44	270.23
486.80	270.90
487.17	271.68
487.53	272.48
487.90	273.33
488.26	274.27
488.62	275.27
488.99	276.24
489.35	277.31
489.72	278.45
490.08	279.66
490.44	280.85
490.81	282.19
491.17	283.55
491.54	284.98
491.90	286.56
492.26	288.21
492.63	289.97
492.99	291.74
493.36	293.69
493.72	295.78
494.08	297.91
494.45	300.26
494.81	302.60
495.17	305.09
495.54	307.69
495.90	310.42
496.26	313.20
496.63	316.20
496.99	319.32
497.35	322.56
497.72	326.01
498.08	329.60
498.44	333.31
498.80	337.25
499.17	341.36
499.53	345.58
499.89	349.96
500.26	354.49
500.62	359.17
500.98	364.12
501.34	369.23
501.71	374.58
502.07	380.04
502.43	385.61
502.79	391.45
503.16	397.57
503.52	403.84
503.88	410.31
504.24	416.94
504.60	423.88
504.97	431.09
505.33	438.40
505.69	446.21
506.05	453.94
506.41	461.80
506.78	470.00
507.14	478.46
507.50	487.21
507.86	496.24
508.22	505.54
508.59	514.78
508.95	524.36
509.31	534.21
509.67	544.27
510.03	554.64
510.39	565.23
510.75	575.99
511.12	586.95
511.48	598.23
511.84	609.72
512.20	621.24
512.56	633.19
512.92	645.41
513.28	657.74
513.64	670.34
514.00	683.13
514.37	696.17
514.73	709.23
515.09	722.27
515.45	735.56
515.81	749.10
516.17	763.09
516.53	777.13
516.89	791.31
517.25	805.60
517.61	820.04
517.97	834.53
518.33	849.01
518.69	863.85
519.05	878.95
519.41	894.19
519.77	909.71
520.13	925.22
520.49	940.66
520.85	956.00
521.21	971.64
521.57	987.80
521.93	1003.54
522.29	1019.94
522.65	1036.23
523.01	1052.52
523.37	1068.69
523.73	1084.84
524.09	1101.08
524.45	1117.42
524.81	1134.16
525.17	1151.04
525.53	1167.96
525.89	1184.98
526.25	1201.87
526.61	1218.30
526.97	1235.18
527.33	1251.89
527.68	1268.61
528.04	1285.24
528.40	1301.96
528.76	1319.28
529.12	1336.14
529.48	1353.20
529.84	1369.44
530.20	1386.29
530.56	1403.47
530.91	1420.98
531.27	1438.24
531.63	1454.91
531.99	1471.77
532.35	1487.92
532.71	1504.14
533.07	1520.63
533.42	1536.94
533.78	1553.28
534.14	1569.81
534.50	1585.41
534.86	1601.54
535.21	1617.05
535.57	1633.27
535.93	1649.17
536.29	1664.30
536.65	1679.68
537.00	1694.79
537.36	1710.66
537.72	1725.54
538.08	1740.38
538.44	1754.64
538.79	1768.92
539.15	1783.02
539.51	1797.10
539.87	1811.84
540.22	1825.99
540.58	1840.23
540.94	1853.78
541.29	1866.93
541.65	1880.16
542.01	1893.84
542.37	1906.82
542.72	1919.82
543.08	1932.30
543.44	1945.20
543.79	1957.11
544.15	1968.82
544.51	1981.12
544.87	1992.57
545.22	2004.07
545.58	2014.91
545.94	2025.34
546.29	2035.88
546.65	2046.51
547.01	2056.49
547.36	2066.05
547.72	2075.16
548.07	2083.89
548.43	2092.86
548.79	2101.59
549.14	2109.98
549.50	2118.07
549.86	2126.22
550.21	2134.08
550.57	2141.97
550.92	2149.36
551.28	2157.03
551.64	2164.68
551.99	2171.73
552.35	2178.61
552.70	2185.49
553.06	2192.15
553.41	2199.35
553.77	2205.84
554.13	2212.50
554.48	2219.37
554.84	2225.66
555.19	2231.57
555.55	2237.45
555.90	2242.70
556.26	2248.73
556.61	2254.05
556.97	2259.35
557.32	2264.40
557.68	2269.35
558.03	2274.28
558.39	2278.67
558.74	2284.02
559.10	2288.65
559.45	2293.15
559.81	2297.94
560.16	2302.35
560.52	2306.47
560.87	2310.42
561.23	2313.86
561.58	2317.27
561.94	2320.62
562.29	2323.45
562.64	2327.10
563.00	2330.37
563.35	2334.53
563.71	2338.18
564.06	2341.94
564.42	2345.34
564.77	2348.57
565.12	2351.70
565.48	2354.27
565.83	2356.89
566.19	2358.88
566.54	2360.37
566.89	2362.15
567.25	2363.67
567.60	2365.53
567.96	2367.85
568.31	2369.40
568.66	2371.18
569.02	2372.58
569.37	2373.42
569.72	2374.93
570.08	2375.55
570.43	2375.84
570.78	2375.84
571.14	2374.86
571.49	2374.01
571.84	2373.94
572.20	2373.20
572.55	2372.46
572.90	2371.29
573.26	2370.34
573.61	2369.02
573.96	2367.79
574.31	2365.20
574.67	2362.56
575.02	2359.45
575.37	2356.30
575.72	2352.82
576.08	2349.56
576.43	2346.39
576.78	2343.29
577.13	2340.15
577.49	2337.15
577.84	2334.23
578.19	2330.77
578.54	2327.51
578.90	2323.90
579.25	2318.76
579.60	2314.13
579.95	2309.56
580.30	2304.70
580.66	2299.61
581.01	2294.77
581.36	2289.76
581.71	2285.99
582.06	2281.80
582.42	2277.53
582.77	2272.56
583.12	2268.19
583.47	2264.03
583.82	2259.43
584.17	2254.26
584.53	2249.05
584.88	2243.75
585.23	2238.19
585.58	2232.66
585.93	2227.11
586.28	2222.01
586.63	2217.11
586.98	2212.04
587.34	2207.18
587.69	2202.27
588.04	2197.31
588.39	2191.84
588.74	2185.56
589.09	2179.16
589.44	2172.42
589.79	2166.07
590.14	2160.21
590.49	2153.47
590.84	2146.79
591.19	2140.68
591.54	2134.07
591.89	2126.81
592.25	2120.06
592.60	2112.61
592.95	2105.11
593.30	2097.60
593.65	2089.94
594.00	2082.61
594.35	2075.26
594.70	2066.85
595.05	2059.69
595.40	2052.02
595.75	2044.28
596.10	2038.11
596.45	2031.29
596.80	2024.82
597.15	2018.33
597.50	2011.50
597.85	2004.90
598.19	1997.96
598.54	1990.95
598.89	1984.18
599.24	1978.08
599.59	1971.28
599.94	1964.79
600.29	1958.18
600.64	1951.37
600.99	1943.84
601.34	1936.84
601.69	1929.53
602.04	1922.71
602.39	1915.11
602.74	1908.14
603.08	1901.29
603.43	1894.13
603.78	1886.71
604.13	1879.15
604.48	1871.75
604.83	1864.53
605.18	1857.61
605.53	1849.54
605.87	1841.05
606.22	1833.51
606.57	1825.20
606.92	1817.24
607.27	1810.03
607.62	1802.93
607.96	1795.53
608.31	1788.83
608.66	1781.10
609.01	1773.27
609.36	1765.47
609.70	1757.10
610.05	1748.75
610.40	1740.58
610.75	1731.94
611.10	1723.81
611.44	1715.03
611.79	1706.47
612.14	1697.31
612.49	1687.50
612.83	1678.70
613.18	1670.07
613.53	1661.39
613.88	1652.48
614.22	1643.86
614.57	1634.57
614.92	1625.95
615.27	1618.14
615.61	1609.34
615.96	1600.65
616.31	1592.54
616.65	1584.80
617.00	1576.87
617.35	1568.74
617.70	1560.09
618.04	1551.13
618.39	1542.35
618.74	1534.45
619.08	1525.79
619.43	1517.79
619.78	1510.30
620.12	1502.83
620.47	1494.86
620.82	1486.27
621.16	1478.17
621.51	1470.13
621.85	1462.08
622.20	1453.22
622.55	1444.10
622.89	1435.71
623.24	1427.65
623.59	1419.70
623.93	1411.54
624.28	1403.74
624.62	1395.75
624.97	1388.07
625.32	1380.73
625.66	1373.21
626.01	1365.56
626.35	1357.78
626.70	1349.51
627.04	1341.56
627.39	1333.20
627.73	1325.34
628.08	1318.01
628.43	1310.58
628.77	1302.88
629.12	1294.93
629.46	1287.30
629.81	1279.37
630.15	1271.65
630.50	1263.78
630.84	1255.28
631.19	1246.89
631.53	1238.86
631.88	1230.88
632.22	1222.89
632.57	1215.18
632.91	1207.36
633.26	1199.55
633.60	1191.55
633.95	1183.87
634.29	1176.37
634.64	1169.27
634.98	1161.47
635.32	1153.93
635.67	1146.73
636.01	1139.64
636.36	1132.56
636.70	1125.60
637.05	1118.66
637.39	1111.87
637.73	1105.04
638.08	1098.76
638.42	1092.51
638.77	1085.84
639.11	1079.00
639.45	1072.24
639.80	1065.40
640.14	1058.60
640.49	1051.66
640.83	1045.12
641.17	1038.72
641.52	1032.02
641.86	1025.17
642.20	1019.10
642.55	1012.34
642.89	1005.65
643.23	998.69
643.58	992.47
643.92	986.05
644.26	979.82
644.61	973.39
644.95	967.15
645.29	960.37
645.64	953.21
645.98	946.51
646.32	940.10
646.66	933.82
647.01	927.61
647.35	921.67
647.69	915.57
648.04	909.61
648.38	903.53
648.72	897.27
649.06	890.98
649.41	884.73
649.75	878.56
650.09	872.35
650.43	866.32
650.78	859.95
651.12	853.61
651.46	847.56
651.80	841.73
652.14	835.93
652.49	830.26
652.83	824.90
653.17	819.10
653.51	813.34
653.85	807.56
654.20	801.77
654.54	795.50
654.88	789.44
655.22	783.32
655.56	777.31
655.90	771.59
656.25	766.11
656.59	760.54
656.93	755.19
657.27	749.76
657.61	744.00
657.95	738.68
658.29	733.42
658.64	727.87
658.98	722.14
659.32	716.41
659.66	710.98
660.00	705.43
660.34	700.20
660.68	694.94
661.02	689.69
661.36	684.80
661.70	680.03
662.05	675.53
662.39	671.05
662.73	666.40
663.07	661.81
663.41	657.17
663.75	652.50
664.09	647.67
664.43	643.03
664.77	638.86
665.11	634.43
665.45	630.02
665.79	625.77
666.13	621.54
666.47	617.32
666.81	612.98
667.15	608.63
667.49	604.46
667.83	600.46
668.17	596.32
668.51	591.96
668.85	587.76
669.19	583.61
669.53	579.53
669.87	575.51
670.21	571.56
670.55	567.68
670.89	564.05
671.23	560.55
671.57	556.87
671.91	553.16
672.25	549.38
672.58	545.70
672.92	542.11
673.26	538.67
673.60	535.32
673.94	532.07
674.28	529.00
674.62	525.96
674.96	522.73
675.30	519.75
675.64	516.66
675.97	513.71
676.31	510.73
676.65	507.68
676.99	504.82
677.33	501.81
677.67	498.85
678.01	495.68
678.34	492.53
678.68	489.49
679.02	486.47
679.36	483.62
679.70	480.75
680.04	477.90
680.37	474.99
680.71	472.10
681.05	469.29
681.39	466.43
681.73	463.58
682.06	460.89
682.40	458.17
682.74	455.56
683.08	452.85
683.42	450.13
683.75	447.49
684.09	444.77
684.43	442.15
684.77	439.58
685.10	437.09
685.44	434.65
685.78	432.25
686.12	429.86
686.45	427.43
686.79	425.08
687.13	422.77
687.46	420.46
687.80	418.14
688.14	415.77
688.48	413.63
688.81	411.36
689.15	409.13
689.49	406.87
689.82	404.66
690.16	402.42
690.50	400.36
690.83	398.36
691.17	396.31
691.51	394.32
691.84	392.40
692.18	390.38
692.52	388.34
692.85	386.30
693.19	384.38
693.52	382.43
693.86	380.52
694.20	378.60
694.53	376.72
694.87	374.79
695.21	372.91
695.54	370.94
695.88	369.05
696.21	367.17
696.55	365.39
696.88	363.58
697.22	361.85
697.56	360.10
697.89	358.39
698.23	356.71
698.56	355.05
698.90	353.38
699.23	351.71
699.57	350.09
699.90	348.52
700.24	346.85
700.58	345.25
700.91	343.69
701.25	342.22
701.58	340.78
701.92	339.35
702.25	337.91
702.59	336.47
702.92	335.08
703.26	333.74
703.59	332.43
703.93	331.18
704.26	329.90
704.60	328.57
704.93	327.19
705.26	325.85
705.60	324.59
705.93	323.35
706.27	322.17
706.60	321.08
706.94	319.87
707.27	318.71
707.61	317.57
707.94	316.42
708.27	315.24
708.61	314.07
708.94	312.97
709.28	311.98
709.61	310.97
709.94	309.94
710.28	308.89
710.61	307.79
710.95	306.63
711.28	305.63
711.61	304.59
711.95	303.61
712.28	302.62
712.61	301.57
712.95	300.56
713.28	299.64
713.61	298.63
713.95	297.67
714.28	296.71
714.61	295.81
714.95	294.91
715.28	294.01
715.61	293.08
715.95	292.17
716.28	291.26
716.61	290.35
716.95	289.47
717.28	288.65
717.61	287.85
717.94	287.09
718.28	286.24
718.61	285.47
718.94	284.74
719.27	284.02
719.61	283.31
719.94	282.60
720.27	281.84
720.60	281.07
720.94	280.41
721.27	279.81
721.60	279.16
721.93	278.52
722.27	277.92
722.60	277.36
722.93	276.77
723.26	276.18
723.59	275.61
723.93	275.03
724.26	274.40
724.59	273.82
724.92	273.22
725.25	272.68
725.59	272.12
725.92	271.55
726.25	271.01
726.58	270.51
726.91	270.01
727.24	269.53
727.57	269.06
727.91	268.52
728.24	268.02
728.57	267.51
728.90	267.02
729.23	266.48
729.56	266.01
729.89	265.48
730.22	264.95
730.55	264.43
730.89	263.94
731.22	263.48
731.55	263.05
731.88	262.59
732.21	262.13
732.54	261.69
732.87	261.25
733.20	260.79
733.53	260.37
733.86	259.94
734.19	259.49
734.52	259.13
734.85	258.81
735.18	258.38
735.51	257.98
735.84	257.62
736.17	257.25
736.50	256.84
736.83	256.63
737.16	256.31
737.49	255.98
737.82	255.64
738.15	255.29
738.48	254.93
738.81	254.61
739.14	254.31
739.47	253.98
739.80	253.65
740.13	253.36
740.46	253.03
740.79	252.71
741.12	252.38
741.45	252.04
741.78	251.69
742.11	251.43
742.44	251.09
742.77	250.77
743.10	250.46
743.43	250.15
743.75	249.72
744.08	249.54
744.41	249.24
744.74	248.94
745.07	248.69
745.40	248.41
745.73	248.15
746.06	247.82
746.39	247.55
746.71	247.27
747.04	246.99
747.37	246.71
747.70	246.47
748.03	246.21
748.36	245.97
748.68	245.70
749.01	245.39
749.34	245.16
749.67	244.94
750.00	244.71
750.33	244.50
750.65	244.26
750.98	243.89
751.31	243.66
751.64	243.44
751.97	243.24
752.29	243.01
752.62	242.71
752.95	242.50
753.28	242.28
753.60	242.04
753.93	241.83
754.26	241.59
754.59	241.33
754.91	241.11
755.24	240.88
755.57	240.68
755.90	240.49
756.22	240.29
756.55	240.03
756.88	239.79
757.20	239.55
757.53	239.33
757.86	239.13
758.19	238.97
758.51	238.75
758.84	238.51
759.17	238.35
759.49	238.17
759.82	238.04
760.15	237.87
760.47	237.73
760.80	237.55
761.13	237.44
761.45	237.25
761.78	237.12
762.11	236.98
762.43	236.81
762.76	236.67
763.08	236.52
763.41	236.40
763.74	236.27
764.06	236.11
764.39	235.99
764.71	235.86
765.04	235.71
765.37	235.59
765.69	235.45
766.02	235.31
766.34	235.22
766.67	235.05
767.00	234.92
767.32	234.83
767.65	234.76
767.97	234.61
768.30	234.52
768.62	234.40
768.95	234.26
769.27	234.17
769.60	234.04
769.92	233.93
770.25	233.81
770.57	233.68
770.90	233.61
771.22	233.50
771.55	233.39
771.87	233.31
772.20	233.23
772.52	233.20
772.85	233.21
773.17	233.11
773.50	233.04
773.82	232.96
774.15	232.83
774.47	232.70
774.80	232.62
775.12	232.53
775.45	232.45
775.77	232.38
776.09	232.29
776.42	232.23
776.74	232.17
777.07	232.07
777.39	232.02
777.72	231.92
778.04	231.86
778.36	231.77
778.69	231.71
779.01	231.64
779.33	231.53
779.66	231.36
779.98	231.28
780.31	231.23
780.63	231.20
780.95	231.13
781.28	231.07
781.60	231.00
781.92	230.94
782.25	230.87
782.57	230.85
782.89	230.77
783.22	230.67
783.54	230.60
783.86	230.58
784.19	230.52
784.51	230.48
784.83	230.40
785.16	230.37
785.48	230.33
785.80	230.27
786.12	230.21
786.45	230.12
786.77	230.06
787.09	229.96
787.42	229.88
787.74	229.83
788.06	229.76
788.38	229.70
788.71	229.66
789.03	229.60
789.35	229.52
789.67	229.49
789.99	229.47
790.32	229.40
790.64	229.39
790.96	229.39
791.28	229.32
791.61	229.24
791.93	229.17
792.25	229.08
792.57	229.07
792.89	229.00
793.21	228.97
793.54	228.94
793.86	228.92
794.18	228.86
794.50	228.80
794.82	228.76
795.14	228.69
795.47	228.66
795.79	228.62
796.11	228.55
796.43	228.50
796.75	228.44
797.07	228.38
797.39	228.28
797.71	228.19
798.04	228.15
798.36	228.12
798.68	228.10
799.00	228.09
799.32	228.01
799.64	228.01
799.96	227.95
800.28	227.91
800.60	227.83
800.92	227.81
801.24	227.78
801.56	227.76
801.89	227.73
802.21	227.67
802.53	227.63
802.85	227.62
803.17	227.61
803.49	227.54
803.81	227.51
804.13	227.46
804.45	227.42
804.77	227.43
805.09	227.40
805.41	227.36
805.73	227.31
806.05	227.25
806.37	227.22
806.69	227.19
807.01	227.16
807.33	227.15
807.65	227.07
807.97	227.07
808.28	227.01
808.60	227.00
808.92	226.97
809.24	226.99
809.56	226.93
809.88	226.88
810.20	226.90
810.52	226.90
810.84	226.90
811.16	226.88
811.48	226.82
811.80	226.84
812.12	226.82
812.43	226.79
812.75	226.79
813.07	226.76
813.39	226.77
813.71	226.73
814.03	226.72
814.35	226.73
814.67	226.66
814.98	226.62
815.30	226.62
815.62	226.58
815.94	226.48
816.26	226.53
816.58	226.50
816.89	226.48
817.21	226.46
817.53	226.41
817.85	226.38
818.17	226.38
818.48	226.33
818.80	226.35
819.12	226.34
819.44	226.29
819.76	226.26
820.07	226.22
820.39	226.21
820.71	226.23
821.03	226.21
821.34	226.20
821.66	226.23
821.98	226.21
822.30	226.21
822.61	226.29
822.93	226.22
823.25	226.18
823.57	226.15
823.88	226.18
824.20	226.22
824.52	226.20
824.83	226.19
825.15	226.19
825.47	226.18
825.79	226.15
826.10	226.16
826.42	226.18
826.74	226.20
827.05	226.19
827.37	226.17
827.69	226.15
828.00	226.15
828.32	226.13
828.64	226.13
828.95	226.17
829.27	226.13
829.58	226.10
829.90	226.11
830.22	226.10
830.53	226.05
830.85	226.03
831.17	225.98
831.48	225.95
831.80	225.96
832.11	225.97
832.43	225.97
832.75	225.97
833.06	226.00
833.38	225.96
833.69	225.94
834.01	225.90
834.32	225.90
834.64	225.89
834.96	225.87
835.27	225.83
835.59	225.79
835.90	225.75
836.22	225.79
836.53	225.77
836.85	225.78
837.16	225.86
837.48	225.85
837.79	225.90
838.11	225.92
838.42	225.89
838.74	225.88
839.05	225.83
839.37	225.82
839.68	225.74
840.00	225.71
840.31	225.73
840.63	225.76
840.94	225.75
841.26	225.73
841.57	225.72
841.88	225.75
842.20	225.71
842.51	225.71
842.83	225.67
843.14	225.74
843.46	225.74
843.77	225.71
844.08	225.71
844.40	225.70
844.71	225.66
845.03	225.63
845.34	225.59
845.65	225.57
845.97	225.56
846.28	225.56
846.60	225.56
846.91	225.51
847.22	225.48
847.54	225.47
847.85	225.45
848.16	225.43
848.48	225.40
848.79	225.47
849.10	225.48
849.42	225.50
849.73	225.42
850.04	225.39
850.36	225.31
850.67	225.30
850.98	225.30
851.30	225.32
851.61	225.33
851.92	225.30
852.23	225.37
852.55	225.35
852.86	225.34
853.17	225.36
853.49	225.37
853.80	225.40
854.11	225.41
854.42	225.44
854.74	225.44
855.05	225.43
855.36	225.38
855.67	225.36
855.99	225.36
856.30	225.46
856.61	225.45
856.92	225.46
857.23	225.43
857.55	225.40
857.86	225.41
858.17	225.44
858.48	225.44
858.79	225.42
859.11	225.39
859.42	225.38
859.73	225.37
860.04	225.40
860.35	225.35
860.66	225.31
860.98	225.34
861.29	225.34
861.60	225.35
861.91	225.35
862.22	225.37
862.53	225.31
862.84	225.22
863.16	225.24
863.47	225.25
863.78	225.26
864.09	225.24
864.40	225.23
864.71	225.23
865.02	225.26
865.33	225.24
865.64	225.28
865.95	225.30
866.27	225.37
866.58	225.33
866.89	225.34
867.20	225.34
867.51	225.29
867.82	225.28
868.13	225.30
868.44	225.26
868.75	225.26
869.06	225.30
869.37	225.31
869.68	225.26
869.99	225.25
870.30	225.26
870.61	225.30
870.92	225.28
871.23	225.26
871.54	225.25
871.85	225.27
872.16	225.25
872.47	225.23
872.78	225.18
873.09	225.19
873.40	225.23
873.71	225.24
874.02	225.25
874.33	225.26
874.64	225.24
874.95	225.27
875.26	225.21
875.56	225.18
875.87	225.15
876.18	225.13
876.49	225.24
876.80	225.23
877.11	225.16
877.42	225.21
877.73	225.16
878.04	225.16
878.35	225.19
878.66	225.16
878.96	225.17
879.27	225.14
879.58	225.13
879.89	225.07
880.20	225.09
880.51	225.07
880.82	225.06
881.12	225.06
881.43	225.03
881.74	225.04
882.05	225.04
882.36	225.07
882.67	225.11
882.97	224.97
883.28	224.94
883.59	224.95
883.90	224.93
884.21	224.97
884.51	224.96
884.82	224.94
885.13	224.92
885.44	224.89
885.74	224.88
886.05	224.88
886.36	224.90
886.67	224.85
886.98	224.89
887.28	224.88
887.59	224.86
887.90	224.84
888.20	224.88
888.51	224.88
888.82	224.86
889.13	224.88
889.43	224.98
889.74	224.99
890.05	225.01
890.35	225.01
890.66	224.99
890.97	224.97
891.28	224.95
891.58	225.00
891.89	225.03
892.20	225.03
892.50	225.04
892.81	225.04
893.12	225.04
893.42	224.96
893.73	224.97
894.04	224.96
894.34	224.96
894.65	224.92
894.95	224.91
895.26	224.92
895.57	224.95
895.87	224.83
896.18	224.84
896.48	224.85
896.79	224.83
897.10	224.85
897.40	224.84
897.71	224.84
898.01	224.83
898.32	224.82
898.63	224.82
898.93	224.77
899.24	224.75
899.54	224.77
899.85	224.79
900.15	224.76
900.46	224.76
900.76	224.78
901.07	224.78
901.38	224.79
901.68	224.80
901.99	224.74
902.29	224.74
902.60	224.72
902.90	224.69
903.21	224.68
903.51	224.67
903.82	224.70
904.12	224.70
904.43	224.72
904.73	224.70
905.03	224.70
905.34	224.81
905.64	224.82
905.95	224.79
906.25	224.82
906.56	224.83
906.86	224.83
907.17	224.82
907.47	224.84
907.77	224.83
908.08	224.79
908.38	224.80
908.69	224.80
908.99	224.84
909.30	224.85
909.60	224.83
909.90	224.82
910.21	224.82
910.51	224.80
910.81	224.82
911.12	224.85
911.42	224.86
911.73	224.76
912.03	224.76
912.33	224.78
912.64	224.74
912.94	224.74
913.24	224.71
913.55	224.70
913.85	224.71
914.15	224.72
914.46	224.73
914.76	224.72
915.06	224.73
915.37	224.70
915.67	224.68
915.97	224.70
916.27	224.69
916.58	224.69
916.88	224.70
917.18	224.66
917.49	224.71
917.79	224.67
918.09	224.67
918.39	224.71
918.70	224.70
919.00	224.72
919.30	224.74
919.60	224.73
919.91	224.70
920.21	224.68
920.51	224.66
920.81	224.65
921.12	224.64
921.42	224.64
921.72	224.65
922.02	224.65
922.32	224.66
922.63	224.62
922.93	224.65
923.23	224.63
923.53	224.62
923.83	224.54
924.13	224.55
924.44	224.57
924.74	224.56
925.04	224.57
925.34	224.55
925.64	224.54
925.94	224.58
926.24	224.64
926.55	224.62
926.85	224.63
927.15	224.65
927.45	224.66
927.75	224.67
928.05	224.66
928.35	224.66
928.65	224.67
928.95	224.70
929.26	224.63
929.56	224.68
929.86	224.68
930.16	224.65
930.46	224.65
930.76	224.65
931.06	224.57
931.36	224.56
931.66	224.60
931.96	224.60
932.26	224.59
932.56	224.53
932.86	224.56
933.16	224.56
933.46	224.57
933.76	224.55
934.06	224.54
934.36	224.56
934.66	224.56
934.96	224.54
935.26	224.54
935.56	224.55
935.86	224.49
936.16	224.48
936.46	224.49
936.76	224.47
937.06	224.47
937.36	224.49
937.66	224.49
937.96	224.49
938.26	224.48
938.56	224.46
938.86	224.47
939.16	224.47
939.46	224.50
939.76	224.49
940.06	224.52
940.35	224.53
940.65	224.50
940.95	224.54
941.25	224.54
941.55	224.54
941.85	224.54
942.15	224.63
942.45	224.66
942.75	224.67
943.04	224.72
943.34	224.75
943.64	224.76
943.94	224.74
944.24	224.75
944.54	224.75
944.84	224.75
945.13	224.74
945.43	224.71
945.73	224.72
946.03	224.70
946.33	224.68
946.62	224.67
946.92	224.65
947.22	224.65
947.52	224.63
947.82	224.64
948.11	224.62
948.41	224.56
948.71	224.54
949.01	224.55
949.31	224.52
949.60	224.51
949.90	224.53
950.20	224.51
950.50	224.51
950.79	224.52
951.09	224.53
951.39	224.56
951.69	224.59
951.98	224.59
952.28	224.62
952.58	224.59
952.87	224.58
953.17	224.58
953.47	224.56
953.76	224.54
954.06	224.54
954.36	224.52
954.66	224.55
954.95	224.57
955.25	224.59
955.55	224.62
955.84	224.59
956.14	224.60
956.44	224.64
956.73	224.63
957.03	224.63
957.32	224.63
957.62	224.63
957.92	224.65
958.21	224.63
958.51	224.72
958.81	224.74
959.10	224.76
959.40	224.81
959.69	224.84
959.99	224.86
960.29	224.84
960.58	224.89
960.88	224.91
961.17	224.91
961.47	224.89
961.76	224.89
962.06	224.92
962.36	224.91
962.65	224.91
962.95	224.90
963.24	224.89
963.54	224.90
963.83	224.94
964.13	224.96
964.42	224.95
964.72	224.87
965.01	224.88
965.31	224.89
965.60	224.86
965.90	224.91
966.19	224.90
966.49	224.91
966.78	224.89
967.08	224.85
967.37	224.83
967.67	224.81
967.96	224.84
968.26	224.81
968.55	224.83
968.85	224.82
969.14	224.84
969.43	224.83
969.73	224.84
970.02	224.79
970.32	224.73
970.61	224.73
970.91	224.71
971.20	224.70
971.49	224.67
971.79	224.67
972.08	224.59
972.38	224.60
972.67	224.60
972.96	224.63
973.26	224.62
973.55	224.64
973.85	224.64
974.14	224.60
974.43	224.63
974.73	224.59
975.02	224.60
975.31	224.59
975.61	224.60
975.90	224.61
976.19	224.62
976.49	224.62
976.78	224.59
977.07	224.58
977.37	224.58
977.66	224.62
977.95	224.65
978.24	224.68
978.54	224.70
978.83	224.71
979.12	224.70
979.42	224.70
979.71	224.69
980.00	224.71
980.29	224.70
980.59	224.65
980.88	224.65
981.17	224.63
981.46	224.63
981.76	224.64
982.05	224.64
982.34	224.63
982.63	224.65
982.93	224.70
983.22	224.73
983.51	224.75
983.80	224.75
984.09	224.76
984.39	224.74
984.68	224.73
984.97	224.73
985.26	224.71
985.55	224.72
985.85	224.69
986.14	224.69
986.43	224.72
986.72	224.74
987.01	224.73
987.30	224.72
987.59	224.74
987.89	224.74
988.18	224.73
988.47	224.73
988.76	224.73
989.05	224.69
989.34	224.68
989.63	224.71
989.92	224.66
990.22	224.60
990.51	224.59
990.80	224.57
991.09	224.57
991.38	224.57
991.67	224.56
991.96	224.58
992.25	224.61
992.54	224.59
992.83	224.56
993.12	224.60
993.41	224.63
993.70	224.65
993.99	224.64
994.28	224.64
994.58	224.64
994.87	224.64
995.16	224.65
995.45	224.64
995.74	224.59
996.03	224.61
996.32	224.66
996.61	224.69
996.90	224.69
997.19	224.68
997.48	224.67
997.77	224.67
998.06	224.67
998.34	224.64
998.63	224.67
998.92	224.71
999.21	224.68
999.50	224.71
999.79	224.69
1000.08	224.70
1000.37	224.71
1000.66	224.72
1000.95	224.70
1001.24	224.73
1001.53	224.73
1001.82	224.72
1002.11	224.72
1002.40	224.72
1002.68	224.75
1002.97	224.82
1003.26	224.83
1003.55	224.83
1003.84	224.84
1004.13	224.86
1004.42	224.85
1004.71	224.79
1004.99	224.77
1005.28	224.82
1005.57	224.77
1005.86	224.77
1006.15	224.76
1006.44	224.73
1006.72	224.74
1007.01	224.74
1007.30	224.72
1007.59	224.74
1007.88	224.73
1008.17	224.74
1008.45	224.75
1008.74	224.69
1009.03	224.65
1009.32	224.61
1009.60	224.60
1009.89	224.59
1010.18	224.56
1010.47	224.51
1010.76	224.54
1011.04	224.54
1011.33	224.52
1011.62	224.51
1011.91	224.48
1012.19	224.50
1012.48	224.50
1012.77	224.50
1013.05	224.54
1013.34	224.52
1013.63	224.49
1013.92	224.50
1014.20	224.51
1014.49	224.50
1014.78	224.53
1015.06	224.48
1015.35	224.53
1015.64	224.56
1015.92	224.59
1016.21	224.60
1016.50	224.66
1016.78	224.68
1017.07	224.69
1017.36	224.67
1017.64	224.69
1017.93	224.72
1018.22	224.71
1018.50	224.71
1018.79	224.70
1019.08	224.67
1019.36	224.67
1019.65	224.67
1019.93	224.70
1020.22	224.70
1020.51	224.72
1020.79	224.68
1021.08	224.59
1021.36	224.21
1021.65	224.73
1021.94	224.66
1022.22	224.22
1022.51	224.22
1022.79	225.15
1023.08	224.94
1023.36	225.18
1023.65	224.40
>>>>>End Processed Spectral Data<<<<<
