SpectraSuite Data File
++++++++++++++++++++++++++++++++++++
Date: Fri Feb 01 15:10:14 EST 2013
User: group
Dark Spectrum Present: No
Reference Spectrum Present: No
Number of Sampled Component Spectra: 1
Spectrometers: USB2E7196
Integration Time (usec): 35000 (USB2E7196)
Spectra Averaged: 100 (USB2E7196)
Boxcar Smoothing: 10 (USB2E7196)
Correct for Electrical Dark: No (USB2E7196)
Strobe/Lamp Enabled: No (USB2E7196)
Correct for Detector Non-linearity: No (USB2E7196)
Correct for Stray Light: No (USB2E7196)
Number of Pixels in Processed Spectrum: 2048
>>>>>Begin Processed Spectral Data<<<<<
339.09	0.00
339.48	215.36
339.86	216.58
340.24	218.07
340.63	219.52
341.01	222.11
341.39	221.76
341.78	223.34
342.16	223.91
342.54	225.15
342.93	213.39
343.31	224.17
343.69	224.71
344.07	225.16
344.46	225.61
344.84	225.95
345.22	226.17
345.60	226.47
345.99	226.65
346.37	226.81
346.75	226.91
347.13	226.99
347.52	227.03
347.90	227.09
348.28	227.11
348.66	227.16
349.05	227.16
349.43	227.19
349.81	227.27
350.19	227.33
350.57	227.40
350.96	227.48
351.34	227.56
351.72	227.62
352.10	227.73
352.48	227.76
352.87	227.85
353.25	227.91
353.63	227.93
354.01	228.02
354.39	228.10
354.77	228.15
355.15	228.26
355.54	228.31
355.92	228.38
356.30	228.49
356.68	228.61
357.06	228.65
357.44	228.70
357.82	228.74
358.20	228.81
358.58	228.87
358.97	228.92
359.35	229.01
359.73	229.11
360.11	229.16
360.49	229.24
360.87	229.29
361.25	229.36
361.63	229.44
362.01	229.47
362.39	229.50
362.77	229.57
363.15	229.57
363.53	229.62
363.91	229.63
364.29	229.61
364.67	229.51
365.05	229.56
365.43	229.58
365.81	229.63
366.19	229.67
366.57	229.73
366.95	229.72
367.33	229.69
367.71	229.66
368.09	229.65
368.47	229.64
368.85	229.62
369.23	229.63
369.61	229.55
369.99	229.58
370.37	229.54
370.75	229.55
371.13	229.48
371.51	229.41
371.89	229.38
372.27	229.32
372.65	229.29
373.03	229.20
373.41	229.14
373.78	229.06
374.16	228.93
374.54	228.81
374.92	228.73
375.30	228.68
375.68	228.59
376.06	228.55
376.44	228.46
376.82	228.36
377.19	228.27
377.57	228.21
377.95	228.11
378.33	228.03
378.71	227.89
379.09	227.84
379.47	227.80
379.84	227.74
380.22	227.66
380.60	227.56
380.98	227.49
381.36	227.40
381.73	227.30
382.11	227.26
382.49	227.23
382.87	227.15
383.25	227.06
383.62	227.13
384.00	227.01
384.38	226.94
384.76	226.95
385.13	226.92
385.51	226.85
385.89	226.76
386.27	226.69
386.64	226.63
387.02	226.58
387.40	226.52
387.78	226.43
388.15	226.40
388.53	226.37
388.91	226.36
389.29	226.34
389.66	226.36
390.04	226.32
390.42	226.30
390.79	226.31
391.17	226.32
391.55	226.20
391.92	226.20
392.30	226.22
392.68	226.16
393.05	226.18
393.43	226.21
393.81	226.22
394.18	226.24
394.56	226.29
394.94	226.33
395.31	226.36
395.69	226.43
396.06	226.49
396.44	226.50
396.82	226.54
397.19	226.64
397.57	226.66
397.95	226.74
398.32	226.78
398.70	226.84
399.07	226.90
399.45	226.94
399.82	227.01
400.20	227.05
400.58	227.15
400.95	227.23
401.33	227.32
401.70	227.49
402.08	227.59
402.45	227.70
402.83	227.83
403.20	227.95
403.58	228.07
403.95	228.20
404.33	228.36
404.71	228.51
405.08	228.69
405.46	228.87
405.83	229.03
406.21	229.19
406.58	229.38
406.96	229.58
407.33	229.77
407.70	230.02
408.08	230.30
408.45	230.53
408.83	230.75
409.20	230.98
409.58	231.14
409.95	231.42
410.33	231.69
410.70	231.95
411.08	232.24
411.45	232.57
411.82	232.89
412.20	233.28
412.57	233.67
412.95	233.98
413.32	234.37
413.69	234.77
414.07	235.20
414.44	235.66
414.82	236.14
415.19	236.71
415.56	237.21
415.94	237.79
416.31	238.42
416.68	239.00
417.06	239.73
417.43	240.42
417.81	241.20
418.18	241.98
418.55	242.81
418.93	243.69
419.30	244.56
419.67	245.46
420.04	246.42
420.42	247.42
420.79	248.61
421.16	249.76
421.54	250.94
421.91	252.18
422.28	253.39
422.66	254.75
423.03	256.05
423.40	257.41
423.77	258.79
424.15	260.23
424.52	261.74
424.89	263.35
425.26	264.88
425.64	266.34
426.01	267.93
426.38	269.56
426.75	271.21
427.13	272.93
427.50	274.77
427.87	276.62
428.24	278.44
428.61	280.16
428.99	282.12
429.36	284.24
429.73	286.27
430.10	288.31
430.47	290.35
430.85	292.45
431.22	294.68
431.59	297.09
431.96	299.32
432.33	301.79
432.70	304.16
433.08	307.02
433.45	309.68
433.82	312.26
434.19	315.19
434.56	318.03
434.93	320.70
435.30	323.27
435.68	326.19
436.05	329.06
436.42	331.86
436.79	334.38
437.16	337.06
437.53	339.94
437.90	342.72
438.27	345.46
438.64	348.27
439.01	350.85
439.38	353.11
439.75	355.29
440.13	357.79
440.50	360.15
440.87	361.95
441.24	363.85
441.61	366.02
441.98	367.54
442.35	369.32
442.72	371.19
443.09	373.01
443.46	374.00
443.83	374.60
444.20	375.09
444.57	375.90
444.94	376.15
445.31	376.48
445.68	376.89
446.05	377.00
446.42	376.61
446.79	376.21
447.16	375.76
447.53	375.40
447.90	374.22
448.27	373.06
448.64	371.54
449.01	370.40
449.37	368.42
449.74	366.52
450.11	364.30
450.48	361.77
450.85	359.23
451.22	357.08
451.59	355.05
451.96	353.16
452.33	350.60
452.70	348.24
453.07	345.40
453.43	342.47
453.80	339.68
454.17	337.02
454.54	334.47
454.91	331.70
455.28	329.07
455.65	326.59
456.02	324.13
456.38	321.95
456.75	319.28
457.12	317.03
457.49	314.80
457.86	312.62
458.23	310.82
458.59	308.79
458.96	306.69
459.33	304.81
459.70	302.88
460.07	301.37
460.43	299.67
460.80	298.10
461.17	296.67
461.54	295.16
461.91	293.74
462.27	292.26
462.64	291.04
463.01	289.70
463.38	288.39
463.74	287.03
464.11	285.86
464.48	284.86
464.85	283.75
465.21	282.87
465.58	281.95
465.95	280.83
466.32	279.94
466.68	279.03
467.05	278.16
467.42	277.26
467.78	276.33
468.15	275.46
468.52	274.75
468.88	273.86
469.25	273.08
469.62	272.44
469.98	271.78
470.35	271.12
470.72	270.52
471.08	269.83
471.45	269.28
471.82	268.73
472.18	268.08
472.55	267.60
472.92	267.09
473.28	266.57
473.65	266.10
474.02	265.64
474.38	265.28
474.75	264.94
475.11	264.59
475.48	264.31
475.85	264.06
476.21	263.83
476.58	263.62
476.94	263.46
477.31	263.28
477.67	263.10
478.04	263.01
478.41	262.92
478.77	262.97
479.14	262.90
479.50	262.89
479.87	262.97
480.23	263.04
480.60	263.08
480.96	263.19
481.33	263.38
481.69	263.59
482.06	263.75
482.42	263.94
482.79	264.18
483.15	264.51
483.52	264.87
483.88	265.19
484.25	265.60
484.61	266.04
484.98	266.49
485.34	267.10
485.71	267.63
486.07	268.22
486.44	268.79
486.80	269.47
487.17	270.20
487.53	271.01
487.90	271.90
488.26	272.80
488.62	273.77
488.99	274.75
489.35	275.72
489.72	276.84
490.08	278.06
490.44	279.31
490.81	280.62
491.17	281.97
491.54	283.46
491.90	284.98
492.26	286.61
492.63	288.34
492.99	290.07
493.36	291.95
493.72	294.01
494.08	296.08
494.45	298.33
494.81	300.67
495.17	303.13
495.54	305.67
495.90	308.35
496.26	311.17
496.63	314.15
496.99	317.31
497.35	320.56
497.72	323.96
498.08	327.43
498.44	331.11
498.80	335.03
499.17	339.04
499.53	343.23
499.89	347.62
500.26	352.08
500.62	356.79
500.98	361.79
501.34	366.83
501.71	372.14
502.07	377.57
502.43	383.19
502.79	389.01
503.16	395.07
503.52	401.32
503.88	407.74
504.24	414.36
504.60	421.26
504.97	428.42
505.33	435.74
505.69	443.47
506.05	451.20
506.41	459.10
506.78	467.27
507.14	475.63
507.50	484.27
507.86	493.32
508.22	502.45
508.59	511.60
508.95	521.18
509.31	531.00
509.67	541.07
510.03	551.35
510.39	561.87
510.75	572.65
511.12	583.60
511.48	594.85
511.84	606.30
512.20	617.81
512.56	629.65
512.92	641.76
513.28	654.04
513.64	666.55
514.00	679.21
514.37	692.10
514.73	705.21
515.09	718.25
515.45	731.53
515.81	745.06
516.17	759.09
516.53	773.20
516.89	787.39
517.25	801.60
517.61	816.17
517.97	830.70
518.33	845.16
518.69	859.99
519.05	875.02
519.41	890.24
519.77	905.83
520.13	921.35
520.49	936.80
520.85	952.32
521.21	968.05
521.57	984.36
521.93	1000.18
522.29	1016.70
522.65	1033.00
523.01	1049.31
523.37	1065.60
523.73	1081.87
524.09	1098.03
524.45	1114.43
524.81	1131.12
525.17	1147.90
525.53	1164.85
525.89	1181.78
526.25	1198.60
526.61	1215.05
526.97	1231.81
527.33	1248.30
527.68	1265.11
528.04	1281.55
528.40	1298.25
528.76	1315.40
529.12	1332.00
529.48	1349.05
529.84	1365.17
530.20	1381.96
530.56	1399.06
530.91	1416.46
531.27	1433.25
531.63	1449.75
531.99	1466.36
532.35	1482.41
532.71	1498.39
533.07	1514.68
533.42	1530.76
533.78	1546.91
534.14	1563.34
534.50	1578.82
534.86	1594.67
535.21	1609.71
535.57	1625.83
535.93	1641.35
536.29	1656.20
536.65	1671.51
537.00	1686.35
537.36	1701.66
537.72	1716.19
538.08	1730.62
538.44	1744.53
538.79	1758.49
539.15	1772.39
539.51	1786.21
539.87	1800.61
540.22	1814.41
540.58	1828.32
540.94	1841.62
541.29	1854.62
541.65	1867.35
542.01	1880.60
542.37	1893.06
542.72	1905.65
543.08	1917.44
543.44	1929.95
543.79	1941.22
544.15	1952.17
544.51	1963.67
544.87	1974.71
545.22	1985.58
545.58	1995.78
545.94	2005.56
546.29	2015.40
546.65	2025.08
547.01	2034.34
547.36	2043.20
547.72	2051.61
548.07	2059.46
548.43	2067.71
548.79	2075.75
549.14	2083.26
549.50	2090.61
549.86	2098.34
550.21	2105.61
550.57	2112.84
550.92	2119.41
551.28	2126.61
551.64	2133.73
551.99	2140.32
552.35	2146.54
552.70	2152.73
553.06	2158.72
553.41	2164.96
553.77	2171.03
554.13	2177.30
554.48	2183.35
554.84	2188.61
555.19	2193.92
555.55	2198.92
555.90	2203.24
556.26	2208.10
556.61	2212.76
556.97	2216.98
557.32	2221.10
557.68	2225.30
558.03	2229.57
558.39	2233.31
558.74	2237.84
559.10	2241.54
559.45	2245.17
559.81	2249.47
560.16	2253.14
560.52	2256.30
560.87	2259.79
561.23	2262.42
561.58	2265.26
561.94	2267.90
562.29	2270.43
562.64	2273.13
563.00	2275.86
563.35	2279.63
563.71	2282.62
564.06	2285.81
564.42	2288.68
564.77	2291.13
565.12	2293.33
565.48	2295.04
565.83	2296.71
566.19	2297.84
566.54	2298.80
566.89	2299.92
567.25	2300.43
567.60	2301.71
567.96	2303.46
568.31	2304.23
568.66	2305.22
569.02	2305.69
569.37	2305.87
569.72	2306.44
570.08	2306.35
570.43	2306.10
570.78	2305.12
571.14	2303.61
571.49	2302.16
571.84	2301.68
572.20	2300.19
572.55	2299.03
572.90	2297.48
573.26	2295.99
573.61	2294.32
573.96	2292.35
574.31	2289.16
574.67	2285.82
575.02	2282.07
575.37	2278.46
575.72	2274.45
576.08	2271.15
576.43	2267.81
576.78	2264.07
577.13	2260.90
577.49	2257.84
577.84	2254.31
578.19	2250.62
578.54	2246.75
578.90	2242.50
579.25	2236.80
579.60	2231.94
579.95	2226.77
580.30	2221.64
580.66	2216.33
581.01	2211.24
581.36	2206.24
581.71	2202.00
582.06	2197.46
582.42	2192.93
582.77	2187.55
583.12	2182.85
583.47	2177.76
583.82	2172.50
584.17	2167.13
584.53	2161.50
584.88	2155.69
585.23	2149.87
585.58	2144.25
585.93	2138.77
586.28	2133.79
586.63	2128.60
586.98	2123.36
587.34	2118.60
587.69	2113.65
588.04	2108.42
588.39	2102.64
588.74	2096.07
589.09	2089.87
589.44	2083.00
589.79	2077.00
590.14	2071.36
590.49	2064.72
590.84	2058.40
591.19	2052.30
591.54	2045.77
591.89	2038.24
592.25	2031.37
592.60	2023.98
592.95	2016.20
593.30	2008.75
593.65	2001.13
594.00	1994.20
594.35	1987.08
594.70	1979.09
595.05	1971.73
595.40	1964.33
595.75	1956.76
596.10	1950.32
596.45	1943.34
596.80	1937.19
597.15	1930.34
597.50	1923.01
597.85	1916.66
598.19	1909.82
598.54	1902.81
598.89	1895.97
599.24	1890.04
599.59	1883.20
599.94	1877.12
600.29	1870.77
600.64	1864.21
600.99	1856.64
601.34	1849.59
601.69	1842.51
602.04	1835.43
602.39	1828.09
602.74	1821.20
603.08	1814.55
603.43	1807.97
603.78	1800.81
604.13	1793.43
604.48	1786.10
604.83	1779.49
605.18	1772.36
605.53	1764.45
605.87	1756.28
606.22	1749.17
606.57	1741.27
606.92	1734.04
607.27	1726.68
607.62	1719.80
607.96	1712.37
608.31	1705.77
608.66	1698.01
609.01	1690.50
609.36	1682.91
609.70	1674.90
610.05	1666.80
610.40	1658.98
610.75	1650.71
611.10	1643.00
611.44	1634.86
611.79	1626.88
612.14	1618.05
612.49	1609.00
612.83	1600.60
613.18	1592.62
613.53	1584.45
613.88	1575.91
614.22	1567.71
614.57	1559.21
614.92	1551.24
615.27	1543.85
615.61	1535.56
615.96	1527.76
616.31	1520.06
616.65	1512.70
617.00	1505.14
617.35	1497.56
617.70	1489.23
618.04	1480.64
618.39	1472.43
618.74	1464.64
619.08	1456.38
619.43	1448.95
619.78	1442.00
620.12	1434.83
620.47	1427.31
620.82	1419.17
621.16	1411.78
621.51	1404.13
621.85	1396.60
622.20	1388.10
622.55	1379.66
622.89	1371.86
623.24	1364.31
623.59	1357.04
623.93	1349.61
624.28	1342.41
624.62	1334.83
624.97	1327.69
625.32	1320.98
625.66	1313.92
626.01	1306.78
626.35	1299.25
626.70	1291.43
627.04	1283.61
627.39	1275.86
627.73	1268.42
628.08	1261.55
628.43	1254.23
628.77	1246.83
629.12	1239.22
629.46	1231.90
629.81	1224.58
630.15	1217.37
630.50	1209.94
630.84	1201.65
631.19	1193.72
631.53	1186.29
631.88	1178.73
632.22	1171.17
632.57	1163.90
632.91	1156.45
633.26	1149.11
633.60	1141.92
633.95	1134.86
634.29	1128.07
634.64	1121.35
634.98	1113.97
635.32	1106.85
635.67	1100.40
636.01	1093.86
636.36	1087.13
636.70	1080.77
637.05	1074.16
637.39	1067.72
637.73	1061.16
638.08	1055.37
638.42	1049.34
638.77	1042.82
639.11	1036.28
639.45	1029.89
639.80	1023.22
640.14	1016.72
640.49	1010.19
640.83	1003.89
641.17	997.71
641.52	991.34
641.86	985.01
642.20	979.20
642.55	973.02
642.89	966.42
643.23	959.89
643.58	954.15
643.92	947.95
644.26	941.85
644.61	935.91
644.95	929.86
645.29	923.22
645.64	916.51
645.98	910.26
646.32	904.54
646.66	898.54
647.01	892.77
647.35	887.13
647.69	881.38
648.04	875.93
648.38	870.15
648.72	864.11
649.06	858.10
649.41	852.23
649.75	846.30
650.09	840.42
650.43	834.62
650.78	828.41
651.12	822.46
651.46	816.80
651.80	810.97
652.14	805.66
652.49	800.31
652.83	795.26
653.17	789.60
653.51	783.80
653.85	778.46
654.20	772.81
654.54	766.89
654.88	761.14
655.22	755.18
655.56	749.48
655.90	744.05
656.25	738.80
656.59	733.49
656.93	728.36
657.27	723.20
657.61	717.76
657.95	712.70
658.29	707.64
658.64	702.38
658.98	697.14
659.32	691.72
659.66	686.54
660.00	681.15
660.34	676.19
660.68	671.40
661.02	666.37
661.36	661.72
661.70	657.20
662.05	652.83
662.39	648.54
662.73	644.13
663.07	639.78
663.41	635.34
663.75	630.77
664.09	626.21
664.43	621.88
664.77	617.82
665.11	613.56
665.45	609.46
665.79	605.41
666.13	601.33
666.47	597.23
666.81	593.12
667.15	589.01
667.49	585.16
667.83	581.34
668.17	577.41
668.51	573.33
668.85	569.33
669.19	565.47
669.53	561.67
669.87	557.80
670.21	554.11
670.55	550.47
670.89	547.11
671.23	543.68
671.57	540.16
671.91	536.58
672.25	533.11
672.58	529.55
672.92	526.18
673.26	522.96
673.60	519.82
673.94	516.67
674.28	513.81
674.62	510.89
674.96	507.74
675.30	504.82
675.64	501.89
675.97	499.17
676.31	496.35
676.65	493.39
676.99	490.66
677.33	487.77
677.67	484.96
678.01	481.94
678.34	479.00
678.68	476.12
679.02	473.35
679.36	470.58
679.70	467.94
680.04	465.18
680.37	462.33
680.71	459.59
681.05	457.05
681.39	454.34
681.73	451.61
682.06	449.10
682.40	446.54
682.74	444.05
683.08	441.51
683.42	438.96
683.75	436.47
684.09	433.97
684.43	431.57
684.77	429.13
685.10	426.81
685.44	424.49
685.78	422.25
686.12	420.05
686.45	417.82
686.79	415.56
687.13	413.39
687.46	411.28
687.80	409.10
688.14	406.92
688.48	404.84
688.81	402.69
689.15	400.55
689.49	398.49
689.82	396.41
690.16	394.33
690.50	392.37
690.83	390.45
691.17	388.49
691.51	386.58
691.84	384.76
692.18	382.80
692.52	380.83
692.85	378.90
693.19	377.00
693.52	375.16
693.86	373.37
694.20	371.60
694.53	369.79
694.87	368.01
695.21	366.19
695.54	364.42
695.88	362.71
696.21	361.01
696.55	359.34
696.88	357.67
697.22	356.00
697.56	354.41
697.89	352.76
698.23	351.16
698.56	349.57
698.90	347.98
699.23	346.39
699.57	344.88
699.90	343.33
700.24	341.77
700.58	340.19
700.91	338.67
701.25	337.21
701.58	335.89
701.92	334.49
702.25	333.13
702.59	331.74
702.92	330.38
703.26	329.10
703.59	327.79
703.93	326.63
704.26	325.40
704.60	324.05
704.93	322.76
705.26	321.52
705.60	320.33
705.93	319.17
706.27	318.15
706.60	317.07
706.94	315.97
707.27	314.85
707.61	313.85
707.94	312.81
708.27	311.74
708.61	310.61
708.94	309.63
709.28	308.67
709.61	307.69
709.94	306.76
710.28	305.69
710.61	304.70
710.95	303.62
711.28	302.69
711.61	301.76
711.95	300.82
712.28	299.87
712.61	298.90
712.95	297.96
713.28	297.08
713.61	296.16
713.95	295.27
714.28	294.46
714.61	293.58
714.95	292.70
715.28	291.85
715.61	290.97
715.95	290.12
716.28	289.24
716.61	288.45
716.95	287.59
717.28	286.85
717.61	286.10
717.94	285.33
718.28	284.51
718.61	283.81
718.94	283.15
719.27	282.48
719.61	281.84
719.94	281.18
720.27	280.40
720.60	279.74
720.94	279.11
721.27	278.51
721.60	277.96
721.93	277.37
722.27	276.83
722.60	276.27
722.93	275.67
723.26	275.14
723.59	274.52
723.93	274.05
724.26	273.51
724.59	272.93
724.92	272.42
725.25	271.95
725.59	271.43
725.92	270.93
726.25	270.41
726.58	269.90
726.91	269.44
727.24	269.03
727.57	268.57
727.91	268.08
728.24	267.61
728.57	267.08
728.90	266.67
729.23	266.17
729.56	265.77
729.89	265.33
730.22	264.83
730.55	264.37
730.89	263.89
731.22	263.48
731.55	263.07
731.88	262.64
732.21	262.20
732.54	261.73
732.87	261.29
733.20	260.90
733.53	260.56
733.86	260.16
734.19	259.77
734.52	259.42
734.85	259.11
735.18	258.68
735.51	258.34
735.84	257.96
736.17	257.66
736.50	257.27
736.83	257.04
737.16	256.72
737.49	256.41
737.82	256.08
738.15	255.74
738.48	255.41
738.81	255.11
739.14	254.81
739.47	254.51
739.80	254.22
740.13	253.96
740.46	253.59
740.79	253.30
741.12	253.00
741.45	252.67
741.78	252.30
742.11	252.03
742.44	251.71
742.77	251.46
743.10	251.16
743.43	250.85
743.75	250.45
744.08	250.31
744.41	250.06
744.74	249.79
745.07	249.52
745.40	249.31
745.73	249.07
746.06	248.79
746.39	248.56
746.71	248.32
747.04	248.00
747.37	247.76
747.70	247.51
748.03	247.24
748.36	247.03
748.68	246.82
749.01	246.58
749.34	246.34
749.67	246.09
750.00	245.86
750.33	245.73
750.65	245.53
750.98	245.17
751.31	244.94
751.64	244.72
751.97	244.56
752.29	244.30
752.62	244.03
752.95	243.80
753.28	243.57
753.60	243.30
753.93	243.15
754.26	242.97
754.59	242.74
754.91	242.52
755.24	242.31
755.57	242.10
755.90	241.91
756.22	241.75
756.55	241.54
756.88	241.30
757.20	241.05
757.53	240.84
757.86	240.65
758.19	240.49
758.51	240.34
758.84	240.10
759.17	239.93
759.49	239.77
759.82	239.66
760.15	239.51
760.47	239.41
760.80	239.24
761.13	239.10
761.45	238.94
761.78	238.81
762.11	238.68
762.43	238.51
762.76	238.35
763.08	238.18
763.41	238.05
763.74	237.93
764.06	237.78
764.39	237.67
764.71	237.56
765.04	237.42
765.37	237.26
765.69	237.16
766.02	237.07
766.34	236.93
766.67	236.79
767.00	236.68
767.32	236.60
767.65	236.52
767.97	236.39
768.30	236.25
768.62	236.15
768.95	236.01
769.27	235.91
769.60	235.84
769.92	235.73
770.25	235.60
770.57	235.49
770.90	235.38
771.22	235.25
771.55	235.18
771.87	235.08
772.20	234.96
772.52	234.93
772.85	234.92
773.17	234.88
773.50	234.76
773.82	234.65
774.15	234.53
774.47	234.40
774.80	234.30
775.12	234.23
775.45	234.13
775.77	234.05
776.09	233.94
776.42	233.84
776.74	233.81
777.07	233.75
777.39	233.72
777.72	233.65
778.04	233.64
778.36	233.54
778.69	233.50
779.01	233.48
779.33	233.34
779.66	233.18
779.98	233.10
780.31	233.06
780.63	233.03
780.95	233.00
781.28	232.93
781.60	232.86
781.92	232.83
782.25	232.76
782.57	232.73
782.89	232.69
783.22	232.65
783.54	232.57
783.86	232.54
784.19	232.47
784.51	232.44
784.83	232.35
785.16	232.32
785.48	232.28
785.80	232.25
786.12	232.20
786.45	232.15
786.77	232.10
787.09	232.07
787.42	232.01
787.74	231.94
788.06	231.94
788.38	231.92
788.71	231.85
789.03	231.85
789.35	231.82
789.67	231.80
789.99	231.77
790.32	231.71
790.64	231.66
790.96	231.70
791.28	231.62
791.61	231.59
791.93	231.56
792.25	231.50
792.57	231.46
792.89	231.42
793.21	231.38
793.54	231.31
793.86	231.23
794.18	231.19
794.50	231.13
794.82	231.07
795.14	231.03
795.47	230.98
795.79	230.90
796.11	230.83
796.43	230.77
796.75	230.72
797.07	230.70
797.39	230.66
797.71	230.54
798.04	230.51
798.36	230.45
798.68	230.36
799.00	230.35
799.32	230.28
799.64	230.24
799.96	230.19
800.28	230.19
800.60	230.14
800.92	230.11
801.24	230.05
801.56	230.00
801.89	229.95
802.21	229.95
802.53	229.91
802.85	229.91
803.17	229.94
803.49	229.89
803.81	229.87
804.13	229.80
804.45	229.78
804.77	229.75
805.09	229.69
805.41	229.65
805.73	229.60
806.05	229.59
806.37	229.57
806.69	229.52
807.01	229.47
807.33	229.47
807.65	229.42
807.97	229.45
808.28	229.41
808.60	229.39
808.92	229.33
809.24	229.39
809.56	229.36
809.88	229.28
810.20	229.28
810.52	229.25
810.84	229.23
811.16	229.19
811.48	229.18
811.80	229.23
812.12	229.24
812.43	229.20
812.75	229.16
813.07	229.09
813.39	229.10
813.71	229.10
814.03	229.04
814.35	229.06
814.67	229.01
814.98	229.02
815.30	228.99
815.62	228.99
815.94	228.90
816.26	228.92
816.58	228.90
816.89	228.89
817.21	228.87
817.53	228.88
817.85	228.85
818.17	228.83
818.48	228.79
818.80	228.79
819.12	228.80
819.44	228.78
819.76	228.83
820.07	228.83
820.39	228.81
820.71	228.84
821.03	228.80
821.34	228.77
821.66	228.74
821.98	228.78
822.30	228.75
822.61	228.82
822.93	228.77
823.25	228.76
823.57	228.76
823.88	228.75
824.20	228.73
824.52	228.75
824.83	228.76
825.15	228.74
825.47	228.73
825.79	228.74
826.10	228.74
826.42	228.70
826.74	228.68
827.05	228.67
827.37	228.67
827.69	228.67
828.00	228.69
828.32	228.67
828.64	228.62
828.95	228.68
829.27	228.64
829.58	228.64
829.90	228.65
830.22	228.61
830.53	228.57
830.85	228.54
831.17	228.52
831.48	228.49
831.80	228.48
832.11	228.45
832.43	228.39
832.75	228.39
833.06	228.43
833.38	228.39
833.69	228.36
834.01	228.36
834.32	228.35
834.64	228.32
834.96	228.32
835.27	228.32
835.59	228.26
835.90	228.20
836.22	228.18
836.53	228.16
836.85	228.14
837.16	228.27
837.48	228.27
837.79	228.26
838.11	228.26
838.42	228.24
838.74	228.25
839.05	228.25
839.37	228.22
839.68	228.15
840.00	228.15
840.31	228.14
840.63	228.12
840.94	228.10
841.26	228.09
841.57	228.07
841.88	228.10
842.20	228.04
842.51	228.06
842.83	228.04
843.14	228.12
843.46	228.12
843.77	228.00
844.08	228.01
844.40	228.01
844.71	227.97
845.03	227.96
845.34	227.95
845.65	227.95
845.97	227.94
846.28	227.96
846.60	227.96
846.91	227.96
847.22	227.93
847.54	227.93
847.85	227.92
848.16	227.90
848.48	227.85
848.79	227.91
849.10	227.91
849.42	227.92
849.73	227.82
850.04	227.81
850.36	227.76
850.67	227.75
850.98	227.75
851.30	227.77
851.61	227.78
851.92	227.78
852.23	227.80
852.55	227.82
852.86	227.80
853.17	227.79
853.49	227.81
853.80	227.82
854.11	227.81
854.42	227.82
854.74	227.81
855.05	227.81
855.36	227.73
855.67	227.75
855.99	227.73
856.30	227.83
856.61	227.85
856.92	227.85
857.23	227.90
857.55	227.87
857.86	227.84
858.17	227.89
858.48	227.86
858.79	227.82
859.11	227.80
859.42	227.83
859.73	227.80
860.04	227.77
860.35	227.75
860.66	227.74
860.98	227.74
861.29	227.77
861.60	227.78
861.91	227.84
862.22	227.82
862.53	227.83
862.84	227.71
863.16	227.73
863.47	227.74
863.78	227.69
864.09	227.69
864.40	227.68
864.71	227.62
865.02	227.68
865.33	227.68
865.64	227.66
865.95	227.64
866.27	227.72
866.58	227.75
866.89	227.77
867.20	227.78
867.51	227.76
867.82	227.75
868.13	227.77
868.44	227.77
868.75	227.78
869.06	227.80
869.37	227.85
869.68	227.83
869.99	227.85
870.30	227.86
870.61	227.89
870.92	227.89
871.23	227.89
871.54	227.86
871.85	227.84
872.16	227.88
872.47	227.87
872.78	227.83
873.09	227.83
873.40	227.82
873.71	227.81
874.02	227.82
874.33	227.79
874.64	227.77
874.95	227.80
875.26	227.75
875.56	227.72
875.87	227.67
876.18	227.67
876.49	227.75
876.80	227.72
877.11	227.69
877.42	227.68
877.73	227.67
878.04	227.65
878.35	227.66
878.66	227.63
878.96	227.63
879.27	227.62
879.58	227.58
879.89	227.56
880.20	227.55
880.51	227.53
880.82	227.53
881.12	227.51
881.43	227.47
881.74	227.46
882.05	227.47
882.36	227.49
882.67	227.46
882.97	227.33
883.28	227.35
883.59	227.32
883.90	227.32
884.21	227.33
884.51	227.32
884.82	227.31
885.13	227.31
885.44	227.33
885.74	227.30
886.05	227.26
886.36	227.27
886.67	227.23
886.98	227.30
887.28	227.32
887.59	227.32
887.90	227.32
888.20	227.32
888.51	227.33
888.82	227.31
889.13	227.34
889.43	227.44
889.74	227.42
890.05	227.44
890.35	227.44
890.66	227.41
890.97	227.38
891.28	227.36
891.58	227.34
891.89	227.33
892.20	227.33
892.50	227.33
892.81	227.30
893.12	227.32
893.42	227.22
893.73	227.21
894.04	227.22
894.34	227.23
894.65	227.23
894.95	227.22
895.26	227.19
895.57	227.24
895.87	227.14
896.18	227.17
896.48	227.18
896.79	227.16
897.10	227.20
897.40	227.24
897.71	227.25
898.01	227.26
898.32	227.26
898.63	227.26
898.93	227.27
899.24	227.29
899.54	227.28
899.85	227.31
900.15	227.33
900.46	227.33
900.76	227.35
901.07	227.33
901.38	227.33
901.68	227.35
901.99	227.29
902.29	227.33
902.60	227.30
902.90	227.30
903.21	227.33
903.51	227.33
903.82	227.36
904.12	227.39
904.43	227.40
904.73	227.39
905.03	227.43
905.34	227.55
905.64	227.57
905.95	227.58
906.25	227.58
906.56	227.59
906.86	227.58
907.17	227.56
907.47	227.60
907.77	227.61
908.08	227.62
908.38	227.64
908.69	227.63
908.99	227.63
909.30	227.63
909.60	227.64
909.90	227.63
910.21	227.60
910.51	227.57
910.81	227.56
911.12	227.55
911.42	227.53
911.73	227.44
912.03	227.45
912.33	227.48
912.64	227.47
912.94	227.44
913.24	227.42
913.55	227.39
913.85	227.39
914.15	227.40
914.46	227.37
914.76	227.34
915.06	227.30
915.37	227.32
915.67	227.30
915.97	227.29
916.27	227.27
916.58	227.26
916.88	227.24
917.18	227.24
917.49	227.32
917.79	227.29
918.09	227.30
918.39	227.31
918.70	227.24
919.00	227.25
919.30	227.31
919.60	227.27
919.91	227.27
920.21	227.26
920.51	227.21
920.81	227.20
921.12	227.21
921.42	227.21
921.72	227.17
922.02	227.17
922.32	227.18
922.63	227.17
922.93	227.19
923.23	227.23
923.53	227.21
923.83	227.13
924.13	227.13
924.44	227.11
924.74	227.12
925.04	227.16
925.34	227.15
925.64	227.09
925.94	227.13
926.24	227.19
926.55	227.15
926.85	227.17
927.15	227.17
927.45	227.15
927.75	227.14
928.05	227.18
928.35	227.20
928.65	227.20
928.95	227.19
929.26	227.17
929.56	227.17
929.86	227.16
930.16	227.15
930.46	227.19
930.76	227.23
931.06	227.15
931.36	227.14
931.66	227.15
931.96	227.16
932.26	227.17
932.56	227.13
932.86	227.15
933.16	227.16
933.46	227.16
933.76	227.17
934.06	227.21
934.36	227.22
934.66	227.20
934.96	227.20
935.26	227.23
935.56	227.26
935.86	227.25
936.16	227.25
936.46	227.29
936.76	227.24
937.06	227.22
937.36	227.26
937.66	227.29
937.96	227.28
938.26	227.28
938.56	227.29
938.86	227.31
939.16	227.32
939.46	227.36
939.76	227.42
940.06	227.45
940.35	227.44
940.65	227.43
940.95	227.45
941.25	227.44
941.55	227.43
941.85	227.45
942.15	227.47
942.45	227.52
942.75	227.51
943.04	227.52
943.34	227.56
943.64	227.54
943.94	227.52
944.24	227.55
944.54	227.57
944.84	227.59
945.13	227.56
945.43	227.55
945.73	227.50
946.03	227.49
946.33	227.46
946.62	227.45
946.92	227.44
947.22	227.45
947.52	227.47
947.82	227.45
948.11	227.39
948.41	227.38
948.71	227.37
949.01	227.37
949.31	227.38
949.60	227.33
949.90	227.36
950.20	227.37
950.50	227.31
950.79	227.29
951.09	227.29
951.39	227.30
951.69	227.29
951.98	227.33
952.28	227.30
952.58	227.31
952.87	227.31
953.17	227.33
953.47	227.29
953.76	227.27
954.06	227.30
954.36	227.30
954.66	227.30
954.95	227.29
955.25	227.26
955.55	227.24
955.84	227.23
956.14	227.20
956.44	227.18
956.73	227.20
957.03	227.20
957.32	227.19
957.62	227.15
957.92	227.18
958.21	227.14
958.51	227.25
958.81	227.21
959.10	227.22
959.40	227.22
959.69	227.21
959.99	227.20
960.29	227.15
960.58	227.12
960.88	227.12
961.17	227.09
961.47	227.13
961.76	227.11
962.06	227.14
962.36	227.14
962.65	227.12
962.95	227.11
963.24	227.10
963.54	227.09
963.83	227.09
964.13	227.08
964.42	227.04
964.72	226.98
965.01	227.00
965.31	226.97
965.60	226.93
965.90	226.97
966.19	226.92
966.49	226.94
966.78	226.96
967.08	226.95
967.37	226.96
967.67	226.89
967.96	226.89
968.26	226.89
968.55	226.91
968.85	226.91
969.14	226.92
969.43	226.89
969.73	226.87
970.02	226.88
970.32	226.87
970.61	226.89
970.91	226.86
971.20	226.84
971.49	226.87
971.79	226.89
972.08	226.84
972.38	226.89
972.67	226.88
972.96	226.89
973.26	226.86
973.55	226.92
973.85	226.93
974.14	226.95
974.43	226.93
974.73	226.91
975.02	226.94
975.31	226.92
975.61	226.95
975.90	226.94
976.19	226.96
976.49	226.96
976.78	226.99
977.07	226.99
977.37	227.00
977.66	227.01
977.95	227.01
978.24	227.06
978.54	227.08
978.83	227.08
979.12	227.10
979.42	227.13
979.71	227.09
980.00	227.13
980.29	227.13
980.59	227.16
980.88	227.20
981.17	227.17
981.46	227.23
981.76	227.24
982.05	227.30
982.34	227.30
982.63	227.31
982.93	227.29
983.22	227.32
983.51	227.35
983.80	227.36
984.09	227.35
984.39	227.32
984.68	227.32
984.97	227.35
985.26	227.31
985.55	227.31
985.85	227.32
986.14	227.33
986.43	227.34
986.72	227.33
987.01	227.29
987.30	227.31
987.59	227.26
987.89	227.27
988.18	227.21
988.47	227.20
988.76	227.20
989.05	227.18
989.34	227.15
989.63	227.16
989.92	227.15
990.22	227.18
990.51	227.18
990.80	227.15
991.09	227.15
991.38	227.18
991.67	227.17
991.96	227.14
992.25	227.11
992.54	227.10
992.83	227.10
993.12	227.10
993.41	227.13
993.70	227.20
993.99	227.19
994.28	227.21
994.58	227.21
994.87	227.18
995.16	227.17
995.45	227.17
995.74	227.13
996.03	227.14
996.32	227.13
996.61	227.13
996.90	227.13
997.19	227.12
997.48	227.11
997.77	227.08
998.06	227.04
998.34	227.07
998.63	227.06
998.92	227.06
999.21	227.07
999.50	227.03
999.79	226.94
1000.08	226.93
1000.37	226.92
1000.66	226.92
1000.95	226.96
1001.24	226.96
1001.53	226.96
1001.82	226.93
1002.11	226.88
1002.40	226.88
1002.68	226.91
1002.97	226.99
1003.26	226.97
1003.55	226.96
1003.84	226.99
1004.13	227.05
1004.42	227.01
1004.71	227.01
1004.99	227.00
1005.28	227.01
1005.57	227.01
1005.86	227.02
1006.15	227.02
1006.44	227.02
1006.72	227.03
1007.01	227.03
1007.30	227.04
1007.59	227.00
1007.88	227.00
1008.17	227.00
1008.45	226.99
1008.74	226.94
1009.03	226.89
1009.32	226.89
1009.60	226.93
1009.89	226.95
1010.18	226.94
1010.47	226.99
1010.76	226.97
1011.04	226.99
1011.33	226.99
1011.62	226.99
1011.91	227.03
1012.19	227.05
1012.48	227.05
1012.77	227.05
1013.05	227.06
1013.34	227.09
1013.63	227.08
1013.92	227.11
1014.20	227.14
1014.49	227.16
1014.78	227.19
1015.06	227.19
1015.35	227.21
1015.64	227.20
1015.92	227.18
1016.21	227.16
1016.50	227.15
1016.78	227.20
1017.07	227.22
1017.36	227.22
1017.64	227.26
1017.93	227.26
1018.22	227.25
1018.50	227.25
1018.79	227.26
1019.08	227.23
1019.36	227.24
1019.65	227.22
1019.93	227.28
1020.22	227.31
1020.51	227.38
1020.79	227.40
1021.08	227.08
1021.36	227.04
1021.65	227.19
1021.94	227.15
1022.22	227.53
1022.51	226.26
1022.79	228.29
1023.08	227.84
1023.36	228.70
1023.65	227.65
>>>>>End Processed Spectral Data<<<<<
