SpectraSuite Data File
++++++++++++++++++++++++++++++++++++
Date: Fri Feb 01 16:57:23 EST 2013
User: group
Dark Spectrum Present: No
Reference Spectrum Present: No
Number of Sampled Component Spectra: 1
Spectrometers: USB2E7196
Integration Time (usec): 35000 (USB2E7196)
Spectra Averaged: 100 (USB2E7196)
Boxcar Smoothing: 10 (USB2E7196)
Correct for Electrical Dark: No (USB2E7196)
Strobe/Lamp Enabled: No (USB2E7196)
Correct for Detector Non-linearity: No (USB2E7196)
Correct for Stray Light: No (USB2E7196)
Number of Pixels in Processed Spectrum: 2048
>>>>>Begin Processed Spectral Data<<<<<
339.09	0.00
339.48	212.63
339.86	214.80
340.24	216.56
340.63	218.12
341.01	220.23
341.39	219.90
341.78	221.67
342.16	223.27
342.54	223.07
342.93	211.74
343.31	222.44
343.69	223.01
344.07	223.49
344.46	223.87
344.84	224.21
345.22	224.47
345.60	224.75
345.99	224.92
346.37	225.06
346.75	225.18
347.13	225.24
347.52	225.27
347.90	225.37
348.28	225.41
348.66	225.46
349.05	225.45
349.43	225.48
349.81	225.53
350.19	225.57
350.57	225.63
350.96	225.69
351.34	225.80
351.72	225.88
352.10	225.96
352.48	226.06
352.87	226.11
353.25	226.16
353.63	226.20
354.01	226.27
354.39	226.34
354.77	226.42
355.15	226.49
355.54	226.54
355.92	226.55
356.30	226.62
356.68	226.76
357.06	226.85
357.44	226.87
357.82	226.90
358.20	227.00
358.58	227.07
358.97	227.13
359.35	227.20
359.73	227.28
360.11	227.34
360.49	227.37
360.87	227.44
361.25	227.51
361.63	227.59
362.01	227.65
362.39	227.64
362.77	227.69
363.15	227.73
363.53	227.76
363.91	227.80
364.29	227.83
364.67	227.75
365.05	227.78
365.43	227.85
365.81	227.88
366.19	227.88
366.57	227.94
366.95	227.94
367.33	227.92
367.71	227.90
368.09	227.91
368.47	227.91
368.85	227.89
369.23	227.86
369.61	227.77
369.99	227.78
370.37	227.77
370.75	227.78
371.13	227.73
371.51	227.69
371.89	227.65
372.27	227.62
372.65	227.57
373.03	227.52
373.41	227.43
373.78	227.37
374.16	227.30
374.54	227.21
374.92	227.15
375.30	227.06
375.68	226.98
376.06	226.93
376.44	226.87
376.82	226.82
377.19	226.79
377.57	226.75
377.95	226.63
378.33	226.55
378.71	226.43
379.09	226.39
379.47	226.35
379.84	226.30
380.22	226.19
380.60	226.11
380.98	226.05
381.36	225.97
381.73	225.91
382.11	225.84
382.49	225.78
382.87	225.71
383.25	225.68
383.62	225.74
384.00	225.67
384.38	225.58
384.76	225.56
385.13	225.52
385.51	225.48
385.89	225.43
386.27	225.43
386.64	225.41
387.02	225.35
387.40	225.30
387.78	225.26
388.15	225.25
388.53	225.25
388.91	225.21
389.29	225.18
389.66	225.16
390.04	225.15
390.42	225.13
390.79	225.14
391.17	225.11
391.55	224.98
391.92	224.97
392.30	224.98
392.68	224.91
393.05	224.91
393.43	224.90
393.81	224.91
394.18	224.88
394.56	224.90
394.94	224.94
395.31	224.96
395.69	224.99
396.06	225.02
396.44	225.01
396.82	225.02
397.19	225.09
397.57	225.13
397.95	225.15
398.32	225.17
398.70	225.22
399.07	225.30
399.45	225.34
399.82	225.37
400.20	225.43
400.58	225.50
400.95	225.51
401.33	225.59
401.70	225.74
402.08	225.83
402.45	225.89
402.83	225.99
403.20	226.07
403.58	226.15
403.95	226.27
404.33	226.40
404.71	226.52
405.08	226.71
405.46	226.81
405.83	226.96
406.21	227.09
406.58	227.24
406.96	227.39
407.33	227.57
407.70	227.78
408.08	228.04
408.45	228.24
408.83	228.48
409.20	228.70
409.58	228.87
409.95	229.13
410.33	229.38
410.70	229.63
411.08	229.94
411.45	230.27
411.82	230.55
412.20	230.91
412.57	231.34
412.95	231.63
413.32	232.08
413.69	232.49
414.07	232.92
414.44	233.39
414.82	233.88
415.19	234.45
415.56	234.98
415.94	235.54
416.31	236.19
416.68	236.82
417.06	237.52
417.43	238.19
417.81	238.92
418.18	239.71
418.55	240.55
418.93	241.40
419.30	242.27
419.67	243.22
420.04	244.17
420.42	245.16
420.79	246.36
421.16	247.52
421.54	248.68
421.91	249.89
422.28	251.15
422.66	252.45
423.03	253.72
423.40	255.06
423.77	256.45
424.15	257.85
424.52	259.32
424.89	260.97
425.26	262.50
425.64	263.95
426.01	265.56
426.38	267.16
426.75	268.85
427.13	270.57
427.50	272.34
427.87	274.19
428.24	276.01
428.61	277.70
428.99	279.62
429.36	281.75
429.73	283.77
430.10	285.75
430.47	287.77
430.85	289.93
431.22	292.11
431.59	294.48
431.96	296.75
432.33	299.26
432.70	301.62
433.08	304.47
433.45	307.10
433.82	309.67
434.19	312.58
434.56	315.34
434.93	317.97
435.30	320.59
435.68	323.47
436.05	326.31
436.42	329.10
436.79	331.58
437.16	334.26
437.53	337.09
437.90	339.86
438.27	342.61
438.64	345.39
439.01	348.00
439.38	350.19
439.75	352.28
440.13	354.72
440.50	357.02
440.87	358.80
441.24	360.75
441.61	362.86
441.98	364.38
442.35	366.19
442.72	368.02
443.09	369.81
443.46	370.81
443.83	371.38
444.20	371.88
444.57	372.76
444.94	373.02
445.31	373.35
445.68	373.74
446.05	373.85
446.42	373.46
446.79	373.07
447.16	372.68
447.53	372.43
447.90	371.30
448.27	370.17
448.64	368.62
449.01	367.45
449.37	365.55
449.74	363.65
450.11	361.45
450.48	359.07
450.85	356.56
451.22	354.48
451.59	352.46
451.96	350.53
452.33	347.94
452.70	345.59
453.07	342.79
453.43	339.91
453.80	337.14
454.17	334.53
454.54	332.00
454.91	329.29
455.28	326.63
455.65	324.15
456.02	321.74
456.38	319.62
456.75	317.00
457.12	314.75
457.49	312.50
457.86	310.30
458.23	308.44
458.59	306.42
458.96	304.30
459.33	302.47
459.70	300.62
460.07	299.13
460.43	297.41
460.80	295.81
461.17	294.37
461.54	292.91
461.91	291.46
462.27	290.02
462.64	288.79
463.01	287.44
463.38	286.14
463.74	284.73
464.11	283.58
464.48	282.60
464.85	281.50
465.21	280.67
465.58	279.78
465.95	278.69
466.32	277.77
466.68	276.93
467.05	276.05
467.42	275.18
467.78	274.26
468.15	273.42
468.52	272.81
468.88	271.97
469.25	271.21
469.62	270.57
469.98	269.91
470.35	269.27
470.72	268.71
471.08	268.05
471.45	267.52
471.82	266.96
472.18	266.32
472.55	265.91
472.92	265.39
473.28	264.93
473.65	264.46
474.02	264.04
474.38	263.66
474.75	263.35
475.11	263.01
475.48	262.77
475.85	262.54
476.21	262.30
476.58	262.14
476.94	261.98
477.31	261.84
477.67	261.70
478.04	261.60
478.41	261.55
478.77	261.62
479.14	261.60
479.50	261.61
479.87	261.69
480.23	261.73
480.60	261.83
480.96	261.94
481.33	262.17
481.69	262.37
482.06	262.58
482.42	262.80
482.79	263.06
483.15	263.37
483.52	263.74
483.88	264.07
484.25	264.46
484.61	264.90
484.98	265.34
485.34	265.87
485.71	266.43
486.07	267.05
486.44	267.63
486.80	268.32
487.17	269.04
487.53	269.90
487.90	270.78
488.26	271.73
488.62	272.70
488.99	273.70
489.35	274.76
489.72	275.86
490.08	277.05
490.44	278.28
490.81	279.61
491.17	280.98
491.54	282.47
491.90	284.02
492.26	285.65
492.63	287.42
492.99	289.23
493.36	291.16
493.72	293.15
494.08	295.21
494.45	297.43
494.81	299.79
495.17	302.17
495.54	304.76
495.90	307.44
496.26	310.24
496.63	313.17
496.99	316.27
497.35	319.53
497.72	322.96
498.08	326.50
498.44	330.16
498.80	334.03
499.17	338.06
499.53	342.21
499.89	346.51
500.26	350.97
500.62	355.59
500.98	360.49
501.34	365.57
501.71	370.88
502.07	376.32
502.43	381.90
502.79	387.68
503.16	393.69
503.52	399.88
503.88	406.29
504.24	412.84
504.60	419.67
504.97	426.76
505.33	433.99
505.69	441.61
506.05	449.32
506.41	457.17
506.78	465.27
507.14	473.67
507.50	482.35
507.86	491.31
508.22	500.44
508.59	509.67
508.95	519.14
509.31	528.85
509.67	538.89
510.03	549.13
510.39	559.59
510.75	570.25
511.12	581.07
511.48	592.25
511.84	603.58
512.20	614.93
512.56	626.81
512.92	638.81
513.28	651.02
513.64	663.30
514.00	675.91
514.37	688.73
514.73	701.53
515.09	714.44
515.45	727.55
515.81	740.99
516.17	754.71
516.53	768.58
516.89	782.65
517.25	796.58
517.61	810.80
517.97	825.09
518.33	839.40
518.69	853.99
519.05	868.67
519.41	883.70
519.77	899.00
520.13	914.12
520.49	929.33
520.85	944.39
521.21	959.86
521.57	975.81
521.93	991.26
522.29	1007.46
522.65	1023.40
523.01	1039.32
523.37	1055.07
523.73	1070.83
524.09	1086.76
524.45	1102.68
524.81	1119.04
525.17	1135.37
525.53	1151.94
525.89	1168.49
526.25	1185.10
526.61	1201.12
526.97	1217.55
527.33	1233.79
527.68	1250.15
528.04	1266.36
528.40	1282.61
528.76	1299.29
529.12	1315.57
529.48	1332.21
529.84	1347.92
530.20	1364.29
530.56	1381.02
530.91	1398.03
531.27	1414.59
531.63	1430.76
531.99	1446.99
532.35	1462.76
532.71	1478.52
533.07	1494.53
533.42	1510.09
533.78	1525.87
534.14	1541.91
534.50	1556.94
534.86	1572.56
535.21	1587.47
535.57	1603.04
535.93	1618.35
536.29	1632.95
536.65	1647.65
537.00	1662.09
537.36	1677.12
537.72	1691.33
538.08	1705.44
538.44	1719.00
538.79	1732.70
539.15	1745.93
539.51	1759.51
539.87	1773.50
540.22	1786.95
540.58	1800.40
540.94	1813.47
541.29	1825.82
541.65	1838.25
542.01	1851.30
542.37	1863.34
542.72	1875.44
543.08	1887.03
543.44	1899.18
543.79	1910.39
544.15	1921.32
544.51	1932.76
544.87	1943.45
545.22	1954.11
545.58	1964.16
545.94	1973.80
546.29	1983.54
546.65	1993.34
547.01	2002.41
547.36	2010.89
547.72	2019.33
548.07	2027.08
548.43	2035.14
548.79	2043.21
549.14	2050.63
549.50	2057.78
549.86	2065.23
550.21	2072.42
550.57	2079.56
550.92	2086.11
551.28	2092.92
551.64	2099.82
551.99	2106.18
552.35	2112.35
552.70	2118.43
553.06	2124.39
553.41	2130.80
553.77	2136.65
554.13	2142.66
554.48	2148.84
554.84	2154.48
555.19	2159.61
555.55	2164.73
555.90	2169.24
556.26	2174.17
556.61	2178.88
556.97	2183.24
557.32	2187.50
557.68	2191.74
558.03	2195.97
558.39	2199.69
558.74	2204.33
559.10	2208.32
559.45	2211.90
559.81	2216.30
560.16	2220.16
560.52	2223.43
560.87	2226.84
561.23	2229.60
561.58	2232.64
561.94	2235.13
562.29	2237.50
562.64	2240.30
563.00	2243.00
563.35	2246.59
563.71	2249.79
564.06	2253.16
564.42	2256.10
564.77	2258.81
565.12	2261.35
565.48	2263.45
565.83	2265.53
566.19	2267.16
566.54	2268.05
566.89	2269.52
567.25	2270.20
567.60	2271.60
567.96	2273.61
568.31	2274.41
568.66	2275.83
569.02	2276.53
569.37	2276.99
569.72	2278.00
570.08	2278.35
570.43	2278.49
570.78	2278.13
571.14	2276.77
571.49	2275.59
571.84	2275.36
572.20	2274.31
572.55	2273.38
572.90	2271.94
573.26	2270.77
573.61	2269.06
573.96	2267.71
574.31	2264.93
574.67	2262.19
575.02	2258.86
575.37	2255.60
575.72	2252.27
576.08	2248.87
576.43	2245.80
576.78	2242.52
577.13	2239.49
577.49	2236.43
577.84	2233.37
578.19	2229.80
578.54	2226.44
578.90	2222.57
579.25	2217.26
579.60	2212.51
579.95	2207.76
580.30	2202.91
580.66	2197.80
581.01	2193.09
581.36	2188.16
581.71	2184.24
582.06	2180.09
582.42	2175.91
582.77	2170.84
583.12	2166.45
583.47	2162.15
583.82	2157.32
584.17	2152.13
584.53	2146.89
584.88	2141.50
585.23	2135.82
585.58	2130.40
585.93	2125.01
586.28	2120.19
586.63	2115.41
586.98	2110.54
587.34	2105.85
587.69	2101.09
588.04	2096.08
588.39	2090.69
588.74	2084.48
589.09	2078.46
589.44	2071.79
589.79	2065.63
590.14	2060.19
590.49	2053.70
590.84	2047.33
591.19	2041.42
591.54	2035.11
591.89	2028.07
592.25	2021.60
592.60	2014.51
592.95	2007.28
593.30	2000.15
593.65	1992.89
594.00	1985.96
594.35	1978.84
594.70	1970.84
595.05	1963.92
595.40	1956.73
595.75	1949.32
596.10	1943.37
596.45	1936.82
596.80	1930.72
597.15	1924.43
597.50	1917.61
597.85	1911.22
598.19	1904.78
598.54	1897.91
598.89	1891.49
599.24	1885.53
599.59	1879.04
599.94	1872.90
600.29	1866.67
600.64	1860.06
600.99	1852.72
601.34	1846.04
601.69	1839.21
602.04	1832.58
602.39	1825.25
602.74	1818.67
603.08	1811.95
603.43	1805.26
603.78	1797.98
604.13	1790.90
604.48	1783.82
604.83	1776.87
605.18	1770.21
605.53	1762.35
605.87	1754.43
606.22	1747.26
606.57	1739.38
606.92	1731.97
607.27	1725.20
607.62	1718.41
607.96	1711.39
608.31	1704.90
608.66	1697.37
609.01	1689.98
609.36	1682.60
609.70	1674.65
610.05	1666.69
610.40	1659.19
610.75	1651.00
611.10	1643.48
611.44	1635.01
611.79	1626.98
612.14	1618.62
612.49	1609.37
612.83	1601.00
613.18	1592.94
613.53	1585.03
613.88	1576.58
614.22	1568.32
614.57	1559.48
614.92	1551.43
615.27	1543.95
615.61	1535.74
615.96	1527.66
616.31	1519.93
616.65	1512.54
617.00	1505.18
617.35	1497.40
617.70	1489.09
618.04	1480.54
618.39	1472.17
618.74	1464.72
619.08	1456.47
619.43	1448.68
619.78	1441.83
620.12	1434.69
620.47	1427.21
620.82	1418.94
621.16	1411.55
621.51	1404.01
621.85	1396.44
622.20	1387.93
622.55	1379.54
622.89	1371.54
623.24	1363.98
623.59	1356.71
623.93	1349.09
624.28	1341.83
624.62	1334.46
624.97	1327.16
625.32	1320.38
625.66	1313.51
626.01	1306.43
626.35	1299.05
626.70	1291.40
627.04	1283.76
627.39	1275.93
627.73	1268.57
628.08	1261.74
628.43	1254.58
628.77	1247.30
629.12	1239.78
629.46	1232.75
629.81	1225.32
630.15	1218.10
630.50	1210.75
630.84	1202.54
631.19	1194.66
631.53	1187.10
631.88	1179.48
632.22	1171.91
632.57	1164.67
632.91	1157.07
633.26	1149.55
633.60	1142.14
633.95	1134.88
634.29	1127.79
634.64	1121.26
634.98	1113.89
635.32	1106.76
635.67	1099.96
636.01	1093.22
636.36	1086.38
636.70	1079.68
637.05	1073.19
637.39	1066.82
637.73	1060.29
638.08	1054.40
638.42	1048.40
638.77	1042.05
639.11	1035.46
639.45	1029.16
639.80	1022.46
640.14	1016.20
640.49	1009.68
640.83	1003.39
641.17	997.26
641.52	990.86
641.86	984.31
642.20	978.49
642.55	972.07
642.89	965.75
643.23	959.33
643.58	953.67
643.92	947.56
644.26	941.62
644.61	935.49
644.95	929.58
645.29	923.08
645.64	916.45
645.98	910.10
646.32	904.31
646.66	898.30
647.01	892.56
647.35	886.83
647.69	881.04
648.04	875.52
648.38	869.68
648.72	863.82
649.06	857.84
649.41	851.93
649.75	846.08
650.09	840.15
650.43	834.35
650.78	828.16
651.12	822.24
651.46	816.42
651.80	810.78
652.14	805.34
652.49	800.07
652.83	794.92
653.17	789.29
653.51	783.66
653.85	778.27
654.20	772.61
654.54	766.55
654.88	760.87
655.22	755.05
655.56	749.48
655.90	744.05
656.25	738.83
656.59	733.59
656.93	728.49
657.27	723.43
657.61	718.00
657.95	713.00
658.29	708.03
658.64	702.77
658.98	697.48
659.32	692.03
659.66	686.81
660.00	681.58
660.34	676.58
660.68	671.59
661.02	666.59
661.36	661.97
661.70	657.50
662.05	653.17
662.39	648.81
662.73	644.41
663.07	640.01
663.41	635.63
663.75	631.14
664.09	626.68
664.43	622.19
664.77	618.06
665.11	613.77
665.45	609.64
665.79	605.65
666.13	601.54
666.47	597.45
666.81	593.29
667.15	589.08
667.49	585.22
667.83	581.42
668.17	577.51
668.51	573.44
668.85	569.43
669.19	565.55
669.53	561.72
669.87	557.79
670.21	554.10
670.55	550.41
670.89	546.88
671.23	543.36
671.57	539.87
671.91	536.40
672.25	532.89
672.58	529.28
672.92	525.82
673.26	522.58
673.60	519.44
673.94	516.31
674.28	513.40
674.62	510.48
674.96	507.42
675.30	504.51
675.64	501.57
675.97	498.82
676.31	495.95
676.65	493.04
676.99	490.33
677.33	487.39
677.67	484.57
678.01	481.62
678.34	478.68
678.68	475.78
679.02	472.96
679.36	470.17
679.70	467.53
680.04	464.77
680.37	462.00
680.71	459.13
681.05	456.52
681.39	453.79
681.73	451.11
682.06	448.52
682.40	445.99
682.74	443.47
683.08	440.89
683.42	438.31
683.75	435.81
684.09	433.25
684.43	430.86
684.77	428.42
685.10	426.03
685.44	423.72
685.78	421.49
686.12	419.23
686.45	416.95
686.79	414.59
687.13	412.42
687.46	410.20
687.80	408.10
688.14	405.88
688.48	403.87
688.81	401.65
689.15	399.53
689.49	397.37
689.82	395.27
690.16	393.19
690.50	391.20
690.83	389.26
691.17	387.27
691.51	385.36
691.84	383.46
692.18	381.53
692.52	379.60
692.85	377.63
693.19	375.78
693.52	373.97
693.86	372.16
694.20	370.34
694.53	368.58
694.87	366.77
695.21	365.03
695.54	363.23
695.88	361.52
696.21	359.82
696.55	358.12
696.88	356.46
697.22	354.80
697.56	353.20
697.89	351.56
698.23	349.98
698.56	348.39
698.90	346.86
699.23	345.25
699.57	343.65
699.90	342.14
700.24	340.58
700.58	339.05
700.91	337.58
701.25	336.18
701.58	334.82
701.92	333.43
702.25	332.03
702.59	330.64
702.92	329.30
703.26	327.98
703.59	326.73
703.93	325.52
704.26	324.30
704.60	323.00
704.93	321.72
705.26	320.47
705.60	319.27
705.93	318.08
706.27	317.05
706.60	316.02
706.94	314.95
707.27	313.82
707.61	312.73
707.94	311.70
708.27	310.59
708.61	309.46
708.94	308.45
709.28	307.45
709.61	306.48
709.94	305.55
710.28	304.54
710.61	303.54
710.95	302.49
711.28	301.54
711.61	300.60
711.95	299.67
712.28	298.76
712.61	297.78
712.95	296.87
713.28	295.96
713.61	295.01
713.95	294.06
714.28	293.20
714.61	292.38
714.95	291.50
715.28	290.66
715.61	289.79
715.95	288.90
716.28	288.03
716.61	287.19
716.95	286.34
717.28	285.57
717.61	284.80
717.94	284.08
718.28	283.27
718.61	282.51
718.94	281.84
719.27	281.15
719.61	280.50
719.94	279.78
720.27	279.07
720.60	278.44
720.94	277.82
721.27	277.21
721.60	276.59
721.93	275.96
722.27	275.36
722.60	274.83
722.93	274.28
723.26	273.73
723.59	273.15
723.93	272.59
724.26	272.04
724.59	271.45
724.92	270.87
725.25	270.39
725.59	269.89
725.92	269.33
726.25	268.82
726.58	268.32
726.91	267.88
727.24	267.42
727.57	266.97
727.91	266.46
728.24	266.01
728.57	265.52
728.90	265.10
729.23	264.62
729.56	264.18
729.89	263.71
730.22	263.19
730.55	262.75
730.89	262.31
731.22	261.84
731.55	261.44
731.88	261.01
732.21	260.60
732.54	260.18
732.87	259.79
733.20	259.37
733.53	259.03
733.86	258.64
734.19	258.23
734.52	257.82
734.85	257.53
735.18	257.13
735.51	256.77
735.84	256.41
736.17	256.08
736.50	255.69
736.83	255.47
737.16	255.22
737.49	254.91
737.82	254.60
738.15	254.28
738.48	253.95
738.81	253.64
739.14	253.31
739.47	252.97
739.80	252.67
740.13	252.39
740.46	252.02
740.79	251.70
741.12	251.39
741.45	251.08
741.78	250.74
742.11	250.47
742.44	250.16
742.77	249.87
743.10	249.58
743.43	249.30
743.75	248.90
744.08	248.70
744.41	248.43
744.74	248.12
745.07	247.87
745.40	247.63
745.73	247.40
746.06	247.12
746.39	246.87
746.71	246.60
747.04	246.30
747.37	246.03
747.70	245.77
748.03	245.51
748.36	245.29
748.68	245.04
749.01	244.76
749.34	244.54
749.67	244.35
750.00	244.09
750.33	243.93
750.65	243.71
750.98	243.34
751.31	243.10
751.64	242.91
751.97	242.74
752.29	242.50
752.62	242.23
752.95	242.01
753.28	241.81
753.60	241.59
753.93	241.41
754.26	241.24
754.59	241.00
754.91	240.81
755.24	240.60
755.57	240.37
755.90	240.21
756.22	240.00
756.55	239.76
756.88	239.59
757.20	239.34
757.53	239.16
757.86	239.00
758.19	238.86
758.51	238.69
758.84	238.45
759.17	238.30
759.49	238.15
759.82	238.03
760.15	237.85
760.47	237.69
760.80	237.53
761.13	237.36
761.45	237.20
761.78	237.03
762.11	236.86
762.43	236.76
762.76	236.59
763.08	236.45
763.41	236.31
763.74	236.14
764.06	235.99
764.39	235.81
764.71	235.67
765.04	235.51
765.37	235.35
765.69	235.20
766.02	235.05
766.34	234.91
766.67	234.76
767.00	234.65
767.32	234.61
767.65	234.50
767.97	234.40
768.30	234.30
768.62	234.19
768.95	234.07
769.27	233.98
769.60	233.89
769.92	233.76
770.25	233.62
770.57	233.52
770.90	233.42
771.22	233.30
771.55	233.23
771.87	233.13
772.20	233.00
772.52	233.02
772.85	233.06
773.17	232.95
773.50	232.87
773.82	232.77
774.15	232.59
774.47	232.47
774.80	232.38
775.12	232.30
775.45	232.24
775.77	232.19
776.09	232.10
776.42	232.01
776.74	232.00
777.07	231.93
777.39	231.88
777.72	231.82
778.04	231.79
778.36	231.73
778.69	231.67
779.01	231.65
779.33	231.49
779.66	231.30
779.98	231.23
780.31	231.18
780.63	231.15
780.95	231.16
781.28	231.11
781.60	231.07
781.92	231.03
782.25	230.96
782.57	230.90
782.89	230.84
783.22	230.79
783.54	230.71
783.86	230.69
784.19	230.64
784.51	230.59
784.83	230.52
785.16	230.44
785.48	230.40
785.80	230.34
786.12	230.33
786.45	230.32
786.77	230.29
787.09	230.25
787.42	230.19
787.74	230.12
788.06	230.06
788.38	230.02
788.71	229.97
789.03	229.95
789.35	229.92
789.67	229.89
789.99	229.84
790.32	229.80
790.64	229.77
790.96	229.81
791.28	229.78
791.61	229.76
791.93	229.75
792.25	229.71
792.57	229.75
792.89	229.67
793.21	229.61
793.54	229.58
793.86	229.53
794.18	229.49
794.50	229.44
794.82	229.40
795.14	229.36
795.47	229.33
795.79	229.29
796.11	229.20
796.43	229.12
796.75	229.10
797.07	229.06
797.39	229.02
797.71	228.88
798.04	228.82
798.36	228.79
798.68	228.75
799.00	228.73
799.32	228.64
799.64	228.59
799.96	228.58
800.28	228.57
800.60	228.53
800.92	228.51
801.24	228.49
801.56	228.49
801.89	228.46
802.21	228.44
802.53	228.38
802.85	228.39
803.17	228.41
803.49	228.38
803.81	228.32
804.13	228.23
804.45	228.16
804.77	228.15
805.09	228.12
805.41	228.07
805.73	228.02
806.05	227.96
806.37	227.96
806.69	227.94
807.01	227.90
807.33	227.89
807.65	227.82
807.97	227.83
808.28	227.78
808.60	227.74
808.92	227.70
809.24	227.75
809.56	227.69
809.88	227.67
810.20	227.61
810.52	227.64
810.84	227.66
811.16	227.66
811.48	227.64
811.80	227.65
812.12	227.64
812.43	227.65
812.75	227.64
813.07	227.59
813.39	227.53
813.71	227.51
814.03	227.48
814.35	227.48
814.67	227.38
814.98	227.37
815.30	227.35
815.62	227.31
815.94	227.21
816.26	227.23
816.58	227.18
816.89	227.20
817.21	227.16
817.53	227.15
817.85	227.17
818.17	227.13
818.48	227.06
818.80	227.04
819.12	226.99
819.44	226.93
819.76	226.92
820.07	226.93
820.39	226.85
820.71	226.82
821.03	226.80
821.34	226.83
821.66	226.80
821.98	226.83
822.30	226.82
822.61	226.89
822.93	226.83
823.25	226.80
823.57	226.76
823.88	226.78
824.20	226.74
824.52	226.75
824.83	226.76
825.15	226.75
825.47	226.73
825.79	226.73
826.10	226.75
826.42	226.74
826.74	226.72
827.05	226.74
827.37	226.78
827.69	226.78
828.00	226.77
828.32	226.78
828.64	226.71
828.95	226.74
829.27	226.69
829.58	226.69
829.90	226.73
830.22	226.75
830.53	226.68
830.85	226.65
831.17	226.60
831.48	226.56
831.80	226.54
832.11	226.54
832.43	226.54
832.75	226.50
833.06	226.54
833.38	226.49
833.69	226.46
834.01	226.42
834.32	226.38
834.64	226.36
834.96	226.36
835.27	226.36
835.59	226.35
835.90	226.29
836.22	226.26
836.53	226.22
836.85	226.19
837.16	226.28
837.48	226.27
837.79	226.28
838.11	226.29
838.42	226.29
838.74	226.28
839.05	226.26
839.37	226.23
839.68	226.17
840.00	226.18
840.31	226.18
840.63	226.18
840.94	226.20
841.26	226.17
841.57	226.14
841.88	226.14
842.20	226.12
842.51	226.11
842.83	226.12
843.14	226.17
843.46	226.13
843.77	226.10
844.08	226.10
844.40	226.05
844.71	226.01
845.03	226.00
845.34	225.99
845.65	225.99
845.97	226.01
846.28	226.01
846.60	225.95
846.91	225.93
847.22	225.90
847.54	225.93
847.85	225.94
848.16	225.91
848.48	225.87
848.79	225.88
849.10	225.89
849.42	225.90
849.73	225.82
850.04	225.84
850.36	225.76
850.67	225.77
850.98	225.79
851.30	225.81
851.61	225.78
851.92	225.77
852.23	225.78
852.55	225.77
852.86	225.77
853.17	225.82
853.49	225.86
853.80	225.87
854.11	225.85
854.42	225.85
854.74	225.85
855.05	225.87
855.36	225.82
855.67	225.81
855.99	225.81
856.30	225.94
856.61	225.92
856.92	225.94
857.23	225.92
857.55	225.92
857.86	225.91
858.17	225.94
858.48	225.91
858.79	225.91
859.11	225.92
859.42	225.90
859.73	225.88
860.04	225.86
860.35	225.85
860.66	225.81
860.98	225.82
861.29	225.82
861.60	225.80
861.91	225.81
862.22	225.76
862.53	225.72
862.84	225.60
863.16	225.62
863.47	225.61
863.78	225.63
864.09	225.66
864.40	225.67
864.71	225.68
865.02	225.71
865.33	225.71
865.64	225.70
865.95	225.70
866.27	225.76
866.58	225.74
866.89	225.76
867.20	225.77
867.51	225.72
867.82	225.71
868.13	225.77
868.44	225.77
868.75	225.81
869.06	225.81
869.37	225.84
869.68	225.85
869.99	225.86
870.30	225.83
870.61	225.82
870.92	225.82
871.23	225.79
871.54	225.79
871.85	225.78
872.16	225.80
872.47	225.81
872.78	225.74
873.09	225.78
873.40	225.77
873.71	225.77
874.02	225.77
874.33	225.75
874.64	225.71
874.95	225.73
875.26	225.71
875.56	225.73
875.87	225.67
876.18	225.65
876.49	225.73
876.80	225.72
877.11	225.70
877.42	225.67
877.73	225.64
878.04	225.65
878.35	225.64
878.66	225.65
878.96	225.67
879.27	225.63
879.58	225.58
879.89	225.57
880.20	225.57
880.51	225.59
880.82	225.59
881.12	225.57
881.43	225.55
881.74	225.52
882.05	225.51
882.36	225.53
882.67	225.50
882.97	225.41
883.28	225.41
883.59	225.41
883.90	225.43
884.21	225.47
884.51	225.47
884.82	225.45
885.13	225.40
885.44	225.37
885.74	225.39
886.05	225.40
886.36	225.35
886.67	225.31
886.98	225.34
887.28	225.35
887.59	225.37
887.90	225.37
888.20	225.35
888.51	225.38
888.82	225.37
889.13	225.41
889.43	225.48
889.74	225.46
890.05	225.43
890.35	225.42
890.66	225.38
890.97	225.35
891.28	225.37
891.58	225.40
891.89	225.43
892.20	225.42
892.50	225.44
892.81	225.47
893.12	225.48
893.42	225.44
893.73	225.43
894.04	225.40
894.34	225.41
894.65	225.42
894.95	225.41
895.26	225.41
895.57	225.42
895.87	225.33
896.18	225.35
896.48	225.39
896.79	225.41
897.10	225.40
897.40	225.41
897.71	225.39
898.01	225.38
898.32	225.37
898.63	225.39
898.93	225.40
899.24	225.41
899.54	225.40
899.85	225.36
900.15	225.37
900.46	225.37
900.76	225.37
901.07	225.38
901.38	225.37
901.68	225.39
901.99	225.38
902.29	225.39
902.60	225.39
902.90	225.37
903.21	225.35
903.51	225.37
903.82	225.37
904.12	225.36
904.43	225.37
904.73	225.38
905.03	225.38
905.34	225.47
905.64	225.44
905.95	225.47
906.25	225.48
906.56	225.48
906.86	225.49
907.17	225.50
907.47	225.50
907.77	225.49
908.08	225.49
908.38	225.47
908.69	225.48
908.99	225.50
909.30	225.50
909.60	225.48
909.90	225.46
910.21	225.47
910.51	225.48
910.81	225.45
911.12	225.43
911.42	225.42
911.73	225.31
912.03	225.33
912.33	225.31
912.64	225.29
912.94	225.27
913.24	225.21
913.55	225.19
913.85	225.18
914.15	225.19
914.46	225.14
914.76	225.14
915.06	225.12
915.37	225.12
915.67	225.12
915.97	225.11
916.27	225.08
916.58	225.02
916.88	225.01
917.18	224.99
917.49	225.08
917.79	225.06
918.09	225.08
918.39	225.08
918.70	225.10
919.00	225.12
919.30	225.16
919.60	225.19
919.91	225.18
920.21	225.18
920.51	225.17
920.81	225.20
921.12	225.23
921.42	225.23
921.72	225.19
922.02	225.19
922.32	225.24
922.63	225.27
922.93	225.35
923.23	225.36
923.53	225.39
923.83	225.33
924.13	225.31
924.44	225.28
924.74	225.34
925.04	225.38
925.34	225.41
925.64	225.37
925.94	225.39
926.24	225.43
926.55	225.43
926.85	225.44
927.15	225.46
927.45	225.45
927.75	225.46
928.05	225.49
928.35	225.48
928.65	225.52
928.95	225.55
929.26	225.52
929.56	225.53
929.86	225.55
930.16	225.54
930.46	225.56
930.76	225.55
931.06	225.46
931.36	225.44
931.66	225.46
931.96	225.49
932.26	225.47
932.56	225.48
932.86	225.48
933.16	225.48
933.46	225.47
933.76	225.46
934.06	225.49
934.36	225.51
934.66	225.49
934.96	225.46
935.26	225.48
935.56	225.47
935.86	225.45
936.16	225.38
936.46	225.39
936.76	225.43
937.06	225.43
937.36	225.46
937.66	225.42
937.96	225.38
938.26	225.36
938.56	225.37
938.86	225.37
939.16	225.40
939.46	225.38
939.76	225.38
940.06	225.37
940.35	225.33
940.65	225.27
940.95	225.28
941.25	225.25
941.55	225.17
941.85	225.18
942.15	225.17
942.45	225.26
942.75	225.24
943.04	225.22
943.34	225.25
943.64	225.21
943.94	225.23
944.24	225.22
944.54	225.21
944.84	225.21
945.13	225.15
945.43	225.10
945.73	225.10
946.03	225.06
946.33	225.01
946.62	225.01
946.92	225.02
947.22	225.03
947.52	225.03
947.82	225.06
948.11	225.07
948.41	225.03
948.71	224.96
949.01	224.98
949.31	224.95
949.60	224.91
949.90	224.92
950.20	224.91
950.50	224.89
950.79	224.89
951.09	224.87
951.39	224.85
951.69	224.89
951.98	224.90
952.28	224.89
952.58	224.96
952.87	224.95
953.17	224.96
953.47	224.97
953.76	224.96
954.06	224.94
954.36	224.91
954.66	224.95
954.95	225.00
955.25	224.98
955.55	224.99
955.84	225.01
956.14	225.03
956.44	225.03
956.73	225.04
957.03	225.03
957.32	225.04
957.62	225.09
957.92	225.07
958.21	225.08
958.51	225.23
958.81	225.20
959.10	225.18
959.40	225.23
959.69	225.22
959.99	225.24
960.29	225.25
960.58	225.24
960.88	225.26
961.17	225.24
961.47	225.27
961.76	225.26
962.06	225.28
962.36	225.31
962.65	225.33
962.95	225.35
963.24	225.37
963.54	225.39
963.83	225.40
964.13	225.44
964.42	225.47
964.72	225.39
965.01	225.42
965.31	225.47
965.60	225.44
965.90	225.52
966.19	225.51
966.49	225.52
966.78	225.56
967.08	225.58
967.37	225.60
967.67	225.58
967.96	225.61
968.26	225.61
968.55	225.59
968.85	225.63
969.14	225.64
969.43	225.64
969.73	225.63
970.02	225.62
970.32	225.60
970.61	225.57
970.91	225.55
971.20	225.53
971.49	225.53
971.79	225.54
972.08	225.48
972.38	225.50
972.67	225.50
972.96	225.50
973.26	225.48
973.55	225.49
973.85	225.48
974.14	225.50
974.43	225.49
974.73	225.47
975.02	225.42
975.31	225.41
975.61	225.43
975.90	225.45
976.19	225.43
976.49	225.44
976.78	225.42
977.07	225.40
977.37	225.39
977.66	225.35
977.95	225.33
978.24	225.30
978.54	225.33
978.83	225.31
979.12	225.28
979.42	225.30
979.71	225.30
980.00	225.29
980.29	225.25
980.59	225.20
980.88	225.18
981.17	225.18
981.46	225.19
981.76	225.16
982.05	225.12
982.34	225.13
982.63	225.14
982.93	225.15
983.22	225.15
983.51	225.16
983.80	225.19
984.09	225.20
984.39	225.18
984.68	225.15
984.97	225.12
985.26	225.12
985.55	225.05
985.85	225.01
986.14	225.03
986.43	225.03
986.72	225.02
987.01	225.02
987.30	225.00
987.59	224.96
987.89	224.95
988.18	224.96
988.47	224.92
988.76	224.89
989.05	224.89
989.34	224.86
989.63	224.87
989.92	224.86
990.22	224.83
990.51	224.86
990.80	224.87
991.09	224.89
991.38	224.89
991.67	224.92
991.96	224.89
992.25	224.90
992.54	224.92
992.83	224.94
993.12	224.95
993.41	224.98
993.70	225.05
993.99	225.08
994.28	225.11
994.58	225.13
994.87	225.13
995.16	225.09
995.45	225.15
995.74	225.17
996.03	225.17
996.32	225.21
996.61	225.21
996.90	225.19
997.19	225.21
997.48	225.21
997.77	225.23
998.06	225.27
998.34	225.30
998.63	225.30
998.92	225.32
999.21	225.34
999.50	225.38
999.79	225.38
1000.08	225.39
1000.37	225.36
1000.66	225.36
1000.95	225.41
1001.24	225.46
1001.53	225.45
1001.82	225.39
1002.11	225.39
1002.40	225.41
1002.68	225.42
1002.97	225.48
1003.26	225.50
1003.55	225.49
1003.84	225.50
1004.13	225.57
1004.42	225.53
1004.71	225.53
1004.99	225.52
1005.28	225.55
1005.57	225.53
1005.86	225.50
1006.15	225.50
1006.44	225.50
1006.72	225.50
1007.01	225.47
1007.30	225.49
1007.59	225.49
1007.88	225.54
1008.17	225.53
1008.45	225.51
1008.74	225.49
1009.03	225.49
1009.32	225.44
1009.60	225.45
1009.89	225.42
1010.18	225.36
1010.47	225.34
1010.76	225.33
1011.04	225.32
1011.33	225.34
1011.62	225.31
1011.91	225.28
1012.19	225.25
1012.48	225.25
1012.77	225.25
1013.05	225.31
1013.34	225.29
1013.63	225.29
1013.92	225.28
1014.20	225.29
1014.49	225.29
1014.78	225.29
1015.06	225.23
1015.35	225.23
1015.64	225.26
1015.92	225.27
1016.21	225.26
1016.50	225.26
1016.78	225.22
1017.07	225.25
1017.36	225.19
1017.64	225.19
1017.93	225.21
1018.22	225.19
1018.50	225.19
1018.79	225.15
1019.08	225.06
1019.36	225.07
1019.65	225.04
1019.93	225.02
1020.22	225.03
1020.51	225.05
1020.79	225.04
1021.08	224.87
1021.36	224.83
1021.65	224.65
1021.94	224.73
1022.22	225.49
1022.51	224.76
1022.79	224.99
1023.08	225.30
1023.36	226.13
1023.65	224.94
>>>>>End Processed Spectral Data<<<<<
