SpectraSuite Data File
++++++++++++++++++++++++++++++++++++
Date: Fri Feb 01 16:30:01 EST 2013
User: group
Dark Spectrum Present: No
Reference Spectrum Present: No
Number of Sampled Component Spectra: 1
Spectrometers: USB2E7196
Integration Time (usec): 35000 (USB2E7196)
Spectra Averaged: 100 (USB2E7196)
Boxcar Smoothing: 10 (USB2E7196)
Correct for Electrical Dark: No (USB2E7196)
Strobe/Lamp Enabled: No (USB2E7196)
Correct for Detector Non-linearity: No (USB2E7196)
Correct for Stray Light: No (USB2E7196)
Number of Pixels in Processed Spectrum: 2048
>>>>>Begin Processed Spectral Data<<<<<
339.09	0.00
339.48	213.68
339.86	215.55
340.24	216.33
340.63	218.05
341.01	220.74
341.39	220.96
341.78	222.04
342.16	222.81
342.54	223.98
342.93	212.21
343.31	222.96
343.69	223.52
344.07	223.96
344.46	224.42
344.84	224.80
345.22	225.05
345.60	225.29
345.99	225.49
346.37	225.61
346.75	225.70
347.13	225.74
347.52	225.77
347.90	225.84
348.28	225.86
348.66	225.94
349.05	225.95
349.43	225.98
349.81	226.01
350.19	226.05
350.57	226.13
350.96	226.20
351.34	226.25
351.72	226.29
352.10	226.42
352.48	226.49
352.87	226.55
353.25	226.59
353.63	226.64
354.01	226.72
354.39	226.82
354.77	226.88
355.15	226.98
355.54	227.06
355.92	227.10
356.30	227.16
356.68	227.27
357.06	227.35
357.44	227.38
357.82	227.44
358.20	227.50
358.58	227.53
358.97	227.62
359.35	227.71
359.73	227.82
360.11	227.82
360.49	227.87
360.87	227.92
361.25	228.00
361.63	228.08
362.01	228.08
362.39	228.13
362.77	228.17
363.15	228.18
363.53	228.16
363.91	228.18
364.29	228.25
364.67	228.16
365.05	228.16
365.43	228.19
365.81	228.21
366.19	228.28
366.57	228.32
366.95	228.30
367.33	228.28
367.71	228.27
368.09	228.31
368.47	228.31
368.85	228.26
369.23	228.26
369.61	228.24
369.99	228.26
370.37	228.24
370.75	228.27
371.13	228.23
371.51	228.24
371.89	228.22
372.27	228.16
372.65	228.14
373.03	228.12
373.41	228.09
373.78	228.01
374.16	227.92
374.54	227.83
374.92	227.78
375.30	227.72
375.68	227.63
376.06	227.56
376.44	227.49
376.82	227.44
377.19	227.37
377.57	227.28
377.95	227.22
378.33	227.16
378.71	227.04
379.09	227.02
379.47	226.93
379.84	226.86
380.22	226.80
380.60	226.72
380.98	226.65
381.36	226.59
381.73	226.56
382.11	226.49
382.49	226.44
382.87	226.34
383.25	226.29
383.62	226.37
384.00	226.31
384.38	226.25
384.76	226.21
385.13	226.18
385.51	226.11
385.89	226.03
386.27	225.98
386.64	225.93
387.02	225.87
387.40	225.82
387.78	225.79
388.15	225.74
388.53	225.67
388.91	225.63
389.29	225.59
389.66	225.56
390.04	225.54
390.42	225.54
390.79	225.53
391.17	225.53
391.55	225.38
391.92	225.36
392.30	225.32
392.68	225.32
393.05	225.35
393.43	225.35
393.81	225.34
394.18	225.36
394.56	225.36
394.94	225.42
395.31	225.46
395.69	225.49
396.06	225.52
396.44	225.56
396.82	225.56
397.19	225.63
397.57	225.64
397.95	225.71
398.32	225.73
398.70	225.80
399.07	225.87
399.45	225.95
399.82	225.99
400.20	226.07
400.58	226.13
400.95	226.11
401.33	226.19
401.70	226.34
402.08	226.41
402.45	226.48
402.83	226.57
403.20	226.68
403.58	226.76
403.95	226.90
404.33	227.06
404.71	227.23
405.08	227.45
405.46	227.57
405.83	227.69
406.21	227.84
406.58	227.98
406.96	228.11
407.33	228.24
407.70	228.43
408.08	228.73
408.45	228.95
408.83	229.19
409.20	229.44
409.58	229.60
409.95	229.85
410.33	230.15
410.70	230.36
411.08	230.63
411.45	230.96
411.82	231.25
412.20	231.61
412.57	231.99
412.95	232.25
413.32	232.65
413.69	233.05
414.07	233.48
414.44	233.99
414.82	234.49
415.19	235.08
415.56	235.67
415.94	236.18
416.31	236.82
416.68	237.44
417.06	238.17
417.43	238.87
417.81	239.63
418.18	240.42
418.55	241.30
418.93	242.18
419.30	243.06
419.67	244.00
420.04	244.95
420.42	245.93
420.79	247.11
421.16	248.27
421.54	249.47
421.91	250.70
422.28	251.94
422.66	253.26
423.03	254.53
423.40	255.82
423.77	257.26
424.15	258.70
424.52	260.23
424.89	261.81
425.26	263.37
425.64	264.83
426.01	266.40
426.38	268.07
426.75	269.73
427.13	271.46
427.50	273.29
427.87	275.17
428.24	277.04
428.61	278.74
428.99	280.66
429.36	282.73
429.73	284.81
430.10	286.81
430.47	288.86
430.85	290.99
431.22	293.23
431.59	295.58
431.96	297.80
432.33	300.27
432.70	302.65
433.08	305.43
433.45	308.04
433.82	310.60
434.19	313.46
434.56	316.23
434.93	318.87
435.30	321.47
435.68	324.33
436.05	327.14
436.42	329.96
436.79	332.51
437.16	335.20
437.53	337.98
437.90	340.81
438.27	343.52
438.64	346.30
439.01	348.88
439.38	351.09
439.75	353.26
440.13	355.68
440.50	357.97
440.87	359.81
441.24	361.71
441.61	363.90
441.98	365.39
442.35	367.16
442.72	369.01
443.09	370.80
443.46	371.77
443.83	372.41
444.20	372.91
444.57	373.73
444.94	373.97
445.31	374.32
445.68	374.63
446.05	374.71
446.42	374.34
446.79	373.94
447.16	373.52
447.53	373.17
447.90	372.06
448.27	370.96
448.64	369.40
449.01	368.29
449.37	366.32
449.74	364.44
450.11	362.24
450.48	359.79
450.85	357.30
451.22	355.15
451.59	353.09
451.96	351.15
452.33	348.54
452.70	346.22
453.07	343.39
453.43	340.50
453.80	337.78
454.17	335.14
454.54	332.57
454.91	329.89
455.28	327.21
455.65	324.70
456.02	322.24
456.38	320.09
456.75	317.45
457.12	315.22
457.49	312.99
457.86	310.85
458.23	308.95
458.59	306.89
458.96	304.87
459.33	303.06
459.70	301.21
460.07	299.77
460.43	298.10
460.80	296.51
461.17	295.10
461.54	293.60
461.91	292.17
462.27	290.76
462.64	289.50
463.01	288.21
463.38	286.90
463.74	285.56
464.11	284.41
464.48	283.40
464.85	282.30
465.21	281.42
465.58	280.51
465.95	279.44
466.32	278.58
466.68	277.68
467.05	276.77
467.42	275.89
467.78	274.93
468.15	274.08
468.52	273.41
468.88	272.52
469.25	271.77
469.62	271.16
469.98	270.49
470.35	269.87
470.72	269.25
471.08	268.64
471.45	268.05
471.82	267.51
472.18	266.92
472.55	266.49
472.92	266.02
473.28	265.55
473.65	265.14
474.02	264.67
474.38	264.31
474.75	263.98
475.11	263.59
475.48	263.34
475.85	263.11
476.21	262.91
476.58	262.79
476.94	262.62
477.31	262.46
477.67	262.31
478.04	262.20
478.41	262.16
478.77	262.24
479.14	262.21
479.50	262.22
479.87	262.30
480.23	262.37
480.60	262.38
480.96	262.48
481.33	262.68
481.69	262.87
482.06	263.04
482.42	263.24
482.79	263.56
483.15	263.84
483.52	264.19
483.88	264.48
484.25	264.85
484.61	265.31
484.98	265.76
485.34	266.31
485.71	266.89
486.07	267.48
486.44	268.01
486.80	268.74
487.17	269.49
487.53	270.30
487.90	271.17
488.26	272.13
488.62	273.12
488.99	274.12
489.35	275.14
489.72	276.26
490.08	277.46
490.44	278.70
490.81	280.05
491.17	281.43
491.54	282.91
491.90	284.44
492.26	286.09
492.63	287.82
492.99	289.61
493.36	291.52
493.72	293.57
494.08	295.70
494.45	297.93
494.81	300.29
495.17	302.72
495.54	305.29
495.90	307.97
496.26	310.80
496.63	313.74
496.99	316.87
497.35	320.17
497.72	323.60
498.08	327.13
498.44	330.81
498.80	334.71
499.17	338.83
499.53	343.00
499.89	347.36
500.26	351.86
500.62	356.50
500.98	361.47
501.34	366.54
501.71	371.90
502.07	377.40
502.43	383.02
502.79	388.85
503.16	394.92
503.52	401.19
503.88	407.60
504.24	414.25
504.60	421.16
504.97	428.25
505.33	435.62
505.69	443.33
506.05	451.18
506.41	459.06
506.78	467.19
507.14	475.64
507.50	484.38
507.86	493.43
508.22	502.66
508.59	511.85
508.95	521.45
509.31	531.19
509.67	541.23
510.03	551.57
510.39	562.11
510.75	572.89
511.12	583.83
511.48	595.10
511.84	606.52
512.20	617.99
512.56	629.94
512.92	642.15
513.28	654.51
513.64	666.94
514.00	679.68
514.37	692.68
514.73	705.76
515.09	718.80
515.45	732.08
515.81	745.68
516.17	759.73
516.53	773.77
516.89	787.93
517.25	802.14
517.61	816.52
517.97	830.97
518.33	845.40
518.69	860.22
519.05	875.21
519.41	890.37
519.77	905.91
520.13	921.23
520.49	936.43
520.85	951.83
521.21	967.47
521.57	983.63
521.93	999.29
522.29	1015.63
522.65	1031.78
523.01	1047.96
523.37	1063.82
523.73	1079.96
524.09	1096.02
524.45	1112.34
524.81	1128.86
525.17	1145.54
525.53	1162.27
525.89	1179.15
526.25	1195.90
526.61	1212.15
526.97	1228.84
527.33	1245.18
527.68	1261.87
528.04	1278.38
528.40	1294.84
528.76	1311.85
529.12	1328.20
529.48	1344.98
529.84	1360.89
530.20	1377.35
530.56	1394.19
530.91	1411.61
531.27	1428.18
531.63	1444.48
531.99	1460.84
532.35	1476.70
532.71	1492.54
533.07	1508.78
533.42	1524.52
533.78	1540.42
534.14	1556.62
534.50	1571.88
534.86	1587.70
535.21	1602.80
535.57	1618.56
535.93	1634.02
536.29	1648.69
536.65	1663.76
537.00	1678.38
537.36	1693.52
537.72	1708.00
538.08	1722.39
538.44	1736.03
538.79	1749.90
539.15	1763.47
539.51	1777.28
539.87	1791.51
540.22	1805.09
540.58	1818.80
540.94	1831.96
541.29	1844.74
541.65	1857.25
542.01	1870.32
542.37	1882.54
542.72	1894.80
543.08	1906.41
543.44	1918.60
543.79	1929.75
544.15	1940.70
544.51	1952.23
544.87	1963.14
545.22	1973.95
545.58	1984.14
545.94	1993.85
546.29	2003.49
546.65	2013.47
547.01	2022.53
547.36	2031.26
547.72	2039.68
548.07	2047.40
548.43	2055.60
548.79	2063.64
549.14	2071.18
549.50	2078.46
549.86	2086.05
550.21	2093.28
550.57	2100.44
550.92	2107.01
551.28	2113.95
551.64	2120.98
551.99	2127.44
552.35	2133.62
552.70	2139.74
553.06	2145.70
553.41	2152.00
553.77	2158.14
554.13	2164.09
554.48	2170.30
554.84	2175.70
555.19	2180.99
555.55	2186.19
555.90	2190.57
556.26	2195.27
556.61	2200.09
556.97	2204.35
557.32	2208.41
557.68	2212.48
558.03	2216.79
558.39	2220.46
558.74	2225.13
559.10	2229.15
559.45	2232.92
559.81	2237.19
560.16	2241.00
560.52	2244.15
560.87	2247.58
561.23	2250.22
561.58	2253.22
561.94	2255.74
562.29	2258.06
562.64	2260.74
563.00	2263.21
563.35	2266.74
563.71	2270.00
564.06	2273.17
564.42	2276.11
564.77	2278.83
565.12	2281.19
565.48	2283.18
565.83	2285.09
566.19	2286.44
566.54	2287.13
566.89	2288.17
567.25	2288.76
567.60	2290.06
567.96	2291.77
568.31	2292.68
568.66	2293.85
569.02	2294.54
569.37	2294.77
569.72	2295.70
570.08	2295.88
570.43	2296.15
570.78	2295.72
571.14	2294.25
571.49	2292.84
571.84	2292.63
572.20	2291.51
572.55	2290.54
572.90	2288.96
573.26	2287.72
573.61	2285.93
573.96	2284.32
574.31	2281.53
574.67	2278.72
575.02	2275.37
575.37	2272.02
575.72	2268.24
576.08	2264.94
576.43	2261.47
576.78	2257.85
577.13	2254.85
577.49	2251.87
577.84	2248.39
578.19	2244.65
578.54	2241.15
578.90	2237.14
579.25	2231.55
579.60	2226.48
579.95	2221.61
580.30	2216.69
580.66	2211.57
581.01	2206.82
581.36	2201.84
581.71	2197.78
582.06	2193.29
582.42	2188.64
582.77	2183.50
583.12	2179.08
583.47	2174.33
583.82	2169.44
584.17	2164.33
584.53	2158.89
584.88	2153.27
585.23	2147.57
585.58	2142.15
585.93	2136.74
586.28	2131.95
586.63	2127.07
586.98	2122.29
587.34	2117.56
587.69	2112.74
588.04	2107.49
588.39	2101.96
588.74	2095.59
589.09	2089.40
589.44	2082.74
589.79	2076.84
590.14	2071.31
590.49	2064.72
590.84	2058.55
591.19	2052.60
591.54	2046.32
591.89	2038.86
592.25	2032.16
592.60	2025.02
592.95	2017.59
593.30	2010.22
593.65	2002.79
594.00	1995.60
594.35	1988.33
594.70	1980.35
595.05	1973.25
595.40	1966.09
595.75	1958.57
596.10	1952.49
596.45	1945.83
596.80	1939.81
597.15	1933.24
597.50	1926.22
597.85	1919.95
598.19	1913.29
598.54	1906.21
598.89	1899.61
599.24	1893.89
599.59	1887.23
599.94	1881.01
600.29	1874.69
600.64	1868.26
600.99	1860.91
601.34	1854.27
601.69	1847.49
602.04	1840.54
602.39	1833.27
602.74	1826.42
603.08	1819.62
603.43	1812.88
603.78	1805.49
604.13	1798.29
604.48	1791.07
604.83	1784.24
605.18	1777.15
605.53	1769.11
605.87	1761.17
606.22	1753.89
606.57	1745.88
606.92	1738.61
607.27	1731.49
607.62	1724.55
607.96	1717.20
608.31	1710.49
608.66	1702.87
609.01	1695.14
609.36	1687.73
609.70	1679.62
610.05	1671.54
610.40	1663.88
610.75	1655.60
611.10	1648.02
611.44	1639.38
611.79	1631.39
612.14	1622.66
612.49	1613.49
612.83	1605.14
613.18	1596.98
613.53	1588.91
613.88	1580.40
614.22	1572.14
614.57	1563.56
614.92	1555.56
615.27	1547.98
615.61	1539.63
615.96	1531.62
616.31	1524.13
616.65	1516.70
617.00	1509.09
617.35	1501.40
617.70	1493.15
618.04	1484.78
618.39	1476.60
618.74	1469.16
619.08	1460.87
619.43	1453.33
619.78	1446.46
620.12	1439.21
620.47	1431.78
620.82	1423.58
621.16	1416.18
621.51	1408.54
621.85	1400.91
622.20	1392.40
622.55	1383.98
622.89	1376.13
623.24	1368.48
623.59	1360.98
623.93	1353.38
624.28	1346.26
624.62	1338.72
624.97	1331.57
625.32	1324.66
625.66	1317.52
626.01	1310.35
626.35	1302.90
626.70	1295.12
627.04	1287.30
627.39	1279.69
627.73	1272.20
628.08	1265.33
628.43	1258.08
628.77	1250.64
629.12	1243.07
629.46	1235.86
629.81	1228.46
630.15	1221.27
630.50	1213.85
630.84	1205.66
631.19	1197.77
631.53	1190.22
631.88	1182.70
632.22	1175.03
632.57	1167.75
632.91	1160.22
633.26	1152.68
633.60	1145.27
633.95	1138.17
634.29	1131.21
634.64	1124.50
634.98	1117.19
635.32	1110.01
635.67	1103.46
636.01	1096.82
636.36	1090.02
636.70	1083.50
637.05	1077.04
637.39	1070.55
637.73	1064.01
638.08	1058.12
638.42	1052.19
638.77	1045.72
639.11	1039.17
639.45	1032.79
639.80	1026.04
640.14	1019.77
640.49	1013.36
640.83	1007.10
641.17	1000.86
641.52	994.49
641.86	987.97
642.20	982.06
642.55	975.74
642.89	969.21
643.23	962.64
643.58	956.83
643.92	950.59
644.26	944.40
644.61	938.31
644.95	932.29
645.29	925.66
645.64	918.89
645.98	912.60
646.32	906.77
646.66	900.70
647.01	895.01
647.35	889.17
647.69	883.33
648.04	877.73
648.38	871.90
648.72	865.95
649.06	859.92
649.41	854.07
649.75	848.12
650.09	842.16
650.43	836.42
650.78	830.36
651.12	824.44
651.46	818.78
651.80	813.11
652.14	807.69
652.49	802.42
652.83	797.29
653.17	791.56
653.51	785.80
653.85	780.49
654.20	774.81
654.54	768.78
654.88	762.96
655.22	757.06
655.56	751.42
655.90	745.90
656.25	740.61
656.59	735.13
656.93	729.98
657.27	724.76
657.61	719.33
657.95	714.16
658.29	709.05
658.64	703.76
658.98	698.43
659.32	693.05
659.66	687.82
660.00	682.42
660.34	677.49
660.68	672.57
661.02	667.44
661.36	662.70
661.70	658.28
662.05	653.96
662.39	649.62
662.73	645.10
663.07	640.70
663.41	636.29
663.75	631.92
664.09	627.33
664.43	622.90
664.77	618.76
665.11	614.48
665.45	610.33
665.79	606.29
666.13	602.12
666.47	597.97
666.81	593.77
667.15	589.69
667.49	585.82
667.83	581.99
668.17	578.08
668.51	574.05
668.85	570.00
669.19	566.10
669.53	562.24
669.87	558.40
670.21	554.75
670.55	551.11
670.89	547.66
671.23	544.28
671.57	540.79
671.91	537.26
672.25	533.72
672.58	530.24
672.92	526.80
673.26	523.64
673.60	520.49
673.94	517.37
674.28	514.51
674.62	511.53
674.96	508.41
675.30	505.55
675.64	502.65
675.97	499.81
676.31	497.02
676.65	494.13
676.99	491.43
677.33	488.58
677.67	485.77
678.01	482.73
678.34	479.79
678.68	476.95
679.02	474.16
679.36	471.47
679.70	468.74
680.04	465.98
680.37	463.11
680.71	460.34
681.05	457.76
681.39	455.03
681.73	452.40
682.06	449.88
682.40	447.26
682.74	444.71
683.08	442.21
683.42	439.62
683.75	437.10
684.09	434.55
684.43	432.12
684.77	429.65
685.10	427.27
685.44	424.94
685.78	422.63
686.12	420.34
686.45	418.01
686.79	415.69
687.13	413.48
687.46	411.32
687.80	409.17
688.14	406.92
688.48	404.79
688.81	402.48
689.15	400.33
689.49	398.27
689.82	396.21
690.16	394.09
690.50	392.11
690.83	390.17
691.17	388.19
691.51	386.24
691.84	384.41
692.18	382.49
692.52	380.49
692.85	378.59
693.19	376.71
693.52	374.91
693.86	373.12
694.20	371.32
694.53	369.51
694.87	367.59
695.21	365.81
695.54	363.99
695.88	362.33
696.21	360.59
696.55	358.85
696.88	357.08
697.22	355.38
697.56	353.76
697.89	352.07
698.23	350.44
698.56	348.82
698.90	347.17
699.23	345.54
699.57	343.96
699.90	342.41
700.24	340.85
700.58	339.29
700.91	337.74
701.25	336.27
701.58	334.87
701.92	333.51
702.25	332.14
702.59	330.80
702.92	329.42
703.26	328.12
703.59	326.81
703.93	325.67
704.26	324.46
704.60	323.14
704.93	321.88
705.26	320.63
705.60	319.46
705.93	318.26
706.27	317.20
706.60	316.15
706.94	315.03
707.27	313.91
707.61	312.85
707.94	311.85
708.27	310.79
708.61	309.73
708.94	308.73
709.28	307.72
709.61	306.74
709.94	305.79
710.28	304.74
710.61	303.76
710.95	302.67
711.28	301.73
711.61	300.77
711.95	299.87
712.28	298.93
712.61	297.91
712.95	297.03
713.28	296.15
713.61	295.23
713.95	294.36
714.28	293.53
714.61	292.65
714.95	291.81
715.28	290.96
715.61	290.10
715.95	289.27
716.28	288.40
716.61	287.58
716.95	286.76
717.28	286.06
717.61	285.32
717.94	284.60
718.28	283.82
718.61	283.06
718.94	282.38
719.27	281.72
719.61	281.12
719.94	280.43
720.27	279.71
720.60	279.07
720.94	278.45
721.27	277.85
721.60	277.32
721.93	276.71
722.27	276.15
722.60	275.58
722.93	275.00
723.26	274.48
723.59	273.94
723.93	273.41
724.26	272.83
724.59	272.28
724.92	271.76
725.25	271.27
725.59	270.78
725.92	270.28
726.25	269.77
726.58	269.22
726.91	268.73
727.24	268.27
727.57	267.77
727.91	267.28
728.24	266.80
728.57	266.31
728.90	265.88
729.23	265.42
729.56	264.99
729.89	264.55
730.22	264.07
730.55	263.60
730.89	263.15
731.22	262.71
731.55	262.28
731.88	261.84
732.21	261.42
732.54	260.99
732.87	260.57
733.20	260.20
733.53	259.85
733.86	259.49
734.19	259.07
734.52	258.70
734.85	258.38
735.18	257.97
735.51	257.60
735.84	257.22
736.17	256.87
736.50	256.47
736.83	256.23
737.16	255.88
737.49	255.52
737.82	255.19
738.15	254.86
738.48	254.50
738.81	254.17
739.14	253.85
739.47	253.52
739.80	253.21
740.13	252.85
740.46	252.51
740.79	252.17
741.12	251.86
741.45	251.57
741.78	251.24
742.11	250.96
742.44	250.63
742.77	250.36
743.10	250.05
743.43	249.75
743.75	249.35
744.08	249.22
744.41	248.95
744.74	248.67
745.07	248.38
745.40	248.15
745.73	247.89
746.06	247.58
746.39	247.31
746.71	247.01
747.04	246.71
747.37	246.47
747.70	246.24
748.03	245.98
748.36	245.77
748.68	245.51
749.01	245.24
749.34	245.02
749.67	244.77
750.00	244.52
750.33	244.35
750.65	244.12
750.98	243.79
751.31	243.57
751.64	243.34
751.97	243.20
752.29	242.95
752.62	242.70
752.95	242.50
753.28	242.29
753.60	242.08
753.93	241.97
754.26	241.71
754.59	241.48
754.91	241.30
755.24	241.07
755.57	240.88
755.90	240.69
756.22	240.47
756.55	240.26
756.88	240.05
757.20	239.82
757.53	239.63
757.86	239.42
758.19	239.25
758.51	239.07
758.84	238.88
759.17	238.71
759.49	238.56
759.82	238.47
760.15	238.30
760.47	238.16
760.80	237.97
761.13	237.86
761.45	237.70
761.78	237.56
762.11	237.42
762.43	237.26
762.76	237.13
763.08	237.01
763.41	236.87
763.74	236.76
764.06	236.63
764.39	236.48
764.71	236.38
765.04	236.22
765.37	236.07
765.69	235.94
766.02	235.81
766.34	235.67
766.67	235.52
767.00	235.43
767.32	235.35
767.65	235.28
767.97	235.14
768.30	235.08
768.62	234.97
768.95	234.83
769.27	234.71
769.60	234.59
769.92	234.49
770.25	234.37
770.57	234.26
770.90	234.14
771.22	234.07
771.55	233.96
771.87	233.89
772.20	233.79
772.52	233.76
772.85	233.84
773.17	233.76
773.50	233.69
773.82	233.61
774.15	233.49
774.47	233.35
774.80	233.31
775.12	233.17
775.45	233.04
775.77	232.99
776.09	232.94
776.42	232.91
776.74	232.86
777.07	232.81
777.39	232.76
777.72	232.71
778.04	232.64
778.36	232.59
778.69	232.53
779.01	232.48
779.33	232.36
779.66	232.14
779.98	232.04
780.31	231.98
780.63	231.96
780.95	231.90
781.28	231.86
781.60	231.75
781.92	231.72
782.25	231.70
782.57	231.65
782.89	231.57
783.22	231.50
783.54	231.40
783.86	231.35
784.19	231.27
784.51	231.23
784.83	231.15
785.16	231.09
785.48	231.03
785.80	231.00
786.12	230.93
786.45	230.87
786.77	230.82
787.09	230.78
787.42	230.69
787.74	230.68
788.06	230.62
788.38	230.62
788.71	230.61
789.03	230.57
789.35	230.54
789.67	230.52
789.99	230.50
790.32	230.46
790.64	230.41
790.96	230.46
791.28	230.38
791.61	230.35
791.93	230.33
792.25	230.28
792.57	230.28
792.89	230.24
793.21	230.22
793.54	230.20
793.86	230.13
794.18	230.05
794.50	229.97
794.82	229.92
795.14	229.87
795.47	229.80
795.79	229.77
796.11	229.67
796.43	229.59
796.75	229.55
797.07	229.55
797.39	229.51
797.71	229.39
798.04	229.36
798.36	229.32
798.68	229.25
799.00	229.23
799.32	229.15
799.64	229.10
799.96	229.11
800.28	229.11
800.60	229.06
800.92	229.08
801.24	229.06
801.56	229.04
801.89	229.00
802.21	228.94
802.53	228.89
802.85	228.90
803.17	228.93
803.49	228.86
803.81	228.79
804.13	228.78
804.45	228.77
804.77	228.76
805.09	228.77
805.41	228.77
805.73	228.74
806.05	228.69
806.37	228.69
806.69	228.65
807.01	228.61
807.33	228.60
807.65	228.56
807.97	228.57
808.28	228.55
808.60	228.51
808.92	228.52
809.24	228.56
809.56	228.53
809.88	228.48
810.20	228.51
810.52	228.49
810.84	228.45
811.16	228.39
811.48	228.38
811.80	228.33
812.12	228.31
812.43	228.30
812.75	228.29
813.07	228.23
813.39	228.23
813.71	228.19
814.03	228.13
814.35	228.07
814.67	228.03
814.98	228.00
815.30	228.00
815.62	227.93
815.94	227.85
816.26	227.85
816.58	227.82
816.89	227.77
817.21	227.73
817.53	227.71
817.85	227.69
818.17	227.66
818.48	227.64
818.80	227.62
819.12	227.59
819.44	227.56
819.76	227.52
820.07	227.48
820.39	227.45
820.71	227.43
821.03	227.44
821.34	227.37
821.66	227.39
821.98	227.40
822.30	227.39
822.61	227.42
822.93	227.38
823.25	227.36
823.57	227.31
823.88	227.33
824.20	227.30
824.52	227.31
824.83	227.28
825.15	227.26
825.47	227.26
825.79	227.25
826.10	227.25
826.42	227.28
826.74	227.29
827.05	227.28
827.37	227.30
827.69	227.28
828.00	227.28
828.32	227.25
828.64	227.21
828.95	227.25
829.27	227.22
829.58	227.21
829.90	227.20
830.22	227.25
830.53	227.21
830.85	227.22
831.17	227.19
831.48	227.17
831.80	227.16
832.11	227.14
832.43	227.12
832.75	227.10
833.06	227.14
833.38	227.07
833.69	227.06
834.01	227.05
834.32	227.02
834.64	227.05
834.96	227.06
835.27	227.04
835.59	226.99
835.90	226.95
836.22	226.94
836.53	226.92
836.85	226.86
837.16	226.97
837.48	226.94
837.79	227.00
838.11	226.99
838.42	227.00
838.74	227.00
839.05	226.96
839.37	226.94
839.68	226.90
840.00	226.91
840.31	226.91
840.63	226.90
840.94	226.90
841.26	226.86
841.57	226.84
841.88	226.85
842.20	226.86
842.51	226.87
842.83	226.84
843.14	226.94
843.46	226.94
843.77	226.87
844.08	226.87
844.40	226.83
844.71	226.82
845.03	226.77
845.34	226.79
845.65	226.81
845.97	226.84
846.28	226.84
846.60	226.83
846.91	226.81
847.22	226.83
847.54	226.84
847.85	226.84
848.16	226.85
848.48	226.81
848.79	226.79
849.10	226.80
849.42	226.79
849.73	226.70
850.04	226.72
850.36	226.67
850.67	226.66
850.98	226.63
851.30	226.63
851.61	226.61
851.92	226.61
852.23	226.63
852.55	226.60
852.86	226.57
853.17	226.59
853.49	226.59
853.80	226.60
854.11	226.60
854.42	226.60
854.74	226.57
855.05	226.56
855.36	226.53
855.67	226.50
855.99	226.53
856.30	226.63
856.61	226.61
856.92	226.62
857.23	226.62
857.55	226.61
857.86	226.60
858.17	226.65
858.48	226.63
858.79	226.59
859.11	226.59
859.42	226.59
859.73	226.55
860.04	226.56
860.35	226.50
860.66	226.46
860.98	226.45
861.29	226.45
861.60	226.45
861.91	226.47
862.22	226.46
862.53	226.43
862.84	226.30
863.16	226.31
863.47	226.29
863.78	226.28
864.09	226.27
864.40	226.27
864.71	226.26
865.02	226.28
865.33	226.27
865.64	226.29
865.95	226.29
866.27	226.35
866.58	226.32
866.89	226.36
867.20	226.38
867.51	226.39
867.82	226.36
868.13	226.37
868.44	226.35
868.75	226.38
869.06	226.39
869.37	226.42
869.68	226.37
869.99	226.37
870.30	226.39
870.61	226.42
870.92	226.42
871.23	226.43
871.54	226.41
871.85	226.41
872.16	226.39
872.47	226.37
872.78	226.32
873.09	226.35
873.40	226.35
873.71	226.37
874.02	226.36
874.33	226.39
874.64	226.38
874.95	226.41
875.26	226.38
875.56	226.37
875.87	226.35
876.18	226.37
876.49	226.45
876.80	226.46
877.11	226.47
877.42	226.47
877.73	226.47
878.04	226.43
878.35	226.45
878.66	226.47
878.96	226.47
879.27	226.46
879.58	226.47
879.89	226.45
880.20	226.47
880.51	226.46
880.82	226.50
881.12	226.51
881.43	226.48
881.74	226.49
882.05	226.47
882.36	226.49
882.67	226.52
882.97	226.43
883.28	226.42
883.59	226.41
883.90	226.42
884.21	226.46
884.51	226.48
884.82	226.45
885.13	226.46
885.44	226.48
885.74	226.52
886.05	226.51
886.36	226.52
886.67	226.50
886.98	226.54
887.28	226.50
887.59	226.50
887.90	226.50
888.20	226.52
888.51	226.54
888.82	226.54
889.13	226.55
889.43	226.61
889.74	226.62
890.05	226.62
890.35	226.59
890.66	226.54
890.97	226.52
891.28	226.53
891.58	226.55
891.89	226.53
892.20	226.50
892.50	226.48
892.81	226.46
893.12	226.43
893.42	226.39
893.73	226.39
894.04	226.37
894.34	226.36
894.65	226.30
894.95	226.29
895.26	226.27
895.57	226.27
895.87	226.19
896.18	226.21
896.48	226.18
896.79	226.16
897.10	226.18
897.40	226.17
897.71	226.15
898.01	226.10
898.32	226.10
898.63	226.08
898.93	226.07
899.24	226.08
899.54	226.06
899.85	226.05
900.15	226.08
900.46	226.11
900.76	226.13
901.07	226.13
901.38	226.10
901.68	226.10
901.99	226.06
902.29	226.09
902.60	226.04
902.90	226.05
903.21	226.05
903.51	226.03
903.82	226.06
904.12	226.06
904.43	226.07
904.73	226.08
905.03	226.10
905.34	226.19
905.64	226.19
905.95	226.18
906.25	226.19
906.56	226.17
906.86	226.11
907.17	226.10
907.47	226.11
907.77	226.13
908.08	226.10
908.38	226.08
908.69	226.06
908.99	226.04
909.30	226.04
909.60	226.02
909.90	226.03
910.21	226.00
910.51	226.00
910.81	225.97
911.12	225.96
911.42	225.92
911.73	225.82
912.03	225.79
912.33	225.81
912.64	225.81
912.94	225.82
913.24	225.83
913.55	225.83
913.85	225.85
914.15	225.86
914.46	225.88
914.76	225.88
915.06	225.88
915.37	225.87
915.67	225.87
915.97	225.88
916.27	225.86
916.58	225.86
916.88	225.83
917.18	225.84
917.49	225.88
917.79	225.93
918.09	225.95
918.39	226.00
918.70	226.00
919.00	226.00
919.30	226.03
919.60	226.02
919.91	226.03
920.21	226.02
920.51	226.03
920.81	226.05
921.12	226.08
921.42	226.11
921.72	226.14
922.02	226.14
922.32	226.17
922.63	226.18
922.93	226.23
923.23	226.27
923.53	226.27
923.83	226.24
924.13	226.25
924.44	226.26
924.74	226.29
925.04	226.31
925.34	226.33
925.64	226.32
925.94	226.35
926.24	226.38
926.55	226.41
926.85	226.42
927.15	226.42
927.45	226.43
927.75	226.40
928.05	226.43
928.35	226.44
928.65	226.46
928.95	226.45
929.26	226.42
929.56	226.43
929.86	226.44
930.16	226.43
930.46	226.40
930.76	226.40
931.06	226.34
931.36	226.30
931.66	226.29
931.96	226.26
932.26	226.26
932.56	226.23
932.86	226.25
933.16	226.23
933.46	226.20
933.76	226.15
934.06	226.14
934.36	226.17
934.66	226.13
934.96	226.13
935.26	226.16
935.56	226.14
935.86	226.12
936.16	226.11
936.46	226.08
936.76	226.07
937.06	226.09
937.36	226.09
937.66	226.10
937.96	226.07
938.26	226.06
938.56	226.05
938.86	226.05
939.16	226.01
939.46	226.01
939.76	226.01
940.06	226.04
940.35	226.03
940.65	225.91
940.95	225.95
941.25	225.91
941.55	225.84
941.85	225.87
942.15	225.87
942.45	225.87
942.75	225.89
943.04	225.90
943.34	225.85
943.64	225.84
943.94	225.81
944.24	225.83
944.54	225.82
944.84	225.80
945.13	225.74
945.43	225.71
945.73	225.70
946.03	225.70
946.33	225.69
946.62	225.69
946.92	225.74
947.22	225.71
947.52	225.71
947.82	225.76
948.11	225.72
948.41	225.71
948.71	225.68
949.01	225.67
949.31	225.65
949.60	225.66
949.90	225.66
950.20	225.67
950.50	225.65
950.79	225.65
951.09	225.65
951.39	225.68
951.69	225.70
951.98	225.69
952.28	225.69
952.58	225.68
952.87	225.67
953.17	225.66
953.47	225.65
953.76	225.67
954.06	225.66
954.36	225.67
954.66	225.64
954.95	225.69
955.25	225.70
955.55	225.72
955.84	225.73
956.14	225.74
956.44	225.78
956.73	225.76
957.03	225.79
957.32	225.80
957.62	225.81
957.92	225.83
958.21	225.84
958.51	225.94
958.81	225.94
959.10	225.98
959.40	226.01
959.69	226.00
959.99	225.99
960.29	225.97
960.58	225.95
960.88	226.02
961.17	225.98
961.47	225.96
961.76	225.96
962.06	225.94
962.36	225.95
962.65	225.95
962.95	225.98
963.24	225.96
963.54	225.95
963.83	225.99
964.13	226.01
964.42	225.99
964.72	225.95
965.01	225.98
965.31	225.96
965.60	225.92
965.90	226.01
966.19	226.04
966.49	226.07
966.78	226.12
967.08	226.09
967.37	226.09
967.67	226.11
967.96	226.11
968.26	226.13
968.55	226.14
968.85	226.14
969.14	226.12
969.43	226.14
969.73	226.16
970.02	226.12
970.32	226.11
970.61	226.10
970.91	226.07
971.20	226.03
971.49	226.01
971.79	226.05
972.08	225.97
972.38	225.97
972.67	225.93
972.96	225.91
973.26	225.92
973.55	225.95
973.85	225.91
974.14	225.90
974.43	225.87
974.73	225.83
975.02	225.81
975.31	225.79
975.61	225.77
975.90	225.75
976.19	225.74
976.49	225.73
976.78	225.72
977.07	225.69
977.37	225.71
977.66	225.72
977.95	225.68
978.24	225.70
978.54	225.71
978.83	225.71
979.12	225.69
979.42	225.69
979.71	225.68
980.00	225.70
980.29	225.70
980.59	225.69
980.88	225.74
981.17	225.70
981.46	225.71
981.76	225.71
982.05	225.70
982.34	225.72
982.63	225.71
982.93	225.72
983.22	225.72
983.51	225.71
983.80	225.76
984.09	225.79
984.39	225.78
984.68	225.77
984.97	225.78
985.26	225.76
985.55	225.76
985.85	225.72
986.14	225.75
986.43	225.78
986.72	225.75
987.01	225.71
987.30	225.75
987.59	225.77
987.89	225.78
988.18	225.79
988.47	225.79
988.76	225.77
989.05	225.78
989.34	225.79
989.63	225.80
989.92	225.80
990.22	225.80
990.51	225.82
990.80	225.82
991.09	225.83
991.38	225.86
991.67	225.86
991.96	225.87
992.25	225.91
992.54	225.90
992.83	225.97
993.12	225.98
993.41	226.01
993.70	226.06
993.99	226.07
994.28	226.09
994.58	226.10
994.87	226.11
995.16	226.13
995.45	226.15
995.74	226.15
996.03	226.14
996.32	226.13
996.61	226.14
996.90	226.14
997.19	226.13
997.48	226.15
997.77	226.16
998.06	226.16
998.34	226.14
998.63	226.13
998.92	226.11
999.21	226.14
999.50	226.12
999.79	226.07
1000.08	226.08
1000.37	226.08
1000.66	226.06
1000.95	226.12
1001.24	226.12
1001.53	226.15
1001.82	226.14
1002.11	226.09
1002.40	226.13
1002.68	226.13
1002.97	226.18
1003.26	226.18
1003.55	226.16
1003.84	226.15
1004.13	226.18
1004.42	226.15
1004.71	226.16
1004.99	226.15
1005.28	226.17
1005.57	226.17
1005.86	226.16
1006.15	226.13
1006.44	226.11
1006.72	226.09
1007.01	226.04
1007.30	226.02
1007.59	225.99
1007.88	225.99
1008.17	225.99
1008.45	225.95
1008.74	225.92
1009.03	225.87
1009.32	225.85
1009.60	225.83
1009.89	225.82
1010.18	225.76
1010.47	225.74
1010.76	225.72
1011.04	225.70
1011.33	225.67
1011.62	225.62
1011.91	225.64
1012.19	225.60
1012.48	225.59
1012.77	225.62
1013.05	225.65
1013.34	225.65
1013.63	225.63
1013.92	225.61
1014.20	225.61
1014.49	225.61
1014.78	225.64
1015.06	225.61
1015.35	225.61
1015.64	225.62
1015.92	225.61
1016.21	225.63
1016.50	225.63
1016.78	225.64
1017.07	225.65
1017.36	225.60
1017.64	225.61
1017.93	225.62
1018.22	225.66
1018.50	225.66
1018.79	225.63
1019.08	225.59
1019.36	225.57
1019.65	225.59
1019.93	225.63
1020.22	225.64
1020.51	225.68
1020.79	225.65
1021.08	225.90
1021.36	225.56
1021.65	225.50
1021.94	225.22
1022.22	225.55
1022.51	225.66
1022.79	226.63
1023.08	225.76
1023.36	226.66
1023.65	225.38
>>>>>End Processed Spectral Data<<<<<
