SpectraSuite Data File
++++++++++++++++++++++++++++++++++++
Date: Fri Feb 01 15:58:38 EST 2013
User: group
Dark Spectrum Present: No
Reference Spectrum Present: No
Number of Sampled Component Spectra: 1
Spectrometers: USB2E7196
Integration Time (usec): 35000 (USB2E7196)
Spectra Averaged: 100 (USB2E7196)
Boxcar Smoothing: 10 (USB2E7196)
Correct for Electrical Dark: No (USB2E7196)
Strobe/Lamp Enabled: No (USB2E7196)
Correct for Detector Non-linearity: No (USB2E7196)
Correct for Stray Light: No (USB2E7196)
Number of Pixels in Processed Spectrum: 2048
>>>>>Begin Processed Spectral Data<<<<<
339.09	0.00
339.48	214.48
339.86	216.57
340.24	216.83
340.63	218.98
341.01	221.34
341.39	221.80
341.78	222.65
342.16	223.87
342.54	224.47
342.93	213.01
343.31	223.79
343.69	224.33
344.07	224.78
344.46	225.21
344.84	225.62
345.22	225.87
345.60	226.10
345.99	226.28
346.37	226.43
346.75	226.52
347.13	226.60
347.52	226.69
347.90	226.79
348.28	226.83
348.66	226.92
349.05	226.91
349.43	226.95
349.81	226.98
350.19	227.03
350.57	227.08
350.96	227.15
351.34	227.26
351.72	227.38
352.10	227.46
352.48	227.56
352.87	227.60
353.25	227.68
353.63	227.76
354.01	227.87
354.39	227.95
354.77	228.06
355.15	228.17
355.54	228.24
355.92	228.24
356.30	228.30
356.68	228.43
357.06	228.50
357.44	228.57
357.82	228.65
358.20	228.75
358.58	228.85
358.97	228.92
359.35	228.96
359.73	229.04
360.11	229.09
360.49	229.17
360.87	229.20
361.25	229.25
361.63	229.31
362.01	229.34
362.39	229.35
362.77	229.37
363.15	229.41
363.53	229.40
363.91	229.42
364.29	229.45
364.67	229.38
365.05	229.39
365.43	229.40
365.81	229.39
366.19	229.41
366.57	229.42
366.95	229.43
367.33	229.40
367.71	229.37
368.09	229.40
368.47	229.36
368.85	229.35
369.23	229.36
369.61	229.31
369.99	229.32
370.37	229.34
370.75	229.31
371.13	229.21
371.51	229.16
371.89	229.13
372.27	229.09
372.65	229.00
373.03	228.93
373.41	228.84
373.78	228.81
374.16	228.69
374.54	228.59
374.92	228.52
375.30	228.44
375.68	228.35
376.06	228.29
376.44	228.22
376.82	228.14
377.19	228.03
377.57	227.94
377.95	227.83
378.33	227.72
378.71	227.59
379.09	227.55
379.47	227.48
379.84	227.39
380.22	227.28
380.60	227.21
380.98	227.12
381.36	227.04
381.73	226.92
382.11	226.88
382.49	226.80
382.87	226.68
383.25	226.62
383.62	226.65
384.00	226.55
384.38	226.47
384.76	226.44
385.13	226.43
385.51	226.38
385.89	226.31
386.27	226.26
386.64	226.27
387.02	226.20
387.40	226.15
387.78	226.15
388.15	226.14
388.53	226.09
388.91	226.10
389.29	226.08
389.66	226.10
390.04	226.08
390.42	226.08
390.79	226.10
391.17	226.10
391.55	226.02
391.92	226.02
392.30	226.02
392.68	225.96
393.05	225.98
393.43	226.01
393.81	226.05
394.18	226.08
394.56	226.10
394.94	226.15
395.31	226.18
395.69	226.21
396.06	226.27
396.44	226.31
396.82	226.34
397.19	226.47
397.57	226.50
397.95	226.59
398.32	226.64
398.70	226.76
399.07	226.85
399.45	226.90
399.82	226.97
400.20	227.06
400.58	227.20
400.95	227.24
401.33	227.32
401.70	227.47
402.08	227.53
402.45	227.65
402.83	227.80
403.20	227.92
403.58	228.05
403.95	228.18
404.33	228.38
404.71	228.50
405.08	228.67
405.46	228.83
405.83	228.94
406.21	229.10
406.58	229.24
406.96	229.42
407.33	229.63
407.70	229.87
408.08	230.16
408.45	230.39
408.83	230.60
409.20	230.84
409.58	231.05
409.95	231.35
410.33	231.61
410.70	231.87
411.08	232.19
411.45	232.49
411.82	232.81
412.20	233.11
412.57	233.57
412.95	233.83
413.32	234.26
413.69	234.66
414.07	235.11
414.44	235.56
414.82	236.04
415.19	236.60
415.56	237.11
415.94	237.67
416.31	238.30
416.68	238.94
417.06	239.67
417.43	240.36
417.81	241.10
418.18	241.88
418.55	242.69
418.93	243.53
419.30	244.41
419.67	245.32
420.04	246.26
420.42	247.19
420.79	248.34
421.16	249.46
421.54	250.64
421.91	251.83
422.28	253.06
422.66	254.38
423.03	255.64
423.40	257.01
423.77	258.36
424.15	259.79
424.52	261.25
424.89	262.82
425.26	264.34
425.64	265.77
426.01	267.30
426.38	268.94
426.75	270.59
427.13	272.31
427.50	274.10
427.87	275.99
428.24	277.86
428.61	279.62
428.99	281.52
429.36	283.61
429.73	285.66
430.10	287.67
430.47	289.69
430.85	291.81
431.22	294.01
431.59	296.37
431.96	298.57
432.33	301.07
432.70	303.43
433.08	306.25
433.45	308.90
433.82	311.51
434.19	314.39
434.56	317.15
434.93	319.78
435.30	322.42
435.68	325.30
436.05	328.12
436.42	330.92
436.79	333.43
437.16	336.09
437.53	338.93
437.90	341.74
438.27	344.47
438.64	347.29
439.01	349.86
439.38	352.10
439.75	354.27
440.13	356.75
440.50	359.10
440.87	360.91
441.24	362.86
441.61	365.04
441.98	366.50
442.35	368.34
442.72	370.21
443.09	371.98
443.46	372.97
443.83	373.57
444.20	374.06
444.57	374.87
444.94	375.16
445.31	375.49
445.68	375.82
446.05	375.88
446.42	375.53
446.79	375.10
447.16	374.59
447.53	374.31
447.90	373.14
448.27	371.96
448.64	370.40
449.01	369.21
449.37	367.21
449.74	365.33
450.11	363.08
450.48	360.61
450.85	358.12
451.22	355.97
451.59	353.96
451.96	352.03
452.33	349.46
452.70	347.17
453.07	344.38
453.43	341.51
453.80	338.79
454.17	336.07
454.54	333.55
454.91	330.89
455.28	328.24
455.65	325.78
456.02	323.36
456.38	321.21
456.75	318.57
457.12	316.38
457.49	314.17
457.86	312.00
458.23	310.18
458.59	308.10
458.96	306.05
459.33	304.20
459.70	302.35
460.07	300.88
460.43	299.15
460.80	297.52
461.17	296.09
461.54	294.56
461.91	293.17
462.27	291.71
462.64	290.44
463.01	289.06
463.38	287.77
463.74	286.40
464.11	285.24
464.48	284.22
464.85	283.10
465.21	282.23
465.58	281.33
465.95	280.19
466.32	279.30
466.68	278.38
467.05	277.44
467.42	276.55
467.78	275.61
468.15	274.71
468.52	274.00
468.88	273.13
469.25	272.39
469.62	271.74
469.98	271.07
470.35	270.47
470.72	269.86
471.08	269.18
471.45	268.63
471.82	268.08
472.18	267.50
472.55	267.04
472.92	266.48
473.28	266.00
473.65	265.57
474.02	265.11
474.38	264.78
474.75	264.46
475.11	264.14
475.48	263.86
475.85	263.62
476.21	263.41
476.58	263.20
476.94	263.02
477.31	262.86
477.67	262.73
478.04	262.60
478.41	262.55
478.77	262.60
479.14	262.54
479.50	262.54
479.87	262.57
480.23	262.65
480.60	262.75
480.96	262.84
481.33	263.06
481.69	263.28
482.06	263.45
482.42	263.66
482.79	263.89
483.15	264.17
483.52	264.54
483.88	264.86
484.25	265.30
484.61	265.76
484.98	266.22
485.34	266.77
485.71	267.34
486.07	267.94
486.44	268.52
486.80	269.23
487.17	269.95
487.53	270.75
487.90	271.61
488.26	272.51
488.62	273.52
488.99	274.48
489.35	275.52
489.72	276.61
490.08	277.85
490.44	279.10
490.81	280.49
491.17	281.85
491.54	283.37
491.90	284.87
492.26	286.52
492.63	288.22
492.99	290.02
493.36	291.94
493.72	293.99
494.08	296.06
494.45	298.37
494.81	300.75
495.17	303.26
495.54	305.83
495.90	308.57
496.26	311.36
496.63	314.33
496.99	317.44
497.35	320.79
497.72	324.18
498.08	327.74
498.44	331.40
498.80	335.35
499.17	339.42
499.53	343.61
499.89	347.96
500.26	352.50
500.62	357.19
500.98	362.17
501.34	367.28
501.71	372.63
502.07	378.03
502.43	383.65
502.79	389.42
503.16	395.56
503.52	401.85
503.88	408.30
504.24	414.98
504.60	421.90
504.97	428.96
505.33	436.31
505.69	444.00
506.05	451.79
506.41	459.66
506.78	467.82
507.14	476.28
507.50	485.06
507.86	494.07
508.22	503.27
508.59	512.47
508.95	522.00
509.31	531.87
509.67	542.05
510.03	552.34
510.39	562.88
510.75	573.65
511.12	584.60
511.48	595.84
511.84	607.24
512.20	618.81
512.56	630.79
512.92	643.01
513.28	655.36
513.64	667.84
514.00	680.58
514.37	693.51
514.73	706.57
515.09	719.60
515.45	733.00
515.81	746.51
516.17	760.51
516.53	774.64
516.89	788.74
517.25	802.83
517.61	817.27
517.97	831.75
518.33	846.15
518.69	860.92
519.05	875.96
519.41	891.16
519.77	906.61
520.13	922.02
520.49	937.33
520.85	952.73
521.21	968.46
521.57	984.68
521.93	1000.42
522.29	1016.77
522.65	1032.89
523.01	1049.01
523.37	1065.06
523.73	1081.16
524.09	1097.14
524.45	1113.47
524.81	1130.12
525.17	1146.93
525.53	1163.82
525.89	1180.69
526.25	1197.41
526.61	1213.78
526.97	1230.48
527.33	1246.88
527.68	1263.47
528.04	1279.92
528.40	1296.52
528.76	1313.48
529.12	1330.09
529.48	1346.95
529.84	1362.99
530.20	1379.61
530.56	1396.62
530.91	1414.14
531.27	1430.86
531.63	1447.38
531.99	1463.86
532.35	1479.76
532.71	1495.64
533.07	1511.97
533.42	1527.79
533.78	1543.85
534.14	1560.08
534.50	1575.42
534.86	1591.30
535.21	1606.34
535.57	1622.16
535.93	1637.66
536.29	1652.41
536.65	1667.37
537.00	1682.10
537.36	1697.29
537.72	1711.74
538.08	1726.07
538.44	1739.65
538.79	1753.47
539.15	1767.13
539.51	1780.91
539.87	1795.17
540.22	1808.80
540.58	1822.33
540.94	1835.69
541.29	1848.53
541.65	1861.20
542.01	1874.32
542.37	1886.59
542.72	1899.15
543.08	1911.02
543.44	1923.27
543.79	1934.53
544.15	1945.43
544.51	1957.02
544.87	1968.02
545.22	1978.99
545.58	1989.21
545.94	1998.90
546.29	2008.83
546.65	2018.61
547.01	2027.75
547.36	2036.49
547.72	2044.97
548.07	2052.84
548.43	2060.88
548.79	2068.94
549.14	2076.44
549.50	2083.72
549.86	2091.40
550.21	2098.65
550.57	2105.70
550.92	2112.17
551.28	2119.14
551.64	2126.28
551.99	2132.77
552.35	2138.94
552.70	2144.97
553.06	2150.91
553.41	2157.35
553.77	2163.35
554.13	2169.53
554.48	2175.87
554.84	2181.32
555.19	2186.55
555.55	2191.86
555.90	2196.40
556.26	2201.16
556.61	2205.89
556.97	2210.21
557.32	2214.32
557.68	2218.50
558.03	2222.86
558.39	2226.73
558.74	2231.49
559.10	2235.35
559.45	2239.11
559.81	2243.38
560.16	2247.28
560.52	2250.52
560.87	2253.87
561.23	2256.50
561.58	2259.44
561.94	2261.76
562.29	2264.21
562.64	2266.87
563.00	2269.39
563.35	2272.97
563.71	2276.17
564.06	2279.36
564.42	2282.21
564.77	2284.63
565.12	2286.86
565.48	2288.62
565.83	2290.42
566.19	2291.60
566.54	2292.45
566.89	2293.47
567.25	2293.99
567.60	2295.30
567.96	2296.94
568.31	2297.88
568.66	2299.01
569.02	2299.54
569.37	2299.97
569.72	2300.76
570.08	2300.87
570.43	2300.98
570.78	2300.37
571.14	2298.79
571.49	2297.41
571.84	2297.30
572.20	2296.29
572.55	2295.35
572.90	2294.01
573.26	2292.74
573.61	2291.27
573.96	2289.56
574.31	2286.67
574.67	2283.71
575.02	2279.98
575.37	2276.64
575.72	2272.77
576.08	2269.42
576.43	2266.16
576.78	2262.46
577.13	2259.35
577.49	2256.35
577.84	2252.71
578.19	2248.96
578.54	2245.44
578.90	2241.21
579.25	2235.52
579.60	2230.52
579.95	2225.36
580.30	2220.26
580.66	2215.03
581.01	2210.06
581.36	2205.08
581.71	2200.88
582.06	2196.28
582.42	2191.97
582.77	2186.72
583.12	2182.16
583.47	2177.42
583.82	2172.31
584.17	2167.13
584.53	2161.54
584.88	2155.93
585.23	2150.26
585.58	2144.72
585.93	2139.30
586.28	2134.53
586.63	2129.54
586.98	2124.52
587.34	2119.74
587.69	2114.85
588.04	2109.49
588.39	2103.71
588.74	2097.35
589.09	2091.17
589.44	2084.54
589.79	2078.65
590.14	2073.26
590.49	2066.75
590.84	2060.51
591.19	2054.66
591.54	2048.17
591.89	2040.76
592.25	2033.94
592.60	2026.78
592.95	2019.29
593.30	2011.82
593.65	2004.36
594.00	1997.22
594.35	1989.99
594.70	1982.12
595.05	1974.85
595.40	1967.77
595.75	1960.25
596.10	1953.93
596.45	1947.22
596.80	1941.02
597.15	1934.22
597.50	1926.88
597.85	1920.51
598.19	1913.79
598.54	1906.42
598.89	1899.72
599.24	1893.97
599.59	1887.23
599.94	1881.00
600.29	1874.82
600.64	1868.38
600.99	1860.95
601.34	1854.18
601.69	1847.21
602.04	1840.33
602.39	1833.12
602.74	1826.14
603.08	1819.34
603.43	1812.75
603.78	1805.38
604.13	1798.21
604.48	1790.92
604.83	1784.15
605.18	1777.07
605.53	1769.12
605.87	1761.26
606.22	1754.15
606.57	1746.18
606.92	1738.98
607.27	1731.78
607.62	1724.75
607.96	1717.35
608.31	1710.71
608.66	1703.05
609.01	1695.42
609.36	1687.88
609.70	1679.71
610.05	1671.67
610.40	1664.04
610.75	1655.66
611.10	1647.97
611.44	1639.54
611.79	1631.58
612.14	1622.83
612.49	1613.71
612.83	1605.33
613.18	1597.31
613.53	1589.15
613.88	1580.59
614.22	1572.21
614.57	1563.70
614.92	1555.54
615.27	1548.00
615.61	1539.61
615.96	1531.56
616.31	1524.00
616.65	1516.59
617.00	1509.10
617.35	1501.47
617.70	1493.03
618.04	1484.55
618.39	1476.35
618.74	1468.75
619.08	1460.45
619.43	1452.78
619.78	1445.88
620.12	1438.60
620.47	1430.97
620.82	1422.81
621.16	1415.46
621.51	1407.94
621.85	1400.21
622.20	1391.64
622.55	1383.34
622.89	1375.45
623.24	1367.99
623.59	1360.68
623.93	1353.15
624.28	1345.93
624.62	1338.39
624.97	1331.34
625.32	1324.62
625.66	1317.65
626.01	1310.52
626.35	1303.03
626.70	1295.40
627.04	1287.72
627.39	1280.05
627.73	1272.72
628.08	1265.86
628.43	1258.48
628.77	1251.04
629.12	1243.51
629.46	1236.46
629.81	1229.00
630.15	1221.88
630.50	1214.35
630.84	1206.07
631.19	1198.19
631.53	1190.63
631.88	1183.07
632.22	1175.52
632.57	1168.16
632.91	1160.63
633.26	1153.17
633.60	1145.90
633.95	1138.85
634.29	1131.81
634.64	1125.15
634.98	1117.74
635.32	1110.57
635.67	1104.05
636.01	1097.37
636.36	1090.51
636.70	1084.04
637.05	1077.45
637.39	1070.99
637.73	1064.47
638.08	1058.61
638.42	1052.56
638.77	1046.17
639.11	1039.62
639.45	1033.14
639.80	1026.43
640.14	1019.99
640.49	1013.48
640.83	1007.06
641.17	1000.67
641.52	994.26
641.86	987.76
642.20	981.80
642.55	975.45
642.89	968.87
643.23	962.42
643.58	956.66
643.92	950.44
644.26	944.35
644.61	938.37
644.95	932.36
645.29	925.77
645.64	919.03
645.98	912.62
646.32	906.83
646.66	900.86
647.01	895.12
647.35	889.44
647.69	883.59
648.04	878.15
648.38	872.45
648.72	866.44
649.06	860.41
649.41	854.63
649.75	848.63
650.09	842.70
650.43	836.86
650.78	830.78
651.12	824.82
651.46	819.04
651.80	813.22
652.14	807.81
652.49	802.36
652.83	797.24
653.17	791.56
653.51	785.76
653.85	780.35
654.20	774.69
654.54	768.65
654.88	762.92
655.22	756.99
655.56	751.26
655.90	745.83
656.25	740.61
656.59	735.22
656.93	730.07
657.27	725.00
657.61	719.60
657.95	714.48
658.29	709.38
658.64	704.27
658.98	698.96
659.32	693.45
659.66	688.33
660.00	682.90
660.34	677.95
660.68	673.10
661.02	668.00
661.36	663.25
661.70	658.70
662.05	654.33
662.39	649.97
662.73	645.57
663.07	641.19
663.41	636.69
663.75	632.18
664.09	627.69
664.43	623.23
664.77	619.12
665.11	614.87
665.45	610.76
665.79	606.61
666.13	602.47
666.47	598.44
666.81	594.27
667.15	590.21
667.49	586.36
667.83	582.56
668.17	578.63
668.51	574.58
668.85	570.57
669.19	566.77
669.53	562.96
669.87	559.05
670.21	555.33
670.55	551.68
670.89	548.26
671.23	544.84
671.57	541.42
671.91	537.85
672.25	534.30
672.58	530.69
672.92	527.33
673.26	524.15
673.60	520.97
673.94	517.89
674.28	515.05
674.62	512.14
674.96	509.00
675.30	506.12
675.64	503.22
675.97	500.44
676.31	497.53
676.65	494.54
676.99	491.84
677.33	488.95
677.67	486.11
678.01	483.10
678.34	480.07
678.68	477.11
679.02	474.23
679.36	471.51
679.70	468.90
680.04	466.11
680.37	463.24
680.71	460.51
681.05	457.90
681.39	455.11
681.73	452.41
682.06	449.84
682.40	447.28
682.74	444.75
683.08	442.22
683.42	439.59
683.75	437.16
684.09	434.63
684.43	432.22
684.77	429.82
685.10	427.45
685.44	425.15
685.78	422.88
686.12	420.68
686.45	418.39
686.79	416.02
687.13	413.80
687.46	411.65
687.80	409.45
688.14	407.21
688.48	405.18
688.81	402.90
689.15	400.78
689.49	398.60
689.82	396.50
690.16	394.36
690.50	392.44
690.83	390.49
691.17	388.49
691.51	386.52
691.84	384.62
692.18	382.68
692.52	380.69
692.85	378.81
693.19	376.90
693.52	375.07
693.86	373.26
694.20	371.52
694.53	369.69
694.87	367.83
695.21	366.04
695.54	364.19
695.88	362.51
696.21	360.75
696.55	359.08
696.88	357.42
697.22	355.82
697.56	354.16
697.89	352.50
698.23	350.87
698.56	349.28
698.90	347.71
699.23	346.10
699.57	344.59
699.90	343.01
700.24	341.52
700.58	339.97
700.91	338.48
701.25	337.00
701.58	335.64
701.92	334.29
702.25	332.87
702.59	331.50
702.92	330.16
703.26	328.90
703.59	327.66
703.93	326.44
704.26	325.19
704.60	323.93
704.93	322.65
705.26	321.43
705.60	320.26
705.93	319.11
706.27	318.07
706.60	316.97
706.94	315.84
707.27	314.68
707.61	313.63
707.94	312.63
708.27	311.53
708.61	310.46
708.94	309.46
709.28	308.48
709.61	307.52
709.94	306.59
710.28	305.60
710.61	304.59
710.95	303.53
711.28	302.64
711.61	301.74
711.95	300.84
712.28	299.88
712.61	298.88
712.95	297.97
713.28	297.11
713.61	296.22
713.95	295.35
714.28	294.51
714.61	293.65
714.95	292.81
715.28	291.96
715.61	291.09
715.95	290.24
716.28	289.39
716.61	288.59
716.95	287.79
717.28	287.04
717.61	286.25
717.94	285.51
718.28	284.70
718.61	283.96
718.94	283.23
719.27	282.60
719.61	281.98
719.94	281.31
720.27	280.58
720.60	279.92
720.94	279.31
721.27	278.71
721.60	278.10
721.93	277.48
722.27	276.96
722.60	276.40
722.93	275.82
723.26	275.32
723.59	274.71
723.93	274.11
724.26	273.53
724.59	272.99
724.92	272.46
725.25	271.96
725.59	271.42
725.92	270.94
726.25	270.39
726.58	269.88
726.91	269.39
727.24	268.88
727.57	268.41
727.91	267.90
728.24	267.47
728.57	266.98
728.90	266.50
729.23	266.00
729.56	265.54
729.89	265.09
730.22	264.57
730.55	264.14
730.89	263.75
731.22	263.30
731.55	262.86
731.88	262.46
732.21	261.98
732.54	261.54
732.87	261.09
733.20	260.75
733.53	260.37
733.86	260.00
734.19	259.64
734.52	259.26
734.85	258.95
735.18	258.51
735.51	258.22
735.84	257.83
736.17	257.44
736.50	257.05
736.83	256.85
737.16	256.53
737.49	256.23
737.82	255.82
738.15	255.53
738.48	255.21
738.81	254.88
739.14	254.56
739.47	254.23
739.80	253.95
740.13	253.63
740.46	253.29
740.79	252.94
741.12	252.63
741.45	252.30
741.78	251.94
742.11	251.65
742.44	251.31
742.77	251.05
743.10	250.78
743.43	250.52
743.75	250.10
744.08	249.96
744.41	249.67
744.74	249.42
745.07	249.12
745.40	248.90
745.73	248.65
746.06	248.38
746.39	248.16
746.71	247.89
747.04	247.60
747.37	247.34
747.70	247.10
748.03	246.86
748.36	246.68
748.68	246.44
749.01	246.20
749.34	245.97
749.67	245.74
750.00	245.53
750.33	245.33
750.65	245.12
750.98	244.76
751.31	244.55
751.64	244.37
751.97	244.19
752.29	243.94
752.62	243.71
752.95	243.53
753.28	243.32
753.60	243.12
753.93	242.97
754.26	242.81
754.59	242.61
754.91	242.40
755.24	242.17
755.57	241.99
755.90	241.80
756.22	241.63
756.55	241.47
756.88	241.25
757.20	241.03
757.53	240.84
757.86	240.67
758.19	240.50
758.51	240.32
758.84	240.16
759.17	239.96
759.49	239.82
759.82	239.71
760.15	239.55
760.47	239.39
760.80	239.19
761.13	239.01
761.45	238.87
761.78	238.71
762.11	238.57
762.43	238.44
762.76	238.28
763.08	238.14
763.41	237.99
763.74	237.85
764.06	237.69
764.39	237.58
764.71	237.45
765.04	237.29
765.37	237.15
765.69	237.01
766.02	236.91
766.34	236.77
766.67	236.59
767.00	236.49
767.32	236.42
767.65	236.40
767.97	236.29
768.30	236.22
768.62	236.10
768.95	235.97
769.27	235.87
769.60	235.80
769.92	235.68
770.25	235.55
770.57	235.47
770.90	235.39
771.22	235.25
771.55	235.15
771.87	235.09
772.20	235.01
772.52	234.97
772.85	234.98
773.17	234.87
773.50	234.76
773.82	234.67
774.15	234.55
774.47	234.40
774.80	234.30
775.12	234.19
775.45	234.15
775.77	234.07
776.09	233.96
776.42	233.88
776.74	233.83
777.07	233.76
777.39	233.67
777.72	233.57
778.04	233.54
778.36	233.47
778.69	233.37
779.01	233.28
779.33	233.15
779.66	233.00
779.98	232.91
780.31	232.85
780.63	232.80
780.95	232.75
781.28	232.66
781.60	232.58
781.92	232.52
782.25	232.44
782.57	232.40
782.89	232.35
783.22	232.24
783.54	232.16
783.86	232.12
784.19	232.04
784.51	232.03
784.83	231.95
785.16	231.89
785.48	231.85
785.80	231.83
786.12	231.80
786.45	231.72
786.77	231.69
787.09	231.68
787.42	231.61
787.74	231.56
788.06	231.52
788.38	231.50
788.71	231.43
789.03	231.38
789.35	231.34
789.67	231.30
789.99	231.31
790.32	231.27
790.64	231.21
790.96	231.24
791.28	231.20
791.61	231.17
791.93	231.13
792.25	231.06
792.57	231.09
792.89	231.01
793.21	231.00
793.54	230.96
793.86	230.86
794.18	230.83
794.50	230.76
794.82	230.73
795.14	230.67
795.47	230.66
795.79	230.64
796.11	230.57
796.43	230.52
796.75	230.47
797.07	230.42
797.39	230.38
797.71	230.31
798.04	230.24
798.36	230.21
798.68	230.19
799.00	230.19
799.32	230.09
799.64	230.08
799.96	230.03
800.28	230.03
800.60	230.03
800.92	229.99
801.24	229.96
801.56	229.92
801.89	229.87
802.21	229.84
802.53	229.78
802.85	229.79
803.17	229.80
803.49	229.77
803.81	229.72
804.13	229.70
804.45	229.66
804.77	229.66
805.09	229.62
805.41	229.58
805.73	229.52
806.05	229.47
806.37	229.42
806.69	229.39
807.01	229.33
807.33	229.30
807.65	229.27
807.97	229.31
808.28	229.28
808.60	229.22
808.92	229.18
809.24	229.21
809.56	229.17
809.88	229.10
810.20	229.09
810.52	229.10
810.84	229.06
811.16	229.00
811.48	228.96
811.80	228.95
812.12	228.93
812.43	228.95
812.75	228.93
813.07	228.90
813.39	228.88
813.71	228.87
814.03	228.84
814.35	228.79
814.67	228.72
814.98	228.71
815.30	228.73
815.62	228.68
815.94	228.61
816.26	228.64
816.58	228.60
816.89	228.56
817.21	228.50
817.53	228.50
817.85	228.50
818.17	228.49
818.48	228.44
818.80	228.42
819.12	228.36
819.44	228.34
819.76	228.32
820.07	228.33
820.39	228.31
820.71	228.32
821.03	228.32
821.34	228.29
821.66	228.29
821.98	228.28
822.30	228.27
822.61	228.34
822.93	228.28
823.25	228.30
823.57	228.28
823.88	228.30
824.20	228.28
824.52	228.31
824.83	228.29
825.15	228.30
825.47	228.27
825.79	228.27
826.10	228.25
826.42	228.22
826.74	228.18
827.05	228.18
827.37	228.16
827.69	228.14
828.00	228.15
828.32	228.12
828.64	228.09
828.95	228.18
829.27	228.09
829.58	228.08
829.90	228.06
830.22	228.09
830.53	228.07
830.85	228.04
831.17	227.97
831.48	227.96
831.80	227.98
832.11	227.99
832.43	227.97
832.75	227.99
833.06	228.05
833.38	228.04
833.69	228.03
834.01	228.04
834.32	228.04
834.64	228.02
834.96	228.02
835.27	228.01
835.59	227.94
835.90	227.95
836.22	227.91
836.53	227.87
836.85	227.83
837.16	227.92
837.48	227.94
837.79	227.99
838.11	228.01
838.42	228.00
838.74	228.02
839.05	228.03
839.37	228.00
839.68	227.94
840.00	227.90
840.31	227.91
840.63	227.87
840.94	227.85
841.26	227.84
841.57	227.84
841.88	227.85
842.20	227.81
842.51	227.80
842.83	227.81
843.14	227.88
843.46	227.87
843.77	227.79
844.08	227.76
844.40	227.72
844.71	227.66
845.03	227.67
845.34	227.61
845.65	227.58
845.97	227.56
846.28	227.56
846.60	227.57
846.91	227.54
847.22	227.54
847.54	227.52
847.85	227.52
848.16	227.52
848.48	227.51
848.79	227.55
849.10	227.52
849.42	227.51
849.73	227.48
850.04	227.47
850.36	227.44
850.67	227.46
850.98	227.45
851.30	227.47
851.61	227.40
851.92	227.41
852.23	227.43
852.55	227.43
852.86	227.42
853.17	227.42
853.49	227.43
853.80	227.45
854.11	227.45
854.42	227.45
854.74	227.44
855.05	227.41
855.36	227.37
855.67	227.38
855.99	227.36
856.30	227.44
856.61	227.44
856.92	227.44
857.23	227.45
857.55	227.43
857.86	227.43
858.17	227.48
858.48	227.46
858.79	227.42
859.11	227.45
859.42	227.46
859.73	227.46
860.04	227.49
860.35	227.45
860.66	227.43
860.98	227.43
861.29	227.40
861.60	227.39
861.91	227.44
862.22	227.44
862.53	227.46
862.84	227.36
863.16	227.36
863.47	227.35
863.78	227.31
864.09	227.33
864.40	227.29
864.71	227.26
865.02	227.28
865.33	227.29
865.64	227.27
865.95	227.24
866.27	227.28
866.58	227.21
866.89	227.23
867.20	227.22
867.51	227.19
867.82	227.21
868.13	227.26
868.44	227.23
868.75	227.23
869.06	227.22
869.37	227.22
869.68	227.21
869.99	227.22
870.30	227.22
870.61	227.21
870.92	227.23
871.23	227.24
871.54	227.25
871.85	227.24
872.16	227.22
872.47	227.23
872.78	227.20
873.09	227.24
873.40	227.21
873.71	227.22
874.02	227.21
874.33	227.17
874.64	227.12
874.95	227.14
875.26	227.10
875.56	227.09
875.87	227.08
876.18	227.06
876.49	227.15
876.80	227.16
877.11	227.17
877.42	227.14
877.73	227.14
878.04	227.12
878.35	227.16
878.66	227.19
878.96	227.16
879.27	227.14
879.58	227.15
879.89	227.12
880.20	227.14
880.51	227.17
880.82	227.19
881.12	227.19
881.43	227.13
881.74	227.13
882.05	227.11
882.36	227.09
882.67	227.10
882.97	227.01
883.28	226.97
883.59	226.95
883.90	226.97
884.21	226.98
884.51	226.98
884.82	226.92
885.13	226.92
885.44	226.94
885.74	226.93
886.05	226.89
886.36	226.92
886.67	226.88
886.98	226.91
887.28	226.88
887.59	226.90
887.90	226.91
888.20	226.92
888.51	226.96
888.82	226.99
889.13	227.00
889.43	227.08
889.74	227.10
890.05	227.10
890.35	227.08
890.66	227.07
890.97	227.06
891.28	227.06
891.58	227.04
891.89	227.07
892.20	227.08
892.50	227.10
892.81	227.11
893.12	227.13
893.42	227.07
893.73	227.08
894.04	227.10
894.34	227.13
894.65	227.12
894.95	227.10
895.26	227.08
895.57	227.11
895.87	227.02
896.18	227.05
896.48	227.06
896.79	227.06
897.10	227.09
897.40	227.09
897.71	227.07
898.01	227.07
898.32	227.04
898.63	227.02
898.93	227.03
899.24	227.03
899.54	227.02
899.85	227.04
900.15	227.07
900.46	227.06
900.76	227.04
901.07	227.04
901.38	227.02
901.68	227.05
901.99	227.00
902.29	226.98
902.60	226.98
902.90	226.98
903.21	226.97
903.51	226.94
903.82	226.95
904.12	226.97
904.43	226.95
904.73	226.95
905.03	226.97
905.34	227.03
905.64	227.01
905.95	227.00
906.25	226.96
906.56	226.96
906.86	226.95
907.17	226.94
907.47	226.93
907.77	226.94
908.08	226.88
908.38	226.88
908.69	226.87
908.99	226.92
909.30	226.91
909.60	226.92
909.90	226.93
910.21	226.88
910.51	226.88
910.81	226.90
911.12	226.91
911.42	226.92
911.73	226.86
912.03	226.85
912.33	226.88
912.64	226.89
912.94	226.87
913.24	226.83
913.55	226.84
913.85	226.86
914.15	226.86
914.46	226.89
914.76	226.91
915.06	226.93
915.37	226.87
915.67	226.85
915.97	226.87
916.27	226.84
916.58	226.89
916.88	226.90
917.18	226.89
917.49	226.95
917.79	226.92
918.09	226.91
918.39	226.92
918.70	226.89
919.00	226.89
919.30	226.93
919.60	226.96
919.91	226.93
920.21	226.92
920.51	226.92
920.81	226.91
921.12	226.88
921.42	226.89
921.72	226.89
922.02	226.93
922.32	226.93
922.63	226.96
922.93	226.97
923.23	226.97
923.53	226.93
923.83	226.86
924.13	226.90
924.44	226.86
924.74	226.90
925.04	226.95
925.34	226.94
925.64	226.91
925.94	226.92
926.24	226.98
926.55	227.00
926.85	227.00
927.15	227.05
927.45	227.06
927.75	227.04
928.05	227.07
928.35	227.02
928.65	227.03
928.95	227.04
929.26	227.01
929.56	227.01
929.86	227.04
930.16	227.02
930.46	227.00
930.76	227.04
931.06	227.00
931.36	226.94
931.66	226.99
931.96	227.01
932.26	227.01
932.56	226.99
932.86	226.96
933.16	226.98
933.46	226.92
933.76	226.91
934.06	226.90
934.36	226.91
934.66	226.91
934.96	226.90
935.26	226.88
935.56	226.91
935.86	226.88
936.16	226.88
936.46	226.88
936.76	226.87
937.06	226.86
937.36	226.88
937.66	226.92
937.96	226.87
938.26	226.84
938.56	226.82
938.86	226.78
939.16	226.79
939.46	226.77
939.76	226.81
940.06	226.79
940.35	226.80
940.65	226.74
940.95	226.77
941.25	226.75
941.55	226.73
941.85	226.73
942.15	226.78
942.45	226.79
942.75	226.82
943.04	226.80
943.34	226.79
943.64	226.75
943.94	226.70
944.24	226.75
944.54	226.77
944.84	226.74
945.13	226.70
945.43	226.67
945.73	226.67
946.03	226.65
946.33	226.68
946.62	226.65
946.92	226.65
947.22	226.65
947.52	226.63
947.82	226.64
948.11	226.60
948.41	226.53
948.71	226.51
949.01	226.49
949.31	226.49
949.60	226.49
949.90	226.52
950.20	226.55
950.50	226.50
950.79	226.48
951.09	226.49
951.39	226.48
951.69	226.51
951.98	226.52
952.28	226.53
952.58	226.48
952.87	226.48
953.17	226.49
953.47	226.48
953.76	226.48
954.06	226.46
954.36	226.45
954.66	226.46
954.95	226.48
955.25	226.50
955.55	226.51
955.84	226.44
956.14	226.45
956.44	226.46
956.73	226.47
957.03	226.45
957.32	226.43
957.62	226.43
957.92	226.42
958.21	226.40
958.51	226.50
958.81	226.54
959.10	226.56
959.40	226.56
959.69	226.54
959.99	226.55
960.29	226.56
960.58	226.57
960.88	226.63
961.17	226.63
961.47	226.63
961.76	226.61
962.06	226.68
962.36	226.63
962.65	226.65
962.95	226.63
963.24	226.61
963.54	226.64
963.83	226.71
964.13	226.72
964.42	226.74
964.72	226.67
965.01	226.68
965.31	226.66
965.60	226.68
965.90	226.77
966.19	226.77
966.49	226.80
966.78	226.80
967.08	226.79
967.37	226.80
967.67	226.78
967.96	226.80
968.26	226.83
968.55	226.84
968.85	226.82
969.14	226.83
969.43	226.91
969.73	226.90
970.02	226.87
970.32	226.87
970.61	226.86
970.91	226.83
971.20	226.80
971.49	226.82
971.79	226.78
972.08	226.70
972.38	226.73
972.67	226.69
972.96	226.71
973.26	226.68
973.55	226.68
973.85	226.68
974.14	226.71
974.43	226.66
974.73	226.68
975.02	226.69
975.31	226.69
975.61	226.67
975.90	226.65
976.19	226.65
976.49	226.64
976.78	226.64
977.07	226.67
977.37	226.67
977.66	226.67
977.95	226.67
978.24	226.68
978.54	226.65
978.83	226.63
979.12	226.65
979.42	226.66
979.71	226.65
980.00	226.66
980.29	226.61
980.59	226.62
980.88	226.63
981.17	226.58
981.46	226.57
981.76	226.55
982.05	226.59
982.34	226.58
982.63	226.58
982.93	226.57
983.22	226.54
983.51	226.56
983.80	226.56
984.09	226.56
984.39	226.53
984.68	226.54
984.97	226.55
985.26	226.53
985.55	226.49
985.85	226.45
986.14	226.47
986.43	226.46
986.72	226.45
987.01	226.39
987.30	226.42
987.59	226.42
987.89	226.41
988.18	226.38
988.47	226.40
988.76	226.39
989.05	226.39
989.34	226.36
989.63	226.38
989.92	226.35
990.22	226.32
990.51	226.34
990.80	226.33
991.09	226.35
991.38	226.37
991.67	226.40
991.96	226.41
992.25	226.42
992.54	226.44
992.83	226.45
993.12	226.50
993.41	226.52
993.70	226.56
993.99	226.61
994.28	226.59
994.58	226.63
994.87	226.63
995.16	226.62
995.45	226.65
995.74	226.63
996.03	226.65
996.32	226.69
996.61	226.72
996.90	226.72
997.19	226.71
997.48	226.69
997.77	226.70
998.06	226.73
998.34	226.70
998.63	226.72
998.92	226.71
999.21	226.70
999.50	226.70
999.79	226.65
1000.08	226.62
1000.37	226.65
1000.66	226.60
1000.95	226.62
1001.24	226.65
1001.53	226.67
1001.82	226.67
1002.11	226.68
1002.40	226.67
1002.68	226.69
1002.97	226.79
1003.26	226.79
1003.55	226.78
1003.84	226.78
1004.13	226.78
1004.42	226.80
1004.71	226.79
1004.99	226.81
1005.28	226.82
1005.57	226.80
1005.86	226.82
1006.15	226.83
1006.44	226.83
1006.72	226.85
1007.01	226.82
1007.30	226.82
1007.59	226.79
1007.88	226.80
1008.17	226.78
1008.45	226.78
1008.74	226.75
1009.03	226.67
1009.32	226.68
1009.60	226.68
1009.89	226.69
1010.18	226.68
1010.47	226.67
1010.76	226.64
1011.04	226.61
1011.33	226.63
1011.62	226.65
1011.91	226.66
1012.19	226.68
1012.48	226.67
1012.77	226.69
1013.05	226.75
1013.34	226.74
1013.63	226.76
1013.92	226.76
1014.20	226.75
1014.49	226.74
1014.78	226.74
1015.06	226.71
1015.35	226.71
1015.64	226.71
1015.92	226.73
1016.21	226.73
1016.50	226.70
1016.78	226.71
1017.07	226.70
1017.36	226.68
1017.64	226.64
1017.93	226.61
1018.22	226.56
1018.50	226.54
1018.79	226.51
1019.08	226.49
1019.36	226.49
1019.65	226.44
1019.93	226.46
1020.22	226.49
1020.51	226.52
1020.79	226.48
1021.08	225.96
1021.36	226.12
1021.65	226.47
1021.94	227.14
1022.22	226.70
1022.51	226.04
1022.79	226.75
1023.08	227.00
1023.36	227.29
1023.65	226.16
>>>>>End Processed Spectral Data<<<<<
