SpectraSuite Data File
++++++++++++++++++++++++++++++++++++
Date: Fri Feb 01 15:58:05 EST 2013
User: group
Dark Spectrum Present: No
Reference Spectrum Present: No
Number of Sampled Component Spectra: 1
Spectrometers: USB2E7196
Integration Time (usec): 35000 (USB2E7196)
Spectra Averaged: 100 (USB2E7196)
Boxcar Smoothing: 10 (USB2E7196)
Correct for Electrical Dark: No (USB2E7196)
Strobe/Lamp Enabled: No (USB2E7196)
Correct for Detector Non-linearity: No (USB2E7196)
Correct for Stray Light: No (USB2E7196)
Number of Pixels in Processed Spectrum: 2048
>>>>>Begin Processed Spectral Data<<<<<
339.09	0.00
339.48	215.02
339.86	216.76
340.24	217.41
340.63	219.77
341.01	222.24
341.39	222.03
341.78	223.06
342.16	224.26
342.54	225.32
342.93	213.20
343.31	223.96
343.69	224.51
344.07	224.93
344.46	225.39
344.84	225.73
345.22	225.94
345.60	226.19
345.99	226.37
346.37	226.52
346.75	226.57
347.13	226.65
347.52	226.71
347.90	226.77
348.28	226.83
348.66	226.85
349.05	226.88
349.43	226.95
349.81	226.97
350.19	227.01
350.57	227.07
350.96	227.14
351.34	227.19
351.72	227.23
352.10	227.34
352.48	227.40
352.87	227.48
353.25	227.54
353.63	227.56
354.01	227.64
354.39	227.69
354.77	227.76
355.15	227.86
355.54	227.89
355.92	227.93
356.30	227.97
356.68	228.13
357.06	228.19
357.44	228.23
357.82	228.31
358.20	228.38
358.58	228.45
358.97	228.54
359.35	228.66
359.73	228.74
360.11	228.80
360.49	228.83
360.87	228.86
361.25	228.91
361.63	229.01
362.01	229.04
362.39	229.07
362.77	229.13
363.15	229.17
363.53	229.23
363.91	229.27
364.29	229.31
364.67	229.19
365.05	229.20
365.43	229.20
365.81	229.22
366.19	229.27
366.57	229.30
366.95	229.25
367.33	229.21
367.71	229.20
368.09	229.20
368.47	229.22
368.85	229.20
369.23	229.21
369.61	229.16
369.99	229.14
370.37	229.12
370.75	229.15
371.13	229.06
371.51	228.99
371.89	228.97
372.27	228.94
372.65	228.94
373.03	228.89
373.41	228.82
373.78	228.79
374.16	228.67
374.54	228.59
374.92	228.56
375.30	228.51
375.68	228.45
376.06	228.38
376.44	228.30
376.82	228.25
377.19	228.17
377.57	228.10
377.95	228.01
378.33	227.91
378.71	227.79
379.09	227.77
379.47	227.73
379.84	227.63
380.22	227.56
380.60	227.47
380.98	227.41
381.36	227.36
381.73	227.25
382.11	227.23
382.49	227.16
382.87	227.10
383.25	227.03
383.62	227.09
384.00	227.04
384.38	226.99
384.76	226.93
385.13	226.89
385.51	226.83
385.89	226.77
386.27	226.76
386.64	226.75
387.02	226.70
387.40	226.65
387.78	226.61
388.15	226.56
388.53	226.51
388.91	226.48
389.29	226.44
389.66	226.44
390.04	226.42
390.42	226.41
390.79	226.41
391.17	226.40
391.55	226.25
391.92	226.23
392.30	226.24
392.68	226.23
393.05	226.25
393.43	226.24
393.81	226.26
394.18	226.26
394.56	226.26
394.94	226.26
395.31	226.27
395.69	226.31
396.06	226.35
396.44	226.42
396.82	226.45
397.19	226.55
397.57	226.60
397.95	226.64
398.32	226.65
398.70	226.68
399.07	226.76
399.45	226.85
399.82	226.93
400.20	226.97
400.58	227.07
400.95	227.10
401.33	227.24
401.70	227.40
402.08	227.47
402.45	227.55
402.83	227.69
403.20	227.81
403.58	227.96
403.95	228.08
404.33	228.18
404.71	228.30
405.08	228.46
405.46	228.57
405.83	228.68
406.21	228.85
406.58	229.02
406.96	229.18
407.33	229.34
407.70	229.53
408.08	229.81
408.45	230.00
408.83	230.22
409.20	230.44
409.58	230.61
409.95	230.91
410.33	231.16
410.70	231.41
411.08	231.71
411.45	231.97
411.82	232.31
412.20	232.68
412.57	233.10
412.95	233.41
413.32	233.83
413.69	234.26
414.07	234.71
414.44	235.16
414.82	235.66
415.19	236.23
415.56	236.79
415.94	237.32
416.31	237.93
416.68	238.58
417.06	239.27
417.43	239.96
417.81	240.71
418.18	241.51
418.55	242.34
418.93	243.22
419.30	244.15
419.67	245.03
420.04	245.98
420.42	246.96
420.79	248.15
421.16	249.32
421.54	250.50
421.91	251.71
422.28	253.00
422.66	254.32
423.03	255.61
423.40	256.95
423.77	258.35
424.15	259.78
424.52	261.24
424.89	262.85
425.26	264.41
425.64	265.84
426.01	267.46
426.38	269.09
426.75	270.77
427.13	272.50
427.50	274.34
427.87	276.24
428.24	278.12
428.61	279.84
428.99	281.77
429.36	283.88
429.73	285.97
430.10	287.96
430.47	290.02
430.85	292.09
431.22	294.29
431.59	296.67
431.96	298.91
432.33	301.43
432.70	303.80
433.08	306.60
433.45	309.25
433.82	311.84
434.19	314.70
434.56	317.48
434.93	320.12
435.30	322.72
435.68	325.58
436.05	328.39
436.42	331.15
436.79	333.65
437.16	336.29
437.53	339.04
437.90	341.85
438.27	344.62
438.64	347.47
439.01	350.07
439.38	352.28
439.75	354.45
440.13	356.87
440.50	359.16
440.87	360.99
441.24	362.95
441.61	365.11
441.98	366.60
442.35	368.35
442.72	370.22
443.09	372.03
443.46	373.00
443.83	373.61
444.20	374.16
444.57	374.98
444.94	375.26
445.31	375.61
445.68	375.96
446.05	375.96
446.42	375.56
446.79	375.13
447.16	374.69
447.53	374.33
447.90	373.23
448.27	372.07
448.64	370.51
449.01	369.33
449.37	367.33
449.74	365.44
450.11	363.23
450.48	360.73
450.85	358.25
451.22	356.14
451.59	354.13
451.96	352.18
452.33	349.61
452.70	347.29
453.07	344.47
453.43	341.55
453.80	338.80
454.17	336.14
454.54	333.66
454.91	330.98
455.28	328.38
455.65	325.88
456.02	323.44
456.38	321.29
456.75	318.62
457.12	316.35
457.49	314.13
457.86	311.96
458.23	310.11
458.59	308.01
458.96	305.92
459.33	304.05
459.70	302.17
460.07	300.68
460.43	298.98
460.80	297.38
461.17	295.97
461.54	294.53
461.91	293.12
462.27	291.63
462.64	290.36
463.01	289.02
463.38	287.70
463.74	286.33
464.11	285.18
464.48	284.22
464.85	283.16
465.21	282.31
465.58	281.39
465.95	280.29
466.32	279.42
466.68	278.51
467.05	277.61
467.42	276.73
467.78	275.80
468.15	274.94
468.52	274.28
468.88	273.43
469.25	272.63
469.62	272.00
469.98	271.36
470.35	270.75
470.72	270.16
471.08	269.52
471.45	269.02
471.82	268.46
472.18	267.87
472.55	267.40
472.92	266.90
473.28	266.40
473.65	265.93
474.02	265.46
474.38	265.07
474.75	264.77
475.11	264.43
475.48	264.17
475.85	263.96
476.21	263.73
476.58	263.54
476.94	263.42
477.31	263.27
477.67	263.10
478.04	262.96
478.41	262.87
478.77	262.95
479.14	262.89
479.50	262.91
479.87	262.95
480.23	263.06
480.60	263.14
480.96	263.31
481.33	263.57
481.69	263.79
482.06	264.02
482.42	264.19
482.79	264.46
483.15	264.77
483.52	265.15
483.88	265.55
484.25	265.92
484.61	266.35
484.98	266.81
485.34	267.38
485.71	267.98
486.07	268.57
486.44	269.11
486.80	269.80
487.17	270.53
487.53	271.37
487.90	272.20
488.26	273.10
488.62	274.05
488.99	274.99
489.35	276.04
489.72	277.19
490.08	278.42
490.44	279.68
490.81	281.02
491.17	282.31
491.54	283.75
491.90	285.28
492.26	286.92
492.63	288.65
492.99	290.42
493.36	292.31
493.72	294.39
494.08	296.47
494.45	298.71
494.81	301.06
495.17	303.47
495.54	306.04
495.90	308.75
496.26	311.55
496.63	314.54
496.99	317.62
497.35	320.84
497.72	324.20
498.08	327.68
498.44	331.28
498.80	335.19
499.17	339.25
499.53	343.49
499.89	347.86
500.26	352.34
500.62	357.02
500.98	362.01
501.34	367.09
501.71	372.44
502.07	377.89
502.43	383.49
502.79	389.30
503.16	395.36
503.52	401.62
503.88	408.03
504.24	414.69
504.60	421.60
504.97	428.76
505.33	436.10
505.69	443.80
506.05	451.63
506.41	459.61
506.78	467.72
507.14	476.15
507.50	484.91
507.86	493.97
508.22	503.11
508.59	512.31
508.95	521.91
509.31	531.71
509.67	541.76
510.03	552.08
510.39	562.63
510.75	573.44
511.12	584.41
511.48	595.72
511.84	607.11
512.20	618.57
512.56	630.48
512.92	642.70
513.28	655.04
513.64	667.53
514.00	680.09
514.37	693.04
514.73	706.07
515.09	719.11
515.45	732.41
515.81	746.01
516.17	759.98
516.53	774.10
516.89	788.22
517.25	802.44
517.61	816.84
517.97	831.37
518.33	845.78
518.69	860.57
519.05	875.51
519.41	890.75
519.77	906.35
520.13	921.81
520.49	937.09
520.85	952.44
521.21	968.13
521.57	984.47
521.93	1000.25
522.29	1016.61
522.65	1032.77
523.01	1048.87
523.37	1064.85
523.73	1081.01
524.09	1096.98
524.45	1113.42
524.81	1129.99
525.17	1146.72
525.53	1163.55
525.89	1180.45
526.25	1197.25
526.61	1213.66
526.97	1230.31
527.33	1246.72
527.68	1263.24
528.04	1279.74
528.40	1296.41
528.76	1313.35
529.12	1329.87
529.48	1346.70
529.84	1362.70
530.20	1379.27
530.56	1396.34
530.91	1413.72
531.27	1430.38
531.63	1446.88
531.99	1463.27
532.35	1479.16
532.71	1495.18
533.07	1511.36
533.42	1527.11
533.78	1543.04
534.14	1559.31
534.50	1574.67
534.86	1590.57
535.21	1605.70
535.57	1621.55
535.93	1637.00
536.29	1651.89
536.65	1666.92
537.00	1681.54
537.36	1696.69
537.72	1711.29
538.08	1725.66
538.44	1739.47
538.79	1753.38
539.15	1767.06
539.51	1780.76
539.87	1795.12
540.22	1808.76
540.58	1822.44
540.94	1835.83
541.29	1848.72
541.65	1861.28
542.01	1874.45
542.37	1886.68
542.72	1899.11
543.08	1910.94
543.44	1923.27
543.79	1934.43
544.15	1945.33
544.51	1956.97
544.87	1968.06
545.22	1978.70
545.58	1988.73
545.94	1998.33
546.29	2008.20
546.65	2017.96
547.01	2027.22
547.36	2035.87
547.72	2044.27
548.07	2052.10
548.43	2060.11
548.79	2068.16
549.14	2075.60
549.50	2083.00
549.86	2090.63
550.21	2097.86
550.57	2105.01
550.92	2111.44
551.28	2118.49
551.64	2125.48
551.99	2131.99
552.35	2138.13
552.70	2144.41
553.06	2150.52
553.41	2157.06
553.77	2163.02
554.13	2169.05
554.48	2175.23
554.84	2180.68
555.19	2185.95
555.55	2191.10
555.90	2195.67
556.26	2200.50
556.61	2205.33
556.97	2209.40
557.32	2213.58
557.68	2217.74
558.03	2222.02
558.39	2225.99
558.74	2230.59
559.10	2234.61
559.45	2238.22
559.81	2242.40
560.16	2246.11
560.52	2249.35
560.87	2252.63
561.23	2255.28
561.58	2258.25
561.94	2260.70
562.29	2263.08
562.64	2265.70
563.00	2268.36
563.35	2271.74
563.71	2274.88
564.06	2278.11
564.42	2281.08
564.77	2283.50
565.12	2285.73
565.48	2287.67
565.83	2289.40
566.19	2290.57
566.54	2291.33
566.89	2292.44
567.25	2293.06
567.60	2294.40
567.96	2296.09
568.31	2296.92
568.66	2298.09
569.02	2298.68
569.37	2299.07
569.72	2299.96
570.08	2300.15
570.43	2300.17
570.78	2299.57
571.14	2297.96
571.49	2296.61
571.84	2296.30
572.20	2295.33
572.55	2294.42
572.90	2292.78
573.26	2291.44
573.61	2290.00
573.96	2288.30
574.31	2285.45
574.67	2282.55
575.02	2278.99
575.37	2275.56
575.72	2271.76
576.08	2268.45
576.43	2265.23
576.78	2261.52
577.13	2258.24
577.49	2255.24
577.84	2251.80
578.19	2248.20
578.54	2244.78
578.90	2240.58
579.25	2234.92
579.60	2229.85
579.95	2224.81
580.30	2219.86
580.66	2214.65
581.01	2209.58
581.36	2204.84
581.71	2200.61
582.06	2196.03
582.42	2191.58
582.77	2186.29
583.12	2181.81
583.47	2176.99
583.82	2171.74
584.17	2166.55
584.53	2161.20
584.88	2155.48
585.23	2149.63
585.58	2144.25
585.93	2138.71
586.28	2133.97
586.63	2128.93
586.98	2123.83
587.34	2119.16
587.69	2114.18
588.04	2108.84
588.39	2103.15
588.74	2096.65
589.09	2090.46
589.44	2083.72
589.79	2077.62
590.14	2072.10
590.49	2065.62
590.84	2059.24
591.19	2053.41
591.54	2046.84
591.89	2039.40
592.25	2032.52
592.60	2025.44
592.95	2017.72
593.30	2010.29
593.65	2002.62
594.00	1995.72
594.35	1988.57
594.70	1980.46
595.05	1973.27
595.40	1966.10
595.75	1958.72
596.10	1952.45
596.45	1945.69
596.80	1939.63
597.15	1933.10
597.50	1926.09
597.85	1919.66
598.19	1913.02
598.54	1905.80
598.89	1899.36
599.24	1893.58
599.59	1886.99
599.94	1880.78
600.29	1874.53
600.64	1868.11
600.99	1860.69
601.34	1853.73
601.69	1846.73
602.04	1839.83
602.39	1832.46
602.74	1825.58
603.08	1818.64
603.43	1811.93
603.78	1804.69
604.13	1797.42
604.48	1789.96
604.83	1783.08
605.18	1776.01
605.53	1768.01
605.87	1760.07
606.22	1752.84
606.57	1744.79
606.92	1737.52
607.27	1730.23
607.62	1723.26
607.96	1715.79
608.31	1709.26
608.66	1701.71
609.01	1694.17
609.36	1686.69
609.70	1678.72
610.05	1670.65
610.40	1663.05
610.75	1654.65
611.10	1646.97
611.44	1638.59
611.79	1630.61
612.14	1621.85
612.49	1612.75
612.83	1604.37
613.18	1596.23
613.53	1588.13
613.88	1579.61
614.22	1571.29
614.57	1562.70
614.92	1554.69
615.27	1547.19
615.61	1538.83
615.96	1530.92
616.31	1523.32
616.65	1515.89
617.00	1508.39
617.35	1500.76
617.70	1492.36
618.04	1483.92
618.39	1475.72
618.74	1468.11
619.08	1459.87
619.43	1452.27
619.78	1445.41
620.12	1438.26
620.47	1430.80
620.82	1422.60
621.16	1415.18
621.51	1407.68
621.85	1400.07
622.20	1391.55
622.55	1383.21
622.89	1375.38
623.24	1367.74
623.59	1360.35
623.93	1352.94
624.28	1345.67
624.62	1338.19
624.97	1331.16
625.32	1324.47
625.66	1317.48
626.01	1310.33
626.35	1302.90
626.70	1295.32
627.04	1287.47
627.39	1279.73
627.73	1272.38
628.08	1265.43
628.43	1258.11
628.77	1250.69
629.12	1243.30
629.46	1236.22
629.81	1228.74
630.15	1221.42
630.50	1213.91
630.84	1205.65
631.19	1197.72
631.53	1190.24
631.88	1182.69
632.22	1175.04
632.57	1167.73
632.91	1160.15
633.26	1152.76
633.60	1145.47
633.95	1138.21
634.29	1131.24
634.64	1124.53
634.98	1117.03
635.32	1109.85
635.67	1103.34
636.01	1096.70
636.36	1089.80
636.70	1083.18
637.05	1076.71
637.39	1070.22
637.73	1063.69
638.08	1057.85
638.42	1051.77
638.77	1045.29
639.11	1038.63
639.45	1032.27
639.80	1025.59
640.14	1019.22
640.49	1012.63
640.83	1006.33
641.17	1000.14
641.52	993.74
641.86	987.33
642.20	981.53
642.55	975.34
642.89	968.84
643.23	962.33
643.58	956.54
643.92	950.31
644.26	944.21
644.61	938.33
644.95	932.35
645.29	925.82
645.64	919.14
645.98	912.83
646.32	907.10
646.66	901.07
647.01	895.25
647.35	889.53
647.69	883.77
648.04	878.18
648.38	872.40
648.72	866.45
649.06	860.38
649.41	854.54
649.75	848.45
650.09	842.50
650.43	836.71
650.78	830.56
651.12	824.75
651.46	819.05
651.80	813.17
652.14	807.74
652.49	802.36
652.83	797.18
653.17	791.43
653.51	785.62
653.85	780.23
654.20	774.53
654.54	768.53
654.88	762.73
655.22	756.86
655.56	751.10
655.90	745.61
656.25	740.36
656.59	734.98
656.93	729.88
657.27	724.71
657.61	719.26
657.95	714.16
658.29	708.97
658.64	703.68
658.98	698.44
659.32	692.95
659.66	687.69
660.00	682.35
660.34	677.41
660.68	672.50
661.02	667.38
661.36	662.68
661.70	658.17
662.05	653.84
662.39	649.51
662.73	645.10
663.07	640.77
663.41	636.37
663.75	631.88
664.09	627.31
664.43	622.94
664.77	618.79
665.11	614.56
665.45	610.49
665.79	606.42
666.13	602.31
666.47	598.27
666.81	594.12
667.15	590.07
667.49	586.26
667.83	582.50
668.17	578.57
668.51	574.50
668.85	570.46
669.19	566.62
669.53	562.73
669.87	558.84
670.21	555.10
670.55	551.41
670.89	547.97
671.23	544.55
671.57	541.04
671.91	537.53
672.25	534.00
672.58	530.43
672.92	527.09
673.26	523.90
673.60	520.77
673.94	517.66
674.28	514.76
674.62	511.81
674.96	508.69
675.30	505.80
675.64	502.91
675.97	500.10
676.31	497.26
676.65	494.41
676.99	491.73
677.33	488.87
677.67	486.00
678.01	482.98
678.34	479.99
678.68	477.18
679.02	474.36
679.36	471.65
679.70	469.01
680.04	466.20
680.37	463.34
680.71	460.50
681.05	457.94
681.39	455.20
681.73	452.53
682.06	449.98
682.40	447.47
682.74	444.99
683.08	442.49
683.42	439.80
683.75	437.27
684.09	434.69
684.43	432.24
684.77	429.83
685.10	427.47
685.44	425.16
685.78	422.83
686.12	420.58
686.45	418.25
686.79	415.89
687.13	413.69
687.46	411.51
687.80	409.38
688.14	407.15
688.48	405.03
688.81	402.76
689.15	400.59
689.49	398.44
689.82	396.31
690.16	394.22
690.50	392.26
690.83	390.30
691.17	388.34
691.51	386.40
691.84	384.57
692.18	382.66
692.52	380.69
692.85	378.79
693.19	376.91
693.52	375.05
693.86	373.28
694.20	371.52
694.53	369.75
694.87	367.93
695.21	366.08
695.54	364.30
695.88	362.59
696.21	360.89
696.55	359.18
696.88	357.54
697.22	355.92
697.56	354.34
697.89	352.68
698.23	351.09
698.56	349.48
698.90	347.89
699.23	346.20
699.57	344.66
699.90	343.10
700.24	341.56
700.58	340.09
700.91	338.55
701.25	337.07
701.58	335.67
701.92	334.31
702.25	332.95
702.59	331.62
702.92	330.31
703.26	328.96
703.59	327.68
703.93	326.47
704.26	325.20
704.60	323.88
704.93	322.63
705.26	321.40
705.60	320.22
705.93	319.05
706.27	318.07
706.60	317.04
706.94	315.94
707.27	314.80
707.61	313.72
707.94	312.69
708.27	311.63
708.61	310.56
708.94	309.54
709.28	308.56
709.61	307.58
709.94	306.62
710.28	305.66
710.61	304.70
710.95	303.65
711.28	302.75
711.61	301.81
711.95	300.85
712.28	299.86
712.61	298.92
712.95	298.01
713.28	297.11
713.61	296.17
713.95	295.28
714.28	294.50
714.61	293.63
714.95	292.78
715.28	291.93
715.61	291.05
715.95	290.20
716.28	289.33
716.61	288.50
716.95	287.71
717.28	286.93
717.61	286.14
717.94	285.38
718.28	284.57
718.61	283.83
718.94	283.15
719.27	282.49
719.61	281.85
719.94	281.22
720.27	280.52
720.60	279.88
720.94	279.24
721.27	278.62
721.60	278.01
721.93	277.43
722.27	276.88
722.60	276.32
722.93	275.76
723.26	275.25
723.59	274.68
723.93	274.13
724.26	273.58
724.59	273.01
724.92	272.50
725.25	272.00
725.59	271.50
725.92	271.01
726.25	270.52
726.58	270.02
726.91	269.48
727.24	268.98
727.57	268.47
727.91	267.99
728.24	267.54
728.57	267.07
728.90	266.62
729.23	266.15
729.56	265.72
729.89	265.25
730.22	264.76
730.55	264.32
730.89	263.86
731.22	263.46
731.55	263.05
731.88	262.61
732.21	262.17
732.54	261.72
732.87	261.31
733.20	260.93
733.53	260.55
733.86	260.15
734.19	259.75
734.52	259.42
734.85	259.10
735.18	258.69
735.51	258.34
735.84	257.96
736.17	257.61
736.50	257.19
736.83	256.96
737.16	256.61
737.49	256.24
737.82	255.87
738.15	255.54
738.48	255.23
738.81	254.90
739.14	254.54
739.47	254.24
739.80	253.92
740.13	253.61
740.46	253.28
740.79	252.95
741.12	252.69
741.45	252.37
741.78	252.01
742.11	251.72
742.44	251.39
742.77	251.11
743.10	250.75
743.43	250.50
743.75	250.12
744.08	250.01
744.41	249.75
744.74	249.48
745.07	249.16
745.40	248.92
745.73	248.71
746.06	248.45
746.39	248.20
746.71	247.91
747.04	247.63
747.37	247.38
747.70	247.14
748.03	246.88
748.36	246.69
748.68	246.45
749.01	246.18
749.34	245.97
749.67	245.75
750.00	245.58
750.33	245.40
750.65	245.19
750.98	244.83
751.31	244.62
751.64	244.41
751.97	244.25
752.29	244.02
752.62	243.74
752.95	243.56
753.28	243.36
753.60	243.18
753.93	243.00
754.26	242.82
754.59	242.58
754.91	242.35
755.24	242.15
755.57	241.96
755.90	241.77
756.22	241.58
756.55	241.36
756.88	241.14
757.20	240.93
757.53	240.73
757.86	240.51
758.19	240.33
758.51	240.17
758.84	239.92
759.17	239.75
759.49	239.60
759.82	239.48
760.15	239.31
760.47	239.16
760.80	239.01
761.13	238.87
761.45	238.75
761.78	238.61
762.11	238.43
762.43	238.27
762.76	238.14
763.08	238.01
763.41	237.89
763.74	237.75
764.06	237.60
764.39	237.45
764.71	237.36
765.04	237.21
765.37	237.07
765.69	236.98
766.02	236.86
766.34	236.73
766.67	236.57
767.00	236.48
767.32	236.39
767.65	236.35
767.97	236.21
768.30	236.11
768.62	235.99
768.95	235.88
769.27	235.80
769.60	235.68
769.92	235.57
770.25	235.44
770.57	235.32
770.90	235.23
771.22	235.12
771.55	235.02
771.87	234.94
772.20	234.87
772.52	234.86
772.85	234.87
773.17	234.77
773.50	234.65
773.82	234.55
774.15	234.43
774.47	234.27
774.80	234.19
775.12	234.11
775.45	234.04
775.77	233.97
776.09	233.86
776.42	233.79
776.74	233.75
777.07	233.67
777.39	233.58
777.72	233.52
778.04	233.48
778.36	233.41
778.69	233.36
779.01	233.29
779.33	233.15
779.66	232.96
779.98	232.90
780.31	232.87
780.63	232.84
780.95	232.81
781.28	232.73
781.60	232.67
781.92	232.61
782.25	232.56
782.57	232.47
782.89	232.45
783.22	232.40
783.54	232.32
783.86	232.27
784.19	232.22
784.51	232.18
784.83	232.09
785.16	232.03
785.48	231.97
785.80	231.94
786.12	231.90
786.45	231.87
786.77	231.83
787.09	231.77
787.42	231.69
787.74	231.66
788.06	231.63
788.38	231.54
788.71	231.46
789.03	231.43
789.35	231.42
789.67	231.34
789.99	231.29
790.32	231.22
790.64	231.19
790.96	231.23
791.28	231.18
791.61	231.14
791.93	231.09
792.25	231.05
792.57	231.04
792.89	230.97
793.21	230.91
793.54	230.89
793.86	230.83
794.18	230.76
794.50	230.71
794.82	230.67
795.14	230.69
795.47	230.69
795.79	230.63
796.11	230.55
796.43	230.50
796.75	230.48
797.07	230.45
797.39	230.40
797.71	230.29
798.04	230.25
798.36	230.22
798.68	230.18
799.00	230.16
799.32	230.11
799.64	230.09
799.96	230.05
800.28	230.02
800.60	229.96
800.92	229.93
801.24	229.86
801.56	229.84
801.89	229.76
802.21	229.74
802.53	229.70
802.85	229.69
803.17	229.72
803.49	229.64
803.81	229.62
804.13	229.58
804.45	229.56
804.77	229.54
805.09	229.50
805.41	229.47
805.73	229.41
806.05	229.33
806.37	229.28
806.69	229.24
807.01	229.19
807.33	229.18
807.65	229.15
807.97	229.16
808.28	229.13
808.60	229.09
808.92	228.99
809.24	228.99
809.56	228.92
809.88	228.82
810.20	228.81
810.52	228.80
810.84	228.76
811.16	228.73
811.48	228.68
811.80	228.70
812.12	228.67
812.43	228.65
812.75	228.65
813.07	228.66
813.39	228.67
813.71	228.62
814.03	228.61
814.35	228.58
814.67	228.52
814.98	228.47
815.30	228.45
815.62	228.42
815.94	228.37
816.26	228.41
816.58	228.40
816.89	228.40
817.21	228.33
817.53	228.34
817.85	228.31
818.17	228.28
818.48	228.20
818.80	228.21
819.12	228.17
819.44	228.14
819.76	228.12
820.07	228.11
820.39	228.11
820.71	228.09
821.03	228.08
821.34	228.05
821.66	228.05
821.98	228.06
822.30	228.07
822.61	228.13
822.93	228.09
823.25	228.09
823.57	228.07
823.88	228.11
824.20	228.13
824.52	228.16
824.83	228.17
825.15	228.16
825.47	228.14
825.79	228.14
826.10	228.18
826.42	228.17
826.74	228.18
827.05	228.17
827.37	228.18
827.69	228.19
828.00	228.22
828.32	228.23
828.64	228.25
828.95	228.26
829.27	228.21
829.58	228.23
829.90	228.26
830.22	228.25
830.53	228.20
830.85	228.18
831.17	228.13
831.48	228.13
831.80	228.15
832.11	228.15
832.43	228.18
832.75	228.14
833.06	228.20
833.38	228.17
833.69	228.18
834.01	228.18
834.32	228.19
834.64	228.20
834.96	228.18
835.27	228.17
835.59	228.19
835.90	228.17
836.22	228.15
836.53	228.13
836.85	228.14
837.16	228.27
837.48	228.24
837.79	228.27
838.11	228.30
838.42	228.32
838.74	228.32
839.05	228.28
839.37	228.28
839.68	228.20
840.00	228.17
840.31	228.16
840.63	228.09
840.94	228.04
841.26	228.03
841.57	227.99
841.88	227.97
842.20	227.94
842.51	227.91
842.83	227.90
843.14	227.95
843.46	227.94
843.77	227.85
844.08	227.82
844.40	227.79
844.71	227.74
845.03	227.68
845.34	227.65
845.65	227.64
845.97	227.61
846.28	227.58
846.60	227.56
846.91	227.54
847.22	227.56
847.54	227.55
847.85	227.51
848.16	227.49
848.48	227.46
848.79	227.46
849.10	227.48
849.42	227.47
849.73	227.35
850.04	227.33
850.36	227.30
850.67	227.31
850.98	227.32
851.30	227.32
851.61	227.32
851.92	227.31
852.23	227.32
852.55	227.29
852.86	227.31
853.17	227.33
853.49	227.32
853.80	227.31
854.11	227.33
854.42	227.35
854.74	227.34
855.05	227.35
855.36	227.28
855.67	227.24
855.99	227.23
856.30	227.36
856.61	227.31
856.92	227.30
857.23	227.27
857.55	227.22
857.86	227.20
858.17	227.17
858.48	227.13
858.79	227.07
859.11	227.08
859.42	227.08
859.73	227.06
860.04	227.04
860.35	226.98
860.66	226.91
860.98	226.86
861.29	226.87
861.60	226.85
861.91	226.86
862.22	226.88
862.53	226.84
862.84	226.75
863.16	226.81
863.47	226.79
863.78	226.80
864.09	226.80
864.40	226.82
864.71	226.83
865.02	226.89
865.33	226.89
865.64	226.85
865.95	226.83
866.27	226.92
866.58	226.92
866.89	226.99
867.20	227.04
867.51	227.08
867.82	227.08
868.13	227.10
868.44	227.10
868.75	227.08
869.06	227.11
869.37	227.10
869.68	227.07
869.99	227.09
870.30	227.10
870.61	227.14
870.92	227.12
871.23	227.11
871.54	227.12
871.85	227.14
872.16	227.19
872.47	227.18
872.78	227.10
873.09	227.12
873.40	227.10
873.71	227.11
874.02	227.07
874.33	227.08
874.64	227.09
874.95	227.12
875.26	227.12
875.56	227.15
875.87	227.14
876.18	227.11
876.49	227.22
876.80	227.22
877.11	227.21
877.42	227.22
877.73	227.21
878.04	227.16
878.35	227.15
878.66	227.13
878.96	227.13
879.27	227.14
879.58	227.14
879.89	227.14
880.20	227.15
880.51	227.16
880.82	227.13
881.12	227.08
881.43	227.06
881.74	227.05
882.05	227.03
882.36	227.04
882.67	227.05
882.97	226.92
883.28	226.91
883.59	226.86
883.90	226.85
884.21	226.87
884.51	226.88
884.82	226.91
885.13	226.89
885.44	226.89
885.74	226.88
886.05	226.87
886.36	226.83
886.67	226.83
886.98	226.87
887.28	226.91
887.59	226.92
887.90	226.92
888.20	226.92
888.51	226.91
888.82	226.90
889.13	226.90
889.43	227.01
889.74	226.99
890.05	227.01
890.35	226.99
890.66	226.98
890.97	226.97
891.28	226.93
891.58	226.93
891.89	226.92
892.20	226.91
892.50	226.90
892.81	226.91
893.12	226.89
893.42	226.83
893.73	226.83
894.04	226.83
894.34	226.83
894.65	226.83
894.95	226.83
895.26	226.86
895.57	226.90
895.87	226.78
896.18	226.80
896.48	226.83
896.79	226.82
897.10	226.86
897.40	226.85
897.71	226.89
898.01	226.92
898.32	226.93
898.63	226.92
898.93	226.92
899.24	226.93
899.54	226.90
899.85	226.91
900.15	226.90
900.46	226.91
900.76	226.90
901.07	226.89
901.38	226.86
901.68	226.86
901.99	226.83
902.29	226.84
902.60	226.84
902.90	226.85
903.21	226.87
903.51	226.85
903.82	226.89
904.12	226.90
904.43	226.91
904.73	226.95
905.03	226.94
905.34	227.03
905.64	227.02
905.95	227.07
906.25	227.08
906.56	227.05
906.86	227.05
907.17	227.04
907.47	227.07
907.77	227.06
908.08	227.03
908.38	227.02
908.69	227.03
908.99	227.04
909.30	227.02
909.60	227.01
909.90	226.98
910.21	226.96
910.51	226.95
910.81	226.93
911.12	226.91
911.42	226.95
911.73	226.87
912.03	226.89
912.33	226.90
912.64	226.90
912.94	226.90
913.24	226.90
913.55	226.90
913.85	226.88
914.15	226.94
914.46	226.95
914.76	226.93
915.06	226.92
915.37	226.92
915.67	226.92
915.97	226.95
916.27	226.96
916.58	226.96
916.88	226.96
917.18	226.94
917.49	227.02
917.79	227.03
918.09	227.04
918.39	227.07
918.70	227.03
919.00	227.02
919.30	227.08
919.60	227.07
919.91	227.10
920.21	227.12
920.51	227.09
920.81	227.06
921.12	227.11
921.42	227.11
921.72	227.09
922.02	227.08
922.32	227.06
922.63	227.07
922.93	227.09
923.23	227.09
923.53	227.08
923.83	226.97
924.13	226.95
924.44	226.97
924.74	226.96
925.04	226.99
925.34	226.96
925.64	226.92
925.94	226.88
926.24	226.90
926.55	226.89
926.85	226.90
927.15	226.91
927.45	226.90
927.75	226.90
928.05	226.91
928.35	226.92
928.65	226.93
928.95	226.91
929.26	226.87
929.56	226.85
929.86	226.82
930.16	226.82
930.46	226.82
930.76	226.79
931.06	226.74
931.36	226.69
931.66	226.73
931.96	226.74
932.26	226.75
932.56	226.72
932.86	226.72
933.16	226.70
933.46	226.67
933.76	226.64
934.06	226.67
934.36	226.69
934.66	226.67
934.96	226.65
935.26	226.66
935.56	226.67
935.86	226.67
936.16	226.68
936.46	226.66
936.76	226.62
937.06	226.59
937.36	226.59
937.66	226.62
937.96	226.60
938.26	226.60
938.56	226.60
938.86	226.61
939.16	226.63
939.46	226.64
939.76	226.69
940.06	226.74
940.35	226.71
940.65	226.68
940.95	226.70
941.25	226.66
941.55	226.66
941.85	226.65
942.15	226.69
942.45	226.75
942.75	226.79
943.04	226.80
943.34	226.86
943.64	226.87
943.94	226.84
944.24	226.82
944.54	226.80
944.84	226.79
945.13	226.78
945.43	226.77
945.73	226.76
946.03	226.74
946.33	226.68
946.62	226.69
946.92	226.71
947.22	226.70
947.52	226.71
947.82	226.74
948.11	226.72
948.41	226.70
948.71	226.65
949.01	226.65
949.31	226.68
949.60	226.65
949.90	226.67
950.20	226.68
950.50	226.69
950.79	226.69
951.09	226.71
951.39	226.72
951.69	226.69
951.98	226.72
952.28	226.72
952.58	226.76
952.87	226.78
953.17	226.80
953.47	226.81
953.76	226.86
954.06	226.85
954.36	226.86
954.66	226.86
954.95	226.92
955.25	226.92
955.55	226.93
955.84	226.92
956.14	226.93
956.44	226.94
956.73	226.96
957.03	226.97
957.32	226.99
957.62	227.03
957.92	227.06
958.21	227.06
958.51	227.19
958.81	227.18
959.10	227.15
959.40	227.15
959.69	227.16
959.99	227.15
960.29	227.16
960.58	227.16
960.88	227.20
961.17	227.18
961.47	227.20
961.76	227.18
962.06	227.19
962.36	227.20
962.65	227.20
962.95	227.18
963.24	227.19
963.54	227.20
963.83	227.15
964.13	227.15
964.42	227.11
964.72	227.04
965.01	227.06
965.31	227.07
965.60	227.01
965.90	227.06
966.19	227.03
966.49	227.03
966.78	227.03
967.08	227.00
967.37	226.99
967.67	226.94
967.96	226.92
968.26	226.92
968.55	226.89
968.85	226.93
969.14	226.96
969.43	226.95
969.73	226.90
970.02	226.90
970.32	226.90
970.61	226.88
970.91	226.82
971.20	226.80
971.49	226.79
971.79	226.83
972.08	226.76
972.38	226.76
972.67	226.73
972.96	226.73
973.26	226.70
973.55	226.75
973.85	226.76
974.14	226.76
974.43	226.79
974.73	226.78
975.02	226.76
975.31	226.75
975.61	226.75
975.90	226.73
976.19	226.73
976.49	226.71
976.78	226.74
977.07	226.74
977.37	226.72
977.66	226.71
977.95	226.70
978.24	226.69
978.54	226.71
978.83	226.71
979.12	226.69
979.42	226.68
979.71	226.64
980.00	226.64
980.29	226.64
980.59	226.59
980.88	226.64
981.17	226.59
981.46	226.56
981.76	226.53
982.05	226.58
982.34	226.58
982.63	226.61
982.93	226.59
983.22	226.64
983.51	226.66
983.80	226.68
984.09	226.71
984.39	226.70
984.68	226.69
984.97	226.72
985.26	226.74
985.55	226.74
985.85	226.72
986.14	226.77
986.43	226.79
986.72	226.80
987.01	226.77
987.30	226.78
987.59	226.80
987.89	226.82
988.18	226.80
988.47	226.83
988.76	226.79
989.05	226.80
989.34	226.79
989.63	226.80
989.92	226.80
990.22	226.80
990.51	226.83
990.80	226.83
991.09	226.83
991.38	226.85
991.67	226.90
991.96	226.90
992.25	226.87
992.54	226.86
992.83	226.87
993.12	226.85
993.41	226.87
993.70	226.92
993.99	226.92
994.28	226.95
994.58	226.92
994.87	226.93
995.16	226.93
995.45	226.92
995.74	226.91
996.03	226.89
996.32	226.90
996.61	226.93
996.90	226.92
997.19	226.92
997.48	226.89
997.77	226.85
998.06	226.86
998.34	226.84
998.63	226.83
998.92	226.84
999.21	226.85
999.50	226.87
999.79	226.83
1000.08	226.85
1000.37	226.83
1000.66	226.84
1000.95	226.85
1001.24	226.84
1001.53	226.83
1001.82	226.80
1002.11	226.78
1002.40	226.77
1002.68	226.74
1002.97	226.80
1003.26	226.76
1003.55	226.73
1003.84	226.76
1004.13	226.77
1004.42	226.75
1004.71	226.75
1004.99	226.70
1005.28	226.73
1005.57	226.74
1005.86	226.71
1006.15	226.71
1006.44	226.70
1006.72	226.68
1007.01	226.66
1007.30	226.66
1007.59	226.65
1007.88	226.68
1008.17	226.69
1008.45	226.64
1008.74	226.60
1009.03	226.58
1009.32	226.59
1009.60	226.63
1009.89	226.59
1010.18	226.57
1010.47	226.57
1010.76	226.56
1011.04	226.58
1011.33	226.56
1011.62	226.51
1011.91	226.49
1012.19	226.44
1012.48	226.45
1012.77	226.47
1013.05	226.50
1013.34	226.47
1013.63	226.45
1013.92	226.40
1014.20	226.41
1014.49	226.44
1014.78	226.45
1015.06	226.41
1015.35	226.41
1015.64	226.37
1015.92	226.43
1016.21	226.40
1016.50	226.40
1016.78	226.40
1017.07	226.40
1017.36	226.39
1017.64	226.40
1017.93	226.43
1018.22	226.44
1018.50	226.42
1018.79	226.41
1019.08	226.37
1019.36	226.43
1019.65	226.45
1019.93	226.49
1020.22	226.49
1020.51	226.56
1020.79	226.54
1021.08	226.10
1021.36	226.32
1021.65	226.49
1021.94	226.49
1022.22	227.12
1022.51	226.58
1022.79	226.81
1023.08	226.54
1023.36	228.06
1023.65	226.39
>>>>>End Processed Spectral Data<<<<<
