SpectraSuite Data File
++++++++++++++++++++++++++++++++++++
Date: Fri Feb 01 15:14:04 EST 2013
User: group
Dark Spectrum Present: No
Reference Spectrum Present: No
Number of Sampled Component Spectra: 1
Spectrometers: USB2E7196
Integration Time (usec): 35000 (USB2E7196)
Spectra Averaged: 100 (USB2E7196)
Boxcar Smoothing: 10 (USB2E7196)
Correct for Electrical Dark: No (USB2E7196)
Strobe/Lamp Enabled: No (USB2E7196)
Correct for Detector Non-linearity: No (USB2E7196)
Correct for Stray Light: No (USB2E7196)
Number of Pixels in Processed Spectrum: 2048
>>>>>Begin Processed Spectral Data<<<<<
339.09	0.00
339.48	214.85
339.86	216.64
340.24	218.09
340.63	219.25
341.01	222.58
341.39	221.96
341.78	223.36
342.16	224.69
342.54	224.73
342.93	213.47
343.31	224.25
343.69	224.81
344.07	225.25
344.46	225.66
344.84	226.06
345.22	226.27
345.60	226.51
345.99	226.71
346.37	226.83
346.75	226.94
347.13	227.00
347.52	227.05
347.90	227.16
348.28	227.18
348.66	227.23
349.05	227.22
349.43	227.27
349.81	227.33
350.19	227.41
350.57	227.49
350.96	227.54
351.34	227.62
351.72	227.70
352.10	227.83
352.48	227.92
352.87	227.99
353.25	228.05
353.63	228.12
354.01	228.17
354.39	228.26
354.77	228.33
355.15	228.42
355.54	228.48
355.92	228.49
356.30	228.59
356.68	228.74
357.06	228.81
357.44	228.87
357.82	228.92
358.20	229.02
358.58	229.09
358.97	229.18
359.35	229.24
359.73	229.34
360.11	229.40
360.49	229.44
360.87	229.50
361.25	229.57
361.63	229.66
362.01	229.71
362.39	229.73
362.77	229.78
363.15	229.80
363.53	229.86
363.91	229.88
364.29	229.89
364.67	229.80
365.05	229.81
365.43	229.81
365.81	229.80
366.19	229.79
366.57	229.78
366.95	229.72
367.33	229.71
367.71	229.70
368.09	229.68
368.47	229.62
368.85	229.60
369.23	229.60
369.61	229.52
369.99	229.50
370.37	229.46
370.75	229.49
371.13	229.41
371.51	229.29
371.89	229.24
372.27	229.17
372.65	229.11
373.03	229.09
373.41	229.00
373.78	228.91
374.16	228.79
374.54	228.72
374.92	228.67
375.30	228.62
375.68	228.51
376.06	228.42
376.44	228.34
376.82	228.21
377.19	228.11
377.57	228.04
377.95	227.93
378.33	227.88
378.71	227.74
379.09	227.68
379.47	227.66
379.84	227.59
380.22	227.53
380.60	227.43
380.98	227.33
381.36	227.23
381.73	227.15
382.11	227.09
382.49	226.99
382.87	226.90
383.25	226.80
383.62	226.83
384.00	226.74
384.38	226.70
384.76	226.67
385.13	226.66
385.51	226.61
385.89	226.58
386.27	226.51
386.64	226.48
387.02	226.44
387.40	226.35
387.78	226.33
388.15	226.27
388.53	226.29
388.91	226.26
389.29	226.26
389.66	226.25
390.04	226.22
390.42	226.24
390.79	226.24
391.17	226.25
391.55	226.16
391.92	226.18
392.30	226.18
392.68	226.17
393.05	226.18
393.43	226.18
393.81	226.15
394.18	226.18
394.56	226.22
394.94	226.25
395.31	226.31
395.69	226.36
396.06	226.41
396.44	226.44
396.82	226.48
397.19	226.60
397.57	226.63
397.95	226.74
398.32	226.78
398.70	226.89
399.07	226.98
399.45	227.02
399.82	227.14
400.20	227.22
400.58	227.30
400.95	227.35
401.33	227.45
401.70	227.63
402.08	227.69
402.45	227.77
402.83	227.92
403.20	228.00
403.58	228.11
403.95	228.28
404.33	228.42
404.71	228.59
405.08	228.76
405.46	228.93
405.83	229.09
406.21	229.23
406.58	229.39
406.96	229.57
407.33	229.77
407.70	229.94
408.08	230.25
408.45	230.45
408.83	230.69
409.20	230.90
409.58	231.08
409.95	231.38
410.33	231.64
410.70	231.88
411.08	232.22
411.45	232.52
411.82	232.80
412.20	233.13
412.57	233.53
412.95	233.81
413.32	234.22
413.69	234.60
414.07	235.04
414.44	235.49
414.82	235.97
415.19	236.54
415.56	237.10
415.94	237.61
416.31	238.30
416.68	238.91
417.06	239.64
417.43	240.35
417.81	241.09
418.18	241.86
418.55	242.71
418.93	243.56
419.30	244.47
419.67	245.42
420.04	246.37
420.42	247.35
420.79	248.53
421.16	249.66
421.54	250.88
421.91	252.09
422.28	253.32
422.66	254.61
423.03	255.87
423.40	257.19
423.77	258.59
424.15	259.98
424.52	261.45
424.89	263.06
425.26	264.60
425.64	266.04
426.01	267.63
426.38	269.28
426.75	270.97
427.13	272.70
427.50	274.49
427.87	276.38
428.24	278.20
428.61	279.94
428.99	281.89
429.36	284.02
429.73	286.07
430.10	288.14
430.47	290.23
430.85	292.34
431.22	294.59
431.59	296.99
431.96	299.24
432.33	301.78
432.70	304.14
433.08	307.00
433.45	309.67
433.82	312.32
434.19	315.20
434.56	317.99
434.93	320.64
435.30	323.28
435.68	326.18
436.05	329.07
436.42	331.89
436.79	334.46
437.16	337.16
437.53	340.02
437.90	342.80
438.27	345.53
438.64	348.37
439.01	350.99
439.38	353.24
439.75	355.45
440.13	357.95
440.50	360.31
440.87	362.14
441.24	364.07
441.61	366.23
441.98	367.75
442.35	369.58
442.72	371.44
443.09	373.23
443.46	374.19
443.83	374.74
444.20	375.27
444.57	376.04
444.94	376.29
445.31	376.62
445.68	377.00
446.05	377.08
446.42	376.71
446.79	376.28
447.16	375.80
447.53	375.45
447.90	374.30
448.27	373.11
448.64	371.52
449.01	370.44
449.37	368.43
449.74	366.54
450.11	364.29
450.48	361.81
450.85	359.31
451.22	357.17
451.59	355.19
451.96	353.22
452.33	350.62
452.70	348.23
453.07	345.40
453.43	342.50
453.80	339.73
454.17	337.05
454.54	334.48
454.91	331.77
455.28	329.10
455.65	326.57
456.02	324.13
456.38	321.95
456.75	319.22
457.12	317.01
457.49	314.78
457.86	312.59
458.23	310.75
458.59	308.69
458.96	306.63
459.33	304.76
459.70	302.90
460.07	301.39
460.43	299.69
460.80	298.05
461.17	296.59
461.54	295.07
461.91	293.63
462.27	292.19
462.64	290.93
463.01	289.59
463.38	288.28
463.74	286.95
464.11	285.80
464.48	284.76
464.85	283.62
465.21	282.71
465.58	281.77
465.95	280.66
466.32	279.73
466.68	278.82
467.05	277.88
467.42	276.98
467.78	276.04
468.15	275.19
468.52	274.53
468.88	273.68
469.25	272.91
469.62	272.30
469.98	271.59
470.35	270.94
470.72	270.32
471.08	269.69
471.45	269.12
471.82	268.55
472.18	267.94
472.55	267.49
472.92	266.99
473.28	266.53
473.65	266.05
474.02	265.57
474.38	265.19
474.75	264.87
475.11	264.51
475.48	264.23
475.85	263.98
476.21	263.76
476.58	263.54
476.94	263.40
477.31	263.21
477.67	263.06
478.04	262.96
478.41	262.85
478.77	262.83
479.14	262.74
479.50	262.76
479.87	262.84
480.23	262.91
480.60	262.95
480.96	263.05
481.33	263.26
481.69	263.47
482.06	263.66
482.42	263.87
482.79	264.12
483.15	264.45
483.52	264.82
483.88	265.13
484.25	265.52
484.61	265.93
484.98	266.42
485.34	266.96
485.71	267.51
486.07	268.14
486.44	268.76
486.80	269.48
487.17	270.20
487.53	270.99
487.90	271.84
488.26	272.79
488.62	273.76
488.99	274.75
489.35	275.82
489.72	276.93
490.08	278.12
490.44	279.37
490.81	280.70
491.17	282.07
491.54	283.59
491.90	285.13
492.26	286.75
492.63	288.50
492.99	290.28
493.36	292.22
493.72	294.24
494.08	296.34
494.45	298.61
494.81	301.01
495.17	303.48
495.54	306.04
495.90	308.72
496.26	311.53
496.63	314.49
496.99	317.58
497.35	320.81
497.72	324.20
498.08	327.67
498.44	331.32
498.80	335.22
499.17	339.23
499.53	343.38
499.89	347.75
500.26	352.17
500.62	356.88
500.98	361.80
501.34	366.87
501.71	372.16
502.07	377.57
502.43	383.10
502.79	388.88
503.16	394.93
503.52	401.20
503.88	407.58
504.24	414.20
504.60	421.06
504.97	428.20
505.33	435.58
505.69	443.30
506.05	451.10
506.41	458.99
506.78	467.08
507.14	475.54
507.50	484.33
507.86	493.36
508.22	502.52
508.59	511.71
508.95	521.32
509.31	531.15
509.67	541.23
510.03	551.52
510.39	562.06
510.75	572.85
511.12	583.81
511.48	595.10
511.84	606.49
512.20	618.03
512.56	629.97
512.92	642.15
513.28	654.42
513.64	666.95
514.00	679.64
514.37	692.64
514.73	705.72
515.09	718.72
515.45	731.97
515.81	745.55
516.17	759.49
516.53	773.61
516.89	787.76
517.25	801.88
517.61	816.38
517.97	830.92
518.33	845.43
518.69	860.25
519.05	875.30
519.41	890.55
519.77	906.13
520.13	921.59
520.49	936.94
520.85	952.36
521.21	968.10
521.57	984.42
521.93	1000.26
522.29	1016.77
522.65	1033.08
523.01	1049.41
523.37	1065.62
523.73	1081.96
524.09	1098.03
524.45	1114.43
524.81	1131.20
525.17	1148.08
525.53	1165.01
525.89	1181.95
526.25	1198.77
526.61	1215.20
526.97	1232.06
527.33	1248.55
527.68	1265.26
528.04	1281.84
528.40	1298.61
528.76	1315.68
529.12	1332.34
529.48	1349.27
529.84	1365.31
530.20	1382.03
530.56	1399.23
530.91	1416.69
531.27	1433.38
531.63	1450.05
531.99	1466.75
532.35	1482.70
532.71	1498.64
533.07	1515.00
533.42	1530.87
533.78	1546.99
534.14	1563.25
534.50	1578.56
534.86	1594.52
535.21	1609.82
535.57	1625.87
535.93	1641.45
536.29	1656.36
536.65	1671.58
537.00	1686.38
537.36	1701.76
537.72	1716.35
538.08	1730.72
538.44	1744.58
538.79	1758.58
539.15	1772.34
539.51	1786.09
539.87	1800.66
540.22	1814.52
540.58	1828.36
540.94	1841.91
541.29	1855.02
541.65	1867.86
542.01	1881.22
542.37	1893.48
542.72	1905.98
543.08	1917.80
543.44	1930.18
543.79	1941.44
544.15	1952.34
544.51	1964.00
544.87	1975.00
545.22	1985.89
545.58	1996.13
545.94	2005.85
546.29	2015.98
546.65	2025.77
547.01	2034.98
547.36	2043.66
547.72	2052.15
548.07	2060.00
548.43	2068.16
548.79	2076.20
549.14	2083.54
549.50	2090.91
549.86	2098.80
550.21	2106.08
550.57	2113.28
550.92	2119.95
551.28	2127.07
551.64	2134.19
551.99	2140.70
552.35	2146.83
552.70	2152.92
553.06	2158.95
553.41	2165.18
553.77	2171.04
554.13	2177.11
554.48	2183.26
554.84	2188.78
555.19	2194.09
555.55	2199.27
555.90	2203.61
556.26	2208.32
556.61	2213.25
556.97	2217.47
557.32	2221.57
557.68	2225.64
558.03	2229.76
558.39	2233.44
558.74	2237.95
559.10	2241.76
559.45	2245.40
559.81	2249.80
560.16	2253.60
560.52	2256.71
560.87	2260.28
561.23	2262.80
561.58	2265.82
561.94	2268.28
562.29	2270.64
562.64	2273.32
563.00	2275.93
563.35	2279.55
563.71	2282.78
564.06	2285.91
564.42	2288.63
564.77	2291.04
565.12	2293.22
565.48	2295.13
565.83	2296.81
566.19	2298.02
566.54	2299.03
566.89	2300.08
567.25	2300.54
567.60	2301.88
567.96	2303.62
568.31	2304.40
568.66	2305.48
569.02	2305.90
569.37	2306.28
569.72	2306.92
570.08	2306.85
570.43	2306.66
570.78	2305.92
571.14	2304.18
571.49	2302.86
571.84	2302.55
572.20	2301.32
572.55	2300.29
572.90	2298.66
573.26	2297.43
573.61	2295.85
573.96	2293.87
574.31	2290.93
574.67	2287.82
575.02	2283.85
575.37	2280.36
575.72	2276.37
576.08	2273.08
576.43	2269.78
576.78	2265.97
577.13	2262.87
577.49	2259.82
577.84	2256.40
578.19	2252.51
578.54	2248.84
578.90	2244.53
579.25	2238.94
579.60	2233.88
579.95	2228.74
580.30	2223.65
580.66	2218.32
581.01	2213.22
581.36	2208.28
581.71	2203.99
582.06	2199.40
582.42	2195.05
582.77	2189.61
583.12	2184.95
583.47	2180.03
583.82	2174.85
584.17	2169.44
584.53	2163.74
584.88	2158.02
585.23	2152.10
585.58	2146.58
585.93	2140.99
586.28	2136.09
586.63	2130.84
586.98	2125.69
587.34	2121.03
587.69	2116.07
588.04	2110.67
588.39	2104.90
588.74	2098.30
589.09	2092.03
589.44	2085.12
589.79	2078.97
590.14	2073.35
590.49	2066.71
590.84	2060.30
591.19	2054.27
591.54	2047.80
591.89	2040.19
592.25	2033.20
592.60	2025.83
592.95	2018.07
593.30	2010.62
593.65	2003.03
594.00	1995.95
594.35	1988.58
594.70	1980.32
595.05	1972.92
595.40	1965.53
595.75	1957.84
596.10	1951.44
596.45	1944.50
596.80	1938.28
597.15	1931.48
597.50	1924.17
597.85	1917.67
598.19	1910.94
598.54	1903.69
598.89	1896.97
599.24	1891.15
599.59	1884.28
599.94	1877.98
600.29	1871.60
600.64	1865.08
600.99	1857.45
601.34	1850.55
601.69	1843.62
602.04	1836.75
602.39	1829.43
602.74	1822.60
603.08	1815.99
603.43	1809.23
603.78	1802.00
604.13	1794.84
604.48	1787.62
604.83	1780.97
605.18	1773.89
605.53	1765.76
605.87	1757.68
606.22	1750.45
606.57	1742.50
606.92	1735.24
607.27	1728.18
607.62	1721.22
607.96	1713.85
608.31	1707.18
608.66	1699.51
609.01	1691.91
609.36	1684.30
609.70	1676.28
610.05	1668.22
610.40	1660.41
610.75	1652.14
611.10	1644.45
611.44	1636.11
611.79	1628.04
612.14	1619.24
612.49	1610.23
612.83	1601.99
613.18	1593.95
613.53	1585.83
613.88	1577.28
614.22	1569.03
614.57	1560.36
614.92	1552.39
615.27	1544.85
615.61	1536.56
615.96	1528.59
616.31	1520.96
616.65	1513.54
617.00	1506.00
617.35	1498.39
617.70	1489.96
618.04	1481.46
618.39	1473.25
618.74	1465.49
619.08	1457.19
619.43	1449.71
619.78	1442.79
620.12	1435.61
620.47	1428.04
620.82	1419.95
621.16	1412.65
621.51	1405.03
621.85	1397.41
622.20	1388.92
622.55	1380.62
622.89	1372.78
623.24	1365.22
623.59	1357.93
623.93	1350.45
624.28	1343.13
624.62	1335.49
624.97	1328.44
625.32	1321.59
625.66	1314.55
626.01	1307.46
626.35	1300.03
626.70	1292.22
627.04	1284.33
627.39	1276.62
627.73	1269.19
628.08	1262.25
628.43	1254.76
628.77	1247.30
629.12	1239.79
629.46	1232.65
629.81	1225.21
630.15	1217.95
630.50	1210.57
630.84	1202.34
631.19	1194.51
631.53	1187.03
631.88	1179.57
632.22	1171.86
632.57	1164.66
632.91	1157.14
633.26	1149.70
633.60	1142.43
633.95	1135.43
634.29	1128.57
634.64	1121.84
634.98	1114.59
635.32	1107.50
635.67	1101.07
636.01	1094.46
636.36	1087.57
636.70	1081.21
637.05	1074.69
637.39	1068.28
637.73	1061.69
638.08	1055.91
638.42	1049.95
638.77	1043.57
639.11	1037.00
639.45	1030.72
639.80	1024.11
640.14	1017.67
640.49	1011.20
640.83	1004.85
641.17	998.62
641.52	992.30
641.86	985.89
642.20	979.99
642.55	973.71
642.89	967.12
643.23	960.68
643.58	954.93
643.92	948.58
644.26	942.43
644.61	936.42
644.95	930.38
645.29	923.75
645.64	916.87
645.98	910.57
646.32	904.73
646.66	898.72
647.01	892.92
647.35	887.26
647.69	881.38
648.04	875.87
648.38	869.97
648.72	863.85
649.06	857.73
649.41	851.87
649.75	845.79
650.09	839.90
650.43	834.05
650.78	827.97
651.12	822.01
651.46	816.21
651.80	810.50
652.14	805.21
652.49	799.85
652.83	794.81
653.17	789.01
653.51	783.24
653.85	777.80
654.20	772.08
654.54	766.13
654.88	760.43
655.22	754.57
655.56	748.94
655.90	743.62
656.25	738.35
656.59	732.94
656.93	727.89
657.27	722.74
657.61	717.37
657.95	712.26
658.29	707.21
658.64	702.15
658.98	696.94
659.32	691.50
659.66	686.31
660.00	680.91
660.34	676.14
660.68	671.28
661.02	666.34
661.36	661.70
661.70	657.17
662.05	652.82
662.39	648.52
662.73	644.09
663.07	639.64
663.41	635.27
663.75	630.88
664.09	626.38
664.43	622.08
664.77	617.96
665.11	613.72
665.45	609.72
665.79	605.59
666.13	601.41
666.47	597.28
666.81	593.15
667.15	589.16
667.49	585.24
667.83	581.47
668.17	577.52
668.51	573.51
668.85	569.51
669.19	565.67
669.53	561.80
669.87	557.94
670.21	554.26
670.55	550.64
670.89	547.24
671.23	543.83
671.57	540.31
671.91	536.79
672.25	533.34
672.58	529.78
672.92	526.42
673.26	523.30
673.60	520.11
673.94	517.01
674.28	514.12
674.62	511.17
674.96	508.06
675.30	505.14
675.64	502.16
675.97	499.44
676.31	496.60
676.65	493.66
676.99	490.97
677.33	488.17
677.67	485.41
678.01	482.25
678.34	479.28
678.68	476.40
679.02	473.64
679.36	470.89
679.70	468.13
680.04	465.33
680.37	462.46
680.71	459.71
681.05	457.06
681.39	454.26
681.73	451.58
682.06	449.05
682.40	446.54
682.74	444.04
683.08	441.52
683.42	438.93
683.75	436.50
684.09	433.96
684.43	431.48
684.77	429.00
685.10	426.72
685.44	424.40
685.78	422.10
686.12	419.82
686.45	417.49
686.79	415.23
687.13	413.04
687.46	410.88
687.80	408.76
688.14	406.61
688.48	404.62
688.81	402.40
689.15	400.30
689.49	398.13
689.82	396.09
690.16	393.99
690.50	392.05
690.83	390.09
691.17	388.14
691.51	386.26
691.84	384.39
692.18	382.53
692.52	380.60
692.85	378.74
693.19	376.92
693.52	375.12
693.86	373.33
694.20	371.57
694.53	369.76
694.87	367.91
695.21	366.13
695.54	364.32
695.88	362.62
696.21	360.88
696.55	359.24
696.88	357.57
697.22	355.92
697.56	354.28
697.89	352.70
698.23	351.05
698.56	349.42
698.90	347.89
699.23	346.23
699.57	344.68
699.90	343.16
700.24	341.60
700.58	340.08
700.91	338.61
701.25	337.19
701.58	335.85
701.92	334.52
702.25	333.15
702.59	331.78
702.92	330.43
703.26	329.14
703.59	327.88
703.93	326.70
704.26	325.51
704.60	324.24
704.93	322.95
705.26	321.72
705.60	320.57
705.93	319.42
706.27	318.42
706.60	317.37
706.94	316.26
707.27	315.12
707.61	314.09
707.94	313.01
708.27	311.93
708.61	310.86
708.94	309.85
709.28	308.88
709.61	307.91
709.94	306.97
710.28	305.95
710.61	304.96
710.95	303.90
711.28	302.96
711.61	302.03
711.95	301.10
712.28	300.15
712.61	299.20
712.95	298.24
713.28	297.33
713.61	296.43
713.95	295.55
714.28	294.71
714.61	293.85
714.95	293.04
715.28	292.19
715.61	291.32
715.95	290.46
716.28	289.59
716.61	288.77
716.95	287.97
717.28	287.24
717.61	286.45
717.94	285.70
718.28	284.88
718.61	284.15
718.94	283.49
719.27	282.87
719.61	282.14
719.94	281.49
720.27	280.77
720.60	280.08
720.94	279.44
721.27	278.85
721.60	278.25
721.93	277.67
722.27	277.12
722.60	276.58
722.93	276.02
723.26	275.47
723.59	274.92
723.93	274.37
724.26	273.84
724.59	273.31
724.92	272.77
725.25	272.26
725.59	271.73
725.92	271.21
726.25	270.68
726.58	270.25
726.91	269.73
727.24	269.27
727.57	268.81
727.91	268.32
728.24	267.87
728.57	267.39
728.90	266.92
729.23	266.40
729.56	265.94
729.89	265.46
730.22	264.98
730.55	264.48
730.89	264.05
731.22	263.53
731.55	263.08
731.88	262.67
732.21	262.28
732.54	261.84
732.87	261.39
733.20	260.98
733.53	260.58
733.86	260.21
734.19	259.81
734.52	259.44
734.85	259.14
735.18	258.71
735.51	258.33
735.84	257.97
736.17	257.64
736.50	257.26
736.83	257.03
737.16	256.68
737.49	256.38
737.82	256.00
738.15	255.74
738.48	255.45
738.81	255.11
739.14	254.74
739.47	254.42
739.80	254.13
740.13	253.88
740.46	253.56
740.79	253.24
741.12	252.93
741.45	252.62
741.78	252.26
742.11	251.96
742.44	251.63
742.77	251.35
743.10	251.02
743.43	250.75
743.75	250.34
744.08	250.22
744.41	249.92
744.74	249.70
745.07	249.39
745.40	249.12
745.73	248.92
746.06	248.65
746.39	248.42
746.71	248.14
747.04	247.85
747.37	247.62
747.70	247.40
748.03	247.15
748.36	246.92
748.68	246.68
749.01	246.44
749.34	246.24
749.67	246.01
750.00	245.82
750.33	245.63
750.65	245.43
750.98	245.09
751.31	244.86
751.64	244.67
751.97	244.51
752.29	244.29
752.62	244.02
752.95	243.84
753.28	243.61
753.60	243.40
753.93	243.21
754.26	242.98
754.59	242.72
754.91	242.52
755.24	242.32
755.57	242.13
755.90	241.98
756.22	241.77
756.55	241.59
756.88	241.37
757.20	241.19
757.53	240.98
757.86	240.84
758.19	240.70
758.51	240.49
758.84	240.27
759.17	240.10
759.49	239.94
759.82	239.81
760.15	239.65
760.47	239.49
760.80	239.31
761.13	239.17
761.45	239.04
761.78	238.90
762.11	238.75
762.43	238.60
762.76	238.43
763.08	238.32
763.41	238.18
763.74	238.07
764.06	237.90
764.39	237.77
764.71	237.63
765.04	237.49
765.37	237.37
765.69	237.23
766.02	237.10
766.34	236.98
766.67	236.82
767.00	236.71
767.32	236.66
767.65	236.63
767.97	236.50
768.30	236.36
768.62	236.25
768.95	236.11
769.27	235.98
769.60	235.87
769.92	235.72
770.25	235.55
770.57	235.41
770.90	235.30
771.22	235.20
771.55	235.08
771.87	234.95
772.20	234.85
772.52	234.84
772.85	234.90
773.17	234.80
773.50	234.68
773.82	234.58
774.15	234.43
774.47	234.25
774.80	234.18
775.12	234.12
775.45	234.06
775.77	234.00
776.09	233.96
776.42	233.89
776.74	233.83
777.07	233.78
777.39	233.71
777.72	233.65
778.04	233.61
778.36	233.56
778.69	233.52
779.01	233.44
779.33	233.31
779.66	233.13
779.98	233.06
780.31	233.03
780.63	233.03
780.95	233.02
781.28	232.97
781.60	232.90
781.92	232.83
782.25	232.75
782.57	232.70
782.89	232.61
783.22	232.55
783.54	232.53
783.86	232.54
784.19	232.47
784.51	232.43
784.83	232.37
785.16	232.33
785.48	232.28
785.80	232.25
786.12	232.22
786.45	232.15
786.77	232.13
787.09	232.09
787.42	232.00
787.74	231.96
788.06	231.94
788.38	231.89
788.71	231.85
789.03	231.83
789.35	231.80
789.67	231.76
789.99	231.75
790.32	231.68
790.64	231.64
790.96	231.68
791.28	231.61
791.61	231.56
791.93	231.53
792.25	231.47
792.57	231.48
792.89	231.40
793.21	231.33
793.54	231.32
793.86	231.24
794.18	231.22
794.50	231.17
794.82	231.12
795.14	231.12
795.47	231.12
795.79	231.08
796.11	231.02
796.43	230.99
796.75	230.95
797.07	230.92
797.39	230.87
797.71	230.76
798.04	230.74
798.36	230.72
798.68	230.63
799.00	230.63
799.32	230.56
799.64	230.56
799.96	230.56
800.28	230.50
800.60	230.45
800.92	230.40
801.24	230.36
801.56	230.33
801.89	230.28
802.21	230.21
802.53	230.18
802.85	230.15
803.17	230.19
803.49	230.11
803.81	230.06
804.13	230.04
804.45	230.02
804.77	229.99
805.09	229.91
805.41	229.89
805.73	229.84
806.05	229.78
806.37	229.75
806.69	229.73
807.01	229.69
807.33	229.72
807.65	229.66
807.97	229.63
808.28	229.63
808.60	229.58
808.92	229.56
809.24	229.55
809.56	229.51
809.88	229.43
810.20	229.44
810.52	229.44
810.84	229.41
811.16	229.34
811.48	229.29
811.80	229.33
812.12	229.34
812.43	229.35
812.75	229.33
813.07	229.29
813.39	229.26
813.71	229.24
814.03	229.18
814.35	229.19
814.67	229.14
814.98	229.10
815.30	229.11
815.62	229.06
815.94	228.97
816.26	229.01
816.58	228.97
816.89	228.96
817.21	228.91
817.53	228.89
817.85	228.90
818.17	228.90
818.48	228.87
818.80	228.85
819.12	228.81
819.44	228.79
819.76	228.77
820.07	228.76
820.39	228.74
820.71	228.74
821.03	228.72
821.34	228.73
821.66	228.72
821.98	228.69
822.30	228.70
822.61	228.75
822.93	228.68
823.25	228.69
823.57	228.65
823.88	228.69
824.20	228.65
824.52	228.65
824.83	228.64
825.15	228.60
825.47	228.58
825.79	228.56
826.10	228.56
826.42	228.57
826.74	228.57
827.05	228.56
827.37	228.54
827.69	228.51
828.00	228.51
828.32	228.51
828.64	228.49
828.95	228.50
829.27	228.50
829.58	228.49
829.90	228.46
830.22	228.46
830.53	228.45
830.85	228.42
831.17	228.39
831.48	228.36
831.80	228.35
832.11	228.36
832.43	228.34
832.75	228.32
833.06	228.35
833.38	228.33
833.69	228.30
834.01	228.30
834.32	228.31
834.64	228.30
834.96	228.30
835.27	228.25
835.59	228.22
835.90	228.18
836.22	228.17
836.53	228.16
836.85	228.12
837.16	228.17
837.48	228.18
837.79	228.22
838.11	228.24
838.42	228.26
838.74	228.22
839.05	228.19
839.37	228.19
839.68	228.10
840.00	228.05
840.31	228.08
840.63	228.07
840.94	228.03
841.26	228.02
841.57	227.99
841.88	228.02
842.20	228.02
842.51	228.02
842.83	228.00
843.14	228.07
843.46	228.10
843.77	228.05
844.08	228.05
844.40	228.00
844.71	227.97
845.03	227.93
845.34	227.91
845.65	227.93
845.97	227.93
846.28	227.93
846.60	227.97
846.91	227.95
847.22	227.90
847.54	227.91
847.85	227.88
848.16	227.85
848.48	227.81
848.79	227.84
849.10	227.82
849.42	227.83
849.73	227.74
850.04	227.70
850.36	227.66
850.67	227.67
850.98	227.69
851.30	227.71
851.61	227.70
851.92	227.71
852.23	227.70
852.55	227.70
852.86	227.74
853.17	227.74
853.49	227.76
853.80	227.82
854.11	227.82
854.42	227.85
854.74	227.84
855.05	227.87
855.36	227.84
855.67	227.86
855.99	227.87
856.30	228.01
856.61	227.99
856.92	227.98
857.23	227.94
857.55	227.91
857.86	227.91
858.17	227.93
858.48	227.90
858.79	227.94
859.11	227.94
859.42	227.92
859.73	227.88
860.04	227.85
860.35	227.80
860.66	227.79
860.98	227.76
861.29	227.79
861.60	227.76
861.91	227.77
862.22	227.72
862.53	227.68
862.84	227.55
863.16	227.57
863.47	227.56
863.78	227.57
864.09	227.59
864.40	227.57
864.71	227.56
865.02	227.60
865.33	227.57
865.64	227.55
865.95	227.57
866.27	227.63
866.58	227.64
866.89	227.65
867.20	227.63
867.51	227.61
867.82	227.60
868.13	227.62
868.44	227.58
868.75	227.60
869.06	227.62
869.37	227.61
869.68	227.60
869.99	227.63
870.30	227.60
870.61	227.58
870.92	227.56
871.23	227.56
871.54	227.53
871.85	227.53
872.16	227.54
872.47	227.50
872.78	227.44
873.09	227.47
873.40	227.48
873.71	227.49
874.02	227.52
874.33	227.49
874.64	227.49
874.95	227.49
875.26	227.47
875.56	227.46
875.87	227.45
876.18	227.44
876.49	227.51
876.80	227.52
877.11	227.51
877.42	227.52
877.73	227.52
878.04	227.50
878.35	227.50
878.66	227.49
878.96	227.51
879.27	227.50
879.58	227.48
879.89	227.42
880.20	227.46
880.51	227.44
880.82	227.45
881.12	227.46
881.43	227.45
881.74	227.46
882.05	227.47
882.36	227.48
882.67	227.47
882.97	227.38
883.28	227.36
883.59	227.38
883.90	227.36
884.21	227.36
884.51	227.37
884.82	227.34
885.13	227.34
885.44	227.32
885.74	227.33
886.05	227.32
886.36	227.35
886.67	227.28
886.98	227.34
887.28	227.34
887.59	227.37
887.90	227.37
888.20	227.35
888.51	227.35
888.82	227.36
889.13	227.39
889.43	227.46
889.74	227.49
890.05	227.49
890.35	227.50
890.66	227.50
890.97	227.48
891.28	227.48
891.58	227.50
891.89	227.48
892.20	227.46
892.50	227.46
892.81	227.42
893.12	227.46
893.42	227.43
893.73	227.46
894.04	227.43
894.34	227.42
894.65	227.40
894.95	227.41
895.26	227.39
895.57	227.43
895.87	227.32
896.18	227.35
896.48	227.35
896.79	227.36
897.10	227.37
897.40	227.40
897.71	227.42
898.01	227.42
898.32	227.45
898.63	227.46
898.93	227.48
899.24	227.50
899.54	227.51
899.85	227.49
900.15	227.47
900.46	227.49
900.76	227.53
901.07	227.57
901.38	227.56
901.68	227.57
901.99	227.54
902.29	227.57
902.60	227.55
902.90	227.56
903.21	227.56
903.51	227.54
903.82	227.57
904.12	227.58
904.43	227.55
904.73	227.57
905.03	227.58
905.34	227.63
905.64	227.62
905.95	227.61
906.25	227.61
906.56	227.58
906.86	227.56
907.17	227.55
907.47	227.57
907.77	227.59
908.08	227.59
908.38	227.62
908.69	227.63
908.99	227.65
909.30	227.65
909.60	227.65
909.90	227.65
910.21	227.62
910.51	227.58
910.81	227.59
911.12	227.59
911.42	227.59
911.73	227.52
912.03	227.53
912.33	227.54
912.64	227.53
912.94	227.53
913.24	227.50
913.55	227.48
913.85	227.47
914.15	227.48
914.46	227.47
914.76	227.43
915.06	227.41
915.37	227.38
915.67	227.35
915.97	227.36
916.27	227.34
916.58	227.31
916.88	227.32
917.18	227.30
917.49	227.32
917.79	227.30
918.09	227.28
918.39	227.31
918.70	227.31
919.00	227.28
919.30	227.32
919.60	227.29
919.91	227.26
920.21	227.23
920.51	227.15
920.81	227.14
921.12	227.13
921.42	227.09
921.72	227.08
922.02	227.05
922.32	227.06
922.63	227.05
922.93	227.11
923.23	227.10
923.53	227.09
923.83	227.02
924.13	227.02
924.44	227.02
924.74	227.00
925.04	226.98
925.34	227.01
925.64	226.93
925.94	226.92
926.24	226.99
926.55	227.00
926.85	227.02
927.15	227.01
927.45	227.01
927.75	227.03
928.05	227.02
928.35	227.03
928.65	227.03
928.95	227.03
929.26	227.01
929.56	227.03
929.86	227.05
930.16	227.07
930.46	227.07
930.76	227.07
931.06	227.05
931.36	227.04
931.66	227.08
931.96	227.12
932.26	227.14
932.56	227.13
932.86	227.16
933.16	227.17
933.46	227.17
933.76	227.15
934.06	227.21
934.36	227.26
934.66	227.29
934.96	227.28
935.26	227.31
935.56	227.30
935.86	227.30
936.16	227.29
936.46	227.29
936.76	227.32
937.06	227.32
937.36	227.37
937.66	227.37
937.96	227.34
938.26	227.37
938.56	227.37
938.86	227.36
939.16	227.37
939.46	227.40
939.76	227.42
940.06	227.44
940.35	227.42
940.65	227.36
940.95	227.36
941.25	227.33
941.55	227.33
941.85	227.36
942.15	227.38
942.45	227.42
942.75	227.40
943.04	227.39
943.34	227.40
943.64	227.38
943.94	227.36
944.24	227.37
944.54	227.38
944.84	227.41
945.13	227.40
945.43	227.40
945.73	227.35
946.03	227.34
946.33	227.31
946.62	227.30
946.92	227.29
947.22	227.31
947.52	227.30
947.82	227.26
948.11	227.20
948.41	227.14
948.71	227.10
949.01	227.10
949.31	227.07
949.60	227.07
949.90	227.05
950.20	227.04
950.50	227.00
950.79	226.97
951.09	226.97
951.39	226.96
951.69	226.93
951.98	226.99
952.28	226.97
952.58	226.97
952.87	226.97
953.17	227.00
953.47	226.96
953.76	226.95
954.06	226.95
954.36	226.95
954.66	226.97
954.95	226.98
955.25	226.98
955.55	226.99
955.84	226.99
956.14	227.01
956.44	227.02
956.73	227.02
957.03	227.00
957.32	226.96
957.62	226.93
957.92	226.96
958.21	226.94
958.51	227.04
958.81	227.06
959.10	227.03
959.40	227.01
959.69	227.01
959.99	227.03
960.29	227.00
960.58	226.99
960.88	227.01
961.17	227.02
961.47	227.02
961.76	227.03
962.06	227.02
962.36	227.01
962.65	226.96
962.95	226.96
963.24	226.92
963.54	226.94
963.83	226.97
964.13	226.95
964.42	226.87
964.72	226.80
965.01	226.82
965.31	226.82
965.60	226.80
965.90	226.86
966.19	226.85
966.49	226.86
966.78	226.90
967.08	226.91
967.37	226.90
967.67	226.90
967.96	226.91
968.26	226.93
968.55	226.94
968.85	226.97
969.14	226.99
969.43	227.05
969.73	227.02
970.02	227.01
970.32	227.03
970.61	227.07
970.91	227.05
971.20	227.01
971.49	227.02
971.79	227.07
972.08	227.00
972.38	227.01
972.67	227.05
972.96	227.07
973.26	227.06
973.55	227.09
973.85	227.10
974.14	227.10
974.43	227.09
974.73	227.09
975.02	227.08
975.31	227.11
975.61	227.10
975.90	227.12
976.19	227.14
976.49	227.14
976.78	227.16
977.07	227.16
977.37	227.19
977.66	227.21
977.95	227.19
978.24	227.23
978.54	227.25
978.83	227.23
979.12	227.20
979.42	227.19
979.71	227.19
980.00	227.19
980.29	227.21
980.59	227.23
980.88	227.23
981.17	227.26
981.46	227.23
981.76	227.25
982.05	227.26
982.34	227.24
982.63	227.25
982.93	227.24
983.22	227.25
983.51	227.26
983.80	227.27
984.09	227.32
984.39	227.32
984.68	227.28
984.97	227.26
985.26	227.27
985.55	227.26
985.85	227.24
986.14	227.28
986.43	227.28
986.72	227.28
987.01	227.25
987.30	227.25
987.59	227.24
987.89	227.23
988.18	227.25
988.47	227.28
988.76	227.26
989.05	227.26
989.34	227.27
989.63	227.27
989.92	227.25
990.22	227.21
990.51	227.18
990.80	227.20
991.09	227.21
991.38	227.22
991.67	227.18
991.96	227.13
992.25	227.04
992.54	227.01
992.83	226.97
993.12	227.00
993.41	226.98
993.70	227.00
993.99	227.02
994.28	227.00
994.58	226.99
994.87	226.96
995.16	226.95
995.45	226.91
995.74	226.85
996.03	226.82
996.32	226.82
996.61	226.83
996.90	226.81
997.19	226.81
997.48	226.76
997.77	226.77
998.06	226.81
998.34	226.86
998.63	226.84
998.92	226.84
999.21	226.81
999.50	226.82
999.79	226.81
1000.08	226.78
1000.37	226.75
1000.66	226.73
1000.95	226.77
1001.24	226.75
1001.53	226.78
1001.82	226.79
1002.11	226.80
1002.40	226.79
1002.68	226.84
1002.97	226.90
1003.26	226.88
1003.55	226.92
1003.84	226.95
1004.13	226.97
1004.42	226.97
1004.71	226.97
1004.99	227.00
1005.28	227.03
1005.57	227.01
1005.86	226.97
1006.15	226.95
1006.44	226.95
1006.72	226.95
1007.01	226.91
1007.30	226.91
1007.59	226.89
1007.88	226.91
1008.17	226.90
1008.45	226.90
1008.74	226.86
1009.03	226.82
1009.32	226.82
1009.60	226.81
1009.89	226.80
1010.18	226.78
1010.47	226.79
1010.76	226.78
1011.04	226.77
1011.33	226.78
1011.62	226.80
1011.91	226.86
1012.19	226.92
1012.48	226.94
1012.77	226.95
1013.05	227.00
1013.34	227.03
1013.63	227.04
1013.92	227.04
1014.20	227.05
1014.49	227.06
1014.78	227.05
1015.06	227.02
1015.35	227.04
1015.64	227.08
1015.92	227.09
1016.21	227.08
1016.50	227.09
1016.78	227.16
1017.07	227.18
1017.36	227.17
1017.64	227.18
1017.93	227.19
1018.22	227.15
1018.50	227.13
1018.79	227.15
1019.08	227.09
1019.36	227.11
1019.65	227.12
1019.93	227.15
1020.22	227.20
1020.51	227.21
1020.79	227.21
1021.08	226.96
1021.36	226.64
1021.65	227.12
1021.94	226.68
1022.22	227.46
1022.51	227.09
1022.79	227.72
1023.08	227.59
1023.36	227.55
1023.65	226.72
>>>>>End Processed Spectral Data<<<<<
