SpectraSuite Data File
++++++++++++++++++++++++++++++++++++
Date: Fri Feb 01 17:53:10 EST 2013
User: group
Dark Spectrum Present: No
Reference Spectrum Present: No
Number of Sampled Component Spectra: 1
Spectrometers: USB2E7196
Integration Time (usec): 35000 (USB2E7196)
Spectra Averaged: 100 (USB2E7196)
Boxcar Smoothing: 10 (USB2E7196)
Correct for Electrical Dark: No (USB2E7196)
Strobe/Lamp Enabled: No (USB2E7196)
Correct for Detector Non-linearity: No (USB2E7196)
Correct for Stray Light: No (USB2E7196)
Number of Pixels in Processed Spectrum: 2048
>>>>>Begin Processed Spectral Data<<<<<
339.09	0.00
339.48	213.00
339.86	214.73
340.24	215.93
340.63	216.90
341.01	220.33
341.39	219.79
341.78	220.70
342.16	222.44
342.54	222.81
342.93	211.21
343.31	221.90
343.69	222.44
344.07	222.91
344.46	223.30
344.84	223.69
345.22	223.88
345.60	224.13
345.99	224.33
346.37	224.43
346.75	224.55
347.13	224.64
347.52	224.73
347.90	224.83
348.28	224.83
348.66	224.86
349.05	224.87
349.43	224.91
349.81	224.97
350.19	225.01
350.57	225.06
350.96	225.15
351.34	225.22
351.72	225.28
352.10	225.34
352.48	225.40
352.87	225.43
353.25	225.51
353.63	225.56
354.01	225.61
354.39	225.70
354.77	225.77
355.15	225.87
355.54	225.90
355.92	225.92
356.30	226.00
356.68	226.14
357.06	226.20
357.44	226.27
357.82	226.31
358.20	226.36
358.58	226.45
358.97	226.49
359.35	226.55
359.73	226.64
360.11	226.70
360.49	226.76
360.87	226.84
361.25	226.89
361.63	226.98
362.01	227.04
362.39	227.07
362.77	227.09
363.15	227.09
363.53	227.14
363.91	227.15
364.29	227.19
364.67	227.12
365.05	227.17
365.43	227.18
365.81	227.22
366.19	227.25
366.57	227.31
366.95	227.33
367.33	227.34
367.71	227.33
368.09	227.34
368.47	227.36
368.85	227.34
369.23	227.37
369.61	227.29
369.99	227.29
370.37	227.27
370.75	227.32
371.13	227.30
371.51	227.24
371.89	227.24
372.27	227.20
372.65	227.18
373.03	227.13
373.41	227.07
373.78	227.03
374.16	226.95
374.54	226.87
374.92	226.78
375.30	226.74
375.68	226.66
376.06	226.61
376.44	226.54
376.82	226.49
377.19	226.42
377.57	226.38
377.95	226.31
378.33	226.23
378.71	226.12
379.09	226.07
379.47	226.06
379.84	225.99
380.22	225.92
380.60	225.83
380.98	225.77
381.36	225.70
381.73	225.64
382.11	225.61
382.49	225.52
382.87	225.48
383.25	225.41
383.62	225.48
384.00	225.40
384.38	225.37
384.76	225.30
385.13	225.29
385.51	225.22
385.89	225.16
386.27	225.13
386.64	225.11
387.02	225.07
387.40	225.00
387.78	224.96
388.15	224.92
388.53	224.89
388.91	224.87
389.29	224.86
389.66	224.81
390.04	224.72
390.42	224.73
390.79	224.72
391.17	224.71
391.55	224.57
391.92	224.60
392.30	224.57
392.68	224.58
393.05	224.55
393.43	224.57
393.81	224.59
394.18	224.57
394.56	224.54
394.94	224.56
395.31	224.57
395.69	224.63
396.06	224.68
396.44	224.69
396.82	224.69
397.19	224.76
397.57	224.78
397.95	224.86
398.32	224.91
398.70	224.95
399.07	225.03
399.45	225.06
399.82	225.10
400.20	225.12
400.58	225.21
400.95	225.24
401.33	225.36
401.70	225.51
402.08	225.62
402.45	225.73
402.83	225.86
403.20	225.96
403.58	226.05
403.95	226.18
404.33	226.32
404.71	226.45
405.08	226.64
405.46	226.78
405.83	226.93
406.21	227.09
406.58	227.31
406.96	227.46
407.33	227.66
407.70	227.89
408.08	228.23
408.45	228.45
408.83	228.74
409.20	228.97
409.58	229.16
409.95	229.50
410.33	229.84
410.70	230.15
411.08	230.54
411.45	230.89
411.82	231.27
412.20	231.76
412.57	232.28
412.95	232.69
413.32	233.21
413.69	233.75
414.07	234.33
414.44	234.92
414.82	235.56
415.19	236.31
415.56	237.04
415.94	237.78
416.31	238.64
416.68	239.44
417.06	240.40
417.43	241.35
417.81	242.33
418.18	243.37
418.55	244.46
418.93	245.56
419.30	246.81
419.67	248.03
420.04	249.30
420.42	250.62
420.79	252.14
421.16	253.71
421.54	255.28
421.91	256.89
422.28	258.57
422.66	260.33
423.03	262.02
423.40	263.78
423.77	265.63
424.15	267.51
424.52	269.51
424.89	271.58
425.26	273.63
425.64	275.59
426.01	277.66
426.38	279.88
426.75	282.11
427.13	284.39
427.50	286.80
427.87	289.25
428.24	291.71
428.61	294.04
428.99	296.55
429.36	299.35
429.73	302.07
430.10	304.75
430.47	307.47
430.85	310.29
431.22	313.23
431.59	316.35
431.96	319.29
432.33	322.56
432.70	325.70
433.08	329.38
433.45	332.83
433.82	336.31
434.19	340.08
434.56	343.76
434.93	347.24
435.30	350.72
435.68	354.57
436.05	358.36
436.42	362.06
436.79	365.38
437.16	368.93
437.53	372.68
437.90	376.35
438.27	379.95
438.64	383.70
439.01	387.16
439.38	390.22
439.75	393.14
440.13	396.46
440.50	399.62
440.87	402.15
441.24	404.71
441.61	407.59
441.98	409.56
442.35	412.00
442.72	414.47
443.09	416.83
443.46	418.14
443.83	418.87
444.20	419.54
444.57	420.72
444.94	421.09
445.31	421.55
445.68	422.06
446.05	422.22
446.42	421.71
446.79	421.19
447.16	420.55
447.53	420.13
447.90	418.59
448.27	417.08
448.64	414.92
449.01	413.46
449.37	410.82
449.74	408.35
450.11	405.39
450.48	402.13
450.85	398.84
451.22	395.99
451.59	393.36
451.96	390.83
452.33	387.40
452.70	384.30
453.07	380.54
453.43	376.71
453.80	373.02
454.17	369.54
454.54	366.15
454.91	362.53
455.28	359.01
455.65	355.69
456.02	352.37
456.38	349.54
456.75	345.98
457.12	343.00
457.49	340.04
457.86	337.16
458.23	334.69
458.59	331.95
458.96	329.20
459.33	326.71
459.70	324.25
460.07	322.19
460.43	319.88
460.80	317.73
461.17	315.73
461.54	313.77
461.91	311.81
462.27	309.86
462.64	308.21
463.01	306.37
463.38	304.65
463.74	302.84
464.11	301.27
464.48	299.90
464.85	298.42
465.21	297.27
465.58	296.03
465.95	294.59
466.32	293.38
466.68	292.13
467.05	290.90
467.42	289.70
467.78	288.50
468.15	287.36
468.52	286.46
468.88	285.37
469.25	284.28
469.62	283.46
469.98	282.55
470.35	281.68
470.72	280.90
471.08	280.01
471.45	279.32
471.82	278.59
472.18	277.77
472.55	277.16
472.92	276.40
473.28	275.77
473.65	275.15
474.02	274.50
474.38	274.00
474.75	273.58
475.11	273.09
475.48	272.68
475.85	272.36
476.21	272.06
476.58	271.78
476.94	271.56
477.31	271.29
477.67	271.05
478.04	270.82
478.41	270.69
478.77	270.64
479.14	270.49
479.50	270.44
479.87	270.47
480.23	270.48
480.60	270.50
480.96	270.55
481.33	270.72
481.69	270.89
482.06	271.08
482.42	271.21
482.79	271.41
483.15	271.72
483.52	272.11
483.88	272.38
484.25	272.74
484.61	273.12
484.98	273.53
485.34	274.07
485.71	274.67
486.07	275.25
486.44	275.85
486.80	276.55
487.17	277.28
487.53	278.12
487.90	279.01
488.26	280.00
488.62	280.97
488.99	282.01
489.35	283.05
489.72	284.22
490.08	285.45
490.44	286.70
490.81	288.06
491.17	289.41
491.54	290.94
491.90	292.54
492.26	294.27
492.63	296.13
492.99	297.98
493.36	299.96
493.72	302.09
494.08	304.28
494.45	306.62
494.81	309.11
495.17	311.63
495.54	314.35
495.90	317.16
496.26	320.09
496.63	323.16
496.99	326.47
497.35	329.84
497.72	333.47
498.08	337.18
498.44	341.05
498.80	345.20
499.17	349.49
499.53	353.89
499.89	358.54
500.26	363.25
500.62	368.18
500.98	373.41
501.34	378.74
501.71	384.34
502.07	390.10
502.43	396.07
502.79	402.19
503.16	408.56
503.52	415.15
503.88	422.00
504.24	429.04
504.60	436.29
504.97	443.87
505.33	451.62
505.69	459.83
506.05	468.07
506.41	476.42
506.78	485.01
507.14	493.99
507.50	503.20
507.86	512.81
508.22	522.62
508.59	532.42
508.95	542.61
509.31	553.03
509.67	563.77
510.03	574.70
510.39	585.98
510.75	597.51
511.12	609.14
511.48	621.14
511.84	633.34
512.20	645.62
512.56	658.40
512.92	671.37
513.28	684.59
513.64	697.92
514.00	711.52
514.37	725.42
514.73	739.34
515.09	753.28
515.45	767.54
515.81	782.10
516.17	797.06
516.53	812.29
516.89	827.59
517.25	842.87
517.61	858.28
517.97	873.85
518.33	889.45
518.69	905.44
519.05	921.62
519.41	937.95
519.77	954.79
520.13	971.48
520.49	988.24
520.85	1004.88
521.21	1021.87
521.57	1039.42
521.93	1056.55
522.29	1074.33
522.65	1092.03
523.01	1109.62
523.37	1127.01
523.73	1144.72
524.09	1162.11
524.45	1179.81
524.81	1197.96
525.17	1216.38
525.53	1234.77
525.89	1253.12
526.25	1271.47
526.61	1289.42
526.97	1307.85
527.33	1325.96
527.68	1344.13
528.04	1362.11
528.40	1380.25
528.76	1399.09
529.12	1417.46
529.48	1436.20
529.84	1453.92
530.20	1472.33
530.56	1491.04
530.91	1510.32
531.27	1528.95
531.63	1547.40
531.99	1565.83
532.35	1583.70
532.71	1601.44
533.07	1619.63
533.42	1637.57
533.78	1655.67
534.14	1673.95
534.50	1691.13
534.86	1708.80
535.21	1726.06
535.57	1744.07
535.93	1761.51
536.29	1778.19
536.65	1795.11
537.00	1811.64
537.36	1829.10
537.72	1845.66
538.08	1862.28
538.44	1878.05
538.79	1893.98
539.15	1909.43
539.51	1925.23
539.87	1941.59
540.22	1957.34
540.58	1973.12
540.94	1988.42
541.29	2003.16
541.65	2017.77
542.01	2033.18
542.37	2047.75
542.72	2062.13
543.08	2076.03
543.44	2090.52
543.79	2103.88
544.15	2117.05
544.51	2130.80
544.87	2143.83
545.22	2156.78
545.58	2169.05
545.94	2180.85
546.29	2192.79
546.65	2204.82
547.01	2216.07
547.36	2226.85
547.72	2237.38
548.07	2247.45
548.43	2257.54
548.79	2267.32
549.14	2276.99
549.50	2286.17
549.86	2295.67
550.21	2304.91
550.57	2313.94
550.92	2322.51
551.28	2331.46
551.64	2340.42
551.99	2348.74
552.35	2356.69
552.70	2364.65
553.06	2372.36
553.41	2380.52
553.77	2387.99
554.13	2395.84
554.48	2403.68
554.84	2411.05
555.19	2417.91
555.55	2424.66
555.90	2430.87
556.26	2437.71
556.61	2443.82
556.97	2449.84
557.32	2455.48
557.68	2461.12
558.03	2466.83
558.39	2471.95
558.74	2478.06
559.10	2483.36
559.45	2488.43
559.81	2494.13
560.16	2499.22
560.52	2503.75
560.87	2508.44
561.23	2512.55
561.58	2516.67
561.94	2520.57
562.29	2523.87
562.64	2528.06
563.00	2531.85
563.35	2536.63
563.71	2541.05
564.06	2545.33
564.42	2549.44
564.77	2553.26
565.12	2556.94
565.48	2560.24
565.83	2563.34
566.19	2565.88
566.54	2567.65
566.89	2569.93
567.25	2571.54
567.60	2573.89
567.96	2576.77
568.31	2578.67
568.66	2580.77
569.02	2582.22
569.37	2583.35
569.72	2585.20
570.08	2586.10
570.43	2586.88
570.78	2586.98
571.14	2586.01
571.49	2585.52
571.84	2585.65
572.20	2585.04
572.55	2584.32
572.90	2582.88
573.26	2581.82
573.61	2580.36
573.96	2579.23
574.31	2576.51
574.67	2573.74
575.02	2570.12
575.37	2566.74
575.72	2563.08
576.08	2559.68
576.43	2556.42
576.78	2553.05
577.13	2549.85
577.49	2546.53
577.84	2543.00
578.19	2539.13
578.54	2535.65
578.90	2531.38
579.25	2525.70
579.60	2520.64
579.95	2515.56
580.30	2510.36
580.66	2505.07
581.01	2499.72
581.36	2494.44
581.71	2490.15
582.06	2485.61
582.42	2481.09
582.77	2475.64
583.12	2470.65
583.47	2465.89
583.82	2460.69
584.17	2454.96
584.53	2449.01
584.88	2443.07
585.23	2436.96
585.58	2431.16
585.93	2424.98
586.28	2419.61
586.63	2414.22
586.98	2408.56
587.34	2403.31
587.69	2397.90
588.04	2392.26
588.39	2386.15
588.74	2379.00
589.09	2372.02
589.44	2364.45
589.79	2357.52
590.14	2351.17
590.49	2343.87
590.84	2336.58
591.19	2329.93
591.54	2322.70
591.89	2314.79
592.25	2307.34
592.60	2299.16
592.95	2290.71
593.30	2282.61
593.65	2274.02
594.00	2265.93
594.35	2257.82
594.70	2248.69
595.05	2240.88
595.40	2232.49
595.75	2223.94
596.10	2217.01
596.45	2209.65
596.80	2202.67
597.15	2195.29
597.50	2187.77
597.85	2180.64
598.19	2173.31
598.54	2165.37
598.89	2157.89
599.24	2150.92
599.59	2143.48
599.94	2136.44
600.29	2129.07
600.64	2121.35
600.99	2113.05
601.34	2105.45
601.69	2097.35
602.04	2089.56
602.39	2081.01
602.74	2073.26
603.08	2065.61
603.43	2057.73
603.78	2049.10
604.13	2040.79
604.48	2032.57
604.83	2024.30
605.18	2016.33
605.53	2007.15
605.87	1997.88
606.22	1989.43
606.57	1980.35
606.92	1971.53
607.27	1963.40
607.62	1955.62
607.96	1947.47
608.31	1940.02
608.66	1931.15
609.01	1922.49
609.36	1913.82
609.70	1904.65
610.05	1895.39
610.40	1886.53
610.75	1876.97
611.10	1868.23
611.44	1858.35
611.79	1848.98
612.14	1838.90
612.49	1828.13
612.83	1818.27
613.18	1808.73
613.53	1799.32
613.88	1789.34
614.22	1779.79
614.57	1769.50
614.92	1759.90
615.27	1751.15
615.61	1741.38
615.96	1732.02
616.31	1723.09
616.65	1714.43
617.00	1705.59
617.35	1696.48
617.70	1686.92
618.04	1677.04
618.39	1667.25
618.74	1658.49
619.08	1648.79
619.43	1640.01
619.78	1631.93
620.12	1623.57
620.47	1614.90
620.82	1605.33
621.16	1596.55
621.51	1587.65
621.85	1578.74
622.20	1568.99
622.55	1559.08
622.89	1549.89
623.24	1540.92
623.59	1532.17
623.93	1523.34
624.28	1514.83
624.62	1506.17
624.97	1497.68
625.32	1489.72
625.66	1481.70
626.01	1473.34
626.35	1464.89
626.70	1455.71
627.04	1446.78
627.39	1437.73
627.73	1429.02
628.08	1421.07
628.43	1412.80
628.77	1404.31
629.12	1395.67
629.46	1387.18
629.81	1378.44
630.15	1369.91
630.50	1361.29
630.84	1351.95
631.19	1342.68
631.53	1333.83
631.88	1325.02
632.22	1316.17
632.57	1307.63
632.91	1298.79
633.26	1290.17
633.60	1281.37
633.95	1273.11
634.29	1264.83
634.64	1257.01
634.98	1248.54
635.32	1240.11
635.67	1232.29
636.01	1224.50
636.36	1216.64
636.70	1209.13
637.05	1201.55
637.39	1194.15
637.73	1186.58
638.08	1179.78
638.42	1172.84
638.77	1165.46
639.11	1157.96
639.45	1150.58
639.80	1142.92
640.14	1135.53
640.49	1128.03
640.83	1120.81
641.17	1113.67
641.52	1106.41
641.86	1098.94
642.20	1092.10
642.55	1084.77
642.89	1077.39
643.23	1069.70
643.58	1062.99
643.92	1055.85
644.26	1048.99
644.61	1041.89
644.95	1034.99
645.29	1027.45
645.64	1019.73
645.98	1012.44
646.32	1005.47
646.66	998.52
647.01	991.81
647.35	985.29
647.69	978.42
648.04	971.96
648.38	965.27
648.72	958.47
649.06	951.57
649.41	944.79
649.75	938.08
650.09	931.11
650.43	924.62
650.78	917.58
651.12	910.72
651.46	904.07
651.80	897.65
652.14	891.42
652.49	885.31
652.83	879.34
653.17	872.87
653.51	866.50
653.85	860.25
654.20	853.87
654.54	846.95
654.88	840.42
655.22	833.65
655.56	827.08
655.90	820.66
656.25	814.71
656.59	808.56
656.93	802.63
657.27	796.82
657.61	790.60
657.95	784.77
658.29	779.01
658.64	772.99
658.98	766.79
659.32	760.50
659.66	754.48
660.00	748.52
660.34	742.83
660.68	737.10
661.02	731.33
661.36	725.97
661.70	720.85
662.05	715.89
662.39	711.07
662.73	705.93
663.07	700.91
663.41	695.78
663.75	690.68
664.09	685.48
664.43	680.47
664.77	675.79
665.11	670.91
665.45	666.10
665.79	661.42
666.13	656.73
666.47	652.07
666.81	647.31
667.15	642.50
667.49	638.05
667.83	633.63
668.17	629.12
668.51	624.44
668.85	619.78
669.19	615.30
669.53	610.90
669.87	606.58
670.21	602.41
670.55	598.13
670.89	594.15
671.23	590.27
671.57	586.23
671.91	582.19
672.25	578.11
672.58	574.13
672.92	570.20
673.26	566.54
673.60	562.95
673.94	559.42
674.28	556.05
674.62	552.68
674.96	549.19
675.30	545.89
675.64	542.55
675.97	539.29
676.31	536.05
676.65	532.59
676.99	529.48
677.33	526.15
677.67	523.00
678.01	519.62
678.34	516.18
678.68	512.90
679.02	509.68
679.36	506.56
679.70	503.37
680.04	500.25
680.37	497.06
680.71	493.78
681.05	490.78
681.39	487.69
681.73	484.63
682.06	481.74
682.40	478.84
682.74	475.92
683.08	473.05
683.42	470.08
683.75	467.31
684.09	464.35
684.43	461.58
684.77	458.78
685.10	456.04
685.44	453.36
685.78	450.69
686.12	448.06
686.45	445.44
686.79	442.86
687.13	440.33
687.46	437.73
687.80	435.24
688.14	432.59
688.48	430.22
688.81	427.66
689.15	425.18
689.49	422.65
689.82	420.25
690.16	417.82
690.50	415.56
690.83	413.30
691.17	410.99
691.51	408.72
691.84	406.57
692.18	404.38
692.52	402.14
692.85	399.91
693.19	397.69
693.52	395.52
693.86	393.39
694.20	391.33
694.53	389.31
694.87	387.28
695.21	385.26
695.54	383.12
695.88	381.06
696.21	379.05
696.55	377.15
696.88	375.16
697.22	373.27
697.56	371.34
697.89	369.44
698.23	367.61
698.56	365.79
698.90	363.96
699.23	362.09
699.57	360.27
699.90	358.51
700.24	356.78
700.58	355.03
700.91	353.34
701.25	351.67
701.58	350.13
701.92	348.53
702.25	346.97
702.59	345.46
702.92	344.02
703.26	342.53
703.59	341.03
703.93	339.73
704.26	338.32
704.60	336.90
704.93	335.46
705.26	334.01
705.60	332.59
705.93	331.24
706.27	329.99
706.60	328.80
706.94	327.51
707.27	326.26
707.61	325.04
707.94	323.85
708.27	322.59
708.61	321.30
708.94	320.10
709.28	318.95
709.61	317.80
709.94	316.65
710.28	315.47
710.61	314.33
710.95	313.05
711.28	311.97
711.61	310.85
711.95	309.79
712.28	308.72
712.61	307.66
712.95	306.60
713.28	305.52
713.61	304.45
713.95	303.47
714.28	302.46
714.61	301.45
714.95	300.47
715.28	299.50
715.61	298.50
715.95	297.55
716.28	296.53
716.61	295.58
716.95	294.61
717.28	293.72
717.61	292.84
717.94	292.00
718.28	291.05
718.61	290.25
718.94	289.42
719.27	288.65
719.61	287.84
719.94	287.07
720.27	286.30
720.60	285.54
720.94	284.84
721.27	284.13
721.60	283.48
721.93	282.81
722.27	282.16
722.60	281.53
722.93	280.87
723.26	280.28
723.59	279.61
723.93	279.01
724.26	278.37
724.59	277.70
724.92	277.08
725.25	276.52
725.59	275.91
725.92	275.34
726.25	274.74
726.58	274.21
726.91	273.62
727.24	273.07
727.57	272.55
727.91	271.95
728.24	271.43
728.57	270.87
728.90	270.31
729.23	269.70
729.56	269.18
729.89	268.64
730.22	268.10
730.55	267.57
730.89	267.06
731.22	266.59
731.55	266.12
731.88	265.62
732.21	265.11
732.54	264.56
732.87	264.06
733.20	263.58
733.53	263.12
733.86	262.70
734.19	262.24
734.52	261.78
734.85	261.42
735.18	260.92
735.51	260.52
735.84	260.10
736.17	259.72
736.50	259.26
736.83	258.97
737.16	258.55
737.49	258.19
737.82	257.79
738.15	257.36
738.48	256.93
738.81	256.57
739.14	256.22
739.47	255.89
739.80	255.51
740.13	255.19
740.46	254.85
740.79	254.49
741.12	254.15
741.45	253.79
741.78	253.40
742.11	253.10
742.44	252.72
742.77	252.39
743.10	252.03
743.43	251.68
743.75	251.25
744.08	251.08
744.41	250.77
744.74	250.41
745.07	250.12
745.40	249.90
745.73	249.66
746.06	249.35
746.39	249.07
746.71	248.78
747.04	248.39
747.37	248.09
747.70	247.79
748.03	247.54
748.36	247.28
748.68	247.01
749.01	246.76
749.34	246.52
749.67	246.27
750.00	246.05
750.33	245.92
750.65	245.69
750.98	245.32
751.31	245.03
751.64	244.82
751.97	244.63
752.29	244.35
752.62	244.04
752.95	243.82
753.28	243.59
753.60	243.36
753.93	243.23
754.26	242.98
754.59	242.73
754.91	242.44
755.24	242.21
755.57	242.01
755.90	241.77
756.22	241.52
756.55	241.30
756.88	241.07
757.20	240.81
757.53	240.58
757.86	240.36
758.19	240.21
758.51	240.03
758.84	239.77
759.17	239.58
759.49	239.43
759.82	239.27
760.15	239.10
760.47	238.95
760.80	238.76
761.13	238.66
761.45	238.50
761.78	238.37
762.11	238.22
762.43	238.06
762.76	237.92
763.08	237.78
763.41	237.64
763.74	237.49
764.06	237.33
764.39	237.19
764.71	237.06
765.04	236.92
765.37	236.79
765.69	236.69
766.02	236.58
766.34	236.44
766.67	236.29
767.00	236.18
767.32	236.10
767.65	236.01
767.97	235.83
768.30	235.73
768.62	235.61
768.95	235.45
769.27	235.32
769.60	235.19
769.92	235.06
770.25	234.91
770.57	234.78
770.90	234.67
771.22	234.54
771.55	234.40
771.87	234.31
772.20	234.18
772.52	234.15
772.85	234.15
773.17	234.05
773.50	233.92
773.82	233.79
774.15	233.63
774.47	233.50
774.80	233.40
775.12	233.29
775.45	233.21
775.77	233.14
776.09	233.03
776.42	232.96
776.74	232.93
777.07	232.87
777.39	232.79
777.72	232.70
778.04	232.63
778.36	232.57
778.69	232.49
779.01	232.41
779.33	232.25
779.66	232.06
779.98	231.96
780.31	231.88
780.63	231.82
780.95	231.76
781.28	231.66
781.60	231.56
781.92	231.46
782.25	231.36
782.57	231.29
782.89	231.20
783.22	231.11
783.54	231.01
783.86	230.93
784.19	230.86
784.51	230.81
784.83	230.74
785.16	230.64
785.48	230.57
785.80	230.50
786.12	230.43
786.45	230.36
786.77	230.32
787.09	230.25
787.42	230.16
787.74	230.08
788.06	230.02
788.38	229.99
788.71	229.93
789.03	229.88
789.35	229.83
789.67	229.81
789.99	229.76
790.32	229.71
790.64	229.66
790.96	229.65
791.28	229.55
791.61	229.50
791.93	229.45
792.25	229.41
792.57	229.40
792.89	229.34
793.21	229.32
793.54	229.27
793.86	229.21
794.18	229.19
794.50	229.15
794.82	229.11
795.14	229.08
795.47	229.02
795.79	228.99
796.11	228.93
796.43	228.85
796.75	228.80
797.07	228.74
797.39	228.69
797.71	228.61
798.04	228.58
798.36	228.56
798.68	228.51
799.00	228.47
799.32	228.37
799.64	228.33
799.96	228.24
800.28	228.20
800.60	228.17
800.92	228.13
801.24	228.08
801.56	228.04
801.89	228.03
802.21	228.04
802.53	228.00
802.85	227.96
803.17	227.97
803.49	227.92
803.81	227.87
804.13	227.83
804.45	227.79
804.77	227.77
805.09	227.71
805.41	227.67
805.73	227.62
806.05	227.59
806.37	227.52
806.69	227.51
807.01	227.47
807.33	227.44
807.65	227.34
807.97	227.37
808.28	227.34
808.60	227.27
808.92	227.24
809.24	227.26
809.56	227.25
809.88	227.19
810.20	227.16
810.52	227.13
810.84	227.09
811.16	227.05
811.48	227.04
811.80	227.05
812.12	227.04
812.43	227.02
812.75	226.99
813.07	227.01
813.39	227.01
813.71	226.96
814.03	226.95
814.35	226.96
814.67	226.87
814.98	226.83
815.30	226.79
815.62	226.73
815.94	226.65
816.26	226.66
816.58	226.63
816.89	226.64
817.21	226.61
817.53	226.61
817.85	226.62
818.17	226.57
818.48	226.54
818.80	226.54
819.12	226.50
819.44	226.48
819.76	226.43
820.07	226.40
820.39	226.43
820.71	226.40
821.03	226.41
821.34	226.39
821.66	226.38
821.98	226.37
822.30	226.36
822.61	226.42
822.93	226.34
823.25	226.33
823.57	226.31
823.88	226.33
824.20	226.32
824.52	226.30
824.83	226.31
825.15	226.28
825.47	226.24
825.79	226.25
826.10	226.20
826.42	226.20
826.74	226.20
827.05	226.15
827.37	226.13
827.69	226.09
828.00	226.04
828.32	226.04
828.64	226.02
828.95	226.07
829.27	226.01
829.58	226.01
829.90	226.02
830.22	226.00
830.53	226.00
830.85	225.97
831.17	225.95
831.48	225.93
831.80	225.91
832.11	225.91
832.43	225.88
832.75	225.91
833.06	225.98
833.38	225.93
833.69	225.91
834.01	225.92
834.32	225.91
834.64	225.91
834.96	225.87
835.27	225.86
835.59	225.82
835.90	225.77
836.22	225.76
836.53	225.71
836.85	225.68
837.16	225.73
837.48	225.72
837.79	225.74
838.11	225.71
838.42	225.69
838.74	225.70
839.05	225.69
839.37	225.69
839.68	225.60
840.00	225.59
840.31	225.63
840.63	225.60
840.94	225.58
841.26	225.57
841.57	225.59
841.88	225.60
842.20	225.59
842.51	225.58
842.83	225.57
843.14	225.66
843.46	225.67
843.77	225.61
844.08	225.59
844.40	225.52
844.71	225.50
845.03	225.50
845.34	225.48
845.65	225.45
845.97	225.45
846.28	225.42
846.60	225.42
846.91	225.37
847.22	225.37
847.54	225.37
847.85	225.39
848.16	225.36
848.48	225.35
848.79	225.38
849.10	225.41
849.42	225.38
849.73	225.31
850.04	225.29
850.36	225.24
850.67	225.22
850.98	225.26
851.30	225.30
851.61	225.28
851.92	225.25
852.23	225.29
852.55	225.25
852.86	225.28
853.17	225.31
853.49	225.32
853.80	225.35
854.11	225.35
854.42	225.37
854.74	225.38
855.05	225.37
855.36	225.31
855.67	225.33
855.99	225.35
856.30	225.47
856.61	225.47
856.92	225.48
857.23	225.51
857.55	225.50
857.86	225.48
858.17	225.49
858.48	225.47
858.79	225.47
859.11	225.44
859.42	225.42
859.73	225.41
860.04	225.40
860.35	225.34
860.66	225.34
860.98	225.32
861.29	225.31
861.60	225.28
861.91	225.32
862.22	225.26
862.53	225.25
862.84	225.09
863.16	225.13
863.47	225.13
863.78	225.11
864.09	225.11
864.40	225.11
864.71	225.09
865.02	225.11
865.33	225.08
865.64	225.11
865.95	225.11
866.27	225.13
866.58	225.12
866.89	225.16
867.20	225.12
867.51	225.11
867.82	225.12
868.13	225.17
868.44	225.14
868.75	225.15
869.06	225.12
869.37	225.15
869.68	225.09
869.99	225.09
870.30	225.07
870.61	225.06
870.92	225.03
871.23	225.04
871.54	225.08
871.85	225.09
872.16	225.11
872.47	225.09
872.78	225.04
873.09	225.06
873.40	225.05
873.71	225.11
874.02	225.07
874.33	225.08
874.64	225.02
874.95	225.03
875.26	225.02
875.56	225.03
875.87	225.03
876.18	225.03
876.49	225.11
876.80	225.10
877.11	225.10
877.42	225.12
877.73	225.13
878.04	225.07
878.35	225.07
878.66	225.05
878.96	225.07
879.27	225.06
879.58	225.04
879.89	225.04
880.20	225.06
880.51	225.08
880.82	225.09
881.12	225.11
881.43	225.08
881.74	225.08
882.05	225.04
882.36	225.05
882.67	225.06
882.97	224.96
883.28	224.94
883.59	224.94
883.90	224.94
884.21	224.93
884.51	224.93
884.82	224.90
885.13	224.89
885.44	224.87
885.74	224.88
886.05	224.89
886.36	224.84
886.67	224.78
886.98	224.82
887.28	224.81
887.59	224.81
887.90	224.79
888.20	224.79
888.51	224.89
888.82	224.86
889.13	224.87
889.43	224.94
889.74	224.96
890.05	224.98
890.35	224.96
890.66	224.97
890.97	224.95
891.28	224.94
891.58	224.97
891.89	224.96
892.20	224.94
892.50	224.93
892.81	224.94
893.12	224.95
893.42	224.93
893.73	224.95
894.04	224.94
894.34	224.95
894.65	224.93
894.95	224.88
895.26	224.90
895.57	224.91
895.87	224.83
896.18	224.86
896.48	224.85
896.79	224.86
897.10	224.86
897.40	224.88
897.71	224.92
898.01	224.88
898.32	224.91
898.63	224.91
898.93	224.90
899.24	224.94
899.54	224.95
899.85	224.96
900.15	224.93
900.46	224.94
900.76	224.96
901.07	224.97
901.38	224.96
901.68	224.96
901.99	224.92
902.29	224.92
902.60	224.90
902.90	224.87
903.21	224.88
903.51	224.85
903.82	224.88
904.12	224.88
904.43	224.91
904.73	224.91
905.03	224.93
905.34	225.00
905.64	224.98
905.95	224.92
906.25	224.90
906.56	224.90
906.86	224.94
907.17	224.92
907.47	224.91
907.77	224.90
908.08	224.90
908.38	224.89
908.69	224.93
908.99	224.92
909.30	224.95
909.60	224.93
909.90	224.96
910.21	224.92
910.51	224.88
910.81	224.84
911.12	224.81
911.42	224.79
911.73	224.72
912.03	224.72
912.33	224.77
912.64	224.74
912.94	224.73
913.24	224.69
913.55	224.68
913.85	224.66
914.15	224.70
914.46	224.69
914.76	224.68
915.06	224.64
915.37	224.61
915.67	224.60
915.97	224.60
916.27	224.59
916.58	224.58
916.88	224.62
917.18	224.62
917.49	224.71
917.79	224.71
918.09	224.74
918.39	224.75
918.70	224.75
919.00	224.78
919.30	224.83
919.60	224.82
919.91	224.82
920.21	224.81
920.51	224.76
920.81	224.76
921.12	224.79
921.42	224.82
921.72	224.85
922.02	224.83
922.32	224.83
922.63	224.82
922.93	224.87
923.23	224.84
923.53	224.83
923.83	224.78
924.13	224.77
924.44	224.75
924.74	224.76
925.04	224.76
925.34	224.74
925.64	224.64
925.94	224.64
926.24	224.71
926.55	224.75
926.85	224.77
927.15	224.77
927.45	224.75
927.75	224.73
928.05	224.74
928.35	224.76
928.65	224.76
928.95	224.76
929.26	224.72
929.56	224.75
929.86	224.77
930.16	224.74
930.46	224.74
930.76	224.75
931.06	224.72
931.36	224.69
931.66	224.70
931.96	224.73
932.26	224.75
932.56	224.68
932.86	224.66
933.16	224.66
933.46	224.66
933.76	224.64
934.06	224.67
934.36	224.70
934.66	224.70
934.96	224.68
935.26	224.70
935.56	224.71
935.86	224.70
936.16	224.69
936.46	224.67
936.76	224.70
937.06	224.65
937.36	224.65
937.66	224.66
937.96	224.68
938.26	224.65
938.56	224.63
938.86	224.68
939.16	224.68
939.46	224.70
939.76	224.70
940.06	224.73
940.35	224.69
940.65	224.64
940.95	224.63
941.25	224.62
941.55	224.60
941.85	224.60
942.15	224.60
942.45	224.63
942.75	224.64
943.04	224.59
943.34	224.61
943.64	224.62
943.94	224.62
944.24	224.58
944.54	224.61
944.84	224.62
945.13	224.58
945.43	224.56
945.73	224.54
946.03	224.52
946.33	224.51
946.62	224.51
946.92	224.51
947.22	224.50
947.52	224.52
947.82	224.51
948.11	224.50
948.41	224.48
948.71	224.48
949.01	224.48
949.31	224.52
949.60	224.53
949.90	224.54
950.20	224.54
950.50	224.55
950.79	224.53
951.09	224.56
951.39	224.57
951.69	224.59
951.98	224.63
952.28	224.63
952.58	224.61
952.87	224.63
953.17	224.63
953.47	224.63
953.76	224.63
954.06	224.62
954.36	224.62
954.66	224.61
954.95	224.58
955.25	224.61
955.55	224.61
955.84	224.60
956.14	224.60
956.44	224.61
956.73	224.60
957.03	224.63
957.32	224.61
957.62	224.62
957.92	224.68
958.21	224.66
958.51	224.78
958.81	224.81
959.10	224.79
959.40	224.81
959.69	224.82
959.99	224.83
960.29	224.85
960.58	224.86
960.88	224.93
961.17	224.94
961.47	224.96
961.76	224.99
962.06	225.01
962.36	225.01
962.65	225.00
962.95	225.01
963.24	224.98
963.54	224.99
963.83	224.98
964.13	224.94
964.42	224.91
964.72	224.84
965.01	224.85
965.31	224.86
965.60	224.83
965.90	224.93
966.19	224.91
966.49	224.90
966.78	224.89
967.08	224.87
967.37	224.88
967.67	224.84
967.96	224.84
968.26	224.83
968.55	224.83
968.85	224.80
969.14	224.81
969.43	224.81
969.73	224.79
970.02	224.76
970.32	224.74
970.61	224.75
970.91	224.70
971.20	224.70
971.49	224.68
971.79	224.70
972.08	224.60
972.38	224.61
972.67	224.61
972.96	224.61
973.26	224.59
973.55	224.61
973.85	224.59
974.14	224.54
974.43	224.55
974.73	224.53
975.02	224.52
975.31	224.48
975.61	224.48
975.90	224.44
976.19	224.42
976.49	224.42
976.78	224.41
977.07	224.42
977.37	224.35
977.66	224.37
977.95	224.36
978.24	224.38
978.54	224.35
978.83	224.33
979.12	224.32
979.42	224.29
979.71	224.27
980.00	224.32
980.29	224.32
980.59	224.29
980.88	224.30
981.17	224.29
981.46	224.31
981.76	224.35
982.05	224.41
982.34	224.41
982.63	224.39
982.93	224.39
983.22	224.42
983.51	224.46
983.80	224.45
984.09	224.45
984.39	224.44
984.68	224.43
984.97	224.42
985.26	224.40
985.55	224.44
985.85	224.40
986.14	224.37
986.43	224.40
986.72	224.37
987.01	224.36
987.30	224.37
987.59	224.36
987.89	224.31
988.18	224.28
988.47	224.28
988.76	224.30
989.05	224.31
989.34	224.28
989.63	224.31
989.92	224.29
990.22	224.28
990.51	224.25
990.80	224.26
991.09	224.27
991.38	224.28
991.67	224.23
991.96	224.22
992.25	224.20
992.54	224.17
992.83	224.21
993.12	224.22
993.41	224.21
993.70	224.28
993.99	224.32
994.28	224.33
994.58	224.38
994.87	224.38
995.16	224.37
995.45	224.39
995.74	224.35
996.03	224.37
996.32	224.40
996.61	224.43
996.90	224.44
997.19	224.48
997.48	224.51
997.77	224.50
998.06	224.53
998.34	224.52
998.63	224.53
998.92	224.52
999.21	224.55
999.50	224.58
999.79	224.55
1000.08	224.56
1000.37	224.57
1000.66	224.55
1000.95	224.57
1001.24	224.58
1001.53	224.57
1001.82	224.59
1002.11	224.57
1002.40	224.57
1002.68	224.63
1002.97	224.69
1003.26	224.63
1003.55	224.60
1003.84	224.65
1004.13	224.68
1004.42	224.73
1004.71	224.74
1004.99	224.76
1005.28	224.81
1005.57	224.78
1005.86	224.78
1006.15	224.77
1006.44	224.78
1006.72	224.81
1007.01	224.77
1007.30	224.81
1007.59	224.84
1007.88	224.80
1008.17	224.85
1008.45	224.84
1008.74	224.78
1009.03	224.76
1009.32	224.82
1009.60	224.84
1009.89	224.84
1010.18	224.79
1010.47	224.79
1010.76	224.78
1011.04	224.75
1011.33	224.75
1011.62	224.78
1011.91	224.76
1012.19	224.74
1012.48	224.71
1012.77	224.69
1013.05	224.75
1013.34	224.72
1013.63	224.66
1013.92	224.72
1014.20	224.69
1014.49	224.68
1014.78	224.72
1015.06	224.66
1015.35	224.64
1015.64	224.65
1015.92	224.66
1016.21	224.67
1016.50	224.66
1016.78	224.67
1017.07	224.69
1017.36	224.65
1017.64	224.63
1017.93	224.64
1018.22	224.67
1018.50	224.68
1018.79	224.69
1019.08	224.63
1019.36	224.62
1019.65	224.64
1019.93	224.61
1020.22	224.62
1020.51	224.65
1020.79	224.61
1021.08	224.72
1021.36	224.75
1021.65	224.63
1021.94	224.52
1022.22	224.22
1022.51	224.33
1022.79	224.54
1023.08	224.42
1023.36	225.70
1023.65	223.86
>>>>>End Processed Spectral Data<<<<<
