SpectraSuite Data File
++++++++++++++++++++++++++++++++++++
Date: Fri Feb 01 17:00:33 EST 2013
User: group
Dark Spectrum Present: No
Reference Spectrum Present: No
Number of Sampled Component Spectra: 1
Spectrometers: USB2E7196
Integration Time (usec): 35000 (USB2E7196)
Spectra Averaged: 100 (USB2E7196)
Boxcar Smoothing: 10 (USB2E7196)
Correct for Electrical Dark: No (USB2E7196)
Strobe/Lamp Enabled: No (USB2E7196)
Correct for Detector Non-linearity: No (USB2E7196)
Correct for Stray Light: No (USB2E7196)
Number of Pixels in Processed Spectrum: 2048
>>>>>Begin Processed Spectral Data<<<<<
339.09	0.00
339.48	213.29
339.86	214.07
340.24	216.40
340.63	217.31
341.01	221.14
341.39	220.48
341.78	221.91
342.16	222.63
342.54	223.42
342.93	211.75
343.31	222.47
343.69	223.02
344.07	223.51
344.46	223.93
344.84	224.34
345.22	224.54
345.60	224.78
345.99	224.96
346.37	225.10
346.75	225.19
347.13	225.26
347.52	225.36
347.90	225.44
348.28	225.49
348.66	225.52
349.05	225.51
349.43	225.55
349.81	225.58
350.19	225.61
350.57	225.66
350.96	225.73
351.34	225.83
351.72	225.93
352.10	226.01
352.48	226.09
352.87	226.11
353.25	226.20
353.63	226.26
354.01	226.31
354.39	226.38
354.77	226.47
355.15	226.60
355.54	226.63
355.92	226.67
356.30	226.74
356.68	226.87
357.06	226.94
357.44	227.04
357.82	227.10
358.20	227.17
358.58	227.23
358.97	227.29
359.35	227.33
359.73	227.37
360.11	227.41
360.49	227.44
360.87	227.53
361.25	227.54
361.63	227.62
362.01	227.68
362.39	227.71
362.77	227.73
363.15	227.74
363.53	227.76
363.91	227.78
364.29	227.81
364.67	227.72
365.05	227.73
365.43	227.74
365.81	227.75
366.19	227.78
366.57	227.84
366.95	227.84
367.33	227.81
367.71	227.82
368.09	227.84
368.47	227.84
368.85	227.79
369.23	227.83
369.61	227.76
369.99	227.74
370.37	227.73
370.75	227.77
371.13	227.70
371.51	227.66
371.89	227.63
372.27	227.57
372.65	227.55
373.03	227.49
373.41	227.42
373.78	227.33
374.16	227.23
374.54	227.14
374.92	227.07
375.30	227.01
375.68	226.89
376.06	226.80
376.44	226.74
376.82	226.67
377.19	226.55
377.57	226.48
377.95	226.40
378.33	226.31
378.71	226.15
379.09	226.12
379.47	226.07
379.84	225.98
380.22	225.93
380.60	225.86
380.98	225.81
381.36	225.75
381.73	225.70
382.11	225.65
382.49	225.59
382.87	225.50
383.25	225.47
383.62	225.54
384.00	225.49
384.38	225.47
384.76	225.45
385.13	225.48
385.51	225.43
385.89	225.36
386.27	225.34
386.64	225.33
387.02	225.26
387.40	225.22
387.78	225.20
388.15	225.16
388.53	225.10
388.91	225.07
389.29	225.03
389.66	225.04
390.04	225.00
390.42	225.00
390.79	225.00
391.17	224.99
391.55	224.88
391.92	224.88
392.30	224.86
392.68	224.84
393.05	224.80
393.43	224.79
393.81	224.81
394.18	224.80
394.56	224.79
394.94	224.83
395.31	224.81
395.69	224.84
396.06	224.86
396.44	224.92
396.82	224.90
397.19	225.01
397.57	225.04
397.95	225.07
398.32	225.07
398.70	225.11
399.07	225.16
399.45	225.21
399.82	225.20
400.20	225.27
400.58	225.33
400.95	225.39
401.33	225.46
401.70	225.59
402.08	225.69
402.45	225.79
402.83	225.91
403.20	226.01
403.58	226.10
403.95	226.20
404.33	226.32
404.71	226.45
405.08	226.59
405.46	226.69
405.83	226.84
406.21	226.99
406.58	227.14
406.96	227.28
407.33	227.45
407.70	227.70
408.08	227.96
408.45	228.18
408.83	228.40
409.20	228.61
409.58	228.80
409.95	229.02
410.33	229.28
410.70	229.50
411.08	229.82
411.45	230.13
411.82	230.46
412.20	230.78
412.57	231.21
412.95	231.51
413.32	231.94
413.69	232.35
414.07	232.78
414.44	233.23
414.82	233.74
415.19	234.28
415.56	234.81
415.94	235.35
416.31	236.00
416.68	236.58
417.06	237.30
417.43	237.96
417.81	238.74
418.18	239.50
418.55	240.35
418.93	241.20
419.30	242.11
419.67	243.03
420.04	243.97
420.42	244.95
420.79	246.12
421.16	247.26
421.54	248.46
421.91	249.70
422.28	251.01
422.66	252.29
423.03	253.59
423.40	254.92
423.77	256.28
424.15	257.67
424.52	259.20
424.89	260.85
425.26	262.41
425.64	263.84
426.01	265.42
426.38	267.02
426.75	268.69
427.13	270.40
427.50	272.19
427.87	274.07
428.24	275.92
428.61	277.64
428.99	279.56
429.36	281.64
429.73	283.69
430.10	285.67
430.47	287.75
430.85	289.87
431.22	292.09
431.59	294.48
431.96	296.69
432.33	299.11
432.70	301.45
433.08	304.18
433.45	306.82
433.82	309.44
434.19	312.33
434.56	315.09
434.93	317.67
435.30	320.29
435.68	323.19
436.05	325.98
436.42	328.77
436.79	331.27
437.16	333.91
437.53	336.72
437.90	339.53
438.27	342.23
438.64	345.02
439.01	347.60
439.38	349.81
439.75	352.01
440.13	354.53
440.50	356.83
440.87	358.70
441.24	360.63
441.61	362.73
441.98	364.21
442.35	366.01
442.72	367.89
443.09	369.70
443.46	370.65
443.83	371.26
444.20	371.80
444.57	372.60
444.94	372.94
445.31	373.26
445.68	373.61
446.05	373.64
446.42	373.27
446.79	372.87
447.16	372.45
447.53	372.12
447.90	370.99
448.27	369.86
448.64	368.28
449.01	367.16
449.37	365.24
449.74	363.37
450.11	361.16
450.48	358.71
450.85	356.18
451.22	354.08
451.59	352.11
451.96	350.15
452.33	347.60
452.70	345.23
453.07	342.44
453.43	339.55
453.80	336.83
454.17	334.18
454.54	331.65
454.91	328.96
455.28	326.29
455.65	323.80
456.02	321.37
456.38	319.25
456.75	316.63
457.12	314.38
457.49	312.18
457.86	310.04
458.23	308.21
458.59	306.18
458.96	304.11
459.33	302.27
459.70	300.43
460.07	298.90
460.43	297.21
460.80	295.63
461.17	294.20
461.54	292.74
461.91	291.36
462.27	289.92
462.64	288.66
463.01	287.31
463.38	286.01
463.74	284.67
464.11	283.53
464.48	282.51
464.85	281.43
465.21	280.58
465.58	279.64
465.95	278.58
466.32	277.71
466.68	276.80
467.05	275.92
467.42	275.08
467.78	274.16
468.15	273.32
468.52	272.67
468.88	271.81
469.25	271.05
469.62	270.42
469.98	269.76
470.35	269.14
470.72	268.59
471.08	267.94
471.45	267.41
471.82	266.88
472.18	266.29
472.55	265.86
472.92	265.33
473.28	264.90
473.65	264.47
474.02	264.05
474.38	263.73
474.75	263.44
475.11	263.09
475.48	262.87
475.85	262.66
476.21	262.45
476.58	262.31
476.94	262.14
477.31	261.98
477.67	261.85
478.04	261.77
478.41	261.72
478.77	261.76
479.14	261.71
479.50	261.72
479.87	261.79
480.23	261.89
480.60	261.98
480.96	262.06
481.33	262.27
481.69	262.49
482.06	262.67
482.42	262.84
482.79	263.13
483.15	263.46
483.52	263.84
483.88	264.14
484.25	264.50
484.61	264.96
484.98	265.41
485.34	265.96
485.71	266.55
486.07	267.13
486.44	267.75
486.80	268.44
487.17	269.16
487.53	269.96
487.90	270.77
488.26	271.70
488.62	272.71
488.99	273.67
489.35	274.69
489.72	275.79
490.08	277.00
490.44	278.20
490.81	279.52
491.17	280.85
491.54	282.37
491.90	283.89
492.26	285.56
492.63	287.29
492.99	289.09
493.36	290.97
493.72	293.03
494.08	295.11
494.45	297.42
494.81	299.76
495.17	302.23
495.54	304.78
495.90	307.46
496.26	310.26
496.63	313.20
496.99	316.29
497.35	319.57
497.72	322.96
498.08	326.49
498.44	330.16
498.80	334.07
499.17	338.08
499.53	342.23
499.89	346.60
500.26	351.09
500.62	355.70
500.98	360.64
501.34	365.69
501.71	370.95
502.07	376.31
502.43	381.89
502.79	387.62
503.16	393.65
503.52	399.85
503.88	406.23
504.24	412.85
504.60	419.64
504.97	426.63
505.33	433.89
505.69	441.57
506.05	449.29
506.41	457.06
506.78	465.12
507.14	473.45
507.50	481.99
507.86	490.95
508.22	500.05
508.59	509.14
508.95	518.60
509.31	528.35
509.67	538.37
510.03	548.56
510.39	558.99
510.75	569.66
511.12	580.49
511.48	591.63
511.84	602.97
512.20	614.35
512.56	626.19
512.92	638.17
513.28	650.28
513.64	662.56
514.00	675.14
514.37	687.91
514.73	700.79
515.09	713.68
515.45	726.74
515.81	740.08
516.17	753.86
516.53	767.78
516.89	781.69
517.25	795.65
517.61	809.85
517.97	824.06
518.33	838.25
518.69	852.76
519.05	867.46
519.41	882.30
519.77	897.54
520.13	912.72
520.49	927.90
520.85	943.03
521.21	958.39
521.57	974.32
521.93	989.77
522.29	1005.83
522.65	1021.77
523.01	1037.60
523.37	1053.31
523.73	1069.24
524.09	1084.94
524.45	1100.90
524.81	1117.21
525.17	1133.62
525.53	1150.21
525.89	1166.81
526.25	1183.35
526.61	1199.49
526.97	1215.84
527.33	1231.97
527.68	1248.23
528.04	1264.34
528.40	1280.55
528.76	1297.26
529.12	1313.46
529.48	1330.07
529.84	1345.69
530.20	1361.95
530.56	1378.60
530.91	1395.71
531.27	1412.01
531.63	1428.33
531.99	1444.62
532.35	1460.27
532.71	1475.95
533.07	1491.84
533.42	1507.45
533.78	1523.17
534.14	1539.06
534.50	1554.18
534.86	1569.75
535.21	1584.66
535.57	1600.38
535.93	1615.48
536.29	1630.04
536.65	1644.79
537.00	1659.19
537.36	1674.34
537.72	1688.61
538.08	1702.86
538.44	1716.38
538.79	1730.09
539.15	1743.24
539.51	1756.63
539.87	1770.67
540.22	1783.95
540.58	1797.45
540.94	1810.31
541.29	1822.87
541.65	1835.20
542.01	1848.22
542.37	1860.37
542.72	1872.53
543.08	1883.95
543.44	1896.17
543.79	1907.09
544.15	1917.87
544.51	1929.21
544.87	1939.88
545.22	1950.50
545.58	1960.46
545.94	1969.94
546.29	1979.57
546.65	1989.44
547.01	1998.61
547.36	2007.12
547.72	2015.46
548.07	2023.24
548.43	2031.33
548.79	2039.25
549.14	2046.91
549.50	2053.98
549.86	2061.38
550.21	2068.51
550.57	2075.58
550.92	2082.19
551.28	2089.30
551.64	2096.36
551.99	2102.82
552.35	2109.02
552.70	2115.10
553.06	2121.03
553.41	2127.51
553.77	2133.53
554.13	2139.48
554.48	2145.52
554.84	2151.06
555.19	2156.46
555.55	2161.64
555.90	2166.21
556.26	2171.13
556.61	2175.73
556.97	2180.28
557.32	2184.47
557.68	2188.57
558.03	2192.83
558.39	2196.45
558.74	2201.05
559.10	2205.01
559.45	2208.73
559.81	2212.93
560.16	2216.78
560.52	2220.14
560.87	2223.57
561.23	2226.26
561.58	2229.21
561.94	2231.94
562.29	2234.32
562.64	2237.12
563.00	2239.67
563.35	2243.12
563.71	2246.36
564.06	2249.62
564.42	2252.48
564.77	2255.10
565.12	2257.61
565.48	2259.60
565.83	2261.78
566.19	2263.36
566.54	2264.10
566.89	2265.37
567.25	2266.31
567.60	2267.76
567.96	2269.65
568.31	2270.51
568.66	2271.75
569.02	2272.55
569.37	2273.03
569.72	2274.17
570.08	2274.49
570.43	2274.81
570.78	2274.50
571.14	2273.17
571.49	2272.14
571.84	2271.88
572.20	2271.00
572.55	2270.25
572.90	2268.87
573.26	2267.72
573.61	2265.98
573.96	2264.70
574.31	2262.14
574.67	2259.24
575.02	2255.81
575.37	2252.51
575.72	2249.15
576.08	2246.02
576.43	2242.87
576.78	2239.36
577.13	2236.15
577.49	2233.17
577.84	2229.82
578.19	2226.45
578.54	2223.05
578.90	2218.96
579.25	2213.70
579.60	2209.02
579.95	2204.16
580.30	2199.37
580.66	2194.15
581.01	2189.48
581.36	2184.73
581.71	2180.64
582.06	2176.45
582.42	2172.36
582.77	2167.40
583.12	2162.92
583.47	2158.45
583.82	2153.76
584.17	2148.86
584.53	2143.74
584.88	2138.22
585.23	2132.67
585.58	2127.35
585.93	2121.98
586.28	2117.25
586.63	2112.48
586.98	2107.53
587.34	2103.00
587.69	2098.26
588.04	2093.48
588.39	2088.04
588.74	2081.74
589.09	2075.73
589.44	2069.07
589.79	2063.04
590.14	2057.51
590.49	2051.13
590.84	2044.81
591.19	2038.83
591.54	2032.35
591.89	2025.17
592.25	2018.70
592.60	2011.68
592.95	2004.29
593.30	1997.11
593.65	1989.89
594.00	1982.94
594.35	1975.84
594.70	1968.03
595.05	1961.27
595.40	1953.95
595.75	1946.68
596.10	1940.79
596.45	1934.35
596.80	1928.42
597.15	1922.05
597.50	1915.30
597.85	1909.01
598.19	1902.61
598.54	1895.78
598.89	1889.32
599.24	1883.61
599.59	1877.12
599.94	1871.09
600.29	1864.94
600.64	1858.53
600.99	1851.19
601.34	1844.42
601.69	1837.69
602.04	1831.11
602.39	1823.82
602.74	1817.16
603.08	1810.50
603.43	1803.79
603.78	1796.54
604.13	1789.43
604.48	1782.30
604.83	1775.50
605.18	1768.65
605.53	1760.80
605.87	1752.94
606.22	1745.88
606.57	1737.84
606.92	1730.53
607.27	1723.46
607.62	1716.49
607.96	1709.29
608.31	1702.85
608.66	1695.44
609.01	1688.00
609.36	1680.45
609.70	1672.41
610.05	1664.49
610.40	1656.79
610.75	1648.55
611.10	1640.99
611.44	1632.60
611.79	1624.58
612.14	1616.03
612.49	1606.88
612.83	1598.61
613.18	1590.55
613.53	1582.48
613.88	1574.15
614.22	1565.94
614.57	1557.36
614.92	1549.41
615.27	1542.06
615.61	1533.86
615.96	1525.84
616.31	1518.17
616.65	1510.79
617.00	1503.19
617.35	1495.50
617.70	1487.35
618.04	1478.88
618.39	1470.60
618.74	1463.13
619.08	1454.95
619.43	1447.33
619.78	1440.60
620.12	1433.40
620.47	1425.87
620.82	1417.64
621.16	1410.23
621.51	1402.60
621.85	1395.01
622.20	1386.58
622.55	1378.13
622.89	1370.25
623.24	1362.60
623.59	1355.25
623.93	1347.70
624.28	1340.68
624.62	1333.24
624.97	1325.99
625.32	1319.27
625.66	1312.40
626.01	1305.17
626.35	1297.86
626.70	1290.09
627.04	1282.25
627.39	1274.61
627.73	1267.28
628.08	1260.49
628.43	1253.32
628.77	1246.07
629.12	1238.62
629.46	1231.50
629.81	1224.01
630.15	1216.70
630.50	1209.47
630.84	1201.36
631.19	1193.46
631.53	1185.97
631.88	1178.46
632.22	1170.99
632.57	1163.69
632.91	1156.07
633.26	1148.73
633.60	1141.29
633.95	1134.24
634.29	1127.24
634.64	1120.49
634.98	1113.10
635.32	1105.89
635.67	1099.26
636.01	1092.62
636.36	1085.78
636.70	1079.24
637.05	1072.78
637.39	1066.36
637.73	1059.72
638.08	1053.82
638.42	1047.82
638.77	1041.29
639.11	1034.71
639.45	1028.25
639.80	1021.53
640.14	1015.18
640.49	1008.63
640.83	1002.30
641.17	996.11
641.52	989.85
641.86	983.37
642.20	977.51
642.55	971.23
642.89	964.79
643.23	958.26
643.58	952.52
643.92	946.39
644.26	940.48
644.61	934.45
644.95	928.56
645.29	922.07
645.64	915.40
645.98	909.17
646.32	903.34
646.66	897.38
647.01	891.75
647.35	886.07
647.69	880.24
648.04	874.76
648.38	868.99
648.72	863.07
649.06	857.10
649.41	851.27
649.75	845.39
650.09	839.46
650.43	833.66
650.78	827.55
651.12	821.57
651.46	815.78
651.80	810.11
652.14	804.71
652.49	799.33
652.83	794.19
653.17	788.55
653.51	782.89
653.85	777.49
654.20	771.81
654.54	765.83
654.88	760.15
655.22	754.27
655.56	748.54
655.90	743.10
656.25	737.91
656.59	732.60
656.93	727.49
657.27	722.43
657.61	717.04
657.95	712.02
658.29	706.96
658.64	701.73
658.98	696.44
659.32	690.96
659.66	685.79
660.00	680.50
660.34	675.55
660.68	670.67
661.02	665.67
661.36	661.01
661.70	656.50
662.05	652.19
662.39	647.94
662.73	643.52
663.07	639.11
663.41	634.63
663.75	630.18
664.09	625.67
664.43	621.25
664.77	617.15
665.11	612.90
665.45	608.76
665.79	604.73
666.13	600.62
666.47	596.57
666.81	592.44
667.15	588.36
667.49	584.45
667.83	580.66
668.17	576.71
668.51	572.62
668.85	568.65
669.19	564.81
669.53	560.97
669.87	557.12
670.21	553.42
670.55	549.81
670.89	546.33
671.23	542.99
671.57	539.49
671.91	535.96
672.25	532.43
672.58	528.93
672.92	525.45
673.26	522.28
673.60	519.14
673.94	515.99
674.28	513.07
674.62	510.16
674.96	507.03
675.30	504.17
675.64	501.27
675.97	498.45
676.31	495.54
676.65	492.65
676.99	489.97
677.33	487.12
677.67	484.30
678.01	481.30
678.34	478.27
678.68	475.40
679.02	472.65
679.36	469.89
679.70	467.21
680.04	464.47
680.37	461.62
680.71	458.82
681.05	456.24
681.39	453.51
681.73	450.83
682.06	448.30
682.40	445.77
682.74	443.25
683.08	440.71
683.42	438.17
683.75	435.69
684.09	433.11
684.43	430.69
684.77	428.24
685.10	425.90
685.44	423.57
685.78	421.30
686.12	419.00
686.45	416.74
686.79	414.43
687.13	412.29
687.46	410.16
687.80	408.00
688.14	405.73
688.48	403.67
688.81	401.49
689.15	399.38
689.49	397.20
689.82	395.13
690.16	393.05
690.50	391.08
690.83	389.06
691.17	387.11
691.51	385.19
691.84	383.37
692.18	381.46
692.52	379.51
692.85	377.51
693.19	375.64
693.52	373.78
693.86	371.98
694.20	370.15
694.53	368.35
694.87	366.50
695.21	364.68
695.54	362.89
695.88	361.15
696.21	359.38
696.55	357.67
696.88	355.98
697.22	354.35
697.56	352.72
697.89	351.12
698.23	349.51
698.56	347.91
698.90	346.29
699.23	344.64
699.57	343.08
699.90	341.55
700.24	340.00
700.58	338.51
700.91	337.03
701.25	335.60
701.58	334.25
701.92	332.92
702.25	331.62
702.59	330.24
702.92	328.90
703.26	327.61
703.59	326.36
703.93	325.16
704.26	323.91
704.60	322.60
704.93	321.31
705.26	320.11
705.60	318.97
705.93	317.81
706.27	316.82
706.60	315.79
706.94	314.73
707.27	313.63
707.61	312.54
707.94	311.49
708.27	310.40
708.61	309.27
708.94	308.25
709.28	307.27
709.61	306.30
709.94	305.36
710.28	304.33
710.61	303.35
710.95	302.27
711.28	301.37
711.61	300.44
711.95	299.54
712.28	298.51
712.61	297.50
712.95	296.57
713.28	295.63
713.61	294.76
713.95	293.87
714.28	293.03
714.61	292.14
714.95	291.30
715.28	290.44
715.61	289.55
715.95	288.68
716.28	287.84
716.61	287.03
716.95	286.20
717.28	285.46
717.61	284.69
717.94	283.96
718.28	283.16
718.61	282.42
718.94	281.71
719.27	281.12
719.61	280.45
719.94	279.80
720.27	279.09
720.60	278.40
720.94	277.80
721.27	277.22
721.60	276.63
721.93	276.02
722.27	275.50
722.60	274.97
722.93	274.42
723.26	273.89
723.59	273.35
723.93	272.80
724.26	272.23
724.59	271.68
724.92	271.14
725.25	270.63
725.59	270.09
725.92	269.60
726.25	269.05
726.58	268.58
726.91	268.09
727.24	267.63
727.57	267.15
727.91	266.62
728.24	266.13
728.57	265.66
728.90	265.21
729.23	264.70
729.56	264.27
729.89	263.80
730.22	263.28
730.55	262.83
730.89	262.36
731.22	261.93
731.55	261.45
731.88	261.02
732.21	260.60
732.54	260.18
732.87	259.75
733.20	259.34
733.53	258.94
733.86	258.56
734.19	258.15
734.52	257.75
734.85	257.45
735.18	257.00
735.51	256.66
735.84	256.32
736.17	255.98
736.50	255.61
736.83	255.36
737.16	255.02
737.49	254.65
737.82	254.35
738.15	254.03
738.48	253.72
738.81	253.41
739.14	253.07
739.47	252.75
739.80	252.46
740.13	252.20
740.46	251.87
740.79	251.50
741.12	251.19
741.45	250.91
741.78	250.56
742.11	250.31
742.44	250.01
742.77	249.65
743.10	249.33
743.43	249.04
743.75	248.63
744.08	248.50
744.41	248.23
744.74	247.94
745.07	247.66
745.40	247.39
745.73	247.17
746.06	246.90
746.39	246.67
746.71	246.37
747.04	246.10
747.37	245.84
747.70	245.63
748.03	245.36
748.36	245.13
748.68	244.89
749.01	244.65
749.34	244.41
749.67	244.21
750.00	244.01
750.33	243.84
750.65	243.63
750.98	243.30
751.31	243.07
751.64	242.88
751.97	242.71
752.29	242.51
752.62	242.23
752.95	242.04
753.28	241.85
753.60	241.68
753.93	241.49
754.26	241.30
754.59	241.06
754.91	240.84
755.24	240.65
755.57	240.46
755.90	240.24
756.22	240.06
756.55	239.83
756.88	239.64
757.20	239.40
757.53	239.23
757.86	239.06
758.19	238.88
758.51	238.70
758.84	238.47
759.17	238.29
759.49	238.15
759.82	238.02
760.15	237.81
760.47	237.62
760.80	237.43
761.13	237.29
761.45	237.15
761.78	237.03
762.11	236.86
762.43	236.72
762.76	236.61
763.08	236.44
763.41	236.33
763.74	236.20
764.06	236.05
764.39	235.92
764.71	235.78
765.04	235.64
765.37	235.52
765.69	235.38
766.02	235.25
766.34	235.13
766.67	234.97
767.00	234.87
767.32	234.79
767.65	234.74
767.97	234.62
768.30	234.53
768.62	234.40
768.95	234.27
769.27	234.13
769.60	234.01
769.92	233.90
770.25	233.81
770.57	233.66
770.90	233.57
771.22	233.42
771.55	233.28
771.87	233.21
772.20	233.10
772.52	233.12
772.85	233.16
773.17	233.05
773.50	232.94
773.82	232.84
774.15	232.71
774.47	232.56
774.80	232.49
775.12	232.40
775.45	232.35
775.77	232.27
776.09	232.21
776.42	232.14
776.74	232.10
777.07	231.97
777.39	231.89
777.72	231.85
778.04	231.80
778.36	231.75
778.69	231.68
779.01	231.62
779.33	231.44
779.66	231.26
779.98	231.20
780.31	231.16
780.63	231.15
780.95	231.13
781.28	231.09
781.60	230.98
781.92	230.91
782.25	230.80
782.57	230.75
782.89	230.69
783.22	230.63
783.54	230.55
783.86	230.53
784.19	230.46
784.51	230.42
784.83	230.35
785.16	230.29
785.48	230.25
785.80	230.22
786.12	230.21
786.45	230.16
786.77	230.11
787.09	230.06
787.42	229.97
787.74	229.89
788.06	229.81
788.38	229.79
788.71	229.72
789.03	229.70
789.35	229.68
789.67	229.64
789.99	229.58
790.32	229.53
790.64	229.50
790.96	229.53
791.28	229.44
791.61	229.39
791.93	229.36
792.25	229.30
792.57	229.28
792.89	229.21
793.21	229.18
793.54	229.13
793.86	229.09
794.18	229.08
794.50	229.02
794.82	229.01
795.14	228.94
795.47	228.93
795.79	228.91
796.11	228.79
796.43	228.72
796.75	228.69
797.07	228.67
797.39	228.60
797.71	228.53
798.04	228.53
798.36	228.51
798.68	228.46
799.00	228.40
799.32	228.34
799.64	228.31
799.96	228.25
800.28	228.24
800.60	228.16
800.92	228.09
801.24	228.08
801.56	228.05
801.89	228.03
802.21	228.00
802.53	227.94
802.85	227.99
803.17	228.03
803.49	227.96
803.81	227.91
804.13	227.89
804.45	227.83
804.77	227.80
805.09	227.78
805.41	227.75
805.73	227.70
806.05	227.65
806.37	227.62
806.69	227.56
807.01	227.54
807.33	227.53
807.65	227.48
807.97	227.48
808.28	227.46
808.60	227.43
808.92	227.41
809.24	227.43
809.56	227.34
809.88	227.27
810.20	227.27
810.52	227.28
810.84	227.23
811.16	227.21
811.48	227.19
811.80	227.19
812.12	227.15
812.43	227.20
812.75	227.19
813.07	227.17
813.39	227.18
813.71	227.13
814.03	227.12
814.35	227.11
814.67	227.08
814.98	227.04
815.30	227.06
815.62	227.00
815.94	226.93
816.26	226.93
816.58	226.90
816.89	226.92
817.21	226.85
817.53	226.88
817.85	226.87
818.17	226.87
818.48	226.84
818.80	226.87
819.12	226.79
819.44	226.78
819.76	226.78
820.07	226.80
820.39	226.80
820.71	226.79
821.03	226.77
821.34	226.74
821.66	226.77
821.98	226.76
822.30	226.75
822.61	226.81
822.93	226.81
823.25	226.84
823.57	226.77
823.88	226.81
824.20	226.79
824.52	226.80
824.83	226.75
825.15	226.74
825.47	226.71
825.79	226.71
826.10	226.69
826.42	226.66
826.74	226.66
827.05	226.65
827.37	226.66
827.69	226.68
828.00	226.69
828.32	226.65
828.64	226.63
828.95	226.68
829.27	226.65
829.58	226.64
829.90	226.60
830.22	226.64
830.53	226.59
830.85	226.56
831.17	226.50
831.48	226.50
831.80	226.49
832.11	226.49
832.43	226.48
832.75	226.48
833.06	226.53
833.38	226.49
833.69	226.48
834.01	226.47
834.32	226.45
834.64	226.42
834.96	226.43
835.27	226.42
835.59	226.37
835.90	226.33
836.22	226.34
836.53	226.33
836.85	226.30
837.16	226.39
837.48	226.37
837.79	226.42
838.11	226.38
838.42	226.38
838.74	226.36
839.05	226.35
839.37	226.31
839.68	226.23
840.00	226.18
840.31	226.19
840.63	226.16
840.94	226.15
841.26	226.12
841.57	226.09
841.88	226.08
842.20	226.10
842.51	226.07
842.83	226.04
843.14	226.13
843.46	226.12
843.77	226.07
844.08	226.07
844.40	226.02
844.71	226.05
845.03	226.03
845.34	226.01
845.65	225.98
845.97	226.00
846.28	225.98
846.60	226.00
846.91	225.99
847.22	225.97
847.54	225.97
847.85	225.97
848.16	225.94
848.48	225.93
848.79	225.95
849.10	225.94
849.42	225.94
849.73	225.84
850.04	225.85
850.36	225.79
850.67	225.79
850.98	225.84
851.30	225.83
851.61	225.85
851.92	225.83
852.23	225.87
852.55	225.89
852.86	225.91
853.17	225.92
853.49	225.94
853.80	225.97
854.11	225.96
854.42	225.99
854.74	225.94
855.05	225.92
855.36	225.84
855.67	225.86
855.99	225.85
856.30	225.92
856.61	225.91
856.92	225.92
857.23	225.91
857.55	225.87
857.86	225.87
858.17	225.87
858.48	225.86
858.79	225.84
859.11	225.83
859.42	225.80
859.73	225.76
860.04	225.74
860.35	225.74
860.66	225.69
860.98	225.66
861.29	225.71
861.60	225.72
861.91	225.75
862.22	225.71
862.53	225.65
862.84	225.56
863.16	225.61
863.47	225.59
863.78	225.55
864.09	225.54
864.40	225.52
864.71	225.51
865.02	225.52
865.33	225.52
865.64	225.51
865.95	225.52
866.27	225.60
866.58	225.54
866.89	225.53
867.20	225.53
867.51	225.50
867.82	225.50
868.13	225.50
868.44	225.47
868.75	225.51
869.06	225.57
869.37	225.58
869.68	225.51
869.99	225.53
870.30	225.53
870.61	225.55
870.92	225.55
871.23	225.52
871.54	225.55
871.85	225.55
872.16	225.55
872.47	225.54
872.78	225.45
873.09	225.50
873.40	225.46
873.71	225.48
874.02	225.51
874.33	225.48
874.64	225.47
874.95	225.48
875.26	225.45
875.56	225.43
875.87	225.43
876.18	225.41
876.49	225.50
876.80	225.54
877.11	225.51
877.42	225.49
877.73	225.48
878.04	225.46
878.35	225.46
878.66	225.44
878.96	225.44
879.27	225.45
879.58	225.46
879.89	225.51
880.20	225.53
880.51	225.51
880.82	225.52
881.12	225.52
881.43	225.50
881.74	225.46
882.05	225.48
882.36	225.48
882.67	225.49
882.97	225.38
883.28	225.39
883.59	225.37
883.90	225.39
884.21	225.48
884.51	225.43
884.82	225.43
885.13	225.47
885.44	225.48
885.74	225.48
886.05	225.43
886.36	225.41
886.67	225.38
886.98	225.44
887.28	225.42
887.59	225.42
887.90	225.45
888.20	225.46
888.51	225.49
888.82	225.47
889.13	225.50
889.43	225.60
889.74	225.56
890.05	225.60
890.35	225.59
890.66	225.53
890.97	225.57
891.28	225.54
891.58	225.53
891.89	225.50
892.20	225.50
892.50	225.53
892.81	225.50
893.12	225.50
893.42	225.44
893.73	225.45
894.04	225.44
894.34	225.42
894.65	225.43
894.95	225.41
895.26	225.45
895.57	225.47
895.87	225.36
896.18	225.37
896.48	225.36
896.79	225.33
897.10	225.35
897.40	225.36
897.71	225.39
898.01	225.35
898.32	225.39
898.63	225.36
898.93	225.36
899.24	225.37
899.54	225.39
899.85	225.39
900.15	225.38
900.46	225.38
900.76	225.41
901.07	225.39
901.38	225.36
901.68	225.34
901.99	225.29
902.29	225.29
902.60	225.27
902.90	225.24
903.21	225.26
903.51	225.24
903.82	225.23
904.12	225.23
904.43	225.25
904.73	225.26
905.03	225.29
905.34	225.37
905.64	225.40
905.95	225.39
906.25	225.35
906.56	225.35
906.86	225.34
907.17	225.32
907.47	225.36
907.77	225.36
908.08	225.35
908.38	225.33
908.69	225.37
908.99	225.39
909.30	225.41
909.60	225.40
909.90	225.41
910.21	225.40
910.51	225.39
910.81	225.36
911.12	225.33
911.42	225.33
911.73	225.25
912.03	225.20
912.33	225.21
912.64	225.24
912.94	225.28
913.24	225.26
913.55	225.28
913.85	225.28
914.15	225.29
914.46	225.30
914.76	225.31
915.06	225.27
915.37	225.26
915.67	225.24
915.97	225.22
916.27	225.23
916.58	225.22
916.88	225.22
917.18	225.24
917.49	225.32
917.79	225.30
918.09	225.30
918.39	225.37
918.70	225.38
919.00	225.37
919.30	225.37
919.60	225.37
919.91	225.33
920.21	225.30
920.51	225.27
920.81	225.26
921.12	225.30
921.42	225.29
921.72	225.33
922.02	225.35
922.32	225.35
922.63	225.33
922.93	225.40
923.23	225.38
923.53	225.37
923.83	225.28
924.13	225.31
924.44	225.32
924.74	225.32
925.04	225.34
925.34	225.37
925.64	225.33
925.94	225.34
926.24	225.40
926.55	225.40
926.85	225.43
927.15	225.45
927.45	225.42
927.75	225.40
928.05	225.37
928.35	225.37
928.65	225.41
928.95	225.43
929.26	225.37
929.56	225.40
929.86	225.41
930.16	225.43
930.46	225.37
930.76	225.37
931.06	225.31
931.36	225.27
931.66	225.28
931.96	225.30
932.26	225.31
932.56	225.25
932.86	225.23
933.16	225.22
933.46	225.22
933.76	225.23
934.06	225.26
934.36	225.29
934.66	225.28
934.96	225.25
935.26	225.22
935.56	225.25
935.86	225.23
936.16	225.18
936.46	225.15
936.76	225.16
937.06	225.14
937.36	225.14
937.66	225.15
937.96	225.14
938.26	225.12
938.56	225.13
938.86	225.13
939.16	225.17
939.46	225.16
939.76	225.14
940.06	225.11
940.35	225.10
940.65	225.06
940.95	225.09
941.25	225.06
941.55	225.08
941.85	225.05
942.15	225.05
942.45	225.12
942.75	225.15
943.04	225.17
943.34	225.19
943.64	225.20
943.94	225.18
944.24	225.17
944.54	225.18
944.84	225.15
945.13	225.17
945.43	225.17
945.73	225.19
946.03	225.18
946.33	225.16
946.62	225.14
946.92	225.13
947.22	225.11
947.52	225.13
947.82	225.15
948.11	225.13
948.41	225.13
948.71	225.09
949.01	225.07
949.31	225.03
949.60	225.01
949.90	225.03
950.20	225.04
950.50	225.05
950.79	225.05
951.09	225.04
951.39	225.05
951.69	225.05
951.98	225.08
952.28	225.09
952.58	225.12
952.87	225.13
953.17	225.14
953.47	225.13
953.76	225.16
954.06	225.12
954.36	225.13
954.66	225.14
954.95	225.17
955.25	225.22
955.55	225.29
955.84	225.30
956.14	225.30
956.44	225.29
956.73	225.28
957.03	225.26
957.32	225.32
957.62	225.30
957.92	225.34
958.21	225.34
958.51	225.46
958.81	225.49
959.10	225.51
959.40	225.53
959.69	225.55
959.99	225.53
960.29	225.56
960.58	225.55
960.88	225.58
961.17	225.57
961.47	225.54
961.76	225.48
962.06	225.51
962.36	225.50
962.65	225.52
962.95	225.52
963.24	225.52
963.54	225.50
963.83	225.50
964.13	225.46
964.42	225.42
964.72	225.35
965.01	225.30
965.31	225.29
965.60	225.29
965.90	225.40
966.19	225.40
966.49	225.39
966.78	225.42
967.08	225.42
967.37	225.41
967.67	225.43
967.96	225.51
968.26	225.47
968.55	225.51
968.85	225.48
969.14	225.50
969.43	225.52
969.73	225.50
970.02	225.52
970.32	225.51
970.61	225.51
970.91	225.45
971.20	225.45
971.49	225.44
971.79	225.38
972.08	225.28
972.38	225.26
972.67	225.27
972.96	225.26
973.26	225.24
973.55	225.24
973.85	225.23
974.14	225.18
974.43	225.21
974.73	225.18
975.02	225.22
975.31	225.20
975.61	225.18
975.90	225.17
976.19	225.13
976.49	225.14
976.78	225.15
977.07	225.14
977.37	225.17
977.66	225.20
977.95	225.21
978.24	225.20
978.54	225.21
978.83	225.20
979.12	225.21
979.42	225.19
979.71	225.18
980.00	225.14
980.29	225.15
980.59	225.12
980.88	225.11
981.17	225.07
981.46	225.07
981.76	225.07
982.05	225.12
982.34	225.13
982.63	225.13
982.93	225.14
983.22	225.16
983.51	225.17
983.80	225.18
984.09	225.25
984.39	225.27
984.68	225.30
984.97	225.31
985.26	225.27
985.55	225.28
985.85	225.28
986.14	225.31
986.43	225.31
986.72	225.29
987.01	225.26
987.30	225.27
987.59	225.24
987.89	225.23
988.18	225.19
988.47	225.22
988.76	225.21
989.05	225.20
989.34	225.20
989.63	225.22
989.92	225.18
990.22	225.13
990.51	225.10
990.80	225.07
991.09	225.05
991.38	225.09
991.67	225.11
991.96	225.11
992.25	225.15
992.54	225.10
992.83	225.11
993.12	225.16
993.41	225.18
993.70	225.25
993.99	225.29
994.28	225.32
994.58	225.32
994.87	225.32
995.16	225.32
995.45	225.31
995.74	225.26
996.03	225.26
996.32	225.30
996.61	225.32
996.90	225.30
997.19	225.30
997.48	225.29
997.77	225.29
998.06	225.26
998.34	225.24
998.63	225.28
998.92	225.28
999.21	225.31
999.50	225.31
999.79	225.26
1000.08	225.26
1000.37	225.23
1000.66	225.21
1000.95	225.22
1001.24	225.22
1001.53	225.22
1001.82	225.23
1002.11	225.23
1002.40	225.21
1002.68	225.20
1002.97	225.29
1003.26	225.28
1003.55	225.31
1003.84	225.28
1004.13	225.33
1004.42	225.31
1004.71	225.28
1004.99	225.28
1005.28	225.25
1005.57	225.22
1005.86	225.21
1006.15	225.16
1006.44	225.12
1006.72	225.14
1007.01	225.11
1007.30	225.12
1007.59	225.11
1007.88	225.10
1008.17	225.10
1008.45	225.12
1008.74	225.09
1009.03	225.03
1009.32	225.05
1009.60	224.97
1009.89	224.94
1010.18	224.90
1010.47	224.86
1010.76	224.90
1011.04	224.88
1011.33	224.91
1011.62	224.89
1011.91	224.90
1012.19	224.92
1012.48	224.95
1012.77	224.93
1013.05	224.96
1013.34	224.94
1013.63	224.93
1013.92	224.93
1014.20	224.91
1014.49	224.89
1014.78	224.91
1015.06	224.88
1015.35	224.89
1015.64	224.93
1015.92	224.99
1016.21	224.98
1016.50	225.00
1016.78	224.97
1017.07	225.00
1017.36	224.95
1017.64	224.97
1017.93	224.98
1018.22	224.97
1018.50	224.98
1018.79	225.00
1019.08	224.97
1019.36	224.99
1019.65	224.97
1019.93	225.01
1020.22	225.03
1020.51	225.05
1020.79	225.06
1021.08	224.72
1021.36	225.23
1021.65	225.27
1021.94	225.00
1022.22	225.21
1022.51	224.59
1022.79	225.72
1023.08	224.66
1023.36	225.85
1023.65	225.12
>>>>>End Processed Spectral Data<<<<<
