SpectraSuite Data File
++++++++++++++++++++++++++++++++++++
Date: Fri Feb 01 15:32:11 EST 2013
User: group
Dark Spectrum Present: No
Reference Spectrum Present: No
Number of Sampled Component Spectra: 1
Spectrometers: USB2E7196
Integration Time (usec): 35000 (USB2E7196)
Spectra Averaged: 100 (USB2E7196)
Boxcar Smoothing: 10 (USB2E7196)
Correct for Electrical Dark: No (USB2E7196)
Strobe/Lamp Enabled: No (USB2E7196)
Correct for Detector Non-linearity: No (USB2E7196)
Correct for Stray Light: No (USB2E7196)
Number of Pixels in Processed Spectrum: 2048
>>>>>Begin Processed Spectral Data<<<<<
339.09	0.00
339.48	215.00
339.86	215.83
340.24	217.53
340.63	219.71
341.01	221.09
341.39	222.11
341.78	223.21
342.16	224.11
342.54	224.62
342.93	213.12
343.31	223.92
343.69	224.47
344.07	224.93
344.46	225.34
344.84	225.69
345.22	225.95
345.60	226.20
345.99	226.35
346.37	226.50
346.75	226.60
347.13	226.67
347.52	226.72
347.90	226.80
348.28	226.87
348.66	226.94
349.05	226.98
349.43	227.02
349.81	227.07
350.19	227.12
350.57	227.18
350.96	227.25
351.34	227.30
351.72	227.36
352.10	227.48
352.48	227.58
352.87	227.67
353.25	227.74
353.63	227.79
354.01	227.89
354.39	227.97
354.77	228.03
355.15	228.13
355.54	228.20
355.92	228.24
356.30	228.30
356.68	228.44
357.06	228.51
357.44	228.53
357.82	228.58
358.20	228.63
358.58	228.68
358.97	228.74
359.35	228.79
359.73	228.90
360.11	228.94
360.49	229.01
360.87	229.05
361.25	229.10
361.63	229.16
362.01	229.18
362.39	229.21
362.77	229.26
363.15	229.29
363.53	229.33
363.91	229.32
364.29	229.35
364.67	229.25
365.05	229.27
365.43	229.30
365.81	229.34
366.19	229.38
366.57	229.42
366.95	229.39
367.33	229.38
367.71	229.34
368.09	229.37
368.47	229.32
368.85	229.25
369.23	229.26
369.61	229.22
369.99	229.23
370.37	229.19
370.75	229.23
371.13	229.16
371.51	229.10
371.89	229.09
372.27	229.00
372.65	228.94
373.03	228.89
373.41	228.83
373.78	228.73
374.16	228.62
374.54	228.51
374.92	228.45
375.30	228.40
375.68	228.29
376.06	228.17
376.44	228.10
376.82	228.03
377.19	227.98
377.57	227.90
377.95	227.79
378.33	227.73
378.71	227.57
379.09	227.50
379.47	227.44
379.84	227.34
380.22	227.28
380.60	227.23
380.98	227.18
381.36	227.10
381.73	227.02
382.11	226.99
382.49	226.95
382.87	226.88
383.25	226.83
383.62	226.91
384.00	226.85
384.38	226.80
384.76	226.76
385.13	226.74
385.51	226.68
385.89	226.61
386.27	226.57
386.64	226.54
387.02	226.50
387.40	226.43
387.78	226.41
388.15	226.38
388.53	226.33
388.91	226.25
389.29	226.20
389.66	226.23
390.04	226.22
390.42	226.21
390.79	226.19
391.17	226.15
391.55	226.03
391.92	226.07
392.30	226.09
392.68	226.08
393.05	226.07
393.43	226.10
393.81	226.14
394.18	226.13
394.56	226.14
394.94	226.18
395.31	226.21
395.69	226.24
396.06	226.31
396.44	226.33
396.82	226.38
397.19	226.49
397.57	226.51
397.95	226.54
398.32	226.56
398.70	226.63
399.07	226.75
399.45	226.82
399.82	226.86
400.20	226.91
400.58	227.00
400.95	227.03
401.33	227.12
401.70	227.27
402.08	227.39
402.45	227.52
402.83	227.68
403.20	227.81
403.58	227.94
403.95	228.05
404.33	228.20
404.71	228.34
405.08	228.51
405.46	228.67
405.83	228.86
406.21	229.01
406.58	229.20
406.96	229.36
407.33	229.54
407.70	229.77
408.08	230.05
408.45	230.29
408.83	230.51
409.20	230.71
409.58	230.90
409.95	231.18
410.33	231.41
410.70	231.65
411.08	231.95
411.45	232.22
411.82	232.52
412.20	232.90
412.57	233.32
412.95	233.60
413.32	234.04
413.69	234.44
414.07	234.89
414.44	235.35
414.82	235.83
415.19	236.37
415.56	236.90
415.94	237.45
416.31	238.09
416.68	238.74
417.06	239.49
417.43	240.18
417.81	240.93
418.18	241.74
418.55	242.58
418.93	243.43
419.30	244.38
419.67	245.33
420.04	246.27
420.42	247.24
420.79	248.44
421.16	249.56
421.54	250.76
421.91	251.94
422.28	253.19
422.66	254.52
423.03	255.79
423.40	257.12
423.77	258.51
424.15	259.91
424.52	261.39
424.89	262.93
425.26	264.50
425.64	265.88
426.01	267.48
426.38	269.15
426.75	270.85
427.13	272.52
427.50	274.32
427.87	276.18
428.24	278.07
428.61	279.82
428.99	281.79
429.36	283.88
429.73	285.95
430.10	287.98
430.47	290.00
430.85	292.16
431.22	294.43
431.59	296.80
431.96	299.04
432.33	301.54
432.70	303.96
433.08	306.78
433.45	309.50
433.82	312.10
434.19	314.95
434.56	317.80
434.93	320.50
435.30	323.15
435.68	326.08
436.05	328.91
436.42	331.69
436.79	334.19
437.16	336.91
437.53	339.79
437.90	342.63
438.27	345.39
438.64	348.20
439.01	350.81
439.38	353.06
439.75	355.25
440.13	357.74
440.50	360.08
440.87	361.90
441.24	363.82
441.61	365.96
441.98	367.46
442.35	369.24
442.72	371.08
443.09	372.86
443.46	373.86
443.83	374.48
444.20	374.97
444.57	375.82
444.94	376.11
445.31	376.46
445.68	376.85
446.05	376.94
446.42	376.58
446.79	376.13
447.16	375.69
447.53	375.35
447.90	374.22
448.27	373.06
448.64	371.51
449.01	370.37
449.37	368.44
449.74	366.57
450.11	364.31
450.48	361.83
450.85	359.32
451.22	357.16
451.59	355.14
451.96	353.22
452.33	350.64
452.70	348.27
453.07	345.40
453.43	342.46
453.80	339.69
454.17	337.00
454.54	334.50
454.91	331.78
455.28	329.14
455.65	326.62
456.02	324.19
456.38	322.02
456.75	319.33
457.12	317.10
457.49	314.87
457.86	312.70
458.23	310.85
458.59	308.79
458.96	306.68
459.33	304.79
459.70	302.92
460.07	301.37
460.43	299.63
460.80	298.01
461.17	296.57
461.54	295.07
461.91	293.65
462.27	292.13
462.64	290.84
463.01	289.46
463.38	288.19
463.74	286.75
464.11	285.58
464.48	284.60
464.85	283.44
465.21	282.58
465.58	281.63
465.95	280.52
466.32	279.57
466.68	278.68
467.05	277.80
467.42	276.89
467.78	275.93
468.15	275.05
468.52	274.36
468.88	273.46
469.25	272.66
469.62	272.00
469.98	271.34
470.35	270.72
470.72	270.13
471.08	269.43
471.45	268.93
471.82	268.37
472.18	267.76
472.55	267.31
472.92	266.75
473.28	266.31
473.65	265.85
474.02	265.43
474.38	265.05
474.75	264.67
475.11	264.31
475.48	264.04
475.85	263.78
476.21	263.53
476.58	263.37
476.94	263.18
477.31	263.03
477.67	262.89
478.04	262.79
478.41	262.71
478.77	262.76
479.14	262.63
479.50	262.64
479.87	262.71
480.23	262.76
480.60	262.84
480.96	262.90
481.33	263.15
481.69	263.34
482.06	263.54
482.42	263.81
482.79	264.09
483.15	264.43
483.52	264.82
483.88	265.20
484.25	265.56
484.61	266.03
484.98	266.46
485.34	266.99
485.71	267.57
486.07	268.19
486.44	268.78
486.80	269.52
487.17	270.27
487.53	271.06
487.90	271.95
488.26	272.90
488.62	273.89
488.99	274.82
489.35	275.90
489.72	277.03
490.08	278.22
490.44	279.47
490.81	280.80
491.17	282.16
491.54	283.62
491.90	285.16
492.26	286.81
492.63	288.54
492.99	290.39
493.36	292.31
493.72	294.32
494.08	296.44
494.45	298.70
494.81	301.01
495.17	303.43
495.54	306.00
495.90	308.71
496.26	311.56
496.63	314.52
496.99	317.63
497.35	320.88
497.72	324.29
498.08	327.83
498.44	331.53
498.80	335.49
499.17	339.52
499.53	343.79
499.89	348.18
500.26	352.71
500.62	357.32
500.98	362.26
501.34	367.32
501.71	372.61
502.07	378.03
502.43	383.70
502.79	389.55
503.16	395.63
503.52	401.88
503.88	408.23
504.24	414.89
504.60	421.80
504.97	428.89
505.33	436.18
505.69	443.84
506.05	451.62
506.41	459.52
506.78	467.74
507.14	476.15
507.50	484.91
507.86	493.90
508.22	503.06
508.59	512.29
508.95	521.88
509.31	531.67
509.67	541.80
510.03	552.12
510.39	562.63
510.75	573.43
511.12	584.41
511.48	595.75
511.84	607.22
512.20	618.71
512.56	630.64
512.92	642.85
513.28	655.20
513.64	667.69
514.00	680.41
514.37	693.25
514.73	706.30
515.09	719.27
515.45	732.59
515.81	746.23
516.17	760.19
516.53	774.31
516.89	788.56
517.25	802.78
517.61	817.13
517.97	831.60
518.33	846.03
518.69	860.77
519.05	875.75
519.41	890.95
519.77	906.54
520.13	922.12
520.49	937.45
520.85	952.90
521.21	968.67
521.57	984.91
521.93	1000.82
522.29	1017.25
522.65	1033.58
523.01	1049.83
523.37	1065.90
523.73	1082.12
524.09	1098.43
524.45	1114.74
524.81	1131.39
525.17	1148.27
525.53	1165.31
525.89	1182.29
526.25	1199.17
526.61	1215.58
526.97	1232.39
527.33	1248.89
527.68	1265.49
528.04	1282.24
528.40	1298.86
528.76	1315.95
529.12	1332.63
529.48	1349.46
529.84	1365.49
530.20	1382.25
530.56	1399.28
530.91	1416.72
531.27	1433.52
531.63	1449.94
531.99	1466.62
532.35	1482.65
532.71	1498.67
533.07	1514.89
533.42	1530.75
533.78	1546.72
534.14	1563.10
534.50	1578.48
534.86	1594.45
535.21	1609.67
535.57	1625.48
535.93	1641.07
536.29	1655.97
536.65	1671.00
537.00	1685.92
537.36	1701.35
537.72	1715.80
538.08	1730.23
538.44	1744.04
538.79	1757.90
539.15	1771.72
539.51	1785.42
539.87	1799.77
540.22	1813.44
540.58	1827.45
540.94	1840.97
541.29	1854.21
541.65	1866.90
542.01	1880.20
542.37	1892.48
542.72	1904.99
543.08	1916.87
543.44	1929.30
543.79	1940.46
544.15	1951.57
544.51	1962.94
544.87	1973.90
545.22	1984.64
545.58	1995.02
545.94	2004.78
546.29	2014.75
546.65	2024.55
547.01	2033.88
547.36	2042.73
547.72	2051.34
548.07	2059.01
548.43	2067.13
548.79	2074.99
549.14	2082.61
549.50	2089.90
549.86	2097.80
550.21	2105.14
550.57	2112.36
550.92	2119.08
551.28	2126.22
551.64	2133.21
551.99	2140.04
552.35	2146.11
552.70	2152.39
553.06	2158.29
553.41	2164.76
553.77	2170.78
554.13	2176.86
554.48	2183.02
554.84	2188.34
555.19	2193.61
555.55	2198.86
555.90	2203.42
556.26	2208.37
556.61	2213.11
556.97	2217.37
557.32	2221.46
557.68	2225.57
558.03	2229.84
558.39	2233.39
558.74	2238.03
559.10	2242.00
559.45	2245.58
559.81	2249.99
560.16	2253.76
560.52	2257.03
560.87	2260.36
561.23	2263.09
561.58	2266.07
561.94	2268.67
562.29	2271.08
562.64	2273.68
563.00	2276.26
563.35	2279.67
563.71	2282.72
564.06	2285.75
564.42	2288.63
564.77	2290.95
565.12	2293.14
565.48	2294.87
565.83	2296.62
566.19	2297.82
566.54	2298.66
566.89	2299.80
567.25	2300.32
567.60	2301.64
567.96	2303.33
568.31	2304.30
568.66	2305.34
569.02	2305.92
569.37	2306.22
569.72	2307.09
570.08	2307.31
570.43	2307.21
570.78	2306.45
571.14	2304.95
571.49	2303.68
571.84	2303.32
572.20	2302.11
572.55	2301.03
572.90	2299.54
573.26	2298.19
573.61	2296.49
573.96	2294.64
574.31	2291.62
574.67	2288.45
575.02	2284.86
575.37	2281.34
575.72	2277.32
576.08	2274.00
576.43	2270.51
576.78	2266.77
577.13	2263.63
577.49	2260.45
577.84	2256.85
578.19	2253.15
578.54	2249.41
578.90	2244.97
579.25	2239.34
579.60	2234.33
579.95	2229.22
580.30	2224.16
580.66	2218.93
581.01	2213.97
581.36	2209.05
581.71	2204.73
582.06	2200.36
582.42	2195.77
582.77	2190.46
583.12	2185.87
583.47	2180.97
583.82	2175.92
584.17	2170.47
584.53	2164.71
584.88	2158.94
585.23	2153.23
585.58	2147.74
585.93	2142.24
586.28	2137.66
586.63	2132.60
586.98	2127.60
587.34	2122.87
587.69	2117.92
588.04	2112.61
588.39	2106.97
588.74	2100.46
589.09	2094.35
589.44	2087.54
589.79	2081.51
590.14	2075.98
590.49	2069.29
590.84	2062.86
591.19	2056.78
591.54	2050.32
591.89	2042.94
592.25	2036.06
592.60	2028.75
592.95	2021.11
593.30	2013.76
593.65	2006.02
594.00	1998.97
594.35	1991.73
594.70	1983.61
595.05	1976.32
595.40	1969.06
595.75	1961.33
596.10	1954.91
596.45	1948.03
596.80	1941.84
597.15	1935.13
597.50	1927.72
597.85	1921.39
598.19	1914.66
598.54	1907.44
598.89	1900.87
599.24	1895.01
599.59	1888.30
599.94	1882.11
600.29	1875.85
600.64	1869.16
600.99	1861.52
601.34	1854.55
601.69	1847.40
602.04	1840.51
602.39	1833.18
602.74	1826.20
603.08	1819.49
603.43	1812.72
603.78	1805.38
604.13	1798.02
604.48	1790.72
604.83	1783.97
605.18	1776.88
605.53	1768.96
605.87	1761.01
606.22	1753.71
606.57	1745.66
606.92	1738.33
607.27	1731.04
607.62	1723.96
607.96	1716.74
608.31	1710.15
608.66	1702.45
609.01	1694.89
609.36	1687.29
609.70	1679.14
610.05	1671.07
610.40	1663.28
610.75	1655.02
611.10	1647.32
611.44	1639.03
611.79	1631.03
612.14	1622.36
612.49	1613.16
612.83	1604.69
613.18	1596.54
613.53	1588.36
613.88	1579.90
614.22	1571.66
614.57	1563.06
614.92	1555.06
615.27	1547.41
615.61	1539.23
615.96	1531.32
616.31	1523.66
616.65	1516.31
617.00	1508.86
617.35	1501.19
617.70	1492.81
618.04	1484.28
618.39	1476.01
618.74	1468.26
619.08	1459.99
619.43	1452.24
619.78	1445.33
620.12	1438.22
620.47	1430.59
620.82	1422.49
621.16	1415.07
621.51	1407.44
621.85	1399.84
622.20	1391.29
622.55	1382.92
622.89	1375.00
623.24	1367.35
623.59	1360.03
623.93	1352.48
624.28	1345.20
624.62	1337.68
624.97	1330.49
625.32	1323.82
625.66	1316.87
626.01	1309.65
626.35	1302.04
626.70	1294.45
627.04	1286.79
627.39	1278.99
627.73	1271.74
628.08	1264.70
628.43	1257.30
628.77	1249.88
629.12	1242.25
629.46	1235.07
629.81	1227.63
630.15	1220.39
630.50	1212.92
630.84	1204.68
631.19	1196.78
631.53	1189.34
631.88	1181.79
632.22	1174.32
632.57	1167.00
632.91	1159.41
633.26	1152.01
633.60	1144.80
633.95	1137.77
634.29	1130.77
634.64	1124.15
634.98	1116.68
635.32	1109.59
635.67	1103.07
636.01	1096.44
636.36	1089.72
636.70	1083.28
637.05	1076.73
637.39	1070.29
637.73	1063.82
638.08	1057.94
638.42	1051.91
638.77	1045.40
639.11	1038.92
639.45	1032.40
639.80	1025.76
640.14	1019.37
640.49	1012.96
640.83	1006.60
641.17	1000.30
641.52	993.89
641.86	987.41
642.20	981.59
642.55	975.30
642.89	968.76
643.23	962.24
643.58	956.40
643.92	950.06
644.26	943.93
644.61	937.88
644.95	931.78
645.29	925.15
645.64	918.48
645.98	912.17
646.32	906.19
646.66	900.21
647.01	894.37
647.35	888.65
647.69	882.79
648.04	877.24
648.38	871.42
648.72	865.45
649.06	859.31
649.41	853.36
649.75	847.32
650.09	841.35
650.43	835.47
650.78	829.40
651.12	823.58
651.46	817.91
651.80	812.13
652.14	806.83
652.49	801.50
652.83	796.37
653.17	790.64
653.51	784.89
653.85	779.58
654.20	773.94
654.54	767.95
654.88	762.23
655.22	756.34
655.56	750.69
655.90	745.21
656.25	740.04
656.59	734.77
656.93	729.72
657.27	724.58
657.61	719.22
657.95	714.10
658.29	708.93
658.64	703.69
658.98	698.44
659.32	692.89
659.66	687.67
660.00	682.32
660.34	677.39
660.68	672.52
661.02	667.48
661.36	662.75
661.70	658.26
662.05	653.87
662.39	649.52
662.73	645.03
663.07	640.64
663.41	636.23
663.75	631.72
664.09	627.12
664.43	622.75
664.77	618.63
665.11	614.32
665.45	610.27
665.79	606.22
666.13	602.09
666.47	598.07
666.81	593.93
667.15	589.82
667.49	585.95
667.83	582.16
668.17	578.22
668.51	574.14
668.85	570.12
669.19	566.26
669.53	562.43
669.87	558.53
670.21	554.87
670.55	551.19
670.89	547.81
671.23	544.42
671.57	540.88
671.91	537.29
672.25	533.87
672.58	530.33
672.92	526.89
673.26	523.74
673.60	520.58
673.94	517.50
674.28	514.63
674.62	511.62
674.96	508.49
675.30	505.56
675.64	502.71
675.97	499.95
676.31	497.12
676.65	494.24
676.99	491.62
677.33	488.77
677.67	485.96
678.01	482.84
678.34	479.91
678.68	477.06
679.02	474.28
679.36	471.53
679.70	468.77
680.04	466.02
680.37	463.13
680.71	460.34
681.05	457.71
681.39	454.94
681.73	452.29
682.06	449.80
682.40	447.26
682.74	444.74
683.08	442.17
683.42	439.55
683.75	437.06
684.09	434.52
684.43	432.04
684.77	429.59
685.10	427.30
685.44	424.94
685.78	422.69
686.12	420.47
686.45	418.22
686.79	415.96
687.13	413.80
687.46	411.66
687.80	409.56
688.14	407.37
688.48	405.32
688.81	403.10
689.15	400.97
689.49	398.78
689.82	396.71
690.16	394.67
690.50	392.71
690.83	390.77
691.17	388.72
691.51	386.78
691.84	384.93
692.18	382.99
692.52	381.00
692.85	379.08
693.19	377.21
693.52	375.39
693.86	373.58
694.20	371.79
694.53	369.95
694.87	368.04
695.21	366.24
695.54	364.43
695.88	362.70
696.21	360.96
696.55	359.32
696.88	357.59
697.22	355.94
697.56	354.37
697.89	352.72
698.23	351.14
698.56	349.51
698.90	347.90
699.23	346.20
699.57	344.65
699.90	343.11
700.24	341.54
700.58	339.99
700.91	338.49
701.25	337.02
701.58	335.65
701.92	334.27
702.25	332.90
702.59	331.55
702.92	330.19
703.26	328.88
703.59	327.58
703.93	326.44
704.26	325.14
704.60	323.80
704.93	322.52
705.26	321.27
705.60	320.14
705.93	318.99
706.27	317.99
706.60	316.93
706.94	315.83
707.27	314.69
707.61	313.61
707.94	312.59
708.27	311.50
708.61	310.42
708.94	309.48
709.28	308.52
709.61	307.58
709.94	306.68
710.28	305.67
710.61	304.65
710.95	303.57
711.28	302.72
711.61	301.75
711.95	300.81
712.28	299.88
712.61	298.88
712.95	297.96
713.28	297.08
713.61	296.20
713.95	295.34
714.28	294.53
714.61	293.67
714.95	292.79
715.28	291.90
715.61	291.03
715.95	290.15
716.28	289.29
716.61	288.42
716.95	287.61
717.28	286.86
717.61	286.14
717.94	285.38
718.28	284.52
718.61	283.83
718.94	283.14
719.27	282.45
719.61	281.80
719.94	281.11
720.27	280.41
720.60	279.78
720.94	279.13
721.27	278.51
721.60	277.93
721.93	277.37
722.27	276.86
722.60	276.32
722.93	275.76
723.26	275.20
723.59	274.64
723.93	274.09
724.26	273.49
724.59	272.94
724.92	272.43
725.25	271.95
725.59	271.42
725.92	270.90
726.25	270.40
726.58	269.93
726.91	269.45
727.24	268.96
727.57	268.50
727.91	267.97
728.24	267.54
728.57	267.04
728.90	266.61
729.23	266.11
729.56	265.67
729.89	265.20
730.22	264.71
730.55	264.23
730.89	263.79
731.22	263.39
731.55	262.94
731.88	262.48
732.21	262.05
732.54	261.59
732.87	261.18
733.20	260.81
733.53	260.41
733.86	260.05
734.19	259.67
734.52	259.24
734.85	258.94
735.18	258.50
735.51	258.16
735.84	257.75
736.17	257.39
736.50	256.99
736.83	256.78
737.16	256.47
737.49	256.13
737.82	255.80
738.15	255.47
738.48	255.16
738.81	254.86
739.14	254.54
739.47	254.28
739.80	253.99
740.13	253.70
740.46	253.37
740.79	253.02
741.12	252.71
741.45	252.43
741.78	252.07
742.11	251.81
742.44	251.46
742.77	251.20
743.10	250.88
743.43	250.64
743.75	250.24
744.08	250.11
744.41	249.86
744.74	249.58
745.07	249.29
745.40	249.03
745.73	248.78
746.06	248.51
746.39	248.25
746.71	247.99
747.04	247.66
747.37	247.45
747.70	247.24
748.03	247.02
748.36	246.77
748.68	246.53
749.01	246.28
749.34	246.06
749.67	245.83
750.00	245.63
750.33	245.44
750.65	245.20
750.98	244.81
751.31	244.58
751.64	244.38
751.97	244.23
752.29	244.02
752.62	243.80
752.95	243.59
753.28	243.37
753.60	243.14
753.93	243.00
754.26	242.79
754.59	242.53
754.91	242.30
755.24	242.11
755.57	241.95
755.90	241.73
756.22	241.55
756.55	241.35
756.88	241.18
757.20	240.95
757.53	240.78
757.86	240.65
758.19	240.49
758.51	240.28
758.84	240.05
759.17	239.89
759.49	239.73
759.82	239.62
760.15	239.47
760.47	239.34
760.80	239.16
761.13	239.07
761.45	238.90
761.78	238.79
762.11	238.66
762.43	238.51
762.76	238.36
763.08	238.27
763.41	238.14
763.74	237.98
764.06	237.82
764.39	237.67
764.71	237.53
765.04	237.40
765.37	237.29
765.69	237.16
766.02	237.04
766.34	236.91
766.67	236.73
767.00	236.62
767.32	236.55
767.65	236.51
767.97	236.35
768.30	236.28
768.62	236.17
768.95	236.05
769.27	235.94
769.60	235.84
769.92	235.69
770.25	235.60
770.57	235.47
770.90	235.40
771.22	235.34
771.55	235.22
771.87	235.12
772.20	235.02
772.52	235.04
772.85	235.03
773.17	234.93
773.50	234.84
773.82	234.76
774.15	234.63
774.47	234.46
774.80	234.34
775.12	234.26
775.45	234.20
775.77	234.11
776.09	234.04
776.42	233.99
776.74	233.94
777.07	233.84
777.39	233.78
777.72	233.66
778.04	233.57
778.36	233.54
778.69	233.49
779.01	233.42
779.33	233.25
779.66	233.07
779.98	232.98
780.31	232.95
780.63	232.91
780.95	232.86
781.28	232.79
781.60	232.75
781.92	232.70
782.25	232.59
782.57	232.54
782.89	232.47
783.22	232.40
783.54	232.34
783.86	232.29
784.19	232.21
784.51	232.23
784.83	232.17
785.16	232.06
785.48	232.02
785.80	231.99
786.12	231.95
786.45	231.90
786.77	231.87
787.09	231.82
787.42	231.73
787.74	231.67
788.06	231.63
788.38	231.62
788.71	231.54
789.03	231.51
789.35	231.48
789.67	231.46
789.99	231.45
790.32	231.36
790.64	231.30
790.96	231.37
791.28	231.27
791.61	231.24
791.93	231.23
792.25	231.17
792.57	231.18
792.89	231.12
793.21	231.09
793.54	231.04
793.86	230.98
794.18	230.95
794.50	230.86
794.82	230.82
795.14	230.76
795.47	230.74
795.79	230.68
796.11	230.59
796.43	230.53
796.75	230.45
797.07	230.42
797.39	230.39
797.71	230.26
798.04	230.25
798.36	230.22
798.68	230.16
799.00	230.15
799.32	230.08
799.64	230.05
799.96	230.01
800.28	230.01
800.60	229.97
800.92	229.99
801.24	229.96
801.56	229.95
801.89	229.89
802.21	229.88
802.53	229.83
802.85	229.83
803.17	229.84
803.49	229.84
803.81	229.80
804.13	229.75
804.45	229.72
804.77	229.70
805.09	229.67
805.41	229.63
805.73	229.57
806.05	229.50
806.37	229.45
806.69	229.42
807.01	229.34
807.33	229.33
807.65	229.23
807.97	229.24
808.28	229.19
808.60	229.18
808.92	229.10
809.24	229.15
809.56	229.13
809.88	229.07
810.20	229.03
810.52	229.03
810.84	229.02
811.16	228.99
811.48	228.95
811.80	228.94
812.12	228.91
812.43	228.88
812.75	228.89
813.07	228.90
813.39	228.89
813.71	228.86
814.03	228.78
814.35	228.75
814.67	228.73
814.98	228.71
815.30	228.69
815.62	228.64
815.94	228.52
816.26	228.53
816.58	228.50
816.89	228.48
817.21	228.46
817.53	228.45
817.85	228.42
818.17	228.39
818.48	228.33
818.80	228.35
819.12	228.33
819.44	228.30
819.76	228.25
820.07	228.23
820.39	228.22
820.71	228.25
821.03	228.27
821.34	228.21
821.66	228.22
821.98	228.20
822.30	228.20
822.61	228.31
822.93	228.23
823.25	228.23
823.57	228.20
823.88	228.19
824.20	228.17
824.52	228.18
824.83	228.18
825.15	228.16
825.47	228.12
825.79	228.14
826.10	228.10
826.42	228.08
826.74	228.10
827.05	228.09
827.37	228.06
827.69	228.00
828.00	228.02
828.32	228.00
828.64	228.00
828.95	228.06
829.27	228.01
829.58	228.03
829.90	228.04
830.22	228.04
830.53	227.99
830.85	228.00
831.17	227.99
831.48	227.97
831.80	227.98
832.11	227.99
832.43	227.98
832.75	228.00
833.06	228.07
833.38	228.00
833.69	228.03
834.01	228.06
834.32	228.11
834.64	228.08
834.96	228.06
835.27	228.05
835.59	228.02
835.90	227.98
836.22	227.97
836.53	227.91
836.85	227.89
837.16	228.01
837.48	228.01
837.79	228.03
838.11	228.03
838.42	228.01
838.74	228.01
839.05	227.96
839.37	227.95
839.68	227.86
840.00	227.87
840.31	227.84
840.63	227.84
840.94	227.81
841.26	227.80
841.57	227.81
841.88	227.84
842.20	227.80
842.51	227.78
842.83	227.78
843.14	227.87
843.46	227.90
843.77	227.82
844.08	227.80
844.40	227.76
844.71	227.76
845.03	227.79
845.34	227.76
845.65	227.78
845.97	227.81
846.28	227.82
846.60	227.81
846.91	227.77
847.22	227.72
847.54	227.74
847.85	227.75
848.16	227.72
848.48	227.66
848.79	227.70
849.10	227.70
849.42	227.70
849.73	227.62
850.04	227.60
850.36	227.59
850.67	227.60
850.98	227.60
851.30	227.60
851.61	227.55
851.92	227.54
852.23	227.58
852.55	227.54
852.86	227.54
853.17	227.54
853.49	227.57
853.80	227.60
854.11	227.57
854.42	227.56
854.74	227.55
855.05	227.55
855.36	227.49
855.67	227.48
855.99	227.49
856.30	227.59
856.61	227.58
856.92	227.56
857.23	227.56
857.55	227.56
857.86	227.54
858.17	227.54
858.48	227.57
858.79	227.52
859.11	227.56
859.42	227.55
859.73	227.55
860.04	227.55
860.35	227.55
860.66	227.52
860.98	227.54
861.29	227.54
861.60	227.56
861.91	227.57
862.22	227.56
862.53	227.53
862.84	227.45
863.16	227.48
863.47	227.45
863.78	227.43
864.09	227.43
864.40	227.41
864.71	227.42
865.02	227.41
865.33	227.43
865.64	227.37
865.95	227.39
866.27	227.43
866.58	227.41
866.89	227.40
867.20	227.43
867.51	227.42
867.82	227.41
868.13	227.45
868.44	227.45
868.75	227.45
869.06	227.46
869.37	227.44
869.68	227.39
869.99	227.43
870.30	227.41
870.61	227.40
870.92	227.41
871.23	227.39
871.54	227.40
871.85	227.41
872.16	227.41
872.47	227.40
872.78	227.31
873.09	227.34
873.40	227.31
873.71	227.30
874.02	227.30
874.33	227.34
874.64	227.30
874.95	227.31
875.26	227.32
875.56	227.29
875.87	227.28
876.18	227.29
876.49	227.37
876.80	227.36
877.11	227.37
877.42	227.36
877.73	227.37
878.04	227.34
878.35	227.32
878.66	227.34
878.96	227.36
879.27	227.40
879.58	227.40
879.89	227.41
880.20	227.41
880.51	227.41
880.82	227.36
881.12	227.37
881.43	227.35
881.74	227.36
882.05	227.35
882.36	227.35
882.67	227.30
882.97	227.19
883.28	227.20
883.59	227.18
883.90	227.20
884.21	227.20
884.51	227.19
884.82	227.17
885.13	227.16
885.44	227.12
885.74	227.09
886.05	227.08
886.36	227.07
886.67	227.06
886.98	227.12
887.28	227.16
887.59	227.13
887.90	227.14
888.20	227.09
888.51	227.16
888.82	227.15
889.13	227.18
889.43	227.27
889.74	227.24
890.05	227.27
890.35	227.25
890.66	227.24
890.97	227.24
891.28	227.25
891.58	227.24
891.89	227.28
892.20	227.28
892.50	227.24
892.81	227.24
893.12	227.24
893.42	227.17
893.73	227.16
894.04	227.16
894.34	227.15
894.65	227.17
894.95	227.10
895.26	227.12
895.57	227.18
895.87	227.10
896.18	227.14
896.48	227.08
896.79	227.10
897.10	227.12
897.40	227.12
897.71	227.11
898.01	227.10
898.32	227.09
898.63	227.09
898.93	227.15
899.24	227.11
899.54	227.10
899.85	227.11
900.15	227.10
900.46	227.08
900.76	227.08
901.07	227.08
901.38	227.10
901.68	227.11
901.99	227.02
902.29	227.02
902.60	226.97
902.90	227.01
903.21	227.01
903.51	226.99
903.82	227.03
904.12	227.00
904.43	227.00
904.73	226.99
905.03	227.02
905.34	227.06
905.64	227.08
905.95	227.08
906.25	227.09
906.56	227.11
906.86	227.11
907.17	227.11
907.47	227.12
907.77	227.09
908.08	227.06
908.38	227.09
908.69	227.11
908.99	227.15
909.30	227.15
909.60	227.15
909.90	227.12
910.21	227.06
910.51	227.10
910.81	227.10
911.12	227.09
911.42	227.08
911.73	226.96
912.03	226.98
912.33	227.00
912.64	226.97
912.94	226.96
913.24	226.95
913.55	226.93
913.85	226.92
914.15	226.92
914.46	226.91
914.76	226.90
915.06	226.88
915.37	226.87
915.67	226.87
915.97	226.89
916.27	226.89
916.58	226.90
916.88	226.85
917.18	226.83
917.49	226.91
917.79	226.87
918.09	226.94
918.39	226.94
918.70	226.92
919.00	226.89
919.30	226.94
919.60	226.92
919.91	226.93
920.21	226.92
920.51	226.93
920.81	226.93
921.12	226.94
921.42	226.92
921.72	226.92
922.02	226.90
922.32	226.88
922.63	226.89
922.93	226.95
923.23	226.98
923.53	226.99
923.83	226.92
924.13	226.96
924.44	226.92
924.74	226.93
925.04	226.96
925.34	227.00
925.64	226.98
925.94	226.99
926.24	227.07
926.55	227.06
926.85	227.07
927.15	227.08
927.45	227.07
927.75	227.09
928.05	227.07
928.35	227.08
928.65	227.10
928.95	227.14
929.26	227.14
929.56	227.13
929.86	227.16
930.16	227.15
930.46	227.13
930.76	227.14
931.06	227.12
931.36	227.12
931.66	227.14
931.96	227.14
932.26	227.15
932.56	227.08
932.86	227.09
933.16	227.10
933.46	227.10
933.76	227.11
934.06	227.14
934.36	227.18
934.66	227.17
934.96	227.15
935.26	227.11
935.56	227.10
935.86	227.09
936.16	227.11
936.46	227.12
936.76	227.10
937.06	227.11
937.36	227.11
937.66	227.08
937.96	227.05
938.26	227.01
938.56	227.00
938.86	227.02
939.16	227.04
939.46	227.05
939.76	227.05
940.06	227.06
940.35	227.05
940.65	227.00
940.95	227.00
941.25	226.99
941.55	226.98
941.85	226.95
942.15	226.99
942.45	226.98
942.75	226.97
943.04	226.97
943.34	226.99
943.64	226.99
943.94	226.98
944.24	226.97
944.54	226.96
944.84	226.96
945.13	226.94
945.43	226.93
945.73	226.95
946.03	226.94
946.33	226.87
946.62	226.86
946.92	226.84
947.22	226.85
947.52	226.84
947.82	226.83
948.11	226.86
948.41	226.86
948.71	226.82
949.01	226.81
949.31	226.81
949.60	226.78
949.90	226.79
950.20	226.78
950.50	226.80
950.79	226.84
951.09	226.86
951.39	226.88
951.69	226.86
951.98	226.84
952.28	226.83
952.58	226.86
952.87	226.86
953.17	226.91
953.47	226.91
953.76	226.91
954.06	226.90
954.36	226.87
954.66	226.84
954.95	226.89
955.25	226.88
955.55	226.88
955.84	226.88
956.14	226.87
956.44	226.90
956.73	226.89
957.03	226.89
957.32	226.87
957.62	226.84
957.92	226.85
958.21	226.86
958.51	226.99
958.81	227.00
959.10	227.01
959.40	227.00
959.69	227.02
959.99	227.03
960.29	227.04
960.58	227.02
960.88	227.06
961.17	227.02
961.47	227.05
961.76	227.07
962.06	227.07
962.36	227.06
962.65	227.03
962.95	227.02
963.24	227.02
963.54	227.02
963.83	227.07
964.13	227.06
964.42	227.04
964.72	226.94
965.01	226.92
965.31	226.91
965.60	226.88
965.90	226.91
966.19	226.89
966.49	226.89
966.78	226.91
967.08	226.88
967.37	226.92
967.67	226.90
967.96	226.90
968.26	226.91
968.55	226.95
968.85	226.96
969.14	226.99
969.43	226.97
969.73	226.97
970.02	226.92
970.32	226.90
970.61	226.90
970.91	226.83
971.20	226.85
971.49	226.81
971.79	226.81
972.08	226.76
972.38	226.77
972.67	226.80
972.96	226.80
973.26	226.79
973.55	226.80
973.85	226.81
974.14	226.79
974.43	226.77
974.73	226.74
975.02	226.74
975.31	226.75
975.61	226.75
975.90	226.72
976.19	226.72
976.49	226.72
976.78	226.73
977.07	226.77
977.37	226.75
977.66	226.78
977.95	226.78
978.24	226.82
978.54	226.84
978.83	226.80
979.12	226.81
979.42	226.79
979.71	226.74
980.00	226.71
980.29	226.71
980.59	226.72
980.88	226.74
981.17	226.72
981.46	226.69
981.76	226.68
982.05	226.70
982.34	226.72
982.63	226.73
982.93	226.72
983.22	226.72
983.51	226.72
983.80	226.74
984.09	226.74
984.39	226.68
984.68	226.66
984.97	226.69
985.26	226.67
985.55	226.67
985.85	226.67
986.14	226.68
986.43	226.68
986.72	226.69
987.01	226.62
987.30	226.63
987.59	226.65
987.89	226.64
988.18	226.62
988.47	226.62
988.76	226.63
989.05	226.64
989.34	226.66
989.63	226.66
989.92	226.66
990.22	226.65
990.51	226.66
990.80	226.68
991.09	226.66
991.38	226.69
991.67	226.69
991.96	226.68
992.25	226.70
992.54	226.67
992.83	226.65
993.12	226.67
993.41	226.68
993.70	226.70
993.99	226.73
994.28	226.72
994.58	226.73
994.87	226.69
995.16	226.67
995.45	226.64
995.74	226.64
996.03	226.63
996.32	226.66
996.61	226.70
996.90	226.67
997.19	226.67
997.48	226.71
997.77	226.69
998.06	226.69
998.34	226.70
998.63	226.73
998.92	226.76
999.21	226.78
999.50	226.78
999.79	226.75
1000.08	226.74
1000.37	226.76
1000.66	226.74
1000.95	226.77
1001.24	226.78
1001.53	226.80
1001.82	226.79
1002.11	226.77
1002.40	226.76
1002.68	226.77
1002.97	226.87
1003.26	226.87
1003.55	226.81
1003.84	226.83
1004.13	226.85
1004.42	226.82
1004.71	226.81
1004.99	226.80
1005.28	226.83
1005.57	226.86
1005.86	226.83
1006.15	226.85
1006.44	226.86
1006.72	226.88
1007.01	226.88
1007.30	226.91
1007.59	226.88
1007.88	226.87
1008.17	226.91
1008.45	226.87
1008.74	226.84
1009.03	226.76
1009.32	226.75
1009.60	226.76
1009.89	226.75
1010.18	226.73
1010.47	226.73
1010.76	226.76
1011.04	226.70
1011.33	226.68
1011.62	226.67
1011.91	226.70
1012.19	226.70
1012.48	226.68
1012.77	226.64
1013.05	226.68
1013.34	226.64
1013.63	226.66
1013.92	226.67
1014.20	226.64
1014.49	226.68
1014.78	226.69
1015.06	226.69
1015.35	226.74
1015.64	226.74
1015.92	226.73
1016.21	226.70
1016.50	226.71
1016.78	226.70
1017.07	226.75
1017.36	226.76
1017.64	226.73
1017.93	226.70
1018.22	226.66
1018.50	226.67
1018.79	226.70
1019.08	226.67
1019.36	226.66
1019.65	226.64
1019.93	226.67
1020.22	226.69
1020.51	226.73
1020.79	226.73
1021.08	226.16
1021.36	226.67
1021.65	226.87
1021.94	226.71
1022.22	226.47
1022.51	226.33
1022.79	227.18
1023.08	226.98
1023.36	227.74
1023.65	226.70
>>>>>End Processed Spectral Data<<<<<
