SpectraSuite Data File
++++++++++++++++++++++++++++++++++++
Date: Fri Feb 01 16:30:05 EST 2013
User: group
Dark Spectrum Present: No
Reference Spectrum Present: No
Number of Sampled Component Spectra: 1
Spectrometers: USB2E7196
Integration Time (usec): 35000 (USB2E7196)
Spectra Averaged: 100 (USB2E7196)
Boxcar Smoothing: 10 (USB2E7196)
Correct for Electrical Dark: No (USB2E7196)
Strobe/Lamp Enabled: No (USB2E7196)
Correct for Detector Non-linearity: No (USB2E7196)
Correct for Stray Light: No (USB2E7196)
Number of Pixels in Processed Spectrum: 2048
>>>>>Begin Processed Spectral Data<<<<<
339.09	0.00
339.48	214.00
339.86	215.05
340.24	216.78
340.63	217.90
341.01	221.12
341.39	220.66
341.78	222.08
342.16	222.88
342.54	224.23
342.93	212.27
343.31	222.99
343.69	223.54
344.07	224.02
344.46	224.44
344.84	224.82
345.22	225.05
345.60	225.33
345.99	225.53
346.37	225.70
346.75	225.79
347.13	225.87
347.52	225.94
347.90	226.05
348.28	226.09
348.66	226.14
349.05	226.13
349.43	226.17
349.81	226.25
350.19	226.31
350.57	226.37
350.96	226.43
351.34	226.53
351.72	226.60
352.10	226.68
352.48	226.74
352.87	226.80
353.25	226.86
353.63	226.90
354.01	226.94
354.39	227.02
354.77	227.07
355.15	227.20
355.54	227.25
355.92	227.27
356.30	227.32
356.68	227.41
357.06	227.47
357.44	227.55
357.82	227.60
358.20	227.65
358.58	227.69
358.97	227.76
359.35	227.85
359.73	227.93
360.11	227.99
360.49	228.07
360.87	228.08
361.25	228.17
361.63	228.25
362.01	228.32
362.39	228.33
362.77	228.40
363.15	228.41
363.53	228.43
363.91	228.45
364.29	228.49
364.67	228.43
365.05	228.47
365.43	228.47
365.81	228.44
366.19	228.50
366.57	228.55
366.95	228.53
367.33	228.48
367.71	228.46
368.09	228.45
368.47	228.43
368.85	228.42
369.23	228.39
369.61	228.37
369.99	228.39
370.37	228.34
370.75	228.34
371.13	228.26
371.51	228.21
371.89	228.17
372.27	228.12
372.65	228.08
373.03	228.03
373.41	227.99
373.78	227.99
374.16	227.87
374.54	227.77
374.92	227.71
375.30	227.65
375.68	227.61
376.06	227.57
376.44	227.55
376.82	227.50
377.19	227.45
377.57	227.33
377.95	227.24
378.33	227.18
378.71	227.07
379.09	227.05
379.47	226.99
379.84	226.94
380.22	226.87
380.60	226.78
380.98	226.70
381.36	226.63
381.73	226.56
382.11	226.55
382.49	226.53
382.87	226.47
383.25	226.45
383.62	226.50
384.00	226.43
384.38	226.33
384.76	226.27
385.13	226.25
385.51	226.23
385.89	226.16
386.27	226.13
386.64	226.11
387.02	226.06
387.40	226.02
387.78	225.97
388.15	225.97
388.53	225.96
388.91	225.94
389.29	225.90
389.66	225.84
390.04	225.78
390.42	225.75
390.79	225.72
391.17	225.67
391.55	225.53
391.92	225.52
392.30	225.53
392.68	225.55
393.05	225.53
393.43	225.53
393.81	225.56
394.18	225.53
394.56	225.54
394.94	225.55
395.31	225.57
395.69	225.60
396.06	225.61
396.44	225.61
396.82	225.64
397.19	225.71
397.57	225.75
397.95	225.79
398.32	225.80
398.70	225.86
399.07	225.93
399.45	225.96
399.82	226.02
400.20	226.08
400.58	226.13
400.95	226.18
401.33	226.26
401.70	226.39
402.08	226.48
402.45	226.56
402.83	226.67
403.20	226.76
403.58	226.88
403.95	227.02
404.33	227.15
404.71	227.25
405.08	227.46
405.46	227.61
405.83	227.76
406.21	227.89
406.58	228.06
406.96	228.21
407.33	228.42
407.70	228.61
408.08	228.85
408.45	229.06
408.83	229.25
409.20	229.45
409.58	229.63
409.95	229.92
410.33	230.18
410.70	230.40
411.08	230.70
411.45	230.98
411.82	231.26
412.20	231.63
412.57	232.04
412.95	232.29
413.32	232.69
413.69	233.10
414.07	233.56
414.44	234.02
414.82	234.49
415.19	235.03
415.56	235.57
415.94	236.12
416.31	236.75
416.68	237.36
417.06	238.10
417.43	238.77
417.81	239.52
418.18	240.28
418.55	241.13
418.93	241.97
419.30	242.87
419.67	243.80
420.04	244.76
420.42	245.78
420.79	246.99
421.16	248.16
421.54	249.37
421.91	250.59
422.28	251.81
422.66	253.12
423.03	254.44
423.40	255.74
423.77	257.12
424.15	258.56
424.52	260.06
424.89	261.67
425.26	263.17
425.64	264.59
426.01	266.17
426.38	267.81
426.75	269.47
427.13	271.18
427.50	272.99
427.87	274.85
428.24	276.71
428.61	278.44
428.99	280.34
429.36	282.42
429.73	284.46
430.10	286.48
430.47	288.53
430.85	290.63
431.22	292.87
431.59	295.27
431.96	297.49
432.33	299.99
432.70	302.34
433.08	305.15
433.45	307.80
433.82	310.40
434.19	313.30
434.56	316.12
434.93	318.79
435.30	321.40
435.68	324.28
436.05	327.11
436.42	329.92
436.79	332.42
437.16	335.09
437.53	337.95
437.90	340.76
438.27	343.53
438.64	346.34
439.01	348.92
439.38	351.12
439.75	353.29
440.13	355.74
440.50	358.07
440.87	359.89
441.24	361.82
441.61	363.98
441.98	365.47
442.35	367.27
442.72	369.10
443.09	370.88
443.46	371.87
443.83	372.47
444.20	372.96
444.57	373.81
444.94	374.09
445.31	374.45
445.68	374.81
446.05	374.89
446.42	374.50
446.79	374.09
447.16	373.66
447.53	373.38
447.90	372.25
448.27	371.09
448.64	369.56
449.01	368.48
449.37	366.54
449.74	364.64
450.11	362.40
450.48	359.97
450.85	357.48
451.22	355.34
451.59	353.28
451.96	351.34
452.33	348.75
452.70	346.39
453.07	343.57
453.43	340.68
453.80	337.89
454.17	335.23
454.54	332.71
454.91	330.04
455.28	327.34
455.65	324.86
456.02	322.43
456.38	320.32
456.75	317.62
457.12	315.35
457.49	313.17
457.86	311.00
458.23	309.18
458.59	307.13
458.96	305.08
459.33	303.21
459.70	301.34
460.07	299.83
460.43	298.11
460.80	296.48
461.17	295.02
461.54	293.54
461.91	292.13
462.27	290.71
462.64	289.44
463.01	288.10
463.38	286.76
463.74	285.37
464.11	284.20
464.48	283.21
464.85	282.11
465.21	281.25
465.58	280.32
465.95	279.19
466.32	278.29
466.68	277.37
467.05	276.49
467.42	275.61
467.78	274.67
468.15	273.83
468.52	273.16
468.88	272.33
469.25	271.57
469.62	270.93
469.98	270.22
470.35	269.60
470.72	269.01
471.08	268.39
471.45	267.90
471.82	267.36
472.18	266.74
472.55	266.34
472.92	265.83
473.28	265.41
473.65	264.94
474.02	264.54
474.38	264.18
474.75	263.87
475.11	263.57
475.48	263.30
475.85	263.07
476.21	262.87
476.58	262.69
476.94	262.55
477.31	262.43
477.67	262.36
478.04	262.22
478.41	262.20
478.77	262.29
479.14	262.23
479.50	262.24
479.87	262.33
480.23	262.43
480.60	262.49
480.96	262.60
481.33	262.86
481.69	263.05
482.06	263.28
482.42	263.50
482.79	263.74
483.15	264.10
483.52	264.52
483.88	264.87
484.25	265.31
484.61	265.74
484.98	266.22
485.34	266.77
485.71	267.40
486.07	267.97
486.44	268.53
486.80	269.26
487.17	270.00
487.53	270.82
487.90	271.66
488.26	272.63
488.62	273.58
488.99	274.56
489.35	275.60
489.72	276.73
490.08	277.94
490.44	279.19
490.81	280.51
491.17	281.82
491.54	283.31
491.90	284.84
492.26	286.51
492.63	288.21
492.99	289.98
493.36	291.91
493.72	293.94
494.08	296.07
494.45	298.35
494.81	300.76
495.17	303.22
495.54	305.73
495.90	308.41
496.26	311.24
496.63	314.24
496.99	317.38
497.35	320.58
497.72	324.04
498.08	327.60
498.44	331.29
498.80	335.25
499.17	339.31
499.53	343.51
499.89	347.90
500.26	352.39
500.62	357.07
500.98	362.01
501.34	367.13
501.71	372.47
502.07	377.89
502.43	383.49
502.79	389.30
503.16	395.43
503.52	401.72
503.88	408.06
504.24	414.71
504.60	421.53
504.97	428.72
505.33	436.00
505.69	443.62
506.05	451.40
506.41	459.31
506.78	467.48
507.14	475.87
507.50	484.56
507.86	493.60
508.22	502.80
508.59	511.98
508.95	521.57
509.31	531.35
509.67	541.43
510.03	551.74
510.39	562.35
510.75	573.08
511.12	583.99
511.48	595.30
511.84	606.66
512.20	618.21
512.56	630.11
512.92	642.28
513.28	654.61
513.64	667.10
514.00	679.73
514.37	692.56
514.73	705.63
515.09	718.71
515.45	732.01
515.81	745.58
516.17	759.57
516.53	773.65
516.89	787.78
517.25	801.89
517.61	816.23
517.97	830.61
518.33	845.02
518.69	859.80
519.05	874.76
519.41	889.87
519.77	905.37
520.13	920.82
520.49	936.11
520.85	951.53
521.21	967.20
521.57	983.37
521.93	999.02
522.29	1015.27
522.65	1031.37
523.01	1047.48
523.37	1063.46
523.73	1079.60
524.09	1095.64
524.45	1111.89
524.81	1128.53
525.17	1145.28
525.53	1162.12
525.89	1178.94
526.25	1195.59
526.61	1211.93
526.97	1228.60
527.33	1244.97
527.68	1261.52
528.04	1277.95
528.40	1294.42
528.76	1311.39
529.12	1327.99
529.48	1344.96
529.84	1360.91
530.20	1377.50
530.56	1394.49
530.91	1411.76
531.27	1428.38
531.63	1444.72
531.99	1461.27
532.35	1477.11
532.71	1492.94
533.07	1509.02
533.42	1524.85
533.78	1540.87
534.14	1557.09
534.50	1572.37
534.86	1588.22
535.21	1603.28
535.57	1619.19
535.93	1634.60
536.29	1649.27
536.65	1664.16
537.00	1678.84
537.36	1694.12
537.72	1708.55
538.08	1722.82
538.44	1736.54
538.79	1750.30
539.15	1763.94
539.51	1777.53
539.87	1791.84
540.22	1805.45
540.58	1819.15
540.94	1832.43
541.29	1845.13
541.65	1857.62
542.01	1870.81
542.37	1883.03
542.72	1895.31
543.08	1906.99
543.44	1919.37
543.79	1930.42
544.15	1941.32
544.51	1952.71
544.87	1963.62
545.22	1974.39
545.58	1984.58
545.94	1994.23
546.29	2004.02
546.65	2013.81
547.01	2022.94
547.36	2031.40
547.72	2039.89
548.07	2047.53
548.43	2055.68
548.79	2063.66
549.14	2071.18
549.50	2078.46
549.86	2086.17
550.21	2093.47
550.57	2100.51
550.92	2107.01
551.28	2114.14
551.64	2121.04
551.99	2127.50
552.35	2133.58
552.70	2139.64
553.06	2145.43
553.41	2151.83
553.77	2157.79
554.13	2163.87
554.48	2170.07
554.84	2175.62
555.19	2180.87
555.55	2186.15
555.90	2190.39
556.26	2195.34
556.61	2200.00
556.97	2204.16
557.32	2208.05
557.68	2212.14
558.03	2216.42
558.39	2220.07
558.74	2224.75
559.10	2228.71
559.45	2232.45
559.81	2236.78
560.16	2240.71
560.52	2244.05
560.87	2247.42
561.23	2250.23
561.58	2253.13
561.94	2255.63
562.29	2258.02
562.64	2260.51
563.00	2263.13
563.35	2266.78
563.71	2269.89
564.06	2273.17
564.42	2276.17
564.77	2278.86
565.12	2281.31
565.48	2283.26
565.83	2285.37
566.19	2286.74
566.54	2287.72
566.89	2288.83
567.25	2289.48
567.60	2290.66
567.96	2292.39
568.31	2293.27
568.66	2294.39
569.02	2294.91
569.37	2295.28
569.72	2296.23
570.08	2296.56
570.43	2296.67
570.78	2296.18
571.14	2294.67
571.49	2293.32
571.84	2293.03
572.20	2291.94
572.55	2290.84
572.90	2289.34
573.26	2288.04
573.61	2286.24
573.96	2284.56
574.31	2281.87
574.67	2278.90
575.02	2275.34
575.37	2272.12
575.72	2268.33
576.08	2264.99
576.43	2261.83
576.78	2258.25
577.13	2255.18
577.49	2252.30
577.84	2248.83
578.19	2245.05
578.54	2241.60
578.90	2237.58
579.25	2231.89
579.60	2226.94
579.95	2222.01
580.30	2217.06
580.66	2211.83
581.01	2207.08
581.36	2202.20
581.71	2197.86
582.06	2193.46
582.42	2189.19
582.77	2183.88
583.12	2179.39
583.47	2174.69
583.82	2169.69
584.17	2164.59
584.53	2159.17
584.88	2153.41
585.23	2147.80
585.58	2142.48
585.93	2137.12
586.28	2132.31
586.63	2127.59
586.98	2122.61
587.34	2117.82
587.69	2113.04
588.04	2107.76
588.39	2102.03
588.74	2095.63
589.09	2089.66
589.44	2082.91
589.79	2076.88
590.14	2071.41
590.49	2064.99
590.84	2058.66
591.19	2052.77
591.54	2046.36
591.89	2038.93
592.25	2032.26
592.60	2025.13
592.95	2017.62
593.30	2010.20
593.65	2002.59
594.00	1995.65
594.35	1988.36
594.70	1980.63
595.05	1973.55
595.40	1966.29
595.75	1958.85
596.10	1952.77
596.45	1945.96
596.80	1939.91
597.15	1933.37
597.50	1926.26
597.85	1919.93
598.19	1913.37
598.54	1906.23
598.89	1899.53
599.24	1893.66
599.59	1886.84
599.94	1880.59
600.29	1874.23
600.64	1867.81
600.99	1860.49
601.34	1853.53
601.69	1846.75
602.04	1839.88
602.39	1832.54
602.74	1825.78
603.08	1819.09
603.43	1812.33
603.78	1805.04
604.13	1797.78
604.48	1790.54
604.83	1783.73
605.18	1776.69
605.53	1768.71
605.87	1760.73
606.22	1753.60
606.57	1745.72
606.92	1738.45
607.27	1731.33
607.62	1724.46
607.96	1717.14
608.31	1710.53
608.66	1702.96
609.01	1695.43
609.36	1687.81
609.70	1679.77
610.05	1671.67
610.40	1664.02
610.75	1655.75
611.10	1648.11
611.44	1639.74
611.79	1631.80
612.14	1623.13
612.49	1614.03
612.83	1605.67
613.18	1597.59
613.53	1589.37
613.88	1580.77
614.22	1572.58
614.57	1563.98
614.92	1555.97
615.27	1548.38
615.61	1540.10
615.96	1532.13
616.31	1524.40
616.65	1516.98
617.00	1509.49
617.35	1501.87
617.70	1493.62
618.04	1485.07
618.39	1476.85
618.74	1469.28
619.08	1460.84
619.43	1453.23
619.78	1446.26
620.12	1439.14
620.47	1431.57
620.82	1423.44
621.16	1416.04
621.51	1408.49
621.85	1400.87
622.20	1392.29
622.55	1383.99
622.89	1376.15
623.24	1368.51
623.59	1361.14
623.93	1353.69
624.28	1346.36
624.62	1338.89
624.97	1331.62
625.32	1324.92
625.66	1317.99
626.01	1310.85
626.35	1303.47
626.70	1295.75
627.04	1288.03
627.39	1280.18
627.73	1272.86
628.08	1266.05
628.43	1258.84
628.77	1251.41
629.12	1243.83
629.46	1236.71
629.81	1229.32
630.15	1222.07
630.50	1214.57
630.84	1206.34
631.19	1198.53
631.53	1191.05
631.88	1183.52
632.22	1176.00
632.57	1168.63
632.91	1161.02
633.26	1153.51
633.60	1146.06
633.95	1138.92
634.29	1131.88
634.64	1125.19
634.98	1117.76
635.32	1110.45
635.67	1103.84
636.01	1097.22
636.36	1090.36
636.70	1083.79
637.05	1077.16
637.39	1070.66
637.73	1064.23
638.08	1058.38
638.42	1052.25
638.77	1045.78
639.11	1039.06
639.45	1032.57
639.80	1025.86
640.14	1019.44
640.49	1012.88
640.83	1006.65
641.17	1000.33
641.52	993.89
641.86	987.49
642.20	981.61
642.55	975.39
642.89	968.81
643.23	962.25
643.58	956.61
643.92	950.44
644.26	944.31
644.61	938.26
644.95	932.18
645.29	925.66
645.64	918.93
645.98	912.57
646.32	906.80
646.66	900.75
647.01	894.95
647.35	889.23
647.69	883.41
648.04	877.85
648.38	872.17
648.72	866.23
649.06	860.24
649.41	854.43
649.75	848.46
650.09	842.56
650.43	836.81
650.78	830.51
651.12	824.59
651.46	818.91
651.80	813.16
652.14	807.72
652.49	802.30
652.83	797.09
653.17	791.39
653.51	785.62
653.85	780.23
654.20	774.61
654.54	768.59
654.88	762.84
655.22	756.95
655.56	751.25
655.90	745.88
656.25	740.58
656.59	735.11
656.93	730.04
657.27	724.90
657.61	719.42
657.95	714.38
658.29	709.27
658.64	704.04
658.98	698.76
659.32	693.30
659.66	688.06
660.00	682.71
660.34	677.79
660.68	672.90
661.02	667.84
661.36	663.05
661.70	658.59
662.05	654.28
662.39	649.97
662.73	645.45
663.07	641.06
663.41	636.59
663.75	632.15
664.09	627.55
664.43	623.10
664.77	618.95
665.11	614.67
665.45	610.52
665.79	606.38
666.13	602.23
666.47	598.17
666.81	593.96
667.15	589.93
667.49	585.98
667.83	582.17
668.17	578.25
668.51	574.21
668.85	570.16
669.19	566.25
669.53	562.40
669.87	558.54
670.21	554.84
670.55	551.16
670.89	547.74
671.23	544.28
671.57	540.77
671.91	537.22
672.25	533.71
672.58	530.21
672.92	526.79
673.26	523.66
673.60	520.50
673.94	517.42
674.28	514.43
674.62	511.46
674.96	508.31
675.30	505.41
675.64	502.47
675.97	499.65
676.31	496.77
676.65	493.79
676.99	491.11
677.33	488.21
677.67	485.42
678.01	482.32
678.34	479.32
678.68	476.45
679.02	473.66
679.36	470.92
679.70	468.17
680.04	465.48
680.37	462.55
680.71	459.68
681.05	457.02
681.39	454.27
681.73	451.59
682.06	449.07
682.40	446.56
682.74	444.09
683.08	441.56
683.42	438.99
683.75	436.53
684.09	433.97
684.43	431.45
684.77	428.96
685.10	426.62
685.44	424.30
685.78	422.03
686.12	419.77
686.45	417.49
686.79	415.15
687.13	412.89
687.46	410.72
687.80	408.61
688.14	406.43
688.48	404.35
688.81	402.17
689.15	399.98
689.49	397.79
689.82	395.65
690.16	393.57
690.50	391.63
690.83	389.69
691.17	387.68
691.51	385.76
691.84	383.90
692.18	381.97
692.52	380.02
692.85	378.03
693.19	376.14
693.52	374.27
693.86	372.48
694.20	370.73
694.53	368.98
694.87	367.15
695.21	365.37
695.54	363.58
695.88	361.85
696.21	360.12
696.55	358.44
696.88	356.77
697.22	355.09
697.56	353.47
697.89	351.83
698.23	350.20
698.56	348.65
698.90	347.05
699.23	345.40
699.57	343.87
699.90	342.33
700.24	340.83
700.58	339.31
700.91	337.87
701.25	336.43
701.58	335.05
701.92	333.72
702.25	332.34
702.59	330.96
702.92	329.63
703.26	328.40
703.59	327.12
703.93	325.91
704.26	324.73
704.60	323.42
704.93	322.16
705.26	320.93
705.60	319.73
705.93	318.61
706.27	317.59
706.60	316.55
706.94	315.50
707.27	314.35
707.61	313.26
707.94	312.21
708.27	311.10
708.61	310.01
708.94	308.99
709.28	308.01
709.61	307.09
709.94	306.12
710.28	305.05
710.61	304.08
710.95	303.04
711.28	302.12
711.61	301.16
711.95	300.24
712.28	299.31
712.61	298.35
712.95	297.42
713.28	296.56
713.61	295.63
713.95	294.77
714.28	293.95
714.61	293.11
714.95	292.28
715.28	291.45
715.61	290.59
715.95	289.73
716.28	288.90
716.61	288.03
716.95	287.24
717.28	286.48
717.61	285.69
717.94	284.97
718.28	284.13
718.61	283.39
718.94	282.68
719.27	282.06
719.61	281.39
719.94	280.72
720.27	279.99
720.60	279.29
720.94	278.64
721.27	278.01
721.60	277.44
721.93	276.79
722.27	276.21
722.60	275.62
722.93	275.03
723.26	274.48
723.59	273.93
723.93	273.35
724.26	272.81
724.59	272.23
724.92	271.71
725.25	271.22
725.59	270.70
725.92	270.18
726.25	269.64
726.58	269.18
726.91	268.67
727.24	268.15
727.57	267.72
727.91	267.21
728.24	266.74
728.57	266.24
728.90	265.78
729.23	265.26
729.56	264.85
729.89	264.38
730.22	263.89
730.55	263.42
730.89	262.99
731.22	262.53
731.55	262.11
731.88	261.66
732.21	261.24
732.54	260.83
732.87	260.39
733.20	259.94
733.53	259.53
733.86	259.16
734.19	258.80
734.52	258.39
734.85	258.12
735.18	257.72
735.51	257.35
735.84	257.04
736.17	256.73
736.50	256.29
736.83	256.07
737.16	255.70
737.49	255.34
737.82	254.99
738.15	254.69
738.48	254.36
738.81	254.02
739.14	253.70
739.47	253.40
739.80	253.11
740.13	252.85
740.46	252.51
740.79	252.19
741.12	251.85
741.45	251.57
741.78	251.19
742.11	250.94
742.44	250.62
742.77	250.27
743.10	249.97
743.43	249.73
743.75	249.36
744.08	249.26
744.41	249.02
744.74	248.77
745.07	248.51
745.40	248.26
745.73	248.05
746.06	247.78
746.39	247.54
746.71	247.24
747.04	246.99
747.37	246.75
747.70	246.49
748.03	246.26
748.36	246.03
748.68	245.81
749.01	245.54
749.34	245.35
749.67	245.14
750.00	244.94
750.33	244.78
750.65	244.56
750.98	244.22
751.31	244.01
751.64	243.78
751.97	243.64
752.29	243.43
752.62	243.16
752.95	242.95
753.28	242.71
753.60	242.54
753.93	242.36
754.26	242.14
754.59	241.94
754.91	241.78
755.24	241.57
755.57	241.36
755.90	241.20
756.22	240.99
756.55	240.80
756.88	240.59
757.20	240.34
757.53	240.11
757.86	239.94
758.19	239.74
758.51	239.56
758.84	239.32
759.17	239.16
759.49	239.00
759.82	238.90
760.15	238.74
760.47	238.58
760.80	238.37
761.13	238.25
761.45	238.08
761.78	237.91
762.11	237.75
762.43	237.62
762.76	237.43
763.08	237.32
763.41	237.18
763.74	237.06
764.06	236.92
764.39	236.81
764.71	236.68
765.04	236.55
765.37	236.38
765.69	236.20
766.02	236.08
766.34	235.96
766.67	235.76
767.00	235.67
767.32	235.59
767.65	235.56
767.97	235.44
768.30	235.33
768.62	235.20
768.95	235.06
769.27	234.92
769.60	234.84
769.92	234.69
770.25	234.55
770.57	234.41
770.90	234.27
771.22	234.13
771.55	234.04
771.87	233.99
772.20	233.93
772.52	233.99
772.85	233.99
773.17	233.87
773.50	233.77
773.82	233.66
774.15	233.50
774.47	233.31
774.80	233.19
775.12	233.11
775.45	233.04
775.77	232.99
776.09	232.91
776.42	232.83
776.74	232.83
777.07	232.72
777.39	232.64
777.72	232.58
778.04	232.57
778.36	232.48
778.69	232.40
779.01	232.35
779.33	232.16
779.66	231.98
779.98	231.92
780.31	231.87
780.63	231.86
780.95	231.83
781.28	231.81
781.60	231.77
781.92	231.74
782.25	231.66
782.57	231.59
782.89	231.52
783.22	231.44
783.54	231.29
783.86	231.29
784.19	231.28
784.51	231.26
784.83	231.17
785.16	231.13
785.48	231.06
785.80	230.97
786.12	230.92
786.45	230.90
786.77	230.87
787.09	230.84
787.42	230.76
787.74	230.71
788.06	230.65
788.38	230.60
788.71	230.51
789.03	230.49
789.35	230.47
789.67	230.44
789.99	230.44
790.32	230.42
790.64	230.35
790.96	230.37
791.28	230.31
791.61	230.26
791.93	230.21
792.25	230.21
792.57	230.25
792.89	230.24
793.21	230.20
793.54	230.16
793.86	230.11
794.18	230.07
794.50	230.03
794.82	230.00
795.14	230.00
795.47	229.99
795.79	229.97
796.11	229.92
796.43	229.88
796.75	229.82
797.07	229.81
797.39	229.80
797.71	229.69
798.04	229.67
798.36	229.65
798.68	229.61
799.00	229.58
799.32	229.48
799.64	229.44
799.96	229.41
800.28	229.37
800.60	229.33
800.92	229.32
801.24	229.29
801.56	229.25
801.89	229.18
802.21	229.15
802.53	229.08
802.85	229.06
803.17	229.09
803.49	229.06
803.81	229.01
804.13	228.94
804.45	228.90
804.77	228.83
805.09	228.80
805.41	228.77
805.73	228.69
806.05	228.63
806.37	228.57
806.69	228.53
807.01	228.49
807.33	228.43
807.65	228.34
807.97	228.34
808.28	228.29
808.60	228.22
808.92	228.19
809.24	228.22
809.56	228.13
809.88	228.07
810.20	228.03
810.52	228.01
810.84	227.97
811.16	227.93
811.48	227.92
811.80	227.92
812.12	227.87
812.43	227.89
812.75	227.87
813.07	227.81
813.39	227.79
813.71	227.74
814.03	227.75
814.35	227.68
814.67	227.61
814.98	227.57
815.30	227.58
815.62	227.51
815.94	227.44
816.26	227.47
816.58	227.41
816.89	227.40
817.21	227.35
817.53	227.37
817.85	227.34
818.17	227.31
818.48	227.23
818.80	227.23
819.12	227.18
819.44	227.15
819.76	227.12
820.07	227.08
820.39	227.10
820.71	227.08
821.03	227.10
821.34	227.06
821.66	227.06
821.98	227.03
822.30	227.05
822.61	227.10
822.93	227.07
823.25	227.06
823.57	227.04
823.88	227.07
824.20	227.08
824.52	227.11
824.83	227.13
825.15	227.17
825.47	227.13
825.79	227.13
826.10	227.14
826.42	227.16
826.74	227.20
827.05	227.18
827.37	227.19
827.69	227.21
828.00	227.26
828.32	227.27
828.64	227.28
828.95	227.36
829.27	227.31
829.58	227.32
829.90	227.37
830.22	227.37
830.53	227.31
830.85	227.34
831.17	227.32
831.48	227.31
831.80	227.30
832.11	227.32
832.43	227.32
832.75	227.30
833.06	227.38
833.38	227.36
833.69	227.38
834.01	227.36
834.32	227.40
834.64	227.39
834.96	227.41
835.27	227.41
835.59	227.34
835.90	227.35
836.22	227.34
836.53	227.32
836.85	227.31
837.16	227.41
837.48	227.34
837.79	227.39
838.11	227.41
838.42	227.39
838.74	227.40
839.05	227.40
839.37	227.43
839.68	227.39
840.00	227.36
840.31	227.41
840.63	227.40
840.94	227.35
841.26	227.32
841.57	227.30
841.88	227.31
842.20	227.30
842.51	227.22
842.83	227.19
843.14	227.24
843.46	227.26
843.77	227.21
844.08	227.22
844.40	227.15
844.71	227.12
845.03	227.10
845.34	227.07
845.65	227.02
845.97	226.97
846.28	226.95
846.60	226.92
846.91	226.85
847.22	226.84
847.54	226.82
847.85	226.83
848.16	226.79
848.48	226.74
848.79	226.75
849.10	226.79
849.42	226.79
849.73	226.69
850.04	226.64
850.36	226.58
850.67	226.57
850.98	226.56
851.30	226.52
851.61	226.50
851.92	226.50
852.23	226.55
852.55	226.54
852.86	226.50
853.17	226.51
853.49	226.47
853.80	226.51
854.11	226.49
854.42	226.48
854.74	226.45
855.05	226.47
855.36	226.41
855.67	226.41
855.99	226.39
856.30	226.50
856.61	226.49
856.92	226.49
857.23	226.49
857.55	226.47
857.86	226.47
858.17	226.48
858.48	226.45
858.79	226.41
859.11	226.40
859.42	226.41
859.73	226.40
860.04	226.43
860.35	226.34
860.66	226.34
860.98	226.33
861.29	226.32
861.60	226.29
861.91	226.35
862.22	226.34
862.53	226.32
862.84	226.21
863.16	226.26
863.47	226.25
863.78	226.24
864.09	226.26
864.40	226.28
864.71	226.29
865.02	226.30
865.33	226.31
865.64	226.31
865.95	226.29
866.27	226.35
866.58	226.30
866.89	226.36
867.20	226.41
867.51	226.38
867.82	226.43
868.13	226.48
868.44	226.43
868.75	226.46
869.06	226.50
869.37	226.54
869.68	226.49
869.99	226.52
870.30	226.58
870.61	226.59
870.92	226.60
871.23	226.61
871.54	226.66
871.85	226.67
872.16	226.70
872.47	226.72
872.78	226.68
873.09	226.73
873.40	226.71
873.71	226.71
874.02	226.72
874.33	226.67
874.64	226.65
874.95	226.68
875.26	226.65
875.56	226.65
875.87	226.62
876.18	226.61
876.49	226.71
876.80	226.64
877.11	226.60
877.42	226.59
877.73	226.59
878.04	226.52
878.35	226.52
878.66	226.49
878.96	226.50
879.27	226.49
879.58	226.49
879.89	226.49
880.20	226.47
880.51	226.50
880.82	226.53
881.12	226.56
881.43	226.53
881.74	226.47
882.05	226.46
882.36	226.45
882.67	226.50
882.97	226.37
883.28	226.38
883.59	226.38
883.90	226.38
884.21	226.35
884.51	226.39
884.82	226.38
885.13	226.39
885.44	226.37
885.74	226.37
886.05	226.36
886.36	226.35
886.67	226.32
886.98	226.33
887.28	226.32
887.59	226.32
887.90	226.33
888.20	226.34
888.51	226.32
888.82	226.29
889.13	226.25
889.43	226.32
889.74	226.31
890.05	226.30
890.35	226.29
890.66	226.26
890.97	226.21
891.28	226.20
891.58	226.19
891.89	226.15
892.20	226.13
892.50	226.09
892.81	226.09
893.12	226.09
893.42	226.07
893.73	226.07
894.04	226.04
894.34	226.03
894.65	226.05
894.95	226.03
895.26	226.04
895.57	226.08
895.87	226.01
896.18	226.04
896.48	226.04
896.79	226.03
897.10	226.06
897.40	226.07
897.71	226.08
898.01	226.06
898.32	226.07
898.63	226.07
898.93	226.09
899.24	226.08
899.54	226.07
899.85	226.04
900.15	226.05
900.46	226.07
900.76	226.08
901.07	226.07
901.38	226.10
901.68	226.12
901.99	226.06
902.29	226.06
902.60	226.06
902.90	226.08
903.21	226.09
903.51	226.13
903.82	226.17
904.12	226.18
904.43	226.22
904.73	226.25
905.03	226.24
905.34	226.35
905.64	226.36
905.95	226.36
906.25	226.35
906.56	226.34
906.86	226.34
907.17	226.32
907.47	226.34
907.77	226.33
908.08	226.30
908.38	226.32
908.69	226.32
908.99	226.34
909.30	226.34
909.60	226.34
909.90	226.30
910.21	226.29
910.51	226.25
910.81	226.25
911.12	226.26
911.42	226.28
911.73	226.18
912.03	226.17
912.33	226.19
912.64	226.20
912.94	226.20
913.24	226.17
913.55	226.20
913.85	226.17
914.15	226.16
914.46	226.17
914.76	226.15
915.06	226.14
915.37	226.13
915.67	226.11
915.97	226.09
916.27	226.07
916.58	226.04
916.88	226.05
917.18	226.04
917.49	226.08
917.79	226.07
918.09	226.10
918.39	226.13
918.70	226.12
919.00	226.14
919.30	226.17
919.60	226.13
919.91	226.11
920.21	226.10
920.51	226.06
920.81	226.07
921.12	226.08
921.42	226.05
921.72	226.01
922.02	226.02
922.32	226.04
922.63	226.03
922.93	226.08
923.23	226.05
923.53	226.03
923.83	225.95
924.13	225.94
924.44	225.92
924.74	225.91
925.04	225.94
925.34	225.92
925.64	225.88
925.94	225.94
926.24	226.00
926.55	225.97
926.85	226.02
927.15	226.00
927.45	226.02
927.75	226.01
928.05	226.00
928.35	225.96
928.65	225.97
928.95	225.97
929.26	225.93
929.56	225.98
929.86	225.98
930.16	225.97
930.46	225.96
930.76	225.98
931.06	225.95
931.36	225.91
931.66	225.91
931.96	225.92
932.26	225.88
932.56	225.82
932.86	225.89
933.16	225.87
933.46	225.83
933.76	225.79
934.06	225.81
934.36	225.87
934.66	225.90
934.96	225.87
935.26	225.89
935.56	225.92
935.86	225.89
936.16	225.90
936.46	225.93
936.76	225.95
937.06	225.93
937.36	225.93
937.66	225.94
937.96	225.95
938.26	225.92
938.56	225.93
938.86	225.96
939.16	225.96
939.46	225.99
939.76	226.06
940.06	226.10
940.35	226.11
940.65	226.06
940.95	226.07
941.25	226.08
941.55	226.05
941.85	226.05
942.15	226.06
942.45	226.09
942.75	226.08
943.04	226.06
943.34	226.07
943.64	226.07
943.94	226.03
944.24	226.05
944.54	226.08
944.84	226.11
945.13	226.08
945.43	226.04
945.73	226.02
946.03	225.99
946.33	225.98
946.62	225.97
946.92	225.98
947.22	225.97
947.52	226.00
947.82	226.05
948.11	226.04
948.41	226.03
948.71	226.00
949.01	226.01
949.31	226.03
949.60	226.04
949.90	226.05
950.20	226.10
950.50	226.10
950.79	226.09
951.09	226.07
951.39	226.07
951.69	226.09
951.98	226.11
952.28	226.13
952.58	226.15
952.87	226.15
953.17	226.18
953.47	226.19
953.76	226.16
954.06	226.12
954.36	226.07
954.66	226.09
954.95	226.12
955.25	226.08
955.55	226.08
955.84	226.04
956.14	226.05
956.44	226.03
956.73	226.03
957.03	226.04
957.32	226.04
957.62	226.04
957.92	226.01
958.21	226.01
958.51	226.08
958.81	226.09
959.10	226.11
959.40	226.11
959.69	226.09
959.99	226.11
960.29	226.12
960.58	226.13
960.88	226.15
961.17	226.12
961.47	226.15
961.76	226.16
962.06	226.19
962.36	226.16
962.65	226.16
962.95	226.15
963.24	226.14
963.54	226.13
963.83	226.15
964.13	226.19
964.42	226.18
964.72	226.09
965.01	226.05
965.31	226.03
965.60	225.98
965.90	226.03
966.19	225.98
966.49	225.96
966.78	225.97
967.08	225.99
967.37	225.96
967.67	225.95
967.96	225.94
968.26	225.93
968.55	225.95
968.85	225.96
969.14	225.93
969.43	225.92
969.73	225.91
970.02	225.87
970.32	225.83
970.61	225.79
970.91	225.81
971.20	225.81
971.49	225.82
971.79	225.82
972.08	225.79
972.38	225.80
972.67	225.79
972.96	225.82
973.26	225.76
973.55	225.81
973.85	225.81
974.14	225.81
974.43	225.84
974.73	225.83
975.02	225.82
975.31	225.84
975.61	225.83
975.90	225.83
976.19	225.84
976.49	225.88
976.78	225.92
977.07	225.91
977.37	225.91
977.66	225.90
977.95	225.96
978.24	225.92
978.54	225.94
978.83	225.96
979.12	225.94
979.42	225.95
979.71	225.94
980.00	225.94
980.29	225.94
980.59	225.90
980.88	225.89
981.17	225.85
981.46	225.86
981.76	225.85
982.05	225.88
982.34	225.91
982.63	225.90
982.93	225.87
983.22	225.89
983.51	225.88
983.80	225.86
984.09	225.84
984.39	225.84
984.68	225.85
984.97	225.86
985.26	225.82
985.55	225.83
985.85	225.79
986.14	225.77
986.43	225.77
986.72	225.77
987.01	225.73
987.30	225.73
987.59	225.70
987.89	225.70
988.18	225.66
988.47	225.63
988.76	225.59
989.05	225.60
989.34	225.58
989.63	225.61
989.92	225.61
990.22	225.59
990.51	225.58
990.80	225.54
991.09	225.53
991.38	225.59
991.67	225.57
991.96	225.59
992.25	225.59
992.54	225.56
992.83	225.54
993.12	225.52
993.41	225.57
993.70	225.59
993.99	225.62
994.28	225.63
994.58	225.65
994.87	225.66
995.16	225.64
995.45	225.63
995.74	225.63
996.03	225.62
996.32	225.64
996.61	225.68
996.90	225.71
997.19	225.72
997.48	225.68
997.77	225.68
998.06	225.67
998.34	225.68
998.63	225.68
998.92	225.71
999.21	225.78
999.50	225.76
999.79	225.74
1000.08	225.75
1000.37	225.74
1000.66	225.72
1000.95	225.76
1001.24	225.78
1001.53	225.80
1001.82	225.78
1002.11	225.78
1002.40	225.79
1002.68	225.78
1002.97	225.86
1003.26	225.87
1003.55	225.86
1003.84	225.88
1004.13	225.92
1004.42	225.95
1004.71	225.99
1004.99	225.98
1005.28	226.00
1005.57	225.99
1005.86	226.01
1006.15	226.00
1006.44	226.02
1006.72	226.06
1007.01	226.05
1007.30	226.04
1007.59	226.03
1007.88	226.03
1008.17	226.03
1008.45	226.02
1008.74	226.01
1009.03	225.95
1009.32	225.96
1009.60	225.96
1009.89	225.93
1010.18	225.92
1010.47	225.87
1010.76	225.87
1011.04	225.89
1011.33	225.88
1011.62	225.93
1011.91	225.95
1012.19	225.96
1012.48	225.96
1012.77	225.94
1013.05	226.01
1013.34	226.02
1013.63	226.01
1013.92	226.01
1014.20	226.03
1014.49	226.04
1014.78	226.04
1015.06	226.01
1015.35	225.99
1015.64	226.04
1015.92	226.06
1016.21	226.04
1016.50	226.08
1016.78	226.10
1017.07	226.07
1017.36	226.07
1017.64	226.03
1017.93	226.02
1018.22	226.00
1018.50	226.00
1018.79	225.99
1019.08	225.94
1019.36	225.97
1019.65	225.98
1019.93	226.01
1020.22	226.03
1020.51	226.10
1020.79	226.08
1021.08	225.79
1021.36	226.06
1021.65	225.46
1021.94	226.21
1022.22	226.41
1022.51	226.08
1022.79	226.32
1023.08	226.44
1023.36	227.62
1023.65	225.40
>>>>>End Processed Spectral Data<<<<<
