SpectraSuite Data File
++++++++++++++++++++++++++++++++++++
Date: Fri Feb 01 14:56:07 EST 2013
User: group
Dark Spectrum Present: No
Reference Spectrum Present: No
Number of Sampled Component Spectra: 1
Spectrometers: USB2E7196
Integration Time (usec): 35000 (USB2E7196)
Spectra Averaged: 100 (USB2E7196)
Boxcar Smoothing: 10 (USB2E7196)
Correct for Electrical Dark: No (USB2E7196)
Strobe/Lamp Enabled: No (USB2E7196)
Correct for Detector Non-linearity: No (USB2E7196)
Correct for Stray Light: No (USB2E7196)
Number of Pixels in Processed Spectrum: 2048
>>>>>Begin Processed Spectral Data<<<<<
339.09	0.00
339.48	215.75
339.86	216.75
340.24	218.24
340.63	219.66
341.01	222.30
341.39	222.35
341.78	223.73
342.16	225.08
342.54	225.45
342.93	213.75
343.31	224.57
343.69	225.11
344.07	225.59
344.46	226.00
344.84	226.36
345.22	226.61
345.60	226.85
345.99	227.04
346.37	227.16
346.75	227.28
347.13	227.35
347.52	227.41
347.90	227.49
348.28	227.52
348.66	227.55
349.05	227.53
349.43	227.56
349.81	227.57
350.19	227.60
350.57	227.65
350.96	227.76
351.34	227.81
351.72	227.84
352.10	227.91
352.48	228.00
352.87	228.06
353.25	228.11
353.63	228.20
354.01	228.23
354.39	228.30
354.77	228.34
355.15	228.42
355.54	228.45
355.92	228.50
356.30	228.56
356.68	228.71
357.06	228.83
357.44	228.88
357.82	228.93
358.20	229.02
358.58	229.06
358.97	229.08
359.35	229.16
359.73	229.27
360.11	229.30
360.49	229.32
360.87	229.37
361.25	229.43
361.63	229.44
362.01	229.52
362.39	229.57
362.77	229.65
363.15	229.67
363.53	229.72
363.91	229.72
364.29	229.74
364.67	229.64
365.05	229.63
365.43	229.65
365.81	229.68
366.19	229.67
366.57	229.72
366.95	229.70
367.33	229.63
367.71	229.60
368.09	229.63
368.47	229.63
368.85	229.60
369.23	229.61
369.61	229.60
369.99	229.55
370.37	229.51
370.75	229.46
371.13	229.40
371.51	229.35
371.89	229.31
372.27	229.26
372.65	229.19
373.03	229.15
373.41	229.06
373.78	229.00
374.16	228.93
374.54	228.84
374.92	228.79
375.30	228.75
375.68	228.71
376.06	228.64
376.44	228.59
376.82	228.52
377.19	228.42
377.57	228.33
377.95	228.24
378.33	228.16
378.71	228.03
379.09	228.00
379.47	227.94
379.84	227.84
380.22	227.76
380.60	227.70
380.98	227.58
381.36	227.51
381.73	227.40
382.11	227.37
382.49	227.32
382.87	227.21
383.25	227.17
383.62	227.17
384.00	227.08
384.38	227.00
384.76	226.96
385.13	226.96
385.51	226.91
385.89	226.84
386.27	226.79
386.64	226.74
387.02	226.64
387.40	226.60
387.78	226.58
388.15	226.51
388.53	226.47
388.91	226.49
389.29	226.46
389.66	226.49
390.04	226.44
390.42	226.43
390.79	226.47
391.17	226.43
391.55	226.35
391.92	226.35
392.30	226.38
392.68	226.37
393.05	226.34
393.43	226.34
393.81	226.37
394.18	226.37
394.56	226.42
394.94	226.49
395.31	226.48
395.69	226.54
396.06	226.62
396.44	226.67
396.82	226.70
397.19	226.81
397.57	226.86
397.95	226.94
398.32	226.97
398.70	227.04
399.07	227.17
399.45	227.20
399.82	227.26
400.20	227.33
400.58	227.40
400.95	227.46
401.33	227.57
401.70	227.72
402.08	227.81
402.45	227.94
402.83	228.07
403.20	228.19
403.58	228.27
403.95	228.40
404.33	228.54
404.71	228.66
405.08	228.81
405.46	228.96
405.83	229.12
406.21	229.28
406.58	229.43
406.96	229.55
407.33	229.76
407.70	230.01
408.08	230.28
408.45	230.54
408.83	230.76
409.20	230.98
409.58	231.21
409.95	231.52
410.33	231.78
410.70	232.02
411.08	232.32
411.45	232.64
411.82	232.97
412.20	233.30
412.57	233.71
412.95	234.05
413.32	234.45
413.69	234.85
414.07	235.30
414.44	235.75
414.82	236.22
415.19	236.79
415.56	237.34
415.94	237.88
416.31	238.49
416.68	239.15
417.06	239.90
417.43	240.55
417.81	241.28
418.18	242.09
418.55	242.95
418.93	243.85
419.30	244.75
419.67	245.67
420.04	246.64
420.42	247.63
420.79	248.82
421.16	249.95
421.54	251.13
421.91	252.33
422.28	253.60
422.66	254.94
423.03	256.21
423.40	257.53
423.77	258.95
424.15	260.39
424.52	261.88
424.89	263.45
425.26	265.01
425.64	266.44
426.01	267.98
426.38	269.62
426.75	271.28
427.13	273.02
427.50	274.81
427.87	276.67
428.24	278.53
428.61	280.25
428.99	282.24
429.36	284.32
429.73	286.35
430.10	288.41
430.47	290.43
430.85	292.56
431.22	294.78
431.59	297.11
431.96	299.34
432.33	301.79
432.70	304.19
433.08	306.99
433.45	309.68
433.82	312.32
434.19	315.26
434.56	318.10
434.93	320.73
435.30	323.34
435.68	326.29
436.05	329.13
436.42	331.97
436.79	334.45
437.16	337.17
437.53	340.05
437.90	342.84
438.27	345.63
438.64	348.51
439.01	351.12
439.38	353.42
439.75	355.59
440.13	358.15
440.50	360.52
440.87	362.40
441.24	364.33
441.61	366.48
441.98	367.92
442.35	369.73
442.72	371.62
443.09	373.45
443.46	374.39
443.83	374.97
444.20	375.41
444.57	376.26
444.94	376.52
445.31	376.85
445.68	377.21
446.05	377.27
446.42	376.87
446.79	376.38
447.16	375.93
447.53	375.58
447.90	374.37
448.27	373.14
448.64	371.49
449.01	370.34
449.37	368.36
449.74	366.47
450.11	364.15
450.48	361.66
450.85	359.16
451.22	357.00
451.59	355.00
451.96	353.10
452.33	350.48
452.70	348.15
453.07	345.30
453.43	342.35
453.80	339.61
454.17	336.89
454.54	334.38
454.91	331.63
455.28	328.97
455.65	326.48
456.02	324.06
456.38	321.97
456.75	319.29
457.12	317.02
457.49	314.82
457.86	312.65
458.23	310.80
458.59	308.72
458.96	306.65
459.33	304.77
459.70	302.87
460.07	301.37
460.43	299.64
460.80	298.02
461.17	296.62
461.54	295.10
461.91	293.70
462.27	292.25
462.64	290.99
463.01	289.65
463.38	288.38
463.74	286.95
464.11	285.75
464.48	284.74
464.85	283.67
465.21	282.76
465.58	281.86
465.95	280.73
466.32	279.80
466.68	278.87
467.05	277.98
467.42	277.10
467.78	276.17
468.15	275.26
468.52	274.59
468.88	273.68
469.25	272.89
469.62	272.24
469.98	271.59
470.35	270.97
470.72	270.36
471.08	269.69
471.45	269.19
471.82	268.61
472.18	267.99
472.55	267.50
472.92	266.97
473.28	266.50
473.65	266.05
474.02	265.62
474.38	265.21
474.75	264.86
475.11	264.52
475.48	264.24
475.85	264.01
476.21	263.75
476.58	263.58
476.94	263.41
477.31	263.22
477.67	263.03
478.04	262.89
478.41	262.79
478.77	262.81
479.14	262.68
479.50	262.68
479.87	262.76
480.23	262.85
480.60	262.90
480.96	262.96
481.33	263.17
481.69	263.37
482.06	263.59
482.42	263.81
482.79	264.03
483.15	264.34
483.52	264.72
483.88	265.06
484.25	265.44
484.61	265.85
484.98	266.32
485.34	266.92
485.71	267.52
486.07	268.11
486.44	268.66
486.80	269.40
487.17	270.13
487.53	270.93
487.90	271.79
488.26	272.70
488.62	273.68
488.99	274.64
489.35	275.69
489.72	276.83
490.08	278.02
490.44	279.28
490.81	280.62
491.17	281.95
491.54	283.46
491.90	284.98
492.26	286.68
492.63	288.40
492.99	290.15
493.36	292.04
493.72	294.04
494.08	296.13
494.45	298.37
494.81	300.73
495.17	303.15
495.54	305.69
495.90	308.37
496.26	311.22
496.63	314.19
496.99	317.24
497.35	320.48
497.72	323.85
498.08	327.31
498.44	330.97
498.80	334.87
499.17	338.86
499.53	343.00
499.89	347.30
500.26	351.74
500.62	356.36
500.98	361.32
501.34	366.38
501.71	371.66
502.07	377.11
502.43	382.69
502.79	388.49
503.16	394.53
503.52	400.78
503.88	407.13
504.24	413.70
504.60	420.56
504.97	427.67
505.33	434.96
505.69	442.66
506.05	450.37
506.41	458.24
506.78	466.38
507.14	474.78
507.50	483.51
507.86	492.52
508.22	501.69
508.59	510.86
508.95	520.48
509.31	530.31
509.67	540.34
510.03	550.58
510.39	561.08
510.75	571.87
511.12	582.74
511.48	593.99
511.84	605.43
512.20	616.93
512.56	628.87
512.92	641.08
513.28	653.36
513.64	665.94
514.00	678.60
514.37	691.47
514.73	704.59
515.09	717.60
515.45	730.88
515.81	744.45
516.17	758.48
516.53	772.58
516.89	786.67
517.25	800.91
517.61	815.43
517.97	829.93
518.33	844.40
518.69	859.29
519.05	874.34
519.41	889.51
519.77	904.99
520.13	920.45
520.49	935.80
520.85	951.35
521.21	966.96
521.57	983.29
521.93	999.18
522.29	1015.59
522.65	1031.88
523.01	1048.29
523.37	1064.42
523.73	1080.64
524.09	1096.78
524.45	1113.25
524.81	1129.89
525.17	1146.78
525.53	1163.76
525.89	1180.61
526.25	1197.46
526.61	1213.88
526.97	1230.79
527.33	1247.44
527.68	1264.17
528.04	1280.81
528.40	1297.48
528.76	1314.74
529.12	1331.37
529.48	1348.33
529.84	1364.42
530.20	1381.17
530.56	1398.24
530.91	1415.75
531.27	1432.57
531.63	1449.13
531.99	1465.81
532.35	1481.97
532.71	1497.84
533.07	1514.17
533.42	1530.22
533.78	1546.38
534.14	1562.72
534.50	1578.14
534.86	1594.18
535.21	1609.34
535.57	1625.37
535.93	1640.91
536.29	1655.78
536.65	1671.05
537.00	1686.00
537.36	1701.54
537.72	1716.27
538.08	1730.60
538.44	1744.42
538.79	1758.41
539.15	1772.22
539.51	1786.06
539.87	1800.56
540.22	1814.42
540.58	1828.29
540.94	1841.78
541.29	1854.77
541.65	1867.82
542.01	1881.09
542.37	1893.39
542.72	1905.99
543.08	1917.86
543.44	1930.31
543.79	1941.52
544.15	1952.45
544.51	1964.08
544.87	1974.89
545.22	1985.69
545.58	1995.96
545.94	2005.85
546.29	2015.68
546.65	2025.34
547.01	2034.54
547.36	2043.26
547.72	2051.83
548.07	2059.73
548.43	2068.00
548.79	2076.16
549.14	2083.48
549.50	2090.99
549.86	2098.81
550.21	2106.06
550.57	2113.15
550.92	2119.74
551.28	2126.83
551.64	2133.86
551.99	2140.24
552.35	2146.58
552.70	2152.55
553.06	2158.63
553.41	2164.93
553.77	2171.02
554.13	2177.20
554.48	2183.36
554.84	2188.56
555.19	2193.84
555.55	2198.93
555.90	2203.22
556.26	2207.82
556.61	2212.52
556.97	2216.54
557.32	2220.61
557.68	2224.72
558.03	2229.00
558.39	2232.67
558.74	2237.21
559.10	2241.08
559.45	2244.66
559.81	2248.88
560.16	2252.71
560.52	2255.74
560.87	2258.95
561.23	2261.51
561.58	2264.52
561.94	2266.91
562.29	2269.33
562.64	2271.89
563.00	2274.33
563.35	2277.72
563.71	2280.86
564.06	2283.86
564.42	2286.77
564.77	2289.11
565.12	2291.06
565.48	2292.80
565.83	2294.58
566.19	2295.78
566.54	2296.62
566.89	2297.61
567.25	2297.79
567.60	2298.91
567.96	2300.44
568.31	2301.27
568.66	2302.25
569.02	2302.58
569.37	2302.75
569.72	2303.30
570.08	2303.09
570.43	2302.96
570.78	2302.12
571.14	2300.44
571.49	2299.02
571.84	2298.32
572.20	2296.97
572.55	2295.95
572.90	2294.16
573.26	2292.49
573.61	2290.55
573.96	2288.50
574.31	2285.38
574.67	2282.33
575.02	2278.70
575.37	2275.22
575.72	2271.14
576.08	2267.53
576.43	2264.08
576.78	2260.23
577.13	2257.15
577.49	2254.20
577.84	2250.69
578.19	2246.89
578.54	2242.92
578.90	2238.50
579.25	2233.09
579.60	2227.80
579.95	2222.55
580.30	2217.40
580.66	2212.23
581.01	2207.17
581.36	2202.14
581.71	2197.78
582.06	2193.22
582.42	2188.48
582.77	2183.14
583.12	2178.30
583.47	2173.51
583.82	2168.28
584.17	2163.01
584.53	2157.19
584.88	2151.30
585.23	2145.34
585.58	2139.64
585.93	2134.31
586.28	2129.51
586.63	2124.07
586.98	2119.10
587.34	2114.37
587.69	2109.42
588.04	2103.93
588.39	2098.03
588.74	2091.57
589.09	2085.23
589.44	2078.31
589.79	2072.16
590.14	2066.38
590.49	2059.88
590.84	2053.32
591.19	2047.31
591.54	2040.67
591.89	2033.10
592.25	2026.05
592.60	2018.71
592.95	2011.15
593.30	2003.50
593.65	1995.62
594.00	1988.53
594.35	1981.11
594.70	1972.95
595.05	1965.51
595.40	1958.19
595.75	1950.77
596.10	1944.19
596.45	1937.35
596.80	1930.95
597.15	1924.17
597.50	1916.91
597.85	1910.46
598.19	1903.78
598.54	1896.53
598.89	1889.86
599.24	1883.98
599.59	1877.22
599.94	1870.85
600.29	1864.42
600.64	1857.87
600.99	1850.41
601.34	1843.49
601.69	1836.43
602.04	1829.41
602.39	1822.04
602.74	1815.14
603.08	1808.33
603.43	1801.62
603.78	1794.45
604.13	1787.33
604.48	1780.15
604.83	1773.35
605.18	1766.15
605.53	1758.04
605.87	1749.99
606.22	1742.65
606.57	1734.75
606.92	1727.37
607.27	1720.20
607.62	1713.17
607.96	1705.85
608.31	1699.26
608.66	1691.58
609.01	1684.13
609.36	1676.55
609.70	1668.67
610.05	1660.57
610.40	1652.93
610.75	1644.78
611.10	1637.04
611.44	1628.64
611.79	1620.76
612.14	1612.09
612.49	1603.20
612.83	1594.98
613.18	1586.95
613.53	1579.00
613.88	1570.47
614.22	1562.39
614.57	1553.87
614.92	1546.02
615.27	1538.48
615.61	1530.18
615.96	1522.34
616.31	1514.68
616.65	1507.44
617.00	1499.97
617.35	1492.37
617.70	1484.04
618.04	1475.45
618.39	1467.34
618.74	1459.89
619.08	1451.52
619.43	1444.03
619.78	1437.21
620.12	1430.06
620.47	1422.44
620.82	1414.30
621.16	1406.99
621.51	1399.43
621.85	1392.01
622.20	1383.51
622.55	1375.32
622.89	1367.57
623.24	1359.98
623.59	1352.77
623.93	1345.27
624.28	1338.03
624.62	1330.57
624.97	1323.45
625.32	1316.85
625.66	1309.95
626.01	1302.79
626.35	1295.34
626.70	1287.69
627.04	1279.83
627.39	1272.10
627.73	1264.88
628.08	1258.06
628.43	1250.63
628.77	1243.21
629.12	1235.57
629.46	1228.37
629.81	1220.98
630.15	1213.75
630.50	1206.38
630.84	1198.17
631.19	1190.36
631.53	1182.93
631.88	1175.48
632.22	1167.91
632.57	1160.57
632.91	1153.05
633.26	1145.65
633.60	1138.45
633.95	1131.40
634.29	1124.54
634.64	1117.89
634.98	1110.60
635.32	1103.55
635.67	1097.17
636.01	1090.69
636.36	1084.05
636.70	1077.66
637.05	1071.07
637.39	1064.76
637.73	1058.33
638.08	1052.55
638.42	1046.69
638.77	1040.20
639.11	1033.60
639.45	1027.38
639.80	1020.81
640.14	1014.39
640.49	1007.96
640.83	1001.61
641.17	995.39
641.52	989.15
641.86	982.81
642.20	976.93
642.55	970.66
642.89	964.26
643.23	957.74
643.58	951.98
643.92	945.82
644.26	939.81
644.61	933.91
644.95	927.89
645.29	921.28
645.64	914.51
645.98	908.33
646.32	902.62
646.66	896.49
647.01	890.70
647.35	885.00
647.69	879.20
648.04	873.80
648.38	868.01
648.72	861.97
649.06	855.88
649.41	850.09
649.75	844.04
650.09	838.03
650.43	832.23
650.78	826.11
651.12	820.22
651.46	814.49
651.80	808.66
652.14	803.24
652.49	797.91
652.83	792.77
653.17	787.10
653.51	781.28
653.85	775.95
654.20	770.29
654.54	764.36
654.88	758.63
655.22	752.69
655.56	747.06
655.90	741.62
656.25	736.40
656.59	731.04
656.93	726.01
657.27	720.90
657.61	715.54
657.95	710.45
658.29	705.37
658.64	700.16
658.98	694.87
659.32	689.49
659.66	684.29
660.00	678.94
660.34	674.01
660.68	669.18
661.02	664.19
661.36	659.51
661.70	655.04
662.05	650.73
662.39	646.50
662.73	642.11
663.07	637.81
663.41	633.39
663.75	628.95
664.09	624.41
664.43	620.10
664.77	616.02
665.11	611.81
665.45	607.68
665.79	603.65
666.13	599.60
666.47	595.54
666.81	591.43
667.15	587.35
667.49	583.48
667.83	579.73
668.17	575.84
668.51	571.85
668.85	567.88
669.19	564.04
669.53	560.18
669.87	556.31
670.21	552.57
670.55	549.04
670.89	545.60
671.23	542.22
671.57	538.71
671.91	535.21
672.25	531.73
672.58	528.32
672.92	524.98
673.26	521.81
673.60	518.72
673.94	515.63
674.28	512.77
674.62	509.82
674.96	506.79
675.30	503.94
675.64	501.07
675.97	498.38
676.31	495.57
676.65	492.73
676.99	490.02
677.33	487.25
677.67	484.45
678.01	481.48
678.34	478.51
678.68	475.69
679.02	472.85
679.36	470.09
679.70	467.36
680.04	464.60
680.37	461.75
680.71	458.99
681.05	456.44
681.39	453.80
681.73	451.21
682.06	448.66
682.40	446.10
682.74	443.62
683.08	441.06
683.42	438.49
683.75	436.03
684.09	433.53
684.43	431.09
684.77	428.63
685.10	426.28
685.44	424.00
685.78	421.75
686.12	419.56
686.45	417.32
686.79	415.04
687.13	412.89
687.46	410.79
687.80	408.67
688.14	406.47
688.48	404.42
688.81	402.15
689.15	400.00
689.49	397.88
689.82	395.79
690.16	393.74
690.50	391.79
690.83	389.83
691.17	387.93
691.51	386.03
691.84	384.17
692.18	382.27
692.52	380.36
692.85	378.42
693.19	376.57
693.52	374.81
693.86	373.06
694.20	371.28
694.53	369.48
694.87	367.62
695.21	365.87
695.54	364.02
695.88	362.35
696.21	360.60
696.55	358.96
696.88	357.26
697.22	355.56
697.56	353.93
697.89	352.24
698.23	350.57
698.56	348.95
698.90	347.39
699.23	345.76
699.57	344.14
699.90	342.62
700.24	341.05
700.58	339.48
700.91	337.92
701.25	336.47
701.58	335.09
701.92	333.73
702.25	332.33
702.59	331.00
702.92	329.63
703.26	328.42
703.59	327.09
703.93	325.93
704.26	324.73
704.60	323.47
704.93	322.23
705.26	321.01
705.60	319.88
705.93	318.75
706.27	317.73
706.60	316.72
706.94	315.64
707.27	314.51
707.61	313.46
707.94	312.47
708.27	311.41
708.61	310.36
708.94	309.38
709.28	308.44
709.61	307.50
709.94	306.64
710.28	305.62
710.61	304.70
710.95	303.64
711.28	302.75
711.61	301.80
711.95	300.90
712.28	299.97
712.61	298.98
712.95	298.05
713.28	297.18
713.61	296.31
713.95	295.43
714.28	294.63
714.61	293.80
714.95	293.00
715.28	292.18
715.61	291.32
715.95	290.47
716.28	289.62
716.61	288.82
716.95	288.02
717.28	287.30
717.61	286.53
717.94	285.84
718.28	285.05
718.61	284.36
718.94	283.72
719.27	283.09
719.61	282.46
719.94	281.79
720.27	281.08
720.60	280.42
720.94	279.81
721.27	279.23
721.60	278.65
721.93	278.07
722.27	277.50
722.60	276.97
722.93	276.43
723.26	275.87
723.59	275.29
723.93	274.72
724.26	274.18
724.59	273.62
724.92	273.07
725.25	272.57
725.59	272.03
725.92	271.50
726.25	271.00
726.58	270.50
726.91	270.03
727.24	269.56
727.57	269.11
727.91	268.59
728.24	268.11
728.57	267.62
728.90	267.15
729.23	266.67
729.56	266.22
729.89	265.75
730.22	265.30
730.55	264.83
730.89	264.39
731.22	263.93
731.55	263.50
731.88	263.08
732.21	262.63
732.54	262.22
732.87	261.78
733.20	261.35
733.53	260.95
733.86	260.55
734.19	260.15
734.52	259.77
734.85	259.47
735.18	259.09
735.51	258.72
735.84	258.32
736.17	257.94
736.50	257.54
736.83	257.28
737.16	256.93
737.49	256.58
737.82	256.21
738.15	255.85
738.48	255.52
738.81	255.16
739.14	254.86
739.47	254.54
739.80	254.22
740.13	253.90
740.46	253.58
740.79	253.27
741.12	252.92
741.45	252.57
741.78	252.21
742.11	251.89
742.44	251.56
742.77	251.29
743.10	250.96
743.43	250.63
743.75	250.24
744.08	250.05
744.41	249.79
744.74	249.52
745.07	249.20
745.40	248.93
745.73	248.68
746.06	248.38
746.39	248.10
746.71	247.82
747.04	247.54
747.37	247.29
747.70	247.05
748.03	246.82
748.36	246.63
748.68	246.42
749.01	246.18
749.34	245.98
749.67	245.75
750.00	245.57
750.33	245.44
750.65	245.26
750.98	244.95
751.31	244.75
751.64	244.53
751.97	244.39
752.29	244.20
752.62	243.96
752.95	243.80
753.28	243.59
753.60	243.40
753.93	243.23
754.26	243.02
754.59	242.78
754.91	242.61
755.24	242.43
755.57	242.22
755.90	242.05
756.22	241.86
756.55	241.67
756.88	241.49
757.20	241.28
757.53	241.09
757.86	240.93
758.19	240.80
758.51	240.68
758.84	240.49
759.17	240.31
759.49	240.21
759.82	240.09
760.15	239.97
760.47	239.86
760.80	239.72
761.13	239.61
761.45	239.46
761.78	239.31
762.11	239.18
762.43	239.06
762.76	238.92
763.08	238.80
763.41	238.72
763.74	238.57
764.06	238.42
764.39	238.27
764.71	238.14
765.04	237.98
765.37	237.85
765.69	237.73
766.02	237.64
766.34	237.50
766.67	237.35
767.00	237.24
767.32	237.13
767.65	237.08
767.97	237.02
768.30	236.92
768.62	236.82
768.95	236.69
769.27	236.59
769.60	236.50
769.92	236.36
770.25	236.22
770.57	236.13
770.90	236.04
771.22	235.94
771.55	235.85
771.87	235.76
772.20	235.64
772.52	235.63
772.85	235.63
773.17	235.53
773.50	235.43
773.82	235.31
774.15	235.17
774.47	235.03
774.80	234.90
775.12	234.81
775.45	234.71
775.77	234.62
776.09	234.53
776.42	234.40
776.74	234.36
777.07	234.26
777.39	234.17
777.72	234.05
778.04	234.00
778.36	233.89
778.69	233.79
779.01	233.72
779.33	233.53
779.66	233.35
779.98	233.27
780.31	233.21
780.63	233.20
780.95	233.17
781.28	233.08
781.60	232.96
781.92	232.86
782.25	232.77
782.57	232.70
782.89	232.59
783.22	232.53
783.54	232.41
783.86	232.36
784.19	232.28
784.51	232.23
784.83	232.15
785.16	232.10
785.48	232.03
785.80	231.97
786.12	231.97
786.45	231.89
786.77	231.82
787.09	231.72
787.42	231.62
787.74	231.53
788.06	231.51
788.38	231.49
788.71	231.46
789.03	231.40
789.35	231.38
789.67	231.33
789.99	231.33
790.32	231.28
790.64	231.24
790.96	231.27
791.28	231.22
791.61	231.16
791.93	231.13
792.25	231.11
792.57	231.14
792.89	231.10
793.21	231.10
793.54	231.09
793.86	231.07
794.18	231.04
794.50	230.99
794.82	230.95
795.14	230.93
795.47	230.91
795.79	230.93
796.11	230.89
796.43	230.89
796.75	230.86
797.07	230.87
797.39	230.83
797.71	230.76
798.04	230.77
798.36	230.77
798.68	230.72
799.00	230.70
799.32	230.64
799.64	230.61
799.96	230.60
800.28	230.57
800.60	230.52
800.92	230.49
801.24	230.50
801.56	230.49
801.89	230.47
802.21	230.47
802.53	230.40
802.85	230.41
803.17	230.44
803.49	230.40
803.81	230.39
804.13	230.37
804.45	230.30
804.77	230.25
805.09	230.24
805.41	230.27
805.73	230.22
806.05	230.18
806.37	230.18
806.69	230.12
807.01	230.08
807.33	230.10
807.65	230.05
807.97	230.08
808.28	230.04
808.60	230.01
808.92	229.95
809.24	230.01
809.56	229.97
809.88	229.88
810.20	229.86
810.52	229.80
810.84	229.76
811.16	229.73
811.48	229.73
811.80	229.73
812.12	229.67
812.43	229.67
812.75	229.66
813.07	229.59
813.39	229.61
813.71	229.59
814.03	229.52
814.35	229.49
814.67	229.38
814.98	229.35
815.30	229.29
815.62	229.27
815.94	229.15
816.26	229.11
816.58	229.07
816.89	229.03
817.21	229.01
817.53	228.99
817.85	228.97
818.17	228.95
818.48	228.90
818.80	228.89
819.12	228.86
819.44	228.77
819.76	228.74
820.07	228.72
820.39	228.69
820.71	228.69
821.03	228.66
821.34	228.64
821.66	228.62
821.98	228.65
822.30	228.61
822.61	228.65
822.93	228.61
823.25	228.61
823.57	228.59
823.88	228.61
824.20	228.61
824.52	228.59
824.83	228.55
825.15	228.50
825.47	228.49
825.79	228.48
826.10	228.48
826.42	228.48
826.74	228.44
827.05	228.42
827.37	228.41
827.69	228.41
828.00	228.43
828.32	228.42
828.64	228.40
828.95	228.45
829.27	228.42
829.58	228.39
829.90	228.41
830.22	228.42
830.53	228.38
830.85	228.34
831.17	228.32
831.48	228.32
831.80	228.35
832.11	228.32
832.43	228.32
832.75	228.32
833.06	228.38
833.38	228.37
833.69	228.34
834.01	228.35
834.32	228.29
834.64	228.30
834.96	228.30
835.27	228.33
835.59	228.32
835.90	228.29
836.22	228.28
836.53	228.25
836.85	228.23
837.16	228.32
837.48	228.36
837.79	228.40
838.11	228.44
838.42	228.43
838.74	228.44
839.05	228.44
839.37	228.44
839.68	228.38
840.00	228.37
840.31	228.37
840.63	228.40
840.94	228.45
841.26	228.42
841.57	228.45
841.88	228.42
842.20	228.42
842.51	228.44
842.83	228.50
843.14	228.61
843.46	228.64
843.77	228.58
844.08	228.56
844.40	228.55
844.71	228.52
845.03	228.49
845.34	228.48
845.65	228.46
845.97	228.48
846.28	228.49
846.60	228.49
846.91	228.51
847.22	228.47
847.54	228.49
847.85	228.47
848.16	228.43
848.48	228.40
848.79	228.41
849.10	228.38
849.42	228.35
849.73	228.21
850.04	228.19
850.36	228.13
850.67	228.14
850.98	228.12
851.30	228.12
851.61	228.11
851.92	228.09
852.23	228.11
852.55	228.04
852.86	228.04
853.17	228.02
853.49	227.98
853.80	228.00
854.11	228.00
854.42	227.99
854.74	227.97
855.05	227.96
855.36	227.91
855.67	227.89
855.99	227.85
856.30	227.97
856.61	227.93
856.92	227.92
857.23	227.91
857.55	227.90
857.86	227.86
858.17	227.85
858.48	227.84
858.79	227.83
859.11	227.84
859.42	227.79
859.73	227.79
860.04	227.81
860.35	227.75
860.66	227.72
860.98	227.70
861.29	227.69
861.60	227.66
861.91	227.66
862.22	227.65
862.53	227.63
862.84	227.48
863.16	227.52
863.47	227.49
863.78	227.46
864.09	227.43
864.40	227.43
864.71	227.45
865.02	227.47
865.33	227.42
865.64	227.41
865.95	227.42
866.27	227.46
866.58	227.47
866.89	227.48
867.20	227.45
867.51	227.44
867.82	227.42
868.13	227.47
868.44	227.47
868.75	227.48
869.06	227.50
869.37	227.56
869.68	227.52
869.99	227.57
870.30	227.62
870.61	227.66
870.92	227.63
871.23	227.63
871.54	227.65
871.85	227.70
872.16	227.72
872.47	227.74
872.78	227.71
873.09	227.73
873.40	227.74
873.71	227.78
874.02	227.84
874.33	227.85
874.64	227.86
874.95	227.88
875.26	227.85
875.56	227.90
875.87	227.87
876.18	227.87
876.49	227.96
876.80	227.94
877.11	227.91
877.42	227.94
877.73	227.99
878.04	227.96
878.35	227.99
878.66	228.05
878.96	228.06
879.27	228.06
879.58	228.09
879.89	228.10
880.20	228.11
880.51	228.11
880.82	228.14
881.12	228.15
881.43	228.14
881.74	228.18
882.05	228.15
882.36	228.17
882.67	228.20
882.97	228.10
883.28	228.11
883.59	228.12
883.90	228.11
884.21	228.11
884.51	228.08
884.82	228.03
885.13	227.99
885.44	227.98
885.74	227.97
886.05	227.95
886.36	227.92
886.67	227.93
886.98	227.98
887.28	227.96
887.59	227.93
887.90	227.94
888.20	227.90
888.51	227.88
888.82	227.85
889.13	227.83
889.43	227.88
889.74	227.90
890.05	227.88
890.35	227.87
890.66	227.82
890.97	227.80
891.28	227.76
891.58	227.75
891.89	227.71
892.20	227.68
892.50	227.62
892.81	227.63
893.12	227.56
893.42	227.45
893.73	227.47
894.04	227.45
894.34	227.44
894.65	227.44
894.95	227.43
895.26	227.42
895.57	227.48
895.87	227.40
896.18	227.37
896.48	227.34
896.79	227.33
897.10	227.32
897.40	227.30
897.71	227.32
898.01	227.31
898.32	227.33
898.63	227.30
898.93	227.31
899.24	227.27
899.54	227.25
899.85	227.25
900.15	227.19
900.46	227.19
900.76	227.19
901.07	227.14
901.38	227.14
901.68	227.13
901.99	227.02
902.29	227.00
902.60	226.97
902.90	226.96
903.21	226.93
903.51	226.93
903.82	226.97
904.12	226.95
904.43	226.93
904.73	226.91
905.03	226.93
905.34	227.03
905.64	227.02
905.95	227.01
906.25	227.00
906.56	227.01
906.86	227.00
907.17	226.99
907.47	227.04
907.77	227.04
908.08	227.03
908.38	227.05
908.69	227.09
908.99	227.12
909.30	227.16
909.60	227.19
909.90	227.21
910.21	227.21
910.51	227.21
910.81	227.24
911.12	227.28
911.42	227.29
911.73	227.19
912.03	227.21
912.33	227.27
912.64	227.28
912.94	227.28
913.24	227.33
913.55	227.31
913.85	227.33
914.15	227.34
914.46	227.37
914.76	227.40
915.06	227.40
915.37	227.40
915.67	227.42
915.97	227.42
916.27	227.40
916.58	227.42
916.88	227.45
917.18	227.45
917.49	227.53
917.79	227.56
918.09	227.62
918.39	227.68
918.70	227.69
919.00	227.71
919.30	227.78
919.60	227.76
919.91	227.76
920.21	227.76
920.51	227.74
920.81	227.75
921.12	227.74
921.42	227.72
921.72	227.71
922.02	227.71
922.32	227.72
922.63	227.73
922.93	227.79
923.23	227.77
923.53	227.78
923.83	227.69
924.13	227.64
924.44	227.64
924.74	227.64
925.04	227.63
925.34	227.65
925.64	227.60
925.94	227.58
926.24	227.62
926.55	227.62
926.85	227.63
927.15	227.59
927.45	227.58
927.75	227.58
928.05	227.55
928.35	227.55
928.65	227.55
928.95	227.54
929.26	227.46
929.56	227.45
929.86	227.42
930.16	227.40
930.46	227.40
930.76	227.36
931.06	227.29
931.36	227.26
931.66	227.22
931.96	227.21
932.26	227.17
932.56	227.13
932.86	227.11
933.16	227.13
933.46	227.12
933.76	227.11
934.06	227.12
934.36	227.16
934.66	227.12
934.96	227.10
935.26	227.10
935.56	227.10
935.86	227.05
936.16	227.05
936.46	227.06
936.76	227.02
937.06	227.02
937.36	227.03
937.66	227.02
937.96	227.03
938.26	227.00
938.56	227.01
938.86	227.00
939.16	227.05
939.46	226.99
939.76	227.01
940.06	227.01
940.35	226.99
940.65	226.92
940.95	226.94
941.25	226.91
941.55	226.91
941.85	226.94
942.15	226.98
942.45	227.00
942.75	226.98
943.04	226.99
943.34	227.01
943.64	226.99
943.94	226.99
944.24	227.02
944.54	227.11
944.84	227.12
945.13	227.12
945.43	227.10
945.73	227.16
946.03	227.14
946.33	227.16
946.62	227.18
946.92	227.21
947.22	227.23
947.52	227.27
947.82	227.28
948.11	227.26
948.41	227.27
948.71	227.27
949.01	227.29
949.31	227.29
949.60	227.31
949.90	227.33
950.20	227.35
950.50	227.35
950.79	227.29
951.09	227.31
951.39	227.32
951.69	227.30
951.98	227.31
952.28	227.31
952.58	227.33
952.87	227.33
953.17	227.35
953.47	227.37
953.76	227.32
954.06	227.35
954.36	227.37
954.66	227.35
954.95	227.38
955.25	227.38
955.55	227.40
955.84	227.37
956.14	227.41
956.44	227.40
956.73	227.39
957.03	227.41
957.32	227.42
957.62	227.38
957.92	227.44
958.21	227.44
958.51	227.55
958.81	227.56
959.10	227.59
959.40	227.61
959.69	227.62
959.99	227.62
960.29	227.61
960.58	227.59
960.88	227.63
961.17	227.61
961.47	227.65
961.76	227.68
962.06	227.69
962.36	227.65
962.65	227.64
962.95	227.61
963.24	227.60
963.54	227.61
963.83	227.65
964.13	227.62
964.42	227.59
964.72	227.52
965.01	227.49
965.31	227.44
965.60	227.38
965.90	227.40
966.19	227.43
966.49	227.42
966.78	227.40
967.08	227.38
967.37	227.34
967.67	227.31
967.96	227.30
968.26	227.29
968.55	227.29
968.85	227.26
969.14	227.26
969.43	227.25
969.73	227.22
970.02	227.18
970.32	227.14
970.61	227.12
970.91	227.11
971.20	227.08
971.49	227.06
971.79	227.08
972.08	227.01
972.38	226.95
972.67	226.91
972.96	226.93
973.26	226.91
973.55	226.94
973.85	226.88
974.14	226.84
974.43	226.81
974.73	226.80
975.02	226.80
975.31	226.81
975.61	226.82
975.90	226.78
976.19	226.78
976.49	226.79
976.78	226.80
977.07	226.78
977.37	226.81
977.66	226.84
977.95	226.82
978.24	226.85
978.54	226.88
978.83	226.92
979.12	226.92
979.42	226.92
979.71	226.90
980.00	226.93
980.29	226.96
980.59	226.98
980.88	227.02
981.17	227.05
981.46	227.07
981.76	227.04
982.05	227.11
982.34	227.14
982.63	227.16
982.93	227.15
983.22	227.19
983.51	227.20
983.80	227.22
984.09	227.23
984.39	227.20
984.68	227.22
984.97	227.23
985.26	227.23
985.55	227.24
985.85	227.27
986.14	227.31
986.43	227.33
986.72	227.35
987.01	227.30
987.30	227.30
987.59	227.27
987.89	227.29
988.18	227.27
988.47	227.27
988.76	227.30
989.05	227.31
989.34	227.32
989.63	227.33
989.92	227.32
990.22	227.34
990.51	227.34
990.80	227.32
991.09	227.31
991.38	227.33
991.67	227.34
991.96	227.33
992.25	227.35
992.54	227.34
992.83	227.34
993.12	227.32
993.41	227.34
993.70	227.40
993.99	227.44
994.28	227.44
994.58	227.47
994.87	227.42
995.16	227.45
995.45	227.42
995.74	227.41
996.03	227.45
996.32	227.46
996.61	227.51
996.90	227.53
997.19	227.55
997.48	227.56
997.77	227.55
998.06	227.54
998.34	227.50
998.63	227.50
998.92	227.46
999.21	227.52
999.50	227.53
999.79	227.49
1000.08	227.46
1000.37	227.46
1000.66	227.44
1000.95	227.47
1001.24	227.48
1001.53	227.47
1001.82	227.49
1002.11	227.45
1002.40	227.46
1002.68	227.46
1002.97	227.48
1003.26	227.43
1003.55	227.41
1003.84	227.40
1004.13	227.42
1004.42	227.40
1004.71	227.39
1004.99	227.40
1005.28	227.41
1005.57	227.39
1005.86	227.34
1006.15	227.35
1006.44	227.32
1006.72	227.32
1007.01	227.27
1007.30	227.25
1007.59	227.22
1007.88	227.18
1008.17	227.15
1008.45	227.12
1008.74	227.10
1009.03	227.05
1009.32	227.06
1009.60	227.06
1009.89	227.06
1010.18	227.01
1010.47	227.03
1010.76	227.03
1011.04	227.01
1011.33	227.00
1011.62	226.99
1011.91	227.01
1012.19	227.01
1012.48	226.99
1012.77	227.00
1013.05	227.05
1013.34	227.03
1013.63	227.03
1013.92	227.04
1014.20	227.04
1014.49	227.04
1014.78	226.99
1015.06	226.99
1015.35	227.01
1015.64	226.99
1015.92	226.99
1016.21	227.02
1016.50	227.01
1016.78	227.01
1017.07	227.01
1017.36	226.98
1017.64	226.96
1017.93	226.98
1018.22	226.97
1018.50	226.99
1018.79	226.96
1019.08	226.90
1019.36	226.94
1019.65	226.95
1019.93	226.95
1020.22	226.99
1020.51	227.05
1020.79	227.09
1021.08	227.23
1021.36	226.71
1021.65	226.68
1021.94	226.80
1022.22	227.60
1022.51	226.98
1022.79	227.19
1023.08	227.63
1023.36	228.44
1023.65	226.96
>>>>>End Processed Spectral Data<<<<<
