SpectraSuite Data File
++++++++++++++++++++++++++++++++++++
Date: Fri Feb 01 15:30:33 EST 2013
User: group
Dark Spectrum Present: No
Reference Spectrum Present: No
Number of Sampled Component Spectra: 1
Spectrometers: USB2E7196
Integration Time (usec): 35000 (USB2E7196)
Spectra Averaged: 100 (USB2E7196)
Boxcar Smoothing: 10 (USB2E7196)
Correct for Electrical Dark: No (USB2E7196)
Strobe/Lamp Enabled: No (USB2E7196)
Correct for Detector Non-linearity: No (USB2E7196)
Correct for Stray Light: No (USB2E7196)
Number of Pixels in Processed Spectrum: 2048
>>>>>Begin Processed Spectral Data<<<<<
339.09	0.00
339.48	215.24
339.86	216.25
340.24	217.43
340.63	219.24
341.01	222.30
341.39	221.57
341.78	222.71
342.16	224.35
342.54	225.19
342.93	213.25
343.31	224.07
343.69	224.62
344.07	225.09
344.46	225.51
344.84	225.90
345.22	226.12
345.60	226.40
345.99	226.58
346.37	226.72
346.75	226.81
347.13	226.86
347.52	226.93
347.90	226.99
348.28	227.05
348.66	227.08
349.05	227.10
349.43	227.14
349.81	227.18
350.19	227.26
350.57	227.32
350.96	227.41
351.34	227.46
351.72	227.53
352.10	227.61
352.48	227.71
352.87	227.79
353.25	227.84
353.63	227.92
354.01	228.03
354.39	228.13
354.77	228.23
355.15	228.33
355.54	228.41
355.92	228.45
356.30	228.54
356.68	228.71
357.06	228.76
357.44	228.84
357.82	228.91
358.20	228.95
358.58	229.03
358.97	229.08
359.35	229.20
359.73	229.27
360.11	229.33
360.49	229.41
360.87	229.44
361.25	229.50
361.63	229.54
362.01	229.59
362.39	229.59
362.77	229.60
363.15	229.63
363.53	229.67
363.91	229.70
364.29	229.70
364.67	229.58
365.05	229.63
365.43	229.64
365.81	229.67
366.19	229.74
366.57	229.76
366.95	229.75
367.33	229.72
367.71	229.72
368.09	229.74
368.47	229.69
368.85	229.67
369.23	229.69
369.61	229.61
369.99	229.60
370.37	229.57
370.75	229.59
371.13	229.54
371.51	229.47
371.89	229.42
372.27	229.39
372.65	229.37
373.03	229.28
373.41	229.18
373.78	229.13
374.16	229.00
374.54	228.90
374.92	228.82
375.30	228.71
375.68	228.60
376.06	228.53
376.44	228.45
376.82	228.37
377.19	228.26
377.57	228.21
377.95	228.09
378.33	228.02
378.71	227.89
379.09	227.80
379.47	227.74
379.84	227.66
380.22	227.59
380.60	227.51
380.98	227.43
381.36	227.37
381.73	227.26
382.11	227.23
382.49	227.17
382.87	227.08
383.25	227.02
383.62	227.04
384.00	226.94
384.38	226.91
384.76	226.88
385.13	226.89
385.51	226.82
385.89	226.76
386.27	226.72
386.64	226.66
387.02	226.64
387.40	226.58
387.78	226.54
388.15	226.50
388.53	226.44
388.91	226.40
389.29	226.37
389.66	226.36
390.04	226.32
390.42	226.30
390.79	226.32
391.17	226.32
391.55	226.23
391.92	226.24
392.30	226.23
392.68	226.22
393.05	226.21
393.43	226.23
393.81	226.25
394.18	226.28
394.56	226.31
394.94	226.34
395.31	226.40
395.69	226.45
396.06	226.53
396.44	226.61
396.82	226.67
397.19	226.77
397.57	226.82
397.95	226.91
398.32	226.93
398.70	227.00
399.07	227.07
399.45	227.15
399.82	227.23
400.20	227.29
400.58	227.38
400.95	227.43
401.33	227.55
401.70	227.74
402.08	227.86
402.45	227.96
402.83	228.09
403.20	228.18
403.58	228.28
403.95	228.37
404.33	228.50
404.71	228.64
405.08	228.85
405.46	229.01
405.83	229.14
406.21	229.34
406.58	229.54
406.96	229.71
407.33	229.92
407.70	230.11
408.08	230.41
408.45	230.60
408.83	230.82
409.20	231.02
409.58	231.15
409.95	231.42
410.33	231.67
410.70	231.91
411.08	232.22
411.45	232.54
411.82	232.86
412.20	233.24
412.57	233.64
412.95	233.91
413.32	234.35
413.69	234.74
414.07	235.14
414.44	235.58
414.82	236.08
415.19	236.63
415.56	237.16
415.94	237.70
416.31	238.36
416.68	239.04
417.06	239.74
417.43	240.45
417.81	241.18
418.18	241.98
418.55	242.79
418.93	243.69
419.30	244.59
419.67	245.53
420.04	246.47
420.42	247.45
420.79	248.63
421.16	249.72
421.54	250.89
421.91	252.08
422.28	253.30
422.66	254.62
423.03	255.90
423.40	257.23
423.77	258.62
424.15	260.03
424.52	261.50
424.89	263.09
425.26	264.64
425.64	266.09
426.01	267.67
426.38	269.32
426.75	270.98
427.13	272.73
427.50	274.53
427.87	276.39
428.24	278.27
428.61	280.03
428.99	282.01
429.36	284.16
429.73	286.28
430.10	288.31
430.47	290.36
430.85	292.49
431.22	294.73
431.59	297.12
431.96	299.38
432.33	301.86
432.70	304.25
433.08	307.07
433.45	309.69
433.82	312.32
434.19	315.24
434.56	318.06
434.93	320.71
435.30	323.32
435.68	326.22
436.05	329.06
436.42	331.83
436.79	334.33
437.16	337.04
437.53	339.85
437.90	342.68
438.27	345.46
438.64	348.27
439.01	350.89
439.38	353.08
439.75	355.26
440.13	357.80
440.50	360.15
440.87	362.00
441.24	364.02
441.61	366.15
441.98	367.65
442.35	369.43
442.72	371.26
443.09	373.10
443.46	374.10
443.83	374.69
444.20	375.18
444.57	376.05
444.94	376.31
445.31	376.66
445.68	376.99
446.05	377.02
446.42	376.67
446.79	376.26
447.16	375.86
447.53	375.55
447.90	374.39
448.27	373.26
448.64	371.67
449.01	370.47
449.37	368.56
449.74	366.65
450.11	364.44
450.48	361.99
450.85	359.45
451.22	357.29
451.59	355.27
451.96	353.36
452.33	350.75
452.70	348.39
453.07	345.52
453.43	342.64
453.80	339.84
454.17	337.14
454.54	334.56
454.91	331.80
455.28	329.12
455.65	326.58
456.02	324.09
456.38	321.96
456.75	319.31
457.12	316.99
457.49	314.75
457.86	312.53
458.23	310.66
458.59	308.58
458.96	306.50
459.33	304.64
459.70	302.75
460.07	301.20
460.43	299.47
460.80	297.87
461.17	296.42
461.54	294.96
461.91	293.52
462.27	292.06
462.64	290.80
463.01	289.42
463.38	288.14
463.74	286.77
464.11	285.57
464.48	284.52
464.85	283.42
465.21	282.53
465.58	281.63
465.95	280.53
466.32	279.64
466.68	278.71
467.05	277.76
467.42	276.88
467.78	275.96
468.15	275.11
468.52	274.40
468.88	273.52
469.25	272.75
469.62	272.12
469.98	271.45
470.35	270.84
470.72	270.22
471.08	269.52
471.45	268.95
471.82	268.39
472.18	267.80
472.55	267.33
472.92	266.82
473.28	266.30
473.65	265.82
474.02	265.34
474.38	264.96
474.75	264.65
475.11	264.26
475.48	263.98
475.85	263.72
476.21	263.50
476.58	263.33
476.94	263.20
477.31	263.01
477.67	262.85
478.04	262.70
478.41	262.65
478.77	262.72
479.14	262.66
479.50	262.67
479.87	262.76
480.23	262.85
480.60	262.91
480.96	263.04
481.33	263.28
481.69	263.51
482.06	263.71
482.42	263.91
482.79	264.20
483.15	264.52
483.52	264.91
483.88	265.25
484.25	265.66
484.61	266.06
484.98	266.55
485.34	267.11
485.71	267.74
486.07	268.35
486.44	268.90
486.80	269.59
487.17	270.35
487.53	271.15
487.90	272.02
488.26	272.95
488.62	274.00
488.99	274.97
489.35	275.99
489.72	277.13
490.08	278.37
490.44	279.61
490.81	280.97
491.17	282.32
491.54	283.80
491.90	285.33
492.26	286.99
492.63	288.71
492.99	290.53
493.36	292.43
493.72	294.48
494.08	296.64
494.45	298.91
494.81	301.32
495.17	303.76
495.54	306.32
495.90	309.03
496.26	311.82
496.63	314.76
496.99	317.93
497.35	321.18
497.72	324.54
498.08	328.07
498.44	331.73
498.80	335.68
499.17	339.78
499.53	343.96
499.89	348.32
500.26	352.89
500.62	357.54
500.98	362.49
501.34	367.61
501.71	372.93
502.07	378.41
502.43	384.02
502.79	389.85
503.16	395.95
503.52	402.18
503.88	408.55
504.24	415.19
504.60	422.05
504.97	429.16
505.33	436.49
505.69	444.24
506.05	451.99
506.41	459.92
506.78	468.05
507.14	476.48
507.50	485.26
507.86	494.25
508.22	503.42
508.59	512.59
508.95	522.17
509.31	531.95
509.67	542.04
510.03	552.29
510.39	562.80
510.75	573.55
511.12	584.55
511.48	595.91
511.84	607.31
512.20	618.83
512.56	630.82
512.92	643.07
513.28	655.36
513.64	667.91
514.00	680.58
514.37	693.55
514.73	706.55
515.09	719.59
515.45	732.84
515.81	746.49
516.17	760.54
516.53	774.57
516.89	788.78
517.25	802.97
517.61	817.44
517.97	832.03
518.33	846.43
518.69	861.30
519.05	876.32
519.41	891.58
519.77	907.16
520.13	922.65
520.49	938.03
520.85	953.54
521.21	969.30
521.57	985.58
521.93	1001.36
522.29	1017.83
522.65	1034.16
523.01	1050.41
523.37	1066.46
523.73	1082.71
524.09	1098.89
524.45	1115.23
524.81	1131.89
525.17	1148.76
525.53	1165.71
525.89	1182.72
526.25	1199.41
526.61	1215.74
526.97	1232.49
527.33	1248.98
527.68	1265.72
528.04	1282.32
528.40	1298.99
528.76	1316.03
529.12	1332.66
529.48	1349.61
529.84	1365.75
530.20	1382.37
530.56	1399.46
530.91	1416.87
531.27	1433.65
531.63	1450.28
531.99	1466.99
532.35	1483.02
532.71	1498.91
533.07	1515.23
533.42	1531.15
533.78	1547.38
534.14	1563.76
534.50	1579.24
534.86	1595.28
535.21	1610.39
535.57	1626.32
535.93	1641.83
536.29	1656.64
536.65	1671.73
537.00	1686.63
537.36	1701.86
537.72	1716.52
538.08	1731.05
538.44	1745.04
538.79	1759.02
539.15	1772.70
539.51	1786.47
539.87	1800.88
540.22	1814.71
540.58	1828.52
540.94	1841.99
541.29	1854.94
541.65	1867.69
542.01	1880.94
542.37	1893.23
542.72	1905.68
543.08	1917.49
543.44	1929.79
543.79	1941.18
544.15	1952.25
544.51	1963.81
544.87	1974.80
545.22	1985.62
545.58	1995.87
545.94	2005.71
546.29	2015.66
546.65	2025.54
547.01	2034.82
547.36	2043.66
547.72	2052.30
548.07	2060.19
548.43	2068.33
548.79	2076.45
549.14	2084.00
549.50	2091.38
549.86	2099.15
550.21	2106.49
550.57	2113.69
550.92	2120.45
551.28	2127.44
551.64	2134.49
551.99	2141.08
552.35	2147.42
552.70	2153.55
553.06	2159.44
553.41	2165.71
553.77	2171.79
554.13	2177.82
554.48	2183.96
554.84	2189.31
555.19	2194.54
555.55	2199.66
555.90	2204.03
556.26	2208.77
556.61	2213.43
556.97	2217.70
557.32	2221.81
557.68	2226.04
558.03	2230.25
558.39	2234.02
558.74	2238.65
559.10	2242.52
559.45	2246.14
559.81	2250.33
560.16	2254.06
560.52	2257.35
560.87	2260.78
561.23	2263.34
561.58	2266.39
561.94	2268.86
562.29	2271.36
562.64	2273.93
563.00	2276.52
563.35	2280.07
563.71	2283.18
564.06	2286.40
564.42	2289.06
564.77	2291.46
565.12	2293.60
565.48	2295.42
565.83	2297.16
566.19	2298.39
566.54	2299.35
566.89	2300.53
567.25	2301.08
567.60	2302.50
567.96	2304.16
568.31	2304.91
568.66	2305.88
569.02	2306.33
569.37	2306.60
569.72	2307.33
570.08	2307.46
570.43	2307.37
570.78	2306.81
571.14	2305.22
571.49	2303.96
571.84	2303.68
572.20	2302.48
572.55	2301.30
572.90	2299.80
573.26	2298.33
573.61	2296.69
573.96	2294.81
574.31	2291.63
574.67	2288.64
575.02	2284.93
575.37	2281.46
575.72	2277.65
576.08	2274.28
576.43	2270.96
576.78	2267.25
577.13	2264.18
577.49	2260.97
577.84	2257.44
578.19	2253.63
578.54	2249.91
578.90	2245.62
579.25	2240.05
579.60	2235.07
579.95	2230.05
580.30	2225.07
580.66	2219.86
581.01	2214.75
581.36	2209.74
581.71	2205.43
582.06	2200.87
582.42	2196.31
582.77	2191.09
583.12	2186.50
583.47	2181.80
583.82	2176.65
584.17	2171.34
584.53	2165.58
584.88	2159.80
585.23	2153.93
585.58	2148.45
585.93	2142.99
586.28	2138.01
586.63	2132.88
586.98	2127.73
587.34	2123.05
587.69	2118.05
588.04	2112.68
588.39	2107.03
588.74	2100.49
589.09	2094.27
589.44	2087.55
589.79	2081.41
590.14	2075.60
590.49	2068.87
590.84	2062.42
591.19	2056.34
591.54	2049.86
591.89	2042.43
592.25	2035.74
592.60	2028.52
592.95	2020.84
593.30	2013.49
593.65	2005.87
594.00	1998.79
594.35	1991.71
594.70	1983.63
595.05	1976.25
595.40	1968.99
595.75	1961.32
596.10	1955.02
596.45	1948.30
596.80	1942.05
597.15	1935.44
597.50	1928.19
597.85	1921.75
598.19	1915.06
598.54	1907.89
598.89	1901.16
599.24	1895.28
599.59	1888.45
599.94	1882.18
600.29	1875.76
600.64	1869.13
600.99	1861.68
601.34	1854.84
601.69	1847.65
602.04	1840.71
602.39	1833.33
602.74	1826.47
603.08	1819.78
603.43	1813.08
603.78	1805.75
604.13	1798.45
604.48	1791.10
604.83	1784.41
605.18	1777.33
605.53	1769.26
605.87	1761.27
606.22	1754.13
606.57	1746.20
606.92	1738.84
607.27	1731.65
607.62	1724.69
607.96	1717.37
608.31	1710.72
608.66	1702.89
609.01	1695.32
609.36	1687.66
609.70	1679.61
610.05	1671.40
610.40	1663.68
610.75	1655.39
611.10	1647.73
611.44	1639.33
611.79	1631.41
612.14	1622.65
612.49	1613.54
612.83	1605.22
613.18	1597.14
613.53	1588.97
613.88	1580.41
614.22	1572.19
614.57	1563.57
614.92	1555.56
615.27	1547.91
615.61	1539.57
615.96	1531.74
616.31	1524.11
616.65	1516.79
617.00	1509.33
617.35	1501.75
617.70	1493.39
618.04	1484.84
618.39	1476.65
618.74	1469.04
619.08	1460.61
619.43	1453.11
619.78	1446.15
620.12	1438.92
620.47	1431.38
620.82	1423.14
621.16	1415.70
621.51	1408.08
621.85	1400.53
622.20	1392.05
622.55	1383.76
622.89	1375.95
623.24	1368.28
623.59	1360.98
623.93	1353.38
624.28	1346.11
624.62	1338.63
624.97	1331.52
625.32	1324.81
625.66	1317.67
626.01	1310.41
626.35	1302.92
626.70	1295.13
627.04	1287.41
627.39	1279.64
627.73	1272.10
628.08	1265.15
628.43	1257.77
628.77	1250.44
629.12	1242.75
629.46	1235.58
629.81	1228.06
630.15	1220.82
630.50	1213.44
630.84	1205.17
631.19	1197.35
631.53	1189.93
631.88	1182.29
632.22	1174.62
632.57	1167.22
632.91	1159.67
633.26	1152.32
633.60	1145.11
633.95	1138.03
634.29	1131.14
634.64	1124.53
634.98	1117.24
635.32	1110.21
635.67	1103.71
636.01	1097.04
636.36	1090.26
636.70	1083.70
637.05	1077.26
637.39	1070.81
637.73	1064.23
638.08	1058.40
638.42	1052.45
638.77	1045.94
639.11	1039.30
639.45	1032.96
639.80	1026.24
640.14	1019.90
640.49	1013.41
640.83	1007.09
641.17	1000.78
641.52	994.37
641.86	987.86
642.20	982.01
642.55	975.63
642.89	969.06
643.23	962.40
643.58	956.70
643.92	950.50
644.26	944.40
644.61	938.40
644.95	932.38
645.29	925.70
645.64	918.86
645.98	912.52
646.32	906.76
646.66	900.63
647.01	894.85
647.35	889.18
647.69	883.33
648.04	877.76
648.38	872.02
648.72	865.90
649.06	859.80
649.41	853.89
649.75	847.95
650.09	842.08
650.43	836.33
650.78	830.14
651.12	824.14
651.46	818.40
651.80	812.61
652.14	807.14
652.49	801.74
652.83	796.60
653.17	790.92
653.51	785.14
653.85	779.81
654.20	774.14
654.54	768.13
654.88	762.35
655.22	756.45
655.56	750.77
655.90	745.31
656.25	740.02
656.59	734.65
656.93	729.53
657.27	724.27
657.61	718.87
657.95	713.79
658.29	708.77
658.64	703.53
658.98	698.23
659.32	692.86
659.66	687.74
660.00	682.43
660.34	677.56
660.68	672.71
661.02	667.65
661.36	663.02
661.70	658.50
662.05	654.12
662.39	649.76
662.73	645.25
663.07	640.96
663.41	636.56
663.75	632.11
664.09	627.61
664.43	623.29
664.77	619.10
665.11	614.83
665.45	610.67
665.79	606.58
666.13	602.46
666.47	598.30
666.81	594.06
667.15	589.96
667.49	585.99
667.83	582.19
668.17	578.32
668.51	574.23
668.85	570.20
669.19	566.37
669.53	562.57
669.87	558.71
670.21	555.00
670.55	551.32
670.89	547.84
671.23	544.39
671.57	540.88
671.91	537.41
672.25	533.94
672.58	530.51
672.92	527.13
673.26	523.96
673.60	520.89
673.94	517.92
674.28	514.99
674.62	512.01
674.96	508.90
675.30	505.96
675.64	503.02
675.97	500.26
676.31	497.41
676.65	494.46
676.99	491.79
677.33	488.92
677.67	486.15
678.01	483.14
678.34	480.16
678.68	477.28
679.02	474.49
679.36	471.73
679.70	468.97
680.04	466.16
680.37	463.30
680.71	460.43
681.05	457.75
681.39	455.09
681.73	452.46
682.06	449.92
682.40	447.39
682.74	444.90
683.08	442.37
683.42	439.78
683.75	437.24
684.09	434.70
684.43	432.25
684.77	429.75
685.10	427.46
685.44	425.12
685.78	422.89
686.12	420.65
686.45	418.30
686.79	416.02
687.13	413.86
687.46	411.74
687.80	409.66
688.14	407.43
688.48	405.29
688.81	403.03
689.15	400.93
689.49	398.81
689.82	396.72
690.16	394.63
690.50	392.63
690.83	390.70
691.17	388.70
691.51	386.81
691.84	385.02
692.18	383.05
692.52	381.06
692.85	379.11
693.19	377.23
693.52	375.47
693.86	373.68
694.20	371.89
694.53	370.11
694.87	368.23
695.21	366.50
695.54	364.73
695.88	363.02
696.21	361.22
696.55	359.52
696.88	357.87
697.22	356.24
697.56	354.66
697.89	353.04
698.23	351.47
698.56	349.80
698.90	348.18
699.23	346.49
699.57	344.98
699.90	343.43
700.24	341.91
700.58	340.34
700.91	338.79
701.25	337.30
701.58	335.88
701.92	334.49
702.25	333.11
702.59	331.75
702.92	330.42
703.26	329.16
703.59	327.90
703.93	326.72
704.26	325.45
704.60	324.14
704.93	322.83
705.26	321.58
705.60	320.45
705.93	319.28
706.27	318.31
706.60	317.24
706.94	316.15
707.27	315.01
707.61	313.94
707.94	312.97
708.27	311.90
708.61	310.84
708.94	309.90
709.28	308.92
709.61	307.92
709.94	306.97
710.28	305.93
710.61	304.93
710.95	303.86
711.28	302.94
711.61	302.00
711.95	301.13
712.28	300.15
712.61	299.19
712.95	298.26
713.28	297.38
713.61	296.48
713.95	295.59
714.28	294.77
714.61	293.92
714.95	293.05
715.28	292.19
715.61	291.30
715.95	290.38
716.28	289.52
716.61	288.71
716.95	287.91
717.28	287.24
717.61	286.50
717.94	285.73
718.28	284.95
718.61	284.26
718.94	283.57
719.27	282.93
719.61	282.28
719.94	281.62
720.27	280.91
720.60	280.26
720.94	279.62
721.27	279.01
721.60	278.44
721.93	277.86
722.27	277.32
722.60	276.79
722.93	276.24
723.26	275.72
723.59	275.15
723.93	274.60
724.26	274.02
724.59	273.43
724.92	272.91
725.25	272.44
725.59	271.89
725.92	271.35
726.25	270.83
726.58	270.35
726.91	269.85
727.24	269.38
727.57	268.90
727.91	268.39
728.24	267.90
728.57	267.42
728.90	266.95
729.23	266.43
729.56	265.97
729.89	265.52
730.22	265.00
730.55	264.54
730.89	264.08
731.22	263.61
731.55	263.16
731.88	262.73
732.21	262.28
732.54	261.84
732.87	261.44
733.20	261.03
733.53	260.62
733.86	260.25
734.19	259.82
734.52	259.47
734.85	259.15
735.18	258.75
735.51	258.38
735.84	257.96
736.17	257.61
736.50	257.21
736.83	256.95
737.16	256.65
737.49	256.27
737.82	255.92
738.15	255.58
738.48	255.26
738.81	254.95
739.14	254.61
739.47	254.33
739.80	254.01
740.13	253.71
740.46	253.37
740.79	253.04
741.12	252.73
741.45	252.40
741.78	252.07
742.11	251.78
742.44	251.43
742.77	251.17
743.10	250.85
743.43	250.55
743.75	250.21
744.08	250.06
744.41	249.82
744.74	249.54
745.07	249.27
745.40	249.03
745.73	248.78
746.06	248.55
746.39	248.27
746.71	247.98
747.04	247.72
747.37	247.48
747.70	247.22
748.03	246.97
748.36	246.75
748.68	246.53
749.01	246.26
749.34	246.06
749.67	245.86
750.00	245.69
750.33	245.52
750.65	245.27
750.98	244.94
751.31	244.76
751.64	244.58
751.97	244.43
752.29	244.20
752.62	243.93
752.95	243.73
753.28	243.53
753.60	243.33
753.93	243.15
754.26	242.94
754.59	242.74
754.91	242.55
755.24	242.33
755.57	242.14
755.90	242.00
756.22	241.81
756.55	241.62
756.88	241.40
757.20	241.21
757.53	241.03
757.86	240.86
758.19	240.68
758.51	240.52
758.84	240.31
759.17	240.14
759.49	240.02
759.82	239.90
760.15	239.76
760.47	239.63
760.80	239.50
761.13	239.40
761.45	239.28
761.78	239.14
762.11	239.02
762.43	238.88
762.76	238.72
763.08	238.61
763.41	238.47
763.74	238.34
764.06	238.19
764.39	238.05
764.71	237.94
765.04	237.82
765.37	237.70
765.69	237.60
766.02	237.46
766.34	237.34
766.67	237.18
767.00	237.07
767.32	237.00
767.65	236.92
767.97	236.77
768.30	236.66
768.62	236.53
768.95	236.40
769.27	236.29
769.60	236.19
769.92	236.07
770.25	235.97
770.57	235.86
770.90	235.76
771.22	235.65
771.55	235.52
771.87	235.38
772.20	235.22
772.52	235.17
772.85	235.19
773.17	235.08
773.50	234.97
773.82	234.83
774.15	234.70
774.47	234.54
774.80	234.44
775.12	234.33
775.45	234.25
775.77	234.20
776.09	234.12
776.42	234.06
776.74	233.97
777.07	233.89
777.39	233.82
777.72	233.72
778.04	233.67
778.36	233.62
778.69	233.55
779.01	233.50
779.33	233.35
779.66	233.16
779.98	233.08
780.31	233.02
780.63	233.01
780.95	232.97
781.28	232.88
781.60	232.82
781.92	232.77
782.25	232.70
782.57	232.62
782.89	232.55
783.22	232.49
783.54	232.45
783.86	232.39
784.19	232.32
784.51	232.29
784.83	232.23
785.16	232.17
785.48	232.14
785.80	232.11
786.12	232.09
786.45	232.07
786.77	232.05
787.09	232.00
787.42	231.91
787.74	231.86
788.06	231.84
788.38	231.82
788.71	231.77
789.03	231.72
789.35	231.68
789.67	231.62
789.99	231.54
790.32	231.48
790.64	231.46
790.96	231.52
791.28	231.47
791.61	231.43
791.93	231.36
792.25	231.33
792.57	231.37
792.89	231.33
793.21	231.27
793.54	231.22
793.86	231.17
794.18	231.14
794.50	231.08
794.82	231.03
795.14	231.00
795.47	230.99
795.79	230.97
796.11	230.94
796.43	230.91
796.75	230.93
797.07	230.90
797.39	230.84
797.71	230.73
798.04	230.70
798.36	230.67
798.68	230.65
799.00	230.63
799.32	230.52
799.64	230.53
799.96	230.51
800.28	230.49
800.60	230.44
800.92	230.40
801.24	230.40
801.56	230.38
801.89	230.31
802.21	230.26
802.53	230.22
802.85	230.21
803.17	230.27
803.49	230.20
803.81	230.16
804.13	230.16
804.45	230.10
804.77	230.06
805.09	230.06
805.41	230.04
805.73	229.98
806.05	229.95
806.37	229.91
806.69	229.89
807.01	229.89
807.33	229.88
807.65	229.84
807.97	229.83
808.28	229.81
808.60	229.81
808.92	229.77
809.24	229.81
809.56	229.76
809.88	229.64
810.20	229.61
810.52	229.63
810.84	229.55
811.16	229.57
811.48	229.56
811.80	229.56
812.12	229.52
812.43	229.53
812.75	229.49
813.07	229.46
813.39	229.42
813.71	229.37
814.03	229.35
814.35	229.31
814.67	229.28
814.98	229.23
815.30	229.18
815.62	229.14
815.94	229.07
816.26	229.06
816.58	229.06
816.89	229.06
817.21	228.97
817.53	228.99
817.85	228.94
818.17	228.92
818.48	228.82
818.80	228.81
819.12	228.77
819.44	228.76
819.76	228.73
820.07	228.69
820.39	228.65
820.71	228.63
821.03	228.62
821.34	228.59
821.66	228.56
821.98	228.57
822.30	228.56
822.61	228.57
822.93	228.52
823.25	228.47
823.57	228.40
823.88	228.42
824.20	228.39
824.52	228.40
824.83	228.37
825.15	228.39
825.47	228.38
825.79	228.37
826.10	228.33
826.42	228.33
826.74	228.33
827.05	228.33
827.37	228.30
827.69	228.31
828.00	228.32
828.32	228.34
828.64	228.30
828.95	228.34
829.27	228.33
829.58	228.31
829.90	228.37
830.22	228.40
830.53	228.36
830.85	228.35
831.17	228.32
831.48	228.31
831.80	228.29
832.11	228.28
832.43	228.25
832.75	228.25
833.06	228.27
833.38	228.29
833.69	228.27
834.01	228.29
834.32	228.28
834.64	228.28
834.96	228.29
835.27	228.29
835.59	228.28
835.90	228.28
836.22	228.30
836.53	228.24
836.85	228.25
837.16	228.35
837.48	228.32
837.79	228.35
838.11	228.38
838.42	228.37
838.74	228.40
839.05	228.39
839.37	228.38
839.68	228.31
840.00	228.31
840.31	228.34
840.63	228.34
840.94	228.32
841.26	228.26
841.57	228.25
841.88	228.24
842.20	228.23
842.51	228.17
842.83	228.16
843.14	228.25
843.46	228.22
843.77	228.16
844.08	228.20
844.40	228.17
844.71	228.14
845.03	228.10
845.34	228.08
845.65	228.07
845.97	228.07
846.28	228.06
846.60	228.03
846.91	227.99
847.22	227.98
847.54	228.01
847.85	228.00
848.16	228.01
848.48	227.98
848.79	227.96
849.10	227.97
849.42	227.94
849.73	227.85
850.04	227.84
850.36	227.79
850.67	227.80
850.98	227.79
851.30	227.76
851.61	227.76
851.92	227.73
852.23	227.76
852.55	227.74
852.86	227.74
853.17	227.76
853.49	227.74
853.80	227.73
854.11	227.71
854.42	227.72
854.74	227.68
855.05	227.67
855.36	227.63
855.67	227.63
855.99	227.65
856.30	227.79
856.61	227.78
856.92	227.77
857.23	227.75
857.55	227.69
857.86	227.70
858.17	227.69
858.48	227.67
858.79	227.63
859.11	227.68
859.42	227.65
859.73	227.61
860.04	227.61
860.35	227.58
860.66	227.52
860.98	227.51
861.29	227.52
861.60	227.51
861.91	227.54
862.22	227.51
862.53	227.46
862.84	227.29
863.16	227.31
863.47	227.32
863.78	227.30
864.09	227.29
864.40	227.30
864.71	227.32
865.02	227.36
865.33	227.36
865.64	227.31
865.95	227.32
866.27	227.40
866.58	227.40
866.89	227.44
867.20	227.47
867.51	227.45
867.82	227.45
868.13	227.49
868.44	227.44
868.75	227.50
869.06	227.55
869.37	227.56
869.68	227.53
869.99	227.50
870.30	227.50
870.61	227.57
870.92	227.56
871.23	227.54
871.54	227.55
871.85	227.59
872.16	227.58
872.47	227.59
872.78	227.55
873.09	227.56
873.40	227.55
873.71	227.56
874.02	227.58
874.33	227.57
874.64	227.54
874.95	227.58
875.26	227.52
875.56	227.52
875.87	227.49
876.18	227.51
876.49	227.64
876.80	227.63
877.11	227.58
877.42	227.57
877.73	227.57
878.04	227.57
878.35	227.56
878.66	227.56
878.96	227.56
879.27	227.55
879.58	227.53
879.89	227.51
880.20	227.55
880.51	227.53
880.82	227.56
881.12	227.59
881.43	227.58
881.74	227.57
882.05	227.57
882.36	227.60
882.67	227.58
882.97	227.47
883.28	227.45
883.59	227.45
883.90	227.46
884.21	227.50
884.51	227.48
884.82	227.46
885.13	227.47
885.44	227.47
885.74	227.50
886.05	227.51
886.36	227.48
886.67	227.45
886.98	227.49
887.28	227.48
887.59	227.47
887.90	227.46
888.20	227.46
888.51	227.49
888.82	227.50
889.13	227.50
889.43	227.57
889.74	227.60
890.05	227.60
890.35	227.61
890.66	227.54
890.97	227.52
891.28	227.48
891.58	227.48
891.89	227.43
892.20	227.36
892.50	227.29
892.81	227.30
893.12	227.28
893.42	227.25
893.73	227.20
894.04	227.19
894.34	227.21
894.65	227.21
894.95	227.17
895.26	227.16
895.57	227.17
895.87	227.08
896.18	227.09
896.48	227.09
896.79	227.07
897.10	227.10
897.40	227.08
897.71	227.10
898.01	227.10
898.32	227.15
898.63	227.17
898.93	227.22
899.24	227.20
899.54	227.21
899.85	227.21
900.15	227.23
900.46	227.21
900.76	227.21
901.07	227.19
901.38	227.18
901.68	227.20
901.99	227.16
902.29	227.16
902.60	227.15
902.90	227.12
903.21	227.13
903.51	227.12
903.82	227.16
904.12	227.16
904.43	227.20
904.73	227.18
905.03	227.16
905.34	227.28
905.64	227.29
905.95	227.29
906.25	227.31
906.56	227.31
906.86	227.35
907.17	227.35
907.47	227.38
907.77	227.37
908.08	227.35
908.38	227.37
908.69	227.40
908.99	227.41
909.30	227.45
909.60	227.47
909.90	227.48
910.21	227.47
910.51	227.47
910.81	227.45
911.12	227.48
911.42	227.49
911.73	227.37
912.03	227.39
912.33	227.39
912.64	227.39
912.94	227.39
913.24	227.37
913.55	227.35
913.85	227.36
914.15	227.38
914.46	227.39
914.76	227.38
915.06	227.40
915.37	227.38
915.67	227.34
915.97	227.33
916.27	227.34
916.58	227.33
916.88	227.34
917.18	227.33
917.49	227.39
917.79	227.40
918.09	227.40
918.39	227.43
918.70	227.43
919.00	227.42
919.30	227.46
919.60	227.45
919.91	227.43
920.21	227.43
920.51	227.39
920.81	227.40
921.12	227.42
921.42	227.39
921.72	227.39
922.02	227.40
922.32	227.40
922.63	227.39
922.93	227.44
923.23	227.43
923.53	227.40
923.83	227.31
924.13	227.33
924.44	227.32
924.74	227.33
925.04	227.34
925.34	227.33
925.64	227.30
925.94	227.28
926.24	227.32
926.55	227.30
926.85	227.33
927.15	227.30
927.45	227.30
927.75	227.27
928.05	227.25
928.35	227.26
928.65	227.25
928.95	227.27
929.26	227.22
929.56	227.24
929.86	227.23
930.16	227.20
930.46	227.19
930.76	227.19
931.06	227.14
931.36	227.13
931.66	227.14
931.96	227.14
932.26	227.19
932.56	227.15
932.86	227.16
933.16	227.14
933.46	227.16
933.76	227.14
934.06	227.17
934.36	227.20
934.66	227.22
934.96	227.22
935.26	227.20
935.56	227.21
935.86	227.18
936.16	227.20
936.46	227.23
936.76	227.21
937.06	227.19
937.36	227.21
937.66	227.20
937.96	227.23
938.26	227.19
938.56	227.15
938.86	227.15
939.16	227.15
939.46	227.15
939.76	227.13
940.06	227.12
940.35	227.10
940.65	227.03
940.95	227.03
941.25	226.98
941.55	226.98
941.85	226.98
942.15	227.01
942.45	227.02
942.75	227.03
943.04	227.02
943.34	227.05
943.64	227.00
943.94	227.00
944.24	226.95
944.54	226.95
944.84	226.96
945.13	226.97
945.43	226.93
945.73	226.94
946.03	226.96
946.33	226.97
946.62	226.96
946.92	227.00
947.22	227.01
947.52	227.02
947.82	227.04
948.11	227.03
948.41	227.01
948.71	227.01
949.01	227.02
949.31	227.05
949.60	227.06
949.90	227.11
950.20	227.09
950.50	227.10
950.79	227.12
951.09	227.10
951.39	227.11
951.69	227.12
951.98	227.17
952.28	227.16
952.58	227.15
952.87	227.18
953.17	227.19
953.47	227.18
953.76	227.21
954.06	227.23
954.36	227.23
954.66	227.26
954.95	227.27
955.25	227.26
955.55	227.29
955.84	227.27
956.14	227.27
956.44	227.27
956.73	227.29
957.03	227.27
957.32	227.29
957.62	227.26
957.92	227.33
958.21	227.31
958.51	227.42
958.81	227.44
959.10	227.42
959.40	227.45
959.69	227.44
959.99	227.46
960.29	227.43
960.58	227.43
960.88	227.45
961.17	227.45
961.47	227.48
961.76	227.42
962.06	227.44
962.36	227.42
962.65	227.44
962.95	227.45
963.24	227.48
963.54	227.47
963.83	227.47
964.13	227.46
964.42	227.41
964.72	227.34
965.01	227.33
965.31	227.29
965.60	227.27
965.90	227.31
966.19	227.27
966.49	227.28
966.78	227.26
967.08	227.26
967.37	227.24
967.67	227.20
967.96	227.26
968.26	227.25
968.55	227.27
968.85	227.26
969.14	227.24
969.43	227.25
969.73	227.24
970.02	227.26
970.32	227.23
970.61	227.23
970.91	227.20
971.20	227.20
971.49	227.20
971.79	227.22
972.08	227.15
972.38	227.17
972.67	227.14
972.96	227.15
973.26	227.12
973.55	227.16
973.85	227.16
974.14	227.09
974.43	227.11
974.73	227.04
975.02	227.04
975.31	227.04
975.61	227.05
975.90	227.05
976.19	227.04
976.49	227.02
976.78	227.02
977.07	227.02
977.37	227.05
977.66	227.04
977.95	227.02
978.24	227.02
978.54	227.02
978.83	227.03
979.12	227.01
979.42	227.00
979.71	226.98
980.00	226.97
980.29	226.99
980.59	226.95
980.88	227.03
981.17	227.02
981.46	227.00
981.76	227.00
982.05	227.04
982.34	227.05
982.63	227.05
982.93	227.06
983.22	227.05
983.51	227.02
983.80	227.07
984.09	227.08
984.39	227.06
984.68	227.07
984.97	227.09
985.26	227.08
985.55	227.09
985.85	227.05
986.14	227.07
986.43	227.08
986.72	227.09
987.01	227.00
987.30	227.00
987.59	226.97
987.89	226.92
988.18	226.87
988.47	226.83
988.76	226.82
989.05	226.82
989.34	226.83
989.63	226.87
989.92	226.86
990.22	226.82
990.51	226.82
990.80	226.81
991.09	226.80
991.38	226.84
991.67	226.80
991.96	226.77
992.25	226.77
992.54	226.77
992.83	226.75
993.12	226.81
993.41	226.81
993.70	226.84
993.99	226.90
994.28	226.89
994.58	226.94
994.87	226.93
995.16	226.90
995.45	226.90
995.74	226.86
996.03	226.83
996.32	226.82
996.61	226.86
996.90	226.86
997.19	226.83
997.48	226.82
997.77	226.85
998.06	226.89
998.34	226.91
998.63	226.91
998.92	226.91
999.21	226.91
999.50	226.93
999.79	226.92
1000.08	226.88
1000.37	226.91
1000.66	226.86
1000.95	226.90
1001.24	226.93
1001.53	226.91
1001.82	226.92
1002.11	226.89
1002.40	226.92
1002.68	226.91
1002.97	226.96
1003.26	226.95
1003.55	226.95
1003.84	226.92
1004.13	226.94
1004.42	226.93
1004.71	226.93
1004.99	226.90
1005.28	226.91
1005.57	226.93
1005.86	226.94
1006.15	226.95
1006.44	226.94
1006.72	226.99
1007.01	226.97
1007.30	226.98
1007.59	226.96
1007.88	226.96
1008.17	226.99
1008.45	226.98
1008.74	226.98
1009.03	226.96
1009.32	226.96
1009.60	226.98
1009.89	227.02
1010.18	227.00
1010.47	227.00
1010.76	226.99
1011.04	227.02
1011.33	227.04
1011.62	227.04
1011.91	227.06
1012.19	227.06
1012.48	227.06
1012.77	227.03
1013.05	227.11
1013.34	227.08
1013.63	227.10
1013.92	227.11
1014.20	227.13
1014.49	227.14
1014.78	227.14
1015.06	227.11
1015.35	227.12
1015.64	227.11
1015.92	227.09
1016.21	227.08
1016.50	227.09
1016.78	227.09
1017.07	227.07
1017.36	227.03
1017.64	227.00
1017.93	227.00
1018.22	227.02
1018.50	227.03
1018.79	227.05
1019.08	226.97
1019.36	227.01
1019.65	227.02
1019.93	227.03
1020.22	227.05
1020.51	227.09
1020.79	227.08
1021.08	227.44
1021.36	227.18
1021.65	226.95
1021.94	226.82
1022.22	227.59
1022.51	227.21
1022.79	227.30
1023.08	227.42
1023.36	227.85
1023.65	226.59
>>>>>End Processed Spectral Data<<<<<
