SpectraSuite Data File
++++++++++++++++++++++++++++++++++++
Date: Fri Feb 01 15:37:01 EST 2013
User: group
Dark Spectrum Present: No
Reference Spectrum Present: No
Number of Sampled Component Spectra: 1
Spectrometers: USB2E7196
Integration Time (usec): 35000 (USB2E7196)
Spectra Averaged: 100 (USB2E7196)
Boxcar Smoothing: 10 (USB2E7196)
Correct for Electrical Dark: No (USB2E7196)
Strobe/Lamp Enabled: No (USB2E7196)
Correct for Detector Non-linearity: No (USB2E7196)
Correct for Stray Light: No (USB2E7196)
Number of Pixels in Processed Spectrum: 2048
>>>>>Begin Processed Spectral Data<<<<<
339.09	0.00
339.48	215.01
339.86	215.71
340.24	217.82
340.63	218.98
341.01	222.56
341.39	221.58
341.78	223.22
342.16	224.10
342.54	224.84
342.93	213.12
343.31	223.90
343.69	224.42
344.07	224.91
344.46	225.33
344.84	225.72
345.22	225.95
345.60	226.20
345.99	226.39
346.37	226.53
346.75	226.61
347.13	226.66
347.52	226.68
347.90	226.76
348.28	226.78
348.66	226.83
349.05	226.81
349.43	226.87
349.81	226.88
350.19	226.96
350.57	227.04
350.96	227.11
351.34	227.19
351.72	227.28
352.10	227.41
352.48	227.49
352.87	227.55
353.25	227.58
353.63	227.66
354.01	227.72
354.39	227.81
354.77	227.93
355.15	228.04
355.54	228.14
355.92	228.17
356.30	228.28
356.68	228.43
357.06	228.52
357.44	228.54
357.82	228.63
358.20	228.71
358.58	228.77
358.97	228.82
359.35	228.90
359.73	228.99
360.11	228.99
360.49	229.04
360.87	229.09
361.25	229.16
361.63	229.24
362.01	229.31
362.39	229.34
362.77	229.36
363.15	229.40
363.53	229.41
363.91	229.44
364.29	229.45
364.67	229.38
365.05	229.43
365.43	229.44
365.81	229.47
366.19	229.50
366.57	229.52
366.95	229.56
367.33	229.51
367.71	229.51
368.09	229.56
368.47	229.54
368.85	229.50
369.23	229.51
369.61	229.45
369.99	229.43
370.37	229.43
370.75	229.46
371.13	229.39
371.51	229.35
371.89	229.32
372.27	229.28
372.65	229.23
373.03	229.14
373.41	229.12
373.78	229.06
374.16	229.01
374.54	228.90
374.92	228.80
375.30	228.77
375.68	228.66
376.06	228.58
376.44	228.51
376.82	228.45
377.19	228.38
377.57	228.28
377.95	228.17
378.33	228.07
378.71	227.91
379.09	227.87
379.47	227.80
379.84	227.71
380.22	227.60
380.60	227.51
380.98	227.50
381.36	227.41
381.73	227.32
382.11	227.23
382.49	227.16
382.87	227.08
383.25	226.98
383.62	227.01
384.00	226.93
384.38	226.91
384.76	226.86
385.13	226.82
385.51	226.80
385.89	226.73
386.27	226.67
386.64	226.64
387.02	226.57
387.40	226.50
387.78	226.47
388.15	226.44
388.53	226.41
388.91	226.34
389.29	226.34
389.66	226.34
390.04	226.32
390.42	226.33
390.79	226.36
391.17	226.38
391.55	226.28
391.92	226.30
392.30	226.26
392.68	226.25
393.05	226.23
393.43	226.22
393.81	226.21
394.18	226.22
394.56	226.23
394.94	226.25
395.31	226.25
395.69	226.30
396.06	226.34
396.44	226.38
396.82	226.41
397.19	226.46
397.57	226.49
397.95	226.55
398.32	226.58
398.70	226.62
399.07	226.71
399.45	226.78
399.82	226.81
400.20	226.87
400.58	226.93
400.95	226.99
401.33	227.07
401.70	227.24
402.08	227.32
402.45	227.46
402.83	227.58
403.20	227.68
403.58	227.78
403.95	227.90
404.33	228.03
404.71	228.15
405.08	228.34
405.46	228.45
405.83	228.59
406.21	228.76
406.58	228.92
406.96	229.05
407.33	229.23
407.70	229.46
408.08	229.73
408.45	230.00
408.83	230.24
409.20	230.48
409.58	230.64
409.95	230.93
410.33	231.17
410.70	231.45
411.08	231.76
411.45	232.11
411.82	232.41
412.20	232.79
412.57	233.24
412.95	233.54
413.32	233.99
413.69	234.38
414.07	234.82
414.44	235.31
414.82	235.78
415.19	236.33
415.56	236.86
415.94	237.38
416.31	238.00
416.68	238.65
417.06	239.40
417.43	240.12
417.81	240.88
418.18	241.65
418.55	242.49
418.93	243.38
419.30	244.27
419.67	245.23
420.04	246.16
420.42	247.13
420.79	248.31
421.16	249.46
421.54	250.67
421.91	251.89
422.28	253.16
422.66	254.52
423.03	255.84
423.40	257.19
423.77	258.62
424.15	260.04
424.52	261.51
424.89	263.11
425.26	264.64
425.64	266.07
426.01	267.69
426.38	269.34
426.75	271.02
427.13	272.73
427.50	274.50
427.87	276.39
428.24	278.22
428.61	279.98
428.99	281.91
429.36	284.05
429.73	286.10
430.10	288.09
430.47	290.12
430.85	292.25
431.22	294.48
431.59	296.85
431.96	299.09
432.33	301.58
432.70	303.95
433.08	306.81
433.45	309.45
433.82	312.05
434.19	314.98
434.56	317.82
434.93	320.49
435.30	323.16
435.68	326.05
436.05	328.94
436.42	331.77
436.79	334.30
437.16	336.95
437.53	339.77
437.90	342.58
438.27	345.38
438.64	348.22
439.01	350.82
439.38	353.06
439.75	355.23
440.13	357.72
440.50	360.01
440.87	361.83
441.24	363.76
441.61	365.90
441.98	367.35
442.35	369.12
442.72	370.94
443.09	372.78
443.46	373.71
443.83	374.31
444.20	374.77
444.57	375.58
444.94	375.89
445.31	376.22
445.68	376.55
446.05	376.63
446.42	376.21
446.79	375.79
447.16	375.36
447.53	375.04
447.90	373.87
448.27	372.70
448.64	371.11
449.01	369.99
449.37	368.02
449.74	366.13
450.11	363.84
450.48	361.38
450.85	358.75
451.22	356.65
451.59	354.62
451.96	352.65
452.33	350.07
452.70	347.72
453.07	344.92
453.43	342.03
453.80	339.22
454.17	336.51
454.54	333.93
454.91	331.18
455.28	328.51
455.65	326.01
456.02	323.62
456.38	321.46
456.75	318.77
457.12	316.53
457.49	314.31
457.86	312.16
458.23	310.30
458.59	308.32
458.96	306.25
459.33	304.37
459.70	302.52
460.07	300.97
460.43	299.24
460.80	297.59
461.17	296.18
461.54	294.69
461.91	293.31
462.27	291.88
462.64	290.64
463.01	289.27
463.38	287.96
463.74	286.58
464.11	285.43
464.48	284.46
464.85	283.35
465.21	282.51
465.58	281.57
465.95	280.46
466.32	279.51
466.68	278.57
467.05	277.68
467.42	276.79
467.78	275.88
468.15	274.97
468.52	274.31
468.88	273.43
469.25	272.66
469.62	272.03
469.98	271.34
470.35	270.68
470.72	270.09
471.08	269.43
471.45	268.90
471.82	268.32
472.18	267.69
472.55	267.29
472.92	266.70
473.28	266.22
473.65	265.80
474.02	265.37
474.38	265.02
474.75	264.70
475.11	264.35
475.48	264.09
475.85	263.86
476.21	263.67
476.58	263.45
476.94	263.27
477.31	263.07
477.67	262.94
478.04	262.86
478.41	262.79
478.77	262.85
479.14	262.78
479.50	262.80
479.87	262.86
480.23	262.91
480.60	263.01
480.96	263.13
481.33	263.31
481.69	263.54
482.06	263.74
482.42	263.94
482.79	264.19
483.15	264.53
483.52	264.94
483.88	265.27
484.25	265.68
484.61	266.12
484.98	266.62
485.34	267.20
485.71	267.74
486.07	268.35
486.44	268.91
486.80	269.61
487.17	270.35
487.53	271.16
487.90	272.00
488.26	272.93
488.62	273.96
488.99	274.93
489.35	275.96
489.72	277.06
490.08	278.26
490.44	279.50
490.81	280.83
491.17	282.15
491.54	283.64
491.90	285.19
492.26	286.82
492.63	288.56
492.99	290.31
493.36	292.20
493.72	294.25
494.08	296.38
494.45	298.60
494.81	300.99
495.17	303.42
495.54	305.96
495.90	308.61
496.26	311.41
496.63	314.40
496.99	317.48
497.35	320.71
497.72	324.06
498.08	327.60
498.44	331.28
498.80	335.21
499.17	339.20
499.53	343.40
499.89	347.81
500.26	352.27
500.62	356.92
500.98	361.93
501.34	367.00
501.71	372.37
502.07	377.82
502.43	383.42
502.79	389.22
503.16	395.32
503.52	401.62
503.88	407.98
504.24	414.61
504.60	421.55
504.97	428.75
505.33	436.12
505.69	443.74
506.05	451.51
506.41	459.34
506.78	467.48
507.14	475.98
507.50	484.70
507.86	493.72
508.22	502.88
508.59	512.12
508.95	521.69
509.31	531.53
509.67	541.69
510.03	551.96
510.39	562.55
510.75	573.37
511.12	584.28
511.48	595.63
511.84	607.11
512.20	618.62
512.56	630.53
512.92	642.77
513.28	655.19
513.64	667.67
514.00	680.49
514.37	693.47
514.73	706.44
515.09	719.47
515.45	732.82
515.81	746.49
516.17	760.49
516.53	774.61
516.89	788.73
517.25	802.91
517.61	817.33
517.97	831.81
518.33	846.29
518.69	861.11
519.05	876.12
519.41	891.35
519.77	906.98
520.13	922.47
520.49	937.78
520.85	953.27
521.21	969.02
521.57	985.22
521.93	1001.02
522.29	1017.49
522.65	1033.81
523.01	1050.02
523.37	1066.03
523.73	1082.19
524.09	1098.32
524.45	1114.70
524.81	1131.25
525.17	1148.15
525.53	1165.10
525.89	1182.00
526.25	1198.84
526.61	1215.23
526.97	1231.93
527.33	1248.26
527.68	1264.84
528.04	1281.34
528.40	1297.97
528.76	1315.10
529.12	1331.68
529.48	1348.54
529.84	1364.61
530.20	1381.23
530.56	1398.22
530.91	1415.65
531.27	1432.49
531.63	1448.95
531.99	1465.47
532.35	1481.50
532.71	1497.40
533.07	1513.62
533.42	1529.50
533.78	1545.63
534.14	1561.94
534.50	1577.37
534.86	1593.29
535.21	1608.50
535.57	1624.56
535.93	1640.00
536.29	1654.65
536.65	1669.74
537.00	1684.56
537.36	1699.92
537.72	1714.37
538.08	1728.79
538.44	1742.56
538.79	1756.44
539.15	1770.19
539.51	1783.93
539.87	1798.25
540.22	1811.92
540.58	1825.68
540.94	1839.07
541.29	1851.98
541.65	1864.71
542.01	1877.80
542.37	1890.19
542.72	1902.65
543.08	1914.43
543.44	1926.85
543.79	1938.14
544.15	1949.26
544.51	1960.80
544.87	1971.66
545.22	1982.66
545.58	1992.97
545.94	2002.82
546.29	2012.58
546.65	2022.41
547.01	2031.76
547.36	2040.55
547.72	2048.99
548.07	2056.91
548.43	2065.10
548.79	2073.04
549.14	2080.55
549.50	2088.09
549.86	2095.82
550.21	2103.04
550.57	2110.18
550.92	2116.79
551.28	2124.13
551.64	2131.16
551.99	2137.75
552.35	2143.93
552.70	2149.95
553.06	2155.89
553.41	2162.21
553.77	2168.30
554.13	2174.35
554.48	2180.45
554.84	2185.94
555.19	2191.31
555.55	2196.45
555.90	2200.79
556.26	2205.61
556.61	2210.44
556.97	2214.53
557.32	2218.67
557.68	2222.91
558.03	2227.16
558.39	2230.87
558.74	2235.34
559.10	2239.17
559.45	2242.78
559.81	2247.12
560.16	2251.01
560.52	2254.30
560.87	2257.73
561.23	2260.42
561.58	2263.47
561.94	2265.92
562.29	2268.31
562.64	2270.84
563.00	2273.51
563.35	2277.13
563.71	2280.22
564.06	2283.30
564.42	2286.24
564.77	2288.63
565.12	2290.91
565.48	2292.76
565.83	2294.58
566.19	2295.78
566.54	2296.81
566.89	2298.05
567.25	2298.59
567.60	2299.86
567.96	2301.52
568.31	2302.35
568.66	2303.31
569.02	2303.75
569.37	2303.97
569.72	2304.75
570.08	2305.00
570.43	2304.86
570.78	2304.23
571.14	2302.76
571.49	2301.40
571.84	2301.03
572.20	2299.77
572.55	2298.67
572.90	2297.13
573.26	2295.63
573.61	2293.90
573.96	2292.03
574.31	2289.03
574.67	2286.05
575.02	2282.33
575.37	2278.85
575.72	2275.02
576.08	2271.70
576.43	2268.38
576.78	2264.82
577.13	2261.56
577.49	2258.51
577.84	2255.05
578.19	2251.18
578.54	2247.40
578.90	2243.18
579.25	2237.68
579.60	2232.61
579.95	2227.53
580.30	2222.41
580.66	2217.18
581.01	2212.22
581.36	2207.23
581.71	2202.91
582.06	2198.29
582.42	2193.87
582.77	2188.50
583.12	2183.68
583.47	2178.89
583.82	2173.84
584.17	2168.48
584.53	2163.03
584.88	2157.25
585.23	2151.47
585.58	2145.97
585.93	2140.53
586.28	2135.82
586.63	2130.61
586.98	2125.77
587.34	2121.08
587.69	2116.17
588.04	2110.90
588.39	2105.19
588.74	2098.60
589.09	2092.43
589.44	2085.58
589.79	2079.63
590.14	2074.13
590.49	2067.66
590.84	2061.32
591.19	2055.25
591.54	2048.82
591.89	2041.34
592.25	2034.45
592.60	2027.09
592.95	2019.45
593.30	2012.13
593.65	2004.31
594.00	1997.19
594.35	1989.75
594.70	1981.69
595.05	1974.41
595.40	1967.07
595.75	1959.45
596.10	1953.15
596.45	1946.34
596.80	1940.25
597.15	1933.36
597.50	1926.08
597.85	1919.70
598.19	1912.90
598.54	1905.72
598.89	1899.01
599.24	1893.10
599.59	1886.36
599.94	1880.27
600.29	1873.97
600.64	1867.34
600.99	1859.82
601.34	1852.99
601.69	1846.10
602.04	1839.19
602.39	1831.81
602.74	1825.04
603.08	1818.31
603.43	1811.63
603.78	1804.29
604.13	1797.13
604.48	1789.95
604.83	1783.19
605.18	1776.12
605.53	1768.24
605.87	1760.26
606.22	1753.13
606.57	1745.17
606.92	1737.98
607.27	1730.65
607.62	1723.74
607.96	1716.40
608.31	1709.77
608.66	1702.16
609.01	1694.42
609.36	1686.78
609.70	1678.77
610.05	1670.73
610.40	1662.97
610.75	1654.73
611.10	1647.14
611.44	1638.66
611.79	1630.63
612.14	1621.90
612.49	1612.71
612.83	1604.29
613.18	1596.09
613.53	1587.96
613.88	1579.37
614.22	1570.93
614.57	1562.31
614.92	1554.24
615.27	1546.69
615.61	1538.46
615.96	1530.38
616.31	1522.81
616.65	1515.48
617.00	1507.88
617.35	1500.22
617.70	1491.91
618.04	1483.34
618.39	1475.00
618.74	1467.43
619.08	1459.18
619.43	1451.72
619.78	1444.78
620.12	1437.62
620.47	1430.23
620.82	1422.06
621.16	1414.72
621.51	1407.16
621.85	1399.66
622.20	1391.09
622.55	1382.68
622.89	1374.75
623.24	1367.16
623.59	1359.87
623.93	1352.25
624.28	1345.05
624.62	1337.45
624.97	1330.34
625.32	1323.60
625.66	1316.62
626.01	1309.31
626.35	1301.70
626.70	1293.95
627.04	1286.28
627.39	1278.43
627.73	1270.99
628.08	1264.03
628.43	1256.69
628.77	1249.24
629.12	1241.62
629.46	1234.58
629.81	1227.22
630.15	1220.06
630.50	1212.72
630.84	1204.45
631.19	1196.61
631.53	1189.17
631.88	1181.63
632.22	1174.07
632.57	1166.79
632.91	1159.25
633.26	1151.82
633.60	1144.59
633.95	1137.48
634.29	1130.49
634.64	1123.91
634.98	1116.55
635.32	1109.46
635.67	1102.87
636.01	1096.31
636.36	1089.53
636.70	1082.93
637.05	1076.27
637.39	1069.83
637.73	1063.30
638.08	1057.51
638.42	1051.52
638.77	1045.09
639.11	1038.49
639.45	1032.01
639.80	1025.34
640.14	1018.91
640.49	1012.42
640.83	1006.04
641.17	999.68
641.52	993.25
641.86	986.69
642.20	980.75
642.55	974.42
642.89	967.93
643.23	961.38
643.58	955.54
643.92	949.40
644.26	943.41
644.61	937.39
644.95	931.36
645.29	924.69
645.64	917.97
645.98	911.57
646.32	905.70
646.66	899.67
647.01	893.85
647.35	888.21
647.69	882.35
648.04	876.82
648.38	871.00
648.72	865.01
649.06	859.05
649.41	853.24
649.75	847.26
650.09	841.37
650.43	835.58
650.78	829.43
651.12	823.49
651.46	817.78
651.80	812.00
652.14	806.51
652.49	801.24
652.83	796.02
653.17	790.34
653.51	784.63
653.85	779.29
654.20	773.64
654.54	767.61
654.88	761.88
655.22	755.99
655.56	750.32
655.90	744.98
656.25	739.72
656.59	734.37
656.93	729.38
657.27	724.18
657.61	718.83
657.95	713.83
658.29	708.73
658.64	703.54
658.98	698.26
659.32	692.90
659.66	687.65
660.00	682.41
660.34	677.51
660.68	672.59
661.02	667.58
661.36	662.91
661.70	658.42
662.05	654.12
662.39	649.85
662.73	645.45
663.07	641.03
663.41	636.58
663.75	632.05
664.09	627.38
664.43	623.06
664.77	618.95
665.11	614.69
665.45	610.65
665.79	606.54
666.13	602.41
666.47	598.25
666.81	594.13
667.15	590.00
667.49	586.15
667.83	582.41
668.17	578.49
668.51	574.43
668.85	570.46
669.19	566.54
669.53	562.67
669.87	558.75
670.21	555.06
670.55	551.46
670.89	548.13
671.23	544.68
671.57	541.15
671.91	537.53
672.25	534.06
672.58	530.48
672.92	527.05
673.26	523.87
673.60	520.77
673.94	517.65
674.28	514.78
674.62	511.75
674.96	508.60
675.30	505.65
675.64	502.66
675.97	499.90
676.31	497.12
676.65	494.20
676.99	491.54
677.33	488.64
677.67	485.80
678.01	482.73
678.34	479.74
678.68	476.88
679.02	474.09
679.36	471.33
679.70	468.59
680.04	465.84
680.37	462.95
680.71	460.11
681.05	457.46
681.39	454.74
681.73	452.14
682.06	449.65
682.40	447.10
682.74	444.67
683.08	442.06
683.42	439.45
683.75	436.95
684.09	434.43
684.43	431.99
684.77	429.51
685.10	427.17
685.44	424.88
685.78	422.61
686.12	420.37
686.45	418.10
686.79	415.81
687.13	413.63
687.46	411.51
687.80	409.41
688.14	407.21
688.48	405.13
688.81	402.85
689.15	400.72
689.49	398.54
689.82	396.44
690.16	394.38
690.50	392.44
690.83	390.53
691.17	388.53
691.51	386.61
691.84	384.72
692.18	382.77
692.52	380.80
692.85	378.81
693.19	376.95
693.52	375.12
693.86	373.30
694.20	371.55
694.53	369.75
694.87	367.89
695.21	366.12
695.54	364.28
695.88	362.55
696.21	360.79
696.55	359.14
696.88	357.44
697.22	355.72
697.56	354.08
697.89	352.39
698.23	350.80
698.56	349.20
698.90	347.61
699.23	345.99
699.57	344.46
699.90	342.94
700.24	341.41
700.58	339.86
700.91	338.36
701.25	336.87
701.58	335.46
701.92	334.16
702.25	332.78
702.59	331.48
702.92	330.19
703.26	328.88
703.59	327.62
703.93	326.42
704.26	325.25
704.60	323.98
704.93	322.72
705.26	321.49
705.60	320.31
705.93	319.18
706.27	318.15
706.60	317.10
706.94	316.02
707.27	314.88
707.61	313.84
707.94	312.83
708.27	311.73
708.61	310.65
708.94	309.63
709.28	308.64
709.61	307.63
709.94	306.66
710.28	305.64
710.61	304.66
710.95	303.59
711.28	302.63
711.61	301.72
711.95	300.79
712.28	299.82
712.61	298.84
712.95	297.90
713.28	297.01
713.61	296.10
713.95	295.20
714.28	294.37
714.61	293.46
714.95	292.64
715.28	291.80
715.61	290.95
715.95	290.09
716.28	289.21
716.61	288.40
716.95	287.63
717.28	286.86
717.61	286.10
717.94	285.37
718.28	284.57
718.61	283.80
718.94	283.12
719.27	282.46
719.61	281.85
719.94	281.18
720.27	280.48
720.60	279.80
720.94	279.17
721.27	278.56
721.60	278.02
721.93	277.40
722.27	276.90
722.60	276.34
722.93	275.76
723.26	275.27
723.59	274.72
723.93	274.15
724.26	273.65
724.59	273.07
724.92	272.52
725.25	272.03
725.59	271.51
725.92	270.98
726.25	270.46
726.58	269.95
726.91	269.47
727.24	268.99
727.57	268.51
727.91	268.04
728.24	267.55
728.57	267.03
728.90	266.55
729.23	266.03
729.56	265.62
729.89	265.17
730.22	264.66
730.55	264.24
730.89	263.80
731.22	263.35
731.55	262.93
731.88	262.52
732.21	262.10
732.54	261.65
732.87	261.24
733.20	260.89
733.53	260.52
733.86	260.16
734.19	259.73
734.52	259.38
734.85	259.06
735.18	258.64
735.51	258.27
735.84	257.93
736.17	257.58
736.50	257.18
736.83	256.90
737.16	256.58
737.49	256.23
737.82	255.90
738.15	255.54
738.48	255.21
738.81	254.87
739.14	254.54
739.47	254.26
739.80	253.99
740.13	253.63
740.46	253.28
740.79	252.94
741.12	252.69
741.45	252.37
741.78	252.02
742.11	251.78
742.44	251.46
742.77	251.19
743.10	250.92
743.43	250.62
743.75	250.26
744.08	250.12
744.41	249.84
744.74	249.57
745.07	249.31
745.40	249.08
745.73	248.86
746.06	248.62
746.39	248.37
746.71	248.09
747.04	247.84
747.37	247.57
747.70	247.34
748.03	247.09
748.36	246.90
748.68	246.65
749.01	246.39
749.34	246.19
749.67	245.97
750.00	245.73
750.33	245.56
750.65	245.35
750.98	244.98
751.31	244.75
751.64	244.49
751.97	244.35
752.29	244.14
752.62	243.89
752.95	243.65
753.28	243.42
753.60	243.20
753.93	243.02
754.26	242.87
754.59	242.65
754.91	242.41
755.24	242.18
755.57	242.01
755.90	241.84
756.22	241.62
756.55	241.41
756.88	241.20
757.20	240.99
757.53	240.79
757.86	240.67
758.19	240.50
758.51	240.37
758.84	240.13
759.17	239.96
759.49	239.80
759.82	239.66
760.15	239.51
760.47	239.38
760.80	239.21
761.13	239.07
761.45	238.89
761.78	238.78
762.11	238.64
762.43	238.46
762.76	238.31
763.08	238.20
763.41	238.06
763.74	237.94
764.06	237.79
764.39	237.66
764.71	237.50
765.04	237.36
765.37	237.24
765.69	237.12
766.02	236.99
766.34	236.88
766.67	236.71
767.00	236.59
767.32	236.51
767.65	236.45
767.97	236.33
768.30	236.22
768.62	236.08
768.95	235.97
769.27	235.85
769.60	235.76
769.92	235.63
770.25	235.47
770.57	235.31
770.90	235.23
771.22	235.12
771.55	235.02
771.87	234.92
772.20	234.79
772.52	234.74
772.85	234.73
773.17	234.63
773.50	234.56
773.82	234.47
774.15	234.30
774.47	234.13
774.80	234.02
775.12	233.92
775.45	233.85
775.77	233.79
776.09	233.73
776.42	233.64
776.74	233.61
777.07	233.60
777.39	233.59
777.72	233.49
778.04	233.44
778.36	233.37
778.69	233.30
779.01	233.28
779.33	233.16
779.66	233.00
779.98	232.91
780.31	232.85
780.63	232.83
780.95	232.79
781.28	232.76
781.60	232.66
781.92	232.64
782.25	232.58
782.57	232.46
782.89	232.40
783.22	232.32
783.54	232.22
783.86	232.13
784.19	232.04
784.51	232.04
784.83	232.00
785.16	231.97
785.48	231.93
785.80	231.87
786.12	231.83
786.45	231.77
786.77	231.75
787.09	231.73
787.42	231.66
787.74	231.66
788.06	231.61
788.38	231.59
788.71	231.52
789.03	231.47
789.35	231.49
789.67	231.45
789.99	231.42
790.32	231.41
790.64	231.39
790.96	231.45
791.28	231.36
791.61	231.26
791.93	231.23
792.25	231.14
792.57	231.18
792.89	231.14
793.21	231.12
793.54	231.06
793.86	231.01
794.18	230.99
794.50	230.91
794.82	230.88
795.14	230.84
795.47	230.85
795.79	230.78
796.11	230.69
796.43	230.65
796.75	230.64
797.07	230.59
797.39	230.56
797.71	230.44
798.04	230.41
798.36	230.42
798.68	230.37
799.00	230.37
799.32	230.25
799.64	230.22
799.96	230.19
800.28	230.19
800.60	230.11
800.92	230.07
801.24	230.03
801.56	230.01
801.89	230.01
802.21	229.98
802.53	229.96
802.85	229.92
803.17	229.96
803.49	229.88
803.81	229.85
804.13	229.80
804.45	229.77
804.77	229.73
805.09	229.70
805.41	229.67
805.73	229.66
806.05	229.63
806.37	229.59
806.69	229.54
807.01	229.49
807.33	229.50
807.65	229.44
807.97	229.45
808.28	229.43
808.60	229.39
808.92	229.33
809.24	229.37
809.56	229.36
809.88	229.26
810.20	229.24
810.52	229.21
810.84	229.19
811.16	229.13
811.48	229.09
811.80	229.10
812.12	229.09
812.43	229.05
812.75	229.03
813.07	229.04
813.39	229.01
813.71	228.99
814.03	228.95
814.35	228.92
814.67	228.85
814.98	228.81
815.30	228.80
815.62	228.78
815.94	228.71
816.26	228.72
816.58	228.68
816.89	228.67
817.21	228.64
817.53	228.65
817.85	228.66
818.17	228.65
818.48	228.58
818.80	228.57
819.12	228.55
819.44	228.48
819.76	228.44
820.07	228.44
820.39	228.42
820.71	228.38
821.03	228.38
821.34	228.35
821.66	228.33
821.98	228.31
822.30	228.27
822.61	228.33
822.93	228.29
823.25	228.31
823.57	228.32
823.88	228.34
824.20	228.31
824.52	228.28
824.83	228.29
825.15	228.26
825.47	228.21
825.79	228.21
826.10	228.21
826.42	228.19
826.74	228.20
827.05	228.17
827.37	228.17
827.69	228.17
828.00	228.20
828.32	228.20
828.64	228.22
828.95	228.30
829.27	228.25
829.58	228.25
829.90	228.25
830.22	228.24
830.53	228.23
830.85	228.21
831.17	228.20
831.48	228.17
831.80	228.17
832.11	228.17
832.43	228.15
832.75	228.16
833.06	228.24
833.38	228.20
833.69	228.21
834.01	228.27
834.32	228.23
834.64	228.21
834.96	228.21
835.27	228.18
835.59	228.11
835.90	228.07
836.22	228.08
836.53	228.03
836.85	227.99
837.16	228.09
837.48	228.08
837.79	228.13
838.11	228.14
838.42	228.14
838.74	228.21
839.05	228.19
839.37	228.20
839.68	228.10
840.00	228.11
840.31	228.11
840.63	228.06
840.94	228.05
841.26	228.04
841.57	228.04
841.88	228.05
842.20	228.05
842.51	228.05
842.83	227.99
843.14	228.10
843.46	228.09
843.77	228.01
844.08	228.00
844.40	227.97
844.71	227.94
845.03	227.94
845.34	227.90
845.65	227.90
845.97	227.87
846.28	227.89
846.60	227.89
846.91	227.87
847.22	227.87
847.54	227.90
847.85	227.89
848.16	227.89
848.48	227.85
848.79	227.89
849.10	227.88
849.42	227.88
849.73	227.80
850.04	227.78
850.36	227.75
850.67	227.75
850.98	227.73
851.30	227.73
851.61	227.70
851.92	227.67
852.23	227.69
852.55	227.68
852.86	227.67
853.17	227.64
853.49	227.66
853.80	227.68
854.11	227.65
854.42	227.61
854.74	227.58
855.05	227.57
855.36	227.50
855.67	227.51
855.99	227.51
856.30	227.60
856.61	227.61
856.92	227.59
857.23	227.59
857.55	227.56
857.86	227.58
858.17	227.59
858.48	227.57
858.79	227.53
859.11	227.54
859.42	227.51
859.73	227.52
860.04	227.53
860.35	227.46
860.66	227.44
860.98	227.45
861.29	227.43
861.60	227.42
861.91	227.44
862.22	227.42
862.53	227.39
862.84	227.28
863.16	227.27
863.47	227.27
863.78	227.23
864.09	227.26
864.40	227.25
864.71	227.25
865.02	227.26
865.33	227.26
865.64	227.24
865.95	227.26
866.27	227.31
866.58	227.27
866.89	227.28
867.20	227.29
867.51	227.30
867.82	227.29
868.13	227.31
868.44	227.31
868.75	227.33
869.06	227.33
869.37	227.33
869.68	227.31
869.99	227.33
870.30	227.37
870.61	227.33
870.92	227.32
871.23	227.29
871.54	227.32
871.85	227.32
872.16	227.35
872.47	227.33
872.78	227.24
873.09	227.28
873.40	227.27
873.71	227.28
874.02	227.27
874.33	227.30
874.64	227.28
874.95	227.29
875.26	227.26
875.56	227.24
875.87	227.23
876.18	227.26
876.49	227.37
876.80	227.34
877.11	227.33
877.42	227.35
877.73	227.33
878.04	227.33
878.35	227.33
878.66	227.31
878.96	227.35
879.27	227.36
879.58	227.33
879.89	227.31
880.20	227.33
880.51	227.31
880.82	227.31
881.12	227.36
881.43	227.32
881.74	227.36
882.05	227.37
882.36	227.39
882.67	227.38
882.97	227.23
883.28	227.24
883.59	227.24
883.90	227.24
884.21	227.29
884.51	227.28
884.82	227.26
885.13	227.25
885.44	227.26
885.74	227.25
886.05	227.24
886.36	227.26
886.67	227.24
886.98	227.29
887.28	227.30
887.59	227.27
887.90	227.30
888.20	227.27
888.51	227.28
888.82	227.28
889.13	227.30
889.43	227.40
889.74	227.41
890.05	227.41
890.35	227.38
890.66	227.36
890.97	227.33
891.28	227.34
891.58	227.37
891.89	227.35
892.20	227.35
892.50	227.36
892.81	227.35
893.12	227.36
893.42	227.30
893.73	227.30
894.04	227.30
894.34	227.30
894.65	227.29
894.95	227.30
895.26	227.26
895.57	227.30
895.87	227.19
896.18	227.21
896.48	227.21
896.79	227.21
897.10	227.24
897.40	227.23
897.71	227.23
898.01	227.20
898.32	227.21
898.63	227.18
898.93	227.18
899.24	227.19
899.54	227.18
899.85	227.15
900.15	227.14
900.46	227.11
900.76	227.10
901.07	227.09
901.38	227.08
901.68	227.08
901.99	226.99
902.29	227.03
902.60	226.98
902.90	226.95
903.21	226.93
903.51	226.89
903.82	226.94
904.12	226.92
904.43	226.90
904.73	226.89
905.03	226.91
905.34	226.99
905.64	226.95
905.95	226.94
906.25	226.94
906.56	226.93
906.86	226.96
907.17	226.96
907.47	226.97
907.77	226.94
908.08	226.94
908.38	226.97
908.69	226.98
908.99	227.00
909.30	227.00
909.60	226.99
909.90	226.97
910.21	226.93
910.51	226.93
910.81	226.95
911.12	226.94
911.42	226.96
911.73	226.85
912.03	226.88
912.33	226.92
912.64	226.94
912.94	226.97
913.24	226.95
913.55	226.95
913.85	226.91
914.15	226.96
914.46	226.99
914.76	226.98
915.06	226.95
915.37	226.92
915.67	226.90
915.97	226.94
916.27	226.95
916.58	226.94
916.88	226.93
917.18	226.87
917.49	226.94
917.79	226.93
918.09	226.96
918.39	226.97
918.70	226.93
919.00	226.93
919.30	226.96
919.60	226.93
919.91	226.92
920.21	226.96
920.51	226.92
920.81	226.89
921.12	226.91
921.42	226.90
921.72	226.93
922.02	226.97
922.32	226.99
922.63	227.02
922.93	227.09
923.23	227.11
923.53	227.14
923.83	227.07
924.13	227.08
924.44	227.07
924.74	227.10
925.04	227.11
925.34	227.13
925.64	227.09
925.94	227.12
926.24	227.15
926.55	227.14
926.85	227.14
927.15	227.14
927.45	227.14
927.75	227.17
928.05	227.18
928.35	227.19
928.65	227.19
928.95	227.19
929.26	227.12
929.56	227.12
929.86	227.12
930.16	227.11
930.46	227.08
930.76	227.10
931.06	227.03
931.36	227.01
931.66	227.01
931.96	227.02
932.26	227.05
932.56	227.02
932.86	227.03
933.16	227.03
933.46	227.04
933.76	226.99
934.06	226.98
934.36	227.01
934.66	226.97
934.96	226.92
935.26	226.92
935.56	226.95
935.86	226.91
936.16	226.92
936.46	226.90
936.76	226.92
937.06	226.87
937.36	226.90
937.66	226.91
937.96	226.88
938.26	226.86
938.56	226.80
938.86	226.81
939.16	226.83
939.46	226.85
939.76	226.87
940.06	226.89
940.35	226.86
940.65	226.79
940.95	226.79
941.25	226.80
941.55	226.80
941.85	226.80
942.15	226.82
942.45	226.85
942.75	226.83
943.04	226.83
943.34	226.85
943.64	226.82
943.94	226.81
944.24	226.82
944.54	226.80
944.84	226.84
945.13	226.83
945.43	226.77
945.73	226.73
946.03	226.71
946.33	226.72
946.62	226.69
946.92	226.73
947.22	226.73
947.52	226.72
947.82	226.71
948.11	226.70
948.41	226.68
948.71	226.63
949.01	226.65
949.31	226.63
949.60	226.67
949.90	226.70
950.20	226.72
950.50	226.72
950.79	226.69
951.09	226.68
951.39	226.66
951.69	226.66
951.98	226.70
952.28	226.69
952.58	226.65
952.87	226.66
953.17	226.65
953.47	226.67
953.76	226.66
954.06	226.65
954.36	226.64
954.66	226.65
954.95	226.71
955.25	226.72
955.55	226.79
955.84	226.76
956.14	226.77
956.44	226.80
956.73	226.79
957.03	226.87
957.32	226.86
957.62	226.91
957.92	226.93
958.21	226.92
958.51	227.05
958.81	227.13
959.10	227.15
959.40	227.17
959.69	227.19
959.99	227.23
960.29	227.25
960.58	227.27
960.88	227.33
961.17	227.32
961.47	227.33
961.76	227.31
962.06	227.29
962.36	227.31
962.65	227.30
962.95	227.32
963.24	227.28
963.54	227.29
963.83	227.30
964.13	227.32
964.42	227.31
964.72	227.23
965.01	227.20
965.31	227.19
965.60	227.20
965.90	227.23
966.19	227.22
966.49	227.22
966.78	227.19
967.08	227.15
967.37	227.11
967.67	227.08
967.96	227.05
968.26	227.06
968.55	227.06
968.85	227.02
969.14	226.99
969.43	227.00
969.73	227.00
970.02	226.97
970.32	226.94
970.61	226.94
970.91	226.91
971.20	226.87
971.49	226.85
971.79	226.83
972.08	226.77
972.38	226.73
972.67	226.73
972.96	226.75
973.26	226.72
973.55	226.77
973.85	226.76
974.14	226.73
974.43	226.69
974.73	226.65
975.02	226.62
975.31	226.62
975.61	226.61
975.90	226.59
976.19	226.57
976.49	226.53
976.78	226.52
977.07	226.51
977.37	226.51
977.66	226.54
977.95	226.50
978.24	226.52
978.54	226.53
978.83	226.52
979.12	226.50
979.42	226.48
979.71	226.46
980.00	226.48
980.29	226.52
980.59	226.53
980.88	226.57
981.17	226.57
981.46	226.55
981.76	226.53
982.05	226.56
982.34	226.58
982.63	226.63
982.93	226.60
983.22	226.60
983.51	226.62
983.80	226.62
984.09	226.63
984.39	226.61
984.68	226.61
984.97	226.60
985.26	226.60
985.55	226.62
985.85	226.62
986.14	226.60
986.43	226.61
986.72	226.59
987.01	226.55
987.30	226.56
987.59	226.57
987.89	226.62
988.18	226.60
988.47	226.59
988.76	226.59
989.05	226.61
989.34	226.62
989.63	226.61
989.92	226.62
990.22	226.64
990.51	226.65
990.80	226.66
991.09	226.68
991.38	226.73
991.67	226.76
991.96	226.75
992.25	226.77
992.54	226.72
992.83	226.75
993.12	226.78
993.41	226.82
993.70	226.88
993.99	226.92
994.28	226.92
994.58	226.96
994.87	226.94
995.16	226.95
995.45	226.94
995.74	226.91
996.03	226.93
996.32	226.96
996.61	226.96
996.90	226.96
997.19	226.97
997.48	226.95
997.77	226.92
998.06	226.92
998.34	226.91
998.63	226.93
998.92	226.95
999.21	226.95
999.50	226.94
999.79	226.92
1000.08	226.86
1000.37	226.86
1000.66	226.83
1000.95	226.89
1001.24	226.89
1001.53	226.92
1001.82	226.94
1002.11	226.93
1002.40	226.92
1002.68	226.95
1002.97	227.01
1003.26	227.00
1003.55	226.99
1003.84	227.02
1004.13	227.05
1004.42	227.04
1004.71	227.01
1004.99	227.01
1005.28	227.03
1005.57	227.02
1005.86	227.00
1006.15	227.04
1006.44	227.03
1006.72	227.04
1007.01	226.98
1007.30	226.98
1007.59	226.98
1007.88	226.96
1008.17	226.94
1008.45	226.89
1008.74	226.85
1009.03	226.79
1009.32	226.78
1009.60	226.77
1009.89	226.76
1010.18	226.73
1010.47	226.72
1010.76	226.74
1011.04	226.75
1011.33	226.73
1011.62	226.73
1011.91	226.73
1012.19	226.71
1012.48	226.72
1012.77	226.71
1013.05	226.76
1013.34	226.76
1013.63	226.75
1013.92	226.77
1014.20	226.77
1014.49	226.82
1014.78	226.82
1015.06	226.79
1015.35	226.76
1015.64	226.79
1015.92	226.75
1016.21	226.73
1016.50	226.75
1016.78	226.76
1017.07	226.74
1017.36	226.69
1017.64	226.67
1017.93	226.68
1018.22	226.65
1018.50	226.64
1018.79	226.66
1019.08	226.64
1019.36	226.62
1019.65	226.62
1019.93	226.64
1020.22	226.65
1020.51	226.66
1020.79	226.66
1021.08	226.24
1021.36	226.77
1021.65	227.35
1021.94	226.81
1022.22	226.54
1022.51	226.95
1022.79	227.10
1023.08	226.66
1023.36	227.74
1023.65	226.22
>>>>>End Processed Spectral Data<<<<<
