SpectraSuite Data File
++++++++++++++++++++++++++++++++++++
Date: Fri Feb 01 15:22:05 EST 2013
User: group
Dark Spectrum Present: No
Reference Spectrum Present: No
Number of Sampled Component Spectra: 1
Spectrometers: USB2E7196
Integration Time (usec): 35000 (USB2E7196)
Spectra Averaged: 100 (USB2E7196)
Boxcar Smoothing: 10 (USB2E7196)
Correct for Electrical Dark: No (USB2E7196)
Strobe/Lamp Enabled: No (USB2E7196)
Correct for Detector Non-linearity: No (USB2E7196)
Correct for Stray Light: No (USB2E7196)
Number of Pixels in Processed Spectrum: 2048
>>>>>Begin Processed Spectral Data<<<<<
339.09	0.00
339.48	215.46
339.86	216.09
340.24	217.95
340.63	219.91
341.01	222.34
341.39	222.06
341.78	223.02
342.16	224.88
342.54	224.68
342.93	213.43
343.31	224.20
343.69	224.72
344.07	225.20
344.46	225.61
344.84	225.97
345.22	226.20
345.60	226.43
345.99	226.66
346.37	226.75
346.75	226.87
347.13	226.93
347.52	226.96
347.90	227.04
348.28	227.09
348.66	227.11
349.05	227.11
349.43	227.13
349.81	227.17
350.19	227.20
350.57	227.28
350.96	227.33
351.34	227.43
351.72	227.51
352.10	227.61
352.48	227.67
352.87	227.75
353.25	227.80
353.63	227.85
354.01	227.87
354.39	227.97
354.77	228.05
355.15	228.14
355.54	228.23
355.92	228.27
356.30	228.33
356.68	228.48
357.06	228.54
357.44	228.58
357.82	228.62
358.20	228.69
358.58	228.74
358.97	228.80
359.35	228.87
359.73	228.94
360.11	228.99
360.49	229.08
360.87	229.09
361.25	229.17
361.63	229.27
362.01	229.33
362.39	229.35
362.77	229.38
363.15	229.44
363.53	229.46
363.91	229.48
364.29	229.49
364.67	229.40
365.05	229.45
365.43	229.47
365.81	229.50
366.19	229.55
366.57	229.56
366.95	229.53
367.33	229.48
367.71	229.44
368.09	229.44
368.47	229.40
368.85	229.38
369.23	229.35
369.61	229.29
369.99	229.26
370.37	229.23
370.75	229.24
371.13	229.16
371.51	229.08
371.89	229.02
372.27	228.97
372.65	228.90
373.03	228.82
373.41	228.75
373.78	228.68
374.16	228.56
374.54	228.49
374.92	228.43
375.30	228.39
375.68	228.33
376.06	228.25
376.44	228.17
376.82	228.11
377.19	228.03
377.57	227.95
377.95	227.89
378.33	227.82
378.71	227.70
379.09	227.63
379.47	227.60
379.84	227.54
380.22	227.49
380.60	227.40
380.98	227.32
381.36	227.24
381.73	227.17
382.11	227.13
382.49	227.08
382.87	227.02
383.25	226.95
383.62	226.98
384.00	226.89
384.38	226.86
384.76	226.82
385.13	226.80
385.51	226.74
385.89	226.69
386.27	226.62
386.64	226.58
387.02	226.54
387.40	226.48
387.78	226.44
388.15	226.44
388.53	226.41
388.91	226.43
389.29	226.41
389.66	226.40
390.04	226.38
390.42	226.38
390.79	226.39
391.17	226.38
391.55	226.28
391.92	226.34
392.30	226.35
392.68	226.34
393.05	226.35
393.43	226.35
393.81	226.36
394.18	226.39
394.56	226.42
394.94	226.48
395.31	226.54
395.69	226.58
396.06	226.63
396.44	226.70
396.82	226.72
397.19	226.80
397.57	226.85
397.95	226.91
398.32	226.92
398.70	227.00
399.07	227.08
399.45	227.16
399.82	227.21
400.20	227.25
400.58	227.32
400.95	227.36
401.33	227.47
401.70	227.64
402.08	227.74
402.45	227.82
402.83	227.95
403.20	228.06
403.58	228.19
403.95	228.28
404.33	228.40
404.71	228.56
405.08	228.77
405.46	228.92
405.83	229.08
406.21	229.26
406.58	229.45
406.96	229.63
407.33	229.81
407.70	229.99
408.08	230.27
408.45	230.48
408.83	230.73
409.20	230.95
409.58	231.14
409.95	231.40
410.33	231.70
410.70	231.93
411.08	232.19
411.45	232.51
411.82	232.82
412.20	233.20
412.57	233.59
412.95	233.89
413.32	234.30
413.69	234.72
414.07	235.15
414.44	235.57
414.82	236.04
415.19	236.58
415.56	237.13
415.94	237.67
416.31	238.36
416.68	238.99
417.06	239.72
417.43	240.40
417.81	241.17
418.18	241.92
418.55	242.78
418.93	243.67
419.30	244.54
419.67	245.48
420.04	246.39
420.42	247.36
420.79	248.52
421.16	249.69
421.54	250.88
421.91	252.08
422.28	253.34
422.66	254.68
423.03	255.98
423.40	257.32
423.77	258.73
424.15	260.10
424.52	261.60
424.89	263.21
425.26	264.73
425.64	266.19
426.01	267.78
426.38	269.40
426.75	271.06
427.13	272.78
427.50	274.61
427.87	276.51
428.24	278.39
428.61	280.18
428.99	282.12
429.36	284.19
429.73	286.21
430.10	288.25
430.47	290.28
430.85	292.42
431.22	294.66
431.59	297.06
431.96	299.32
432.33	301.82
432.70	304.21
433.08	307.08
433.45	309.70
433.82	312.34
434.19	315.27
434.56	318.08
434.93	320.75
435.30	323.36
435.68	326.24
436.05	329.07
436.42	331.82
436.79	334.30
437.16	337.02
437.53	339.92
437.90	342.74
438.27	345.53
438.64	348.38
439.01	351.01
439.38	353.21
439.75	355.40
440.13	357.89
440.50	360.20
440.87	362.02
441.24	363.97
441.61	366.16
441.98	367.65
442.35	369.47
442.72	371.32
443.09	373.20
443.46	374.23
443.83	374.82
444.20	375.37
444.57	376.19
444.94	376.51
445.31	376.87
445.68	377.24
446.05	377.28
446.42	376.84
446.79	376.42
447.16	375.99
447.53	375.66
447.90	374.46
448.27	373.27
448.64	371.68
449.01	370.54
449.37	368.55
449.74	366.66
450.11	364.41
450.48	361.94
450.85	359.33
451.22	357.17
451.59	355.12
451.96	353.13
452.33	350.55
452.70	348.14
453.07	345.29
453.43	342.35
453.80	339.61
454.17	336.93
454.54	334.35
454.91	331.58
455.28	328.85
455.65	326.41
456.02	323.97
456.38	321.82
456.75	319.15
457.12	316.87
457.49	314.64
457.86	312.43
458.23	310.58
458.59	308.57
458.96	306.50
459.33	304.66
459.70	302.79
460.07	301.29
460.43	299.61
460.80	297.97
461.17	296.56
461.54	295.03
461.91	293.62
462.27	292.18
462.64	290.96
463.01	289.69
463.38	288.34
463.74	286.98
464.11	285.81
464.48	284.76
464.85	283.65
465.21	282.74
465.58	281.82
465.95	280.71
466.32	279.79
466.68	278.89
467.05	278.01
467.42	277.13
467.78	276.21
468.15	275.33
468.52	274.65
468.88	273.77
469.25	273.01
469.62	272.38
469.98	271.73
470.35	271.06
470.72	270.40
471.08	269.77
471.45	269.20
471.82	268.64
472.18	268.04
472.55	267.60
472.92	267.09
473.28	266.64
473.65	266.16
474.02	265.70
474.38	265.30
474.75	264.94
475.11	264.56
475.48	264.29
475.85	264.05
476.21	263.78
476.58	263.62
476.94	263.43
477.31	263.26
477.67	263.10
478.04	263.06
478.41	263.00
478.77	263.04
479.14	262.99
479.50	263.04
479.87	263.11
480.23	263.19
480.60	263.27
480.96	263.38
481.33	263.61
481.69	263.83
482.06	264.01
482.42	264.22
482.79	264.49
483.15	264.80
483.52	265.18
483.88	265.57
484.25	265.95
484.61	266.41
484.98	266.84
485.34	267.38
485.71	267.91
486.07	268.50
486.44	269.06
486.80	269.77
487.17	270.46
487.53	271.27
487.90	272.09
488.26	273.00
488.62	273.96
488.99	274.94
489.35	275.92
489.72	277.07
490.08	278.27
490.44	279.54
490.81	280.84
491.17	282.16
491.54	283.61
491.90	285.12
492.26	286.74
492.63	288.47
492.99	290.27
493.36	292.19
493.72	294.26
494.08	296.37
494.45	298.59
494.81	300.96
495.17	303.38
495.54	305.98
495.90	308.66
496.26	311.45
496.63	314.39
496.99	317.50
497.35	320.73
497.72	324.11
498.08	327.63
498.44	331.25
498.80	335.19
499.17	339.24
499.53	343.40
499.89	347.78
500.26	352.28
500.62	356.94
500.98	361.87
501.34	366.94
501.71	372.30
502.07	377.78
502.43	383.41
502.79	389.23
503.16	395.31
503.52	401.52
503.88	407.97
504.24	414.65
504.60	421.54
504.97	428.69
505.33	436.01
505.69	443.69
506.05	451.52
506.41	459.37
506.78	467.52
507.14	475.97
507.50	484.73
507.86	493.70
508.22	502.87
508.59	512.10
508.95	521.73
509.31	531.49
509.67	541.55
510.03	551.83
510.39	562.44
510.75	573.24
511.12	584.26
511.48	595.57
511.84	607.01
512.20	618.54
512.56	630.48
512.92	642.73
513.28	655.07
513.64	667.62
514.00	680.37
514.37	693.28
514.73	706.34
515.09	719.33
515.45	732.74
515.81	746.38
516.17	760.38
516.53	774.49
516.89	788.72
517.25	802.99
517.61	817.43
517.97	831.83
518.33	846.32
518.69	861.16
519.05	876.12
519.41	891.34
519.77	906.96
520.13	922.45
520.49	937.76
520.85	953.32
521.21	968.97
521.57	985.25
521.93	1001.19
522.29	1017.70
522.65	1034.00
523.01	1050.22
523.37	1066.28
523.73	1082.44
524.09	1098.59
524.45	1114.96
524.81	1131.57
525.17	1148.48
525.53	1165.53
525.89	1182.50
526.25	1199.36
526.61	1215.71
526.97	1232.51
527.33	1249.02
527.68	1265.71
528.04	1282.38
528.40	1298.95
528.76	1316.16
529.12	1332.78
529.48	1349.70
529.84	1365.79
530.20	1382.57
530.56	1399.66
530.91	1417.14
531.27	1434.10
531.63	1450.62
531.99	1467.26
532.35	1483.16
532.71	1499.10
533.07	1515.30
533.42	1531.13
533.78	1547.11
534.14	1563.53
534.50	1578.86
534.86	1594.77
535.21	1609.89
535.57	1625.86
535.93	1641.51
536.29	1656.36
536.65	1671.52
537.00	1686.34
537.36	1701.68
537.72	1716.27
538.08	1730.79
538.44	1744.72
538.79	1758.61
539.15	1772.44
539.51	1786.26
539.87	1800.84
540.22	1814.66
540.58	1828.73
540.94	1842.31
541.29	1855.37
541.65	1868.19
542.01	1881.59
542.37	1893.94
542.72	1906.57
543.08	1918.35
543.44	1930.79
543.79	1942.04
544.15	1953.12
544.51	1964.65
544.87	1975.70
545.22	1986.53
545.58	1996.82
545.94	2006.51
546.29	2016.36
546.65	2026.06
547.01	2035.31
547.36	2044.20
547.72	2052.78
548.07	2060.50
548.43	2068.66
548.79	2076.87
549.14	2084.46
549.50	2091.75
549.86	2099.64
550.21	2106.96
550.57	2114.25
550.92	2120.70
551.28	2127.86
551.64	2134.84
551.99	2141.48
552.35	2147.55
552.70	2153.66
553.06	2159.71
553.41	2166.20
553.77	2172.17
554.13	2178.41
554.48	2184.67
554.84	2189.93
555.19	2195.21
555.55	2200.43
555.90	2204.86
556.26	2209.67
556.61	2214.48
556.97	2218.68
557.32	2222.74
557.68	2226.79
558.03	2231.02
558.39	2234.88
558.74	2239.51
559.10	2243.44
559.45	2247.07
559.81	2251.53
560.16	2255.30
560.52	2258.48
560.87	2261.91
561.23	2264.45
561.58	2267.45
561.94	2269.84
562.29	2272.40
562.64	2274.95
563.00	2277.63
563.35	2281.02
563.71	2283.98
564.06	2286.97
564.42	2289.91
564.77	2292.44
565.12	2294.65
565.48	2296.38
565.83	2298.19
566.19	2299.27
566.54	2300.27
566.89	2301.41
567.25	2301.79
567.60	2303.25
567.96	2304.79
568.31	2305.59
568.66	2306.80
569.02	2307.16
569.37	2307.50
569.72	2308.07
570.08	2308.11
570.43	2307.83
570.78	2307.21
571.14	2305.77
571.49	2304.51
571.84	2304.09
572.20	2302.76
572.55	2301.63
572.90	2300.21
573.26	2298.66
573.61	2297.07
573.96	2295.09
574.31	2291.97
574.67	2288.86
575.02	2284.98
575.37	2281.65
575.72	2277.73
576.08	2274.39
576.43	2271.00
576.78	2267.23
577.13	2264.03
577.49	2261.01
577.84	2257.38
578.19	2253.60
578.54	2249.80
578.90	2245.41
579.25	2239.77
579.60	2234.63
579.95	2229.59
580.30	2224.37
580.66	2219.11
581.01	2214.01
581.36	2209.00
581.71	2204.68
582.06	2200.21
582.42	2195.78
582.77	2190.25
583.12	2185.45
583.47	2180.48
583.82	2175.38
584.17	2169.98
584.53	2164.46
584.88	2158.65
585.23	2152.92
585.58	2147.36
585.93	2141.77
586.28	2136.86
586.63	2131.65
586.98	2126.59
587.34	2121.86
587.69	2117.02
588.04	2111.53
588.39	2105.71
588.74	2099.24
589.09	2093.16
589.44	2086.34
589.79	2080.15
590.14	2074.53
590.49	2068.01
590.84	2061.61
591.19	2055.54
591.54	2049.03
591.89	2041.58
592.25	2034.81
592.60	2027.58
592.95	2019.88
593.30	2012.40
593.65	2004.69
594.00	1997.62
594.35	1990.35
594.70	1982.28
595.05	1974.91
595.40	1967.72
595.75	1960.26
596.10	1953.89
596.45	1946.83
596.80	1940.56
597.15	1933.90
597.50	1926.58
597.85	1920.19
598.19	1913.46
598.54	1906.42
598.89	1899.71
599.24	1893.64
599.59	1886.76
599.94	1880.48
600.29	1874.20
600.64	1867.78
600.99	1860.22
601.34	1853.33
601.69	1846.43
602.04	1839.45
602.39	1832.01
602.74	1825.07
603.08	1818.23
603.43	1811.47
603.78	1804.37
604.13	1797.18
604.48	1789.83
604.83	1783.07
605.18	1775.90
605.53	1767.85
605.87	1759.77
606.22	1752.57
606.57	1744.73
606.92	1737.40
607.27	1730.06
607.62	1723.11
607.96	1715.70
608.31	1709.15
608.66	1701.45
609.01	1693.77
609.36	1686.19
609.70	1678.15
610.05	1670.18
610.40	1662.43
610.75	1654.09
611.10	1646.42
611.44	1638.04
611.79	1630.09
612.14	1621.42
612.49	1612.35
612.83	1604.01
613.18	1595.85
613.53	1587.73
613.88	1579.21
614.22	1570.86
614.57	1562.38
614.92	1554.35
615.27	1546.74
615.61	1538.36
615.96	1530.46
616.31	1522.90
616.65	1515.47
617.00	1508.04
617.35	1500.30
617.70	1491.99
618.04	1483.45
618.39	1475.22
618.74	1467.59
619.08	1459.19
619.43	1451.58
619.78	1444.62
620.12	1437.42
620.47	1429.89
620.82	1421.73
621.16	1414.29
621.51	1406.80
621.85	1399.25
622.20	1390.65
622.55	1382.48
622.89	1374.75
623.24	1367.09
623.59	1359.66
623.93	1352.18
624.28	1344.88
624.62	1337.34
624.97	1330.16
625.32	1323.52
625.66	1316.42
626.01	1309.13
626.35	1301.72
626.70	1294.05
627.04	1286.26
627.39	1278.51
627.73	1271.06
628.08	1264.08
628.43	1256.66
628.77	1249.22
629.12	1241.58
629.46	1234.37
629.81	1226.80
630.15	1219.54
630.50	1212.20
630.84	1203.95
631.19	1196.11
631.53	1188.62
631.88	1181.14
632.22	1173.59
632.57	1166.24
632.91	1158.70
633.26	1151.27
633.60	1144.01
633.95	1136.94
634.29	1129.96
634.64	1123.24
634.98	1115.93
635.32	1108.81
635.67	1102.35
636.01	1095.69
636.36	1088.91
636.70	1082.45
637.05	1075.95
637.39	1069.55
637.73	1062.90
638.08	1057.13
638.42	1051.10
638.77	1044.60
639.11	1037.96
639.45	1031.57
639.80	1024.88
640.14	1018.48
640.49	1012.03
640.83	1005.65
641.17	999.31
641.52	992.92
641.86	986.57
642.20	980.68
642.55	974.48
642.89	967.87
643.23	961.32
643.58	955.52
643.92	949.29
644.26	943.18
644.61	937.12
644.95	931.21
645.29	924.56
645.64	917.76
645.98	911.51
646.32	905.70
646.66	899.72
647.01	894.00
647.35	888.27
647.69	882.39
648.04	876.89
648.38	871.14
648.72	865.18
649.06	859.13
649.41	853.25
649.75	847.22
650.09	841.38
650.43	835.60
650.78	829.40
651.12	823.56
651.46	817.80
651.80	812.02
652.14	806.62
652.49	801.23
652.83	796.15
653.17	790.39
653.51	784.72
653.85	779.28
654.20	773.54
654.54	767.61
654.88	761.96
655.22	756.10
655.56	750.44
655.90	745.03
656.25	739.72
656.59	734.41
656.93	729.32
657.27	724.16
657.61	718.80
657.95	713.76
658.29	708.63
658.64	703.42
658.98	698.20
659.32	692.74
659.66	687.52
660.00	682.16
660.34	677.27
660.68	672.35
661.02	667.34
661.36	662.71
661.70	658.15
662.05	653.73
662.39	649.42
662.73	644.92
663.07	640.56
663.41	636.18
663.75	631.62
664.09	627.07
664.43	622.73
664.77	618.61
665.11	614.36
665.45	610.26
665.79	606.20
666.13	602.06
666.47	597.97
666.81	593.79
667.15	589.67
667.49	585.81
667.83	582.03
668.17	578.09
668.51	573.98
668.85	570.00
669.19	566.17
669.53	562.27
669.87	558.41
670.21	554.67
670.55	551.02
670.89	547.65
671.23	544.20
671.57	540.66
671.91	537.10
672.25	533.64
672.58	530.11
672.92	526.74
673.26	523.58
673.60	520.46
673.94	517.38
674.28	514.50
674.62	511.53
674.96	508.39
675.30	505.44
675.64	502.51
675.97	499.72
676.31	496.84
676.65	493.92
676.99	491.19
677.33	488.34
677.67	485.53
678.01	482.41
678.34	479.44
678.68	476.55
679.02	473.73
679.36	470.94
679.70	468.19
680.04	465.41
680.37	462.50
680.71	459.73
681.05	457.15
681.39	454.39
681.73	451.66
682.06	449.19
682.40	446.66
682.74	444.14
683.08	441.62
683.42	439.03
683.75	436.55
684.09	434.03
684.43	431.63
684.77	429.23
685.10	426.96
685.44	424.69
685.78	422.44
686.12	420.21
686.45	417.98
686.79	415.74
687.13	413.55
687.46	411.45
687.80	409.27
688.14	407.07
688.48	405.06
688.81	402.84
689.15	400.66
689.49	398.54
689.82	396.50
690.16	394.44
690.50	392.53
690.83	390.59
691.17	388.63
691.51	386.72
691.84	384.86
692.18	382.88
692.52	380.90
692.85	378.99
693.19	377.11
693.52	375.29
693.86	373.50
694.20	371.71
694.53	369.85
694.87	368.03
695.21	366.22
695.54	364.38
695.88	362.74
696.21	361.01
696.55	359.37
696.88	357.67
697.22	356.04
697.56	354.44
697.89	352.78
698.23	351.20
698.56	349.58
698.90	347.97
699.23	346.35
699.57	344.82
699.90	343.25
700.24	341.73
700.58	340.19
700.91	338.62
701.25	337.19
701.58	335.88
701.92	334.54
702.25	333.17
702.59	331.83
702.92	330.46
703.26	329.13
703.59	327.83
703.93	326.60
704.26	325.33
704.60	324.01
704.93	322.73
705.26	321.45
705.60	320.30
705.93	319.14
706.27	318.10
706.60	317.04
706.94	316.01
707.27	314.87
707.61	313.82
707.94	312.81
708.27	311.72
708.61	310.60
708.94	309.61
709.28	308.64
709.61	307.68
709.94	306.77
710.28	305.77
710.61	304.81
710.95	303.80
711.28	302.85
711.61	301.89
711.95	301.03
712.28	300.10
712.61	299.09
712.95	298.19
713.28	297.31
713.61	296.43
713.95	295.54
714.28	294.69
714.61	293.84
714.95	293.02
715.28	292.19
715.61	291.37
715.95	290.50
716.28	289.64
716.61	288.81
716.95	287.99
717.28	287.23
717.61	286.47
717.94	285.71
718.28	284.95
718.61	284.25
718.94	283.53
719.27	282.88
719.61	282.25
719.94	281.56
720.27	280.87
720.60	280.19
720.94	279.54
721.27	278.92
721.60	278.33
721.93	277.70
722.27	277.15
722.60	276.58
722.93	275.99
723.26	275.47
723.59	274.94
723.93	274.39
724.26	273.86
724.59	273.29
724.92	272.79
725.25	272.31
725.59	271.75
725.92	271.28
726.25	270.73
726.58	270.23
726.91	269.72
727.24	269.23
727.57	268.77
727.91	268.30
728.24	267.83
728.57	267.36
728.90	266.93
729.23	266.44
729.56	266.03
729.89	265.57
730.22	265.10
730.55	264.58
730.89	264.15
731.22	263.70
731.55	263.24
731.88	262.80
732.21	262.37
732.54	262.00
732.87	261.57
733.20	261.18
733.53	260.80
733.86	260.47
734.19	260.09
734.52	259.68
734.85	259.35
735.18	258.97
735.51	258.58
735.84	258.20
736.17	257.86
736.50	257.43
736.83	257.21
737.16	256.85
737.49	256.53
737.82	256.20
738.15	255.89
738.48	255.56
738.81	255.24
739.14	254.91
739.47	254.54
739.80	254.22
740.13	253.94
740.46	253.55
740.79	253.20
741.12	252.89
741.45	252.58
741.78	252.23
742.11	251.96
742.44	251.61
742.77	251.33
743.10	251.01
743.43	250.69
743.75	250.31
744.08	250.18
744.41	249.93
744.74	249.62
745.07	249.31
745.40	249.07
745.73	248.86
746.06	248.55
746.39	248.33
746.71	248.05
747.04	247.75
747.37	247.53
747.70	247.29
748.03	247.06
748.36	246.87
748.68	246.64
749.01	246.35
749.34	246.15
749.67	245.91
750.00	245.70
750.33	245.57
750.65	245.33
750.98	244.96
751.31	244.73
751.64	244.53
751.97	244.37
752.29	244.14
752.62	243.88
752.95	243.66
753.28	243.45
753.60	243.24
753.93	243.11
754.26	242.96
754.59	242.75
754.91	242.52
755.24	242.31
755.57	242.10
755.90	241.97
756.22	241.81
756.55	241.62
756.88	241.41
757.20	241.18
757.53	240.99
757.86	240.82
758.19	240.67
758.51	240.54
758.84	240.34
759.17	240.19
759.49	240.05
759.82	239.96
760.15	239.79
760.47	239.65
760.80	239.45
761.13	239.30
761.45	239.12
761.78	238.97
762.11	238.84
762.43	238.69
762.76	238.54
763.08	238.40
763.41	238.27
763.74	238.16
764.06	238.03
764.39	237.93
764.71	237.80
765.04	237.63
765.37	237.47
765.69	237.36
766.02	237.22
766.34	237.10
766.67	236.91
767.00	236.81
767.32	236.74
767.65	236.71
767.97	236.59
768.30	236.47
768.62	236.37
768.95	236.22
769.27	236.10
769.60	235.99
769.92	235.87
770.25	235.75
770.57	235.65
770.90	235.55
771.22	235.42
771.55	235.33
771.87	235.28
772.20	235.17
772.52	235.13
772.85	235.15
773.17	235.04
773.50	234.95
773.82	234.85
774.15	234.70
774.47	234.54
774.80	234.44
775.12	234.39
775.45	234.34
775.77	234.24
776.09	234.19
776.42	234.10
776.74	234.04
777.07	233.96
777.39	233.88
777.72	233.79
778.04	233.74
778.36	233.66
778.69	233.60
779.01	233.54
779.33	233.41
779.66	233.24
779.98	233.17
780.31	233.12
780.63	233.11
780.95	233.10
781.28	233.03
781.60	232.95
781.92	232.88
782.25	232.81
782.57	232.76
782.89	232.69
783.22	232.62
783.54	232.55
783.86	232.49
784.19	232.43
784.51	232.40
784.83	232.32
785.16	232.27
785.48	232.19
785.80	232.11
786.12	232.06
786.45	232.01
786.77	231.95
787.09	231.88
787.42	231.79
787.74	231.70
788.06	231.66
788.38	231.62
788.71	231.56
789.03	231.50
789.35	231.48
789.67	231.43
789.99	231.40
790.32	231.36
790.64	231.33
790.96	231.31
791.28	231.23
791.61	231.20
791.93	231.17
792.25	231.11
792.57	231.17
792.89	231.12
793.21	231.10
793.54	231.06
793.86	231.00
794.18	230.97
794.50	230.93
794.82	230.91
795.14	230.92
795.47	230.92
795.79	230.89
796.11	230.83
796.43	230.82
796.75	230.79
797.07	230.75
797.39	230.73
797.71	230.66
798.04	230.64
798.36	230.60
798.68	230.60
799.00	230.60
799.32	230.53
799.64	230.52
799.96	230.47
800.28	230.47
800.60	230.44
800.92	230.45
801.24	230.44
801.56	230.41
801.89	230.34
802.21	230.32
802.53	230.28
802.85	230.28
803.17	230.26
803.49	230.24
803.81	230.23
804.13	230.22
804.45	230.16
804.77	230.17
805.09	230.16
805.41	230.10
805.73	230.03
806.05	230.02
806.37	229.98
806.69	229.95
807.01	229.92
807.33	229.94
807.65	229.85
807.97	229.86
808.28	229.81
808.60	229.79
808.92	229.73
809.24	229.75
809.56	229.74
809.88	229.68
810.20	229.63
810.52	229.62
810.84	229.58
811.16	229.57
811.48	229.53
811.80	229.53
812.12	229.51
812.43	229.52
812.75	229.47
813.07	229.46
813.39	229.46
813.71	229.42
814.03	229.39
814.35	229.38
814.67	229.32
814.98	229.32
815.30	229.27
815.62	229.23
815.94	229.15
816.26	229.16
816.58	229.12
816.89	229.11
817.21	229.07
817.53	229.02
817.85	229.02
818.17	228.99
818.48	228.92
818.80	228.91
819.12	228.87
819.44	228.83
819.76	228.77
820.07	228.73
820.39	228.72
820.71	228.66
821.03	228.63
821.34	228.60
821.66	228.59
821.98	228.60
822.30	228.60
822.61	228.62
822.93	228.52
823.25	228.51
823.57	228.47
823.88	228.46
824.20	228.43
824.52	228.42
824.83	228.37
825.15	228.36
825.47	228.33
825.79	228.33
826.10	228.30
826.42	228.30
826.74	228.30
827.05	228.27
827.37	228.27
827.69	228.27
828.00	228.26
828.32	228.26
828.64	228.23
828.95	228.24
829.27	228.27
829.58	228.26
829.90	228.27
830.22	228.27
830.53	228.26
830.85	228.27
831.17	228.24
831.48	228.23
831.80	228.26
832.11	228.25
832.43	228.20
832.75	228.20
833.06	228.25
833.38	228.21
833.69	228.24
834.01	228.26
834.32	228.26
834.64	228.26
834.96	228.25
835.27	228.25
835.59	228.22
835.90	228.18
836.22	228.20
836.53	228.20
836.85	228.19
837.16	228.29
837.48	228.29
837.79	228.33
838.11	228.34
838.42	228.30
838.74	228.30
839.05	228.32
839.37	228.32
839.68	228.29
840.00	228.29
840.31	228.28
840.63	228.27
840.94	228.25
841.26	228.23
841.57	228.22
841.88	228.24
842.20	228.27
842.51	228.22
842.83	228.21
843.14	228.29
843.46	228.30
843.77	228.23
844.08	228.24
844.40	228.20
844.71	228.22
845.03	228.20
845.34	228.23
845.65	228.21
845.97	228.25
846.28	228.20
846.60	228.22
846.91	228.20
847.22	228.17
847.54	228.16
847.85	228.17
848.16	228.14
848.48	228.14
848.79	228.12
849.10	228.14
849.42	228.15
849.73	228.04
850.04	228.02
850.36	227.97
850.67	228.00
850.98	227.97
851.30	227.93
851.61	227.94
851.92	227.90
852.23	227.93
852.55	227.91
852.86	227.94
853.17	227.92
853.49	227.93
853.80	227.96
854.11	227.93
854.42	227.92
854.74	227.91
855.05	227.85
855.36	227.82
855.67	227.78
855.99	227.75
856.30	227.86
856.61	227.86
856.92	227.88
857.23	227.83
857.55	227.80
857.86	227.78
858.17	227.73
858.48	227.69
858.79	227.63
859.11	227.63
859.42	227.60
859.73	227.59
860.04	227.58
860.35	227.49
860.66	227.47
860.98	227.46
861.29	227.41
861.60	227.40
861.91	227.43
862.22	227.44
862.53	227.41
862.84	227.26
863.16	227.25
863.47	227.19
863.78	227.17
864.09	227.13
864.40	227.15
864.71	227.16
865.02	227.19
865.33	227.15
865.64	227.11
865.95	227.09
866.27	227.11
866.58	227.08
866.89	227.11
867.20	227.10
867.51	227.07
867.82	227.09
868.13	227.11
868.44	227.06
868.75	227.09
869.06	227.09
869.37	227.09
869.68	227.08
869.99	227.07
870.30	227.10
870.61	227.11
870.92	227.09
871.23	227.08
871.54	227.09
871.85	227.16
872.16	227.17
872.47	227.14
872.78	227.13
873.09	227.16
873.40	227.16
873.71	227.19
874.02	227.25
874.33	227.28
874.64	227.27
874.95	227.28
875.26	227.25
875.56	227.28
875.87	227.28
876.18	227.27
876.49	227.41
876.80	227.40
877.11	227.44
877.42	227.46
877.73	227.50
878.04	227.48
878.35	227.47
878.66	227.49
878.96	227.55
879.27	227.55
879.58	227.51
879.89	227.52
880.20	227.52
880.51	227.49
880.82	227.47
881.12	227.52
881.43	227.52
881.74	227.50
882.05	227.53
882.36	227.54
882.67	227.58
882.97	227.45
883.28	227.44
883.59	227.44
883.90	227.47
884.21	227.47
884.51	227.45
884.82	227.41
885.13	227.42
885.44	227.38
885.74	227.38
886.05	227.41
886.36	227.43
886.67	227.39
886.98	227.44
887.28	227.43
887.59	227.40
887.90	227.40
888.20	227.39
888.51	227.37
888.82	227.38
889.13	227.40
889.43	227.47
889.74	227.48
890.05	227.44
890.35	227.40
890.66	227.38
890.97	227.40
891.28	227.39
891.58	227.34
891.89	227.31
892.20	227.32
892.50	227.28
892.81	227.24
893.12	227.23
893.42	227.20
893.73	227.24
894.04	227.23
894.34	227.24
894.65	227.24
894.95	227.19
895.26	227.16
895.57	227.14
895.87	227.03
896.18	227.02
896.48	227.05
896.79	227.08
897.10	227.07
897.40	227.05
897.71	227.08
898.01	227.08
898.32	227.09
898.63	227.04
898.93	227.01
899.24	227.02
899.54	227.02
899.85	226.97
900.15	226.95
900.46	226.93
900.76	226.91
901.07	226.91
901.38	226.90
901.68	226.94
901.99	226.93
902.29	226.98
902.60	226.96
902.90	226.92
903.21	226.90
903.51	226.87
903.82	226.91
904.12	226.92
904.43	226.94
904.73	226.96
905.03	226.96
905.34	227.09
905.64	227.10
905.95	227.14
906.25	227.13
906.56	227.15
906.86	227.16
907.17	227.17
907.47	227.17
907.77	227.20
908.08	227.15
908.38	227.13
908.69	227.14
908.99	227.18
909.30	227.18
909.60	227.18
909.90	227.21
910.21	227.18
910.51	227.14
910.81	227.15
911.12	227.18
911.42	227.20
911.73	227.11
912.03	227.12
912.33	227.12
912.64	227.12
912.94	227.10
913.24	227.09
913.55	227.10
913.85	227.11
914.15	227.13
914.46	227.17
914.76	227.22
915.06	227.19
915.37	227.16
915.67	227.19
915.97	227.19
916.27	227.21
916.58	227.22
916.88	227.25
917.18	227.27
917.49	227.33
917.79	227.33
918.09	227.34
918.39	227.37
918.70	227.36
919.00	227.40
919.30	227.44
919.60	227.44
919.91	227.42
920.21	227.45
920.51	227.41
920.81	227.43
921.12	227.43
921.42	227.47
921.72	227.51
922.02	227.52
922.32	227.51
922.63	227.51
922.93	227.58
923.23	227.56
923.53	227.53
923.83	227.44
924.13	227.46
924.44	227.48
924.74	227.50
925.04	227.52
925.34	227.49
925.64	227.44
925.94	227.45
926.24	227.51
926.55	227.46
926.85	227.47
927.15	227.42
927.45	227.39
927.75	227.39
928.05	227.36
928.35	227.34
928.65	227.35
928.95	227.34
929.26	227.27
929.56	227.27
929.86	227.28
930.16	227.27
930.46	227.24
930.76	227.22
931.06	227.19
931.36	227.13
931.66	227.18
931.96	227.19
932.26	227.17
932.56	227.12
932.86	227.14
933.16	227.17
933.46	227.16
933.76	227.16
934.06	227.15
934.36	227.18
934.66	227.17
934.96	227.13
935.26	227.12
935.56	227.13
935.86	227.09
936.16	227.09
936.46	227.07
936.76	227.08
937.06	227.04
937.36	227.00
937.66	227.03
937.96	226.98
938.26	226.95
938.56	226.92
938.86	226.95
939.16	226.93
939.46	226.89
939.76	226.89
940.06	226.85
940.35	226.82
940.65	226.74
940.95	226.75
941.25	226.74
941.55	226.76
941.85	226.76
942.15	226.79
942.45	226.79
942.75	226.80
943.04	226.78
943.34	226.83
943.64	226.83
943.94	226.79
944.24	226.79
944.54	226.82
944.84	226.84
945.13	226.80
945.43	226.80
945.73	226.80
946.03	226.82
946.33	226.84
946.62	226.82
946.92	226.87
947.22	226.88
947.52	226.88
947.82	226.89
948.11	226.86
948.41	226.87
948.71	226.85
949.01	226.89
949.31	226.91
949.60	226.90
949.90	226.94
950.20	226.99
950.50	226.97
950.79	226.95
951.09	226.97
951.39	226.96
951.69	226.95
951.98	226.98
952.28	227.01
952.58	226.99
952.87	227.02
953.17	227.02
953.47	227.03
953.76	227.07
954.06	227.05
954.36	227.06
954.66	227.10
954.95	227.08
955.25	227.07
955.55	227.09
955.84	227.11
956.14	227.12
956.44	227.11
956.73	227.12
957.03	227.13
957.32	227.17
957.62	227.20
957.92	227.23
958.21	227.21
958.51	227.29
958.81	227.34
959.10	227.36
959.40	227.35
959.69	227.37
959.99	227.36
960.29	227.37
960.58	227.36
960.88	227.39
961.17	227.42
961.47	227.43
961.76	227.45
962.06	227.43
962.36	227.40
962.65	227.39
962.95	227.44
963.24	227.44
963.54	227.45
963.83	227.44
964.13	227.43
964.42	227.42
964.72	227.35
965.01	227.34
965.31	227.31
965.60	227.32
965.90	227.35
966.19	227.32
966.49	227.33
966.78	227.31
967.08	227.25
967.37	227.24
967.67	227.21
967.96	227.20
968.26	227.18
968.55	227.20
968.85	227.22
969.14	227.16
969.43	227.15
969.73	227.10
970.02	227.09
970.32	227.09
970.61	227.05
970.91	227.02
971.20	226.99
971.49	226.98
971.79	226.98
972.08	226.90
972.38	226.91
972.67	226.86
972.96	226.91
973.26	226.89
973.55	226.92
973.85	226.88
974.14	226.85
974.43	226.83
974.73	226.78
975.02	226.77
975.31	226.81
975.61	226.78
975.90	226.78
976.19	226.74
976.49	226.72
976.78	226.75
977.07	226.75
977.37	226.73
977.66	226.76
977.95	226.74
978.24	226.75
978.54	226.78
978.83	226.79
979.12	226.77
979.42	226.77
979.71	226.72
980.00	226.76
980.29	226.76
980.59	226.74
980.88	226.78
981.17	226.78
981.46	226.75
981.76	226.77
982.05	226.83
982.34	226.87
982.63	226.91
982.93	226.90
983.22	226.91
983.51	226.93
983.80	226.97
984.09	226.99
984.39	227.01
984.68	227.00
984.97	227.02
985.26	226.99
985.55	227.03
985.85	227.05
986.14	227.06
986.43	227.09
986.72	227.14
987.01	227.11
987.30	227.11
987.59	227.10
987.89	227.11
988.18	227.04
988.47	227.02
988.76	227.02
989.05	227.00
989.34	227.01
989.63	227.05
989.92	227.00
990.22	227.00
990.51	226.98
990.80	226.95
991.09	226.94
991.38	226.98
991.67	226.95
991.96	226.95
992.25	226.95
992.54	226.96
992.83	226.96
993.12	226.99
993.41	227.02
993.70	227.10
993.99	227.09
994.28	227.16
994.58	227.20
994.87	227.20
995.16	227.22
995.45	227.23
995.74	227.20
996.03	227.24
996.32	227.27
996.61	227.30
996.90	227.32
997.19	227.31
997.48	227.31
997.77	227.32
998.06	227.32
998.34	227.32
998.63	227.31
998.92	227.29
999.21	227.27
999.50	227.25
999.79	227.17
1000.08	227.19
1000.37	227.16
1000.66	227.12
1000.95	227.14
1001.24	227.13
1001.53	227.12
1001.82	227.12
1002.11	227.09
1002.40	227.10
1002.68	227.11
1002.97	227.18
1003.26	227.18
1003.55	227.17
1003.84	227.22
1004.13	227.24
1004.42	227.24
1004.71	227.25
1004.99	227.24
1005.28	227.27
1005.57	227.28
1005.86	227.30
1006.15	227.28
1006.44	227.25
1006.72	227.27
1007.01	227.24
1007.30	227.24
1007.59	227.22
1007.88	227.21
1008.17	227.20
1008.45	227.16
1008.74	227.10
1009.03	227.05
1009.32	227.05
1009.60	227.04
1009.89	226.98
1010.18	226.92
1010.47	226.89
1010.76	226.85
1011.04	226.84
1011.33	226.83
1011.62	226.80
1011.91	226.81
1012.19	226.79
1012.48	226.82
1012.77	226.81
1013.05	226.84
1013.34	226.86
1013.63	226.81
1013.92	226.81
1014.20	226.83
1014.49	226.85
1014.78	226.88
1015.06	226.83
1015.35	226.78
1015.64	226.77
1015.92	226.80
1016.21	226.81
1016.50	226.82
1016.78	226.86
1017.07	226.87
1017.36	226.84
1017.64	226.85
1017.93	226.86
1018.22	226.86
1018.50	226.84
1018.79	226.85
1019.08	226.82
1019.36	226.82
1019.65	226.81
1019.93	226.84
1020.22	226.85
1020.51	226.87
1020.79	226.85
1021.08	226.64
1021.36	226.56
1021.65	227.11
1021.94	227.12
1022.22	227.00
1022.51	226.02
1022.79	227.38
1023.08	227.24
1023.36	227.81
1023.65	226.61
>>>>>End Processed Spectral Data<<<<<
