SpectraSuite Data File
++++++++++++++++++++++++++++++++++++
Date: Fri Feb 01 18:02:12 EST 2013
User: group
Dark Spectrum Present: No
Reference Spectrum Present: No
Number of Sampled Component Spectra: 1
Spectrometers: USB2E7196
Integration Time (usec): 35000 (USB2E7196)
Spectra Averaged: 100 (USB2E7196)
Boxcar Smoothing: 10 (USB2E7196)
Correct for Electrical Dark: No (USB2E7196)
Strobe/Lamp Enabled: No (USB2E7196)
Correct for Detector Non-linearity: No (USB2E7196)
Correct for Stray Light: No (USB2E7196)
Number of Pixels in Processed Spectrum: 2048
>>>>>Begin Processed Spectral Data<<<<<
339.09	0.00
339.48	212.86
339.86	214.45
340.24	216.72
340.63	217.10
341.01	220.27
341.39	220.29
341.78	221.28
342.16	222.35
342.54	222.43
342.93	211.53
343.31	222.23
343.69	222.77
344.07	223.22
344.46	223.61
344.84	223.98
345.22	224.23
345.60	224.45
345.99	224.67
346.37	224.80
346.75	224.91
347.13	224.99
347.52	225.04
347.90	225.16
348.28	225.16
348.66	225.21
349.05	225.22
349.43	225.24
349.81	225.27
350.19	225.31
350.57	225.34
350.96	225.42
351.34	225.47
351.72	225.57
352.10	225.67
352.48	225.71
352.87	225.78
353.25	225.81
353.63	225.89
354.01	225.93
354.39	226.00
354.77	226.08
355.15	226.14
355.54	226.20
355.92	226.22
356.30	226.30
356.68	226.42
357.06	226.50
357.44	226.55
357.82	226.60
358.20	226.66
358.58	226.73
358.97	226.76
359.35	226.81
359.73	226.86
360.11	226.88
360.49	226.96
360.87	227.03
361.25	227.09
361.63	227.15
362.01	227.15
362.39	227.19
362.77	227.24
363.15	227.27
363.53	227.29
363.91	227.31
364.29	227.34
364.67	227.24
365.05	227.25
365.43	227.27
365.81	227.28
366.19	227.32
366.57	227.37
366.95	227.40
367.33	227.39
367.71	227.39
368.09	227.45
368.47	227.45
368.85	227.41
369.23	227.40
369.61	227.38
369.99	227.41
370.37	227.38
370.75	227.40
371.13	227.33
371.51	227.29
371.89	227.28
372.27	227.25
372.65	227.24
373.03	227.21
373.41	227.15
373.78	227.11
374.16	227.06
374.54	226.96
374.92	226.90
375.30	226.87
375.68	226.81
376.06	226.73
376.44	226.63
376.82	226.62
377.19	226.58
377.57	226.50
377.95	226.40
378.33	226.37
378.71	226.24
379.09	226.21
379.47	226.16
379.84	226.09
380.22	226.03
380.60	225.97
380.98	225.89
381.36	225.88
381.73	225.85
382.11	225.77
382.49	225.75
382.87	225.65
383.25	225.57
383.62	225.64
384.00	225.61
384.38	225.56
384.76	225.50
385.13	225.51
385.51	225.48
385.89	225.42
386.27	225.37
386.64	225.35
387.02	225.32
387.40	225.29
387.78	225.26
388.15	225.23
388.53	225.21
388.91	225.19
389.29	225.11
389.66	225.09
390.04	225.07
390.42	225.03
390.79	225.06
391.17	225.05
391.55	224.89
391.92	224.86
392.30	224.87
392.68	224.80
393.05	224.75
393.43	224.77
393.81	224.77
394.18	224.79
394.56	224.78
394.94	224.81
395.31	224.82
395.69	224.82
396.06	224.88
396.44	224.89
396.82	224.89
397.19	224.98
397.57	225.00
397.95	225.05
398.32	225.09
398.70	225.15
399.07	225.22
399.45	225.29
399.82	225.37
400.20	225.41
400.58	225.50
400.95	225.56
401.33	225.64
401.70	225.80
402.08	225.86
402.45	225.97
402.83	226.08
403.20	226.17
403.58	226.24
403.95	226.33
404.33	226.45
404.71	226.60
405.08	226.79
405.46	226.93
405.83	227.08
406.21	227.26
406.58	227.42
406.96	227.59
407.33	227.80
407.70	228.02
408.08	228.35
408.45	228.62
408.83	228.89
409.20	229.17
409.58	229.41
409.95	229.72
410.33	230.07
410.70	230.37
411.08	230.75
411.45	231.19
411.82	231.58
412.20	232.08
412.57	232.60
412.95	233.01
413.32	233.53
413.69	234.08
414.07	234.64
414.44	235.26
414.82	235.91
415.19	236.63
415.56	237.35
415.94	238.06
416.31	238.88
416.68	239.73
417.06	240.66
417.43	241.56
417.81	242.59
418.18	243.65
418.55	244.75
418.93	245.93
419.30	247.15
419.67	248.41
420.04	249.67
420.42	251.05
420.79	252.61
421.16	254.16
421.54	255.71
421.91	257.36
422.28	259.07
422.66	260.87
423.03	262.63
423.40	264.43
423.77	266.40
424.15	268.34
424.52	270.36
424.89	272.55
425.26	274.69
425.64	276.66
426.01	278.79
426.38	281.07
426.75	283.33
427.13	285.67
427.50	288.11
427.87	290.64
428.24	293.15
428.61	295.58
428.99	298.20
429.36	301.11
429.73	303.88
430.10	306.66
430.47	309.48
430.85	312.36
431.22	315.38
431.59	318.54
431.96	321.63
432.33	324.95
432.70	328.17
433.08	332.00
433.45	335.55
433.82	339.11
434.19	343.02
434.56	346.82
434.93	350.40
435.30	353.99
435.68	357.94
436.05	361.78
436.42	365.56
436.79	368.98
437.16	372.63
437.53	376.45
437.90	380.29
438.27	383.98
438.64	387.79
439.01	391.30
439.38	394.40
439.75	397.30
440.13	400.73
440.50	403.88
440.87	406.36
441.24	409.08
441.61	412.02
441.98	414.09
442.35	416.54
442.72	419.11
443.09	421.53
443.46	422.89
443.83	423.71
444.20	424.36
444.57	425.53
444.94	425.93
445.31	426.42
445.68	426.85
446.05	426.97
446.42	426.53
446.79	426.04
447.16	425.46
447.53	425.08
447.90	423.53
448.27	421.99
448.64	419.80
449.01	418.22
449.37	415.47
449.74	412.92
450.11	409.80
450.48	406.44
450.85	403.04
451.22	400.13
451.59	397.40
451.96	394.79
452.33	391.26
452.70	388.08
453.07	384.24
453.43	380.31
453.80	376.56
454.17	372.90
454.54	369.40
454.91	365.64
455.28	361.98
455.65	358.59
456.02	355.22
456.38	352.32
456.75	348.68
457.12	345.65
457.49	342.60
457.86	339.73
458.23	337.14
458.59	334.33
458.96	331.51
459.33	328.96
459.70	326.41
460.07	324.30
460.43	321.95
460.80	319.72
461.17	317.75
461.54	315.71
461.91	313.73
462.27	311.74
462.64	310.03
463.01	308.14
463.38	306.32
463.74	304.47
464.11	302.88
464.48	301.48
464.85	299.99
465.21	298.81
465.58	297.50
465.95	296.05
466.32	294.80
466.68	293.53
467.05	292.30
467.42	291.05
467.78	289.81
468.15	288.59
468.52	287.69
468.88	286.54
469.25	285.49
469.62	284.65
469.98	283.73
470.35	282.88
470.72	282.02
471.08	281.19
471.45	280.43
471.82	279.68
472.18	278.86
472.55	278.22
472.92	277.48
473.28	276.85
473.65	276.23
474.02	275.60
474.38	275.07
474.75	274.59
475.11	274.09
475.48	273.70
475.85	273.36
476.21	273.00
476.58	272.70
476.94	272.47
477.31	272.20
477.67	271.95
478.04	271.76
478.41	271.70
478.77	271.62
479.14	271.47
479.50	271.39
479.87	271.34
480.23	271.38
480.60	271.42
480.96	271.47
481.33	271.65
481.69	271.86
482.06	272.02
482.42	272.18
482.79	272.46
483.15	272.74
483.52	273.10
483.88	273.41
484.25	273.78
484.61	274.16
484.98	274.55
485.34	275.12
485.71	275.70
486.07	276.28
486.44	276.84
486.80	277.56
487.17	278.32
487.53	279.19
487.90	280.08
488.26	280.99
488.62	281.98
488.99	282.94
489.35	283.98
489.72	285.16
490.08	286.43
490.44	287.71
490.81	289.08
491.17	290.48
491.54	292.03
491.90	293.59
492.26	295.31
492.63	297.14
492.99	299.02
493.36	301.03
493.72	303.16
494.08	305.38
494.45	307.77
494.81	310.29
495.17	312.87
495.54	315.56
495.90	318.45
496.26	321.45
496.63	324.58
496.99	327.90
497.35	331.32
497.72	334.92
498.08	338.61
498.44	342.47
498.80	346.59
499.17	350.87
499.53	355.34
499.89	360.01
500.26	364.80
500.62	369.72
500.98	374.92
501.34	380.36
501.71	385.98
502.07	391.72
502.43	397.64
502.79	403.79
503.16	410.27
503.52	416.93
503.88	423.71
504.24	430.80
504.60	438.02
504.97	445.58
505.33	453.35
505.69	461.60
506.05	469.95
506.41	478.38
506.78	487.04
507.14	496.03
507.50	505.32
507.86	514.92
508.22	524.77
508.59	534.68
508.95	544.86
509.31	555.35
509.67	566.24
510.03	577.24
510.39	588.55
510.75	600.09
511.12	611.75
511.48	623.84
511.84	636.02
512.20	648.49
512.56	661.36
512.92	674.44
513.28	687.73
513.64	701.17
514.00	714.84
514.37	728.82
514.73	742.89
515.09	756.94
515.45	771.24
515.81	785.88
516.17	800.90
516.53	816.10
516.89	831.56
517.25	846.79
517.61	862.48
517.97	878.17
518.33	893.83
518.69	909.92
519.05	926.21
519.41	942.75
519.77	959.67
520.13	976.60
520.49	993.36
520.85	1010.12
521.21	1027.22
521.57	1044.93
521.93	1062.13
522.29	1079.92
522.65	1097.69
523.01	1115.52
523.37	1133.17
523.73	1150.95
524.09	1168.72
524.45	1186.46
524.81	1204.89
525.17	1223.27
525.53	1241.93
525.89	1260.57
526.25	1279.18
526.61	1297.36
526.97	1316.00
527.33	1334.21
527.68	1352.55
528.04	1370.95
528.40	1389.39
528.76	1408.37
529.12	1426.88
529.48	1445.80
529.84	1463.83
530.20	1482.43
530.56	1501.32
530.91	1520.81
531.27	1539.65
531.63	1558.17
531.99	1576.90
532.35	1594.89
532.71	1613.00
533.07	1631.30
533.42	1649.33
533.78	1667.44
534.14	1685.73
534.50	1703.06
534.86	1721.13
535.21	1738.42
535.57	1756.42
535.93	1774.09
536.29	1790.98
536.65	1808.24
537.00	1825.11
537.36	1842.64
537.72	1859.40
538.08	1876.26
538.44	1892.08
538.79	1908.05
539.15	1923.87
539.51	1939.87
539.87	1956.51
540.22	1972.30
540.58	1988.32
540.94	2003.85
541.29	2019.03
541.65	2034.02
542.01	2049.52
542.37	2064.02
542.72	2078.67
543.08	2092.77
543.44	2107.57
543.79	2121.21
544.15	2134.46
544.51	2148.26
544.87	2161.46
545.22	2174.58
545.58	2186.87
545.94	2198.93
546.29	2211.15
546.65	2223.24
547.01	2234.74
547.36	2245.49
547.72	2256.27
548.07	2266.25
548.43	2276.40
548.79	2286.34
549.14	2295.95
549.50	2305.28
549.86	2315.03
550.21	2324.42
550.57	2333.53
550.92	2341.99
551.28	2350.91
551.64	2359.93
551.99	2368.48
552.35	2376.48
552.70	2384.41
553.06	2392.44
553.41	2400.77
553.77	2408.62
554.13	2416.57
554.48	2424.52
554.84	2432.12
555.19	2439.07
555.55	2446.04
555.90	2452.28
556.26	2459.21
556.61	2465.65
556.97	2471.84
557.32	2477.81
557.68	2483.62
558.03	2489.60
558.39	2494.89
558.74	2501.30
559.10	2506.83
559.45	2512.00
559.81	2517.93
560.16	2523.38
560.52	2528.06
560.87	2532.99
561.23	2537.05
561.58	2541.38
561.94	2545.30
562.29	2548.73
562.64	2552.75
563.00	2556.66
563.35	2561.69
563.71	2565.95
564.06	2570.58
564.42	2574.75
564.77	2578.43
565.12	2581.99
565.48	2585.19
565.83	2588.26
566.19	2590.75
566.54	2592.56
566.89	2594.85
567.25	2596.63
567.60	2598.84
567.96	2601.64
568.31	2603.34
568.66	2605.50
569.02	2607.00
569.37	2608.17
569.72	2610.10
570.08	2611.12
570.43	2612.08
570.78	2612.25
571.14	2611.32
571.49	2610.29
571.84	2610.59
572.20	2610.06
572.55	2609.45
572.90	2608.25
573.26	2607.38
573.61	2605.97
573.96	2604.93
574.31	2602.19
574.67	2599.48
575.02	2596.10
575.37	2592.92
575.72	2589.28
576.08	2585.90
576.43	2582.65
576.78	2579.07
577.13	2575.77
577.49	2572.70
577.84	2569.19
578.19	2565.29
578.54	2561.77
578.90	2557.80
579.25	2551.84
579.60	2546.70
579.95	2541.50
580.30	2536.27
580.66	2530.71
581.01	2525.42
581.36	2520.11
581.71	2515.72
582.06	2510.95
582.42	2506.27
582.77	2500.53
583.12	2495.63
583.47	2490.67
583.82	2485.47
584.17	2479.81
584.53	2473.99
584.88	2467.94
585.23	2461.55
585.58	2455.65
585.93	2449.53
586.28	2444.26
586.63	2438.87
586.98	2433.21
587.34	2427.98
587.69	2422.64
588.04	2416.87
588.39	2410.70
588.74	2403.32
589.09	2396.55
589.44	2389.00
589.79	2382.14
590.14	2375.88
590.49	2368.49
590.84	2361.30
591.19	2354.42
591.54	2347.14
591.89	2338.80
592.25	2331.07
592.60	2323.04
592.95	2314.56
593.30	2306.24
593.65	2297.55
594.00	2289.46
594.35	2281.18
594.70	2271.93
595.05	2263.88
595.40	2255.56
595.75	2246.82
596.10	2239.91
596.45	2232.14
596.80	2225.00
597.15	2217.55
597.50	2209.41
597.85	2201.97
598.19	2194.48
598.54	2186.46
598.89	2178.74
599.24	2172.14
599.59	2164.72
599.94	2157.52
600.29	2150.04
600.64	2142.48
600.99	2133.96
601.34	2126.29
601.69	2118.37
602.04	2110.60
602.39	2101.92
602.74	2094.14
603.08	2086.41
603.43	2078.41
603.78	2069.92
604.13	2061.54
604.48	2053.17
604.83	2045.24
605.18	2037.32
605.53	2027.90
605.87	2018.49
606.22	2010.16
606.57	2000.71
606.92	1991.89
607.27	1983.48
607.62	1975.48
607.96	1967.12
608.31	1959.56
608.66	1950.45
609.01	1941.52
609.36	1932.65
609.70	1923.30
610.05	1913.90
610.40	1905.01
610.75	1895.26
611.10	1886.18
611.44	1876.25
611.79	1866.81
612.14	1856.59
612.49	1845.73
612.83	1835.83
613.18	1826.29
613.53	1816.82
613.88	1806.80
614.22	1797.11
614.57	1786.88
614.92	1777.44
615.27	1768.50
615.61	1758.60
615.96	1749.30
616.31	1740.27
616.65	1731.52
617.00	1722.59
617.35	1713.37
617.70	1703.60
618.04	1693.72
618.39	1684.14
618.74	1675.25
619.08	1665.39
619.43	1656.38
619.78	1648.21
620.12	1639.81
620.47	1630.89
620.82	1621.08
621.16	1612.23
621.51	1603.15
621.85	1594.05
622.20	1584.01
622.55	1574.06
622.89	1564.71
623.24	1555.43
623.59	1546.61
623.93	1537.83
624.28	1529.31
624.62	1520.47
624.97	1511.84
625.32	1503.73
625.66	1495.40
626.01	1486.90
626.35	1478.18
626.70	1469.09
627.04	1460.00
627.39	1450.80
627.73	1442.00
628.08	1433.91
628.43	1425.46
628.77	1416.97
629.12	1408.25
629.46	1399.85
629.81	1390.98
630.15	1382.50
630.50	1373.85
630.84	1364.34
631.19	1354.89
631.53	1345.95
631.88	1337.12
632.22	1328.30
632.57	1319.73
632.91	1310.86
633.26	1302.15
633.60	1293.39
633.95	1284.97
634.29	1276.60
634.64	1268.83
634.98	1260.22
635.32	1251.71
635.67	1243.74
636.01	1235.91
636.36	1227.87
636.70	1220.08
637.05	1212.54
637.39	1204.88
637.73	1197.29
638.08	1190.37
638.42	1183.29
638.77	1175.76
639.11	1168.06
639.45	1160.51
639.80	1152.67
640.14	1145.23
640.49	1137.61
640.83	1130.25
641.17	1123.00
641.52	1115.63
641.86	1108.02
642.20	1101.29
642.55	1094.06
642.89	1086.63
643.23	1078.86
643.58	1072.29
643.92	1065.19
644.26	1058.04
644.61	1051.05
644.95	1044.09
645.29	1036.43
645.64	1028.69
645.98	1021.31
646.32	1014.46
646.66	1007.45
647.01	1000.66
647.35	994.00
647.69	987.14
648.04	980.72
648.38	974.01
648.72	967.12
649.06	960.13
649.41	953.15
649.75	946.22
650.09	939.32
650.43	932.68
650.78	925.44
651.12	918.50
651.46	911.90
651.80	905.28
652.14	898.99
652.49	892.77
652.83	886.73
653.17	880.16
653.51	873.55
653.85	867.19
654.20	860.75
654.54	853.72
654.88	847.00
655.22	840.19
655.56	833.53
655.90	827.15
656.25	821.08
656.59	814.92
656.93	809.04
657.27	803.04
657.61	796.73
657.95	790.88
658.29	784.95
658.64	778.83
658.98	772.65
659.32	766.36
659.66	760.35
660.00	754.20
660.34	748.52
660.68	742.86
661.02	737.07
661.36	731.57
661.70	726.41
662.05	721.49
662.39	716.45
662.73	711.31
663.07	706.21
663.41	700.97
663.75	695.72
664.09	690.36
664.43	685.25
664.77	680.49
665.11	675.50
665.45	670.70
665.79	666.01
666.13	661.27
666.47	656.42
666.81	651.62
667.15	646.83
667.49	642.28
667.83	637.76
668.17	633.22
668.51	628.54
668.85	623.86
669.19	619.29
669.53	614.91
669.87	610.47
670.21	606.18
670.55	602.01
670.89	598.12
671.23	594.18
671.57	590.12
671.91	586.02
672.25	581.86
672.58	577.81
672.92	573.82
673.26	570.07
673.60	566.48
673.94	562.86
674.28	559.53
674.62	556.10
674.96	552.60
675.30	549.29
675.64	545.99
675.97	542.75
676.31	539.53
676.65	536.09
676.99	532.95
677.33	529.66
677.67	526.44
678.01	522.89
678.34	519.49
678.68	516.16
679.02	512.96
679.36	509.84
679.70	506.71
680.04	503.56
680.37	500.30
680.71	497.07
681.05	494.06
681.39	490.90
681.73	487.92
682.06	484.96
682.40	481.97
682.74	478.98
683.08	476.07
683.42	473.06
683.75	470.18
684.09	467.18
684.43	464.32
684.77	461.42
685.10	458.71
685.44	456.01
685.78	453.34
686.12	450.67
686.45	448.03
686.79	445.38
687.13	442.80
687.46	440.23
687.80	437.66
688.14	435.03
688.48	432.63
688.81	430.00
689.15	427.50
689.49	424.99
689.82	422.58
690.16	420.11
690.50	417.81
690.83	415.56
691.17	413.25
691.51	411.05
691.84	408.93
692.18	406.71
692.52	404.44
692.85	402.20
693.19	400.03
693.52	397.89
693.86	395.74
694.20	393.65
694.53	391.60
694.87	389.49
695.21	387.44
695.54	385.31
695.88	383.25
696.21	381.23
696.55	379.27
696.88	377.27
697.22	375.29
697.56	373.39
697.89	371.50
698.23	369.62
698.56	367.76
698.90	365.90
699.23	363.99
699.57	362.14
699.90	360.30
700.24	358.49
700.58	356.75
700.91	355.06
701.25	353.35
701.58	351.73
701.92	350.13
702.25	348.48
702.59	346.88
702.92	345.37
703.26	343.88
703.59	342.41
703.93	341.04
704.26	339.65
704.60	338.16
704.93	336.62
705.26	335.17
705.60	333.73
705.93	332.37
706.27	331.11
706.60	329.89
706.94	328.64
707.27	327.37
707.61	326.11
707.94	324.86
708.27	323.58
708.61	322.31
708.94	321.15
709.28	320.05
709.61	318.98
709.94	317.80
710.28	316.57
710.61	315.40
710.95	314.14
711.28	313.04
711.61	311.96
711.95	310.91
712.28	309.85
712.61	308.73
712.95	307.61
713.28	306.59
713.61	305.55
713.95	304.55
714.28	303.54
714.61	302.54
714.95	301.57
715.28	300.61
715.61	299.61
715.95	298.56
716.28	297.58
716.61	296.61
716.95	295.68
717.28	294.85
717.61	293.94
717.94	293.13
718.28	292.21
718.61	291.35
718.94	290.53
719.27	289.74
719.61	288.98
719.94	288.23
720.27	287.45
720.60	286.66
720.94	285.94
721.27	285.26
721.60	284.58
721.93	283.89
722.27	283.25
722.60	282.62
722.93	282.04
723.26	281.41
723.59	280.75
723.93	280.15
724.26	279.49
724.59	278.85
724.92	278.24
725.25	277.65
725.59	277.05
725.92	276.48
726.25	275.94
726.58	275.40
726.91	274.86
727.24	274.29
727.57	273.75
727.91	273.15
728.24	272.59
728.57	272.03
728.90	271.50
729.23	270.92
729.56	270.36
729.89	269.79
730.22	269.22
730.55	268.66
730.89	268.12
731.22	267.63
731.55	267.13
731.88	266.59
732.21	266.12
732.54	265.60
732.87	265.10
733.20	264.61
733.53	264.10
733.86	263.62
734.19	263.14
734.52	262.72
734.85	262.33
735.18	261.84
735.51	261.38
735.84	260.94
736.17	260.54
736.50	260.09
736.83	259.78
737.16	259.37
737.49	258.97
737.82	258.55
738.15	258.16
738.48	257.77
738.81	257.41
739.14	257.03
739.47	256.71
739.80	256.32
740.13	255.92
740.46	255.56
740.79	255.20
741.12	254.83
741.45	254.44
741.78	254.02
742.11	253.69
742.44	253.33
742.77	252.99
743.10	252.64
743.43	252.30
743.75	251.91
744.08	251.73
744.41	251.39
744.74	251.07
745.07	250.72
745.40	250.41
745.73	250.11
746.06	249.76
746.39	249.44
746.71	249.12
747.04	248.80
747.37	248.51
747.70	248.20
748.03	247.93
748.36	247.69
748.68	247.42
749.01	247.15
749.34	246.92
749.67	246.66
750.00	246.39
750.33	246.18
750.65	245.91
750.98	245.52
751.31	245.27
751.64	245.01
751.97	244.84
752.29	244.61
752.62	244.35
752.95	244.12
753.28	243.88
753.60	243.64
753.93	243.45
754.26	243.22
754.59	242.98
754.91	242.73
755.24	242.51
755.57	242.32
755.90	242.10
756.22	241.86
756.55	241.60
756.88	241.38
757.20	241.14
757.53	240.93
757.86	240.74
758.19	240.60
758.51	240.44
758.84	240.20
759.17	240.00
759.49	239.78
759.82	239.66
760.15	239.47
760.47	239.31
760.80	239.10
761.13	238.96
761.45	238.77
761.78	238.59
762.11	238.42
762.43	238.23
762.76	238.04
763.08	237.89
763.41	237.77
763.74	237.63
764.06	237.46
764.39	237.31
764.71	237.15
765.04	236.98
765.37	236.80
765.69	236.66
766.02	236.53
766.34	236.37
766.67	236.18
767.00	236.07
767.32	235.97
767.65	235.93
767.97	235.79
768.30	235.65
768.62	235.55
768.95	235.41
769.27	235.29
769.60	235.17
769.92	235.03
770.25	234.86
770.57	234.76
770.90	234.61
771.22	234.49
771.55	234.35
771.87	234.23
772.20	234.14
772.52	234.10
772.85	234.09
773.17	234.01
773.50	233.88
773.82	233.75
774.15	233.60
774.47	233.45
774.80	233.34
775.12	233.28
775.45	233.18
775.77	233.10
776.09	233.04
776.42	232.95
776.74	232.89
777.07	232.82
777.39	232.71
777.72	232.64
778.04	232.57
778.36	232.48
778.69	232.41
779.01	232.33
779.33	232.14
779.66	231.96
779.98	231.87
780.31	231.83
780.63	231.81
780.95	231.78
781.28	231.65
781.60	231.59
781.92	231.51
782.25	231.42
782.57	231.34
782.89	231.23
783.22	231.19
783.54	231.08
783.86	231.01
784.19	230.95
784.51	230.90
784.83	230.83
785.16	230.78
785.48	230.71
785.80	230.63
786.12	230.59
786.45	230.53
786.77	230.45
787.09	230.41
787.42	230.33
787.74	230.26
788.06	230.26
788.38	230.19
788.71	230.12
789.03	230.08
789.35	230.03
789.67	229.99
789.99	229.95
790.32	229.89
790.64	229.86
790.96	229.90
791.28	229.83
791.61	229.75
791.93	229.73
792.25	229.70
792.57	229.74
792.89	229.68
793.21	229.64
793.54	229.61
793.86	229.52
794.18	229.45
794.50	229.39
794.82	229.32
795.14	229.30
795.47	229.25
795.79	229.20
796.11	229.17
796.43	229.13
796.75	229.07
797.07	229.06
797.39	229.03
797.71	228.90
798.04	228.86
798.36	228.86
798.68	228.81
799.00	228.76
799.32	228.69
799.64	228.66
799.96	228.64
800.28	228.61
800.60	228.58
800.92	228.51
801.24	228.47
801.56	228.45
801.89	228.40
802.21	228.39
802.53	228.35
802.85	228.32
803.17	228.31
803.49	228.27
803.81	228.22
804.13	228.19
804.45	228.18
804.77	228.16
805.09	228.13
805.41	228.10
805.73	228.07
806.05	228.00
806.37	228.00
806.69	227.95
807.01	227.94
807.33	227.92
807.65	227.88
807.97	227.92
808.28	227.87
808.60	227.82
808.92	227.77
809.24	227.82
809.56	227.77
809.88	227.70
810.20	227.68
810.52	227.70
810.84	227.66
811.16	227.59
811.48	227.55
811.80	227.54
812.12	227.48
812.43	227.49
812.75	227.49
813.07	227.46
813.39	227.43
813.71	227.37
814.03	227.34
814.35	227.34
814.67	227.27
814.98	227.27
815.30	227.27
815.62	227.22
815.94	227.11
816.26	227.13
816.58	227.13
816.89	227.09
817.21	227.02
817.53	226.99
817.85	226.97
818.17	226.95
818.48	226.87
818.80	226.86
819.12	226.79
819.44	226.72
819.76	226.69
820.07	226.67
820.39	226.63
820.71	226.62
821.03	226.59
821.34	226.56
821.66	226.53
821.98	226.52
822.30	226.51
822.61	226.55
822.93	226.49
823.25	226.45
823.57	226.42
823.88	226.42
824.20	226.37
824.52	226.41
824.83	226.39
825.15	226.36
825.47	226.34
825.79	226.34
826.10	226.33
826.42	226.30
826.74	226.30
827.05	226.29
827.37	226.26
827.69	226.22
828.00	226.19
828.32	226.19
828.64	226.18
828.95	226.24
829.27	226.23
829.58	226.22
829.90	226.22
830.22	226.24
830.53	226.19
830.85	226.22
831.17	226.16
831.48	226.13
831.80	226.14
832.11	226.14
832.43	226.09
832.75	226.07
833.06	226.10
833.38	226.04
833.69	226.07
834.01	226.06
834.32	226.06
834.64	226.05
834.96	226.04
835.27	226.00
835.59	225.95
835.90	225.87
836.22	225.86
836.53	225.84
836.85	225.82
837.16	225.94
837.48	225.90
837.79	225.94
838.11	225.94
838.42	225.92
838.74	225.94
839.05	225.96
839.37	225.97
839.68	225.91
840.00	225.92
840.31	225.90
840.63	225.88
840.94	225.88
841.26	225.86
841.57	225.85
841.88	225.85
842.20	225.82
842.51	225.81
842.83	225.81
843.14	225.92
843.46	225.92
843.77	225.86
844.08	225.86
844.40	225.81
844.71	225.80
845.03	225.76
845.34	225.74
845.65	225.73
845.97	225.71
846.28	225.71
846.60	225.74
846.91	225.71
847.22	225.69
847.54	225.71
847.85	225.72
848.16	225.73
848.48	225.72
848.79	225.78
849.10	225.78
849.42	225.75
849.73	225.63
850.04	225.61
850.36	225.55
850.67	225.55
850.98	225.55
851.30	225.59
851.61	225.61
851.92	225.59
852.23	225.62
852.55	225.62
852.86	225.63
853.17	225.62
853.49	225.64
853.80	225.69
854.11	225.68
854.42	225.68
854.74	225.65
855.05	225.63
855.36	225.55
855.67	225.57
855.99	225.56
856.30	225.66
856.61	225.65
856.92	225.68
857.23	225.66
857.55	225.62
857.86	225.59
858.17	225.62
858.48	225.60
858.79	225.57
859.11	225.58
859.42	225.56
859.73	225.54
860.04	225.54
860.35	225.51
860.66	225.50
860.98	225.51
861.29	225.50
861.60	225.49
861.91	225.48
862.22	225.47
862.53	225.45
862.84	225.34
863.16	225.35
863.47	225.30
863.78	225.29
864.09	225.33
864.40	225.32
864.71	225.30
865.02	225.30
865.33	225.28
865.64	225.27
865.95	225.26
866.27	225.33
866.58	225.31
866.89	225.30
867.20	225.30
867.51	225.28
867.82	225.30
868.13	225.33
868.44	225.34
868.75	225.34
869.06	225.34
869.37	225.35
869.68	225.34
869.99	225.34
870.30	225.34
870.61	225.33
870.92	225.33
871.23	225.30
871.54	225.33
871.85	225.35
872.16	225.34
872.47	225.34
872.78	225.28
873.09	225.30
873.40	225.29
873.71	225.29
874.02	225.30
874.33	225.30
874.64	225.28
874.95	225.28
875.26	225.27
875.56	225.26
875.87	225.26
876.18	225.27
876.49	225.41
876.80	225.41
877.11	225.38
877.42	225.39
877.73	225.41
878.04	225.40
878.35	225.39
878.66	225.43
878.96	225.40
879.27	225.37
879.58	225.35
879.89	225.34
880.20	225.37
880.51	225.34
880.82	225.32
881.12	225.34
881.43	225.35
881.74	225.35
882.05	225.36
882.36	225.39
882.67	225.38
882.97	225.26
883.28	225.24
883.59	225.26
883.90	225.27
884.21	225.29
884.51	225.28
884.82	225.25
885.13	225.22
885.44	225.25
885.74	225.25
886.05	225.25
886.36	225.28
886.67	225.23
886.98	225.31
887.28	225.31
887.59	225.27
887.90	225.27
888.20	225.24
888.51	225.26
888.82	225.23
889.13	225.23
889.43	225.31
889.74	225.34
890.05	225.34
890.35	225.34
890.66	225.31
890.97	225.31
891.28	225.33
891.58	225.34
891.89	225.36
892.20	225.36
892.50	225.36
892.81	225.36
893.12	225.39
893.42	225.30
893.73	225.31
894.04	225.32
894.34	225.33
894.65	225.35
894.95	225.36
895.26	225.36
895.57	225.43
895.87	225.33
896.18	225.32
896.48	225.30
896.79	225.27
897.10	225.31
897.40	225.29
897.71	225.30
898.01	225.31
898.32	225.29
898.63	225.29
898.93	225.29
899.24	225.28
899.54	225.20
899.85	225.21
900.15	225.21
900.46	225.19
900.76	225.17
901.07	225.16
901.38	225.14
901.68	225.15
901.99	225.07
902.29	225.09
902.60	225.08
902.90	225.08
903.21	225.05
903.51	225.02
903.82	225.04
904.12	225.02
904.43	224.99
904.73	224.97
905.03	224.93
905.34	225.01
905.64	224.96
905.95	225.02
906.25	225.01
906.56	225.02
906.86	225.06
907.17	225.07
907.47	225.06
907.77	225.05
908.08	224.99
908.38	224.99
908.69	225.02
908.99	225.03
909.30	225.05
909.60	225.06
909.90	225.05
910.21	225.02
910.51	225.02
910.81	225.03
911.12	225.05
911.42	225.11
911.73	225.03
912.03	225.08
912.33	225.10
912.64	225.08
912.94	225.06
913.24	225.05
913.55	225.07
913.85	225.08
914.15	225.10
914.46	225.15
914.76	225.14
915.06	225.09
915.37	225.07
915.67	225.06
915.97	225.06
916.27	225.05
916.58	225.05
916.88	225.05
917.18	225.06
917.49	225.15
917.79	225.12
918.09	225.12
918.39	225.14
918.70	225.10
919.00	225.12
919.30	225.18
919.60	225.13
919.91	225.12
920.21	225.13
920.51	225.08
920.81	225.05
921.12	225.11
921.42	225.14
921.72	225.15
922.02	225.17
922.32	225.21
922.63	225.20
922.93	225.25
923.23	225.26
923.53	225.24
923.83	225.15
924.13	225.17
924.44	225.14
924.74	225.11
925.04	225.17
925.34	225.16
925.64	225.11
925.94	225.13
926.24	225.15
926.55	225.10
926.85	225.15
927.15	225.14
927.45	225.11
927.75	225.12
928.05	225.13
928.35	225.10
928.65	225.09
928.95	225.11
929.26	225.10
929.56	225.11
929.86	225.13
930.16	225.12
930.46	225.08
930.76	225.13
931.06	225.13
931.36	225.09
931.66	225.11
931.96	225.12
932.26	225.15
932.56	225.10
932.86	225.11
933.16	225.10
933.46	225.11
933.76	225.08
934.06	225.08
934.36	225.08
934.66	225.08
934.96	225.05
935.26	225.07
935.56	225.06
935.86	225.03
936.16	225.01
936.46	225.01
936.76	225.02
937.06	224.98
937.36	224.96
937.66	224.99
937.96	224.98
938.26	224.93
938.56	224.89
938.86	224.90
939.16	224.95
939.46	224.94
939.76	224.91
940.06	224.90
940.35	224.87
940.65	224.83
940.95	224.84
941.25	224.82
941.55	224.77
941.85	224.78
942.15	224.79
942.45	224.83
942.75	224.82
943.04	224.80
943.34	224.81
943.64	224.82
943.94	224.80
944.24	224.79
944.54	224.82
944.84	224.83
945.13	224.78
945.43	224.71
945.73	224.73
946.03	224.74
946.33	224.74
946.62	224.73
946.92	224.70
947.22	224.70
947.52	224.67
947.82	224.71
948.11	224.67
948.41	224.66
948.71	224.63
949.01	224.63
949.31	224.61
949.60	224.62
949.90	224.61
950.20	224.58
950.50	224.57
950.79	224.53
951.09	224.53
951.39	224.55
951.69	224.56
951.98	224.54
952.28	224.55
952.58	224.54
952.87	224.55
953.17	224.59
953.47	224.60
953.76	224.63
954.06	224.62
954.36	224.61
954.66	224.59
954.95	224.62
955.25	224.64
955.55	224.67
955.84	224.62
956.14	224.62
956.44	224.63
956.73	224.63
957.03	224.68
957.32	224.69
957.62	224.70
957.92	224.75
958.21	224.76
958.51	224.89
958.81	224.91
959.10	224.91
959.40	224.94
959.69	224.94
959.99	224.97
960.29	224.95
960.58	224.95
960.88	224.99
961.17	224.96
961.47	224.98
961.76	224.99
962.06	225.03
962.36	225.02
962.65	225.02
962.95	225.03
963.24	224.99
963.54	224.98
963.83	225.02
964.13	225.00
964.42	224.99
964.72	224.89
965.01	224.91
965.31	224.92
965.60	224.87
965.90	224.91
966.19	224.88
966.49	224.89
966.78	224.91
967.08	224.88
967.37	224.89
967.67	224.86
967.96	224.87
968.26	224.88
968.55	224.87
968.85	224.86
969.14	224.84
969.43	224.86
969.73	224.85
970.02	224.82
970.32	224.79
970.61	224.77
970.91	224.76
971.20	224.72
971.49	224.72
971.79	224.73
972.08	224.64
972.38	224.67
972.67	224.68
972.96	224.65
973.26	224.63
973.55	224.66
973.85	224.66
974.14	224.62
974.43	224.60
974.73	224.58
975.02	224.58
975.31	224.58
975.61	224.56
975.90	224.56
976.19	224.56
976.49	224.58
976.78	224.59
977.07	224.56
977.37	224.57
977.66	224.55
977.95	224.54
978.24	224.55
978.54	224.53
978.83	224.51
979.12	224.53
979.42	224.56
979.71	224.52
980.00	224.52
980.29	224.54
980.59	224.53
980.88	224.57
981.17	224.54
981.46	224.52
981.76	224.52
982.05	224.55
982.34	224.52
982.63	224.50
982.93	224.50
983.22	224.54
983.51	224.56
983.80	224.58
984.09	224.61
984.39	224.64
984.68	224.64
984.97	224.62
985.26	224.58
985.55	224.59
985.85	224.59
986.14	224.59
986.43	224.56
986.72	224.57
987.01	224.55
987.30	224.61
987.59	224.64
987.89	224.67
988.18	224.61
988.47	224.60
988.76	224.61
989.05	224.59
989.34	224.56
989.63	224.55
989.92	224.53
990.22	224.51
990.51	224.50
990.80	224.47
991.09	224.49
991.38	224.53
991.67	224.50
991.96	224.50
992.25	224.51
992.54	224.52
992.83	224.52
993.12	224.52
993.41	224.51
993.70	224.53
993.99	224.53
994.28	224.56
994.58	224.59
994.87	224.60
995.16	224.63
995.45	224.61
995.74	224.59
996.03	224.60
996.32	224.62
996.61	224.67
996.90	224.66
997.19	224.67
997.48	224.67
997.77	224.68
998.06	224.69
998.34	224.70
998.63	224.70
998.92	224.68
999.21	224.70
999.50	224.71
999.79	224.69
1000.08	224.72
1000.37	224.74
1000.66	224.69
1000.95	224.73
1001.24	224.72
1001.53	224.74
1001.82	224.77
1002.11	224.72
1002.40	224.71
1002.68	224.69
1002.97	224.79
1003.26	224.77
1003.55	224.74
1003.84	224.76
1004.13	224.78
1004.42	224.76
1004.71	224.75
1004.99	224.76
1005.28	224.76
1005.57	224.76
1005.86	224.74
1006.15	224.70
1006.44	224.71
1006.72	224.76
1007.01	224.73
1007.30	224.75
1007.59	224.76
1007.88	224.73
1008.17	224.78
1008.45	224.75
1008.74	224.73
1009.03	224.68
1009.32	224.69
1009.60	224.69
1009.89	224.68
1010.18	224.65
1010.47	224.66
1010.76	224.67
1011.04	224.68
1011.33	224.71
1011.62	224.68
1011.91	224.66
1012.19	224.66
1012.48	224.63
1012.77	224.61
1013.05	224.65
1013.34	224.66
1013.63	224.66
1013.92	224.71
1014.20	224.68
1014.49	224.71
1014.78	224.72
1015.06	224.67
1015.35	224.67
1015.64	224.71
1015.92	224.75
1016.21	224.75
1016.50	224.74
1016.78	224.76
1017.07	224.79
1017.36	224.75
1017.64	224.75
1017.93	224.78
1018.22	224.80
1018.50	224.80
1018.79	224.81
1019.08	224.79
1019.36	224.78
1019.65	224.79
1019.93	224.79
1020.22	224.79
1020.51	224.85
1020.79	224.81
1021.08	224.57
1021.36	224.29
1021.65	224.86
1021.94	225.17
1022.22	224.81
1022.51	225.13
1022.79	225.16
1023.08	224.40
1023.36	226.05
1023.65	223.84
>>>>>End Processed Spectral Data<<<<<
