SpectraSuite Data File
++++++++++++++++++++++++++++++++++++
Date: Fri Feb 01 16:00:45 EST 2013
User: group
Dark Spectrum Present: No
Reference Spectrum Present: No
Number of Sampled Component Spectra: 1
Spectrometers: USB2E7196
Integration Time (usec): 35000 (USB2E7196)
Spectra Averaged: 100 (USB2E7196)
Boxcar Smoothing: 10 (USB2E7196)
Correct for Electrical Dark: No (USB2E7196)
Strobe/Lamp Enabled: No (USB2E7196)
Correct for Detector Non-linearity: No (USB2E7196)
Correct for Stray Light: No (USB2E7196)
Number of Pixels in Processed Spectrum: 2048
>>>>>Begin Processed Spectral Data<<<<<
339.09	0.00
339.48	214.76
339.86	216.31
340.24	217.55
340.63	218.81
341.01	221.97
341.39	222.02
341.78	222.91
342.16	223.89
342.54	224.94
342.93	213.06
343.31	223.82
343.69	224.36
344.07	224.83
344.46	225.28
344.84	225.66
345.22	225.88
345.60	226.11
345.99	226.30
346.37	226.42
346.75	226.52
347.13	226.60
347.52	226.67
347.90	226.75
348.28	226.78
348.66	226.82
349.05	226.83
349.43	226.91
349.81	226.97
350.19	227.01
350.57	227.09
350.96	227.19
351.34	227.29
351.72	227.42
352.10	227.51
352.48	227.56
352.87	227.63
353.25	227.67
353.63	227.73
354.01	227.80
354.39	227.88
354.77	227.98
355.15	228.09
355.54	228.15
355.92	228.18
356.30	228.25
356.68	228.41
357.06	228.47
357.44	228.46
357.82	228.49
358.20	228.50
358.58	228.55
358.97	228.59
359.35	228.64
359.73	228.68
360.11	228.74
360.49	228.76
360.87	228.80
361.25	228.89
361.63	228.95
362.01	229.01
362.39	229.04
362.77	229.05
363.15	229.06
363.53	229.06
363.91	229.09
364.29	229.10
364.67	228.99
365.05	229.02
365.43	229.07
365.81	229.12
366.19	229.20
366.57	229.20
366.95	229.18
367.33	229.18
367.71	229.14
368.09	229.14
368.47	229.15
368.85	229.11
369.23	229.09
369.61	229.05
369.99	229.05
370.37	229.07
370.75	229.07
371.13	229.00
371.51	228.95
371.89	228.90
372.27	228.89
372.65	228.87
373.03	228.82
373.41	228.74
373.78	228.69
374.16	228.54
374.54	228.50
374.92	228.44
375.30	228.37
375.68	228.27
376.06	228.20
376.44	228.15
376.82	228.09
377.19	228.04
377.57	227.96
377.95	227.82
378.33	227.70
378.71	227.59
379.09	227.55
379.47	227.50
379.84	227.41
380.22	227.30
380.60	227.18
380.98	227.13
381.36	227.06
381.73	226.97
382.11	226.94
382.49	226.85
382.87	226.79
383.25	226.73
383.62	226.83
384.00	226.76
384.38	226.68
384.76	226.67
385.13	226.64
385.51	226.60
385.89	226.56
386.27	226.50
386.64	226.46
387.02	226.38
387.40	226.34
387.78	226.27
388.15	226.26
388.53	226.24
388.91	226.18
389.29	226.16
389.66	226.15
390.04	226.13
390.42	226.11
390.79	226.08
391.17	226.06
391.55	225.91
391.92	225.90
392.30	225.90
392.68	225.85
393.05	225.84
393.43	225.83
393.81	225.87
394.18	225.91
394.56	225.93
394.94	226.02
395.31	226.02
395.69	226.11
396.06	226.13
396.44	226.19
396.82	226.21
397.19	226.31
397.57	226.36
397.95	226.41
398.32	226.44
398.70	226.53
399.07	226.64
399.45	226.67
399.82	226.73
400.20	226.81
400.58	226.89
400.95	226.92
401.33	227.02
401.70	227.15
402.08	227.22
402.45	227.30
402.83	227.39
403.20	227.53
403.58	227.64
403.95	227.80
404.33	227.94
404.71	228.09
405.08	228.25
405.46	228.39
405.83	228.55
406.21	228.74
406.58	228.91
406.96	229.06
407.33	229.26
407.70	229.46
408.08	229.73
408.45	230.00
408.83	230.27
409.20	230.50
409.58	230.66
409.95	230.96
410.33	231.23
410.70	231.49
411.08	231.80
411.45	232.10
411.82	232.37
412.20	232.76
412.57	233.14
412.95	233.46
413.32	233.86
413.69	234.27
414.07	234.70
414.44	235.16
414.82	235.61
415.19	236.18
415.56	236.73
415.94	237.26
416.31	237.84
416.68	238.39
417.06	239.13
417.43	239.83
417.81	240.59
418.18	241.38
418.55	242.22
418.93	243.10
419.30	244.00
419.67	244.95
420.04	245.89
420.42	246.92
420.79	248.08
421.16	249.26
421.54	250.44
421.91	251.67
422.28	252.91
422.66	254.29
423.03	255.58
423.40	256.90
423.77	258.34
424.15	259.75
424.52	261.27
424.89	262.86
425.26	264.44
425.64	265.87
426.01	267.44
426.38	269.07
426.75	270.69
427.13	272.39
427.50	274.19
427.87	276.07
428.24	277.89
428.61	279.61
428.99	281.52
429.36	283.62
429.73	285.66
430.10	287.64
430.47	289.67
430.85	291.75
431.22	294.01
431.59	296.35
431.96	298.62
432.33	301.12
432.70	303.50
433.08	306.28
433.45	308.94
433.82	311.57
434.19	314.50
434.56	317.37
434.93	319.97
435.30	322.63
435.68	325.53
436.05	328.37
436.42	331.18
436.79	333.68
437.16	336.38
437.53	339.22
437.90	342.01
438.27	344.74
438.64	347.58
439.01	350.17
439.38	352.45
439.75	354.61
440.13	357.05
440.50	359.40
440.87	361.23
441.24	363.17
441.61	365.29
441.98	366.71
442.35	368.49
442.72	370.40
443.09	372.20
443.46	373.17
443.83	373.75
444.20	374.27
444.57	375.08
444.94	375.35
445.31	375.67
445.68	376.05
446.05	376.14
446.42	375.74
446.79	375.25
447.16	374.75
447.53	374.45
447.90	373.29
448.27	372.07
448.64	370.50
449.01	369.36
449.37	367.42
449.74	365.53
450.11	363.30
450.48	360.80
450.85	358.20
451.22	356.08
451.59	354.07
451.96	352.08
452.33	349.48
452.70	347.17
453.07	344.37
453.43	341.45
453.80	338.69
454.17	336.03
454.54	333.56
454.91	330.86
455.28	328.17
455.65	325.73
456.02	323.30
456.38	321.12
456.75	318.47
457.12	316.19
457.49	313.97
457.86	311.78
458.23	309.95
458.59	307.91
458.96	305.82
459.33	303.96
459.70	302.13
460.07	300.66
460.43	298.94
460.80	297.30
461.17	295.90
461.54	294.40
461.91	292.97
462.27	291.50
462.64	290.27
463.01	288.92
463.38	287.62
463.74	286.28
464.11	285.17
464.48	284.14
464.85	283.08
465.21	282.22
465.58	281.27
465.95	280.16
466.32	279.28
466.68	278.36
467.05	277.45
467.42	276.53
467.78	275.60
468.15	274.74
468.52	274.07
468.88	273.20
469.25	272.40
469.62	271.80
469.98	271.15
470.35	270.50
470.72	269.91
471.08	269.22
471.45	268.65
471.82	268.07
472.18	267.42
472.55	266.97
472.92	266.44
473.28	266.01
473.65	265.52
474.02	265.07
474.38	264.70
474.75	264.38
475.11	264.09
475.48	263.82
475.85	263.53
476.21	263.28
476.58	263.08
476.94	262.95
477.31	262.77
477.67	262.61
478.04	262.51
478.41	262.46
478.77	262.49
479.14	262.45
479.50	262.44
479.87	262.53
480.23	262.61
480.60	262.66
480.96	262.75
481.33	262.96
481.69	263.18
482.06	263.38
482.42	263.56
482.79	263.78
483.15	264.12
483.52	264.50
483.88	264.88
484.25	265.27
484.61	265.71
484.98	266.17
485.34	266.73
485.71	267.31
486.07	267.92
486.44	268.53
486.80	269.25
487.17	270.03
487.53	270.85
487.90	271.69
488.26	272.65
488.62	273.66
488.99	274.71
489.35	275.75
489.72	276.90
490.08	278.10
490.44	279.37
490.81	280.70
491.17	282.09
491.54	283.58
491.90	285.16
492.26	286.79
492.63	288.54
492.99	290.30
493.36	292.20
493.72	294.25
494.08	296.37
494.45	298.58
494.81	300.95
495.17	303.43
495.54	305.99
495.90	308.72
496.26	311.52
496.63	314.44
496.99	317.53
497.35	320.78
497.72	324.26
498.08	327.76
498.44	331.41
498.80	335.35
499.17	339.39
499.53	343.59
499.89	348.02
500.26	352.53
500.62	357.19
500.98	362.16
501.34	367.24
501.71	372.58
502.07	378.02
502.43	383.67
502.79	389.52
503.16	395.61
503.52	401.83
503.88	408.25
504.24	414.95
504.60	421.86
504.97	428.96
505.33	436.24
505.69	443.95
506.05	451.75
506.41	459.58
506.78	467.72
507.14	476.11
507.50	484.81
507.86	493.87
508.22	503.13
508.59	512.33
508.95	521.93
509.31	531.77
509.67	541.91
510.03	552.12
510.39	562.59
510.75	573.37
511.12	584.34
511.48	595.61
511.84	607.05
512.20	618.62
512.56	630.60
512.92	642.79
513.28	655.15
513.64	667.60
514.00	680.29
514.37	693.28
514.73	706.29
515.09	719.32
515.45	732.56
515.81	746.12
516.17	760.15
516.53	774.20
516.89	788.37
517.25	802.53
517.61	817.01
517.97	831.48
518.33	845.96
518.69	860.74
519.05	875.70
519.41	890.85
519.77	906.28
520.13	921.80
520.49	937.23
520.85	952.60
521.21	968.32
521.57	984.71
521.93	1000.46
522.29	1016.91
522.65	1033.21
523.01	1049.40
523.37	1065.47
523.73	1081.49
524.09	1097.66
524.45	1113.93
524.81	1130.57
525.17	1147.30
525.53	1164.22
525.89	1181.10
526.25	1197.91
526.61	1214.25
526.97	1231.01
527.33	1247.53
527.68	1264.06
528.04	1280.46
528.40	1297.08
528.76	1314.05
529.12	1330.44
529.48	1347.29
529.84	1363.19
530.20	1379.85
530.56	1396.92
530.91	1414.25
531.27	1431.04
531.63	1447.45
531.99	1464.00
532.35	1479.91
532.71	1495.78
533.07	1512.03
533.42	1527.86
533.78	1543.89
534.14	1560.27
534.50	1575.55
534.86	1591.43
535.21	1606.48
535.57	1622.34
535.93	1637.84
536.29	1652.61
536.65	1667.67
537.00	1682.48
537.36	1697.81
537.72	1712.20
538.08	1726.46
538.44	1740.22
538.79	1754.11
539.15	1767.81
539.51	1781.51
539.87	1795.82
540.22	1809.66
540.58	1823.31
540.94	1836.63
541.29	1849.45
541.65	1861.97
542.01	1875.10
542.37	1887.29
542.72	1899.77
543.08	1911.53
543.44	1923.81
543.79	1935.04
544.15	1946.06
544.51	1957.58
544.87	1968.54
545.22	1979.26
545.58	1989.49
545.94	1999.19
546.29	2009.10
546.65	2019.06
547.01	2028.36
547.36	2037.08
547.72	2045.45
548.07	2053.36
548.43	2061.41
548.79	2069.55
549.14	2077.04
549.50	2084.33
549.86	2091.98
550.21	2099.28
550.57	2106.52
550.92	2113.18
551.28	2120.13
551.64	2127.09
551.99	2133.43
552.35	2139.51
552.70	2145.70
553.06	2151.67
553.41	2158.04
553.77	2163.86
554.13	2169.78
554.48	2175.89
554.84	2181.24
555.19	2186.52
555.55	2191.59
555.90	2196.07
556.26	2200.81
556.61	2205.66
556.97	2210.03
557.32	2214.21
557.68	2218.25
558.03	2222.58
558.39	2226.29
558.74	2231.00
559.10	2234.89
559.45	2238.71
559.81	2243.15
560.16	2246.99
560.52	2250.20
560.87	2253.66
561.23	2256.41
561.58	2259.36
561.94	2261.80
562.29	2264.13
562.64	2266.74
563.00	2269.38
563.35	2272.86
563.71	2276.00
564.06	2279.12
564.42	2281.92
564.77	2284.27
565.12	2286.51
565.48	2288.33
565.83	2290.10
566.19	2291.37
566.54	2292.27
566.89	2293.39
567.25	2293.84
567.60	2295.18
567.96	2296.84
568.31	2297.63
568.66	2298.74
569.02	2299.23
569.37	2299.46
569.72	2300.44
570.08	2300.60
570.43	2300.63
570.78	2300.10
571.14	2298.56
571.49	2297.27
571.84	2296.97
572.20	2296.01
572.55	2294.98
572.90	2293.50
573.26	2292.07
573.61	2290.51
573.96	2288.83
574.31	2285.81
574.67	2282.81
575.02	2279.21
575.37	2275.97
575.72	2272.17
576.08	2268.86
576.43	2265.45
576.78	2261.90
577.13	2258.74
577.49	2255.80
577.84	2252.24
578.19	2248.65
578.54	2245.14
578.90	2240.98
579.25	2235.42
579.60	2230.48
579.95	2225.57
580.30	2220.50
580.66	2215.43
581.01	2210.44
581.36	2205.40
581.71	2201.22
582.06	2196.91
582.42	2192.28
582.77	2187.01
583.12	2182.58
583.47	2177.94
583.82	2172.99
584.17	2167.77
584.53	2162.25
584.88	2156.60
585.23	2151.00
585.58	2145.51
585.93	2140.05
586.28	2135.23
586.63	2130.30
586.98	2125.25
587.34	2120.46
587.69	2115.62
588.04	2110.47
588.39	2104.71
588.74	2098.31
589.09	2092.12
589.44	2085.32
589.79	2079.62
590.14	2073.95
590.49	2067.44
590.84	2061.07
591.19	2055.11
591.54	2048.65
591.89	2041.32
592.25	2034.39
592.60	2027.07
592.95	2019.51
593.30	2012.10
593.65	2004.65
594.00	1997.56
594.35	1990.34
594.70	1982.36
595.05	1975.04
595.40	1967.65
595.75	1960.33
596.10	1954.16
596.45	1947.53
596.80	1941.34
597.15	1934.54
597.50	1927.55
597.85	1920.95
598.19	1914.21
598.54	1906.96
598.89	1900.23
599.24	1894.40
599.59	1887.80
599.94	1881.61
600.29	1875.25
600.64	1868.68
600.99	1861.08
601.34	1854.24
601.69	1847.29
602.04	1840.48
602.39	1833.21
602.74	1826.43
603.08	1819.60
603.43	1812.80
603.78	1805.53
604.13	1798.37
604.48	1791.00
604.83	1783.99
605.18	1776.96
605.53	1769.03
605.87	1761.18
606.22	1754.00
606.57	1746.07
606.92	1738.81
607.27	1731.67
607.62	1724.74
607.96	1717.39
608.31	1710.82
608.66	1703.17
609.01	1695.66
609.36	1688.09
609.70	1680.05
610.05	1672.01
610.40	1664.30
610.75	1655.98
611.10	1648.23
611.44	1639.83
611.79	1631.98
612.14	1623.40
612.49	1614.30
612.83	1605.87
613.18	1597.81
613.53	1589.81
613.88	1581.21
614.22	1572.88
614.57	1564.30
614.92	1556.11
615.27	1548.60
615.61	1540.25
615.96	1532.29
616.31	1524.57
616.65	1517.21
617.00	1509.70
617.35	1501.94
617.70	1493.66
618.04	1485.21
618.39	1477.07
618.74	1469.42
619.08	1460.96
619.43	1453.43
619.78	1446.57
620.12	1439.37
620.47	1431.78
620.82	1423.60
621.16	1416.16
621.51	1408.57
621.85	1400.94
622.20	1392.57
622.55	1384.18
622.89	1376.42
623.24	1368.79
623.59	1361.49
623.93	1353.87
624.28	1346.65
624.62	1339.14
624.97	1331.90
625.32	1325.11
625.66	1318.10
626.01	1310.87
626.35	1303.52
626.70	1295.78
627.04	1288.07
627.39	1280.38
627.73	1273.11
628.08	1266.11
628.43	1258.74
628.77	1251.36
629.12	1243.81
629.46	1236.53
629.81	1229.22
630.15	1221.92
630.50	1214.51
630.84	1206.18
631.19	1198.38
631.53	1190.77
631.88	1183.26
632.22	1175.65
632.57	1168.39
632.91	1160.80
633.26	1153.46
633.60	1146.06
633.95	1138.89
634.29	1131.93
634.64	1125.15
634.98	1117.66
635.32	1110.44
635.67	1103.93
636.01	1097.31
636.36	1090.51
636.70	1083.99
637.05	1077.35
637.39	1070.85
637.73	1064.30
638.08	1058.54
638.42	1052.43
638.77	1045.98
639.11	1039.34
639.45	1032.98
639.80	1026.36
640.14	1020.03
640.49	1013.38
640.83	1007.01
641.17	1000.69
641.52	994.16
641.86	987.80
642.20	981.99
642.55	975.80
642.89	969.24
643.23	962.65
643.58	956.80
643.92	950.65
644.26	944.55
644.61	938.51
644.95	932.49
645.29	925.75
645.64	919.00
645.98	912.77
646.32	906.92
646.66	900.82
647.01	894.98
647.35	889.15
647.69	883.42
648.04	877.98
648.38	872.21
648.72	866.19
649.06	860.06
649.41	854.15
649.75	848.12
650.09	842.19
650.43	836.39
650.78	830.30
651.12	824.35
651.46	818.61
651.80	812.81
652.14	807.32
652.49	802.03
652.83	796.90
653.17	791.11
653.51	785.48
653.85	780.16
654.20	774.49
654.54	768.52
654.88	762.75
655.22	756.77
655.56	751.08
655.90	745.81
656.25	740.62
656.59	735.24
656.93	730.21
657.27	725.04
657.61	719.67
657.95	714.55
658.29	709.41
658.64	704.25
658.98	699.01
659.32	693.60
659.66	688.38
660.00	683.07
660.34	678.16
660.68	673.17
661.02	668.12
661.36	663.39
661.70	658.87
662.05	654.50
662.39	650.25
662.73	645.84
663.07	641.38
663.41	636.93
663.75	632.43
664.09	627.81
664.43	623.40
664.77	619.21
665.11	614.98
665.45	610.91
665.79	606.78
666.13	602.65
666.47	598.63
666.81	594.45
667.15	590.38
667.49	586.49
667.83	582.70
668.17	578.75
668.51	574.72
668.85	570.69
669.19	566.85
669.53	562.96
669.87	559.07
670.21	555.34
670.55	551.70
670.89	548.27
671.23	544.91
671.57	541.52
671.91	537.99
672.25	534.48
672.58	530.94
672.92	527.58
673.26	524.43
673.60	521.26
673.94	518.15
674.28	515.24
674.62	512.24
674.96	509.14
675.30	506.24
675.64	503.27
675.97	500.50
676.31	497.56
676.65	494.65
676.99	491.96
677.33	489.14
677.67	486.32
678.01	483.27
678.34	480.24
678.68	477.26
679.02	474.43
679.36	471.67
679.70	468.95
680.04	466.13
680.37	463.21
680.71	460.41
681.05	457.78
681.39	455.03
681.73	452.43
682.06	449.90
682.40	447.33
682.74	444.84
683.08	442.31
683.42	439.80
683.75	437.31
684.09	434.70
684.43	432.17
684.77	429.68
685.10	427.32
685.44	425.06
685.78	422.84
686.12	420.59
686.45	418.28
686.79	415.98
687.13	413.83
687.46	411.69
687.80	409.58
688.14	407.39
688.48	405.36
688.81	403.08
689.15	400.92
689.49	398.76
689.82	396.66
690.16	394.56
690.50	392.58
690.83	390.62
691.17	388.67
691.51	386.75
691.84	384.91
692.18	383.02
692.52	380.99
692.85	379.03
693.19	377.13
693.52	375.29
693.86	373.48
694.20	371.64
694.53	369.83
694.87	367.93
695.21	366.10
695.54	364.26
695.88	362.53
696.21	360.79
696.55	359.11
696.88	357.43
697.22	355.81
697.56	354.17
697.89	352.52
698.23	350.87
698.56	349.25
698.90	347.65
699.23	345.99
699.57	344.49
699.90	342.95
700.24	341.46
700.58	339.92
700.91	338.37
701.25	336.95
701.58	335.55
701.92	334.20
702.25	332.84
702.59	331.47
702.92	330.13
703.26	328.88
703.59	327.58
703.93	326.41
704.26	325.12
704.60	323.86
704.93	322.58
705.26	321.38
705.60	320.20
705.93	319.03
706.27	317.96
706.60	316.85
706.94	315.74
707.27	314.56
707.61	313.52
707.94	312.52
708.27	311.38
708.61	310.33
708.94	309.33
709.28	308.37
709.61	307.42
709.94	306.52
710.28	305.46
710.61	304.54
710.95	303.45
711.28	302.57
711.61	301.57
711.95	300.67
712.28	299.68
712.61	298.74
712.95	297.83
713.28	296.93
713.61	296.06
713.95	295.15
714.28	294.29
714.61	293.43
714.95	292.61
715.28	291.77
715.61	290.91
715.95	290.03
716.28	289.17
716.61	288.35
716.95	287.50
717.28	286.74
717.61	285.93
717.94	285.19
718.28	284.36
718.61	283.64
718.94	282.94
719.27	282.33
719.61	281.72
719.94	281.04
720.27	280.36
720.60	279.69
720.94	279.10
721.27	278.56
721.60	277.97
721.93	277.38
722.27	276.85
722.60	276.27
722.93	275.73
723.26	275.15
723.59	274.57
723.93	274.01
724.26	273.52
724.59	273.02
724.92	272.47
725.25	272.01
725.59	271.51
725.92	271.01
726.25	270.47
726.58	269.94
726.91	269.48
727.24	269.02
727.57	268.57
727.91	268.05
728.24	267.56
728.57	267.06
728.90	266.61
729.23	266.12
729.56	265.70
729.89	265.21
730.22	264.78
730.55	264.33
730.89	263.91
731.22	263.45
731.55	262.95
731.88	262.57
732.21	262.11
732.54	261.67
732.87	261.25
733.20	260.88
733.53	260.52
733.86	260.13
734.19	259.73
734.52	259.33
734.85	259.02
735.18	258.58
735.51	258.23
735.84	257.84
736.17	257.48
736.50	257.08
736.83	256.89
737.16	256.52
737.49	256.17
737.82	255.81
738.15	255.49
738.48	255.18
738.81	254.84
739.14	254.49
739.47	254.16
739.80	253.85
740.13	253.53
740.46	253.21
740.79	252.88
741.12	252.54
741.45	252.24
741.78	251.88
742.11	251.62
742.44	251.29
742.77	251.05
743.10	250.74
743.43	250.44
743.75	250.02
744.08	249.87
744.41	249.59
744.74	249.27
745.07	248.94
745.40	248.69
745.73	248.48
746.06	248.22
746.39	247.99
746.71	247.72
747.04	247.41
747.37	247.14
747.70	246.88
748.03	246.70
748.36	246.47
748.68	246.23
749.01	245.99
749.34	245.79
749.67	245.53
750.00	245.31
750.33	245.15
750.65	244.95
750.98	244.60
751.31	244.36
751.64	244.22
751.97	244.05
752.29	243.84
752.62	243.56
752.95	243.32
753.28	243.09
753.60	242.84
753.93	242.66
754.26	242.46
754.59	242.23
754.91	241.99
755.24	241.77
755.57	241.54
755.90	241.34
756.22	241.10
756.55	240.86
756.88	240.71
757.20	240.49
757.53	240.28
757.86	240.13
758.19	239.99
758.51	239.80
758.84	239.62
759.17	239.46
759.49	239.30
759.82	239.20
760.15	239.06
760.47	238.95
760.80	238.80
761.13	238.65
761.45	238.51
761.78	238.37
762.11	238.21
762.43	238.10
762.76	237.96
763.08	237.84
763.41	237.73
763.74	237.57
764.06	237.43
764.39	237.29
764.71	237.15
765.04	237.03
765.37	236.87
765.69	236.73
766.02	236.60
766.34	236.49
766.67	236.34
767.00	236.23
767.32	236.14
767.65	236.09
767.97	236.00
768.30	235.91
768.62	235.78
768.95	235.70
769.27	235.58
769.60	235.49
769.92	235.41
770.25	235.29
770.57	235.19
770.90	235.10
771.22	235.02
771.55	234.92
771.87	234.82
772.20	234.76
772.52	234.75
772.85	234.74
773.17	234.63
773.50	234.52
773.82	234.42
774.15	234.27
774.47	234.14
774.80	234.02
775.12	233.95
775.45	233.87
775.77	233.76
776.09	233.70
776.42	233.62
776.74	233.54
777.07	233.47
777.39	233.39
777.72	233.29
778.04	233.19
778.36	233.14
778.69	233.04
779.01	232.98
779.33	232.84
779.66	232.67
779.98	232.61
780.31	232.57
780.63	232.55
780.95	232.50
781.28	232.42
781.60	232.37
781.92	232.30
782.25	232.28
782.57	232.24
782.89	232.16
783.22	232.10
783.54	232.02
783.86	231.99
784.19	231.90
784.51	231.86
784.83	231.81
785.16	231.74
785.48	231.68
785.80	231.63
786.12	231.58
786.45	231.54
786.77	231.49
787.09	231.46
787.42	231.39
787.74	231.35
788.06	231.33
788.38	231.27
788.71	231.23
789.03	231.19
789.35	231.14
789.67	231.09
789.99	231.05
790.32	231.02
790.64	231.00
790.96	231.06
791.28	231.01
791.61	230.97
791.93	230.95
792.25	230.91
792.57	230.93
792.89	230.88
793.21	230.85
793.54	230.81
793.86	230.73
794.18	230.69
794.50	230.64
794.82	230.58
795.14	230.56
795.47	230.53
795.79	230.50
796.11	230.45
796.43	230.42
796.75	230.39
797.07	230.36
797.39	230.29
797.71	230.19
798.04	230.18
798.36	230.17
798.68	230.12
799.00	230.12
799.32	230.03
799.64	230.04
799.96	230.02
800.28	230.00
800.60	229.98
800.92	229.94
801.24	229.94
801.56	229.94
801.89	229.87
802.21	229.84
802.53	229.77
802.85	229.76
803.17	229.78
803.49	229.71
803.81	229.67
804.13	229.66
804.45	229.62
804.77	229.58
805.09	229.54
805.41	229.53
805.73	229.50
806.05	229.45
806.37	229.37
806.69	229.30
807.01	229.30
807.33	229.27
807.65	229.22
807.97	229.22
808.28	229.17
808.60	229.17
808.92	229.13
809.24	229.15
809.56	229.09
809.88	229.04
810.20	229.05
810.52	229.08
810.84	229.06
811.16	229.04
811.48	229.02
811.80	229.04
812.12	228.99
812.43	228.99
812.75	228.98
813.07	228.96
813.39	228.98
813.71	228.90
814.03	228.88
814.35	228.87
814.67	228.81
814.98	228.80
815.30	228.79
815.62	228.74
815.94	228.67
816.26	228.70
816.58	228.67
816.89	228.64
817.21	228.57
817.53	228.52
817.85	228.51
818.17	228.47
818.48	228.40
818.80	228.39
819.12	228.36
819.44	228.37
819.76	228.33
820.07	228.30
820.39	228.30
820.71	228.30
821.03	228.30
821.34	228.30
821.66	228.27
821.98	228.24
822.30	228.24
822.61	228.26
822.93	228.21
823.25	228.19
823.57	228.15
823.88	228.15
824.20	228.14
824.52	228.11
824.83	228.11
825.15	228.10
825.47	228.09
825.79	228.08
826.10	228.02
826.42	228.01
826.74	228.01
827.05	228.02
827.37	228.04
827.69	228.00
828.00	227.99
828.32	227.99
828.64	227.96
828.95	228.04
829.27	228.02
829.58	228.02
829.90	228.00
830.22	228.02
830.53	227.98
830.85	227.96
831.17	227.94
831.48	227.93
831.80	227.93
832.11	227.94
832.43	227.92
832.75	227.91
833.06	227.97
833.38	227.96
833.69	227.95
834.01	227.90
834.32	227.89
834.64	227.88
834.96	227.87
835.27	227.89
835.59	227.83
835.90	227.82
836.22	227.79
836.53	227.77
836.85	227.76
837.16	227.86
837.48	227.86
837.79	227.87
838.11	227.86
838.42	227.86
838.74	227.83
839.05	227.82
839.37	227.81
839.68	227.77
840.00	227.74
840.31	227.73
840.63	227.73
840.94	227.70
841.26	227.68
841.57	227.69
841.88	227.63
842.20	227.61
842.51	227.59
842.83	227.59
843.14	227.69
843.46	227.69
843.77	227.64
844.08	227.63
844.40	227.61
844.71	227.60
845.03	227.58
845.34	227.58
845.65	227.57
845.97	227.56
846.28	227.53
846.60	227.54
846.91	227.52
847.22	227.53
847.54	227.55
847.85	227.54
848.16	227.52
848.48	227.50
848.79	227.53
849.10	227.54
849.42	227.52
849.73	227.41
850.04	227.40
850.36	227.36
850.67	227.38
850.98	227.39
851.30	227.42
851.61	227.38
851.92	227.37
852.23	227.39
852.55	227.40
852.86	227.39
853.17	227.38
853.49	227.38
853.80	227.36
854.11	227.36
854.42	227.38
854.74	227.40
855.05	227.39
855.36	227.34
855.67	227.35
855.99	227.31
856.30	227.43
856.61	227.37
856.92	227.35
857.23	227.32
857.55	227.30
857.86	227.24
858.17	227.26
858.48	227.23
858.79	227.21
859.11	227.20
859.42	227.18
859.73	227.19
860.04	227.16
860.35	227.15
860.66	227.10
860.98	227.07
861.29	227.03
861.60	227.01
861.91	227.02
862.22	226.98
862.53	227.00
862.84	226.89
863.16	226.95
863.47	226.94
863.78	226.96
864.09	226.95
864.40	226.97
864.71	226.98
865.02	226.97
865.33	226.95
865.64	226.96
865.95	226.98
866.27	227.00
866.58	227.00
866.89	227.03
867.20	227.05
867.51	227.04
867.82	227.07
868.13	227.12
868.44	227.09
868.75	227.13
869.06	227.13
869.37	227.13
869.68	227.11
869.99	227.11
870.30	227.07
870.61	227.10
870.92	227.10
871.23	227.09
871.54	227.12
871.85	227.14
872.16	227.14
872.47	227.14
872.78	227.08
873.09	227.07
873.40	227.06
873.71	227.05
874.02	227.05
874.33	227.02
874.64	227.00
874.95	227.02
875.26	226.99
875.56	227.02
875.87	227.04
876.18	227.01
876.49	227.13
876.80	227.14
877.11	227.09
877.42	227.07
877.73	227.08
878.04	227.06
878.35	227.04
878.66	227.04
878.96	227.04
879.27	227.03
879.58	227.06
879.89	227.04
880.20	227.09
880.51	227.09
880.82	227.08
881.12	227.12
881.43	227.13
881.74	227.11
882.05	227.08
882.36	227.08
882.67	227.11
882.97	226.98
883.28	226.98
883.59	227.02
883.90	227.05
884.21	227.05
884.51	227.06
884.82	227.04
885.13	227.06
885.44	227.05
885.74	227.03
886.05	226.97
886.36	226.97
886.67	226.92
886.98	226.98
887.28	227.00
887.59	226.96
887.90	226.95
888.20	226.97
888.51	226.98
888.82	226.96
889.13	226.96
889.43	227.02
889.74	227.00
890.05	226.97
890.35	226.96
890.66	226.96
890.97	226.93
891.28	226.92
891.58	226.88
891.89	226.89
892.20	226.91
892.50	226.92
892.81	226.93
893.12	226.93
893.42	226.88
893.73	226.85
894.04	226.84
894.34	226.85
894.65	226.85
894.95	226.85
895.26	226.85
895.57	226.87
895.87	226.80
896.18	226.83
896.48	226.82
896.79	226.82
897.10	226.80
897.40	226.84
897.71	226.84
898.01	226.84
898.32	226.81
898.63	226.83
898.93	226.87
899.24	226.86
899.54	226.84
899.85	226.84
900.15	226.84
900.46	226.84
900.76	226.84
901.07	226.84
901.38	226.81
901.68	226.84
901.99	226.78
902.29	226.80
902.60	226.76
902.90	226.74
903.21	226.72
903.51	226.73
903.82	226.75
904.12	226.77
904.43	226.78
904.73	226.81
905.03	226.83
905.34	226.92
905.64	226.93
905.95	226.96
906.25	226.94
906.56	226.97
906.86	226.99
907.17	227.01
907.47	227.00
907.77	227.03
908.08	226.97
908.38	227.01
908.69	227.01
908.99	227.04
909.30	227.11
909.60	227.11
909.90	227.11
910.21	227.06
910.51	227.03
910.81	227.05
911.12	227.03
911.42	227.01
911.73	226.92
912.03	226.91
912.33	226.92
912.64	226.91
912.94	226.87
913.24	226.85
913.55	226.87
913.85	226.87
914.15	226.86
914.46	226.91
914.76	226.88
915.06	226.87
915.37	226.85
915.67	226.81
915.97	226.85
916.27	226.81
916.58	226.81
916.88	226.80
917.18	226.75
917.49	226.81
917.79	226.80
918.09	226.78
918.39	226.80
918.70	226.78
919.00	226.80
919.30	226.86
919.60	226.83
919.91	226.80
920.21	226.80
920.51	226.76
920.81	226.73
921.12	226.75
921.42	226.76
921.72	226.78
922.02	226.79
922.32	226.76
922.63	226.81
922.93	226.86
923.23	226.86
923.53	226.85
923.83	226.78
924.13	226.79
924.44	226.81
924.74	226.80
925.04	226.82
925.34	226.81
925.64	226.74
925.94	226.77
926.24	226.84
926.55	226.80
926.85	226.84
927.15	226.84
927.45	226.84
927.75	226.83
928.05	226.79
928.35	226.78
928.65	226.83
928.95	226.82
929.26	226.78
929.56	226.83
929.86	226.85
930.16	226.86
930.46	226.87
930.76	226.82
931.06	226.77
931.36	226.74
931.66	226.75
931.96	226.76
932.26	226.74
932.56	226.63
932.86	226.66
933.16	226.62
933.46	226.59
933.76	226.56
934.06	226.56
934.36	226.61
934.66	226.61
934.96	226.56
935.26	226.52
935.56	226.55
935.86	226.48
936.16	226.48
936.46	226.45
936.76	226.43
937.06	226.47
937.36	226.50
937.66	226.48
937.96	226.48
938.26	226.45
938.56	226.43
938.86	226.46
939.16	226.46
939.46	226.47
939.76	226.50
940.06	226.51
940.35	226.50
940.65	226.47
940.95	226.51
941.25	226.49
941.55	226.47
941.85	226.45
942.15	226.45
942.45	226.47
942.75	226.45
943.04	226.47
943.34	226.49
943.64	226.45
943.94	226.41
944.24	226.38
944.54	226.36
944.84	226.34
945.13	226.34
945.43	226.37
945.73	226.37
946.03	226.34
946.33	226.32
946.62	226.31
946.92	226.28
947.22	226.27
947.52	226.28
947.82	226.32
948.11	226.29
948.41	226.29
948.71	226.26
949.01	226.27
949.31	226.22
949.60	226.21
949.90	226.25
950.20	226.28
950.50	226.31
950.79	226.37
951.09	226.41
951.39	226.39
951.69	226.35
951.98	226.36
952.28	226.37
952.58	226.37
952.87	226.38
953.17	226.40
953.47	226.36
953.76	226.39
954.06	226.35
954.36	226.35
954.66	226.36
954.95	226.38
955.25	226.40
955.55	226.45
955.84	226.44
956.14	226.46
956.44	226.47
956.73	226.48
957.03	226.46
957.32	226.48
957.62	226.51
957.92	226.48
958.21	226.51
958.51	226.64
958.81	226.65
959.10	226.67
959.40	226.70
959.69	226.74
959.99	226.73
960.29	226.72
960.58	226.69
960.88	226.75
961.17	226.78
961.47	226.78
961.76	226.77
962.06	226.77
962.36	226.75
962.65	226.73
962.95	226.71
963.24	226.71
963.54	226.71
963.83	226.69
964.13	226.71
964.42	226.71
964.72	226.62
965.01	226.62
965.31	226.60
965.60	226.56
965.90	226.60
966.19	226.57
966.49	226.59
966.78	226.59
967.08	226.54
967.37	226.51
967.67	226.47
967.96	226.47
968.26	226.46
968.55	226.45
968.85	226.44
969.14	226.41
969.43	226.43
969.73	226.38
970.02	226.39
970.32	226.40
970.61	226.34
970.91	226.33
971.20	226.30
971.49	226.29
971.79	226.31
972.08	226.27
972.38	226.27
972.67	226.25
972.96	226.24
973.26	226.23
973.55	226.26
973.85	226.29
974.14	226.29
974.43	226.31
974.73	226.30
975.02	226.28
975.31	226.33
975.61	226.32
975.90	226.35
976.19	226.34
976.49	226.32
976.78	226.32
977.07	226.28
977.37	226.30
977.66	226.30
977.95	226.25
978.24	226.24
978.54	226.28
978.83	226.33
979.12	226.36
979.42	226.37
979.71	226.36
980.00	226.35
980.29	226.34
980.59	226.33
980.88	226.40
981.17	226.42
981.46	226.45
981.76	226.45
982.05	226.50
982.34	226.51
982.63	226.55
982.93	226.56
983.22	226.61
983.51	226.65
983.80	226.68
984.09	226.74
984.39	226.75
984.68	226.74
984.97	226.76
985.26	226.74
985.55	226.78
985.85	226.79
986.14	226.86
986.43	226.85
986.72	226.85
987.01	226.79
987.30	226.81
987.59	226.76
987.89	226.80
988.18	226.76
988.47	226.78
988.76	226.76
989.05	226.79
989.34	226.79
989.63	226.79
989.92	226.81
990.22	226.79
990.51	226.80
990.80	226.81
991.09	226.79
991.38	226.86
991.67	226.84
991.96	226.84
992.25	226.80
992.54	226.84
992.83	226.84
993.12	226.86
993.41	226.87
993.70	226.94
993.99	226.92
994.28	226.90
994.58	226.91
994.87	226.92
995.16	226.90
995.45	226.88
995.74	226.86
996.03	226.86
996.32	226.86
996.61	226.87
996.90	226.87
997.19	226.85
997.48	226.83
997.77	226.83
998.06	226.81
998.34	226.77
998.63	226.76
998.92	226.75
999.21	226.76
999.50	226.75
999.79	226.69
1000.08	226.68
1000.37	226.66
1000.66	226.65
1000.95	226.66
1001.24	226.65
1001.53	226.67
1001.82	226.66
1002.11	226.64
1002.40	226.62
1002.68	226.63
1002.97	226.64
1003.26	226.62
1003.55	226.59
1003.84	226.59
1004.13	226.60
1004.42	226.59
1004.71	226.56
1004.99	226.54
1005.28	226.52
1005.57	226.51
1005.86	226.45
1006.15	226.42
1006.44	226.39
1006.72	226.35
1007.01	226.31
1007.30	226.31
1007.59	226.29
1007.88	226.25
1008.17	226.24
1008.45	226.24
1008.74	226.20
1009.03	226.15
1009.32	226.16
1009.60	226.14
1009.89	226.13
1010.18	226.08
1010.47	226.08
1010.76	226.06
1011.04	226.04
1011.33	226.04
1011.62	226.04
1011.91	226.09
1012.19	226.08
1012.48	226.11
1012.77	226.14
1013.05	226.17
1013.34	226.18
1013.63	226.17
1013.92	226.20
1014.20	226.21
1014.49	226.22
1014.78	226.24
1015.06	226.22
1015.35	226.22
1015.64	226.22
1015.92	226.24
1016.21	226.26
1016.50	226.26
1016.78	226.31
1017.07	226.33
1017.36	226.35
1017.64	226.35
1017.93	226.36
1018.22	226.36
1018.50	226.36
1018.79	226.34
1019.08	226.30
1019.36	226.33
1019.65	226.31
1019.93	226.33
1020.22	226.36
1020.51	226.42
1020.79	226.39
1021.08	226.14
1021.36	225.89
1021.65	226.07
1021.94	226.00
1022.22	226.96
1022.51	225.87
1022.79	226.88
1023.08	227.22
1023.36	227.68
1023.65	225.86
>>>>>End Processed Spectral Data<<<<<
