SpectraSuite Data File
++++++++++++++++++++++++++++++++++++
Date: Fri Feb 01 15:01:49 EST 2013
User: group
Dark Spectrum Present: No
Reference Spectrum Present: No
Number of Sampled Component Spectra: 1
Spectrometers: USB2E7196
Integration Time (usec): 35000 (USB2E7196)
Spectra Averaged: 100 (USB2E7196)
Boxcar Smoothing: 10 (USB2E7196)
Correct for Electrical Dark: No (USB2E7196)
Strobe/Lamp Enabled: No (USB2E7196)
Correct for Detector Non-linearity: No (USB2E7196)
Correct for Stray Light: No (USB2E7196)
Number of Pixels in Processed Spectrum: 2048
>>>>>Begin Processed Spectral Data<<<<<
339.09	0.00
339.48	215.07
339.86	216.64
340.24	218.02
340.63	219.32
341.01	222.70
341.39	222.17
341.78	223.53
342.16	224.87
342.54	224.91
342.93	213.55
343.31	224.36
343.69	224.90
344.07	225.34
344.46	225.75
344.84	226.14
345.22	226.37
345.60	226.61
345.99	226.81
346.37	226.93
346.75	227.05
347.13	227.12
347.52	227.21
347.90	227.27
348.28	227.32
348.66	227.31
349.05	227.32
349.43	227.36
349.81	227.38
350.19	227.44
350.57	227.49
350.96	227.61
351.34	227.67
351.72	227.74
352.10	227.86
352.48	227.97
352.87	227.98
353.25	228.04
353.63	228.09
354.01	228.14
354.39	228.24
354.77	228.30
355.15	228.37
355.54	228.43
355.92	228.48
356.30	228.54
356.68	228.68
357.06	228.74
357.44	228.76
357.82	228.81
358.20	228.87
358.58	228.94
358.97	228.97
359.35	229.06
359.73	229.14
360.11	229.20
360.49	229.23
360.87	229.31
361.25	229.35
361.63	229.45
362.01	229.49
362.39	229.48
362.77	229.53
363.15	229.57
363.53	229.59
363.91	229.58
364.29	229.59
364.67	229.49
365.05	229.52
365.43	229.54
365.81	229.54
366.19	229.59
366.57	229.63
366.95	229.61
367.33	229.58
367.71	229.57
368.09	229.56
368.47	229.52
368.85	229.49
369.23	229.47
369.61	229.35
369.99	229.35
370.37	229.34
370.75	229.32
371.13	229.25
371.51	229.20
371.89	229.16
372.27	229.11
372.65	229.04
373.03	228.97
373.41	228.93
373.78	228.89
374.16	228.74
374.54	228.66
374.92	228.58
375.30	228.48
375.68	228.38
376.06	228.28
376.44	228.21
376.82	228.12
377.19	228.05
377.57	227.98
377.95	227.88
378.33	227.80
378.71	227.64
379.09	227.57
379.47	227.48
379.84	227.42
380.22	227.35
380.60	227.29
380.98	227.19
381.36	227.09
381.73	226.99
382.11	226.95
382.49	226.87
382.87	226.80
383.25	226.74
383.62	226.80
384.00	226.72
384.38	226.66
384.76	226.62
385.13	226.62
385.51	226.55
385.89	226.49
386.27	226.47
386.64	226.44
387.02	226.37
387.40	226.34
387.78	226.29
388.15	226.28
388.53	226.24
388.91	226.23
389.29	226.20
389.66	226.24
390.04	226.22
390.42	226.20
390.79	226.19
391.17	226.18
391.55	226.04
391.92	226.07
392.30	226.08
392.68	226.08
393.05	226.07
393.43	226.11
393.81	226.12
394.18	226.10
394.56	226.14
394.94	226.20
395.31	226.22
395.69	226.25
396.06	226.29
396.44	226.33
396.82	226.40
397.19	226.51
397.57	226.51
397.95	226.57
398.32	226.61
398.70	226.69
399.07	226.78
399.45	226.88
399.82	226.94
400.20	226.99
400.58	227.11
400.95	227.17
401.33	227.30
401.70	227.44
402.08	227.55
402.45	227.66
402.83	227.78
403.20	227.89
403.58	228.01
403.95	228.12
404.33	228.26
404.71	228.37
405.08	228.57
405.46	228.72
405.83	228.88
406.21	229.04
406.58	229.20
406.96	229.33
407.33	229.52
407.70	229.72
408.08	230.02
408.45	230.21
408.83	230.43
409.20	230.62
409.58	230.82
409.95	231.07
410.33	231.34
410.70	231.62
411.08	231.94
411.45	232.25
411.82	232.58
412.20	232.95
412.57	233.33
412.95	233.63
413.32	234.05
413.69	234.44
414.07	234.88
414.44	235.35
414.82	235.88
415.19	236.42
415.56	236.98
415.94	237.52
416.31	238.14
416.68	238.77
417.06	239.49
417.43	240.16
417.81	240.92
418.18	241.69
418.55	242.49
418.93	243.34
419.30	244.26
419.67	245.18
420.04	246.14
420.42	247.14
420.79	248.30
421.16	249.45
421.54	250.63
421.91	251.85
422.28	253.10
422.66	254.43
423.03	255.73
423.40	257.07
423.77	258.48
424.15	259.90
424.52	261.41
424.89	263.01
425.26	264.56
425.64	266.03
426.01	267.65
426.38	269.33
426.75	271.01
427.13	272.72
427.50	274.55
427.87	276.44
428.24	278.31
428.61	280.06
428.99	281.98
429.36	284.07
429.73	286.14
430.10	288.17
430.47	290.22
430.85	292.30
431.22	294.51
431.59	296.87
431.96	299.13
432.33	301.65
432.70	304.05
433.08	306.87
433.45	309.56
433.82	312.15
434.19	315.04
434.56	317.87
434.93	320.51
435.30	323.13
435.68	326.06
436.05	328.91
436.42	331.73
436.79	334.30
437.16	337.02
437.53	339.89
437.90	342.73
438.27	345.49
438.64	348.35
439.01	350.93
439.38	353.17
439.75	355.34
440.13	357.80
440.50	360.17
440.87	361.99
441.24	363.96
441.61	366.16
441.98	367.69
442.35	369.49
442.72	371.33
443.09	373.17
443.46	374.16
443.83	374.74
444.20	375.28
444.57	376.12
444.94	376.44
445.31	376.71
445.68	377.04
446.05	377.10
446.42	376.72
446.79	376.35
447.16	375.96
447.53	375.70
447.90	374.53
448.27	373.32
448.64	371.81
449.01	370.63
449.37	368.63
449.74	366.69
450.11	364.43
450.48	361.98
450.85	359.42
451.22	357.25
451.59	355.26
451.96	353.28
452.33	350.63
452.70	348.22
453.07	345.44
453.43	342.54
453.80	339.78
454.17	337.13
454.54	334.60
454.91	331.87
455.28	329.14
455.65	326.68
456.02	324.22
456.38	322.02
456.75	319.36
457.12	317.10
457.49	314.90
457.86	312.73
458.23	310.89
458.59	308.84
458.96	306.76
459.33	304.85
459.70	302.98
460.07	301.51
460.43	299.81
460.80	298.18
461.17	296.75
461.54	295.26
461.91	293.79
462.27	292.27
462.64	291.01
463.01	289.65
463.38	288.33
463.74	286.94
464.11	285.80
464.48	284.78
464.85	283.64
465.21	282.76
465.58	281.82
465.95	280.70
466.32	279.75
466.68	278.81
467.05	277.91
467.42	276.99
467.78	276.00
468.15	275.12
468.52	274.42
468.88	273.57
469.25	272.76
469.62	272.14
469.98	271.51
470.35	270.86
470.72	270.25
471.08	269.58
471.45	269.05
471.82	268.45
472.18	267.81
472.55	267.41
472.92	266.88
473.28	266.40
473.65	265.93
474.02	265.53
474.38	265.16
474.75	264.80
475.11	264.46
475.48	264.21
475.85	264.01
476.21	263.74
476.58	263.55
476.94	263.39
477.31	263.19
477.67	263.02
478.04	262.92
478.41	262.84
478.77	262.91
479.14	262.83
479.50	262.87
479.87	262.95
480.23	263.00
480.60	263.05
480.96	263.15
481.33	263.35
481.69	263.46
482.06	263.68
482.42	263.91
482.79	264.15
483.15	264.49
483.52	264.81
483.88	265.17
484.25	265.54
484.61	265.97
484.98	266.41
485.34	266.94
485.71	267.49
486.07	268.11
486.44	268.63
486.80	269.37
487.17	270.09
487.53	270.89
487.90	271.75
488.26	272.68
488.62	273.64
488.99	274.61
489.35	275.73
489.72	276.83
490.08	278.02
490.44	279.24
490.81	280.55
491.17	281.93
491.54	283.41
491.90	284.92
492.26	286.55
492.63	288.30
492.99	290.07
493.36	291.94
493.72	293.92
494.08	296.03
494.45	298.26
494.81	300.59
495.17	303.06
495.54	305.62
495.90	308.28
496.26	311.10
496.63	314.10
496.99	317.18
497.35	320.45
497.72	323.83
498.08	327.34
498.44	331.00
498.80	334.83
499.17	338.83
499.53	342.97
499.89	347.30
500.26	351.81
500.62	356.47
500.98	361.44
501.34	366.53
501.71	371.82
502.07	377.20
502.43	382.81
502.79	388.55
503.16	394.56
503.52	400.84
503.88	407.20
504.24	413.76
504.60	420.63
504.97	427.71
505.33	435.08
505.69	442.76
506.05	450.50
506.41	458.43
506.78	466.56
507.14	475.03
507.50	483.74
507.86	492.71
508.22	501.91
508.59	511.09
508.95	520.64
509.31	530.43
509.67	540.52
510.03	550.80
510.39	561.35
510.75	572.15
511.12	583.02
511.48	594.37
511.84	605.79
512.20	617.31
512.56	629.24
512.92	641.38
513.28	653.71
513.64	666.20
514.00	678.85
514.37	691.77
514.73	704.84
515.09	717.96
515.45	731.24
515.81	744.82
516.17	758.75
516.53	772.82
516.89	786.98
517.25	801.18
517.61	815.49
517.97	829.97
518.33	844.41
518.69	859.17
519.05	874.12
519.41	889.35
519.77	905.01
520.13	920.52
520.49	935.95
520.85	951.36
521.21	967.12
521.57	983.48
521.93	999.36
522.29	1015.83
522.65	1032.02
523.01	1048.36
523.37	1064.48
523.73	1080.78
524.09	1096.97
524.45	1113.39
524.81	1129.98
525.17	1146.94
525.53	1164.03
525.89	1181.03
526.25	1197.90
526.61	1214.33
526.97	1231.11
527.33	1247.63
527.68	1264.31
528.04	1280.70
528.40	1297.39
528.76	1314.48
529.12	1331.09
529.48	1348.06
529.84	1364.15
530.20	1380.86
530.56	1397.92
530.91	1415.35
531.27	1432.20
531.63	1448.78
531.99	1465.48
532.35	1481.64
532.71	1497.64
533.07	1513.93
533.42	1529.82
533.78	1546.10
534.14	1562.42
534.50	1577.93
534.86	1593.84
535.21	1609.04
535.57	1625.21
535.93	1640.83
536.29	1655.73
536.65	1670.92
537.00	1685.87
537.36	1701.28
537.72	1716.05
538.08	1730.51
538.44	1744.39
538.79	1758.44
539.15	1772.31
539.51	1786.12
539.87	1800.54
540.22	1814.40
540.58	1828.16
540.94	1841.56
541.29	1854.61
541.65	1867.56
542.01	1880.84
542.37	1893.21
542.72	1905.86
543.08	1917.70
543.44	1930.27
543.79	1941.67
544.15	1952.85
544.51	1964.39
544.87	1975.39
545.22	1986.12
545.58	1996.41
545.94	2006.32
546.29	2016.13
546.65	2025.88
547.01	2035.11
547.36	2043.88
547.72	2052.35
548.07	2060.28
548.43	2068.60
548.79	2076.54
549.14	2084.05
549.50	2091.43
549.86	2099.29
550.21	2106.46
550.57	2113.69
550.92	2120.19
551.28	2127.22
551.64	2134.10
551.99	2140.65
552.35	2146.70
552.70	2152.81
553.06	2158.69
553.41	2165.01
553.77	2171.11
554.13	2177.09
554.48	2183.05
554.84	2188.42
555.19	2193.69
555.55	2198.75
555.90	2203.26
556.26	2208.00
556.61	2212.70
556.97	2216.75
557.32	2220.70
557.68	2224.68
558.03	2228.77
558.39	2232.45
558.74	2237.03
559.10	2240.88
559.45	2244.45
559.81	2248.92
560.16	2252.64
560.52	2255.85
560.87	2259.23
561.23	2261.80
561.58	2264.81
561.94	2267.43
562.29	2269.89
562.64	2272.58
563.00	2275.22
563.35	2278.67
563.71	2281.76
564.06	2284.82
564.42	2287.75
564.77	2290.12
565.12	2292.39
565.48	2294.25
565.83	2295.87
566.19	2297.13
566.54	2298.11
566.89	2299.10
567.25	2299.38
567.60	2300.85
567.96	2302.46
568.31	2303.13
568.66	2304.02
569.02	2304.47
569.37	2304.63
569.72	2305.28
570.08	2305.25
570.43	2305.00
570.78	2304.09
571.14	2302.42
571.49	2301.00
571.84	2300.51
572.20	2299.28
572.55	2298.08
572.90	2296.55
573.26	2295.11
573.61	2293.14
573.96	2291.11
574.31	2288.01
574.67	2284.84
575.02	2280.94
575.37	2277.40
575.72	2273.41
576.08	2270.02
576.43	2266.57
576.78	2262.81
577.13	2259.47
577.49	2256.30
577.84	2252.75
578.19	2248.98
578.54	2245.24
578.90	2240.96
579.25	2235.33
579.60	2230.16
579.95	2225.02
580.30	2219.88
580.66	2214.67
581.01	2209.65
581.36	2204.53
581.71	2200.20
582.06	2195.74
582.42	2191.05
582.77	2185.75
583.12	2181.05
583.47	2176.26
583.82	2171.15
584.17	2165.66
584.53	2160.07
584.88	2154.34
585.23	2148.42
585.58	2142.79
585.93	2137.25
586.28	2132.19
586.63	2126.91
586.98	2121.79
587.34	2117.14
587.69	2112.07
588.04	2106.59
588.39	2100.78
588.74	2094.17
589.09	2087.94
589.44	2081.00
589.79	2074.96
590.14	2069.17
590.49	2062.59
590.84	2055.92
591.19	2049.63
591.54	2043.29
591.89	2035.54
592.25	2028.46
592.60	2021.25
592.95	2013.50
593.30	2006.03
593.65	1998.33
594.00	1991.25
594.35	1983.98
594.70	1975.76
595.05	1968.28
595.40	1960.95
595.75	1953.32
596.10	1947.05
596.45	1940.08
596.80	1933.80
597.15	1927.04
597.50	1919.83
597.85	1913.26
598.19	1906.67
598.54	1899.64
598.89	1892.88
599.24	1887.02
599.59	1880.21
599.94	1873.93
600.29	1867.55
600.64	1860.86
600.99	1853.35
601.34	1846.43
601.69	1839.22
602.04	1832.19
602.39	1824.93
602.74	1818.03
603.08	1811.23
603.43	1804.49
603.78	1797.26
604.13	1790.00
604.48	1782.66
604.83	1775.74
605.18	1768.62
605.53	1760.56
605.87	1752.57
606.22	1745.29
606.57	1737.48
606.92	1730.25
607.27	1722.96
607.62	1716.02
607.96	1708.66
608.31	1701.99
608.66	1694.30
609.01	1686.87
609.36	1679.29
609.70	1671.28
610.05	1663.33
610.40	1655.71
610.75	1647.32
611.10	1639.66
611.44	1631.25
611.79	1623.29
612.14	1614.63
612.49	1605.65
612.83	1597.20
613.18	1589.01
613.53	1580.89
613.88	1572.44
614.22	1564.22
614.57	1555.68
614.92	1547.72
615.27	1540.24
615.61	1532.03
615.96	1524.08
616.31	1516.44
616.65	1509.27
617.00	1501.69
617.35	1494.01
617.70	1485.64
618.04	1477.21
618.39	1469.03
618.74	1461.48
619.08	1453.27
619.43	1445.79
619.78	1438.97
620.12	1431.81
620.47	1424.40
620.82	1416.30
621.16	1408.85
621.51	1401.09
621.85	1393.62
622.20	1385.10
622.55	1376.88
622.89	1369.05
623.24	1361.54
623.59	1354.35
623.93	1346.83
624.28	1339.63
624.62	1332.19
624.97	1325.11
625.32	1318.41
625.66	1311.34
626.01	1304.17
626.35	1296.69
626.70	1289.00
627.04	1281.17
627.39	1273.50
627.73	1266.11
628.08	1259.21
628.43	1251.93
628.77	1244.72
629.12	1237.04
629.46	1229.90
629.81	1222.52
630.15	1215.37
630.50	1208.04
630.84	1199.71
631.19	1191.83
631.53	1184.39
631.88	1176.84
632.22	1169.30
632.57	1162.12
632.91	1154.71
633.26	1147.43
633.60	1140.11
633.95	1133.14
634.29	1126.28
634.64	1119.60
634.98	1112.33
635.32	1105.32
635.67	1098.80
636.01	1092.24
636.36	1085.56
636.70	1079.16
637.05	1072.65
637.39	1066.23
637.73	1059.76
638.08	1054.02
638.42	1048.05
638.77	1041.70
639.11	1035.15
639.45	1028.73
639.80	1022.01
640.14	1015.60
640.49	1009.03
640.83	1002.90
641.17	996.62
641.52	990.26
641.86	983.96
642.20	978.06
642.55	971.77
642.89	965.31
643.23	958.83
643.58	953.04
643.92	946.85
644.26	940.73
644.61	934.77
644.95	928.64
645.29	922.02
645.64	915.31
645.98	909.02
646.32	903.22
646.66	897.18
647.01	891.42
647.35	885.75
647.69	879.99
648.04	874.35
648.38	868.61
648.72	862.56
649.06	856.52
649.41	850.69
649.75	844.69
650.09	838.74
650.43	832.98
650.78	826.86
651.12	820.92
651.46	815.27
651.80	809.45
652.14	804.17
652.49	798.85
652.83	793.68
653.17	787.95
653.51	782.16
653.85	776.80
654.20	771.20
654.54	765.25
654.88	759.58
655.22	753.79
655.56	748.09
655.90	742.71
656.25	737.42
656.59	732.05
656.93	727.03
657.27	721.90
657.61	716.45
657.95	711.38
658.29	706.32
658.64	701.10
658.98	695.91
659.32	690.40
659.66	685.20
660.00	679.88
660.34	674.98
660.68	670.16
661.02	665.16
661.36	660.49
661.70	656.00
662.05	651.64
662.39	647.30
662.73	642.86
663.07	638.57
663.41	634.16
663.75	629.63
664.09	625.08
664.43	620.78
664.77	616.61
665.11	612.37
665.45	608.26
665.79	604.17
666.13	600.06
666.47	595.98
666.81	591.79
667.15	587.74
667.49	583.91
667.83	580.15
668.17	576.25
668.51	572.17
668.85	568.14
669.19	564.35
669.53	560.51
669.87	556.70
670.21	553.02
670.55	549.44
670.89	546.12
671.23	542.68
671.57	539.20
671.91	535.77
672.25	532.34
672.58	528.85
672.92	525.48
673.26	522.38
673.60	519.30
673.94	516.33
674.28	513.42
674.62	510.44
674.96	507.31
675.30	504.46
675.64	501.56
675.97	498.91
676.31	496.03
676.65	493.14
676.99	490.48
677.33	487.58
677.67	484.75
678.01	481.74
678.34	478.84
678.68	476.03
679.02	473.21
679.36	470.45
679.70	467.79
680.04	465.07
680.37	462.16
680.71	459.38
681.05	456.71
681.39	454.03
681.73	451.42
682.06	448.94
682.40	446.48
682.74	443.98
683.08	441.43
683.42	438.85
683.75	436.34
684.09	433.78
684.43	431.37
684.77	428.92
685.10	426.59
685.44	424.28
685.78	421.98
686.12	419.74
686.45	417.50
686.79	415.16
687.13	412.98
687.46	410.82
687.80	408.66
688.14	406.48
688.48	404.44
688.81	402.19
689.15	400.06
689.49	397.88
689.82	395.80
690.16	393.71
690.50	391.79
690.83	389.89
691.17	387.91
691.51	385.98
691.84	384.17
692.18	382.25
692.52	380.31
692.85	378.40
693.19	376.52
693.52	374.65
693.86	372.92
694.20	371.14
694.53	369.40
694.87	367.61
695.21	365.86
695.54	364.07
695.88	362.39
696.21	360.68
696.55	359.03
696.88	357.40
697.22	355.71
697.56	354.07
697.89	352.41
698.23	350.82
698.56	349.26
698.90	347.67
699.23	345.98
699.57	344.45
699.90	342.88
700.24	341.35
700.58	339.85
700.91	338.33
701.25	336.87
701.58	335.49
701.92	334.15
702.25	332.81
702.59	331.41
702.92	330.11
703.26	328.78
703.59	327.45
703.93	326.20
704.26	325.06
704.60	323.83
704.93	322.55
705.26	321.32
705.60	320.16
705.93	319.03
706.27	318.02
706.60	316.95
706.94	315.94
707.27	314.80
707.61	313.74
707.94	312.74
708.27	311.65
708.61	310.57
708.94	309.55
709.28	308.56
709.61	307.61
709.94	306.63
710.28	305.61
710.61	304.68
710.95	303.64
711.28	302.68
711.61	301.70
711.95	300.79
712.28	299.83
712.61	298.85
712.95	297.92
713.28	297.04
713.61	296.14
713.95	295.21
714.28	294.44
714.61	293.60
714.95	292.72
715.28	291.89
715.61	291.05
715.95	290.17
716.28	289.33
716.61	288.52
716.95	287.74
717.28	287.04
717.61	286.27
717.94	285.53
718.28	284.74
718.61	284.01
718.94	283.36
719.27	282.71
719.61	282.06
719.94	281.39
720.27	280.70
720.60	279.99
720.94	279.40
721.27	278.73
721.60	278.15
721.93	277.59
722.27	277.09
722.60	276.51
722.93	275.98
723.26	275.42
723.59	274.87
723.93	274.34
724.26	273.77
724.59	273.20
724.92	272.70
725.25	272.19
725.59	271.65
725.92	271.13
726.25	270.62
726.58	270.12
726.91	269.65
727.24	269.19
727.57	268.77
727.91	268.26
728.24	267.80
728.57	267.32
728.90	266.86
729.23	266.34
729.56	265.93
729.89	265.48
730.22	265.00
730.55	264.54
730.89	264.09
731.22	263.65
731.55	263.23
731.88	262.80
732.21	262.37
732.54	261.97
732.87	261.58
733.20	261.19
733.53	260.82
733.86	260.43
734.19	260.02
734.52	259.65
734.85	259.34
735.18	258.93
735.51	258.57
735.84	258.19
736.17	257.85
736.50	257.43
736.83	257.20
737.16	256.88
737.49	256.52
737.82	256.16
738.15	255.81
738.48	255.47
738.81	255.13
739.14	254.81
739.47	254.53
739.80	254.21
740.13	253.90
740.46	253.59
740.79	253.29
741.12	253.00
741.45	252.68
741.78	252.34
742.11	252.09
742.44	251.75
742.77	251.49
743.10	251.18
743.43	250.91
743.75	250.51
744.08	250.34
744.41	250.09
744.74	249.83
745.07	249.59
745.40	249.35
745.73	249.12
746.06	248.83
746.39	248.58
746.71	248.30
747.04	248.03
747.37	247.76
747.70	247.50
748.03	247.20
748.36	246.99
748.68	246.75
749.01	246.49
749.34	246.25
749.67	245.99
750.00	245.80
750.33	245.65
750.65	245.43
750.98	245.11
751.31	244.88
751.64	244.67
751.97	244.44
752.29	244.22
752.62	243.98
752.95	243.76
753.28	243.54
753.60	243.33
753.93	243.17
754.26	242.95
754.59	242.72
754.91	242.55
755.24	242.33
755.57	242.11
755.90	241.94
756.22	241.75
756.55	241.53
756.88	241.33
757.20	241.05
757.53	240.89
757.86	240.72
758.19	240.60
758.51	240.45
758.84	240.27
759.17	240.11
759.49	239.96
759.82	239.85
760.15	239.71
760.47	239.57
760.80	239.35
761.13	239.26
761.45	239.10
761.78	238.95
762.11	238.83
762.43	238.72
762.76	238.59
763.08	238.46
763.41	238.35
763.74	238.21
764.06	238.12
764.39	237.97
764.71	237.87
765.04	237.66
765.37	237.53
765.69	237.40
766.02	237.28
766.34	237.13
766.67	236.98
767.00	236.84
767.32	236.77
767.65	236.75
767.97	236.62
768.30	236.52
768.62	236.43
768.95	236.29
769.27	236.15
769.60	236.02
769.92	235.95
770.25	235.82
770.57	235.69
770.90	235.58
771.22	235.47
771.55	235.32
771.87	235.26
772.20	235.15
772.52	235.15
772.85	235.20
773.17	235.13
773.50	235.02
773.82	234.91
774.15	234.74
774.47	234.61
774.80	234.52
775.12	234.44
775.45	234.33
775.77	234.23
776.09	234.15
776.42	234.10
776.74	234.03
777.07	233.94
777.39	233.85
777.72	233.75
778.04	233.70
778.36	233.67
778.69	233.59
779.01	233.55
779.33	233.41
779.66	233.21
779.98	233.14
780.31	233.09
780.63	233.07
780.95	233.07
781.28	232.96
781.60	232.86
781.92	232.79
782.25	232.76
782.57	232.71
782.89	232.61
783.22	232.52
783.54	232.45
783.86	232.41
784.19	232.34
784.51	232.32
784.83	232.24
785.16	232.17
785.48	232.09
785.80	232.01
786.12	231.94
786.45	231.85
786.77	231.79
787.09	231.71
787.42	231.63
787.74	231.57
788.06	231.54
788.38	231.50
788.71	231.41
789.03	231.36
789.35	231.30
789.67	231.25
789.99	231.22
790.32	231.15
790.64	231.14
790.96	231.18
791.28	231.11
791.61	231.09
791.93	231.05
792.25	231.02
792.57	231.05
792.89	230.98
793.21	230.97
793.54	230.95
793.86	230.92
794.18	230.90
794.50	230.86
794.82	230.82
795.14	230.84
795.47	230.86
795.79	230.82
796.11	230.78
796.43	230.79
796.75	230.77
797.07	230.77
797.39	230.71
797.71	230.63
798.04	230.58
798.36	230.54
798.68	230.51
799.00	230.50
799.32	230.44
799.64	230.47
799.96	230.45
800.28	230.42
800.60	230.39
800.92	230.37
801.24	230.31
801.56	230.30
801.89	230.24
802.21	230.21
802.53	230.16
802.85	230.16
803.17	230.12
803.49	230.08
803.81	230.01
804.13	229.99
804.45	229.95
804.77	229.93
805.09	229.90
805.41	229.86
805.73	229.81
806.05	229.73
806.37	229.67
806.69	229.61
807.01	229.58
807.33	229.53
807.65	229.47
807.97	229.50
808.28	229.46
808.60	229.42
808.92	229.41
809.24	229.44
809.56	229.38
809.88	229.36
810.20	229.34
810.52	229.38
810.84	229.35
811.16	229.33
811.48	229.32
811.80	229.33
812.12	229.29
812.43	229.25
812.75	229.26
813.07	229.22
813.39	229.22
813.71	229.18
814.03	229.15
814.35	229.11
814.67	229.04
814.98	229.03
815.30	229.01
815.62	228.94
815.94	228.87
816.26	228.90
816.58	228.87
816.89	228.87
817.21	228.79
817.53	228.79
817.85	228.76
818.17	228.71
818.48	228.62
818.80	228.64
819.12	228.63
819.44	228.61
819.76	228.58
820.07	228.57
820.39	228.53
820.71	228.56
821.03	228.55
821.34	228.51
821.66	228.50
821.98	228.53
822.30	228.52
822.61	228.56
822.93	228.50
823.25	228.43
823.57	228.40
823.88	228.43
824.20	228.40
824.52	228.40
824.83	228.40
825.15	228.39
825.47	228.36
825.79	228.37
826.10	228.33
826.42	228.32
826.74	228.32
827.05	228.31
827.37	228.31
827.69	228.34
828.00	228.36
828.32	228.39
828.64	228.35
828.95	228.39
829.27	228.34
829.58	228.30
829.90	228.34
830.22	228.34
830.53	228.30
830.85	228.28
831.17	228.27
831.48	228.25
831.80	228.27
832.11	228.29
832.43	228.26
832.75	228.26
833.06	228.32
833.38	228.28
833.69	228.29
834.01	228.27
834.32	228.22
834.64	228.20
834.96	228.17
835.27	228.15
835.59	228.14
835.90	228.14
836.22	228.18
836.53	228.13
836.85	228.13
837.16	228.23
837.48	228.22
837.79	228.27
838.11	228.30
838.42	228.32
838.74	228.30
839.05	228.31
839.37	228.30
839.68	228.24
840.00	228.26
840.31	228.29
840.63	228.27
840.94	228.27
841.26	228.27
841.57	228.28
841.88	228.29
842.20	228.26
842.51	228.24
842.83	228.26
843.14	228.37
843.46	228.37
843.77	228.33
844.08	228.31
844.40	228.23
844.71	228.21
845.03	228.16
845.34	228.16
845.65	228.16
845.97	228.18
846.28	228.16
846.60	228.14
846.91	228.10
847.22	228.12
847.54	228.15
847.85	228.17
848.16	228.16
848.48	228.12
848.79	228.17
849.10	228.17
849.42	228.14
849.73	228.04
850.04	228.03
850.36	227.95
850.67	228.00
850.98	228.04
851.30	228.03
851.61	228.03
851.92	228.03
852.23	228.05
852.55	228.03
852.86	228.05
853.17	228.07
853.49	228.08
853.80	228.06
854.11	228.06
854.42	228.06
854.74	228.03
855.05	228.03
855.36	227.97
855.67	227.97
855.99	227.99
856.30	228.10
856.61	228.07
856.92	228.06
857.23	228.02
857.55	228.00
857.86	227.98
858.17	228.00
858.48	227.97
858.79	227.92
859.11	227.92
859.42	227.91
859.73	227.89
860.04	227.89
860.35	227.86
860.66	227.83
860.98	227.82
861.29	227.81
861.60	227.79
861.91	227.80
862.22	227.78
862.53	227.72
862.84	227.59
863.16	227.63
863.47	227.61
863.78	227.59
864.09	227.56
864.40	227.59
864.71	227.55
865.02	227.54
865.33	227.53
865.64	227.50
865.95	227.46
866.27	227.47
866.58	227.45
866.89	227.44
867.20	227.41
867.51	227.36
867.82	227.33
868.13	227.37
868.44	227.34
868.75	227.36
869.06	227.38
869.37	227.37
869.68	227.31
869.99	227.31
870.30	227.32
870.61	227.29
870.92	227.26
871.23	227.25
871.54	227.25
871.85	227.26
872.16	227.24
872.47	227.27
872.78	227.21
873.09	227.22
873.40	227.20
873.71	227.23
874.02	227.24
874.33	227.24
874.64	227.20
874.95	227.24
875.26	227.21
875.56	227.18
875.87	227.20
876.18	227.21
876.49	227.30
876.80	227.27
877.11	227.30
877.42	227.31
877.73	227.34
878.04	227.32
878.35	227.32
878.66	227.32
878.96	227.29
879.27	227.31
879.58	227.31
879.89	227.32
880.20	227.33
880.51	227.33
880.82	227.36
881.12	227.38
881.43	227.34
881.74	227.37
882.05	227.38
882.36	227.36
882.67	227.38
882.97	227.34
883.28	227.35
883.59	227.37
883.90	227.37
884.21	227.34
884.51	227.39
884.82	227.40
885.13	227.45
885.44	227.49
885.74	227.49
886.05	227.46
886.36	227.47
886.67	227.46
886.98	227.53
887.28	227.53
887.59	227.52
887.90	227.52
888.20	227.49
888.51	227.52
888.82	227.52
889.13	227.50
889.43	227.59
889.74	227.61
890.05	227.62
890.35	227.63
890.66	227.65
890.97	227.62
891.28	227.63
891.58	227.60
891.89	227.60
892.20	227.59
892.50	227.62
892.81	227.63
893.12	227.64
893.42	227.59
893.73	227.64
894.04	227.67
894.34	227.67
894.65	227.70
894.95	227.66
895.26	227.68
895.57	227.75
895.87	227.63
896.18	227.62
896.48	227.60
896.79	227.60
897.10	227.59
897.40	227.60
897.71	227.58
898.01	227.59
898.32	227.60
898.63	227.60
898.93	227.59
899.24	227.58
899.54	227.58
899.85	227.55
900.15	227.51
900.46	227.47
900.76	227.49
901.07	227.45
901.38	227.45
901.68	227.45
901.99	227.40
902.29	227.40
902.60	227.41
902.90	227.41
903.21	227.40
903.51	227.41
903.82	227.40
904.12	227.41
904.43	227.39
904.73	227.36
905.03	227.37
905.34	227.46
905.64	227.44
905.95	227.41
906.25	227.41
906.56	227.40
906.86	227.40
907.17	227.36
907.47	227.35
907.77	227.37
908.08	227.35
908.38	227.33
908.69	227.34
908.99	227.31
909.30	227.33
909.60	227.32
909.90	227.33
910.21	227.31
910.51	227.29
910.81	227.29
911.12	227.31
911.42	227.37
911.73	227.26
912.03	227.27
912.33	227.33
912.64	227.33
912.94	227.31
913.24	227.30
913.55	227.32
913.85	227.33
914.15	227.33
914.46	227.34
914.76	227.34
915.06	227.33
915.37	227.33
915.67	227.33
915.97	227.34
916.27	227.28
916.58	227.30
916.88	227.29
917.18	227.28
917.49	227.32
917.79	227.29
918.09	227.31
918.39	227.32
918.70	227.29
919.00	227.28
919.30	227.35
919.60	227.36
919.91	227.34
920.21	227.33
920.51	227.37
920.81	227.32
921.12	227.36
921.42	227.35
921.72	227.37
922.02	227.36
922.32	227.35
922.63	227.40
922.93	227.46
923.23	227.47
923.53	227.44
923.83	227.38
924.13	227.37
924.44	227.39
924.74	227.40
925.04	227.41
925.34	227.40
925.64	227.35
925.94	227.34
926.24	227.39
926.55	227.38
926.85	227.35
927.15	227.35
927.45	227.33
927.75	227.33
928.05	227.33
928.35	227.33
928.65	227.32
928.95	227.32
929.26	227.27
929.56	227.31
929.86	227.36
930.16	227.33
930.46	227.32
930.76	227.31
931.06	227.25
931.36	227.23
931.66	227.24
931.96	227.24
932.26	227.25
932.56	227.20
932.86	227.23
933.16	227.21
933.46	227.24
933.76	227.20
934.06	227.23
934.36	227.26
934.66	227.25
934.96	227.24
935.26	227.19
935.56	227.21
935.86	227.16
936.16	227.12
936.46	227.11
936.76	227.09
937.06	227.08
937.36	227.08
937.66	227.09
937.96	227.10
938.26	227.09
938.56	227.07
938.86	227.08
939.16	227.07
939.46	227.10
939.76	227.09
940.06	227.09
940.35	227.07
940.65	227.05
940.95	227.06
941.25	227.06
941.55	227.10
941.85	227.11
942.15	227.15
942.45	227.19
942.75	227.21
943.04	227.24
943.34	227.25
943.64	227.29
943.94	227.27
944.24	227.28
944.54	227.28
944.84	227.28
945.13	227.27
945.43	227.29
945.73	227.26
946.03	227.25
946.33	227.25
946.62	227.24
946.92	227.20
947.22	227.20
947.52	227.19
947.82	227.19
948.11	227.17
948.41	227.16
948.71	227.13
949.01	227.14
949.31	227.15
949.60	227.15
949.90	227.14
950.20	227.16
950.50	227.14
950.79	227.16
951.09	227.19
951.39	227.18
951.69	227.16
951.98	227.19
952.28	227.18
952.58	227.21
952.87	227.24
953.17	227.26
953.47	227.29
953.76	227.30
954.06	227.26
954.36	227.25
954.66	227.25
954.95	227.26
955.25	227.29
955.55	227.26
955.84	227.22
956.14	227.21
956.44	227.23
956.73	227.21
957.03	227.19
957.32	227.16
957.62	227.20
957.92	227.20
958.21	227.20
958.51	227.33
958.81	227.34
959.10	227.34
959.40	227.36
959.69	227.31
959.99	227.31
960.29	227.32
960.58	227.29
960.88	227.34
961.17	227.35
961.47	227.32
961.76	227.31
962.06	227.36
962.36	227.35
962.65	227.31
962.95	227.33
963.24	227.34
963.54	227.34
963.83	227.31
964.13	227.34
964.42	227.32
964.72	227.20
965.01	227.18
965.31	227.17
965.60	227.14
965.90	227.25
966.19	227.22
966.49	227.23
966.78	227.23
967.08	227.18
967.37	227.14
967.67	227.13
967.96	227.13
968.26	227.11
968.55	227.11
968.85	227.12
969.14	227.08
969.43	227.10
969.73	227.07
970.02	227.09
970.32	227.06
970.61	227.03
970.91	227.01
971.20	226.97
971.49	226.96
971.79	226.97
972.08	226.87
972.38	226.85
972.67	226.83
972.96	226.83
973.26	226.80
973.55	226.85
973.85	226.83
974.14	226.81
974.43	226.84
974.73	226.81
975.02	226.79
975.31	226.77
975.61	226.76
975.90	226.79
976.19	226.75
976.49	226.74
976.78	226.72
977.07	226.73
977.37	226.77
977.66	226.74
977.95	226.73
978.24	226.72
978.54	226.76
978.83	226.75
979.12	226.75
979.42	226.77
979.71	226.74
980.00	226.75
980.29	226.77
980.59	226.74
980.88	226.79
981.17	226.79
981.46	226.84
981.76	226.81
982.05	226.80
982.34	226.81
982.63	226.81
982.93	226.83
983.22	226.84
983.51	226.81
983.80	226.87
984.09	226.89
984.39	226.89
984.68	226.89
984.97	226.94
985.26	226.95
985.55	226.98
985.85	226.97
986.14	226.96
986.43	227.00
986.72	226.99
987.01	226.95
987.30	226.98
987.59	226.98
987.89	227.02
988.18	227.00
988.47	227.01
988.76	227.01
989.05	227.04
989.34	227.04
989.63	227.11
989.92	227.06
990.22	227.03
990.51	227.04
990.80	227.02
991.09	227.01
991.38	227.04
991.67	227.00
991.96	227.00
992.25	227.02
992.54	226.99
992.83	227.01
993.12	227.05
993.41	227.04
993.70	227.09
993.99	227.11
994.28	227.15
994.58	227.16
994.87	227.15
995.16	227.13
995.45	227.12
995.74	227.08
996.03	227.13
996.32	227.15
996.61	227.18
996.90	227.17
997.19	227.17
997.48	227.15
997.77	227.14
998.06	227.18
998.34	227.19
998.63	227.18
998.92	227.17
999.21	227.16
999.50	227.18
999.79	227.11
1000.08	227.08
1000.37	227.05
1000.66	227.04
1000.95	227.05
1001.24	227.06
1001.53	227.07
1001.82	227.04
1002.11	226.99
1002.40	226.99
1002.68	227.02
1002.97	227.10
1003.26	227.06
1003.55	227.06
1003.84	227.07
1004.13	227.04
1004.42	227.04
1004.71	227.03
1004.99	227.03
1005.28	227.05
1005.57	227.02
1005.86	227.03
1006.15	227.03
1006.44	227.03
1006.72	227.06
1007.01	227.06
1007.30	227.06
1007.59	227.05
1007.88	227.08
1008.17	227.07
1008.45	227.04
1008.74	226.98
1009.03	226.91
1009.32	226.92
1009.60	226.89
1009.89	226.87
1010.18	226.83
1010.47	226.80
1010.76	226.80
1011.04	226.78
1011.33	226.79
1011.62	226.77
1011.91	226.78
1012.19	226.78
1012.48	226.76
1012.77	226.74
1013.05	226.77
1013.34	226.74
1013.63	226.72
1013.92	226.74
1014.20	226.76
1014.49	226.76
1014.78	226.79
1015.06	226.75
1015.35	226.77
1015.64	226.78
1015.92	226.82
1016.21	226.82
1016.50	226.83
1016.78	226.87
1017.07	226.85
1017.36	226.80
1017.64	226.81
1017.93	226.81
1018.22	226.78
1018.50	226.77
1018.79	226.78
1019.08	226.76
1019.36	226.78
1019.65	226.79
1019.93	226.79
1020.22	226.82
1020.51	226.91
1020.79	226.90
1021.08	226.41
1021.36	226.27
1021.65	227.02
1021.94	226.94
1022.22	226.98
1022.51	226.72
1022.79	227.30
1023.08	227.52
1023.36	228.60
1023.65	226.62
>>>>>End Processed Spectral Data<<<<<
