SpectraSuite Data File
++++++++++++++++++++++++++++++++++++
Date: Fri Feb 01 17:38:29 EST 2013
User: group
Dark Spectrum Present: No
Reference Spectrum Present: No
Number of Sampled Component Spectra: 1
Spectrometers: USB2E7196
Integration Time (usec): 35000 (USB2E7196)
Spectra Averaged: 100 (USB2E7196)
Boxcar Smoothing: 10 (USB2E7196)
Correct for Electrical Dark: No (USB2E7196)
Strobe/Lamp Enabled: No (USB2E7196)
Correct for Detector Non-linearity: No (USB2E7196)
Correct for Stray Light: No (USB2E7196)
Number of Pixels in Processed Spectrum: 2048
>>>>>Begin Processed Spectral Data<<<<<
339.09	0.00
339.48	213.00
339.86	213.77
340.24	215.50
340.63	217.07
341.01	219.77
341.39	219.87
341.78	221.35
342.16	222.25
342.54	223.46
342.93	211.42
343.31	222.08
343.69	222.65
344.07	223.14
344.46	223.55
344.84	223.93
345.22	224.17
345.60	224.42
345.99	224.58
346.37	224.73
346.75	224.79
347.13	224.82
347.52	224.90
347.90	224.99
348.28	225.01
348.66	225.03
349.05	225.00
349.43	225.00
349.81	225.03
350.19	225.08
350.57	225.11
350.96	225.15
351.34	225.22
351.72	225.27
352.10	225.38
352.48	225.46
352.87	225.52
353.25	225.58
353.63	225.64
354.01	225.74
354.39	225.79
354.77	225.87
355.15	225.99
355.54	226.03
355.92	226.08
356.30	226.15
356.68	226.31
357.06	226.39
357.44	226.47
357.82	226.55
358.20	226.63
358.58	226.70
358.97	226.74
359.35	226.84
359.73	226.92
360.11	226.94
360.49	227.00
360.87	227.03
361.25	227.08
361.63	227.15
362.01	227.19
362.39	227.20
362.77	227.24
363.15	227.25
363.53	227.27
363.91	227.28
364.29	227.27
364.67	227.19
365.05	227.21
365.43	227.19
365.81	227.19
366.19	227.21
366.57	227.25
366.95	227.25
367.33	227.22
367.71	227.19
368.09	227.21
368.47	227.18
368.85	227.18
369.23	227.15
369.61	227.11
369.99	227.10
370.37	227.09
370.75	227.13
371.13	227.06
371.51	227.01
371.89	226.97
372.27	226.96
372.65	226.91
373.03	226.87
373.41	226.84
373.78	226.81
374.16	226.68
374.54	226.62
374.92	226.55
375.30	226.54
375.68	226.48
376.06	226.42
376.44	226.38
376.82	226.32
377.19	226.27
377.57	226.22
377.95	226.10
378.33	226.06
378.71	225.93
379.09	225.90
379.47	225.86
379.84	225.81
380.22	225.75
380.60	225.69
380.98	225.62
381.36	225.53
381.73	225.46
382.11	225.45
382.49	225.38
382.87	225.29
383.25	225.19
383.62	225.25
384.00	225.23
384.38	225.19
384.76	225.15
385.13	225.17
385.51	225.11
385.89	225.10
386.27	225.06
386.64	225.03
387.02	224.97
387.40	224.90
387.78	224.87
388.15	224.88
388.53	224.83
388.91	224.79
389.29	224.79
389.66	224.75
390.04	224.72
390.42	224.70
390.79	224.73
391.17	224.73
391.55	224.61
391.92	224.58
392.30	224.57
392.68	224.56
393.05	224.52
393.43	224.52
393.81	224.52
394.18	224.50
394.56	224.53
394.94	224.55
395.31	224.61
395.69	224.64
396.06	224.67
396.44	224.73
396.82	224.76
397.19	224.82
397.57	224.87
397.95	224.90
398.32	224.93
398.70	224.95
399.07	225.01
399.45	225.05
399.82	225.09
400.20	225.15
400.58	225.21
400.95	225.26
401.33	225.33
401.70	225.46
402.08	225.56
402.45	225.62
402.83	225.74
403.20	225.83
403.58	225.92
403.95	226.02
404.33	226.13
404.71	226.25
405.08	226.40
405.46	226.56
405.83	226.68
406.21	226.83
406.58	227.00
406.96	227.17
407.33	227.32
407.70	227.50
408.08	227.73
408.45	227.96
408.83	228.20
409.20	228.39
409.58	228.58
409.95	228.84
410.33	229.11
410.70	229.32
411.08	229.63
411.45	229.99
411.82	230.29
412.20	230.65
412.57	231.08
412.95	231.38
413.32	231.76
413.69	232.20
414.07	232.63
414.44	233.10
414.82	233.59
415.19	234.14
415.56	234.74
415.94	235.31
416.31	235.96
416.68	236.59
417.06	237.38
417.43	238.11
417.81	238.90
418.18	239.73
418.55	240.64
418.93	241.54
419.30	242.44
419.67	243.41
420.04	244.42
420.42	245.45
420.79	246.69
421.16	247.92
421.54	249.14
421.91	250.40
422.28	251.74
422.66	253.11
423.03	254.52
423.40	255.89
423.77	257.36
424.15	258.83
424.52	260.41
424.89	262.05
425.26	263.66
425.64	265.20
426.01	266.88
426.38	268.61
426.75	270.36
427.13	272.19
427.50	274.08
427.87	275.99
428.24	277.93
428.61	279.74
428.99	281.76
429.36	283.98
429.73	286.15
430.10	288.28
430.47	290.48
430.85	292.69
431.22	295.04
431.59	297.56
431.96	299.90
432.33	302.46
432.70	304.93
433.08	307.84
433.45	310.58
433.82	313.27
434.19	316.25
434.56	319.18
434.93	321.90
435.30	324.63
435.68	327.68
436.05	330.64
436.42	333.53
436.79	336.20
437.16	338.98
437.53	341.93
437.90	344.84
438.27	347.64
438.64	350.59
439.01	353.27
439.38	355.57
439.75	357.86
440.13	360.44
440.50	362.88
440.87	364.82
441.24	366.84
441.61	369.09
441.98	370.64
442.35	372.52
442.72	374.48
443.09	376.39
443.46	377.44
443.83	378.05
444.20	378.61
444.57	379.49
444.94	379.82
445.31	380.19
445.68	380.59
446.05	380.71
446.42	380.31
446.79	379.94
447.16	379.51
447.53	379.17
447.90	378.00
448.27	376.86
448.64	375.21
449.01	374.02
449.37	371.99
449.74	370.02
450.11	367.70
450.48	365.13
450.85	362.51
451.22	360.24
451.59	358.14
451.96	356.13
452.33	353.41
452.70	350.96
453.07	348.03
453.43	345.00
453.80	342.12
454.17	339.35
454.54	336.68
454.91	333.83
455.28	331.07
455.65	328.49
456.02	325.91
456.38	323.68
456.75	320.91
457.12	318.56
457.49	316.31
457.86	314.05
458.23	312.15
458.59	310.05
458.96	307.89
459.33	305.98
459.70	304.06
460.07	302.45
460.43	300.65
460.80	298.93
461.17	297.45
461.54	295.90
461.91	294.39
462.27	292.87
462.64	291.55
463.01	290.10
463.38	288.77
463.74	287.36
464.11	286.19
464.48	285.13
464.85	283.98
465.21	283.04
465.58	282.09
465.95	280.91
466.32	279.93
466.68	279.01
467.05	278.08
467.42	277.17
467.78	276.22
468.15	275.33
468.52	274.66
468.88	273.75
469.25	272.93
469.62	272.29
469.98	271.58
470.35	270.92
470.72	270.32
471.08	269.63
471.45	269.07
471.82	268.48
472.18	267.89
472.55	267.44
472.92	266.89
473.28	266.43
473.65	265.95
474.02	265.51
474.38	265.09
474.75	264.74
475.11	264.34
475.48	264.10
475.85	263.87
476.21	263.63
476.58	263.43
476.94	263.33
477.31	263.14
477.67	263.04
478.04	262.96
478.41	262.89
478.77	262.91
479.14	262.83
479.50	262.83
479.87	262.89
480.23	262.96
480.60	263.02
480.96	263.07
481.33	263.28
481.69	263.45
482.06	263.67
482.42	263.85
482.79	264.10
483.15	264.38
483.52	264.75
483.88	265.09
484.25	265.47
484.61	265.85
484.98	266.29
485.34	266.82
485.71	267.39
486.07	267.98
486.44	268.54
486.80	269.23
487.17	269.97
487.53	270.80
487.90	271.63
488.26	272.57
488.62	273.54
488.99	274.53
489.35	275.54
489.72	276.66
490.08	277.88
490.44	279.11
490.81	280.45
491.17	281.79
491.54	283.26
491.90	284.80
492.26	286.44
492.63	288.13
492.99	289.86
493.36	291.70
493.72	293.73
494.08	295.82
494.45	298.06
494.81	300.38
495.17	302.75
495.54	305.32
495.90	307.97
496.26	310.77
496.63	313.72
496.99	316.84
497.35	320.03
497.72	323.37
498.08	326.85
498.44	330.44
498.80	334.27
499.17	338.23
499.53	342.35
499.89	346.71
500.26	351.16
500.62	355.79
500.98	360.72
501.34	365.68
501.71	370.88
502.07	376.21
502.43	381.74
502.79	387.43
503.16	393.39
503.52	399.59
503.88	405.85
504.24	412.31
504.60	419.02
504.97	426.08
505.33	433.25
505.69	440.89
506.05	448.54
506.41	456.28
506.78	464.28
507.14	472.51
507.50	481.00
507.86	489.80
508.22	498.84
508.59	507.81
508.95	517.21
509.31	526.82
509.67	536.70
510.03	546.71
510.39	557.05
510.75	567.54
511.12	578.19
511.48	589.15
511.84	600.30
512.20	611.53
512.56	623.11
512.92	634.94
513.28	646.87
513.64	658.99
514.00	671.32
514.37	683.89
514.73	696.64
515.09	709.22
515.45	722.17
515.81	735.28
516.17	748.83
516.53	762.58
516.89	776.35
517.25	790.11
517.61	804.07
517.97	818.12
518.33	832.06
518.69	846.31
519.05	860.90
519.41	875.67
519.77	890.59
520.13	905.47
520.49	920.33
520.85	935.16
521.21	950.28
521.57	965.97
521.93	981.23
522.29	996.94
522.65	1012.70
523.01	1028.33
523.37	1043.93
523.73	1059.68
524.09	1075.15
524.45	1090.87
524.81	1106.93
525.17	1123.21
525.53	1139.37
525.89	1155.69
526.25	1172.06
526.61	1187.91
526.97	1204.09
527.33	1220.02
527.68	1236.17
528.04	1252.18
528.40	1268.22
528.76	1284.79
529.12	1301.04
529.48	1317.31
529.84	1332.95
530.20	1349.08
530.56	1365.51
530.91	1382.37
531.27	1398.72
531.63	1414.63
531.99	1430.79
532.35	1446.38
532.71	1461.80
533.07	1477.72
533.42	1493.30
533.78	1508.82
534.14	1524.57
534.50	1539.54
534.86	1555.13
535.21	1569.89
535.57	1585.37
535.93	1600.42
536.29	1614.83
536.65	1629.39
537.00	1643.75
537.36	1658.72
537.72	1672.87
538.08	1687.03
538.44	1700.38
538.79	1713.92
539.15	1727.30
539.51	1740.70
539.87	1754.65
540.22	1768.11
540.58	1781.43
540.94	1794.24
541.29	1806.62
541.65	1819.15
542.01	1832.01
542.37	1844.11
542.72	1856.30
543.08	1868.03
543.44	1880.34
543.79	1891.57
544.15	1902.47
544.51	1914.12
544.87	1924.88
545.22	1935.76
545.58	1945.97
545.94	1955.96
546.29	1965.71
546.65	1975.61
547.01	1984.92
547.36	1993.70
547.72	2002.24
548.07	2010.49
548.43	2018.94
548.79	2027.07
549.14	2034.87
549.50	2042.25
549.86	2049.95
550.21	2057.42
550.57	2064.80
550.92	2071.68
551.28	2078.98
551.64	2086.33
551.99	2093.01
552.35	2099.51
552.70	2105.76
553.06	2112.08
553.41	2118.54
553.77	2124.71
554.13	2131.09
554.48	2137.44
554.84	2143.46
555.19	2149.00
555.55	2154.42
555.90	2159.27
556.26	2164.84
556.61	2169.69
556.97	2174.56
557.32	2179.07
557.68	2183.66
558.03	2188.16
558.39	2192.11
558.74	2196.93
559.10	2201.20
559.45	2205.16
559.81	2209.76
560.16	2213.93
560.52	2217.60
560.87	2221.39
561.23	2224.52
561.58	2227.67
561.94	2230.70
562.29	2233.15
562.64	2236.52
563.00	2239.40
563.35	2243.13
563.71	2246.63
564.06	2250.09
564.42	2253.42
564.77	2256.62
565.12	2259.45
565.48	2262.10
565.83	2264.57
566.19	2266.59
566.54	2267.68
566.89	2269.46
567.25	2270.66
567.60	2272.33
567.96	2274.42
568.31	2275.69
568.66	2277.33
569.02	2278.46
569.37	2279.20
569.72	2280.59
570.08	2281.21
570.43	2281.70
570.78	2281.87
571.14	2280.77
571.49	2280.05
571.84	2279.86
572.20	2278.99
572.55	2278.31
572.90	2276.91
573.26	2275.96
573.61	2274.39
573.96	2273.34
574.31	2270.76
574.67	2268.03
575.02	2264.90
575.37	2261.91
575.72	2258.63
576.08	2255.54
576.43	2252.55
576.78	2249.41
577.13	2246.58
577.49	2243.58
577.84	2240.57
578.19	2236.98
578.54	2233.94
578.90	2230.21
579.25	2225.27
579.60	2220.88
579.95	2216.45
580.30	2211.80
580.66	2206.96
581.01	2202.38
581.36	2197.69
581.71	2193.99
582.06	2190.14
582.42	2186.31
582.77	2181.49
583.12	2177.34
583.47	2173.23
583.82	2168.84
584.17	2164.06
584.53	2159.08
584.88	2153.98
585.23	2148.71
585.58	2143.65
585.93	2138.32
586.28	2133.58
586.63	2128.97
586.98	2124.09
587.34	2119.47
587.69	2114.75
588.04	2109.96
588.39	2104.69
588.74	2098.52
589.09	2092.49
589.44	2086.02
589.79	2079.87
590.14	2074.44
590.49	2068.01
590.84	2061.64
591.19	2055.73
591.54	2049.42
591.89	2042.42
592.25	2035.96
592.60	2028.87
592.95	2021.63
593.30	2014.57
593.65	2007.33
594.00	2000.28
594.35	1993.32
594.70	1985.33
595.05	1978.58
595.40	1971.29
595.75	1964.08
596.10	1958.05
596.45	1951.69
596.80	1945.53
597.15	1939.25
597.50	1932.59
597.85	1926.36
598.19	1920.02
598.54	1913.39
598.89	1906.90
599.24	1900.98
599.59	1894.45
599.94	1888.26
600.29	1882.01
600.64	1875.54
600.99	1868.32
601.34	1861.82
601.69	1854.95
602.04	1848.30
602.39	1841.03
602.74	1834.29
603.08	1827.66
603.43	1821.09
603.78	1813.94
604.13	1806.89
604.48	1799.89
604.83	1792.95
605.18	1786.33
605.53	1778.54
605.87	1770.50
606.22	1763.26
606.57	1755.38
606.92	1747.92
607.27	1741.06
607.62	1734.25
607.96	1727.17
608.31	1720.76
608.66	1713.27
609.01	1705.75
609.36	1698.36
609.70	1690.45
610.05	1682.48
610.40	1674.83
610.75	1666.66
611.10	1658.84
611.44	1650.41
611.79	1642.26
612.14	1633.51
612.49	1624.17
612.83	1615.62
613.18	1607.26
613.53	1599.08
613.88	1590.55
614.22	1582.28
614.57	1573.34
614.92	1565.12
615.27	1557.52
615.61	1549.17
615.96	1540.91
616.31	1533.22
616.65	1525.70
617.00	1518.09
617.35	1510.35
617.70	1501.95
618.04	1493.37
618.39	1484.96
618.74	1477.40
619.08	1469.01
619.43	1461.38
619.78	1454.26
620.12	1447.13
620.47	1439.68
620.82	1431.43
621.16	1423.80
621.51	1416.00
621.85	1408.31
622.20	1399.86
622.55	1391.31
622.89	1383.29
623.24	1375.56
623.59	1367.97
623.93	1360.40
624.28	1352.99
624.62	1345.49
624.97	1338.22
625.32	1331.15
625.66	1324.01
626.01	1316.67
626.35	1309.37
626.70	1301.47
627.04	1293.81
627.39	1285.91
627.73	1278.35
628.08	1271.43
628.43	1264.23
628.77	1256.96
629.12	1249.49
629.46	1242.30
629.81	1234.69
630.15	1227.33
630.50	1219.92
630.84	1211.81
631.19	1203.75
631.53	1196.10
631.88	1188.36
632.22	1180.66
632.57	1173.38
632.91	1165.85
633.26	1158.37
633.60	1150.77
633.95	1143.49
634.29	1136.24
634.64	1129.29
634.98	1121.99
635.32	1114.81
635.67	1107.97
636.01	1101.14
636.36	1094.32
636.70	1087.65
637.05	1081.00
637.39	1074.51
637.73	1068.06
638.08	1061.90
638.42	1055.89
638.77	1049.49
639.11	1042.93
639.45	1036.46
639.80	1029.74
640.14	1023.40
640.49	1016.83
640.83	1010.44
641.17	1004.30
641.52	998.02
641.86	991.61
642.20	985.58
642.55	979.06
642.89	972.64
643.23	966.02
643.58	960.14
643.92	953.92
644.26	947.99
644.61	941.83
644.95	935.66
645.29	929.25
645.64	922.53
645.98	916.11
646.32	910.05
646.66	904.06
647.01	898.23
647.35	892.46
647.69	886.52
648.04	880.92
648.38	875.10
648.72	869.11
649.06	863.10
649.41	857.19
649.75	851.34
650.09	845.38
650.43	839.59
650.78	833.45
651.12	827.47
651.46	821.57
651.80	816.00
652.14	810.57
652.49	805.16
652.83	799.91
653.17	794.30
653.51	788.75
653.85	783.25
654.20	777.66
654.54	771.59
654.88	765.79
655.22	759.93
655.56	754.17
655.90	748.64
656.25	743.34
656.59	738.03
656.93	732.93
657.27	727.79
657.61	722.43
657.95	717.31
658.29	712.22
658.64	707.00
658.98	701.52
659.32	695.99
659.66	690.82
660.00	685.61
660.34	680.64
660.68	675.70
661.02	670.59
661.36	665.89
661.70	661.46
662.05	657.16
662.39	652.89
662.73	648.51
663.07	644.15
663.41	639.79
663.75	635.28
664.09	630.64
664.43	626.23
664.77	622.07
665.11	617.79
665.45	613.59
665.79	609.53
666.13	605.42
666.47	601.35
666.81	597.16
667.15	592.91
667.49	588.97
667.83	585.03
668.17	581.15
668.51	577.02
668.85	572.96
669.19	569.07
669.53	565.18
669.87	561.27
670.21	557.48
670.55	553.74
670.89	550.30
671.23	546.89
671.57	543.30
671.91	539.79
672.25	536.29
672.58	532.81
672.92	529.36
673.26	526.19
673.60	523.03
673.94	519.92
674.28	517.02
674.62	514.04
674.96	510.99
675.30	508.05
675.64	505.22
675.97	502.40
676.31	499.52
676.65	496.54
676.99	493.81
677.33	490.91
677.67	488.05
678.01	485.00
678.34	482.03
678.68	479.14
679.02	476.28
679.36	473.43
679.70	470.65
680.04	467.90
680.37	465.05
680.71	462.26
681.05	459.54
681.39	456.74
681.73	454.05
682.06	451.51
682.40	449.01
682.74	446.34
683.08	443.74
683.42	441.09
683.75	438.55
684.09	435.96
684.43	433.52
684.77	431.08
685.10	428.67
685.44	426.32
685.78	424.02
686.12	421.74
686.45	419.45
686.79	417.18
687.13	414.94
687.46	412.69
687.80	410.49
688.14	408.27
688.48	406.20
688.81	403.98
689.15	401.77
689.49	399.50
689.82	397.44
690.16	395.30
690.50	393.31
690.83	391.44
691.17	389.41
691.51	387.48
691.84	385.59
692.18	383.69
692.52	381.72
692.85	379.71
693.19	377.79
693.52	375.96
693.86	374.06
694.20	372.27
694.53	370.43
694.87	368.54
695.21	366.72
695.54	364.85
695.88	363.05
696.21	361.34
696.55	359.64
696.88	357.93
697.22	356.23
697.56	354.56
697.89	352.85
698.23	351.27
698.56	349.65
698.90	348.05
699.23	346.39
699.57	344.83
699.90	343.30
700.24	341.71
700.58	340.14
700.91	338.72
701.25	337.23
701.58	335.89
701.92	334.54
702.25	333.21
702.59	331.88
702.92	330.55
703.26	329.17
703.59	327.90
703.93	326.66
704.26	325.46
704.60	324.19
704.93	322.93
705.26	321.66
705.60	320.43
705.93	319.24
706.27	318.15
706.60	317.06
706.94	316.00
707.27	314.86
707.61	313.81
707.94	312.75
708.27	311.67
708.61	310.57
708.94	309.48
709.28	308.44
709.61	307.47
709.94	306.47
710.28	305.49
710.61	304.47
710.95	303.39
711.28	302.39
711.61	301.44
711.95	300.49
712.28	299.51
712.61	298.58
712.95	297.65
713.28	296.80
713.61	295.88
713.95	294.97
714.28	294.10
714.61	293.19
714.95	292.32
715.28	291.43
715.61	290.55
715.95	289.74
716.28	288.85
716.61	288.00
716.95	287.20
717.28	286.38
717.61	285.63
717.94	284.88
718.28	284.12
718.61	283.35
718.94	282.62
719.27	281.96
719.61	281.25
719.94	280.59
720.27	279.78
720.60	279.10
720.94	278.48
721.27	277.89
721.60	277.31
721.93	276.69
722.27	276.15
722.60	275.59
722.93	274.99
723.26	274.43
723.59	273.85
723.93	273.28
724.26	272.75
724.59	272.16
724.92	271.59
725.25	271.07
725.59	270.53
725.92	270.01
726.25	269.46
726.58	268.95
726.91	268.41
727.24	267.96
727.57	267.48
727.91	266.92
728.24	266.43
728.57	265.94
728.90	265.49
729.23	265.01
729.56	264.57
729.89	264.07
730.22	263.60
730.55	263.12
730.89	262.66
731.22	262.25
731.55	261.78
731.88	261.39
732.21	260.96
732.54	260.53
732.87	260.14
733.20	259.74
733.53	259.36
733.86	259.01
734.19	258.64
734.52	258.27
734.85	257.96
735.18	257.55
735.51	257.15
735.84	256.75
736.17	256.38
736.50	255.96
736.83	255.74
737.16	255.41
737.49	255.07
737.82	254.71
738.15	254.35
738.48	254.04
738.81	253.70
739.14	253.38
739.47	253.07
739.80	252.76
740.13	252.44
740.46	252.09
740.79	251.75
741.12	251.40
741.45	251.06
741.78	250.72
742.11	250.45
742.44	250.17
742.77	249.89
743.10	249.59
743.43	249.27
743.75	248.89
744.08	248.75
744.41	248.48
744.74	248.22
745.07	247.93
745.40	247.67
745.73	247.44
746.06	247.12
746.39	246.85
746.71	246.55
747.04	246.28
747.37	246.01
747.70	245.78
748.03	245.53
748.36	245.34
748.68	245.10
749.01	244.84
749.34	244.60
749.67	244.39
750.00	244.15
750.33	244.02
750.65	243.78
750.98	243.45
751.31	243.24
751.64	243.01
751.97	242.88
752.29	242.66
752.62	242.40
752.95	242.21
753.28	241.99
753.60	241.77
753.93	241.59
754.26	241.45
754.59	241.21
754.91	241.01
755.24	240.78
755.57	240.58
755.90	240.38
756.22	240.18
756.55	239.95
756.88	239.75
757.20	239.51
757.53	239.33
757.86	239.12
758.19	238.94
758.51	238.77
758.84	238.54
759.17	238.36
759.49	238.24
759.82	238.10
760.15	237.96
760.47	237.82
760.80	237.66
761.13	237.50
761.45	237.35
761.78	237.21
762.11	237.08
762.43	236.96
762.76	236.82
763.08	236.69
763.41	236.54
763.74	236.38
764.06	236.22
764.39	236.09
764.71	235.95
765.04	235.80
765.37	235.66
765.69	235.51
766.02	235.38
766.34	235.23
766.67	235.07
767.00	234.96
767.32	234.88
767.65	234.82
767.97	234.68
768.30	234.55
768.62	234.40
768.95	234.23
769.27	234.11
769.60	233.97
769.92	233.83
770.25	233.70
770.57	233.61
770.90	233.50
771.22	233.37
771.55	233.28
771.87	233.17
772.20	233.06
772.52	233.02
772.85	233.02
773.17	232.93
773.50	232.82
773.82	232.69
774.15	232.56
774.47	232.39
774.80	232.28
775.12	232.20
775.45	232.15
775.77	232.07
776.09	231.99
776.42	231.91
776.74	231.86
777.07	231.77
777.39	231.66
777.72	231.56
778.04	231.52
778.36	231.39
778.69	231.33
779.01	231.29
779.33	231.14
779.66	230.96
779.98	230.82
780.31	230.77
780.63	230.75
780.95	230.67
781.28	230.59
781.60	230.54
781.92	230.43
782.25	230.35
782.57	230.29
782.89	230.19
783.22	230.13
783.54	230.04
783.86	230.02
784.19	229.98
784.51	229.98
784.83	229.90
785.16	229.87
785.48	229.81
785.80	229.76
786.12	229.73
786.45	229.67
786.77	229.67
787.09	229.63
787.42	229.54
787.74	229.50
788.06	229.49
788.38	229.42
788.71	229.40
789.03	229.35
789.35	229.36
789.67	229.31
789.99	229.27
790.32	229.23
790.64	229.18
790.96	229.26
791.28	229.17
791.61	229.12
791.93	229.11
792.25	229.06
792.57	229.09
792.89	229.05
793.21	229.04
793.54	229.00
793.86	228.95
794.18	228.92
794.50	228.89
794.82	228.84
795.14	228.83
795.47	228.86
795.79	228.83
796.11	228.71
796.43	228.67
796.75	228.65
797.07	228.61
797.39	228.59
797.71	228.45
798.04	228.42
798.36	228.41
798.68	228.35
799.00	228.33
799.32	228.23
799.64	228.21
799.96	228.14
800.28	228.13
800.60	228.10
800.92	228.09
801.24	228.02
801.56	227.99
801.89	227.96
802.21	227.87
802.53	227.83
802.85	227.85
803.17	227.88
803.49	227.82
803.81	227.79
804.13	227.74
804.45	227.69
804.77	227.69
805.09	227.63
805.41	227.59
805.73	227.57
806.05	227.53
806.37	227.49
806.69	227.48
807.01	227.44
807.33	227.41
807.65	227.33
807.97	227.35
808.28	227.32
808.60	227.28
808.92	227.23
809.24	227.31
809.56	227.26
809.88	227.18
810.20	227.17
810.52	227.17
810.84	227.15
811.16	227.15
811.48	227.13
811.80	227.17
812.12	227.12
812.43	227.07
812.75	227.02
813.07	226.99
813.39	226.96
813.71	226.94
814.03	226.91
814.35	226.92
814.67	226.88
814.98	226.85
815.30	226.81
815.62	226.76
815.94	226.63
816.26	226.64
816.58	226.61
816.89	226.62
817.21	226.56
817.53	226.55
817.85	226.51
818.17	226.46
818.48	226.39
818.80	226.40
819.12	226.39
819.44	226.35
819.76	226.30
820.07	226.27
820.39	226.24
820.71	226.23
821.03	226.20
821.34	226.19
821.66	226.17
821.98	226.20
822.30	226.22
822.61	226.29
822.93	226.24
823.25	226.22
823.57	226.18
823.88	226.16
824.20	226.16
824.52	226.17
824.83	226.20
825.15	226.18
825.47	226.16
825.79	226.19
826.10	226.22
826.42	226.23
826.74	226.24
827.05	226.22
827.37	226.23
827.69	226.27
828.00	226.26
828.32	226.26
828.64	226.24
828.95	226.30
829.27	226.26
829.58	226.25
829.90	226.28
830.22	226.27
830.53	226.27
830.85	226.25
831.17	226.24
831.48	226.21
831.80	226.22
832.11	226.21
832.43	226.17
832.75	226.17
833.06	226.24
833.38	226.23
833.69	226.22
834.01	226.23
834.32	226.19
834.64	226.15
834.96	226.16
835.27	226.14
835.59	226.08
835.90	226.06
836.22	226.09
836.53	226.05
836.85	226.04
837.16	226.17
837.48	226.17
837.79	226.19
838.11	226.16
838.42	226.15
838.74	226.16
839.05	226.15
839.37	226.14
839.68	226.07
840.00	226.07
840.31	226.07
840.63	226.03
840.94	226.00
841.26	225.99
841.57	225.99
841.88	225.99
842.20	225.99
842.51	225.93
842.83	225.90
843.14	226.03
843.46	226.02
843.77	225.94
844.08	225.90
844.40	225.87
844.71	225.85
845.03	225.84
845.34	225.84
845.65	225.85
845.97	225.83
846.28	225.85
846.60	225.80
846.91	225.77
847.22	225.75
847.54	225.79
847.85	225.80
848.16	225.78
848.48	225.78
848.79	225.76
849.10	225.78
849.42	225.77
849.73	225.63
850.04	225.61
850.36	225.56
850.67	225.58
850.98	225.55
851.30	225.59
851.61	225.57
851.92	225.53
852.23	225.53
852.55	225.55
852.86	225.53
853.17	225.51
853.49	225.51
853.80	225.54
854.11	225.53
854.42	225.51
854.74	225.49
855.05	225.48
855.36	225.45
855.67	225.46
855.99	225.45
856.30	225.57
856.61	225.58
856.92	225.57
857.23	225.55
857.55	225.54
857.86	225.52
858.17	225.52
858.48	225.52
858.79	225.46
859.11	225.40
859.42	225.37
859.73	225.40
860.04	225.40
860.35	225.37
860.66	225.32
860.98	225.33
861.29	225.35
861.60	225.30
861.91	225.34
862.22	225.29
862.53	225.25
862.84	225.14
863.16	225.12
863.47	225.10
863.78	225.08
864.09	225.09
864.40	225.08
864.71	225.06
865.02	225.05
865.33	225.06
865.64	225.06
865.95	225.09
866.27	225.15
866.58	225.10
866.89	225.09
867.20	225.11
867.51	225.09
867.82	225.07
868.13	225.12
868.44	225.08
868.75	225.15
869.06	225.19
869.37	225.20
869.68	225.19
869.99	225.22
870.30	225.23
870.61	225.23
870.92	225.24
871.23	225.24
871.54	225.28
871.85	225.32
872.16	225.35
872.47	225.30
872.78	225.24
873.09	225.26
873.40	225.26
873.71	225.25
874.02	225.28
874.33	225.27
874.64	225.25
874.95	225.26
875.26	225.24
875.56	225.23
875.87	225.23
876.18	225.23
876.49	225.30
876.80	225.32
877.11	225.29
877.42	225.26
877.73	225.28
878.04	225.23
878.35	225.19
878.66	225.21
878.96	225.22
879.27	225.25
879.58	225.27
879.89	225.26
880.20	225.29
880.51	225.26
880.82	225.24
881.12	225.24
881.43	225.22
881.74	225.17
882.05	225.14
882.36	225.14
882.67	225.12
882.97	225.02
883.28	225.00
883.59	225.02
883.90	225.04
884.21	225.01
884.51	225.04
884.82	225.06
885.13	225.06
885.44	225.10
885.74	225.07
886.05	225.06
886.36	225.10
886.67	225.08
886.98	225.15
887.28	225.18
887.59	225.19
887.90	225.20
888.20	225.21
888.51	225.25
888.82	225.21
889.13	225.22
889.43	225.31
889.74	225.31
890.05	225.31
890.35	225.31
890.66	225.32
890.97	225.30
891.28	225.28
891.58	225.25
891.89	225.21
892.20	225.21
892.50	225.21
892.81	225.14
893.12	225.12
893.42	225.05
893.73	225.05
894.04	225.04
894.34	225.02
894.65	225.03
894.95	225.02
895.26	225.06
895.57	225.13
895.87	225.04
896.18	225.07
896.48	225.07
896.79	225.05
897.10	225.05
897.40	225.06
897.71	225.07
898.01	225.05
898.32	225.07
898.63	225.04
898.93	225.07
899.24	225.10
899.54	225.12
899.85	225.13
900.15	225.14
900.46	225.16
900.76	225.20
901.07	225.22
901.38	225.19
901.68	225.17
901.99	225.12
902.29	225.15
902.60	225.13
902.90	225.10
903.21	225.10
903.51	225.09
903.82	225.13
904.12	225.14
904.43	225.19
904.73	225.20
905.03	225.21
905.34	225.27
905.64	225.28
905.95	225.25
906.25	225.22
906.56	225.23
906.86	225.21
907.17	225.19
907.47	225.15
907.77	225.14
908.08	225.12
908.38	225.14
908.69	225.10
908.99	225.11
909.30	225.13
909.60	225.11
909.90	225.13
910.21	225.07
910.51	225.05
910.81	225.04
911.12	225.00
911.42	225.01
911.73	224.91
912.03	224.91
912.33	224.94
912.64	224.94
912.94	224.87
913.24	224.86
913.55	224.85
913.85	224.86
914.15	224.87
914.46	224.88
914.76	224.87
915.06	224.88
915.37	224.87
915.67	224.83
915.97	224.86
916.27	224.84
916.58	224.83
916.88	224.82
917.18	224.80
917.49	224.88
917.79	224.87
918.09	224.87
918.39	224.87
918.70	224.86
919.00	224.86
919.30	224.93
919.60	224.88
919.91	224.89
920.21	224.88
920.51	224.90
920.81	224.89
921.12	224.90
921.42	224.91
921.72	224.90
922.02	224.92
922.32	224.93
922.63	224.92
922.93	224.98
923.23	225.00
923.53	224.98
923.83	224.92
924.13	224.94
924.44	224.94
924.74	224.95
925.04	224.97
925.34	224.94
925.64	224.93
925.94	224.98
926.24	225.02
926.55	225.01
926.85	225.00
927.15	225.01
927.45	225.01
927.75	224.99
928.05	225.01
928.35	225.02
928.65	225.05
928.95	225.06
929.26	225.02
929.56	225.02
929.86	225.03
930.16	225.03
930.46	225.00
930.76	225.02
931.06	224.99
931.36	224.97
931.66	225.01
931.96	224.98
932.26	224.97
932.56	224.88
932.86	224.90
933.16	224.88
933.46	224.87
933.76	224.86
934.06	224.88
934.36	224.88
934.66	224.88
934.96	224.86
935.26	224.84
935.56	224.83
935.86	224.86
936.16	224.84
936.46	224.81
936.76	224.82
937.06	224.80
937.36	224.79
937.66	224.79
937.96	224.79
938.26	224.79
938.56	224.78
938.86	224.83
939.16	224.86
939.46	224.89
939.76	224.89
940.06	224.88
940.35	224.85
940.65	224.82
940.95	224.82
941.25	224.79
941.55	224.79
941.85	224.79
942.15	224.76
942.45	224.78
942.75	224.79
943.04	224.76
943.34	224.79
943.64	224.80
943.94	224.77
944.24	224.75
944.54	224.75
944.84	224.76
945.13	224.72
945.43	224.68
945.73	224.64
946.03	224.61
946.33	224.58
946.62	224.57
946.92	224.59
947.22	224.57
947.52	224.56
947.82	224.57
948.11	224.55
948.41	224.52
948.71	224.46
949.01	224.45
949.31	224.48
949.60	224.46
949.90	224.44
950.20	224.42
950.50	224.45
950.79	224.41
951.09	224.40
951.39	224.44
951.69	224.42
951.98	224.45
952.28	224.45
952.58	224.46
952.87	224.48
953.17	224.46
953.47	224.43
953.76	224.42
954.06	224.38
954.36	224.37
954.66	224.40
954.95	224.46
955.25	224.51
955.55	224.49
955.84	224.45
956.14	224.47
956.44	224.50
956.73	224.47
957.03	224.51
957.32	224.48
957.62	224.48
957.92	224.50
958.21	224.49
958.51	224.61
958.81	224.62
959.10	224.60
959.40	224.63
959.69	224.66
959.99	224.66
960.29	224.67
960.58	224.66
960.88	224.67
961.17	224.67
961.47	224.67
961.76	224.66
962.06	224.73
962.36	224.73
962.65	224.75
962.95	224.76
963.24	224.73
963.54	224.77
963.83	224.78
964.13	224.75
964.42	224.71
964.72	224.65
965.01	224.69
965.31	224.69
965.60	224.65
965.90	224.74
966.19	224.74
966.49	224.78
966.78	224.82
967.08	224.83
967.37	224.84
967.67	224.79
967.96	224.82
968.26	224.78
968.55	224.81
968.85	224.81
969.14	224.82
969.43	224.87
969.73	224.87
970.02	224.87
970.32	224.90
970.61	224.94
970.91	224.91
971.20	224.90
971.49	224.91
971.79	224.97
972.08	224.92
972.38	224.95
972.67	224.94
972.96	224.96
973.26	224.94
973.55	224.98
973.85	225.01
974.14	225.02
974.43	225.05
974.73	225.04
975.02	225.03
975.31	225.03
975.61	225.04
975.90	225.05
976.19	225.04
976.49	225.04
976.78	225.05
977.07	225.07
977.37	225.03
977.66	225.06
977.95	225.01
978.24	224.98
978.54	225.00
978.83	224.98
979.12	224.98
979.42	224.97
979.71	224.92
980.00	224.94
980.29	224.94
980.59	224.91
980.88	224.93
981.17	224.95
981.46	224.97
981.76	224.96
982.05	224.98
982.34	224.98
982.63	224.96
982.93	224.95
983.22	224.98
983.51	225.02
983.80	225.02
984.09	225.06
984.39	225.05
984.68	225.01
984.97	225.03
985.26	224.99
985.55	225.02
985.85	225.00
986.14	224.98
986.43	224.97
986.72	224.95
987.01	224.91
987.30	224.89
987.59	224.84
987.89	224.80
988.18	224.78
988.47	224.76
988.76	224.77
989.05	224.75
989.34	224.69
989.63	224.67
989.92	224.64
990.22	224.62
990.51	224.61
990.80	224.59
991.09	224.56
991.38	224.60
991.67	224.58
991.96	224.56
992.25	224.57
992.54	224.51
992.83	224.49
993.12	224.49
993.41	224.49
993.70	224.53
993.99	224.56
994.28	224.53
994.58	224.53
994.87	224.49
995.16	224.49
995.45	224.51
995.74	224.47
996.03	224.51
996.32	224.52
996.61	224.54
996.90	224.58
997.19	224.60
997.48	224.57
997.77	224.55
998.06	224.55
998.34	224.53
998.63	224.59
998.92	224.59
999.21	224.59
999.50	224.58
999.79	224.52
1000.08	224.50
1000.37	224.52
1000.66	224.53
1000.95	224.56
1001.24	224.57
1001.53	224.58
1001.82	224.56
1002.11	224.49
1002.40	224.53
1002.68	224.54
1002.97	224.58
1003.26	224.56
1003.55	224.53
1003.84	224.53
1004.13	224.59
1004.42	224.59
1004.71	224.58
1004.99	224.60
1005.28	224.61
1005.57	224.62
1005.86	224.64
1006.15	224.66
1006.44	224.67
1006.72	224.65
1007.01	224.65
1007.30	224.68
1007.59	224.68
1007.88	224.72
1008.17	224.77
1008.45	224.71
1008.74	224.68
1009.03	224.64
1009.32	224.63
1009.60	224.66
1009.89	224.67
1010.18	224.64
1010.47	224.65
1010.76	224.67
1011.04	224.67
1011.33	224.78
1011.62	224.76
1011.91	224.78
1012.19	224.79
1012.48	224.77
1012.77	224.79
1013.05	224.85
1013.34	224.81
1013.63	224.81
1013.92	224.82
1014.20	224.81
1014.49	224.84
1014.78	224.84
1015.06	224.82
1015.35	224.87
1015.64	224.89
1015.92	224.93
1016.21	224.91
1016.50	224.90
1016.78	224.90
1017.07	224.91
1017.36	224.81
1017.64	224.86
1017.93	224.88
1018.22	224.87
1018.50	224.85
1018.79	224.84
1019.08	224.78
1019.36	224.82
1019.65	224.81
1019.93	224.79
1020.22	224.78
1020.51	224.82
1020.79	224.82
1021.08	224.72
1021.36	224.14
1021.65	224.66
1021.94	224.49
1022.22	225.10
1022.51	224.59
1022.79	224.38
1023.08	224.71
1023.36	225.83
1023.65	224.58
>>>>>End Processed Spectral Data<<<<<
