SpectraSuite Data File
++++++++++++++++++++++++++++++++++++
Date: Fri Feb 01 15:37:20 EST 2013
User: group
Dark Spectrum Present: No
Reference Spectrum Present: No
Number of Sampled Component Spectra: 1
Spectrometers: USB2E7196
Integration Time (usec): 35000 (USB2E7196)
Spectra Averaged: 100 (USB2E7196)
Boxcar Smoothing: 10 (USB2E7196)
Correct for Electrical Dark: No (USB2E7196)
Strobe/Lamp Enabled: No (USB2E7196)
Correct for Detector Non-linearity: No (USB2E7196)
Correct for Stray Light: No (USB2E7196)
Number of Pixels in Processed Spectrum: 2048
>>>>>Begin Processed Spectral Data<<<<<
339.09	0.00
339.48	214.95
339.86	216.14
340.24	217.72
340.63	219.58
341.01	222.46
341.39	221.70
341.78	223.57
342.16	224.19
342.54	225.14
342.93	213.35
343.31	224.15
343.69	224.70
344.07	225.18
344.46	225.59
344.84	225.97
345.22	226.20
345.60	226.43
345.99	226.59
346.37	226.73
346.75	226.82
347.13	226.89
347.52	226.93
347.90	226.99
348.28	227.04
348.66	227.08
349.05	227.06
349.43	227.07
349.81	227.11
350.19	227.12
350.57	227.20
350.96	227.23
351.34	227.30
351.72	227.38
352.10	227.48
352.48	227.57
352.87	227.61
353.25	227.66
353.63	227.73
354.01	227.82
354.39	227.91
354.77	227.96
355.15	228.05
355.54	228.12
355.92	228.16
356.30	228.19
356.68	228.32
357.06	228.39
357.44	228.48
357.82	228.50
358.20	228.56
358.58	228.60
358.97	228.69
359.35	228.75
359.73	228.78
360.11	228.83
360.49	228.87
360.87	228.92
361.25	228.96
361.63	229.04
362.01	229.09
362.39	229.10
362.77	229.16
363.15	229.21
363.53	229.23
363.91	229.24
364.29	229.29
364.67	229.25
365.05	229.29
365.43	229.28
365.81	229.33
366.19	229.39
366.57	229.43
366.95	229.41
367.33	229.40
367.71	229.37
368.09	229.39
368.47	229.38
368.85	229.35
369.23	229.33
369.61	229.25
369.99	229.21
370.37	229.18
370.75	229.19
371.13	229.11
371.51	229.04
371.89	229.04
372.27	229.01
372.65	228.94
373.03	228.89
373.41	228.84
373.78	228.78
374.16	228.67
374.54	228.57
374.92	228.54
375.30	228.50
375.68	228.47
376.06	228.37
376.44	228.31
376.82	228.23
377.19	228.19
377.57	228.13
377.95	228.02
378.33	227.97
378.71	227.82
379.09	227.77
379.47	227.74
379.84	227.64
380.22	227.55
380.60	227.47
380.98	227.38
381.36	227.32
381.73	227.23
382.11	227.18
382.49	227.16
382.87	227.05
383.25	226.97
383.62	227.00
384.00	226.91
384.38	226.83
384.76	226.81
385.13	226.77
385.51	226.74
385.89	226.70
386.27	226.65
386.64	226.62
387.02	226.58
387.40	226.54
387.78	226.51
388.15	226.48
388.53	226.44
388.91	226.42
389.29	226.37
389.66	226.34
390.04	226.32
390.42	226.28
390.79	226.28
391.17	226.26
391.55	226.14
391.92	226.15
392.30	226.14
392.68	226.14
393.05	226.13
393.43	226.12
393.81	226.18
394.18	226.18
394.56	226.21
394.94	226.23
395.31	226.24
395.69	226.28
396.06	226.33
396.44	226.36
396.82	226.37
397.19	226.46
397.57	226.51
397.95	226.59
398.32	226.60
398.70	226.66
399.07	226.75
399.45	226.82
399.82	226.89
400.20	226.96
400.58	227.01
400.95	227.10
401.33	227.21
401.70	227.34
402.08	227.43
402.45	227.52
402.83	227.64
403.20	227.75
403.58	227.84
403.95	227.98
404.33	228.13
404.71	228.29
405.08	228.49
405.46	228.62
405.83	228.74
406.21	228.90
406.58	229.07
406.96	229.25
407.33	229.44
407.70	229.67
408.08	229.98
408.45	230.21
408.83	230.45
409.20	230.66
409.58	230.82
409.95	231.07
410.33	231.36
410.70	231.64
411.08	231.96
411.45	232.32
411.82	232.60
412.20	232.97
412.57	233.39
412.95	233.68
413.32	234.11
413.69	234.53
414.07	234.97
414.44	235.45
414.82	235.95
415.19	236.51
415.56	237.03
415.94	237.54
416.31	238.21
416.68	238.82
417.06	239.54
417.43	240.25
417.81	241.07
418.18	241.87
418.55	242.69
418.93	243.56
419.30	244.46
419.67	245.41
420.04	246.37
420.42	247.32
420.79	248.51
421.16	249.66
421.54	250.84
421.91	252.10
422.28	253.35
422.66	254.64
423.03	255.95
423.40	257.29
423.77	258.70
424.15	260.11
424.52	261.58
424.89	263.19
425.26	264.75
425.64	266.18
426.01	267.75
426.38	269.45
426.75	271.17
427.13	272.87
427.50	274.68
427.87	276.55
428.24	278.42
428.61	280.15
428.99	282.08
429.36	284.20
429.73	286.22
430.10	288.27
430.47	290.33
430.85	292.41
431.22	294.68
431.59	297.05
431.96	299.30
432.33	301.80
432.70	304.17
433.08	306.94
433.45	309.58
433.82	312.19
434.19	315.02
434.56	317.76
434.93	320.41
435.30	323.03
435.68	325.86
436.05	328.73
436.42	331.54
436.79	334.07
437.16	336.75
437.53	339.58
437.90	342.37
438.27	345.13
438.64	347.96
439.01	350.48
439.38	352.69
439.75	354.82
440.13	357.30
440.50	359.62
440.87	361.50
441.24	363.42
441.61	365.59
441.98	367.07
442.35	368.89
442.72	370.77
443.09	372.56
443.46	373.56
443.83	374.13
444.20	374.65
444.57	375.46
444.94	375.75
445.31	376.10
445.68	376.47
446.05	376.52
446.42	376.16
446.79	375.80
447.16	375.41
447.53	375.11
447.90	373.98
448.27	372.82
448.64	371.20
449.01	370.04
449.37	368.01
449.74	366.09
450.11	363.85
450.48	361.34
450.85	358.84
451.22	356.71
451.59	354.66
451.96	352.68
452.33	350.07
452.70	347.70
453.07	344.84
453.43	341.91
453.80	339.12
454.17	336.42
454.54	333.86
454.91	331.09
455.28	328.38
455.65	325.89
456.02	323.47
456.38	321.34
456.75	318.72
457.12	316.46
457.49	314.28
457.86	312.11
458.23	310.28
458.59	308.21
458.96	306.18
459.33	304.39
459.70	302.52
460.07	301.06
460.43	299.38
460.80	297.80
461.17	296.38
461.54	294.93
461.91	293.52
462.27	292.09
462.64	290.85
463.01	289.51
463.38	288.18
463.74	286.82
464.11	285.66
464.48	284.62
464.85	283.56
465.21	282.70
465.58	281.78
465.95	280.68
466.32	279.78
466.68	278.86
467.05	277.90
467.42	277.05
467.78	276.09
468.15	275.16
468.52	274.46
468.88	273.64
469.25	272.86
469.62	272.21
469.98	271.54
470.35	270.93
470.72	270.34
471.08	269.71
471.45	269.12
471.82	268.58
472.18	268.00
472.55	267.58
472.92	267.06
473.28	266.58
473.65	266.12
474.02	265.67
474.38	265.27
474.75	264.98
475.11	264.61
475.48	264.35
475.85	264.14
476.21	263.93
476.58	263.69
476.94	263.54
477.31	263.39
477.67	263.24
478.04	263.14
478.41	263.10
478.77	263.13
479.14	263.11
479.50	263.11
479.87	263.16
480.23	263.19
480.60	263.23
480.96	263.34
481.33	263.54
481.69	263.70
482.06	263.91
482.42	264.10
482.79	264.34
483.15	264.63
483.52	264.99
483.88	265.34
484.25	265.69
484.61	266.08
484.98	266.48
485.34	267.02
485.71	267.56
486.07	268.14
486.44	268.69
486.80	269.36
487.17	270.09
487.53	270.88
487.90	271.73
488.26	272.64
488.62	273.63
488.99	274.61
489.35	275.65
489.72	276.77
490.08	277.97
490.44	279.23
490.81	280.58
491.17	281.93
491.54	283.39
491.90	284.96
492.26	286.60
492.63	288.34
492.99	290.11
493.36	292.01
493.72	294.04
494.08	296.17
494.45	298.44
494.81	300.84
495.17	303.32
495.54	305.90
495.90	308.57
496.26	311.36
496.63	314.28
496.99	317.41
497.35	320.69
497.72	324.08
498.08	327.61
498.44	331.27
498.80	335.19
499.17	339.25
499.53	343.48
499.89	347.87
500.26	352.43
500.62	357.15
500.98	362.09
501.34	367.13
501.71	372.40
502.07	377.80
502.43	383.33
502.79	389.10
503.16	395.15
503.52	401.44
503.88	407.85
504.24	414.53
504.60	421.42
504.97	428.53
505.33	435.87
505.69	443.56
506.05	451.36
506.41	459.25
506.78	467.43
507.14	475.83
507.50	484.55
507.86	493.53
508.22	502.74
508.59	511.94
508.95	521.61
509.31	531.46
509.67	541.56
510.03	551.85
510.39	562.46
510.75	573.26
511.12	584.21
511.48	595.47
511.84	606.90
512.20	618.46
512.56	630.45
512.92	642.64
513.28	654.96
513.64	667.43
514.00	680.15
514.37	693.09
514.73	706.15
515.09	719.15
515.45	732.57
515.81	746.06
516.17	760.06
516.53	774.15
516.89	788.38
517.25	802.54
517.61	817.05
517.97	831.60
518.33	846.02
518.69	860.80
519.05	875.85
519.41	891.04
519.77	906.62
520.13	922.05
520.49	937.36
520.85	952.82
521.21	968.51
521.57	984.75
521.93	1000.46
522.29	1016.87
522.65	1033.16
523.01	1049.29
523.37	1065.38
523.73	1081.63
524.09	1097.75
524.45	1114.10
524.81	1130.79
525.17	1147.65
525.53	1164.50
525.89	1181.45
526.25	1198.38
526.61	1214.66
526.97	1231.44
527.33	1247.87
527.68	1264.46
528.04	1281.05
528.40	1297.62
528.76	1314.78
529.12	1331.29
529.48	1348.27
529.84	1364.38
530.20	1381.06
530.56	1398.12
530.91	1415.53
531.27	1432.23
531.63	1448.71
531.99	1465.26
532.35	1481.28
532.71	1497.15
533.07	1513.34
533.42	1529.25
533.78	1545.27
534.14	1561.71
534.50	1576.95
534.86	1592.79
535.21	1607.90
535.57	1623.87
535.93	1639.37
536.29	1654.14
536.65	1669.30
537.00	1684.20
537.36	1699.41
537.72	1713.97
538.08	1728.25
538.44	1742.20
538.79	1756.07
539.15	1769.75
539.51	1783.42
539.87	1797.73
540.22	1811.50
540.58	1825.33
540.94	1838.60
541.29	1851.50
541.65	1864.05
542.01	1877.32
542.37	1889.67
542.72	1902.15
543.08	1914.00
543.44	1926.47
543.79	1937.67
544.15	1948.78
544.51	1960.13
544.87	1971.22
545.22	1982.02
545.58	1992.45
545.94	2002.10
546.29	2012.00
546.65	2021.83
547.01	2031.12
547.36	2039.87
547.72	2048.39
548.07	2056.17
548.43	2064.41
548.79	2072.44
549.14	2080.13
549.50	2087.63
549.86	2095.40
550.21	2102.80
550.57	2109.88
550.92	2116.41
551.28	2123.57
551.64	2130.46
551.99	2137.07
552.35	2143.17
552.70	2149.21
553.06	2155.10
553.41	2161.61
553.77	2167.81
554.13	2173.94
554.48	2180.15
554.84	2185.53
555.19	2190.78
555.55	2196.01
555.90	2200.45
556.26	2205.31
556.61	2210.15
556.97	2214.40
557.32	2218.51
557.68	2222.90
558.03	2227.22
558.39	2231.02
558.74	2235.58
559.10	2239.57
559.45	2243.23
559.81	2247.55
560.16	2251.45
560.52	2254.68
560.87	2258.07
561.23	2260.51
561.58	2263.44
561.94	2265.92
562.29	2268.53
562.64	2271.23
563.00	2273.83
563.35	2277.30
563.71	2280.42
564.06	2283.51
564.42	2286.21
564.77	2288.68
565.12	2290.59
565.48	2292.30
565.83	2294.16
566.19	2295.46
566.54	2296.42
566.89	2297.49
567.25	2298.04
567.60	2299.41
567.96	2301.15
568.31	2301.87
568.66	2303.06
569.02	2303.62
569.37	2303.89
569.72	2304.55
570.08	2304.64
570.43	2304.69
570.78	2304.23
571.14	2302.67
571.49	2301.21
571.84	2300.92
572.20	2299.70
572.55	2298.82
572.90	2297.44
573.26	2295.98
573.61	2294.19
573.96	2292.28
574.31	2289.22
574.67	2286.17
575.02	2282.46
575.37	2279.11
575.72	2275.27
576.08	2271.92
576.43	2268.62
576.78	2264.83
577.13	2261.59
577.49	2258.32
577.84	2254.72
578.19	2250.77
578.54	2246.97
578.90	2242.74
579.25	2237.16
579.60	2232.10
579.95	2227.03
580.30	2221.93
580.66	2216.70
581.01	2211.83
581.36	2206.88
581.71	2202.56
582.06	2198.06
582.42	2193.57
582.77	2188.22
583.12	2183.56
583.47	2178.65
583.82	2173.49
584.17	2168.24
584.53	2162.76
584.88	2157.14
585.23	2151.32
585.58	2145.89
585.93	2140.62
586.28	2135.87
586.63	2130.74
586.98	2125.71
587.34	2120.89
587.69	2115.91
588.04	2110.58
588.39	2104.94
588.74	2098.52
589.09	2092.45
589.44	2085.67
589.79	2079.60
590.14	2073.82
590.49	2067.24
590.84	2060.90
591.19	2054.89
591.54	2048.54
591.89	2041.08
592.25	2034.38
592.60	2027.17
592.95	2019.45
593.30	2011.86
593.65	2004.26
594.00	1997.10
594.35	1989.74
594.70	1981.59
595.05	1974.29
595.40	1966.92
595.75	1959.26
596.10	1952.93
596.45	1946.20
596.80	1939.97
597.15	1933.33
597.50	1926.22
597.85	1919.79
598.19	1913.01
598.54	1905.84
598.89	1899.07
599.24	1893.14
599.59	1886.18
599.94	1880.05
600.29	1873.78
600.64	1867.24
600.99	1859.67
601.34	1852.83
601.69	1845.99
602.04	1839.19
602.39	1831.95
602.74	1825.17
603.08	1818.42
603.43	1811.68
603.78	1804.33
604.13	1797.19
604.48	1789.80
604.83	1782.93
605.18	1775.83
605.53	1767.88
605.87	1759.93
606.22	1752.63
606.57	1744.66
606.92	1737.59
607.27	1730.28
607.62	1723.36
607.96	1716.10
608.31	1709.40
608.66	1701.78
609.01	1694.15
609.36	1686.53
609.70	1678.57
610.05	1670.45
610.40	1662.77
610.75	1654.44
611.10	1646.70
611.44	1638.20
611.79	1630.26
612.14	1621.53
612.49	1612.43
612.83	1604.18
613.18	1595.97
613.53	1587.96
613.88	1579.40
614.22	1571.05
614.57	1562.45
614.92	1554.40
615.27	1546.75
615.61	1538.51
615.96	1530.55
616.31	1522.98
616.65	1515.62
617.00	1507.96
617.35	1500.35
617.70	1491.97
618.04	1483.41
618.39	1475.28
618.74	1467.69
619.08	1459.39
619.43	1451.89
619.78	1444.91
620.12	1437.66
620.47	1430.24
620.82	1422.08
621.16	1414.78
621.51	1407.17
621.85	1399.63
622.20	1391.07
622.55	1382.72
622.89	1374.90
623.24	1367.20
623.59	1359.79
623.93	1352.20
624.28	1344.98
624.62	1337.44
624.97	1330.36
625.32	1323.64
625.66	1316.61
626.01	1309.31
626.35	1301.81
626.70	1294.14
627.04	1286.43
627.39	1278.63
627.73	1271.17
628.08	1264.29
628.43	1256.95
628.77	1249.49
629.12	1241.81
629.46	1234.69
629.81	1227.38
630.15	1220.12
630.50	1212.80
630.84	1204.61
631.19	1196.77
631.53	1189.22
631.88	1181.62
632.22	1173.93
632.57	1166.72
632.91	1159.12
633.26	1151.77
633.60	1144.43
633.95	1137.33
634.29	1130.33
634.64	1123.68
634.98	1116.28
635.32	1109.08
635.67	1102.58
636.01	1095.93
636.36	1089.20
636.70	1082.69
637.05	1076.08
637.39	1069.77
637.73	1063.23
638.08	1057.41
638.42	1051.36
638.77	1044.86
639.11	1038.30
639.45	1031.84
639.80	1025.08
640.14	1018.66
640.49	1012.13
640.83	1005.89
641.17	999.64
641.52	993.31
641.86	986.82
642.20	980.98
642.55	974.70
642.89	968.07
643.23	961.63
643.58	955.80
643.92	949.61
644.26	943.53
644.61	937.44
644.95	931.43
645.29	924.77
645.64	918.08
645.98	911.83
646.32	906.10
646.66	900.11
647.01	894.35
647.35	888.70
647.69	882.90
648.04	877.28
648.38	871.53
648.72	865.48
649.06	859.47
649.41	853.63
649.75	847.64
650.09	841.70
650.43	835.84
650.78	829.71
651.12	823.72
651.46	818.02
651.80	812.29
652.14	806.90
652.49	801.53
652.83	796.37
653.17	790.68
653.51	784.81
653.85	779.48
654.20	773.83
654.54	767.84
654.88	762.11
655.22	756.29
655.56	750.51
655.90	745.14
656.25	739.89
656.59	734.49
656.93	729.48
657.27	724.31
657.61	718.90
657.95	713.81
658.29	708.77
658.64	703.53
658.98	698.18
659.32	692.73
659.66	687.59
660.00	682.21
660.34	677.22
660.68	672.38
661.02	667.36
661.36	662.68
661.70	658.19
662.05	653.83
662.39	649.48
662.73	645.10
663.07	640.72
663.41	636.26
663.75	631.77
664.09	627.18
664.43	622.83
664.77	618.74
665.11	614.51
665.45	610.37
665.79	606.23
666.13	602.11
666.47	598.01
666.81	593.79
667.15	589.75
667.49	585.91
667.83	582.14
668.17	578.22
668.51	574.17
668.85	570.15
669.19	566.29
669.53	562.43
669.87	558.53
670.21	554.82
670.55	551.18
670.89	547.83
671.23	544.37
671.57	540.85
671.91	537.34
672.25	533.85
672.58	530.35
672.92	527.03
673.26	523.85
673.60	520.64
673.94	517.50
674.28	514.58
674.62	511.54
674.96	508.40
675.30	505.45
675.64	502.48
675.97	499.73
676.31	496.86
676.65	494.01
676.99	491.24
677.33	488.35
677.67	485.57
678.01	482.50
678.34	479.50
678.68	476.67
679.02	473.78
679.36	471.05
679.70	468.31
680.04	465.49
680.37	462.62
680.71	459.87
681.05	457.32
681.39	454.61
681.73	452.02
682.06	449.52
682.40	446.99
682.74	444.43
683.08	441.87
683.42	439.27
683.75	436.68
684.09	434.13
684.43	431.69
684.77	429.22
685.10	426.90
685.44	424.58
685.78	422.30
686.12	420.10
686.45	417.80
686.79	415.51
687.13	413.37
687.46	411.20
687.80	409.08
688.14	406.84
688.48	404.79
688.81	402.55
689.15	400.37
689.49	398.20
689.82	396.15
690.16	394.11
690.50	392.20
690.83	390.30
691.17	388.41
691.51	386.51
691.84	384.67
692.18	382.74
692.52	380.77
692.85	378.84
693.19	376.94
693.52	375.14
693.86	373.38
694.20	371.61
694.53	369.86
694.87	368.00
695.21	366.25
695.54	364.44
695.88	362.71
696.21	361.03
696.55	359.37
696.88	357.69
697.22	356.00
697.56	354.39
697.89	352.75
698.23	351.11
698.56	349.52
698.90	347.97
699.23	346.28
699.57	344.75
699.90	343.20
700.24	341.67
700.58	340.07
700.91	338.54
701.25	337.05
701.58	335.67
701.92	334.35
702.25	332.97
702.59	331.58
702.92	330.25
703.26	328.96
703.59	327.66
703.93	326.48
704.26	325.28
704.60	323.95
704.93	322.67
705.26	321.43
705.60	320.27
705.93	319.07
706.27	318.08
706.60	317.03
706.94	315.96
707.27	314.86
707.61	313.79
707.94	312.78
708.27	311.68
708.61	310.60
708.94	309.58
709.28	308.54
709.61	307.59
709.94	306.62
710.28	305.55
710.61	304.55
710.95	303.47
711.28	302.54
711.61	301.59
711.95	300.67
712.28	299.72
712.61	298.68
712.95	297.73
713.28	296.82
713.61	295.90
713.95	294.99
714.28	294.16
714.61	293.33
714.95	292.47
715.28	291.64
715.61	290.77
715.95	289.90
716.28	289.11
716.61	288.31
716.95	287.49
717.28	286.80
717.61	286.05
717.94	285.32
718.28	284.49
718.61	283.73
718.94	283.02
719.27	282.40
719.61	281.80
719.94	281.16
720.27	280.47
720.60	279.85
720.94	279.24
721.27	278.63
721.60	278.04
721.93	277.44
722.27	276.88
722.60	276.33
722.93	275.76
723.26	275.16
723.59	274.55
723.93	274.00
724.26	273.45
724.59	272.87
724.92	272.35
725.25	271.88
725.59	271.39
725.92	270.92
726.25	270.37
726.58	269.84
726.91	269.34
727.24	268.85
727.57	268.36
727.91	267.80
728.24	267.34
728.57	266.88
728.90	266.41
729.23	265.91
729.56	265.49
729.89	265.07
730.22	264.59
730.55	264.17
730.89	263.73
731.22	263.24
731.55	262.83
731.88	262.40
732.21	261.95
732.54	261.52
732.87	261.09
733.20	260.70
733.53	260.31
733.86	259.96
734.19	259.58
734.52	259.24
734.85	258.98
735.18	258.54
735.51	258.16
735.84	257.81
736.17	257.46
736.50	257.07
736.83	256.84
737.16	256.55
737.49	256.22
737.82	255.91
738.15	255.60
738.48	255.30
738.81	254.99
739.14	254.70
739.47	254.41
739.80	254.09
740.13	253.78
740.46	253.48
740.79	253.11
741.12	252.80
741.45	252.47
741.78	252.13
742.11	251.87
742.44	251.55
742.77	251.26
743.10	250.98
743.43	250.68
743.75	250.27
744.08	250.16
744.41	249.90
744.74	249.62
745.07	249.35
745.40	249.13
745.73	248.90
746.06	248.62
746.39	248.37
746.71	248.12
747.04	247.88
747.37	247.63
747.70	247.42
748.03	247.18
748.36	246.97
748.68	246.70
749.01	246.46
749.34	246.26
749.67	246.02
750.00	245.80
750.33	245.66
750.65	245.46
750.98	245.10
751.31	244.86
751.64	244.65
751.97	244.49
752.29	244.27
752.62	244.01
752.95	243.79
753.28	243.53
753.60	243.29
753.93	243.10
754.26	242.90
754.59	242.68
754.91	242.46
755.24	242.24
755.57	242.06
755.90	241.88
756.22	241.66
756.55	241.45
756.88	241.23
757.20	240.98
757.53	240.79
757.86	240.58
758.19	240.44
758.51	240.25
758.84	240.01
759.17	239.81
759.49	239.63
759.82	239.52
760.15	239.39
760.47	239.26
760.80	239.06
761.13	238.94
761.45	238.76
761.78	238.59
762.11	238.46
762.43	238.27
762.76	238.11
763.08	238.00
763.41	237.88
763.74	237.75
764.06	237.60
764.39	237.44
764.71	237.32
765.04	237.12
765.37	237.00
765.69	236.87
766.02	236.75
766.34	236.65
766.67	236.48
767.00	236.38
767.32	236.30
767.65	236.23
767.97	236.11
768.30	236.00
768.62	235.90
768.95	235.75
769.27	235.66
769.60	235.60
769.92	235.43
770.25	235.30
770.57	235.21
770.90	235.13
771.22	235.04
771.55	234.93
771.87	234.87
772.20	234.78
772.52	234.76
772.85	234.77
773.17	234.68
773.50	234.59
773.82	234.49
774.15	234.37
774.47	234.24
774.80	234.13
775.12	234.06
775.45	233.99
775.77	233.97
776.09	233.89
776.42	233.79
776.74	233.77
777.07	233.74
777.39	233.68
777.72	233.60
778.04	233.55
778.36	233.53
778.69	233.47
779.01	233.41
779.33	233.29
779.66	233.15
779.98	233.07
780.31	233.01
780.63	232.98
780.95	232.94
781.28	232.90
781.60	232.85
781.92	232.80
782.25	232.78
782.57	232.68
782.89	232.62
783.22	232.57
783.54	232.47
783.86	232.41
784.19	232.36
784.51	232.32
784.83	232.26
785.16	232.18
785.48	232.15
785.80	232.07
786.12	232.02
786.45	231.93
786.77	231.88
787.09	231.84
787.42	231.76
787.74	231.69
788.06	231.64
788.38	231.57
788.71	231.52
789.03	231.45
789.35	231.43
789.67	231.36
789.99	231.31
790.32	231.28
790.64	231.19
790.96	231.22
791.28	231.12
791.61	231.08
791.93	231.05
792.25	230.95
792.57	230.98
792.89	230.92
793.21	230.90
793.54	230.88
793.86	230.82
794.18	230.77
794.50	230.71
794.82	230.66
795.14	230.62
795.47	230.60
795.79	230.56
796.11	230.49
796.43	230.49
796.75	230.46
797.07	230.39
797.39	230.36
797.71	230.23
798.04	230.21
798.36	230.15
798.68	230.09
799.00	230.05
799.32	229.95
799.64	229.92
799.96	229.84
800.28	229.78
800.60	229.74
800.92	229.71
801.24	229.66
801.56	229.66
801.89	229.62
802.21	229.55
802.53	229.49
802.85	229.49
803.17	229.47
803.49	229.42
803.81	229.37
804.13	229.36
804.45	229.32
804.77	229.32
805.09	229.31
805.41	229.25
805.73	229.21
806.05	229.18
806.37	229.18
806.69	229.17
807.01	229.13
807.33	229.11
807.65	229.04
807.97	229.08
808.28	229.03
808.60	229.00
808.92	228.99
809.24	229.05
809.56	228.98
809.88	228.94
810.20	228.93
810.52	228.95
810.84	228.90
811.16	228.89
811.48	228.85
811.80	228.85
812.12	228.84
812.43	228.86
812.75	228.85
813.07	228.81
813.39	228.82
813.71	228.83
814.03	228.80
814.35	228.83
814.67	228.76
814.98	228.74
815.30	228.73
815.62	228.71
815.94	228.61
816.26	228.66
816.58	228.64
816.89	228.65
817.21	228.64
817.53	228.63
817.85	228.63
818.17	228.62
818.48	228.60
818.80	228.64
819.12	228.63
819.44	228.63
819.76	228.63
820.07	228.61
820.39	228.60
820.71	228.57
821.03	228.57
821.34	228.60
821.66	228.59
821.98	228.61
822.30	228.61
822.61	228.65
822.93	228.57
823.25	228.59
823.57	228.57
823.88	228.59
824.20	228.57
824.52	228.57
824.83	228.55
825.15	228.53
825.47	228.51
825.79	228.50
826.10	228.44
826.42	228.44
826.74	228.46
827.05	228.44
827.37	228.47
827.69	228.43
828.00	228.41
828.32	228.40
828.64	228.37
828.95	228.40
829.27	228.41
829.58	228.43
829.90	228.40
830.22	228.39
830.53	228.31
830.85	228.32
831.17	228.27
831.48	228.26
831.80	228.24
832.11	228.17
832.43	228.12
832.75	228.14
833.06	228.15
833.38	228.08
833.69	228.06
834.01	228.03
834.32	228.01
834.64	227.96
834.96	227.94
835.27	227.90
835.59	227.86
835.90	227.76
836.22	227.73
836.53	227.73
836.85	227.71
837.16	227.81
837.48	227.81
837.79	227.83
838.11	227.82
838.42	227.77
838.74	227.81
839.05	227.80
839.37	227.74
839.68	227.70
840.00	227.67
840.31	227.67
840.63	227.65
840.94	227.61
841.26	227.59
841.57	227.56
841.88	227.58
842.20	227.52
842.51	227.52
842.83	227.50
843.14	227.55
843.46	227.53
843.77	227.44
844.08	227.40
844.40	227.36
844.71	227.32
845.03	227.31
845.34	227.26
845.65	227.28
845.97	227.31
846.28	227.29
846.60	227.30
846.91	227.29
847.22	227.26
847.54	227.29
847.85	227.29
848.16	227.29
848.48	227.25
848.79	227.30
849.10	227.31
849.42	227.33
849.73	227.24
850.04	227.23
850.36	227.20
850.67	227.24
850.98	227.26
851.30	227.31
851.61	227.33
851.92	227.35
852.23	227.40
852.55	227.41
852.86	227.39
853.17	227.43
853.49	227.45
853.80	227.50
854.11	227.53
854.42	227.57
854.74	227.58
855.05	227.60
855.36	227.58
855.67	227.58
855.99	227.60
856.30	227.72
856.61	227.71
856.92	227.74
857.23	227.73
857.55	227.72
857.86	227.71
858.17	227.73
858.48	227.73
858.79	227.68
859.11	227.69
859.42	227.70
859.73	227.69
860.04	227.70
860.35	227.68
860.66	227.66
860.98	227.65
861.29	227.66
861.60	227.65
861.91	227.67
862.22	227.67
862.53	227.67
862.84	227.56
863.16	227.60
863.47	227.56
863.78	227.57
864.09	227.58
864.40	227.58
864.71	227.58
865.02	227.57
865.33	227.56
865.64	227.54
865.95	227.54
866.27	227.60
866.58	227.57
866.89	227.55
867.20	227.54
867.51	227.55
867.82	227.55
868.13	227.58
868.44	227.55
868.75	227.55
869.06	227.52
869.37	227.53
869.68	227.51
869.99	227.54
870.30	227.54
870.61	227.57
870.92	227.52
871.23	227.49
871.54	227.52
871.85	227.56
872.16	227.57
872.47	227.56
872.78	227.49
873.09	227.46
873.40	227.45
873.71	227.44
874.02	227.44
874.33	227.41
874.64	227.37
874.95	227.41
875.26	227.38
875.56	227.40
875.87	227.36
876.18	227.35
876.49	227.43
876.80	227.38
877.11	227.35
877.42	227.38
877.73	227.37
878.04	227.34
878.35	227.31
878.66	227.29
878.96	227.29
879.27	227.26
879.58	227.28
879.89	227.26
880.20	227.28
880.51	227.24
880.82	227.24
881.12	227.25
881.43	227.20
881.74	227.18
882.05	227.13
882.36	227.15
882.67	227.16
882.97	227.10
883.28	227.07
883.59	227.05
883.90	227.04
884.21	227.05
884.51	227.03
884.82	227.00
885.13	226.99
885.44	226.99
885.74	227.02
886.05	227.00
886.36	227.00
886.67	226.98
886.98	227.04
887.28	227.02
887.59	227.01
887.90	226.99
888.20	226.98
888.51	227.00
888.82	226.98
889.13	226.94
889.43	227.00
889.74	227.00
890.05	226.99
890.35	226.99
890.66	226.98
890.97	227.00
891.28	227.00
891.58	227.00
891.89	226.98
892.20	226.96
892.50	226.95
892.81	226.93
893.12	226.93
893.42	226.88
893.73	226.93
894.04	226.93
894.34	226.95
894.65	226.97
894.95	226.97
895.26	226.95
895.57	227.01
895.87	226.93
896.18	226.96
896.48	226.97
896.79	226.97
897.10	226.99
897.40	226.96
897.71	226.98
898.01	226.98
898.32	227.01
898.63	227.02
898.93	227.04
899.24	227.08
899.54	227.09
899.85	227.10
900.15	227.06
900.46	227.08
900.76	227.08
901.07	227.08
901.38	227.08
901.68	227.12
901.99	227.07
902.29	227.06
902.60	227.05
902.90	227.05
903.21	227.05
903.51	227.05
903.82	227.11
904.12	227.11
904.43	227.15
904.73	227.11
905.03	227.12
905.34	227.23
905.64	227.22
905.95	227.22
906.25	227.24
906.56	227.24
906.86	227.24
907.17	227.26
907.47	227.28
907.77	227.27
908.08	227.25
908.38	227.25
908.69	227.26
908.99	227.28
909.30	227.28
909.60	227.29
909.90	227.30
910.21	227.25
910.51	227.22
910.81	227.20
911.12	227.19
911.42	227.20
911.73	227.09
912.03	227.09
912.33	227.08
912.64	227.07
912.94	227.06
913.24	227.02
913.55	227.02
913.85	227.01
914.15	227.04
914.46	227.05
914.76	227.05
915.06	227.02
915.37	226.99
915.67	226.97
915.97	226.94
916.27	226.91
916.58	226.91
916.88	226.93
917.18	226.89
917.49	226.96
917.79	226.97
918.09	226.97
918.39	226.97
918.70	226.99
919.00	226.97
919.30	227.04
919.60	227.01
919.91	226.99
920.21	226.95
920.51	226.92
920.81	226.89
921.12	226.89
921.42	226.89
921.72	226.90
922.02	226.90
922.32	226.94
922.63	226.94
922.93	227.00
923.23	226.97
923.53	226.98
923.83	226.93
924.13	226.93
924.44	226.91
924.74	226.91
925.04	226.92
925.34	226.91
925.64	226.85
925.94	226.87
926.24	226.95
926.55	226.94
926.85	226.95
927.15	226.94
927.45	226.94
927.75	226.93
928.05	226.93
928.35	226.94
928.65	226.92
928.95	226.91
929.26	226.85
929.56	226.90
929.86	226.92
930.16	226.88
930.46	226.88
930.76	226.89
931.06	226.84
931.36	226.82
931.66	226.83
931.96	226.84
932.26	226.81
932.56	226.77
932.86	226.80
933.16	226.84
933.46	226.81
933.76	226.80
934.06	226.84
934.36	226.90
934.66	226.92
934.96	226.93
935.26	226.97
935.56	226.97
935.86	226.94
936.16	226.93
936.46	226.95
936.76	226.91
937.06	226.90
937.36	226.92
937.66	226.93
937.96	226.94
938.26	226.91
938.56	226.94
938.86	226.91
939.16	226.92
939.46	226.89
939.76	226.94
940.06	226.93
940.35	226.89
940.65	226.80
940.95	226.79
941.25	226.75
941.55	226.72
941.85	226.72
942.15	226.74
942.45	226.76
942.75	226.79
943.04	226.85
943.34	226.86
943.64	226.86
943.94	226.85
944.24	226.85
944.54	226.88
944.84	226.88
945.13	226.88
945.43	226.90
945.73	226.92
946.03	226.90
946.33	226.89
946.62	226.91
946.92	226.93
947.22	226.96
947.52	226.97
947.82	227.00
948.11	227.01
948.41	226.97
948.71	226.93
949.01	226.92
949.31	226.90
949.60	226.86
949.90	226.91
950.20	226.87
950.50	226.87
950.79	226.84
951.09	226.86
951.39	226.86
951.69	226.83
951.98	226.83
952.28	226.83
952.58	226.85
952.87	226.82
953.17	226.84
953.47	226.76
953.76	226.78
954.06	226.75
954.36	226.73
954.66	226.78
954.95	226.82
955.25	226.80
955.55	226.82
955.84	226.82
956.14	226.81
956.44	226.85
956.73	226.83
957.03	226.87
957.32	226.86
957.62	226.85
957.92	226.86
958.21	226.86
958.51	226.96
958.81	226.92
959.10	226.92
959.40	226.93
959.69	226.99
959.99	227.00
960.29	226.98
960.58	226.97
960.88	226.95
961.17	226.90
961.47	226.91
961.76	226.88
962.06	226.87
962.36	226.86
962.65	226.84
962.95	226.84
963.24	226.82
963.54	226.84
963.83	226.87
964.13	226.85
964.42	226.82
964.72	226.74
965.01	226.79
965.31	226.79
965.60	226.78
965.90	226.82
966.19	226.79
966.49	226.81
966.78	226.82
967.08	226.80
967.37	226.81
967.67	226.79
967.96	226.83
968.26	226.85
968.55	226.85
968.85	226.85
969.14	226.85
969.43	226.83
969.73	226.80
970.02	226.80
970.32	226.81
970.61	226.80
970.91	226.79
971.20	226.75
971.49	226.75
971.79	226.76
972.08	226.72
972.38	226.73
972.67	226.72
972.96	226.71
973.26	226.72
973.55	226.78
973.85	226.78
974.14	226.80
974.43	226.82
974.73	226.80
975.02	226.82
975.31	226.83
975.61	226.84
975.90	226.86
976.19	226.84
976.49	226.84
976.78	226.88
977.07	226.87
977.37	226.92
977.66	226.95
977.95	226.93
978.24	226.94
978.54	226.96
978.83	226.98
979.12	227.02
979.42	227.04
979.71	227.00
980.00	227.02
980.29	226.99
980.59	226.95
980.88	226.99
981.17	227.00
981.46	227.00
981.76	227.02
982.05	227.03
982.34	227.03
982.63	227.06
982.93	227.05
983.22	227.07
983.51	227.05
983.80	227.05
984.09	227.07
984.39	227.05
984.68	227.07
984.97	227.04
985.26	227.02
985.55	227.04
985.85	227.03
986.14	227.03
986.43	227.00
986.72	227.01
987.01	226.97
987.30	226.96
987.59	226.97
987.89	226.96
988.18	226.96
988.47	226.95
988.76	226.93
989.05	226.93
989.34	226.96
989.63	226.97
989.92	226.95
990.22	226.93
990.51	226.92
990.80	226.91
991.09	226.92
991.38	226.90
991.67	226.87
991.96	226.87
992.25	226.89
992.54	226.91
992.83	226.91
993.12	226.91
993.41	226.93
993.70	226.97
993.99	226.98
994.28	226.99
994.58	227.00
994.87	226.97
995.16	226.95
995.45	226.91
995.74	226.87
996.03	226.87
996.32	226.87
996.61	226.90
996.90	226.89
997.19	226.89
997.48	226.91
997.77	226.88
998.06	226.87
998.34	226.86
998.63	226.83
998.92	226.77
999.21	226.79
999.50	226.76
999.79	226.69
1000.08	226.66
1000.37	226.63
1000.66	226.62
1000.95	226.63
1001.24	226.64
1001.53	226.64
1001.82	226.64
1002.11	226.62
1002.40	226.62
1002.68	226.61
1002.97	226.64
1003.26	226.62
1003.55	226.59
1003.84	226.62
1004.13	226.65
1004.42	226.61
1004.71	226.60
1004.99	226.63
1005.28	226.65
1005.57	226.65
1005.86	226.63
1006.15	226.64
1006.44	226.62
1006.72	226.63
1007.01	226.62
1007.30	226.61
1007.59	226.60
1007.88	226.59
1008.17	226.62
1008.45	226.58
1008.74	226.57
1009.03	226.51
1009.32	226.54
1009.60	226.56
1009.89	226.53
1010.18	226.51
1010.47	226.53
1010.76	226.54
1011.04	226.53
1011.33	226.51
1011.62	226.51
1011.91	226.53
1012.19	226.53
1012.48	226.54
1012.77	226.53
1013.05	226.55
1013.34	226.57
1013.63	226.57
1013.92	226.56
1014.20	226.55
1014.49	226.58
1014.78	226.57
1015.06	226.53
1015.35	226.51
1015.64	226.51
1015.92	226.53
1016.21	226.52
1016.50	226.50
1016.78	226.52
1017.07	226.55
1017.36	226.54
1017.64	226.55
1017.93	226.57
1018.22	226.57
1018.50	226.59
1018.79	226.57
1019.08	226.57
1019.36	226.58
1019.65	226.58
1019.93	226.67
1020.22	226.72
1020.51	226.78
1020.79	226.80
1021.08	226.46
1021.36	226.66
1021.65	226.52
1021.94	227.05
1022.22	226.85
1022.51	226.47
1022.79	227.86
1023.08	227.62
1023.36	227.94
1023.65	226.99
>>>>>End Processed Spectral Data<<<<<
