SpectraSuite Data File
++++++++++++++++++++++++++++++++++++
Date: Fri Feb 01 16:09:36 EST 2013
User: group
Dark Spectrum Present: No
Reference Spectrum Present: No
Number of Sampled Component Spectra: 1
Spectrometers: USB2E7196
Integration Time (usec): 35000 (USB2E7196)
Spectra Averaged: 100 (USB2E7196)
Boxcar Smoothing: 10 (USB2E7196)
Correct for Electrical Dark: No (USB2E7196)
Strobe/Lamp Enabled: No (USB2E7196)
Correct for Detector Non-linearity: No (USB2E7196)
Correct for Stray Light: No (USB2E7196)
Number of Pixels in Processed Spectrum: 2048
>>>>>Begin Processed Spectral Data<<<<<
339.09	0.00
339.48	214.57
339.86	216.45
340.24	217.27
340.63	218.26
341.01	221.18
341.39	221.45
341.78	223.25
342.16	224.28
342.54	225.12
342.93	213.02
343.31	223.79
343.69	224.33
344.07	224.78
344.46	225.20
344.84	225.59
345.22	225.86
345.60	226.12
345.99	226.30
346.37	226.40
346.75	226.48
347.13	226.55
347.52	226.59
347.90	226.63
348.28	226.64
348.66	226.67
349.05	226.68
349.43	226.73
349.81	226.73
350.19	226.79
350.57	226.85
350.96	226.92
351.34	226.99
351.72	227.05
352.10	227.13
352.48	227.19
352.87	227.26
353.25	227.27
353.63	227.33
354.01	227.37
354.39	227.45
354.77	227.51
355.15	227.62
355.54	227.68
355.92	227.72
356.30	227.82
356.68	227.96
357.06	228.02
357.44	228.09
357.82	228.17
358.20	228.21
358.58	228.29
358.97	228.38
359.35	228.46
359.73	228.57
360.11	228.60
360.49	228.68
360.87	228.74
361.25	228.78
361.63	228.86
362.01	228.92
362.39	228.94
362.77	229.00
363.15	229.03
363.53	229.07
363.91	229.10
364.29	229.10
364.67	229.02
365.05	229.07
365.43	229.08
365.81	229.09
366.19	229.12
366.57	229.13
366.95	229.12
367.33	229.07
367.71	229.04
368.09	229.05
368.47	229.02
368.85	229.00
369.23	229.04
369.61	228.97
369.99	228.96
370.37	228.93
370.75	228.94
371.13	228.86
371.51	228.81
371.89	228.77
372.27	228.73
372.65	228.72
373.03	228.64
373.41	228.56
373.78	228.52
374.16	228.44
374.54	228.38
374.92	228.34
375.30	228.30
375.68	228.23
376.06	228.18
376.44	228.12
376.82	228.06
377.19	228.00
377.57	227.95
377.95	227.86
378.33	227.83
378.71	227.69
379.09	227.67
379.47	227.60
379.84	227.50
380.22	227.43
380.60	227.31
380.98	227.24
381.36	227.17
381.73	227.06
382.11	226.97
382.49	226.89
382.87	226.78
383.25	226.70
383.62	226.77
384.00	226.66
384.38	226.62
384.76	226.59
385.13	226.56
385.51	226.51
385.89	226.46
386.27	226.37
386.64	226.35
387.02	226.29
387.40	226.23
387.78	226.22
388.15	226.16
388.53	226.16
388.91	226.10
389.29	226.08
389.66	226.06
390.04	226.05
390.42	226.06
390.79	226.06
391.17	226.03
391.55	225.91
391.92	225.94
392.30	225.89
392.68	225.87
393.05	225.84
393.43	225.82
393.81	225.80
394.18	225.78
394.56	225.78
394.94	225.79
395.31	225.84
395.69	225.89
396.06	225.93
396.44	225.94
396.82	225.98
397.19	226.06
397.57	226.07
397.95	226.12
398.32	226.11
398.70	226.15
399.07	226.24
399.45	226.29
399.82	226.33
400.20	226.41
400.58	226.47
400.95	226.50
401.33	226.60
401.70	226.75
402.08	226.87
402.45	226.99
402.83	227.09
403.20	227.17
403.58	227.28
403.95	227.39
404.33	227.54
404.71	227.64
405.08	227.80
405.46	227.95
405.83	228.10
406.21	228.25
406.58	228.42
406.96	228.58
407.33	228.76
407.70	228.98
408.08	229.25
408.45	229.47
408.83	229.74
409.20	229.94
409.58	230.14
409.95	230.41
410.33	230.70
410.70	230.98
411.08	231.32
411.45	231.59
411.82	231.96
412.20	232.31
412.57	232.74
412.95	233.05
413.32	233.49
413.69	233.89
414.07	234.34
414.44	234.82
414.82	235.32
415.19	235.87
415.56	236.40
415.94	236.95
416.31	237.60
416.68	238.22
417.06	238.99
417.43	239.66
417.81	240.43
418.18	241.20
418.55	242.04
418.93	242.90
419.30	243.81
419.67	244.70
420.04	245.67
420.42	246.66
420.79	247.87
421.16	249.00
421.54	250.21
421.91	251.45
422.28	252.68
422.66	253.99
423.03	255.29
423.40	256.65
423.77	258.03
424.15	259.41
424.52	260.92
424.89	262.52
425.26	264.08
425.64	265.53
426.01	267.08
426.38	268.69
426.75	270.35
427.13	272.09
427.50	273.91
427.87	275.79
428.24	277.69
428.61	279.42
428.99	281.39
429.36	283.45
429.73	285.50
430.10	287.51
430.47	289.57
430.85	291.70
431.22	293.94
431.59	296.37
431.96	298.63
432.33	301.10
432.70	303.49
433.08	306.29
433.45	308.93
433.82	311.55
434.19	314.45
434.56	317.26
434.93	319.88
435.30	322.51
435.68	325.40
436.05	328.21
436.42	330.97
436.79	333.48
437.16	336.17
437.53	339.03
437.90	341.81
438.27	344.49
438.64	347.27
439.01	349.86
439.38	352.05
439.75	354.17
440.13	356.62
440.50	358.88
440.87	360.71
441.24	362.59
441.61	364.72
441.98	366.19
442.35	367.99
442.72	369.82
443.09	371.60
443.46	372.50
443.83	373.05
444.20	373.55
444.57	374.36
444.94	374.66
445.31	374.94
445.68	375.32
446.05	375.43
446.42	375.04
446.79	374.56
447.16	374.11
447.53	373.83
447.90	372.68
448.27	371.50
448.64	369.94
449.01	368.82
449.37	366.89
449.74	364.99
450.11	362.74
450.48	360.24
450.85	357.69
451.22	355.58
451.59	353.55
451.96	351.58
452.33	348.97
452.70	346.59
453.07	343.77
453.43	340.86
453.80	338.11
454.17	335.46
454.54	332.95
454.91	330.21
455.28	327.55
455.65	325.07
456.02	322.70
456.38	320.54
456.75	317.89
457.12	315.63
457.49	313.42
457.86	311.30
458.23	309.49
458.59	307.45
458.96	305.43
459.33	303.57
459.70	301.78
460.07	300.30
460.43	298.60
460.80	297.01
461.17	295.60
461.54	294.11
461.91	292.69
462.27	291.24
462.64	290.03
463.01	288.68
463.38	287.41
463.74	286.02
464.11	284.89
464.48	283.88
464.85	282.77
465.21	281.93
465.58	281.01
465.95	279.95
466.32	279.05
466.68	278.15
467.05	277.29
467.42	276.38
467.78	275.45
468.15	274.62
468.52	273.95
468.88	273.12
469.25	272.37
469.62	271.78
469.98	271.15
470.35	270.53
470.72	269.88
471.08	269.26
471.45	268.75
471.82	268.20
472.18	267.63
472.55	267.20
472.92	266.68
473.28	266.21
473.65	265.74
474.02	265.32
474.38	264.97
474.75	264.64
475.11	264.32
475.48	264.05
475.85	263.80
476.21	263.58
476.58	263.38
476.94	263.22
477.31	263.06
477.67	262.89
478.04	262.78
478.41	262.76
478.77	262.79
479.14	262.73
479.50	262.73
479.87	262.77
480.23	262.86
480.60	262.94
480.96	263.00
481.33	263.20
481.69	263.39
482.06	263.56
482.42	263.74
482.79	263.97
483.15	264.28
483.52	264.64
483.88	264.97
484.25	265.37
484.61	265.78
484.98	266.23
485.34	266.75
485.71	267.33
486.07	267.96
486.44	268.53
486.80	269.21
487.17	269.96
487.53	270.77
487.90	271.64
488.26	272.56
488.62	273.60
488.99	274.57
489.35	275.62
489.72	276.73
490.08	277.93
490.44	279.19
490.81	280.56
491.17	281.95
491.54	283.43
491.90	284.93
492.26	286.61
492.63	288.34
492.99	290.16
493.36	292.07
493.72	294.10
494.08	296.20
494.45	298.48
494.81	300.81
495.17	303.22
495.54	305.78
495.90	308.50
496.26	311.30
496.63	314.26
496.99	317.42
497.35	320.68
497.72	324.15
498.08	327.70
498.44	331.37
498.80	335.32
499.17	339.39
499.53	343.61
499.89	348.00
500.26	352.50
500.62	357.18
500.98	362.15
501.34	367.24
501.71	372.60
502.07	378.04
502.43	383.68
502.79	389.56
503.16	395.64
503.52	401.88
503.88	408.32
504.24	414.96
504.60	421.85
504.97	428.99
505.33	436.28
505.69	443.98
506.05	451.72
506.41	459.61
506.78	467.80
507.14	476.32
507.50	485.13
507.86	494.15
508.22	503.36
508.59	512.58
508.95	522.19
509.31	531.98
509.67	542.08
510.03	552.43
510.39	563.01
510.75	573.77
511.12	584.78
511.48	596.07
511.84	607.54
512.20	619.11
512.56	631.05
512.92	643.21
513.28	655.62
513.64	668.19
514.00	680.95
514.37	693.88
514.73	706.89
515.09	719.82
515.45	733.18
515.81	746.84
516.17	760.87
516.53	774.96
516.89	789.16
517.25	803.36
517.61	817.73
517.97	832.19
518.33	846.63
518.69	861.45
519.05	876.38
519.41	891.58
519.77	907.06
520.13	922.53
520.49	937.96
520.85	953.30
521.21	968.95
521.57	985.14
521.93	1000.81
522.29	1017.15
522.65	1033.48
523.01	1049.62
523.37	1065.56
523.73	1081.66
524.09	1097.74
524.45	1114.05
524.81	1130.63
525.17	1147.35
525.53	1164.18
525.89	1180.99
526.25	1197.73
526.61	1214.14
526.97	1230.90
527.33	1247.26
527.68	1263.80
528.04	1280.24
528.40	1296.79
528.76	1313.76
529.12	1330.35
529.48	1347.28
529.84	1363.14
530.20	1379.58
530.56	1396.57
530.91	1413.91
531.27	1430.75
531.63	1447.27
531.99	1463.75
532.35	1479.72
532.71	1495.58
533.07	1511.86
533.42	1527.73
533.78	1543.62
534.14	1559.91
534.50	1575.16
534.86	1591.00
535.21	1606.24
535.57	1622.05
535.93	1637.46
536.29	1652.15
536.65	1666.96
537.00	1681.53
537.36	1696.91
537.72	1711.44
538.08	1725.75
538.44	1739.46
538.79	1753.30
539.15	1766.70
539.51	1780.41
539.87	1794.61
540.22	1808.20
540.58	1821.72
540.94	1834.92
541.29	1847.68
541.65	1860.25
542.01	1873.27
542.37	1885.49
542.72	1897.84
543.08	1909.64
543.44	1921.92
543.79	1933.21
544.15	1944.21
544.51	1955.77
544.87	1966.62
545.22	1977.51
545.58	1987.61
545.94	1997.31
546.29	2007.06
546.65	2016.95
547.01	2026.14
547.36	2034.78
547.72	2043.47
548.07	2051.37
548.43	2059.52
548.79	2067.53
549.14	2075.07
549.50	2082.44
549.86	2090.18
550.21	2097.35
550.57	2104.45
550.92	2111.13
551.28	2118.05
551.64	2125.06
551.99	2131.66
552.35	2137.87
552.70	2143.92
553.06	2149.94
553.41	2156.37
553.77	2162.32
554.13	2168.35
554.48	2174.36
554.84	2179.89
555.19	2184.98
555.55	2190.18
555.90	2194.72
556.26	2199.72
556.61	2204.41
556.97	2208.78
557.32	2212.86
557.68	2217.03
558.03	2221.25
558.39	2224.82
558.74	2229.48
559.10	2233.40
559.45	2237.11
559.81	2241.34
560.16	2245.23
560.52	2248.56
560.87	2251.94
561.23	2254.68
561.58	2257.55
561.94	2260.18
562.29	2262.58
562.64	2265.44
563.00	2267.98
563.35	2271.50
563.71	2274.55
564.06	2277.77
564.42	2280.66
564.77	2283.31
565.12	2285.74
565.48	2287.66
565.83	2289.72
566.19	2291.24
566.54	2292.11
566.89	2293.14
567.25	2293.74
567.60	2294.91
567.96	2296.56
568.31	2297.35
568.66	2298.49
569.02	2299.18
569.37	2299.49
569.72	2300.36
570.08	2300.42
570.43	2300.44
570.78	2299.92
571.14	2298.40
571.49	2297.02
571.84	2296.60
572.20	2295.49
572.55	2294.35
572.90	2292.87
573.26	2291.42
573.61	2289.55
573.96	2287.98
574.31	2285.15
574.67	2282.16
575.02	2278.54
575.37	2275.24
575.72	2271.53
576.08	2268.06
576.43	2264.73
576.78	2261.14
577.13	2258.01
577.49	2254.85
577.84	2251.44
578.19	2247.60
578.54	2244.11
578.90	2239.95
579.25	2234.59
579.60	2229.62
579.95	2224.67
580.30	2219.64
580.66	2214.50
581.01	2209.58
581.36	2204.57
581.71	2200.46
582.06	2196.23
582.42	2191.98
582.77	2186.70
583.12	2182.26
583.47	2177.68
583.82	2172.83
584.17	2167.68
584.53	2162.27
584.88	2156.74
585.23	2151.04
585.58	2145.51
585.93	2140.00
586.28	2135.04
586.63	2129.81
586.98	2124.79
587.34	2120.06
587.69	2115.08
588.04	2109.78
588.39	2104.13
588.74	2097.67
589.09	2091.41
589.44	2084.51
589.79	2078.25
590.14	2072.45
590.49	2065.92
590.84	2059.39
591.19	2053.20
591.54	2046.82
591.89	2039.53
592.25	2032.82
592.60	2025.63
592.95	2018.21
593.30	2010.83
593.65	2003.34
594.00	1996.25
594.35	1989.04
594.70	1980.99
595.05	1974.05
595.40	1966.94
595.75	1959.51
596.10	1953.42
596.45	1946.81
596.80	1940.76
597.15	1934.31
597.50	1927.48
597.85	1920.90
598.19	1914.32
598.54	1907.32
598.89	1900.49
599.24	1894.54
599.59	1887.85
599.94	1881.61
600.29	1875.24
600.64	1868.61
600.99	1861.35
601.34	1854.84
601.69	1847.75
602.04	1840.93
602.39	1833.51
602.74	1826.63
603.08	1819.80
603.43	1812.96
603.78	1805.69
604.13	1798.36
604.48	1791.13
604.83	1784.27
605.18	1777.36
605.53	1769.54
605.87	1761.47
606.22	1754.28
606.57	1746.40
606.92	1739.07
607.27	1731.99
607.62	1725.24
607.96	1718.13
608.31	1711.66
608.66	1703.97
609.01	1696.53
609.36	1688.98
609.70	1680.96
610.05	1672.90
610.40	1665.33
610.75	1657.10
611.10	1649.44
611.44	1640.99
611.79	1632.93
612.14	1624.24
612.49	1615.03
612.83	1606.61
613.18	1598.51
613.53	1590.47
613.88	1581.78
614.22	1573.40
614.57	1564.68
614.92	1556.54
615.27	1549.05
615.61	1540.49
615.96	1532.40
616.31	1524.65
616.65	1517.16
617.00	1509.58
617.35	1501.93
617.70	1493.47
618.04	1484.99
618.39	1476.57
618.74	1469.12
619.08	1460.73
619.43	1453.19
619.78	1446.29
620.12	1439.08
620.47	1431.63
620.82	1423.40
621.16	1415.86
621.51	1408.27
621.85	1400.64
622.20	1392.16
622.55	1383.60
622.89	1375.82
623.24	1368.17
623.59	1360.84
623.93	1353.39
624.28	1346.25
624.62	1338.60
624.97	1331.60
625.32	1324.84
625.66	1317.86
626.01	1310.60
626.35	1303.26
626.70	1295.45
627.04	1287.76
627.39	1280.01
627.73	1272.55
628.08	1265.60
628.43	1258.48
628.77	1251.06
629.12	1243.60
629.46	1236.42
629.81	1228.99
630.15	1221.66
630.50	1214.30
630.84	1206.08
631.19	1198.11
631.53	1190.39
631.88	1182.89
632.22	1175.20
632.57	1167.74
632.91	1160.30
633.26	1152.92
633.60	1145.56
633.95	1138.41
634.29	1131.36
634.64	1124.60
634.98	1117.27
635.32	1110.26
635.67	1103.63
636.01	1097.12
636.36	1090.30
636.70	1083.70
637.05	1077.24
637.39	1070.86
637.73	1064.37
638.08	1058.38
638.42	1052.40
638.77	1046.03
639.11	1039.53
639.45	1033.08
639.80	1026.53
640.14	1020.11
640.49	1013.57
640.83	1007.16
641.17	1001.02
641.52	994.71
641.86	988.19
642.20	982.33
642.55	975.85
642.89	969.34
643.23	962.79
643.58	956.98
643.92	950.83
644.26	944.88
644.61	938.79
644.95	932.78
645.29	926.30
645.64	919.64
645.98	913.33
646.32	907.46
646.66	901.51
647.01	895.65
647.35	889.87
647.69	883.98
648.04	878.45
648.38	872.61
648.72	866.59
649.06	860.56
649.41	854.72
649.75	848.86
650.09	842.89
650.43	837.01
650.78	830.87
651.12	824.97
651.46	819.17
651.80	813.48
652.14	807.99
652.49	802.61
652.83	797.41
653.17	791.67
653.51	785.95
653.85	780.50
654.20	774.90
654.54	768.86
654.88	763.09
655.22	757.18
655.56	751.45
655.90	745.95
656.25	740.77
656.59	735.36
656.93	730.23
657.27	725.14
657.61	719.81
657.95	714.67
658.29	709.52
658.64	704.21
658.98	698.81
659.32	693.39
659.66	688.20
660.00	682.86
660.34	678.01
660.68	673.08
661.02	668.07
661.36	663.35
661.70	658.94
662.05	654.61
662.39	650.38
662.73	645.93
663.07	641.54
663.41	637.01
663.75	632.48
664.09	627.94
664.43	623.48
664.77	619.31
665.11	615.11
665.45	610.94
665.79	606.85
666.13	602.70
666.47	598.61
666.81	594.41
667.15	590.32
667.49	586.32
667.83	582.49
668.17	578.52
668.51	574.43
668.85	570.32
669.19	566.47
669.53	562.53
669.87	558.70
670.21	555.04
670.55	551.41
670.89	548.07
671.23	544.55
671.57	541.11
671.91	537.53
672.25	533.96
672.58	530.47
672.92	527.09
673.26	523.98
673.60	520.73
673.94	517.66
674.28	514.75
674.62	511.82
674.96	508.71
675.30	505.83
675.64	502.92
675.97	500.14
676.31	497.31
676.65	494.44
676.99	491.69
677.33	488.75
677.67	486.01
678.01	482.96
678.34	480.06
678.68	477.12
679.02	474.34
679.36	471.65
679.70	468.98
680.04	466.17
680.37	463.28
680.71	460.58
681.05	457.94
681.39	455.25
681.73	452.64
682.06	450.12
682.40	447.59
682.74	445.03
683.08	442.49
683.42	439.93
683.75	437.45
684.09	434.87
684.43	432.44
684.77	429.93
685.10	427.57
685.44	425.22
685.78	422.97
686.12	420.68
686.45	418.35
686.79	416.01
687.13	413.84
687.46	411.71
687.80	409.52
688.14	407.32
688.48	405.25
688.81	402.97
689.15	400.83
689.49	398.69
689.82	396.61
690.16	394.54
690.50	392.55
690.83	390.60
691.17	388.62
691.51	386.71
691.84	384.87
692.18	382.92
692.52	380.98
692.85	379.02
693.19	377.20
693.52	375.34
693.86	373.52
694.20	371.77
694.53	369.95
694.87	368.13
695.21	366.29
695.54	364.45
695.88	362.73
696.21	360.99
696.55	359.28
696.88	357.61
697.22	355.94
697.56	354.30
697.89	352.58
698.23	351.01
698.56	349.40
698.90	347.81
699.23	346.21
699.57	344.61
699.90	343.09
700.24	341.51
700.58	340.03
700.91	338.55
701.25	337.07
701.58	335.66
701.92	334.25
702.25	332.89
702.59	331.50
702.92	330.18
703.26	328.86
703.59	327.58
703.93	326.33
704.26	325.06
704.60	323.72
704.93	322.50
705.26	321.23
705.60	320.05
705.93	318.84
706.27	317.78
706.60	316.69
706.94	315.59
707.27	314.49
707.61	313.42
707.94	312.39
708.27	311.29
708.61	310.25
708.94	309.26
709.28	308.28
709.61	307.31
709.94	306.34
710.28	305.33
710.61	304.37
710.95	303.36
711.28	302.45
711.61	301.48
711.95	300.55
712.28	299.65
712.61	298.66
712.95	297.74
713.28	296.85
713.61	295.96
713.95	295.09
714.28	294.21
714.61	293.33
714.95	292.43
715.28	291.60
715.61	290.73
715.95	289.90
716.28	289.07
716.61	288.24
716.95	287.38
717.28	286.64
717.61	285.85
717.94	285.10
718.28	284.32
718.61	283.63
718.94	282.94
719.27	282.29
719.61	281.64
719.94	281.00
720.27	280.33
720.60	279.71
720.94	279.09
721.27	278.50
721.60	277.91
721.93	277.35
722.27	276.80
722.60	276.25
722.93	275.68
723.26	275.12
723.59	274.58
723.93	274.08
724.26	273.51
724.59	272.97
724.92	272.44
725.25	271.92
725.59	271.41
725.92	270.91
726.25	270.39
726.58	269.90
726.91	269.37
727.24	268.88
727.57	268.43
727.91	267.91
728.24	267.44
728.57	266.98
728.90	266.51
729.23	266.00
729.56	265.57
729.89	265.08
730.22	264.62
730.55	264.13
730.89	263.70
731.22	263.27
731.55	262.82
731.88	262.38
732.21	261.94
732.54	261.54
732.87	261.13
733.20	260.69
733.53	260.33
733.86	259.97
734.19	259.58
734.52	259.16
734.85	258.84
735.18	258.44
735.51	258.04
735.84	257.68
736.17	257.35
736.50	256.93
736.83	256.70
737.16	256.36
737.49	256.06
737.82	255.67
738.15	255.34
738.48	255.01
738.81	254.70
739.14	254.35
739.47	253.98
739.80	253.66
740.13	253.38
740.46	253.04
740.79	252.67
741.12	252.37
741.45	252.07
741.78	251.73
742.11	251.46
742.44	251.14
742.77	250.85
743.10	250.52
743.43	250.24
743.75	249.85
744.08	249.70
744.41	249.39
744.74	249.12
745.07	248.79
745.40	248.52
745.73	248.29
746.06	248.03
746.39	247.81
746.71	247.51
747.04	247.25
747.37	246.96
747.70	246.76
748.03	246.51
748.36	246.28
748.68	246.06
749.01	245.79
749.34	245.58
749.67	245.32
750.00	245.15
750.33	245.00
750.65	244.82
750.98	244.50
751.31	244.31
751.64	244.12
751.97	243.97
752.29	243.80
752.62	243.53
752.95	243.31
753.28	243.11
753.60	242.90
753.93	242.71
754.26	242.54
754.59	242.30
754.91	242.08
755.24	241.87
755.57	241.68
755.90	241.50
756.22	241.30
756.55	241.11
756.88	240.90
757.20	240.65
757.53	240.44
757.86	240.26
758.19	240.09
758.51	239.91
758.84	239.68
759.17	239.49
759.49	239.38
759.82	239.28
760.15	239.11
760.47	238.98
760.80	238.79
761.13	238.69
761.45	238.57
761.78	238.45
762.11	238.30
762.43	238.14
762.76	238.02
763.08	237.89
763.41	237.80
763.74	237.64
764.06	237.52
764.39	237.40
764.71	237.25
765.04	237.11
765.37	236.99
765.69	236.87
766.02	236.75
766.34	236.60
766.67	236.45
767.00	236.37
767.32	236.30
767.65	236.26
767.97	236.12
768.30	236.01
768.62	235.87
768.95	235.75
769.27	235.66
769.60	235.53
769.92	235.40
770.25	235.25
770.57	235.16
770.90	235.06
771.22	234.95
771.55	234.83
771.87	234.79
772.20	234.72
772.52	234.74
772.85	234.77
773.17	234.65
773.50	234.58
773.82	234.45
774.15	234.30
774.47	234.14
774.80	234.04
775.12	233.95
775.45	233.87
775.77	233.78
776.09	233.71
776.42	233.61
776.74	233.57
777.07	233.47
777.39	233.43
777.72	233.34
778.04	233.27
778.36	233.20
778.69	233.10
779.01	232.96
779.33	232.83
779.66	232.63
779.98	232.59
780.31	232.50
780.63	232.47
780.95	232.46
781.28	232.38
781.60	232.25
781.92	232.17
782.25	232.11
782.57	232.03
782.89	231.94
783.22	231.85
783.54	231.74
783.86	231.67
784.19	231.57
784.51	231.53
784.83	231.48
785.16	231.43
785.48	231.33
785.80	231.31
786.12	231.23
786.45	231.19
786.77	231.10
787.09	231.06
787.42	230.97
787.74	230.91
788.06	230.88
788.38	230.87
788.71	230.80
789.03	230.76
789.35	230.75
789.67	230.71
789.99	230.71
790.32	230.66
790.64	230.66
790.96	230.69
791.28	230.62
791.61	230.56
791.93	230.50
792.25	230.49
792.57	230.49
792.89	230.42
793.21	230.39
793.54	230.38
793.86	230.32
794.18	230.29
794.50	230.24
794.82	230.22
795.14	230.21
795.47	230.20
795.79	230.19
796.11	230.14
796.43	230.11
796.75	230.10
797.07	230.07
797.39	230.03
797.71	229.94
798.04	229.91
798.36	229.88
798.68	229.87
799.00	229.86
799.32	229.82
799.64	229.81
799.96	229.75
800.28	229.72
800.60	229.73
800.92	229.71
801.24	229.71
801.56	229.69
801.89	229.63
802.21	229.62
802.53	229.56
802.85	229.55
803.17	229.57
803.49	229.54
803.81	229.53
804.13	229.50
804.45	229.48
804.77	229.47
805.09	229.45
805.41	229.42
805.73	229.40
806.05	229.35
806.37	229.36
806.69	229.33
807.01	229.30
807.33	229.24
807.65	229.19
807.97	229.18
808.28	229.14
808.60	229.14
808.92	229.12
809.24	229.18
809.56	229.13
809.88	229.08
810.20	229.02
810.52	229.04
810.84	229.03
811.16	229.00
811.48	228.98
811.80	228.98
812.12	228.95
812.43	228.95
812.75	228.94
813.07	228.85
813.39	228.82
813.71	228.81
814.03	228.79
814.35	228.78
814.67	228.71
814.98	228.67
815.30	228.63
815.62	228.59
815.94	228.48
816.26	228.51
816.58	228.44
816.89	228.43
817.21	228.37
817.53	228.31
817.85	228.30
818.17	228.26
818.48	228.23
818.80	228.24
819.12	228.18
819.44	228.12
819.76	228.13
820.07	228.11
820.39	228.10
820.71	228.08
821.03	228.03
821.34	228.01
821.66	228.01
821.98	228.04
822.30	228.06
822.61	228.13
822.93	228.05
823.25	228.04
823.57	228.02
823.88	228.01
824.20	228.02
824.52	227.99
824.83	227.97
825.15	227.92
825.47	227.86
825.79	227.87
826.10	227.87
826.42	227.85
826.74	227.86
827.05	227.81
827.37	227.80
827.69	227.81
828.00	227.79
828.32	227.79
828.64	227.76
828.95	227.77
829.27	227.72
829.58	227.70
829.90	227.74
830.22	227.74
830.53	227.68
830.85	227.68
831.17	227.65
831.48	227.64
831.80	227.64
832.11	227.62
832.43	227.58
832.75	227.58
833.06	227.65
833.38	227.62
833.69	227.62
834.01	227.58
834.32	227.60
834.64	227.59
834.96	227.58
835.27	227.56
835.59	227.52
835.90	227.49
836.22	227.48
836.53	227.44
836.85	227.43
837.16	227.56
837.48	227.55
837.79	227.56
838.11	227.56
838.42	227.56
838.74	227.58
839.05	227.57
839.37	227.53
839.68	227.44
840.00	227.40
840.31	227.42
840.63	227.45
840.94	227.40
841.26	227.39
841.57	227.38
841.88	227.41
842.20	227.39
842.51	227.40
842.83	227.40
843.14	227.50
843.46	227.48
843.77	227.41
844.08	227.41
844.40	227.39
844.71	227.38
845.03	227.39
845.34	227.41
845.65	227.42
845.97	227.44
846.28	227.45
846.60	227.50
846.91	227.45
847.22	227.43
847.54	227.48
847.85	227.51
848.16	227.50
848.48	227.44
848.79	227.47
849.10	227.46
849.42	227.49
849.73	227.37
850.04	227.38
850.36	227.35
850.67	227.35
850.98	227.34
851.30	227.31
851.61	227.28
851.92	227.25
852.23	227.27
852.55	227.27
852.86	227.27
853.17	227.25
853.49	227.27
853.80	227.28
854.11	227.27
854.42	227.23
854.74	227.21
855.05	227.23
855.36	227.17
855.67	227.13
855.99	227.11
856.30	227.24
856.61	227.24
856.92	227.25
857.23	227.21
857.55	227.18
857.86	227.18
858.17	227.20
858.48	227.18
858.79	227.13
859.11	227.13
859.42	227.09
859.73	227.09
860.04	227.09
860.35	227.07
860.66	227.02
860.98	227.04
861.29	227.03
861.60	227.01
861.91	227.03
862.22	227.06
862.53	227.02
862.84	226.91
863.16	226.93
863.47	226.90
863.78	226.91
864.09	226.95
864.40	226.97
864.71	226.94
865.02	226.94
865.33	226.96
865.64	226.97
865.95	226.99
866.27	227.06
866.58	227.06
866.89	227.09
867.20	227.09
867.51	227.07
867.82	227.08
868.13	227.15
868.44	227.12
868.75	227.11
869.06	227.15
869.37	227.14
869.68	227.10
869.99	227.11
870.30	227.13
870.61	227.10
870.92	227.09
871.23	227.14
871.54	227.16
871.85	227.19
872.16	227.22
872.47	227.18
872.78	227.13
873.09	227.14
873.40	227.11
873.71	227.15
874.02	227.16
874.33	227.15
874.64	227.11
874.95	227.14
875.26	227.13
875.56	227.11
875.87	227.13
876.18	227.14
876.49	227.23
876.80	227.22
877.11	227.24
877.42	227.27
877.73	227.25
878.04	227.22
878.35	227.19
878.66	227.13
878.96	227.19
879.27	227.17
879.58	227.14
879.89	227.13
880.20	227.15
880.51	227.13
880.82	227.15
881.12	227.14
881.43	227.10
881.74	227.10
882.05	227.12
882.36	227.09
882.67	227.05
882.97	226.97
883.28	226.96
883.59	226.94
883.90	226.94
884.21	226.96
884.51	226.95
884.82	226.94
885.13	226.95
885.44	226.91
885.74	226.91
886.05	226.89
886.36	226.90
886.67	226.86
886.98	226.92
887.28	226.89
887.59	226.88
887.90	226.88
888.20	226.86
888.51	226.82
888.82	226.85
889.13	226.90
889.43	226.94
889.74	226.89
890.05	226.90
890.35	226.87
890.66	226.82
890.97	226.80
891.28	226.81
891.58	226.81
891.89	226.81
892.20	226.79
892.50	226.78
892.81	226.77
893.12	226.79
893.42	226.72
893.73	226.72
894.04	226.70
894.34	226.67
894.65	226.69
894.95	226.70
895.26	226.69
895.57	226.72
895.87	226.62
896.18	226.66
896.48	226.62
896.79	226.61
897.10	226.65
897.40	226.66
897.71	226.65
898.01	226.65
898.32	226.63
898.63	226.65
898.93	226.68
899.24	226.66
899.54	226.63
899.85	226.64
900.15	226.63
900.46	226.63
900.76	226.67
901.07	226.69
901.38	226.68
901.68	226.68
901.99	226.61
902.29	226.63
902.60	226.63
902.90	226.63
903.21	226.67
903.51	226.65
903.82	226.69
904.12	226.69
904.43	226.69
904.73	226.71
905.03	226.69
905.34	226.78
905.64	226.80
905.95	226.79
906.25	226.78
906.56	226.77
906.86	226.79
907.17	226.78
907.47	226.76
907.77	226.75
908.08	226.74
908.38	226.78
908.69	226.80
908.99	226.83
909.30	226.84
909.60	226.80
909.90	226.82
910.21	226.77
910.51	226.76
910.81	226.76
911.12	226.74
911.42	226.77
911.73	226.69
912.03	226.68
912.33	226.73
912.64	226.75
912.94	226.77
913.24	226.79
913.55	226.76
913.85	226.78
914.15	226.83
914.46	226.85
914.76	226.84
915.06	226.82
915.37	226.82
915.67	226.83
915.97	226.87
916.27	226.84
916.58	226.84
916.88	226.89
917.18	226.87
917.49	226.96
917.79	226.98
918.09	226.98
918.39	227.02
918.70	226.99
919.00	226.97
919.30	227.01
919.60	226.99
919.91	227.00
920.21	227.00
920.51	226.95
920.81	226.94
921.12	226.95
921.42	226.94
921.72	226.91
922.02	226.88
922.32	226.87
922.63	226.89
922.93	226.95
923.23	226.94
923.53	226.95
923.83	226.88
924.13	226.87
924.44	226.84
924.74	226.85
925.04	226.87
925.34	226.86
925.64	226.79
925.94	226.78
926.24	226.82
926.55	226.77
926.85	226.76
927.15	226.74
927.45	226.73
927.75	226.71
928.05	226.72
928.35	226.73
928.65	226.73
928.95	226.71
929.26	226.63
929.56	226.61
929.86	226.62
930.16	226.60
930.46	226.57
930.76	226.57
931.06	226.51
931.36	226.43
931.66	226.44
931.96	226.45
932.26	226.45
932.56	226.40
932.86	226.39
933.16	226.39
933.46	226.34
933.76	226.32
934.06	226.33
934.36	226.34
934.66	226.34
934.96	226.32
935.26	226.30
935.56	226.32
935.86	226.27
936.16	226.24
936.46	226.21
936.76	226.21
937.06	226.19
937.36	226.20
937.66	226.25
937.96	226.26
938.26	226.19
938.56	226.19
938.86	226.20
939.16	226.25
939.46	226.27
939.76	226.27
940.06	226.23
940.35	226.24
940.65	226.19
940.95	226.20
941.25	226.17
941.55	226.15
941.85	226.15
942.15	226.18
942.45	226.21
942.75	226.17
943.04	226.17
943.34	226.22
943.64	226.20
943.94	226.19
944.24	226.21
944.54	226.26
944.84	226.27
945.13	226.28
945.43	226.25
945.73	226.24
946.03	226.29
946.33	226.30
946.62	226.32
946.92	226.36
947.22	226.37
947.52	226.43
947.82	226.49
948.11	226.49
948.41	226.49
948.71	226.42
949.01	226.46
949.31	226.45
949.60	226.43
949.90	226.46
950.20	226.44
950.50	226.45
950.79	226.47
951.09	226.47
951.39	226.49
951.69	226.48
951.98	226.52
952.28	226.54
952.58	226.53
952.87	226.50
953.17	226.50
953.47	226.49
953.76	226.47
954.06	226.42
954.36	226.43
954.66	226.44
954.95	226.51
955.25	226.57
955.55	226.61
955.84	226.61
956.14	226.63
956.44	226.64
956.73	226.60
957.03	226.60
957.32	226.62
957.62	226.65
957.92	226.66
958.21	226.68
958.51	226.78
958.81	226.83
959.10	226.87
959.40	226.89
959.69	226.91
959.99	226.93
960.29	226.93
960.58	226.90
960.88	226.95
961.17	226.95
961.47	226.91
961.76	226.88
962.06	226.86
962.36	226.84
962.65	226.88
962.95	226.86
963.24	226.88
963.54	226.85
963.83	226.81
964.13	226.80
964.42	226.77
964.72	226.67
965.01	226.65
965.31	226.61
965.60	226.56
965.90	226.59
966.19	226.55
966.49	226.59
966.78	226.58
967.08	226.57
967.37	226.57
967.67	226.56
967.96	226.58
968.26	226.60
968.55	226.59
968.85	226.53
969.14	226.55
969.43	226.52
969.73	226.51
970.02	226.48
970.32	226.48
970.61	226.47
970.91	226.42
971.20	226.41
971.49	226.39
971.79	226.41
972.08	226.33
972.38	226.31
972.67	226.28
972.96	226.29
973.26	226.26
973.55	226.28
973.85	226.26
974.14	226.23
974.43	226.23
974.73	226.20
975.02	226.24
975.31	226.21
975.61	226.17
975.90	226.14
976.19	226.14
976.49	226.14
976.78	226.14
977.07	226.16
977.37	226.13
977.66	226.16
977.95	226.15
978.24	226.15
978.54	226.19
978.83	226.22
979.12	226.20
979.42	226.19
979.71	226.12
980.00	226.14
980.29	226.13
980.59	226.09
980.88	226.11
981.17	226.08
981.46	226.07
981.76	226.10
982.05	226.12
982.34	226.16
982.63	226.16
982.93	226.14
983.22	226.17
983.51	226.17
983.80	226.14
984.09	226.17
984.39	226.17
984.68	226.17
984.97	226.12
985.26	226.12
985.55	226.15
985.85	226.15
986.14	226.15
986.43	226.21
986.72	226.22
987.01	226.18
987.30	226.20
987.59	226.20
987.89	226.21
988.18	226.21
988.47	226.17
988.76	226.15
989.05	226.16
989.34	226.16
989.63	226.17
989.92	226.21
990.22	226.21
990.51	226.20
990.80	226.20
991.09	226.23
991.38	226.25
991.67	226.24
991.96	226.23
992.25	226.25
992.54	226.20
992.83	226.21
993.12	226.23
993.41	226.22
993.70	226.31
993.99	226.34
994.28	226.36
994.58	226.40
994.87	226.40
995.16	226.40
995.45	226.38
995.74	226.34
996.03	226.36
996.32	226.37
996.61	226.42
996.90	226.42
997.19	226.42
997.48	226.43
997.77	226.44
998.06	226.48
998.34	226.47
998.63	226.47
998.92	226.49
999.21	226.53
999.50	226.52
999.79	226.49
1000.08	226.47
1000.37	226.46
1000.66	226.48
1000.95	226.51
1001.24	226.54
1001.53	226.58
1001.82	226.59
1002.11	226.56
1002.40	226.58
1002.68	226.60
1002.97	226.67
1003.26	226.67
1003.55	226.69
1003.84	226.69
1004.13	226.71
1004.42	226.71
1004.71	226.75
1004.99	226.75
1005.28	226.77
1005.57	226.81
1005.86	226.79
1006.15	226.84
1006.44	226.84
1006.72	226.85
1007.01	226.84
1007.30	226.83
1007.59	226.81
1007.88	226.83
1008.17	226.83
1008.45	226.81
1008.74	226.79
1009.03	226.76
1009.32	226.75
1009.60	226.72
1009.89	226.71
1010.18	226.66
1010.47	226.66
1010.76	226.66
1011.04	226.63
1011.33	226.63
1011.62	226.61
1011.91	226.61
1012.19	226.59
1012.48	226.58
1012.77	226.55
1013.05	226.58
1013.34	226.57
1013.63	226.58
1013.92	226.56
1014.20	226.58
1014.49	226.57
1014.78	226.54
1015.06	226.47
1015.35	226.49
1015.64	226.48
1015.92	226.49
1016.21	226.49
1016.50	226.50
1016.78	226.47
1017.07	226.52
1017.36	226.51
1017.64	226.50
1017.93	226.50
1018.22	226.47
1018.50	226.49
1018.79	226.47
1019.08	226.42
1019.36	226.41
1019.65	226.40
1019.93	226.44
1020.22	226.43
1020.51	226.45
1020.79	226.44
1021.08	226.14
1021.36	226.96
1021.65	226.16
1021.94	226.32
1022.22	226.49
1022.51	226.12
1022.79	226.91
1023.08	226.31
1023.36	226.96
1023.65	225.91
>>>>>End Processed Spectral Data<<<<<
