SpectraSuite Data File
++++++++++++++++++++++++++++++++++++
Date: Fri Feb 01 15:21:07 EST 2013
User: group
Dark Spectrum Present: No
Reference Spectrum Present: No
Number of Sampled Component Spectra: 1
Spectrometers: USB2E7196
Integration Time (usec): 35000 (USB2E7196)
Spectra Averaged: 100 (USB2E7196)
Boxcar Smoothing: 10 (USB2E7196)
Correct for Electrical Dark: No (USB2E7196)
Strobe/Lamp Enabled: No (USB2E7196)
Correct for Detector Non-linearity: No (USB2E7196)
Correct for Stray Light: No (USB2E7196)
Number of Pixels in Processed Spectrum: 2048
>>>>>Begin Processed Spectral Data<<<<<
339.09	0.00
339.48	215.28
339.86	216.38
340.24	217.83
340.63	219.00
341.01	222.65
341.39	222.25
341.78	223.51
342.16	224.57
342.54	225.47
342.93	213.61
343.31	224.43
343.69	224.97
344.07	225.45
344.46	225.90
344.84	226.30
345.22	226.55
345.60	226.78
345.99	226.97
346.37	227.14
346.75	227.24
347.13	227.30
347.52	227.35
347.90	227.40
348.28	227.42
348.66	227.44
349.05	227.48
349.43	227.53
349.81	227.59
350.19	227.62
350.57	227.67
350.96	227.75
351.34	227.83
351.72	227.92
352.10	228.01
352.48	228.07
352.87	228.12
353.25	228.16
353.63	228.22
354.01	228.27
354.39	228.33
354.77	228.40
355.15	228.53
355.54	228.61
355.92	228.63
356.30	228.71
356.68	228.83
357.06	228.89
357.44	228.92
357.82	228.95
358.20	229.04
358.58	229.08
358.97	229.14
359.35	229.19
359.73	229.24
360.11	229.26
360.49	229.32
360.87	229.38
361.25	229.43
361.63	229.50
362.01	229.55
362.39	229.53
362.77	229.52
363.15	229.52
363.53	229.51
363.91	229.54
364.29	229.53
364.67	229.48
365.05	229.47
365.43	229.48
365.81	229.49
366.19	229.47
366.57	229.56
366.95	229.51
367.33	229.46
367.71	229.43
368.09	229.41
368.47	229.36
368.85	229.30
369.23	229.29
369.61	229.21
369.99	229.19
370.37	229.19
370.75	229.20
371.13	229.12
371.51	229.05
371.89	228.99
372.27	228.92
372.65	228.84
373.03	228.77
373.41	228.69
373.78	228.64
374.16	228.55
374.54	228.41
374.92	228.35
375.30	228.28
375.68	228.19
376.06	228.12
376.44	228.03
376.82	227.97
377.19	227.87
377.57	227.77
377.95	227.68
378.33	227.59
378.71	227.46
379.09	227.45
379.47	227.39
379.84	227.30
380.22	227.22
380.60	227.14
380.98	227.09
381.36	227.02
381.73	226.95
382.11	226.86
382.49	226.81
382.87	226.73
383.25	226.67
383.62	226.76
384.00	226.72
384.38	226.69
384.76	226.65
385.13	226.64
385.51	226.63
385.89	226.56
386.27	226.54
386.64	226.54
387.02	226.48
387.40	226.46
387.78	226.44
388.15	226.42
388.53	226.36
388.91	226.31
389.29	226.27
389.66	226.26
390.04	226.28
390.42	226.29
390.79	226.30
391.17	226.33
391.55	226.23
391.92	226.21
392.30	226.22
392.68	226.21
393.05	226.21
393.43	226.21
393.81	226.24
394.18	226.22
394.56	226.21
394.94	226.26
395.31	226.26
395.69	226.33
396.06	226.40
396.44	226.49
396.82	226.55
397.19	226.68
397.57	226.70
397.95	226.76
398.32	226.79
398.70	226.86
399.07	226.93
399.45	226.98
399.82	227.09
400.20	227.17
400.58	227.26
400.95	227.31
401.33	227.44
401.70	227.62
402.08	227.75
402.45	227.89
402.83	228.02
403.20	228.14
403.58	228.25
403.95	228.40
404.33	228.55
404.71	228.69
405.08	228.84
405.46	228.98
405.83	229.16
406.21	229.32
406.58	229.53
406.96	229.67
407.33	229.81
407.70	229.99
408.08	230.26
408.45	230.50
408.83	230.73
409.20	230.93
409.58	231.13
409.95	231.37
410.33	231.62
410.70	231.88
411.08	232.18
411.45	232.46
411.82	232.75
412.20	233.11
412.57	233.53
412.95	233.85
413.32	234.28
413.69	234.67
414.07	235.13
414.44	235.57
414.82	236.08
415.19	236.67
415.56	237.21
415.94	237.74
416.31	238.38
416.68	239.02
417.06	239.74
417.43	240.41
417.81	241.17
418.18	241.94
418.55	242.77
418.93	243.65
419.30	244.57
419.67	245.50
420.04	246.41
420.42	247.37
420.79	248.54
421.16	249.67
421.54	250.83
421.91	252.02
422.28	253.28
422.66	254.58
423.03	255.87
423.40	257.20
423.77	258.65
424.15	260.08
424.52	261.57
424.89	263.16
425.26	264.71
425.64	266.16
426.01	267.74
426.38	269.40
426.75	271.08
427.13	272.79
427.50	274.61
427.87	276.54
428.24	278.41
428.61	280.17
428.99	282.15
429.36	284.26
429.73	286.30
430.10	288.31
430.47	290.38
430.85	292.52
431.22	294.78
431.59	297.12
431.96	299.34
432.33	301.84
432.70	304.26
433.08	307.05
433.45	309.70
433.82	312.29
434.19	315.23
434.56	318.02
434.93	320.70
435.30	323.31
435.68	326.17
436.05	329.00
436.42	331.79
436.79	334.29
437.16	337.01
437.53	339.89
437.90	342.74
438.27	345.55
438.64	348.35
439.01	350.95
439.38	353.18
439.75	355.41
440.13	357.89
440.50	360.17
440.87	362.06
441.24	364.01
441.61	366.23
441.98	367.67
442.35	369.52
442.72	371.39
443.09	373.23
443.46	374.25
443.83	374.85
444.20	375.39
444.57	376.27
444.94	376.61
445.31	376.93
445.68	377.31
446.05	377.34
446.42	377.00
446.79	376.52
447.16	376.08
447.53	375.75
447.90	374.56
448.27	373.43
448.64	371.84
449.01	370.73
449.37	368.74
449.74	366.87
450.11	364.62
450.48	362.14
450.85	359.63
451.22	357.44
451.59	355.44
451.96	353.49
452.33	350.81
452.70	348.46
453.07	345.63
453.43	342.66
453.80	339.89
454.17	337.21
454.54	334.67
454.91	331.94
455.28	329.25
455.65	326.82
456.02	324.35
456.38	322.15
456.75	319.45
457.12	317.22
457.49	314.99
457.86	312.77
458.23	310.88
458.59	308.85
458.96	306.75
459.33	304.86
459.70	302.98
460.07	301.52
460.43	299.76
460.80	298.15
461.17	296.73
461.54	295.20
461.91	293.76
462.27	292.34
462.64	291.08
463.01	289.74
463.38	288.39
463.74	287.01
464.11	285.87
464.48	284.86
464.85	283.72
465.21	282.82
465.58	281.92
465.95	280.81
466.32	279.86
466.68	278.96
467.05	278.06
467.42	277.17
467.78	276.23
468.15	275.33
468.52	274.64
468.88	273.77
469.25	273.00
469.62	272.34
469.98	271.64
470.35	271.00
470.72	270.37
471.08	269.72
471.45	269.21
471.82	268.65
472.18	268.00
472.55	267.58
472.92	267.06
473.28	266.55
473.65	266.10
474.02	265.64
474.38	265.27
474.75	264.91
475.11	264.53
475.48	264.27
475.85	264.00
476.21	263.75
476.58	263.53
476.94	263.35
477.31	263.18
477.67	263.06
478.04	262.95
478.41	262.88
478.77	262.88
479.14	262.80
479.50	262.83
479.87	262.93
480.23	262.95
480.60	262.99
480.96	263.10
481.33	263.30
481.69	263.50
482.06	263.70
482.42	263.93
482.79	264.19
483.15	264.47
483.52	264.88
483.88	265.28
484.25	265.69
484.61	266.17
484.98	266.64
485.34	267.17
485.71	267.80
486.07	268.41
486.44	269.02
486.80	269.72
487.17	270.41
487.53	271.21
487.90	272.09
488.26	273.09
488.62	274.07
488.99	275.06
489.35	276.10
489.72	277.25
490.08	278.46
490.44	279.68
490.81	280.99
491.17	282.30
491.54	283.74
491.90	285.27
492.26	286.87
492.63	288.59
492.99	290.39
493.36	292.25
493.72	294.31
494.08	296.40
494.45	298.70
494.81	301.11
495.17	303.53
495.54	306.07
495.90	308.72
496.26	311.56
496.63	314.52
496.99	317.60
497.35	320.84
497.72	324.20
498.08	327.78
498.44	331.50
498.80	335.46
499.17	339.56
499.53	343.74
499.89	348.10
500.26	352.60
500.62	357.21
500.98	362.21
501.34	367.30
501.71	372.65
502.07	378.03
502.43	383.59
502.79	389.41
503.16	395.48
503.52	401.72
503.88	408.10
504.24	414.74
504.60	421.67
504.97	428.78
505.33	436.13
505.69	443.81
506.05	451.60
506.41	459.49
506.78	467.60
507.14	476.05
507.50	484.83
507.86	493.85
508.22	503.09
508.59	512.27
508.95	521.83
509.31	531.62
509.67	541.71
510.03	552.00
510.39	562.61
510.75	573.45
511.12	584.40
511.48	595.70
511.84	607.08
512.20	618.59
512.56	630.53
512.92	642.70
513.28	654.98
513.64	667.52
514.00	680.26
514.37	693.13
514.73	706.27
515.09	719.26
515.45	732.54
515.81	746.12
516.17	760.11
516.53	774.18
516.89	788.42
517.25	802.64
517.61	817.07
517.97	831.51
518.33	845.99
518.69	860.78
519.05	875.82
519.41	891.11
519.77	906.71
520.13	922.19
520.49	937.55
520.85	953.01
521.21	968.72
521.57	984.96
521.93	1000.90
522.29	1017.24
522.65	1033.52
523.01	1049.69
523.37	1065.74
523.73	1081.97
524.09	1098.13
524.45	1114.40
524.81	1131.04
525.17	1148.00
525.53	1164.94
525.89	1181.81
526.25	1198.69
526.61	1215.15
526.97	1231.86
527.33	1248.41
527.68	1265.13
528.04	1281.79
528.40	1298.61
528.76	1315.76
529.12	1332.31
529.48	1349.09
529.84	1365.30
530.20	1382.02
530.56	1399.27
530.91	1416.82
531.27	1433.60
531.63	1450.19
531.99	1466.79
532.35	1482.79
532.71	1498.55
533.07	1514.80
533.42	1530.69
533.78	1546.81
534.14	1563.14
534.50	1578.61
534.86	1594.51
535.21	1609.67
535.57	1625.68
535.93	1641.14
536.29	1655.95
536.65	1671.22
537.00	1686.22
537.36	1701.54
537.72	1716.23
538.08	1730.64
538.44	1744.40
538.79	1758.47
539.15	1772.30
539.51	1786.25
539.87	1800.72
540.22	1814.71
540.58	1828.73
540.94	1842.16
541.29	1855.09
541.65	1867.77
542.01	1880.99
542.37	1893.28
542.72	1905.85
543.08	1917.60
543.44	1930.07
543.79	1941.39
544.15	1952.42
544.51	1963.96
544.87	1974.93
545.22	1985.70
545.58	1996.08
545.94	2005.92
546.29	2015.83
546.65	2025.55
547.01	2034.71
547.36	2043.42
547.72	2051.98
548.07	2059.69
548.43	2067.96
548.79	2076.06
549.14	2083.78
549.50	2091.36
549.86	2099.21
550.21	2106.44
550.57	2113.65
550.92	2120.22
551.28	2127.27
551.64	2134.33
551.99	2140.97
552.35	2147.19
552.70	2153.38
553.06	2159.15
553.41	2165.57
553.77	2171.53
554.13	2177.71
554.48	2183.83
554.84	2189.30
555.19	2194.54
555.55	2199.69
555.90	2204.12
556.26	2208.98
556.61	2213.64
556.97	2217.60
557.32	2221.68
557.68	2225.91
558.03	2230.20
558.39	2234.03
558.74	2238.57
559.10	2242.33
559.45	2245.94
559.81	2250.24
560.16	2253.98
560.52	2257.41
560.87	2260.78
561.23	2263.44
561.58	2266.38
561.94	2268.96
562.29	2271.34
562.64	2273.84
563.00	2276.56
563.35	2280.15
563.71	2283.26
564.06	2286.43
564.42	2289.45
564.77	2291.90
565.12	2293.94
565.48	2295.84
565.83	2297.43
566.19	2298.78
566.54	2299.92
566.89	2301.02
567.25	2301.43
567.60	2302.80
567.96	2304.48
568.31	2305.32
568.66	2306.43
569.02	2306.94
569.37	2307.17
569.72	2307.95
570.08	2308.10
570.43	2308.03
570.78	2307.20
571.14	2305.55
571.49	2304.12
571.84	2303.54
572.20	2302.16
572.55	2301.25
572.90	2299.60
573.26	2298.19
573.61	2296.44
573.96	2294.37
574.31	2291.16
574.67	2288.14
575.02	2284.50
575.37	2280.97
575.72	2276.94
576.08	2273.49
576.43	2270.00
576.78	2266.27
577.13	2263.14
577.49	2260.02
577.84	2256.34
578.19	2252.63
578.54	2248.91
578.90	2244.56
579.25	2239.04
579.60	2234.20
579.95	2229.06
580.30	2224.02
580.66	2218.88
581.01	2213.83
581.36	2208.87
581.71	2204.69
582.06	2200.18
582.42	2195.53
582.77	2190.15
583.12	2185.48
583.47	2180.53
583.82	2175.54
584.17	2170.15
584.53	2164.50
584.88	2158.79
585.23	2152.91
585.58	2147.37
585.93	2141.77
586.28	2137.01
586.63	2131.97
586.98	2126.75
587.34	2122.03
587.69	2117.00
588.04	2111.59
588.39	2105.79
588.74	2099.22
589.09	2093.01
589.44	2086.21
589.79	2080.13
590.14	2074.37
590.49	2067.87
590.84	2061.41
591.19	2055.18
591.54	2048.64
591.89	2040.96
592.25	2034.05
592.60	2026.86
592.95	2019.10
593.30	2011.78
593.65	2004.08
594.00	1996.97
594.35	1989.72
594.70	1981.68
595.05	1974.33
595.40	1967.04
595.75	1959.44
596.10	1953.15
596.45	1946.31
596.80	1939.98
597.15	1933.19
597.50	1926.04
597.85	1919.56
598.19	1912.91
598.54	1905.81
598.89	1899.32
599.24	1893.62
599.59	1886.99
599.94	1880.71
600.29	1874.43
600.64	1867.83
600.99	1860.31
601.34	1853.36
601.69	1846.38
602.04	1839.29
602.39	1831.93
602.74	1825.02
603.08	1818.27
603.43	1811.58
603.78	1804.28
604.13	1797.00
604.48	1789.67
604.83	1782.77
605.18	1775.80
605.53	1767.77
605.87	1759.81
606.22	1752.46
606.57	1744.44
606.92	1737.00
607.27	1729.84
607.62	1722.95
607.96	1715.58
608.31	1708.95
608.66	1701.20
609.01	1693.56
609.36	1686.04
609.70	1678.14
610.05	1669.99
610.40	1662.19
610.75	1653.74
611.10	1645.99
611.44	1637.75
611.79	1629.67
612.14	1621.03
612.49	1611.79
612.83	1603.36
613.18	1595.19
613.53	1587.11
613.88	1578.63
614.22	1570.32
614.57	1561.68
614.92	1553.61
615.27	1546.00
615.61	1537.64
615.96	1529.77
616.31	1522.16
616.65	1514.68
617.00	1506.97
617.35	1499.42
617.70	1491.13
618.04	1482.68
618.39	1474.37
618.74	1466.56
619.08	1458.34
619.43	1450.72
619.78	1443.75
620.12	1436.67
620.47	1429.09
620.82	1420.93
621.16	1413.45
621.51	1405.83
621.85	1398.16
622.20	1389.56
622.55	1381.33
622.89	1373.48
623.24	1365.91
623.59	1358.60
623.93	1351.16
624.28	1343.95
624.62	1336.32
624.97	1329.25
625.32	1322.57
625.66	1315.60
626.01	1308.46
626.35	1301.00
626.70	1293.20
627.04	1285.46
627.39	1277.67
627.73	1270.28
628.08	1263.32
628.43	1255.97
628.77	1248.62
629.12	1241.09
629.46	1233.90
629.81	1226.55
630.15	1219.28
630.50	1211.83
630.84	1203.59
631.19	1195.69
631.53	1188.23
631.88	1180.68
632.22	1173.01
632.57	1165.65
632.91	1158.17
633.26	1150.81
633.60	1143.51
633.95	1136.49
634.29	1129.55
634.64	1122.89
634.98	1115.59
635.32	1108.45
635.67	1101.91
636.01	1095.22
636.36	1088.47
636.70	1082.10
637.05	1075.47
637.39	1069.13
637.73	1062.65
638.08	1056.76
638.42	1050.74
638.77	1044.34
639.11	1037.78
639.45	1031.44
639.80	1024.80
640.14	1018.33
640.49	1011.79
640.83	1005.52
641.17	999.26
641.52	992.87
641.86	986.34
642.20	980.44
642.55	974.13
642.89	967.54
643.23	961.15
643.58	955.36
643.92	949.10
644.26	943.06
644.61	937.01
644.95	930.91
645.29	924.24
645.64	917.50
645.98	911.08
646.32	905.26
646.66	899.24
647.01	893.43
647.35	887.79
647.69	882.06
648.04	876.54
648.38	870.73
648.72	864.74
649.06	858.77
649.41	852.93
649.75	847.02
650.09	841.18
650.43	835.30
650.78	829.18
651.12	823.19
651.46	817.46
651.80	811.66
652.14	806.25
652.49	800.91
652.83	795.75
653.17	790.05
653.51	784.36
653.85	778.91
654.20	773.26
654.54	767.30
654.88	761.62
655.22	755.66
655.56	750.02
655.90	744.66
656.25	739.41
656.59	734.09
656.93	728.92
657.27	723.80
657.61	718.38
657.95	713.25
658.29	708.22
658.64	702.92
658.98	697.68
659.32	692.24
659.66	687.08
660.00	681.79
660.34	676.93
660.68	672.07
661.02	667.13
661.36	662.43
661.70	657.90
662.05	653.45
662.39	649.21
662.73	644.80
663.07	640.32
663.41	635.85
663.75	631.33
664.09	626.80
664.43	622.35
664.77	618.26
665.11	614.02
665.45	609.88
665.79	605.85
666.13	601.74
666.47	597.67
666.81	593.48
667.15	589.40
667.49	585.48
667.83	581.69
668.17	577.71
668.51	573.64
668.85	569.63
669.19	565.82
669.53	561.94
669.87	558.02
670.21	554.41
670.55	550.85
670.89	547.43
671.23	544.06
671.57	540.57
671.91	537.06
672.25	533.65
672.58	530.17
672.92	526.79
673.26	523.65
673.60	520.56
673.94	517.48
674.28	514.54
674.62	511.55
674.96	508.42
675.30	505.50
675.64	502.54
675.97	499.79
676.31	496.94
676.65	494.07
676.99	491.35
677.33	488.48
677.67	485.58
678.01	482.54
678.34	479.47
678.68	476.61
679.02	473.83
679.36	471.04
679.70	468.37
680.04	465.54
680.37	462.66
680.71	459.86
681.05	457.28
681.39	454.55
681.73	451.92
682.06	449.42
682.40	446.91
682.74	444.41
683.08	441.87
683.42	439.28
683.75	436.73
684.09	434.22
684.43	431.75
684.77	429.36
685.10	427.05
685.44	424.81
685.78	422.56
686.12	420.30
686.45	418.02
686.79	415.64
687.13	413.49
687.46	411.32
687.80	409.16
688.14	406.93
688.48	404.92
688.81	402.67
689.15	400.50
689.49	398.36
689.82	396.33
690.16	394.25
690.50	392.31
690.83	390.41
691.17	388.46
691.51	386.59
691.84	384.76
692.18	382.82
692.52	380.78
692.85	378.85
693.19	376.97
693.52	375.18
693.86	373.43
694.20	371.70
694.53	369.92
694.87	368.06
695.21	366.33
695.54	364.46
695.88	362.80
696.21	361.05
696.55	359.39
696.88	357.70
697.22	356.04
697.56	354.36
697.89	352.72
698.23	351.12
698.56	349.48
698.90	347.85
699.23	346.20
699.57	344.70
699.90	343.20
700.24	341.64
700.58	340.07
700.91	338.57
701.25	337.10
701.58	335.72
701.92	334.36
702.25	332.98
702.59	331.65
702.92	330.33
703.26	329.06
703.59	327.79
703.93	326.58
704.26	325.39
704.60	324.14
704.93	322.86
705.26	321.62
705.60	320.49
705.93	319.37
706.27	318.37
706.60	317.37
706.94	316.29
707.27	315.19
707.61	314.14
707.94	313.12
708.27	312.01
708.61	310.94
708.94	309.92
709.28	308.94
709.61	307.98
709.94	307.02
710.28	306.01
710.61	305.03
710.95	303.96
711.28	303.03
711.61	302.06
711.95	301.14
712.28	300.17
712.61	299.17
712.95	298.22
713.28	297.34
713.61	296.45
713.95	295.59
714.28	294.74
714.61	293.88
714.95	293.05
715.28	292.23
715.61	291.36
715.95	290.54
716.28	289.68
716.61	288.84
716.95	288.04
717.28	287.33
717.61	286.53
717.94	285.84
718.28	285.03
718.61	284.32
718.94	283.65
719.27	283.01
719.61	282.42
719.94	281.75
720.27	281.01
720.60	280.31
720.94	279.64
721.27	279.04
721.60	278.47
721.93	277.86
722.27	277.31
722.60	276.75
722.93	276.16
723.26	275.65
723.59	275.10
723.93	274.52
724.26	273.92
724.59	273.41
724.92	272.87
725.25	272.34
725.59	271.81
725.92	271.30
726.25	270.77
726.58	270.23
726.91	269.76
727.24	269.27
727.57	268.78
727.91	268.25
728.24	267.81
728.57	267.29
728.90	266.81
729.23	266.30
729.56	265.89
729.89	265.43
730.22	264.93
730.55	264.49
730.89	264.04
731.22	263.60
731.55	263.15
731.88	262.68
732.21	262.25
732.54	261.85
732.87	261.41
733.20	261.02
733.53	260.64
733.86	260.28
734.19	259.92
734.52	259.56
734.85	259.29
735.18	258.85
735.51	258.50
735.84	258.15
736.17	257.81
736.50	257.36
736.83	257.15
737.16	256.79
737.49	256.46
737.82	256.13
738.15	255.80
738.48	255.43
738.81	255.13
739.14	254.82
739.47	254.48
739.80	254.15
740.13	253.86
740.46	253.52
740.79	253.16
741.12	252.85
741.45	252.52
741.78	252.16
742.11	251.84
742.44	251.53
742.77	251.22
743.10	250.88
743.43	250.60
743.75	250.20
744.08	250.05
744.41	249.74
744.74	249.44
745.07	249.20
745.40	248.99
745.73	248.77
746.06	248.48
746.39	248.23
746.71	248.00
747.04	247.70
747.37	247.43
747.70	247.21
748.03	246.95
748.36	246.77
748.68	246.54
749.01	246.30
749.34	246.08
749.67	245.86
750.00	245.65
750.33	245.51
750.65	245.31
750.98	244.96
751.31	244.77
751.64	244.56
751.97	244.38
752.29	244.15
752.62	243.87
752.95	243.68
753.28	243.48
753.60	243.28
753.93	243.11
754.26	242.94
754.59	242.73
754.91	242.54
755.24	242.34
755.57	242.14
755.90	241.98
756.22	241.79
756.55	241.61
756.88	241.43
757.20	241.17
757.53	240.96
757.86	240.85
758.19	240.69
758.51	240.54
758.84	240.33
759.17	240.15
759.49	240.02
759.82	239.90
760.15	239.75
760.47	239.57
760.80	239.40
761.13	239.26
761.45	239.09
761.78	238.97
762.11	238.78
762.43	238.66
762.76	238.55
763.08	238.44
763.41	238.31
763.74	238.21
764.06	238.06
764.39	237.96
764.71	237.77
765.04	237.63
765.37	237.50
765.69	237.34
766.02	237.24
766.34	237.09
766.67	236.93
767.00	236.84
767.32	236.78
767.65	236.73
767.97	236.61
768.30	236.50
768.62	236.34
768.95	236.25
769.27	236.11
769.60	235.99
769.92	235.85
770.25	235.70
770.57	235.57
770.90	235.48
771.22	235.36
771.55	235.27
771.87	235.17
772.20	235.05
772.52	235.06
772.85	235.08
773.17	234.99
773.50	234.89
773.82	234.78
774.15	234.65
774.47	234.49
774.80	234.42
775.12	234.31
775.45	234.25
775.77	234.17
776.09	234.09
776.42	234.03
776.74	233.99
777.07	233.93
777.39	233.87
777.72	233.81
778.04	233.77
778.36	233.74
778.69	233.67
779.01	233.61
779.33	233.47
779.66	233.29
779.98	233.22
780.31	233.18
780.63	233.12
780.95	233.09
781.28	233.04
781.60	232.96
781.92	232.93
782.25	232.88
782.57	232.81
782.89	232.76
783.22	232.71
783.54	232.62
783.86	232.56
784.19	232.50
784.51	232.48
784.83	232.41
785.16	232.34
785.48	232.32
785.80	232.28
786.12	232.25
786.45	232.19
786.77	232.16
787.09	232.11
787.42	232.05
787.74	231.98
788.06	231.93
788.38	231.90
788.71	231.84
789.03	231.79
789.35	231.79
789.67	231.73
789.99	231.66
790.32	231.61
790.64	231.59
790.96	231.62
791.28	231.51
791.61	231.45
791.93	231.40
792.25	231.36
792.57	231.39
792.89	231.32
793.21	231.29
793.54	231.24
793.86	231.24
794.18	231.19
794.50	231.14
794.82	231.09
795.14	231.06
795.47	231.06
795.79	231.00
796.11	230.93
796.43	230.90
796.75	230.88
797.07	230.85
797.39	230.80
797.71	230.68
798.04	230.66
798.36	230.60
798.68	230.57
799.00	230.51
799.32	230.42
799.64	230.43
799.96	230.42
800.28	230.39
800.60	230.30
800.92	230.27
801.24	230.23
801.56	230.22
801.89	230.18
802.21	230.11
802.53	230.07
802.85	230.07
803.17	230.05
803.49	230.01
803.81	229.97
804.13	229.94
804.45	229.94
804.77	229.92
805.09	229.89
805.41	229.86
805.73	229.82
806.05	229.79
806.37	229.72
806.69	229.65
807.01	229.63
807.33	229.63
807.65	229.58
807.97	229.60
808.28	229.57
808.60	229.50
808.92	229.52
809.24	229.55
809.56	229.49
809.88	229.46
810.20	229.44
810.52	229.42
810.84	229.38
811.16	229.32
811.48	229.27
811.80	229.27
812.12	229.25
812.43	229.26
812.75	229.23
813.07	229.24
813.39	229.22
813.71	229.19
814.03	229.16
814.35	229.15
814.67	229.09
814.98	229.07
815.30	229.02
815.62	228.98
815.94	228.88
816.26	228.94
816.58	228.90
816.89	228.89
817.21	228.86
817.53	228.85
817.85	228.85
818.17	228.83
818.48	228.81
818.80	228.82
819.12	228.79
819.44	228.75
819.76	228.71
820.07	228.69
820.39	228.65
820.71	228.64
821.03	228.62
821.34	228.60
821.66	228.60
821.98	228.66
822.30	228.63
822.61	228.71
822.93	228.66
823.25	228.66
823.57	228.65
823.88	228.69
824.20	228.68
824.52	228.66
824.83	228.69
825.15	228.66
825.47	228.62
825.79	228.63
826.10	228.62
826.42	228.62
826.74	228.62
827.05	228.65
827.37	228.65
827.69	228.64
828.00	228.63
828.32	228.62
828.64	228.61
828.95	228.66
829.27	228.58
829.58	228.55
829.90	228.52
830.22	228.50
830.53	228.46
830.85	228.48
831.17	228.44
831.48	228.43
831.80	228.41
832.11	228.41
832.43	228.38
832.75	228.37
833.06	228.40
833.38	228.36
833.69	228.33
834.01	228.32
834.32	228.32
834.64	228.30
834.96	228.27
835.27	228.25
835.59	228.18
835.90	228.17
836.22	228.18
836.53	228.15
836.85	228.12
837.16	228.19
837.48	228.15
837.79	228.18
838.11	228.13
838.42	228.12
838.74	228.11
839.05	228.10
839.37	228.07
839.68	228.01
840.00	228.03
840.31	228.03
840.63	228.00
840.94	227.99
841.26	227.96
841.57	227.96
841.88	227.99
842.20	227.99
842.51	227.98
842.83	227.95
843.14	228.02
843.46	228.04
843.77	227.97
844.08	227.91
844.40	227.89
844.71	227.88
845.03	227.89
845.34	227.89
845.65	227.85
845.97	227.84
846.28	227.83
846.60	227.82
846.91	227.76
847.22	227.79
847.54	227.80
847.85	227.80
848.16	227.79
848.48	227.73
848.79	227.74
849.10	227.73
849.42	227.73
849.73	227.64
850.04	227.61
850.36	227.58
850.67	227.62
850.98	227.61
851.30	227.61
851.61	227.61
851.92	227.59
852.23	227.63
852.55	227.63
852.86	227.60
853.17	227.61
853.49	227.64
853.80	227.62
854.11	227.60
854.42	227.58
854.74	227.57
855.05	227.56
855.36	227.51
855.67	227.51
855.99	227.51
856.30	227.61
856.61	227.63
856.92	227.62
857.23	227.63
857.55	227.66
857.86	227.64
858.17	227.63
858.48	227.63
858.79	227.63
859.11	227.66
859.42	227.69
859.73	227.67
860.04	227.66
860.35	227.64
860.66	227.62
860.98	227.66
861.29	227.66
861.60	227.67
861.91	227.70
862.22	227.70
862.53	227.68
862.84	227.57
863.16	227.61
863.47	227.63
863.78	227.61
864.09	227.59
864.40	227.62
864.71	227.64
865.02	227.64
865.33	227.64
865.64	227.63
865.95	227.63
866.27	227.71
866.58	227.72
866.89	227.73
867.20	227.74
867.51	227.74
867.82	227.75
868.13	227.77
868.44	227.76
868.75	227.79
869.06	227.79
869.37	227.83
869.68	227.78
869.99	227.76
870.30	227.79
870.61	227.79
870.92	227.78
871.23	227.78
871.54	227.81
871.85	227.82
872.16	227.85
872.47	227.84
872.78	227.74
873.09	227.76
873.40	227.72
873.71	227.75
874.02	227.73
874.33	227.71
874.64	227.71
874.95	227.73
875.26	227.71
875.56	227.70
875.87	227.67
876.18	227.65
876.49	227.78
876.80	227.76
877.11	227.74
877.42	227.71
877.73	227.67
878.04	227.64
878.35	227.60
878.66	227.60
878.96	227.58
879.27	227.58
879.58	227.59
879.89	227.59
880.20	227.61
880.51	227.63
880.82	227.63
881.12	227.61
881.43	227.58
881.74	227.55
882.05	227.56
882.36	227.56
882.67	227.58
882.97	227.44
883.28	227.43
883.59	227.43
883.90	227.46
884.21	227.47
884.51	227.45
884.82	227.45
885.13	227.46
885.44	227.45
885.74	227.43
886.05	227.38
886.36	227.41
886.67	227.34
886.98	227.35
887.28	227.32
887.59	227.35
887.90	227.35
888.20	227.31
888.51	227.33
888.82	227.30
889.13	227.28
889.43	227.39
889.74	227.37
890.05	227.34
890.35	227.32
890.66	227.31
890.97	227.32
891.28	227.28
891.58	227.22
891.89	227.23
892.20	227.24
892.50	227.25
892.81	227.23
893.12	227.24
893.42	227.20
893.73	227.21
894.04	227.19
894.34	227.19
894.65	227.22
894.95	227.20
895.26	227.22
895.57	227.31
895.87	227.19
896.18	227.20
896.48	227.23
896.79	227.19
897.10	227.19
897.40	227.18
897.71	227.21
898.01	227.23
898.32	227.22
898.63	227.21
898.93	227.17
899.24	227.17
899.54	227.14
899.85	227.13
900.15	227.15
900.46	227.14
900.76	227.16
901.07	227.14
901.38	227.13
901.68	227.13
901.99	227.04
902.29	227.05
902.60	227.03
902.90	226.98
903.21	227.00
903.51	226.99
903.82	227.02
904.12	227.02
904.43	227.03
904.73	227.00
905.03	227.03
905.34	227.18
905.64	227.17
905.95	227.20
906.25	227.20
906.56	227.17
906.86	227.16
907.17	227.16
907.47	227.18
907.77	227.16
908.08	227.16
908.38	227.17
908.69	227.18
908.99	227.24
909.30	227.27
909.60	227.29
909.90	227.34
910.21	227.33
910.51	227.33
910.81	227.34
911.12	227.38
911.42	227.39
911.73	227.25
912.03	227.27
912.33	227.32
912.64	227.31
912.94	227.29
913.24	227.33
913.55	227.29
913.85	227.29
914.15	227.33
914.46	227.35
914.76	227.37
915.06	227.38
915.37	227.35
915.67	227.34
915.97	227.34
916.27	227.30
916.58	227.30
916.88	227.28
917.18	227.25
917.49	227.32
917.79	227.31
918.09	227.36
918.39	227.35
918.70	227.29
919.00	227.33
919.30	227.38
919.60	227.34
919.91	227.38
920.21	227.39
920.51	227.35
920.81	227.35
921.12	227.36
921.42	227.35
921.72	227.38
922.02	227.41
922.32	227.40
922.63	227.41
922.93	227.44
923.23	227.48
923.53	227.48
923.83	227.38
924.13	227.37
924.44	227.37
924.74	227.41
925.04	227.44
925.34	227.42
925.64	227.39
925.94	227.38
926.24	227.42
926.55	227.40
926.85	227.44
927.15	227.43
927.45	227.40
927.75	227.42
928.05	227.41
928.35	227.41
928.65	227.42
928.95	227.40
929.26	227.38
929.56	227.38
929.86	227.40
930.16	227.41
930.46	227.42
930.76	227.42
931.06	227.38
931.36	227.35
931.66	227.39
931.96	227.39
932.26	227.41
932.56	227.37
932.86	227.36
933.16	227.34
933.46	227.32
933.76	227.33
934.06	227.30
934.36	227.33
934.66	227.30
934.96	227.29
935.26	227.28
935.56	227.27
935.86	227.22
936.16	227.17
936.46	227.14
936.76	227.11
937.06	227.06
937.36	227.05
937.66	227.03
937.96	227.03
938.26	226.99
938.56	226.96
938.86	226.95
939.16	227.00
939.46	226.96
939.76	226.95
940.06	226.92
940.35	226.91
940.65	226.83
940.95	226.81
941.25	226.80
941.55	226.83
941.85	226.82
942.15	226.84
942.45	226.90
942.75	226.90
943.04	226.95
943.34	226.99
943.64	226.98
943.94	226.96
944.24	226.92
944.54	226.93
944.84	226.92
945.13	226.92
945.43	226.87
945.73	226.91
946.03	226.92
946.33	226.90
946.62	226.91
946.92	226.91
947.22	226.93
947.52	226.94
947.82	226.93
948.11	226.93
948.41	226.91
948.71	226.88
949.01	226.89
949.31	226.84
949.60	226.82
949.90	226.84
950.20	226.88
950.50	226.89
950.79	226.88
951.09	226.92
951.39	226.90
951.69	226.90
951.98	226.94
952.28	226.96
952.58	226.96
952.87	226.96
953.17	227.00
953.47	227.00
953.76	227.02
954.06	226.99
954.36	226.99
954.66	227.01
954.95	227.05
955.25	227.06
955.55	227.10
955.84	227.09
956.14	227.11
956.44	227.12
956.73	227.13
957.03	227.17
957.32	227.17
957.62	227.19
957.92	227.23
958.21	227.21
958.51	227.30
958.81	227.32
959.10	227.36
959.40	227.36
959.69	227.39
959.99	227.40
960.29	227.46
960.58	227.46
960.88	227.49
961.17	227.50
961.47	227.55
961.76	227.56
962.06	227.58
962.36	227.56
962.65	227.57
962.95	227.57
963.24	227.58
963.54	227.57
963.83	227.58
964.13	227.59
964.42	227.59
964.72	227.50
965.01	227.53
965.31	227.53
965.60	227.49
965.90	227.52
966.19	227.49
966.49	227.44
966.78	227.44
967.08	227.45
967.37	227.41
967.67	227.33
967.96	227.35
968.26	227.33
968.55	227.33
968.85	227.33
969.14	227.31
969.43	227.29
969.73	227.28
970.02	227.28
970.32	227.24
970.61	227.22
970.91	227.22
971.20	227.19
971.49	227.15
971.79	227.18
972.08	227.10
972.38	227.09
972.67	227.10
972.96	227.09
973.26	227.02
973.55	227.06
973.85	227.10
974.14	227.06
974.43	227.06
974.73	227.04
975.02	226.98
975.31	226.99
975.61	226.94
975.90	226.92
976.19	226.88
976.49	226.87
976.78	226.85
977.07	226.82
977.37	226.78
977.66	226.81
977.95	226.78
978.24	226.79
978.54	226.79
978.83	226.77
979.12	226.75
979.42	226.77
979.71	226.73
980.00	226.71
980.29	226.70
980.59	226.67
980.88	226.67
981.17	226.70
981.46	226.69
981.76	226.70
982.05	226.72
982.34	226.76
982.63	226.78
982.93	226.78
983.22	226.78
983.51	226.78
983.80	226.76
984.09	226.78
984.39	226.75
984.68	226.73
984.97	226.74
985.26	226.74
985.55	226.73
985.85	226.68
986.14	226.70
986.43	226.72
986.72	226.72
987.01	226.71
987.30	226.71
987.59	226.70
987.89	226.73
988.18	226.70
988.47	226.65
988.76	226.61
989.05	226.63
989.34	226.65
989.63	226.72
989.92	226.73
990.22	226.69
990.51	226.70
990.80	226.72
991.09	226.76
991.38	226.79
991.67	226.83
991.96	226.90
992.25	226.91
992.54	226.88
992.83	226.89
993.12	226.90
993.41	226.92
993.70	227.00
993.99	227.04
994.28	227.06
994.58	227.14
994.87	227.16
995.16	227.15
995.45	227.18
995.74	227.12
996.03	227.13
996.32	227.20
996.61	227.26
996.90	227.29
997.19	227.27
997.48	227.27
997.77	227.26
998.06	227.23
998.34	227.22
998.63	227.26
998.92	227.27
999.21	227.31
999.50	227.32
999.79	227.27
1000.08	227.23
1000.37	227.23
1000.66	227.19
1000.95	227.22
1001.24	227.22
1001.53	227.23
1001.82	227.26
1002.11	227.27
1002.40	227.26
1002.68	227.26
1002.97	227.31
1003.26	227.29
1003.55	227.26
1003.84	227.29
1004.13	227.32
1004.42	227.31
1004.71	227.28
1004.99	227.28
1005.28	227.26
1005.57	227.24
1005.86	227.20
1006.15	227.19
1006.44	227.19
1006.72	227.18
1007.01	227.16
1007.30	227.16
1007.59	227.13
1007.88	227.11
1008.17	227.08
1008.45	227.00
1008.74	226.95
1009.03	226.89
1009.32	226.89
1009.60	226.89
1009.89	226.83
1010.18	226.77
1010.47	226.77
1010.76	226.77
1011.04	226.77
1011.33	226.77
1011.62	226.77
1011.91	226.78
1012.19	226.77
1012.48	226.77
1012.77	226.78
1013.05	226.83
1013.34	226.85
1013.63	226.82
1013.92	226.80
1014.20	226.77
1014.49	226.83
1014.78	226.83
1015.06	226.80
1015.35	226.77
1015.64	226.77
1015.92	226.80
1016.21	226.82
1016.50	226.81
1016.78	226.80
1017.07	226.80
1017.36	226.76
1017.64	226.71
1017.93	226.71
1018.22	226.72
1018.50	226.71
1018.79	226.70
1019.08	226.63
1019.36	226.59
1019.65	226.58
1019.93	226.63
1020.22	226.64
1020.51	226.64
1020.79	226.66
1021.08	226.57
1021.36	226.71
1021.65	226.64
1021.94	226.69
1022.22	226.53
1022.51	226.33
1022.79	227.19
1023.08	226.51
1023.36	227.39
1023.65	226.82
>>>>>End Processed Spectral Data<<<<<
