SpectraSuite Data File
++++++++++++++++++++++++++++++++++++
Date: Fri Feb 01 16:13:26 EST 2013
User: group
Dark Spectrum Present: No
Reference Spectrum Present: No
Number of Sampled Component Spectra: 1
Spectrometers: USB2E7196
Integration Time (usec): 35000 (USB2E7196)
Spectra Averaged: 100 (USB2E7196)
Boxcar Smoothing: 10 (USB2E7196)
Correct for Electrical Dark: No (USB2E7196)
Strobe/Lamp Enabled: No (USB2E7196)
Correct for Detector Non-linearity: No (USB2E7196)
Correct for Stray Light: No (USB2E7196)
Number of Pixels in Processed Spectrum: 2048
>>>>>Begin Processed Spectral Data<<<<<
339.09	0.00
339.48	214.48
339.86	216.23
340.24	217.06
340.63	218.78
341.01	221.87
341.39	221.18
341.78	222.26
342.16	223.80
342.54	224.13
342.93	212.65
343.31	223.37
343.69	223.91
344.07	224.34
344.46	224.76
344.84	225.12
345.22	225.37
345.60	225.62
345.99	225.83
346.37	225.93
346.75	226.05
347.13	226.11
347.52	226.18
347.90	226.24
348.28	226.26
348.66	226.29
349.05	226.30
349.43	226.35
349.81	226.41
350.19	226.49
350.57	226.53
350.96	226.59
351.34	226.71
351.72	226.77
352.10	226.86
352.48	226.94
352.87	226.99
353.25	227.04
353.63	227.07
354.01	227.17
354.39	227.31
354.77	227.37
355.15	227.51
355.54	227.55
355.92	227.62
356.30	227.70
356.68	227.84
357.06	227.93
357.44	227.97
357.82	228.03
358.20	228.07
358.58	228.14
358.97	228.19
359.35	228.30
359.73	228.37
360.11	228.40
360.49	228.44
360.87	228.48
361.25	228.49
361.63	228.58
362.01	228.60
362.39	228.60
362.77	228.69
363.15	228.71
363.53	228.73
363.91	228.74
364.29	228.76
364.67	228.68
365.05	228.70
365.43	228.76
365.81	228.76
366.19	228.81
366.57	228.87
366.95	228.86
367.33	228.77
367.71	228.79
368.09	228.81
368.47	228.82
368.85	228.83
369.23	228.85
369.61	228.80
369.99	228.81
370.37	228.77
370.75	228.72
371.13	228.64
371.51	228.59
371.89	228.58
372.27	228.57
372.65	228.55
373.03	228.45
373.41	228.38
373.78	228.35
374.16	228.26
374.54	228.17
374.92	228.10
375.30	228.06
375.68	227.99
376.06	227.95
376.44	227.87
376.82	227.78
377.19	227.69
377.57	227.60
377.95	227.49
378.33	227.43
378.71	227.32
379.09	227.28
379.47	227.24
379.84	227.18
380.22	227.04
380.60	226.96
380.98	226.92
381.36	226.84
381.73	226.73
382.11	226.67
382.49	226.63
382.87	226.57
383.25	226.52
383.62	226.56
384.00	226.47
384.38	226.39
384.76	226.37
385.13	226.36
385.51	226.31
385.89	226.26
386.27	226.22
386.64	226.19
387.02	226.13
387.40	226.08
387.78	226.02
388.15	226.05
388.53	226.00
388.91	225.97
389.29	225.95
389.66	225.96
390.04	225.93
390.42	225.89
390.79	225.87
391.17	225.86
391.55	225.71
391.92	225.70
392.30	225.72
392.68	225.69
393.05	225.69
393.43	225.72
393.81	225.73
394.18	225.73
394.56	225.70
394.94	225.74
395.31	225.72
395.69	225.77
396.06	225.75
396.44	225.77
396.82	225.79
397.19	225.85
397.57	225.86
397.95	225.89
398.32	225.88
398.70	225.95
399.07	225.98
399.45	226.06
399.82	226.12
400.20	226.18
400.58	226.26
400.95	226.29
401.33	226.42
401.70	226.57
402.08	226.62
402.45	226.76
402.83	226.86
403.20	226.97
403.58	227.07
403.95	227.21
404.33	227.36
404.71	227.45
405.08	227.65
405.46	227.78
405.83	227.94
406.21	228.10
406.58	228.25
406.96	228.41
407.33	228.56
407.70	228.76
408.08	229.02
408.45	229.23
408.83	229.48
409.20	229.65
409.58	229.79
409.95	230.08
410.33	230.31
410.70	230.56
411.08	230.87
411.45	231.15
411.82	231.46
412.20	231.83
412.57	232.29
412.95	232.55
413.32	232.97
413.69	233.38
414.07	233.84
414.44	234.30
414.82	234.83
415.19	235.38
415.56	235.95
415.94	236.48
416.31	237.12
416.68	237.73
417.06	238.44
417.43	239.15
417.81	239.93
418.18	240.77
418.55	241.62
418.93	242.46
419.30	243.38
419.67	244.30
420.04	245.27
420.42	246.24
420.79	247.44
421.16	248.60
421.54	249.79
421.91	250.99
422.28	252.27
422.66	253.58
423.03	254.89
423.40	256.20
423.77	257.62
424.15	259.06
424.52	260.54
424.89	262.15
425.26	263.69
425.64	265.09
426.01	266.66
426.38	268.33
426.75	270.00
427.13	271.70
427.50	273.49
427.87	275.36
428.24	277.21
428.61	278.97
428.99	280.93
429.36	283.05
429.73	285.11
430.10	287.14
430.47	289.18
430.85	291.29
431.22	293.49
431.59	295.85
431.96	298.07
432.33	300.57
432.70	302.92
433.08	305.71
433.45	308.40
433.82	310.97
434.19	313.84
434.56	316.65
434.93	319.29
435.30	321.91
435.68	324.76
436.05	327.58
436.42	330.38
436.79	332.89
437.16	335.57
437.53	338.36
437.90	341.10
438.27	343.78
438.64	346.62
439.01	349.19
439.38	351.47
439.75	353.61
440.13	356.07
440.50	358.40
440.87	360.22
441.24	362.11
441.61	364.26
441.98	365.73
442.35	367.51
442.72	369.39
443.09	371.15
443.46	372.18
443.83	372.76
444.20	373.25
444.57	374.06
444.94	374.32
445.31	374.65
445.68	375.06
446.05	375.15
446.42	374.77
446.79	374.38
447.16	373.90
447.53	373.60
447.90	372.41
448.27	371.25
448.64	369.68
449.01	368.54
449.37	366.59
449.74	364.71
450.11	362.50
450.48	359.99
450.85	357.48
451.22	355.32
451.59	353.25
451.96	351.33
452.33	348.71
452.70	346.36
453.07	343.57
453.43	340.66
453.80	337.96
454.17	335.25
454.54	332.68
454.91	329.99
455.28	327.32
455.65	324.82
456.02	322.40
456.38	320.27
456.75	317.62
457.12	315.35
457.49	313.13
457.86	310.93
458.23	309.13
458.59	307.14
458.96	305.07
459.33	303.26
459.70	301.38
460.07	299.87
460.43	298.15
460.80	296.54
461.17	295.10
461.54	293.60
461.91	292.17
462.27	290.78
462.64	289.51
463.01	288.19
463.38	286.94
463.74	285.56
464.11	284.42
464.48	283.43
464.85	282.37
465.21	281.52
465.58	280.62
465.95	279.51
466.32	278.59
466.68	277.69
467.05	276.80
467.42	275.90
467.78	274.99
468.15	274.14
468.52	273.48
468.88	272.63
469.25	271.86
469.62	271.27
469.98	270.58
470.35	269.97
470.72	269.36
471.08	268.72
471.45	268.21
471.82	267.66
472.18	267.08
472.55	266.64
472.92	266.06
473.28	265.62
473.65	265.18
474.02	264.78
474.38	264.44
474.75	264.12
475.11	263.79
475.48	263.55
475.85	263.32
476.21	263.05
476.58	262.87
476.94	262.74
477.31	262.57
477.67	262.45
478.04	262.35
478.41	262.27
478.77	262.33
479.14	262.26
479.50	262.27
479.87	262.32
480.23	262.43
480.60	262.54
480.96	262.63
481.33	262.86
481.69	263.00
482.06	263.19
482.42	263.43
482.79	263.71
483.15	264.02
483.52	264.41
483.88	264.78
484.25	265.20
484.61	265.60
484.98	266.08
485.34	266.63
485.71	267.19
486.07	267.80
486.44	268.34
486.80	269.06
487.17	269.77
487.53	270.60
487.90	271.42
488.26	272.38
488.62	273.39
488.99	274.38
489.35	275.42
489.72	276.52
490.08	277.69
490.44	278.94
490.81	280.28
491.17	281.65
491.54	283.17
491.90	284.67
492.26	286.35
492.63	288.09
492.99	289.86
493.36	291.80
493.72	293.86
494.08	295.99
494.45	298.26
494.81	300.61
495.17	303.03
495.54	305.63
495.90	308.31
496.26	311.13
496.63	314.08
496.99	317.18
497.35	320.46
497.72	323.92
498.08	327.39
498.44	331.08
498.80	334.96
499.17	338.96
499.53	343.16
499.89	347.50
500.26	351.98
500.62	356.65
500.98	361.58
501.34	366.67
501.71	371.96
502.07	377.42
502.43	383.06
502.79	388.88
503.16	394.94
503.52	401.25
503.88	407.64
504.24	414.31
504.60	421.29
504.97	428.40
505.33	435.74
505.69	443.53
506.05	451.29
506.41	459.21
506.78	467.40
507.14	475.84
507.50	484.66
507.86	493.74
508.22	503.00
508.59	512.22
508.95	521.83
509.31	531.76
509.67	541.89
510.03	552.21
510.39	562.80
510.75	573.60
511.12	584.46
511.48	595.75
511.84	607.22
512.20	618.69
512.56	630.65
512.92	642.76
513.28	655.11
513.64	667.56
514.00	680.25
514.37	693.25
514.73	706.34
515.09	719.32
515.45	732.56
515.81	746.11
516.17	760.10
516.53	774.19
516.89	788.26
517.25	802.35
517.61	816.76
517.97	831.16
518.33	845.62
518.69	860.47
519.05	875.38
519.41	890.57
519.77	906.11
520.13	921.51
520.49	936.91
520.85	952.27
521.21	967.97
521.57	984.20
521.93	999.87
522.29	1016.20
522.65	1032.46
523.01	1048.63
523.37	1064.66
523.73	1080.72
524.09	1096.85
524.45	1113.16
524.81	1129.78
525.17	1146.52
525.53	1163.37
525.89	1180.15
526.25	1196.86
526.61	1213.29
526.97	1229.98
527.33	1246.35
527.68	1262.92
528.04	1279.35
528.40	1295.82
528.76	1312.88
529.12	1329.45
529.48	1346.24
529.84	1362.07
530.20	1378.54
530.56	1395.37
530.91	1412.72
531.27	1429.42
531.63	1445.79
531.99	1462.30
532.35	1478.18
532.71	1494.01
533.07	1510.26
533.42	1526.11
533.78	1542.18
534.14	1558.30
534.50	1573.52
534.86	1589.29
535.21	1604.39
535.57	1620.27
535.93	1635.68
536.29	1650.31
536.65	1665.23
537.00	1680.02
537.36	1695.33
537.72	1709.81
538.08	1724.18
538.44	1737.89
538.79	1751.79
539.15	1765.28
539.51	1779.00
539.87	1793.34
540.22	1806.94
540.58	1820.50
540.94	1833.69
541.29	1846.40
541.65	1859.11
542.01	1872.25
542.37	1884.60
542.72	1896.89
543.08	1908.61
543.44	1920.97
543.79	1932.13
544.15	1943.01
544.51	1954.49
544.87	1965.29
545.22	1976.10
545.58	1986.40
545.94	1996.05
546.29	2005.85
546.65	2015.77
547.01	2025.00
547.36	2033.55
547.72	2042.04
548.07	2049.92
548.43	2058.07
548.79	2066.05
549.14	2073.51
549.50	2080.76
549.86	2088.31
550.21	2095.74
550.57	2102.76
550.92	2109.32
551.28	2116.33
551.64	2123.42
551.99	2129.96
552.35	2136.26
552.70	2142.28
553.06	2148.37
553.41	2154.67
553.77	2160.71
554.13	2166.70
554.48	2172.60
554.84	2178.21
555.19	2183.33
555.55	2188.53
555.90	2193.08
556.26	2197.96
556.61	2202.66
556.97	2206.95
557.32	2211.05
557.68	2215.10
558.03	2219.40
558.39	2223.08
558.74	2227.85
559.10	2231.73
559.45	2235.36
559.81	2239.56
560.16	2243.45
560.52	2246.65
560.87	2249.99
561.23	2252.65
561.58	2255.50
561.94	2258.19
562.29	2260.52
562.64	2263.38
563.00	2265.93
563.35	2269.27
563.71	2272.41
564.06	2275.56
564.42	2278.56
564.77	2281.22
565.12	2283.69
565.48	2285.66
565.83	2287.55
566.19	2288.77
566.54	2289.58
566.89	2290.80
567.25	2291.55
567.60	2292.99
567.96	2294.56
568.31	2295.48
568.66	2296.58
569.02	2297.27
569.37	2297.57
569.72	2298.55
570.08	2298.72
570.43	2298.83
570.78	2298.39
571.14	2296.85
571.49	2295.60
571.84	2295.19
572.20	2294.09
572.55	2292.91
572.90	2291.24
573.26	2289.87
573.61	2288.16
573.96	2286.54
574.31	2283.58
574.67	2280.57
575.02	2276.89
575.37	2273.49
575.72	2269.94
576.08	2266.68
576.43	2263.33
576.78	2259.82
577.13	2256.47
577.49	2253.23
577.84	2249.75
578.19	2246.02
578.54	2242.62
578.90	2238.42
579.25	2232.91
579.60	2228.10
579.95	2223.13
580.30	2218.15
580.66	2213.01
581.01	2208.23
581.36	2203.34
581.71	2199.11
582.06	2194.65
582.42	2190.30
582.77	2185.09
583.12	2180.46
583.47	2175.76
583.82	2170.89
584.17	2165.66
584.53	2160.24
584.88	2154.78
585.23	2149.05
585.58	2143.66
585.93	2138.04
586.28	2133.29
586.63	2128.34
586.98	2123.30
587.34	2118.69
587.69	2113.89
588.04	2108.86
588.39	2103.17
588.74	2096.68
589.09	2090.60
589.44	2083.94
589.79	2077.76
590.14	2072.21
590.49	2065.47
590.84	2058.89
591.19	2052.86
591.54	2046.36
591.89	2039.02
592.25	2032.31
592.60	2025.13
592.95	2017.52
593.30	2010.33
593.65	2002.67
594.00	1995.53
594.35	1988.13
594.70	1980.05
595.05	1973.06
595.40	1965.67
595.75	1958.21
596.10	1952.29
596.45	1945.62
596.80	1939.46
597.15	1932.95
597.50	1925.96
597.85	1919.61
598.19	1913.07
598.54	1905.98
598.89	1899.29
599.24	1893.42
599.59	1886.77
599.94	1880.63
600.29	1874.32
600.64	1867.56
600.99	1860.20
601.34	1853.43
601.69	1846.48
602.04	1839.78
602.39	1832.39
602.74	1825.59
603.08	1818.82
603.43	1811.99
603.78	1804.57
604.13	1797.38
604.48	1790.31
604.83	1783.52
605.18	1776.84
605.53	1768.96
605.87	1761.02
606.22	1753.83
606.57	1745.89
606.92	1738.49
607.27	1731.25
607.62	1724.39
607.96	1717.29
608.31	1710.91
608.66	1703.37
609.01	1695.79
609.36	1688.00
609.70	1679.99
610.05	1672.00
610.40	1664.54
610.75	1656.19
611.10	1648.58
611.44	1640.15
611.79	1632.00
612.14	1623.29
612.49	1613.92
612.83	1605.52
613.18	1597.36
613.53	1589.33
613.88	1580.86
614.22	1572.59
614.57	1563.88
614.92	1555.84
615.27	1548.38
615.61	1539.96
615.96	1531.96
616.31	1524.26
616.65	1516.99
617.00	1509.40
617.35	1501.68
617.70	1493.20
618.04	1484.59
618.39	1476.43
618.74	1468.81
619.08	1460.47
619.43	1452.87
619.78	1446.04
620.12	1438.92
620.47	1431.38
620.82	1423.18
621.16	1415.71
621.51	1408.09
621.85	1400.60
622.20	1392.12
622.55	1383.63
622.89	1375.73
623.24	1368.03
623.59	1360.73
623.93	1353.32
624.28	1346.14
624.62	1338.64
624.97	1331.45
625.32	1324.80
625.66	1317.80
626.01	1310.62
626.35	1303.25
626.70	1295.40
627.04	1287.65
627.39	1279.77
627.73	1272.46
628.08	1265.56
628.43	1258.37
628.77	1251.02
629.12	1243.53
629.46	1236.28
629.81	1228.81
630.15	1221.61
630.50	1214.19
630.84	1206.05
631.19	1198.01
631.53	1190.48
631.88	1182.85
632.22	1175.25
632.57	1167.90
632.91	1160.33
633.26	1152.81
633.60	1145.27
633.95	1138.13
634.29	1131.05
634.64	1124.42
634.98	1117.00
635.32	1109.82
635.67	1103.01
636.01	1096.44
636.36	1089.58
636.70	1083.02
637.05	1076.47
637.39	1070.02
637.73	1063.69
638.08	1057.72
638.42	1051.70
638.77	1045.23
639.11	1038.76
639.45	1032.35
639.80	1025.63
640.14	1019.24
640.49	1012.79
640.83	1006.63
641.17	1000.49
641.52	994.18
641.86	987.63
642.20	981.80
642.55	975.38
642.89	969.12
643.23	962.48
643.58	956.68
643.92	950.51
644.26	944.52
644.61	938.33
644.95	932.20
645.29	925.71
645.64	918.93
645.98	912.50
646.32	906.50
646.66	900.53
647.01	894.77
647.35	888.97
647.69	883.07
648.04	877.44
648.38	871.66
648.72	865.61
649.06	859.66
649.41	853.76
649.75	847.88
650.09	841.87
650.43	836.11
650.78	829.95
651.12	824.00
651.46	818.26
651.80	812.59
652.14	807.19
652.49	801.76
652.83	796.57
653.17	790.93
653.51	785.23
653.85	779.72
654.20	774.07
654.54	768.15
654.88	762.43
655.22	756.53
655.56	750.78
655.90	745.31
656.25	740.04
656.59	734.70
656.93	729.60
657.27	724.45
657.61	719.02
657.95	713.89
658.29	708.79
658.64	703.52
658.98	698.21
659.32	692.75
659.66	687.51
660.00	682.28
660.34	677.35
660.68	672.45
661.02	667.48
661.36	662.82
661.70	658.32
662.05	653.97
662.39	649.73
662.73	645.31
663.07	641.05
663.41	636.61
663.75	632.10
664.09	627.55
664.43	623.18
664.77	619.10
665.11	614.88
665.45	610.76
665.79	606.67
666.13	602.58
666.47	598.48
666.81	594.30
667.15	590.17
667.49	586.27
667.83	582.42
668.17	578.43
668.51	574.30
668.85	570.17
669.19	566.31
669.53	562.46
669.87	558.55
670.21	554.81
670.55	551.19
670.89	547.77
671.23	544.39
671.57	540.81
671.91	537.26
672.25	533.77
672.58	530.26
672.92	526.85
673.26	523.64
673.60	520.50
673.94	517.51
674.28	514.60
674.62	511.63
674.96	508.57
675.30	505.71
675.64	502.80
675.97	500.07
676.31	497.25
676.65	494.30
676.99	491.65
677.33	488.74
677.67	485.90
678.01	482.81
678.34	479.77
678.68	476.92
679.02	474.09
679.36	471.31
679.70	468.63
680.04	465.89
680.37	463.05
680.71	460.22
681.05	457.52
681.39	454.81
681.73	452.15
682.06	449.62
682.40	447.07
682.74	444.55
683.08	442.01
683.42	439.38
683.75	436.89
684.09	434.30
684.43	431.87
684.77	429.42
685.10	427.09
685.44	424.81
685.78	422.48
686.12	420.21
686.45	417.94
686.79	415.66
687.13	413.45
687.46	411.25
687.80	409.08
688.14	406.85
688.48	404.83
688.81	402.61
689.15	400.41
689.49	398.26
689.82	396.21
690.16	394.11
690.50	392.18
690.83	390.20
691.17	388.22
691.51	386.30
691.84	384.42
692.18	382.49
692.52	380.55
692.85	378.60
693.19	376.71
693.52	374.88
693.86	373.03
694.20	371.21
694.53	369.42
694.87	367.55
695.21	365.75
695.54	363.88
695.88	362.11
696.21	360.41
696.55	358.75
696.88	356.98
697.22	355.31
697.56	353.64
697.89	352.01
698.23	350.43
698.56	348.83
698.90	347.24
699.23	345.65
699.57	344.07
699.90	342.53
700.24	340.99
700.58	339.44
700.91	337.93
701.25	336.45
701.58	335.10
701.92	333.75
702.25	332.40
702.59	331.03
702.92	329.75
703.26	328.47
703.59	327.14
703.93	326.01
704.26	324.83
704.60	323.52
704.93	322.25
705.26	320.97
705.60	319.76
705.93	318.61
706.27	317.55
706.60	316.47
706.94	315.46
707.27	314.33
707.61	313.27
707.94	312.27
708.27	311.27
708.61	310.20
708.94	309.23
709.28	308.28
709.61	307.38
709.94	306.42
710.28	305.38
710.61	304.38
710.95	303.30
711.28	302.33
711.61	301.46
711.95	300.58
712.28	299.66
712.61	298.73
712.95	297.81
713.28	296.92
713.61	296.06
713.95	295.17
714.28	294.32
714.61	293.47
714.95	292.61
715.28	291.73
715.61	290.85
715.95	289.95
716.28	289.06
716.61	288.19
716.95	287.34
717.28	286.60
717.61	285.84
717.94	285.09
718.28	284.27
718.61	283.51
718.94	282.80
719.27	282.14
719.61	281.43
719.94	280.73
720.27	279.99
720.60	279.29
720.94	278.66
721.27	278.12
721.60	277.53
721.93	276.96
722.27	276.37
722.60	275.83
722.93	275.28
723.26	274.75
723.59	274.19
723.93	273.68
724.26	273.13
724.59	272.60
724.92	272.07
725.25	271.59
725.59	271.03
725.92	270.49
726.25	269.95
726.58	269.49
726.91	269.04
727.24	268.60
727.57	268.19
727.91	267.63
728.24	267.12
728.57	266.61
728.90	266.13
729.23	265.67
729.56	265.23
729.89	264.73
730.22	264.20
730.55	263.70
730.89	263.24
731.22	262.78
731.55	262.34
731.88	261.88
732.21	261.47
732.54	261.04
732.87	260.59
733.20	260.20
733.53	259.78
733.86	259.38
734.19	258.97
734.52	258.52
734.85	258.22
735.18	257.78
735.51	257.44
735.84	257.04
736.17	256.67
736.50	256.27
736.83	256.07
737.16	255.77
737.49	255.47
737.82	255.11
738.15	254.80
738.48	254.46
738.81	254.19
739.14	253.82
739.47	253.53
739.80	253.24
740.13	252.98
740.46	252.64
740.79	252.28
741.12	251.96
741.45	251.66
741.78	251.33
742.11	251.09
742.44	250.78
742.77	250.54
743.10	250.25
743.43	249.95
743.75	249.56
744.08	249.43
744.41	249.14
744.74	248.91
745.07	248.64
745.40	248.40
745.73	248.15
746.06	247.92
746.39	247.68
746.71	247.40
747.04	247.11
747.37	246.85
747.70	246.63
748.03	246.37
748.36	246.17
748.68	245.95
749.01	245.70
749.34	245.46
749.67	245.20
750.00	244.98
750.33	244.80
750.65	244.59
750.98	244.20
751.31	244.00
751.64	243.75
751.97	243.58
752.29	243.35
752.62	243.12
752.95	242.86
753.28	242.65
753.60	242.47
753.93	242.29
754.26	242.13
754.59	241.92
754.91	241.74
755.24	241.53
755.57	241.32
755.90	241.09
756.22	240.93
756.55	240.73
756.88	240.53
757.20	240.31
757.53	240.11
757.86	239.98
758.19	239.79
758.51	239.65
758.84	239.42
759.17	239.25
759.49	239.07
759.82	238.99
760.15	238.80
760.47	238.63
760.80	238.48
761.13	238.33
761.45	238.19
761.78	238.02
762.11	237.86
762.43	237.70
762.76	237.58
763.08	237.44
763.41	237.30
763.74	237.16
764.06	237.00
764.39	236.86
764.71	236.71
765.04	236.58
765.37	236.45
765.69	236.33
766.02	236.20
766.34	236.09
766.67	235.92
767.00	235.84
767.32	235.76
767.65	235.66
767.97	235.56
768.30	235.43
768.62	235.34
768.95	235.23
769.27	235.11
769.60	235.01
769.92	234.86
770.25	234.76
770.57	234.65
770.90	234.55
771.22	234.45
771.55	234.37
771.87	234.28
772.20	234.16
772.52	234.17
772.85	234.18
773.17	234.09
773.50	234.00
773.82	233.90
774.15	233.81
774.47	233.69
774.80	233.58
775.12	233.49
775.45	233.38
775.77	233.29
776.09	233.23
776.42	233.16
776.74	233.14
777.07	233.07
777.39	233.02
777.72	232.94
778.04	232.91
778.36	232.82
778.69	232.75
779.01	232.72
779.33	232.60
779.66	232.42
779.98	232.33
780.31	232.28
780.63	232.25
780.95	232.21
781.28	232.15
781.60	232.09
781.92	232.05
782.25	232.00
782.57	231.97
782.89	231.90
783.22	231.86
783.54	231.79
783.86	231.73
784.19	231.67
784.51	231.68
784.83	231.62
785.16	231.59
785.48	231.54
785.80	231.47
786.12	231.43
786.45	231.36
786.77	231.34
787.09	231.29
787.42	231.24
787.74	231.16
788.06	231.15
788.38	231.10
788.71	231.05
789.03	231.02
789.35	230.97
789.67	230.98
789.99	230.94
790.32	230.88
790.64	230.84
790.96	230.88
791.28	230.81
791.61	230.74
791.93	230.68
792.25	230.66
792.57	230.69
792.89	230.61
793.21	230.60
793.54	230.55
793.86	230.51
794.18	230.43
794.50	230.40
794.82	230.30
795.14	230.28
795.47	230.25
795.79	230.18
796.11	230.14
796.43	230.08
796.75	230.03
797.07	230.00
797.39	229.96
797.71	229.87
798.04	229.79
798.36	229.77
798.68	229.74
799.00	229.72
799.32	229.62
799.64	229.62
799.96	229.61
800.28	229.59
800.60	229.54
800.92	229.55
801.24	229.48
801.56	229.49
801.89	229.47
802.21	229.44
802.53	229.39
802.85	229.35
803.17	229.38
803.49	229.31
803.81	229.29
804.13	229.26
804.45	229.22
804.77	229.22
805.09	229.20
805.41	229.12
805.73	229.06
806.05	229.00
806.37	228.95
806.69	228.88
807.01	228.81
807.33	228.77
807.65	228.69
807.97	228.76
808.28	228.70
808.60	228.65
808.92	228.61
809.24	228.65
809.56	228.60
809.88	228.51
810.20	228.49
810.52	228.48
810.84	228.45
811.16	228.41
811.48	228.35
811.80	228.38
812.12	228.37
812.43	228.40
812.75	228.42
813.07	228.42
813.39	228.40
813.71	228.36
814.03	228.32
814.35	228.32
814.67	228.20
814.98	228.19
815.30	228.19
815.62	228.15
815.94	228.09
816.26	228.13
816.58	228.08
816.89	228.09
817.21	228.05
817.53	228.05
817.85	228.03
818.17	228.03
818.48	227.96
818.80	227.97
819.12	227.95
819.44	227.86
819.76	227.80
820.07	227.81
820.39	227.82
820.71	227.82
821.03	227.80
821.34	227.83
821.66	227.82
821.98	227.82
822.30	227.80
822.61	227.84
822.93	227.79
823.25	227.82
823.57	227.80
823.88	227.81
824.20	227.81
824.52	227.83
824.83	227.80
825.15	227.78
825.47	227.75
825.79	227.73
826.10	227.80
826.42	227.79
826.74	227.80
827.05	227.77
827.37	227.76
827.69	227.78
828.00	227.76
828.32	227.75
828.64	227.72
828.95	227.79
829.27	227.76
829.58	227.76
829.90	227.77
830.22	227.75
830.53	227.72
830.85	227.69
831.17	227.66
831.48	227.69
831.80	227.71
832.11	227.70
832.43	227.68
832.75	227.65
833.06	227.70
833.38	227.68
833.69	227.67
834.01	227.67
834.32	227.66
834.64	227.64
834.96	227.61
835.27	227.58
835.59	227.52
835.90	227.50
836.22	227.48
836.53	227.44
836.85	227.41
837.16	227.49
837.48	227.46
837.79	227.47
838.11	227.43
838.42	227.38
838.74	227.37
839.05	227.35
839.37	227.31
839.68	227.26
840.00	227.25
840.31	227.25
840.63	227.25
840.94	227.21
841.26	227.16
841.57	227.14
841.88	227.15
842.20	227.13
842.51	227.14
842.83	227.12
843.14	227.18
843.46	227.19
843.77	227.15
844.08	227.14
844.40	227.14
844.71	227.11
845.03	227.13
845.34	227.10
845.65	227.09
845.97	227.08
846.28	227.07
846.60	227.05
846.91	227.01
847.22	227.00
847.54	226.99
847.85	227.04
848.16	227.04
848.48	227.00
848.79	227.01
849.10	226.96
849.42	226.96
849.73	226.85
850.04	226.81
850.36	226.76
850.67	226.77
850.98	226.73
851.30	226.75
851.61	226.76
851.92	226.77
852.23	226.76
852.55	226.76
852.86	226.73
853.17	226.70
853.49	226.74
853.80	226.74
854.11	226.76
854.42	226.72
854.74	226.73
855.05	226.72
855.36	226.68
855.67	226.74
855.99	226.73
856.30	226.84
856.61	226.83
856.92	226.80
857.23	226.76
857.55	226.77
857.86	226.72
858.17	226.70
858.48	226.66
858.79	226.66
859.11	226.65
859.42	226.66
859.73	226.64
860.04	226.64
860.35	226.64
860.66	226.60
860.98	226.61
861.29	226.58
861.60	226.55
861.91	226.58
862.22	226.48
862.53	226.45
862.84	226.34
863.16	226.39
863.47	226.42
863.78	226.44
864.09	226.44
864.40	226.49
864.71	226.49
865.02	226.52
865.33	226.52
865.64	226.51
865.95	226.49
866.27	226.57
866.58	226.54
866.89	226.54
867.20	226.56
867.51	226.51
867.82	226.54
868.13	226.61
868.44	226.56
868.75	226.62
869.06	226.63
869.37	226.64
869.68	226.57
869.99	226.56
870.30	226.56
870.61	226.55
870.92	226.52
871.23	226.51
871.54	226.53
871.85	226.55
872.16	226.55
872.47	226.56
872.78	226.49
873.09	226.49
873.40	226.49
873.71	226.49
874.02	226.53
874.33	226.49
874.64	226.45
874.95	226.47
875.26	226.47
875.56	226.49
875.87	226.48
876.18	226.51
876.49	226.60
876.80	226.61
877.11	226.61
877.42	226.62
877.73	226.65
878.04	226.62
878.35	226.60
878.66	226.61
878.96	226.60
879.27	226.60
879.58	226.61
879.89	226.60
880.20	226.61
880.51	226.60
880.82	226.59
881.12	226.62
881.43	226.62
881.74	226.57
882.05	226.56
882.36	226.56
882.67	226.54
882.97	226.42
883.28	226.38
883.59	226.39
883.90	226.41
884.21	226.39
884.51	226.38
884.82	226.36
885.13	226.33
885.44	226.35
885.74	226.36
886.05	226.35
886.36	226.36
886.67	226.35
886.98	226.38
887.28	226.40
887.59	226.38
887.90	226.39
888.20	226.41
888.51	226.42
888.82	226.45
889.13	226.46
889.43	226.55
889.74	226.57
890.05	226.55
890.35	226.53
890.66	226.53
890.97	226.51
891.28	226.52
891.58	226.53
891.89	226.52
892.20	226.51
892.50	226.51
892.81	226.48
893.12	226.45
893.42	226.43
893.73	226.44
894.04	226.42
894.34	226.43
894.65	226.43
894.95	226.41
895.26	226.39
895.57	226.43
895.87	226.34
896.18	226.32
896.48	226.34
896.79	226.34
897.10	226.36
897.40	226.36
897.71	226.37
898.01	226.36
898.32	226.37
898.63	226.34
898.93	226.34
899.24	226.38
899.54	226.38
899.85	226.34
900.15	226.31
900.46	226.33
900.76	226.32
901.07	226.32
901.38	226.33
901.68	226.35
901.99	226.29
902.29	226.30
902.60	226.33
902.90	226.31
903.21	226.28
903.51	226.24
903.82	226.29
904.12	226.27
904.43	226.31
904.73	226.30
905.03	226.33
905.34	226.44
905.64	226.40
905.95	226.40
906.25	226.42
906.56	226.44
906.86	226.44
907.17	226.46
907.47	226.45
907.77	226.46
908.08	226.44
908.38	226.43
908.69	226.43
908.99	226.43
909.30	226.42
909.60	226.44
909.90	226.47
910.21	226.41
910.51	226.39
910.81	226.38
911.12	226.34
911.42	226.35
911.73	226.22
912.03	226.24
912.33	226.23
912.64	226.24
912.94	226.22
913.24	226.20
913.55	226.15
913.85	226.15
914.15	226.15
914.46	226.14
914.76	226.15
915.06	226.17
915.37	226.14
915.67	226.11
915.97	226.10
916.27	226.06
916.58	226.07
916.88	226.10
917.18	226.06
917.49	226.15
917.79	226.14
918.09	226.15
918.39	226.14
918.70	226.15
919.00	226.13
919.30	226.16
919.60	226.13
919.91	226.13
920.21	226.10
920.51	226.04
920.81	226.01
921.12	225.99
921.42	225.98
921.72	225.99
922.02	226.01
922.32	226.02
922.63	226.03
922.93	226.09
923.23	226.06
923.53	226.06
923.83	225.98
924.13	225.96
924.44	225.96
924.74	225.99
925.04	226.00
925.34	226.00
925.64	225.97
925.94	225.96
926.24	226.03
926.55	226.05
926.85	226.08
927.15	226.07
927.45	226.08
927.75	226.08
928.05	226.08
928.35	226.08
928.65	226.10
928.95	226.09
929.26	226.05
929.56	226.04
929.86	226.05
930.16	226.07
930.46	226.09
930.76	226.09
931.06	226.03
931.36	226.04
931.66	226.06
931.96	226.07
932.26	226.11
932.56	226.04
932.86	226.07
933.16	226.10
933.46	226.12
933.76	226.09
934.06	226.09
934.36	226.14
934.66	226.15
934.96	226.15
935.26	226.18
935.56	226.20
935.86	226.21
936.16	226.22
936.46	226.20
936.76	226.21
937.06	226.21
937.36	226.22
937.66	226.21
937.96	226.20
938.26	226.19
938.56	226.20
938.86	226.19
939.16	226.22
939.46	226.23
939.76	226.25
940.06	226.30
940.35	226.31
940.65	226.25
940.95	226.27
941.25	226.24
941.55	226.22
941.85	226.21
942.15	226.22
942.45	226.27
942.75	226.30
943.04	226.32
943.34	226.35
943.64	226.36
943.94	226.36
944.24	226.38
944.54	226.37
944.84	226.35
945.13	226.34
945.43	226.32
945.73	226.32
946.03	226.29
946.33	226.26
946.62	226.27
946.92	226.27
947.22	226.26
947.52	226.25
947.82	226.24
948.11	226.24
948.41	226.24
948.71	226.20
949.01	226.19
949.31	226.12
949.60	226.11
949.90	226.14
950.20	226.10
950.50	226.09
950.79	226.10
951.09	226.13
951.39	226.16
951.69	226.11
951.98	226.11
952.28	226.14
952.58	226.12
952.87	226.11
953.17	226.11
953.47	226.08
953.76	226.08
954.06	226.07
954.36	226.04
954.66	226.03
954.95	226.05
955.25	226.06
955.55	226.08
955.84	226.05
956.14	226.04
956.44	226.05
956.73	226.03
957.03	226.02
957.32	226.00
957.62	225.96
957.92	225.99
958.21	225.95
958.51	226.04
958.81	226.07
959.10	226.04
959.40	226.06
959.69	226.07
959.99	226.06
960.29	226.07
960.58	226.09
960.88	226.13
961.17	226.08
961.47	226.08
961.76	226.07
962.06	226.09
962.36	226.07
962.65	226.07
962.95	226.05
963.24	226.08
963.54	226.06
963.83	226.08
964.13	226.06
964.42	226.02
964.72	225.95
965.01	225.92
965.31	225.92
965.60	225.91
965.90	225.97
966.19	225.96
966.49	225.95
966.78	225.94
967.08	225.93
967.37	225.95
967.67	225.93
967.96	225.96
968.26	225.94
968.55	225.96
968.85	225.97
969.14	225.97
969.43	225.96
969.73	225.98
970.02	226.01
970.32	226.03
970.61	226.04
970.91	226.00
971.20	226.04
971.49	226.06
971.79	226.06
972.08	225.99
972.38	226.00
972.67	226.01
972.96	226.03
973.26	226.01
973.55	226.03
973.85	226.03
974.14	226.01
974.43	226.03
974.73	226.03
975.02	226.05
975.31	226.11
975.61	226.11
975.90	226.06
976.19	226.04
976.49	226.04
976.78	226.05
977.07	226.08
977.37	226.07
977.66	226.08
977.95	226.09
978.24	226.12
978.54	226.17
978.83	226.13
979.12	226.16
979.42	226.16
979.71	226.12
980.00	226.10
980.29	226.11
980.59	226.10
980.88	226.09
981.17	226.05
981.46	226.03
981.76	226.04
982.05	226.11
982.34	226.13
982.63	226.14
982.93	226.15
983.22	226.19
983.51	226.21
983.80	226.20
984.09	226.22
984.39	226.22
984.68	226.21
984.97	226.24
985.26	226.22
985.55	226.21
985.85	226.23
986.14	226.26
986.43	226.25
986.72	226.27
987.01	226.24
987.30	226.23
987.59	226.23
987.89	226.22
988.18	226.18
988.47	226.15
988.76	226.16
989.05	226.15
989.34	226.11
989.63	226.09
989.92	226.09
990.22	226.06
990.51	226.07
990.80	226.02
991.09	226.01
991.38	226.00
991.67	225.98
991.96	225.95
992.25	225.92
992.54	225.90
992.83	225.88
993.12	225.89
993.41	225.90
993.70	225.93
993.99	225.92
994.28	225.95
994.58	225.97
994.87	225.92
995.16	225.92
995.45	225.90
995.74	225.89
996.03	225.90
996.32	225.89
996.61	225.89
996.90	225.91
997.19	225.87
997.48	225.84
997.77	225.83
998.06	225.82
998.34	225.86
998.63	225.87
998.92	225.83
999.21	225.82
999.50	225.83
999.79	225.78
1000.08	225.82
1000.37	225.79
1000.66	225.78
1000.95	225.79
1001.24	225.80
1001.53	225.79
1001.82	225.74
1002.11	225.70
1002.40	225.74
1002.68	225.74
1002.97	225.81
1003.26	225.84
1003.55	225.81
1003.84	225.84
1004.13	225.89
1004.42	225.86
1004.71	225.86
1004.99	225.91
1005.28	225.96
1005.57	225.96
1005.86	225.96
1006.15	225.91
1006.44	225.91
1006.72	225.92
1007.01	225.95
1007.30	225.95
1007.59	225.98
1007.88	225.99
1008.17	226.01
1008.45	225.98
1008.74	225.95
1009.03	225.91
1009.32	225.92
1009.60	225.96
1009.89	225.94
1010.18	225.92
1010.47	225.92
1010.76	225.92
1011.04	225.92
1011.33	225.90
1011.62	225.90
1011.91	225.93
1012.19	225.96
1012.48	225.96
1012.77	225.97
1013.05	226.01
1013.34	225.99
1013.63	225.97
1013.92	225.99
1014.20	225.96
1014.49	225.97
1014.78	226.00
1015.06	225.98
1015.35	225.98
1015.64	225.99
1015.92	226.03
1016.21	226.04
1016.50	226.05
1016.78	226.09
1017.07	226.09
1017.36	226.06
1017.64	226.04
1017.93	226.03
1018.22	226.00
1018.50	225.98
1018.79	225.96
1019.08	225.92
1019.36	225.99
1019.65	226.00
1019.93	226.02
1020.22	226.06
1020.51	226.07
1020.79	226.05
1021.08	225.76
1021.36	225.33
1021.65	225.72
1021.94	226.28
1022.22	227.03
1022.51	226.12
1022.79	226.18
1023.08	226.35
1023.36	226.24
1023.65	225.89
>>>>>End Processed Spectral Data<<<<<
