SpectraSuite Data File
++++++++++++++++++++++++++++++++++++
Date: Fri Feb 01 16:56:45 EST 2013
User: group
Dark Spectrum Present: No
Reference Spectrum Present: No
Number of Sampled Component Spectra: 1
Spectrometers: USB2E7196
Integration Time (usec): 35000 (USB2E7196)
Spectra Averaged: 100 (USB2E7196)
Boxcar Smoothing: 10 (USB2E7196)
Correct for Electrical Dark: No (USB2E7196)
Strobe/Lamp Enabled: No (USB2E7196)
Correct for Detector Non-linearity: No (USB2E7196)
Correct for Stray Light: No (USB2E7196)
Number of Pixels in Processed Spectrum: 2048
>>>>>Begin Processed Spectral Data<<<<<
339.09	0.00
339.48	213.24
339.86	214.66
340.24	216.98
340.63	217.31
341.01	220.78
341.39	220.02
341.78	221.79
342.16	222.51
342.54	222.90
342.93	211.67
343.31	222.38
343.69	222.95
344.07	223.42
344.46	223.79
344.84	224.17
345.22	224.37
345.60	224.65
345.99	224.84
346.37	224.96
346.75	225.07
347.13	225.15
347.52	225.22
347.90	225.28
348.28	225.32
348.66	225.38
349.05	225.35
349.43	225.38
349.81	225.44
350.19	225.48
350.57	225.55
350.96	225.59
351.34	225.64
351.72	225.68
352.10	225.77
352.48	225.83
352.87	225.87
353.25	225.92
353.63	225.95
354.01	225.99
354.39	226.09
354.77	226.18
355.15	226.26
355.54	226.31
355.92	226.34
356.30	226.40
356.68	226.50
357.06	226.61
357.44	226.67
357.82	226.71
358.20	226.80
358.58	226.87
358.97	226.94
359.35	227.01
359.73	227.09
360.11	227.14
360.49	227.24
360.87	227.30
361.25	227.41
361.63	227.50
362.01	227.57
362.39	227.59
362.77	227.60
363.15	227.61
363.53	227.64
363.91	227.66
364.29	227.70
364.67	227.63
365.05	227.64
365.43	227.67
365.81	227.71
366.19	227.75
366.57	227.80
366.95	227.79
367.33	227.77
367.71	227.78
368.09	227.79
368.47	227.76
368.85	227.74
369.23	227.71
369.61	227.63
369.99	227.63
370.37	227.62
370.75	227.67
371.13	227.65
371.51	227.63
371.89	227.61
372.27	227.57
372.65	227.58
373.03	227.52
373.41	227.49
373.78	227.43
374.16	227.33
374.54	227.21
374.92	227.17
375.30	227.13
375.68	227.09
376.06	227.03
376.44	226.95
376.82	226.91
377.19	226.85
377.57	226.80
377.95	226.70
378.33	226.63
378.71	226.54
379.09	226.49
379.47	226.41
379.84	226.35
380.22	226.26
380.60	226.10
380.98	226.02
381.36	225.94
381.73	225.86
382.11	225.80
382.49	225.78
382.87	225.69
383.25	225.62
383.62	225.63
384.00	225.58
384.38	225.54
384.76	225.51
385.13	225.47
385.51	225.42
385.89	225.36
386.27	225.31
386.64	225.24
387.02	225.19
387.40	225.13
387.78	225.11
388.15	225.09
388.53	225.08
388.91	225.09
389.29	225.06
389.66	225.07
390.04	225.04
390.42	225.02
390.79	225.03
391.17	225.02
391.55	224.89
391.92	224.86
392.30	224.85
392.68	224.78
393.05	224.77
393.43	224.79
393.81	224.78
394.18	224.77
394.56	224.77
394.94	224.80
395.31	224.81
395.69	224.86
396.06	224.89
396.44	224.93
396.82	224.91
397.19	224.99
397.57	225.02
397.95	225.06
398.32	225.03
398.70	225.09
399.07	225.15
399.45	225.20
399.82	225.26
400.20	225.33
400.58	225.41
400.95	225.44
401.33	225.52
401.70	225.66
402.08	225.73
402.45	225.84
402.83	225.94
403.20	226.04
403.58	226.12
403.95	226.22
404.33	226.36
404.71	226.50
405.08	226.68
405.46	226.83
405.83	226.97
406.21	227.12
406.58	227.29
406.96	227.44
407.33	227.61
407.70	227.80
408.08	228.07
408.45	228.29
408.83	228.55
409.20	228.77
409.58	228.99
409.95	229.26
410.33	229.52
410.70	229.76
411.08	230.05
411.45	230.36
411.82	230.70
412.20	231.03
412.57	231.46
412.95	231.72
413.32	232.12
413.69	232.55
414.07	233.02
414.44	233.48
414.82	233.99
415.19	234.57
415.56	235.11
415.94	235.63
416.31	236.29
416.68	236.91
417.06	237.61
417.43	238.28
417.81	239.06
418.18	239.84
418.55	240.70
418.93	241.61
419.30	242.48
419.67	243.40
420.04	244.37
420.42	245.36
420.79	246.55
421.16	247.68
421.54	248.86
421.91	250.05
422.28	251.33
422.66	252.67
423.03	253.95
423.40	255.32
423.77	256.74
424.15	258.15
424.52	259.65
424.89	261.27
425.26	262.83
425.64	264.24
426.01	265.85
426.38	267.47
426.75	269.11
427.13	270.88
427.50	272.68
427.87	274.55
428.24	276.41
428.61	278.13
428.99	280.08
429.36	282.17
429.73	284.24
430.10	286.20
430.47	288.19
430.85	290.28
431.22	292.49
431.59	294.79
431.96	297.04
432.33	299.47
432.70	301.80
433.08	304.61
433.45	307.21
433.82	309.76
434.19	312.60
434.56	315.38
434.93	317.96
435.30	320.51
435.68	323.36
436.05	326.19
436.42	329.00
436.79	331.48
437.16	334.17
437.53	336.97
437.90	339.73
438.27	342.45
438.64	345.29
439.01	347.86
439.38	350.12
439.75	352.24
440.13	354.70
440.50	357.00
440.87	358.81
441.24	360.75
441.61	362.88
441.98	364.38
442.35	366.16
442.72	368.01
443.09	369.82
443.46	370.79
443.83	371.33
444.20	371.80
444.57	372.66
444.94	372.91
445.31	373.27
445.68	373.66
446.05	373.75
446.42	373.30
446.79	372.89
447.16	372.43
447.53	372.11
447.90	371.00
448.27	369.86
448.64	368.33
449.01	367.21
449.37	365.26
449.74	363.39
450.11	361.19
450.48	358.72
450.85	356.22
451.22	354.12
451.59	352.06
451.96	350.15
452.33	347.54
452.70	345.21
453.07	342.33
453.43	339.39
453.80	336.63
454.17	334.02
454.54	331.52
454.91	328.88
455.28	326.19
455.65	323.67
456.02	321.25
456.38	319.05
456.75	316.41
457.12	314.20
457.49	311.98
457.86	309.80
458.23	307.98
458.59	305.95
458.96	303.90
459.33	302.09
459.70	300.23
460.07	298.75
460.43	297.03
460.80	295.46
461.17	294.09
461.54	292.61
461.91	291.20
462.27	289.74
462.64	288.46
463.01	287.19
463.38	285.91
463.74	284.58
464.11	283.46
464.48	282.45
464.85	281.36
465.21	280.50
465.58	279.59
465.95	278.52
466.32	277.60
466.68	276.70
467.05	275.82
467.42	274.93
467.78	273.99
468.15	273.17
468.52	272.56
468.88	271.72
469.25	270.93
469.62	270.32
469.98	269.69
470.35	269.10
470.72	268.50
471.08	267.91
471.45	267.37
471.82	266.82
472.18	266.23
472.55	265.82
472.92	265.31
473.28	264.90
473.65	264.45
474.02	264.02
474.38	263.66
474.75	263.39
475.11	263.08
475.48	262.82
475.85	262.60
476.21	262.34
476.58	262.16
476.94	262.05
477.31	261.93
477.67	261.76
478.04	261.63
478.41	261.57
478.77	261.60
479.14	261.60
479.50	261.65
479.87	261.76
480.23	261.86
480.60	261.96
480.96	262.06
481.33	262.31
481.69	262.56
482.06	262.80
482.42	262.98
482.79	263.23
483.15	263.61
483.52	264.01
483.88	264.39
484.25	264.80
484.61	265.26
484.98	265.69
485.34	266.25
485.71	266.84
486.07	267.47
486.44	268.02
486.80	268.66
487.17	269.36
487.53	270.13
487.90	270.97
488.26	271.92
488.62	272.94
488.99	273.90
489.35	274.95
489.72	276.04
490.08	277.24
490.44	278.45
490.81	279.75
491.17	281.08
491.54	282.54
491.90	284.05
492.26	285.69
492.63	287.42
492.99	289.22
493.36	291.14
493.72	293.12
494.08	295.24
494.45	297.46
494.81	299.81
495.17	302.25
495.54	304.79
495.90	307.44
496.26	310.18
496.63	313.11
496.99	316.19
497.35	319.43
497.72	322.86
498.08	326.38
498.44	330.07
498.80	333.95
499.17	338.02
499.53	342.18
499.89	346.56
500.26	351.09
500.62	355.72
500.98	360.63
501.34	365.69
501.71	371.00
502.07	376.42
502.43	382.02
502.79	387.79
503.16	393.82
503.52	400.06
503.88	406.42
504.24	412.99
504.60	419.80
504.97	426.91
505.33	434.21
505.69	441.87
506.05	449.59
506.41	457.45
506.78	465.44
507.14	473.88
507.50	482.51
507.86	491.42
508.22	500.57
508.59	509.73
508.95	519.16
509.31	528.91
509.67	538.94
510.03	549.18
510.39	559.64
510.75	570.34
511.12	581.19
511.48	592.37
511.84	603.74
512.20	615.09
512.56	626.90
512.92	638.90
513.28	651.08
513.64	663.46
514.00	676.00
514.37	688.88
514.73	701.68
515.09	714.49
515.45	727.54
515.81	740.91
516.17	754.63
516.53	768.62
516.89	782.63
517.25	796.57
517.61	810.72
517.97	825.06
518.33	839.28
518.69	853.85
519.05	868.63
519.41	883.51
519.77	898.90
520.13	914.15
520.49	929.28
520.85	944.50
521.21	959.86
521.57	975.82
521.93	991.20
522.29	1007.27
522.65	1023.32
523.01	1039.30
523.37	1055.11
523.73	1071.11
524.09	1086.93
524.45	1102.80
524.81	1119.24
525.17	1135.78
525.53	1152.43
525.89	1169.06
526.25	1185.64
526.61	1201.75
526.97	1218.20
527.33	1234.38
527.68	1250.65
528.04	1266.90
528.40	1283.11
528.76	1299.98
529.12	1316.31
529.48	1332.96
529.84	1348.75
530.20	1365.02
530.56	1381.57
530.91	1398.71
531.27	1415.10
531.63	1431.22
531.99	1447.62
532.35	1463.24
532.71	1478.91
533.07	1494.75
533.42	1510.44
533.78	1526.32
534.14	1542.28
534.50	1557.40
534.86	1572.95
535.21	1587.90
535.57	1603.47
535.93	1618.69
536.29	1633.07
536.65	1647.72
537.00	1662.27
537.36	1677.28
537.72	1691.65
538.08	1706.01
538.44	1719.38
538.79	1733.02
539.15	1746.41
539.51	1759.78
539.87	1773.83
540.22	1787.23
540.58	1800.71
540.94	1813.54
541.29	1825.96
541.65	1838.37
542.01	1851.25
542.37	1863.35
542.72	1875.43
543.08	1886.99
543.44	1899.15
543.79	1910.32
544.15	1921.16
544.51	1932.57
544.87	1943.31
545.22	1953.94
545.58	1963.95
545.94	1973.59
546.29	1983.27
546.65	1993.02
547.01	2002.18
547.36	2010.86
547.72	2019.18
548.07	2026.92
548.43	2035.13
548.79	2042.87
549.14	2050.36
549.50	2057.70
549.86	2065.22
550.21	2072.57
550.57	2079.68
550.92	2086.22
551.28	2093.20
551.64	2100.20
551.99	2106.56
552.35	2112.87
552.70	2119.01
553.06	2125.07
553.41	2131.43
553.77	2137.49
554.13	2143.52
554.48	2149.68
554.84	2155.19
555.19	2160.41
555.55	2165.77
555.90	2170.09
556.26	2175.27
556.61	2179.92
556.97	2184.21
557.32	2188.49
557.68	2192.56
558.03	2196.90
558.39	2200.62
558.74	2205.21
559.10	2209.08
559.45	2212.66
559.81	2216.81
560.16	2220.74
560.52	2224.05
560.87	2227.47
561.23	2230.22
561.58	2233.26
561.94	2235.83
562.29	2238.15
562.64	2240.92
563.00	2243.40
563.35	2247.08
563.71	2250.12
564.06	2253.48
564.42	2256.52
564.77	2259.15
565.12	2261.70
565.48	2263.76
565.83	2265.86
566.19	2267.40
566.54	2268.37
566.89	2269.92
567.25	2270.71
567.60	2271.94
567.96	2273.67
568.31	2274.72
568.66	2275.92
569.02	2276.59
569.37	2277.05
569.72	2278.17
570.08	2278.60
570.43	2278.81
570.78	2278.41
571.14	2277.15
571.49	2275.88
571.84	2275.64
572.20	2274.78
572.55	2273.69
572.90	2272.19
573.26	2270.97
573.61	2269.34
573.96	2268.01
574.31	2264.99
574.67	2262.28
575.02	2258.77
575.37	2255.56
575.72	2252.11
576.08	2248.83
576.43	2245.70
576.78	2242.31
577.13	2239.34
577.49	2236.37
577.84	2233.08
578.19	2229.49
578.54	2225.98
578.90	2222.07
579.25	2216.79
579.60	2211.96
579.95	2207.26
580.30	2202.50
580.66	2197.44
581.01	2192.67
581.36	2187.75
581.71	2183.98
582.06	2179.63
582.42	2175.37
582.77	2170.54
583.12	2166.18
583.47	2161.84
583.82	2157.12
584.17	2151.91
584.53	2146.42
584.88	2140.95
585.23	2135.41
585.58	2130.05
585.93	2124.93
586.28	2120.17
586.63	2115.31
586.98	2110.37
587.34	2105.93
587.69	2101.27
588.04	2096.35
588.39	2090.84
588.74	2084.74
589.09	2078.70
589.44	2072.05
589.79	2066.17
590.14	2060.42
590.49	2053.79
590.84	2047.45
591.19	2041.60
591.54	2035.44
591.89	2028.38
592.25	2021.89
592.60	2014.90
592.95	2007.49
593.30	2000.21
593.65	1992.82
594.00	1985.89
594.35	1978.79
594.70	1970.75
595.05	1963.72
595.40	1956.49
595.75	1949.19
596.10	1943.13
596.45	1936.62
596.80	1930.70
597.15	1924.35
597.50	1917.54
597.85	1911.37
598.19	1904.88
598.54	1897.87
598.89	1891.32
599.24	1885.50
599.59	1878.89
599.94	1872.79
600.29	1866.72
600.64	1860.28
600.99	1853.11
601.34	1846.42
601.69	1839.54
602.04	1832.93
602.39	1825.49
602.74	1818.74
603.08	1812.14
603.43	1805.36
603.78	1797.99
604.13	1790.85
604.48	1783.71
604.83	1776.90
605.18	1770.03
605.53	1762.17
605.87	1754.24
606.22	1747.12
606.57	1739.26
606.92	1732.01
607.27	1724.89
607.62	1718.04
607.96	1710.91
608.31	1704.40
608.66	1696.94
609.01	1689.52
609.36	1681.94
609.70	1674.04
610.05	1666.08
610.40	1658.40
610.75	1650.18
611.10	1642.76
611.44	1634.29
611.79	1626.22
612.14	1617.57
612.49	1608.41
612.83	1600.05
613.18	1592.01
613.53	1584.00
613.88	1575.49
614.22	1567.16
614.57	1558.55
614.92	1550.46
615.27	1543.03
615.61	1534.67
615.96	1526.51
616.31	1518.78
616.65	1511.39
617.00	1503.99
617.35	1496.36
617.70	1488.14
618.04	1479.63
618.39	1471.37
618.74	1463.83
619.08	1455.70
619.43	1448.13
619.78	1441.14
620.12	1434.04
620.47	1426.55
620.82	1418.37
621.16	1411.04
621.51	1403.50
621.85	1395.91
622.20	1387.53
622.55	1379.01
622.89	1371.31
623.24	1363.78
623.59	1356.40
623.93	1348.97
624.28	1341.70
624.62	1334.22
624.97	1326.96
625.32	1320.31
625.66	1313.13
626.01	1306.15
626.35	1298.69
626.70	1290.99
627.04	1283.38
627.39	1275.56
627.73	1268.18
628.08	1261.25
628.43	1254.08
628.77	1246.78
629.12	1239.29
629.46	1232.08
629.81	1224.70
630.15	1217.34
630.50	1209.98
630.84	1201.93
631.19	1193.98
631.53	1186.51
631.88	1178.97
632.22	1171.39
632.57	1164.12
632.91	1156.77
633.26	1149.32
633.60	1141.96
633.95	1134.86
634.29	1127.80
634.64	1121.11
634.98	1113.79
635.32	1106.68
635.67	1099.96
636.01	1093.26
636.36	1086.54
636.70	1080.03
637.05	1073.47
637.39	1067.14
637.73	1060.68
638.08	1054.76
638.42	1048.83
638.77	1042.36
639.11	1035.80
639.45	1029.42
639.80	1022.73
640.14	1016.29
640.49	1009.88
640.83	1003.62
641.17	997.50
641.52	991.19
641.86	984.70
642.20	978.80
642.55	972.44
642.89	966.04
643.23	959.53
643.58	953.72
643.92	947.59
644.26	941.69
644.61	935.57
644.95	929.57
645.29	923.09
645.64	916.39
645.98	910.15
646.32	904.29
646.66	898.36
647.01	892.63
647.35	886.93
647.69	881.04
648.04	875.46
648.38	869.61
648.72	863.67
649.06	857.75
649.41	851.92
649.75	846.10
650.09	840.12
650.43	834.43
650.78	828.28
651.12	822.39
651.46	816.60
651.80	810.92
652.14	805.53
652.49	800.13
652.83	794.90
653.17	789.22
653.51	783.61
653.85	778.16
654.20	772.54
654.54	766.62
654.88	760.80
655.22	754.91
655.56	749.28
655.90	743.88
656.25	738.69
656.59	733.32
656.93	728.25
657.27	723.13
657.61	717.69
657.95	712.63
658.29	707.58
658.64	702.27
658.98	696.94
659.32	691.44
659.66	686.23
660.00	681.00
660.34	676.09
660.68	671.11
661.02	666.15
661.36	661.45
661.70	656.90
662.05	652.59
662.39	648.37
662.73	643.86
663.07	639.47
663.41	635.01
663.75	630.58
664.09	626.03
664.43	621.65
664.77	617.59
665.11	613.34
665.45	609.11
665.79	605.09
666.13	601.04
666.47	596.95
666.81	592.82
667.15	588.74
667.49	584.78
667.83	580.97
668.17	577.02
668.51	572.94
668.85	568.97
669.19	565.14
669.53	561.28
669.87	557.50
670.21	553.79
670.55	550.15
670.89	546.70
671.23	543.20
671.57	539.66
671.91	536.08
672.25	532.56
672.58	529.11
672.92	525.71
673.26	522.46
673.60	519.27
673.94	516.13
674.28	513.16
674.62	510.28
674.96	507.20
675.30	504.32
675.64	501.37
675.97	498.57
676.31	495.68
676.65	492.75
676.99	490.01
677.33	487.13
677.67	484.27
678.01	481.24
678.34	478.32
678.68	475.47
679.02	472.68
679.36	469.94
679.70	467.26
680.04	464.48
680.37	461.66
680.71	458.93
681.05	456.36
681.39	453.68
681.73	451.00
682.06	448.52
682.40	445.98
682.74	443.45
683.08	440.89
683.42	438.34
683.75	435.86
684.09	433.33
684.43	430.93
684.77	428.51
685.10	426.18
685.44	423.85
685.78	421.61
686.12	419.37
686.45	417.05
686.79	414.75
687.13	412.54
687.46	410.38
687.80	408.22
688.14	405.98
688.48	403.94
688.81	401.74
689.15	399.55
689.49	397.41
689.82	395.33
690.16	393.26
690.50	391.25
690.83	389.30
691.17	387.30
691.51	385.39
691.84	383.56
692.18	381.64
692.52	379.69
692.85	377.69
693.19	375.80
693.52	373.99
693.86	372.17
694.20	370.43
694.53	368.65
694.87	366.81
695.21	365.05
695.54	363.19
695.88	361.45
696.21	359.70
696.55	358.00
696.88	356.35
697.22	354.71
697.56	353.15
697.89	351.54
698.23	349.95
698.56	348.34
698.90	346.73
699.23	345.10
699.57	343.55
699.90	342.03
700.24	340.46
700.58	338.92
700.91	337.40
701.25	335.92
701.58	334.54
701.92	333.17
702.25	331.76
702.59	330.46
702.92	329.11
703.26	327.84
703.59	326.54
703.93	325.36
704.26	324.14
704.60	322.80
704.93	321.49
705.26	320.25
705.60	319.03
705.93	317.90
706.27	316.84
706.60	315.81
706.94	314.76
707.27	313.63
707.61	312.57
707.94	311.59
708.27	310.51
708.61	309.45
708.94	308.41
709.28	307.47
709.61	306.49
709.94	305.51
710.28	304.50
710.61	303.55
710.95	302.45
711.28	301.54
711.61	300.59
711.95	299.67
712.28	298.73
712.61	297.80
712.95	296.85
713.28	295.99
713.61	295.06
713.95	294.17
714.28	293.37
714.61	292.51
714.95	291.65
715.28	290.83
715.61	289.92
715.95	289.10
716.28	288.19
716.61	287.34
716.95	286.51
717.28	285.72
717.61	284.99
717.94	284.27
718.28	283.43
718.61	282.75
718.94	282.05
719.27	281.35
719.61	280.69
719.94	280.03
720.27	279.28
720.60	278.64
720.94	277.99
721.27	277.39
721.60	276.83
721.93	276.21
722.27	275.64
722.60	275.10
722.93	274.53
723.26	273.99
723.59	273.42
723.93	272.89
724.26	272.39
724.59	271.79
724.92	271.27
725.25	270.80
725.59	270.28
725.92	269.78
726.25	269.29
726.58	268.75
726.91	268.23
727.24	267.77
727.57	267.27
727.91	266.77
728.24	266.28
728.57	265.78
728.90	265.32
729.23	264.81
729.56	264.40
729.89	263.93
730.22	263.47
730.55	263.02
730.89	262.62
731.22	262.16
731.55	261.73
731.88	261.27
732.21	260.83
732.54	260.35
732.87	259.94
733.20	259.54
733.53	259.17
733.86	258.83
734.19	258.45
734.52	258.07
734.85	257.77
735.18	257.34
735.51	256.96
735.84	256.57
736.17	256.23
736.50	255.78
736.83	255.56
737.16	255.24
737.49	254.92
737.82	254.52
738.15	254.18
738.48	253.85
738.81	253.58
739.14	253.27
739.47	252.99
739.80	252.65
740.13	252.35
740.46	252.02
740.79	251.67
741.12	251.37
741.45	251.03
741.78	250.70
742.11	250.44
742.44	250.13
742.77	249.88
743.10	249.57
743.43	249.31
743.75	248.91
744.08	248.76
744.41	248.45
744.74	248.20
745.07	247.93
745.40	247.70
745.73	247.45
746.06	247.12
746.39	246.84
746.71	246.57
747.04	246.29
747.37	246.04
747.70	245.79
748.03	245.51
748.36	245.33
748.68	245.07
749.01	244.82
749.34	244.60
749.67	244.36
750.00	244.15
750.33	243.98
750.65	243.72
750.98	243.36
751.31	243.15
751.64	242.95
751.97	242.76
752.29	242.53
752.62	242.23
752.95	242.03
753.28	241.83
753.60	241.64
753.93	241.46
754.26	241.26
754.59	241.04
754.91	240.85
755.24	240.61
755.57	240.39
755.90	240.20
756.22	240.01
756.55	239.80
756.88	239.63
757.20	239.38
757.53	239.22
757.86	239.03
758.19	238.84
758.51	238.69
758.84	238.47
759.17	238.29
759.49	238.15
759.82	238.07
760.15	237.89
760.47	237.74
760.80	237.54
761.13	237.38
761.45	237.20
761.78	237.03
762.11	236.93
762.43	236.82
762.76	236.67
763.08	236.53
763.41	236.43
763.74	236.28
764.06	236.18
764.39	236.05
764.71	235.93
765.04	235.81
765.37	235.64
765.69	235.53
766.02	235.37
766.34	235.23
766.67	235.04
767.00	234.96
767.32	234.89
767.65	234.85
767.97	234.75
768.30	234.68
768.62	234.59
768.95	234.43
769.27	234.31
769.60	234.22
769.92	234.08
770.25	233.95
770.57	233.82
770.90	233.69
771.22	233.59
771.55	233.48
771.87	233.37
772.20	233.27
772.52	233.29
772.85	233.32
773.17	233.23
773.50	233.13
773.82	233.01
774.15	232.90
774.47	232.74
774.80	232.66
775.12	232.58
775.45	232.51
775.77	232.47
776.09	232.37
776.42	232.26
776.74	232.24
777.07	232.15
777.39	232.05
777.72	231.96
778.04	231.90
778.36	231.81
778.69	231.76
779.01	231.72
779.33	231.53
779.66	231.38
779.98	231.30
780.31	231.24
780.63	231.24
780.95	231.17
781.28	231.11
781.60	231.00
781.92	230.94
782.25	230.87
782.57	230.81
782.89	230.76
783.22	230.71
783.54	230.60
783.86	230.54
784.19	230.50
784.51	230.51
784.83	230.42
785.16	230.38
785.48	230.33
785.80	230.26
786.12	230.21
786.45	230.15
786.77	230.15
787.09	230.13
787.42	230.05
787.74	229.99
788.06	229.94
788.38	229.91
788.71	229.85
789.03	229.81
789.35	229.76
789.67	229.71
789.99	229.69
790.32	229.63
790.64	229.60
790.96	229.63
791.28	229.53
791.61	229.50
791.93	229.49
792.25	229.43
792.57	229.43
792.89	229.36
793.21	229.29
793.54	229.22
793.86	229.17
794.18	229.08
794.50	229.03
794.82	229.03
795.14	229.01
795.47	228.94
795.79	228.87
796.11	228.80
796.43	228.75
796.75	228.69
797.07	228.69
797.39	228.64
797.71	228.54
798.04	228.52
798.36	228.48
798.68	228.39
799.00	228.39
799.32	228.33
799.64	228.32
799.96	228.30
800.28	228.27
800.60	228.24
800.92	228.22
801.24	228.19
801.56	228.16
801.89	228.12
802.21	228.12
802.53	228.08
802.85	228.07
803.17	228.09
803.49	228.05
803.81	228.00
804.13	227.98
804.45	227.93
804.77	227.91
805.09	227.84
805.41	227.84
805.73	227.77
806.05	227.74
806.37	227.72
806.69	227.70
807.01	227.70
807.33	227.65
807.65	227.62
807.97	227.65
808.28	227.59
808.60	227.56
808.92	227.54
809.24	227.60
809.56	227.57
809.88	227.51
810.20	227.49
810.52	227.49
810.84	227.45
811.16	227.42
811.48	227.39
811.80	227.48
812.12	227.46
812.43	227.49
812.75	227.48
813.07	227.44
813.39	227.40
813.71	227.34
814.03	227.29
814.35	227.28
814.67	227.20
814.98	227.21
815.30	227.20
815.62	227.18
815.94	227.09
816.26	227.12
816.58	227.05
816.89	227.08
817.21	227.08
817.53	227.10
817.85	227.08
818.17	227.08
818.48	226.99
818.80	227.01
819.12	226.98
819.44	226.94
819.76	226.94
820.07	226.96
820.39	226.93
820.71	226.95
821.03	226.95
821.34	226.94
821.66	226.93
821.98	226.94
822.30	226.93
822.61	226.99
822.93	226.97
823.25	226.97
823.57	226.90
823.88	226.89
824.20	226.85
824.52	226.88
824.83	226.89
825.15	226.89
825.47	226.83
825.79	226.82
826.10	226.80
826.42	226.77
826.74	226.76
827.05	226.79
827.37	226.79
827.69	226.75
828.00	226.77
828.32	226.73
828.64	226.72
828.95	226.75
829.27	226.69
829.58	226.67
829.90	226.71
830.22	226.70
830.53	226.66
830.85	226.61
831.17	226.57
831.48	226.53
831.80	226.55
832.11	226.53
832.43	226.47
832.75	226.49
833.06	226.53
833.38	226.49
833.69	226.47
834.01	226.44
834.32	226.44
834.64	226.39
834.96	226.39
835.27	226.34
835.59	226.31
835.90	226.25
836.22	226.19
836.53	226.15
836.85	226.16
837.16	226.26
837.48	226.29
837.79	226.28
838.11	226.28
838.42	226.25
838.74	226.27
839.05	226.27
839.37	226.22
839.68	226.19
840.00	226.19
840.31	226.19
840.63	226.16
840.94	226.13
841.26	226.12
841.57	226.13
841.88	226.13
842.20	226.12
842.51	226.11
842.83	226.09
843.14	226.17
843.46	226.15
843.77	226.08
844.08	226.06
844.40	226.06
844.71	226.03
845.03	225.99
845.34	225.96
845.65	225.97
845.97	225.97
846.28	225.94
846.60	225.93
846.91	225.90
847.22	225.91
847.54	225.90
847.85	225.96
848.16	225.93
848.48	225.93
848.79	225.96
849.10	225.99
849.42	226.02
849.73	225.91
850.04	225.92
850.36	225.88
850.67	225.88
850.98	225.88
851.30	225.89
851.61	225.89
851.92	225.92
852.23	225.94
852.55	225.94
852.86	225.95
853.17	225.95
853.49	225.96
853.80	225.98
854.11	225.98
854.42	225.94
854.74	225.95
855.05	225.97
855.36	225.94
855.67	225.92
855.99	225.93
856.30	226.04
856.61	226.02
856.92	226.01
857.23	226.04
857.55	226.01
857.86	226.00
858.17	226.06
858.48	226.05
858.79	226.04
859.11	226.08
859.42	226.09
859.73	226.09
860.04	226.10
860.35	226.08
860.66	226.06
860.98	226.08
861.29	226.10
861.60	226.08
861.91	226.10
862.22	226.09
862.53	226.07
862.84	225.97
863.16	226.00
863.47	226.01
863.78	226.00
864.09	226.01
864.40	226.04
864.71	226.01
865.02	225.99
865.33	225.96
865.64	225.94
865.95	225.93
866.27	225.98
866.58	225.96
866.89	225.97
867.20	225.99
867.51	225.93
867.82	225.90
868.13	225.97
868.44	225.91
868.75	225.94
869.06	225.94
869.37	225.95
869.68	225.93
869.99	225.92
870.30	225.92
870.61	225.92
870.92	225.89
871.23	225.88
871.54	225.91
871.85	225.92
872.16	225.95
872.47	225.95
872.78	225.90
873.09	225.92
873.40	225.90
873.71	225.90
874.02	225.93
874.33	225.89
874.64	225.83
874.95	225.88
875.26	225.84
875.56	225.82
875.87	225.79
876.18	225.77
876.49	225.88
876.80	225.84
877.11	225.83
877.42	225.82
877.73	225.84
878.04	225.80
878.35	225.78
878.66	225.76
878.96	225.73
879.27	225.71
879.58	225.70
879.89	225.70
880.20	225.73
880.51	225.72
880.82	225.73
881.12	225.74
881.43	225.68
881.74	225.68
882.05	225.67
882.36	225.70
882.67	225.70
882.97	225.58
883.28	225.58
883.59	225.57
883.90	225.58
884.21	225.56
884.51	225.59
884.82	225.59
885.13	225.57
885.44	225.55
885.74	225.53
886.05	225.50
886.36	225.48
886.67	225.43
886.98	225.48
887.28	225.50
887.59	225.50
887.90	225.51
888.20	225.49
888.51	225.53
888.82	225.51
889.13	225.53
889.43	225.59
889.74	225.56
890.05	225.54
890.35	225.53
890.66	225.50
890.97	225.43
891.28	225.40
891.58	225.41
891.89	225.43
892.20	225.43
892.50	225.44
892.81	225.43
893.12	225.45
893.42	225.36
893.73	225.34
894.04	225.30
894.34	225.30
894.65	225.28
894.95	225.24
895.26	225.22
895.57	225.26
895.87	225.15
896.18	225.19
896.48	225.25
896.79	225.24
897.10	225.25
897.40	225.30
897.71	225.30
898.01	225.30
898.32	225.30
898.63	225.29
898.93	225.28
899.24	225.31
899.54	225.28
899.85	225.27
900.15	225.27
900.46	225.32
900.76	225.33
901.07	225.35
901.38	225.37
901.68	225.41
901.99	225.32
902.29	225.35
902.60	225.36
902.90	225.28
903.21	225.26
903.51	225.28
903.82	225.27
904.12	225.30
904.43	225.32
904.73	225.29
905.03	225.31
905.34	225.39
905.64	225.39
905.95	225.39
906.25	225.44
906.56	225.45
906.86	225.39
907.17	225.36
907.47	225.41
907.77	225.40
908.08	225.37
908.38	225.41
908.69	225.41
908.99	225.42
909.30	225.47
909.60	225.49
909.90	225.49
910.21	225.50
910.51	225.49
910.81	225.49
911.12	225.52
911.42	225.54
911.73	225.48
912.03	225.46
912.33	225.48
912.64	225.45
912.94	225.45
913.24	225.47
913.55	225.45
913.85	225.43
914.15	225.45
914.46	225.45
914.76	225.42
915.06	225.41
915.37	225.40
915.67	225.39
915.97	225.39
916.27	225.37
916.58	225.35
916.88	225.36
917.18	225.32
917.49	225.38
917.79	225.36
918.09	225.36
918.39	225.39
918.70	225.42
919.00	225.42
919.30	225.46
919.60	225.47
919.91	225.52
920.21	225.51
920.51	225.47
920.81	225.48
921.12	225.49
921.42	225.48
921.72	225.50
922.02	225.53
922.32	225.53
922.63	225.53
922.93	225.58
923.23	225.58
923.53	225.58
923.83	225.51
924.13	225.53
924.44	225.51
924.74	225.53
925.04	225.52
925.34	225.55
925.64	225.50
925.94	225.47
926.24	225.53
926.55	225.53
926.85	225.58
927.15	225.57
927.45	225.56
927.75	225.57
928.05	225.53
928.35	225.51
928.65	225.55
928.95	225.56
929.26	225.52
929.56	225.54
929.86	225.54
930.16	225.51
930.46	225.50
930.76	225.47
931.06	225.42
931.36	225.41
931.66	225.41
931.96	225.42
932.26	225.44
932.56	225.38
932.86	225.38
933.16	225.36
933.46	225.37
933.76	225.35
934.06	225.37
934.36	225.40
934.66	225.40
934.96	225.36
935.26	225.32
935.56	225.31
935.86	225.27
936.16	225.27
936.46	225.27
936.76	225.24
937.06	225.27
937.36	225.28
937.66	225.27
937.96	225.25
938.26	225.22
938.56	225.19
938.86	225.18
939.16	225.17
939.46	225.16
939.76	225.15
940.06	225.18
940.35	225.14
940.65	225.09
940.95	225.06
941.25	225.05
941.55	225.07
941.85	225.11
942.15	225.11
942.45	225.15
942.75	225.16
943.04	225.19
943.34	225.22
943.64	225.20
943.94	225.18
944.24	225.17
944.54	225.16
944.84	225.19
945.13	225.16
945.43	225.14
945.73	225.15
946.03	225.14
946.33	225.14
946.62	225.17
946.92	225.19
947.22	225.23
947.52	225.22
947.82	225.24
948.11	225.24
948.41	225.22
948.71	225.18
949.01	225.18
949.31	225.16
949.60	225.13
949.90	225.15
950.20	225.18
950.50	225.17
950.79	225.20
951.09	225.19
951.39	225.22
951.69	225.24
951.98	225.26
952.28	225.27
952.58	225.26
952.87	225.28
953.17	225.30
953.47	225.27
953.76	225.31
954.06	225.29
954.36	225.26
954.66	225.29
954.95	225.32
955.25	225.36
955.55	225.35
955.84	225.36
956.14	225.40
956.44	225.40
956.73	225.41
957.03	225.43
957.32	225.45
957.62	225.47
957.92	225.50
958.21	225.51
958.51	225.59
958.81	225.60
959.10	225.61
959.40	225.61
959.69	225.65
959.99	225.64
960.29	225.65
960.58	225.66
960.88	225.69
961.17	225.68
961.47	225.65
961.76	225.67
962.06	225.69
962.36	225.65
962.65	225.63
962.95	225.65
963.24	225.63
963.54	225.64
963.83	225.64
964.13	225.63
964.42	225.61
964.72	225.54
965.01	225.56
965.31	225.54
965.60	225.56
965.90	225.61
966.19	225.56
966.49	225.54
966.78	225.55
967.08	225.52
967.37	225.53
967.67	225.51
967.96	225.50
968.26	225.49
968.55	225.50
968.85	225.50
969.14	225.48
969.43	225.46
969.73	225.42
970.02	225.39
970.32	225.37
970.61	225.37
970.91	225.31
971.20	225.30
971.49	225.29
971.79	225.27
972.08	225.18
972.38	225.22
972.67	225.20
972.96	225.20
973.26	225.20
973.55	225.24
973.85	225.23
974.14	225.23
974.43	225.21
974.73	225.19
975.02	225.19
975.31	225.20
975.61	225.22
975.90	225.18
976.19	225.21
976.49	225.19
976.78	225.19
977.07	225.19
977.37	225.18
977.66	225.16
977.95	225.13
978.24	225.14
978.54	225.14
978.83	225.16
979.12	225.15
979.42	225.14
979.71	225.08
980.00	225.08
980.29	225.09
980.59	225.09
980.88	225.12
981.17	225.09
981.46	225.08
981.76	225.07
982.05	225.13
982.34	225.11
982.63	225.13
982.93	225.11
983.22	225.18
983.51	225.19
983.80	225.23
984.09	225.24
984.39	225.25
984.68	225.24
984.97	225.26
985.26	225.23
985.55	225.23
985.85	225.22
986.14	225.24
986.43	225.26
986.72	225.26
987.01	225.23
987.30	225.26
987.59	225.24
987.89	225.24
988.18	225.20
988.47	225.19
988.76	225.16
989.05	225.18
989.34	225.14
989.63	225.16
989.92	225.16
990.22	225.17
990.51	225.18
990.80	225.17
991.09	225.17
991.38	225.21
991.67	225.21
991.96	225.20
992.25	225.20
992.54	225.20
992.83	225.18
993.12	225.19
993.41	225.20
993.70	225.27
993.99	225.26
994.28	225.24
994.58	225.26
994.87	225.29
995.16	225.30
995.45	225.28
995.74	225.25
996.03	225.26
996.32	225.26
996.61	225.28
996.90	225.29
997.19	225.30
997.48	225.31
997.77	225.27
998.06	225.32
998.34	225.31
998.63	225.31
998.92	225.32
999.21	225.34
999.50	225.34
999.79	225.29
1000.08	225.32
1000.37	225.37
1000.66	225.37
1000.95	225.39
1001.24	225.39
1001.53	225.41
1001.82	225.39
1002.11	225.33
1002.40	225.36
1002.68	225.36
1002.97	225.44
1003.26	225.41
1003.55	225.40
1003.84	225.45
1004.13	225.45
1004.42	225.46
1004.71	225.45
1004.99	225.46
1005.28	225.46
1005.57	225.44
1005.86	225.44
1006.15	225.44
1006.44	225.43
1006.72	225.43
1007.01	225.40
1007.30	225.40
1007.59	225.41
1007.88	225.40
1008.17	225.40
1008.45	225.36
1008.74	225.32
1009.03	225.24
1009.32	225.23
1009.60	225.23
1009.89	225.20
1010.18	225.17
1010.47	225.15
1010.76	225.13
1011.04	225.11
1011.33	225.18
1011.62	225.18
1011.91	225.18
1012.19	225.16
1012.48	225.15
1012.77	225.14
1013.05	225.20
1013.34	225.18
1013.63	225.13
1013.92	225.13
1014.20	225.11
1014.49	225.09
1014.78	225.07
1015.06	225.04
1015.35	225.04
1015.64	225.00
1015.92	225.01
1016.21	224.99
1016.50	224.97
1016.78	224.97
1017.07	224.95
1017.36	224.87
1017.64	224.83
1017.93	224.83
1018.22	224.83
1018.50	224.81
1018.79	224.80
1019.08	224.73
1019.36	224.73
1019.65	224.74
1019.93	224.79
1020.22	224.80
1020.51	224.87
1020.79	224.89
1021.08	224.97
1021.36	224.59
1021.65	224.97
1021.94	224.67
1022.22	225.25
1022.51	224.63
1022.79	225.66
1023.08	224.58
1023.36	225.92
1023.65	225.00
>>>>>End Processed Spectral Data<<<<<
