SpectraSuite Data File
++++++++++++++++++++++++++++++++++++
Date: Fri Feb 01 17:09:11 EST 2013
User: group
Dark Spectrum Present: No
Reference Spectrum Present: No
Number of Sampled Component Spectra: 1
Spectrometers: USB2E7196
Integration Time (usec): 35000 (USB2E7196)
Spectra Averaged: 100 (USB2E7196)
Boxcar Smoothing: 10 (USB2E7196)
Correct for Electrical Dark: No (USB2E7196)
Strobe/Lamp Enabled: No (USB2E7196)
Correct for Detector Non-linearity: No (USB2E7196)
Correct for Stray Light: No (USB2E7196)
Number of Pixels in Processed Spectrum: 2048
>>>>>Begin Processed Spectral Data<<<<<
339.09	0.00
339.48	213.68
339.86	214.98
340.24	216.45
340.63	217.65
341.01	221.00
341.39	220.55
341.78	222.29
342.16	222.86
342.54	223.60
342.93	211.94
343.31	222.64
343.69	223.18
344.07	223.64
344.46	224.07
344.84	224.45
345.22	224.62
345.60	224.84
345.99	225.00
346.37	225.13
346.75	225.21
347.13	225.29
347.52	225.33
347.90	225.40
348.28	225.40
348.66	225.43
349.05	225.42
349.43	225.43
349.81	225.48
350.19	225.50
350.57	225.59
350.96	225.63
351.34	225.70
351.72	225.76
352.10	225.83
352.48	225.87
352.87	225.91
353.25	226.03
353.63	226.08
354.01	226.17
354.39	226.21
354.77	226.30
355.15	226.38
355.54	226.46
355.92	226.50
356.30	226.57
356.68	226.67
357.06	226.75
357.44	226.80
357.82	226.82
358.20	226.89
358.58	226.90
358.97	226.99
359.35	227.10
359.73	227.20
360.11	227.24
360.49	227.29
360.87	227.32
361.25	227.36
361.63	227.45
362.01	227.49
362.39	227.54
362.77	227.57
363.15	227.56
363.53	227.58
363.91	227.60
364.29	227.61
364.67	227.57
365.05	227.54
365.43	227.58
365.81	227.62
366.19	227.68
366.57	227.73
366.95	227.69
367.33	227.61
367.71	227.57
368.09	227.59
368.47	227.56
368.85	227.56
369.23	227.53
369.61	227.45
369.99	227.44
370.37	227.40
370.75	227.40
371.13	227.40
371.51	227.34
371.89	227.32
372.27	227.29
372.65	227.24
373.03	227.20
373.41	227.16
373.78	227.10
374.16	226.99
374.54	226.91
374.92	226.87
375.30	226.81
375.68	226.75
376.06	226.69
376.44	226.66
376.82	226.59
377.19	226.53
377.57	226.48
377.95	226.39
378.33	226.35
378.71	226.25
379.09	226.17
379.47	226.11
379.84	226.05
380.22	225.98
380.60	225.91
380.98	225.86
381.36	225.79
381.73	225.71
382.11	225.70
382.49	225.65
382.87	225.63
383.25	225.59
383.62	225.61
384.00	225.58
384.38	225.53
384.76	225.53
385.13	225.54
385.51	225.47
385.89	225.41
386.27	225.38
386.64	225.34
387.02	225.24
387.40	225.20
387.78	225.16
388.15	225.10
388.53	225.07
388.91	225.03
389.29	224.98
389.66	224.96
390.04	224.92
390.42	224.91
390.79	224.87
391.17	224.87
391.55	224.75
391.92	224.69
392.30	224.66
392.68	224.62
393.05	224.63
393.43	224.66
393.81	224.63
394.18	224.60
394.56	224.62
394.94	224.69
395.31	224.70
395.69	224.74
396.06	224.80
396.44	224.83
396.82	224.86
397.19	224.93
397.57	224.99
397.95	225.07
398.32	225.07
398.70	225.13
399.07	225.18
399.45	225.25
399.82	225.35
400.20	225.40
400.58	225.47
400.95	225.49
401.33	225.57
401.70	225.74
402.08	225.82
402.45	225.87
402.83	225.96
403.20	226.07
403.58	226.14
403.95	226.24
404.33	226.36
404.71	226.46
405.08	226.62
405.46	226.72
405.83	226.85
406.21	226.98
406.58	227.13
406.96	227.28
407.33	227.47
407.70	227.67
408.08	227.94
408.45	228.16
408.83	228.38
409.20	228.57
409.58	228.73
409.95	228.99
410.33	229.29
410.70	229.54
411.08	229.83
411.45	230.14
411.82	230.46
412.20	230.78
412.57	231.19
412.95	231.48
413.32	231.86
413.69	232.24
414.07	232.70
414.44	233.15
414.82	233.63
415.19	234.18
415.56	234.72
415.94	235.22
416.31	235.84
416.68	236.47
417.06	237.13
417.43	237.84
417.81	238.62
418.18	239.36
418.55	240.18
418.93	241.05
419.30	241.94
419.67	242.89
420.04	243.89
420.42	244.88
420.79	246.08
421.16	247.29
421.54	248.49
421.91	249.70
422.28	250.98
422.66	252.31
423.03	253.60
423.40	254.90
423.77	256.34
424.15	257.77
424.52	259.25
424.89	260.93
425.26	262.48
425.64	263.93
426.01	265.53
426.38	267.22
426.75	268.91
427.13	270.63
427.50	272.37
427.87	274.20
428.24	276.05
428.61	277.79
428.99	279.70
429.36	281.77
429.73	283.80
430.10	285.81
430.47	287.84
430.85	289.94
431.22	292.20
431.59	294.55
431.96	296.75
432.33	299.18
432.70	301.48
433.08	304.27
433.45	306.89
433.82	309.47
434.19	312.33
434.56	315.12
434.93	317.76
435.30	320.40
435.68	323.26
436.05	326.12
436.42	328.92
436.79	331.43
437.16	334.11
437.53	336.91
437.90	339.67
438.27	342.42
438.64	345.22
439.01	347.82
439.38	350.05
439.75	352.23
440.13	354.76
440.50	357.12
440.87	358.97
441.24	360.91
441.61	363.10
441.98	364.57
442.35	366.34
442.72	368.13
443.09	369.95
443.46	371.01
443.83	371.57
444.20	372.04
444.57	372.86
444.94	373.19
445.31	373.56
445.68	373.96
446.05	374.03
446.42	373.63
446.79	373.18
447.16	372.76
447.53	372.48
447.90	371.30
448.27	370.13
448.64	368.53
449.01	367.36
449.37	365.37
449.74	363.52
450.11	361.31
450.48	358.88
450.85	356.34
451.22	354.21
451.59	352.22
451.96	350.28
452.33	347.72
452.70	345.33
453.07	342.51
453.43	339.60
453.80	336.83
454.17	334.19
454.54	331.69
454.91	328.98
455.28	326.31
455.65	323.86
456.02	321.44
456.38	319.31
456.75	316.69
457.12	314.43
457.49	312.20
457.86	310.04
458.23	308.26
458.59	306.23
458.96	304.14
459.33	302.28
459.70	300.46
460.07	298.97
460.43	297.29
460.80	295.66
461.17	294.26
461.54	292.78
461.91	291.38
462.27	289.92
462.64	288.70
463.01	287.39
463.38	286.10
463.74	284.75
464.11	283.58
464.48	282.59
464.85	281.49
465.21	280.63
465.58	279.73
465.95	278.61
466.32	277.74
466.68	276.85
467.05	275.94
467.42	275.07
467.78	274.14
468.15	273.28
468.52	272.66
468.88	271.81
469.25	271.04
469.62	270.44
469.98	269.76
470.35	269.10
470.72	268.47
471.08	267.83
471.45	267.28
471.82	266.79
472.18	266.21
472.55	265.84
472.92	265.34
473.28	264.86
473.65	264.43
474.02	263.98
474.38	263.63
474.75	263.31
475.11	262.97
475.48	262.74
475.85	262.48
476.21	262.27
476.58	262.10
476.94	261.97
477.31	261.81
477.67	261.71
478.04	261.61
478.41	261.58
478.77	261.63
479.14	261.60
479.50	261.60
479.87	261.66
480.23	261.73
480.60	261.78
480.96	261.86
481.33	262.09
481.69	262.30
482.06	262.51
482.42	262.73
482.79	263.00
483.15	263.31
483.52	263.72
483.88	264.06
484.25	264.43
484.61	264.86
484.98	265.32
485.34	265.88
485.71	266.45
486.07	267.04
486.44	267.60
486.80	268.31
487.17	269.03
487.53	269.83
487.90	270.68
488.26	271.64
488.62	272.70
488.99	273.65
489.35	274.69
489.72	275.77
490.08	276.95
490.44	278.17
490.81	279.49
491.17	280.85
491.54	282.35
491.90	283.92
492.26	285.62
492.63	287.36
492.99	289.14
493.36	291.02
493.72	293.05
494.08	295.15
494.45	297.38
494.81	299.72
495.17	302.18
495.54	304.71
495.90	307.36
496.26	310.10
496.63	313.08
496.99	316.19
497.35	319.47
497.72	322.90
498.08	326.41
498.44	330.07
498.80	333.96
499.17	337.97
499.53	342.07
499.89	346.37
500.26	350.83
500.62	355.46
500.98	360.44
501.34	365.49
501.71	370.79
502.07	376.16
502.43	381.75
502.79	387.49
503.16	393.54
503.52	399.79
503.88	406.13
504.24	412.66
504.60	419.48
504.97	426.52
505.33	433.72
505.69	441.36
506.05	449.09
506.41	456.89
506.78	464.97
507.14	473.33
507.50	481.93
507.86	490.83
508.22	499.94
508.59	509.00
508.95	518.46
509.31	528.16
509.67	538.20
510.03	548.32
510.39	558.81
510.75	569.42
511.12	580.15
511.48	591.30
511.84	602.62
512.20	613.91
512.56	625.71
512.92	637.75
513.28	649.97
513.64	662.21
514.00	674.71
514.37	687.40
514.73	700.27
515.09	713.11
515.45	726.20
515.81	739.49
516.17	753.25
516.53	767.22
516.89	781.13
517.25	794.96
517.61	809.17
517.97	823.29
518.33	837.52
518.69	852.14
519.05	866.82
519.41	881.73
519.77	897.01
520.13	912.14
520.49	927.18
520.85	942.20
521.21	957.57
521.57	973.56
521.93	989.00
522.29	1005.04
522.65	1021.01
523.01	1036.78
523.37	1052.53
523.73	1068.38
524.09	1084.04
524.45	1099.93
524.81	1116.18
525.17	1132.52
525.53	1149.11
525.89	1165.55
526.25	1181.91
526.61	1197.94
526.97	1214.26
527.33	1230.37
527.68	1246.54
528.04	1262.69
528.40	1278.80
528.76	1295.55
529.12	1311.62
529.48	1328.11
529.84	1343.66
530.20	1359.80
530.56	1376.45
530.91	1393.27
531.27	1409.57
531.63	1425.67
531.99	1441.93
532.35	1457.52
532.71	1473.14
533.07	1488.95
533.42	1504.47
533.78	1520.10
534.14	1536.01
534.50	1550.98
534.86	1566.48
535.21	1581.33
535.57	1596.85
535.93	1612.09
536.29	1626.46
536.65	1641.20
537.00	1655.49
537.36	1670.58
537.72	1684.82
538.08	1699.01
538.44	1712.58
538.79	1726.22
539.15	1739.46
539.51	1752.73
539.87	1766.75
540.22	1780.14
540.58	1793.48
540.94	1806.41
541.29	1819.12
541.65	1831.50
542.01	1844.31
542.37	1856.29
542.72	1868.39
543.08	1879.95
543.44	1892.04
543.79	1903.06
544.15	1913.75
544.51	1925.10
544.87	1935.59
545.22	1946.16
545.58	1956.06
545.94	1965.68
546.29	1975.22
546.65	1985.03
547.01	1994.24
547.36	2002.85
547.72	2011.07
548.07	2018.94
548.43	2026.86
548.79	2034.51
549.14	2042.00
549.50	2049.12
549.86	2056.60
550.21	2063.81
550.57	2070.90
550.92	2077.31
551.28	2084.16
551.64	2091.19
551.99	2097.64
552.35	2103.77
552.70	2109.79
553.06	2115.77
553.41	2122.02
553.77	2127.90
554.13	2133.89
554.48	2139.94
554.84	2145.54
555.19	2150.81
555.55	2156.04
555.90	2160.66
556.26	2165.69
556.61	2170.35
556.97	2175.03
557.32	2179.28
557.68	2183.51
558.03	2187.68
558.39	2191.48
558.74	2196.20
559.10	2200.18
559.45	2203.97
559.81	2208.43
560.16	2212.33
560.52	2215.74
560.87	2219.25
561.23	2222.18
561.58	2225.12
561.94	2227.72
562.29	2229.88
562.64	2232.89
563.00	2235.31
563.35	2238.99
563.71	2242.15
564.06	2245.28
564.42	2248.16
564.77	2250.85
565.12	2253.23
565.48	2255.42
565.83	2257.36
566.19	2258.81
566.54	2259.66
566.89	2260.95
567.25	2261.61
567.60	2263.12
567.96	2264.93
568.31	2265.91
568.66	2267.26
569.02	2268.05
569.37	2268.60
569.72	2269.87
570.08	2269.98
570.43	2270.44
570.78	2270.08
571.14	2268.86
571.49	2267.92
571.84	2267.78
572.20	2266.90
572.55	2266.08
572.90	2264.58
573.26	2263.60
573.61	2262.06
573.96	2260.73
574.31	2258.15
574.67	2255.32
575.02	2251.94
575.37	2248.77
575.72	2245.35
576.08	2242.01
576.43	2238.86
576.78	2235.54
577.13	2232.42
577.49	2229.47
577.84	2226.07
578.19	2222.46
578.54	2219.13
578.90	2215.25
579.25	2209.81
579.60	2204.97
579.95	2200.07
580.30	2195.29
580.66	2190.22
581.01	2185.60
581.36	2180.86
581.71	2176.83
582.06	2172.90
582.42	2168.62
582.77	2163.59
583.12	2159.25
583.47	2154.91
583.82	2150.33
584.17	2145.23
584.53	2139.96
584.88	2134.64
585.23	2129.15
585.58	2123.92
585.93	2118.60
586.28	2113.89
586.63	2109.14
586.98	2104.34
587.34	2099.95
587.69	2095.30
588.04	2090.31
588.39	2084.85
588.74	2078.43
589.09	2072.55
589.44	2065.96
589.79	2060.09
590.14	2054.54
590.49	2048.15
590.84	2041.87
591.19	2035.96
591.54	2029.71
591.89	2022.71
592.25	2016.23
592.60	2009.36
592.95	2002.05
593.30	1994.94
593.65	1987.47
594.00	1980.54
594.35	1973.42
594.70	1965.57
595.05	1958.74
595.40	1951.71
595.75	1944.35
596.10	1938.58
596.45	1932.01
596.80	1926.06
597.15	1919.73
597.50	1913.04
597.85	1906.69
598.19	1900.33
598.54	1893.45
598.89	1886.97
599.24	1881.21
599.59	1874.65
599.94	1868.45
600.29	1862.28
600.64	1855.72
600.99	1848.45
601.34	1841.85
601.69	1835.08
602.04	1828.49
602.39	1821.14
602.74	1814.41
603.08	1807.83
603.43	1801.15
603.78	1793.91
604.13	1786.75
604.48	1779.69
604.83	1772.71
605.18	1766.01
605.53	1758.22
605.87	1750.25
606.22	1743.22
606.57	1735.38
606.92	1728.00
607.27	1721.09
607.62	1714.32
607.96	1707.30
608.31	1701.04
608.66	1693.61
609.01	1686.32
609.36	1678.83
609.70	1671.04
610.05	1663.10
610.40	1655.60
610.75	1647.41
611.10	1639.92
611.44	1631.38
611.79	1623.44
612.14	1615.08
612.49	1605.96
612.83	1597.58
613.18	1589.53
613.53	1581.40
613.88	1572.99
614.22	1564.96
614.57	1556.30
614.92	1548.40
615.27	1540.89
615.61	1532.53
615.96	1524.48
616.31	1516.79
616.65	1509.42
617.00	1501.79
617.35	1494.16
617.70	1485.85
618.04	1477.39
618.39	1469.16
618.74	1461.77
619.08	1453.44
619.43	1445.81
619.78	1438.89
620.12	1431.73
620.47	1424.29
620.82	1416.28
621.16	1408.83
621.51	1401.19
621.85	1393.65
622.20	1385.15
622.55	1376.78
622.89	1369.02
623.24	1361.45
623.59	1354.06
623.93	1346.54
624.28	1339.37
624.62	1331.96
624.97	1324.86
625.32	1318.15
625.66	1311.10
626.01	1304.05
626.35	1296.76
626.70	1289.08
627.04	1281.41
627.39	1273.64
627.73	1266.35
628.08	1259.37
628.43	1252.27
628.77	1244.93
629.12	1237.37
629.46	1230.26
629.81	1222.87
630.15	1215.66
630.50	1208.42
630.84	1200.35
631.19	1192.49
631.53	1185.00
631.88	1177.40
632.22	1169.86
632.57	1162.56
632.91	1154.97
633.26	1147.62
633.60	1140.10
633.95	1132.94
634.29	1125.90
634.64	1119.29
634.98	1111.91
635.32	1104.80
635.67	1098.10
636.01	1091.56
636.36	1084.88
636.70	1078.26
637.05	1071.81
637.39	1065.33
637.73	1058.77
638.08	1052.79
638.42	1046.81
638.77	1040.50
639.11	1034.07
639.45	1027.66
639.80	1021.07
640.14	1014.95
640.49	1008.46
640.83	1002.30
641.17	996.12
641.52	989.84
641.86	983.33
642.20	977.52
642.55	971.16
642.89	964.73
643.23	958.19
643.58	952.42
643.92	946.32
644.26	940.33
644.61	934.35
644.95	928.38
645.29	921.92
645.64	915.21
645.98	908.92
646.32	902.97
646.66	896.85
647.01	891.07
647.35	885.30
647.69	879.40
648.04	873.86
648.38	868.13
648.72	862.16
649.06	856.16
649.41	850.29
649.75	844.48
650.09	838.61
650.43	832.87
650.78	826.75
651.12	820.84
651.46	815.10
651.80	809.36
652.14	803.88
652.49	798.59
652.83	793.44
653.17	787.81
653.51	782.15
653.85	776.81
654.20	771.24
654.54	765.25
654.88	759.53
655.22	753.67
655.56	748.05
655.90	742.62
656.25	737.47
656.59	732.11
656.93	726.99
657.27	721.90
657.61	716.43
657.95	711.42
658.29	706.37
658.64	701.13
658.98	695.85
659.32	690.49
659.66	685.29
660.00	679.99
660.34	675.07
660.68	670.19
661.02	665.26
661.36	660.58
661.70	656.12
662.05	651.80
662.39	647.54
662.73	643.05
663.07	638.75
663.41	634.35
663.75	629.94
664.09	625.48
664.43	621.07
664.77	617.04
665.11	612.74
665.45	608.56
665.79	604.50
666.13	600.39
666.47	596.26
666.81	592.16
667.15	588.16
667.49	584.22
667.83	580.36
668.17	576.42
668.51	572.40
668.85	568.35
669.19	564.50
669.53	560.65
669.87	556.88
670.21	553.21
670.55	549.59
670.89	546.17
671.23	542.71
671.57	539.23
671.91	535.76
672.25	532.28
672.58	528.84
672.92	525.43
673.26	522.30
673.60	519.20
673.94	516.07
674.28	513.16
674.62	510.27
674.96	507.24
675.30	504.42
675.64	501.51
675.97	498.79
676.31	496.00
676.65	493.09
676.99	490.34
677.33	487.50
677.67	484.66
678.01	481.66
678.34	478.72
678.68	475.82
679.02	473.05
679.36	470.33
679.70	467.67
680.04	464.93
680.37	462.09
680.71	459.26
681.05	456.68
681.39	453.96
681.73	451.24
682.06	448.75
682.40	446.19
682.74	443.63
683.08	441.10
683.42	438.47
683.75	435.96
684.09	433.39
684.43	430.92
684.77	428.49
685.10	426.11
685.44	423.75
685.78	421.47
686.12	419.15
686.45	416.83
686.79	414.53
687.13	412.31
687.46	410.16
687.80	408.04
688.14	405.76
688.48	403.69
688.81	401.52
689.15	399.30
689.49	397.14
689.82	395.06
690.16	392.92
690.50	391.00
690.83	389.10
691.17	387.13
691.51	385.21
691.84	383.34
692.18	381.43
692.52	379.48
692.85	377.49
693.19	375.63
693.52	373.78
693.86	371.98
694.20	370.20
694.53	368.39
694.87	366.53
695.21	364.75
695.54	362.90
695.88	361.15
696.21	359.41
696.55	357.74
696.88	356.04
697.22	354.39
697.56	352.75
697.89	351.06
698.23	349.47
698.56	347.83
698.90	346.27
699.23	344.63
699.57	343.11
699.90	341.59
700.24	340.07
700.58	338.59
700.91	337.06
701.25	335.62
701.58	334.26
701.92	332.94
702.25	331.61
702.59	330.25
702.92	328.87
703.26	327.61
703.59	326.32
703.93	325.17
704.26	323.97
704.60	322.68
704.93	321.40
705.26	320.12
705.60	318.94
705.93	317.76
706.27	316.74
706.60	315.66
706.94	314.59
707.27	313.44
707.61	312.35
707.94	311.29
708.27	310.19
708.61	309.07
708.94	308.06
709.28	307.06
709.61	306.10
709.94	305.16
710.28	304.12
710.61	303.11
710.95	302.03
711.28	301.09
711.61	300.15
711.95	299.29
712.28	298.38
712.61	297.43
712.95	296.50
713.28	295.58
713.61	294.72
713.95	293.80
714.28	292.96
714.61	292.13
714.95	291.30
715.28	290.45
715.61	289.57
715.95	288.70
716.28	287.84
716.61	287.02
716.95	286.20
717.28	285.48
717.61	284.73
717.94	284.02
718.28	283.24
718.61	282.50
718.94	281.75
719.27	281.04
719.61	280.38
719.94	279.72
720.27	279.01
720.60	278.32
720.94	277.71
721.27	277.13
721.60	276.52
721.93	275.93
722.27	275.38
722.60	274.88
722.93	274.32
723.26	273.79
723.59	273.24
723.93	272.74
724.26	272.18
724.59	271.59
724.92	271.03
725.25	270.50
725.59	270.00
725.92	269.52
726.25	269.07
726.58	268.59
726.91	268.12
727.24	267.70
727.57	267.24
727.91	266.73
728.24	266.27
728.57	265.76
728.90	265.31
729.23	264.84
729.56	264.43
729.89	263.93
730.22	263.43
730.55	262.93
730.89	262.46
731.22	262.04
731.55	261.61
731.88	261.22
732.21	260.76
732.54	260.30
732.87	259.85
733.20	259.42
733.53	259.00
733.86	258.61
734.19	258.16
734.52	257.77
734.85	257.46
735.18	257.04
735.51	256.69
735.84	256.31
736.17	255.93
736.50	255.49
736.83	255.25
737.16	254.94
737.49	254.61
737.82	254.23
738.15	253.87
738.48	253.54
738.81	253.17
739.14	252.90
739.47	252.61
739.80	252.27
740.13	251.96
740.46	251.63
740.79	251.30
741.12	250.98
741.45	250.66
741.78	250.31
742.11	249.99
742.44	249.65
742.77	249.32
743.10	249.00
743.43	248.72
743.75	248.32
744.08	248.12
744.41	247.84
744.74	247.61
745.07	247.32
745.40	247.08
745.73	246.84
746.06	246.52
746.39	246.22
746.71	245.99
747.04	245.72
747.37	245.43
747.70	245.15
748.03	244.88
748.36	244.65
748.68	244.41
749.01	244.18
749.34	243.94
749.67	243.77
750.00	243.54
750.33	243.37
750.65	243.19
750.98	242.89
751.31	242.68
751.64	242.47
751.97	242.31
752.29	242.08
752.62	241.83
752.95	241.65
753.28	241.46
753.60	241.26
753.93	241.11
754.26	240.93
754.59	240.73
754.91	240.56
755.24	240.34
755.57	240.14
755.90	239.95
756.22	239.80
756.55	239.56
756.88	239.38
757.20	239.15
757.53	238.94
757.86	238.79
758.19	238.65
758.51	238.49
758.84	238.27
759.17	238.12
759.49	237.98
759.82	237.83
760.15	237.69
760.47	237.53
760.80	237.35
761.13	237.25
761.45	237.10
761.78	236.98
762.11	236.85
762.43	236.75
762.76	236.60
763.08	236.47
763.41	236.34
763.74	236.23
764.06	236.12
764.39	236.01
764.71	235.86
765.04	235.73
765.37	235.59
765.69	235.48
766.02	235.37
766.34	235.29
766.67	235.15
767.00	235.08
767.32	235.05
767.65	235.01
767.97	234.89
768.30	234.79
768.62	234.63
768.95	234.53
769.27	234.40
769.60	234.31
769.92	234.18
770.25	234.08
770.57	233.95
770.90	233.85
771.22	233.74
771.55	233.66
771.87	233.56
772.20	233.51
772.52	233.52
772.85	233.52
773.17	233.39
773.50	233.29
773.82	233.18
774.15	233.02
774.47	232.87
774.80	232.79
775.12	232.72
775.45	232.65
775.77	232.55
776.09	232.50
776.42	232.42
776.74	232.40
777.07	232.32
777.39	232.27
777.72	232.15
778.04	232.05
778.36	231.96
778.69	231.86
779.01	231.76
779.33	231.57
779.66	231.38
779.98	231.30
780.31	231.24
780.63	231.16
780.95	231.12
781.28	231.03
781.60	230.92
781.92	230.84
782.25	230.75
782.57	230.69
782.89	230.59
783.22	230.50
783.54	230.41
783.86	230.34
784.19	230.27
784.51	230.24
784.83	230.18
785.16	230.11
785.48	230.07
785.80	230.01
786.12	229.98
786.45	229.92
786.77	229.86
787.09	229.81
787.42	229.73
787.74	229.69
788.06	229.64
788.38	229.64
788.71	229.57
789.03	229.58
789.35	229.57
789.67	229.52
789.99	229.50
790.32	229.43
790.64	229.43
790.96	229.46
791.28	229.40
791.61	229.38
791.93	229.33
792.25	229.28
792.57	229.34
792.89	229.26
793.21	229.23
793.54	229.19
793.86	229.13
794.18	229.11
794.50	229.04
794.82	229.00
795.14	228.97
795.47	228.96
795.79	228.93
796.11	228.88
796.43	228.86
796.75	228.85
797.07	228.81
797.39	228.76
797.71	228.70
798.04	228.66
798.36	228.60
798.68	228.60
799.00	228.59
799.32	228.47
799.64	228.49
799.96	228.43
800.28	228.44
800.60	228.44
800.92	228.42
801.24	228.39
801.56	228.39
801.89	228.34
802.21	228.32
802.53	228.27
802.85	228.24
803.17	228.27
803.49	228.21
803.81	228.19
804.13	228.17
804.45	228.11
804.77	228.08
805.09	228.08
805.41	228.07
805.73	228.03
806.05	227.99
806.37	227.95
806.69	227.99
807.01	227.94
807.33	227.92
807.65	227.90
807.97	227.92
808.28	227.85
808.60	227.85
808.92	227.81
809.24	227.84
809.56	227.79
809.88	227.74
810.20	227.75
810.52	227.76
810.84	227.75
811.16	227.72
811.48	227.72
811.80	227.73
812.12	227.70
812.43	227.68
812.75	227.67
813.07	227.63
813.39	227.57
813.71	227.55
814.03	227.52
814.35	227.46
814.67	227.43
814.98	227.43
815.30	227.36
815.62	227.34
815.94	227.22
816.26	227.27
816.58	227.21
816.89	227.18
817.21	227.10
817.53	227.08
817.85	227.04
818.17	226.99
818.48	226.92
818.80	226.88
819.12	226.86
819.44	226.83
819.76	226.82
820.07	226.82
820.39	226.80
820.71	226.79
821.03	226.77
821.34	226.70
821.66	226.68
821.98	226.69
822.30	226.64
822.61	226.70
822.93	226.61
823.25	226.59
823.57	226.58
823.88	226.58
824.20	226.54
824.52	226.58
824.83	226.55
825.15	226.55
825.47	226.54
825.79	226.52
826.10	226.49
826.42	226.47
826.74	226.43
827.05	226.42
827.37	226.42
827.69	226.41
828.00	226.41
828.32	226.42
828.64	226.38
828.95	226.45
829.27	226.44
829.58	226.41
829.90	226.42
830.22	226.36
830.53	226.33
830.85	226.34
831.17	226.30
831.48	226.29
831.80	226.25
832.11	226.24
832.43	226.25
832.75	226.25
833.06	226.31
833.38	226.28
833.69	226.27
834.01	226.25
834.32	226.25
834.64	226.25
834.96	226.21
835.27	226.23
835.59	226.19
835.90	226.15
836.22	226.15
836.53	226.16
836.85	226.18
837.16	226.29
837.48	226.30
837.79	226.33
838.11	226.36
838.42	226.34
838.74	226.35
839.05	226.29
839.37	226.27
839.68	226.17
840.00	226.17
840.31	226.18
840.63	226.17
840.94	226.13
841.26	226.13
841.57	226.12
841.88	226.10
842.20	226.07
842.51	226.04
842.83	226.05
843.14	226.10
843.46	226.09
843.77	226.02
844.08	225.99
844.40	225.95
844.71	225.96
845.03	225.98
845.34	225.94
845.65	225.98
845.97	225.99
846.28	226.02
846.60	226.03
846.91	225.99
847.22	226.00
847.54	226.02
847.85	226.02
848.16	226.01
848.48	226.01
848.79	226.04
849.10	226.06
849.42	226.07
849.73	225.97
850.04	225.94
850.36	225.90
850.67	225.92
850.98	225.90
851.30	225.89
851.61	225.85
851.92	225.88
852.23	225.86
852.55	225.88
852.86	225.89
853.17	225.88
853.49	225.91
853.80	225.90
854.11	225.91
854.42	225.94
854.74	225.93
855.05	225.89
855.36	225.82
855.67	225.82
855.99	225.79
856.30	225.94
856.61	225.98
856.92	225.99
857.23	225.94
857.55	225.97
857.86	225.97
858.17	226.03
858.48	225.98
858.79	225.99
859.11	225.98
859.42	225.97
859.73	225.96
860.04	225.96
860.35	225.95
860.66	225.91
860.98	225.88
861.29	225.90
861.60	225.93
861.91	225.98
862.22	226.00
862.53	226.01
862.84	225.86
863.16	225.86
863.47	225.81
863.78	225.85
864.09	225.77
864.40	225.76
864.71	225.75
865.02	225.78
865.33	225.72
865.64	225.68
865.95	225.66
866.27	225.72
866.58	225.65
866.89	225.67
867.20	225.68
867.51	225.66
867.82	225.66
868.13	225.70
868.44	225.65
868.75	225.62
869.06	225.62
869.37	225.65
869.68	225.63
869.99	225.64
870.30	225.63
870.61	225.67
870.92	225.66
871.23	225.65
871.54	225.67
871.85	225.73
872.16	225.73
872.47	225.74
872.78	225.66
873.09	225.72
873.40	225.72
873.71	225.70
874.02	225.70
874.33	225.70
874.64	225.65
874.95	225.69
875.26	225.65
875.56	225.64
875.87	225.60
876.18	225.58
876.49	225.68
876.80	225.67
877.11	225.64
877.42	225.65
877.73	225.65
878.04	225.66
878.35	225.62
878.66	225.63
878.96	225.63
879.27	225.66
879.58	225.64
879.89	225.61
880.20	225.65
880.51	225.69
880.82	225.69
881.12	225.71
881.43	225.68
881.74	225.67
882.05	225.68
882.36	225.67
882.67	225.69
882.97	225.61
883.28	225.58
883.59	225.57
883.90	225.57
884.21	225.60
884.51	225.56
884.82	225.54
885.13	225.57
885.44	225.55
885.74	225.53
886.05	225.55
886.36	225.52
886.67	225.48
886.98	225.50
887.28	225.51
887.59	225.52
887.90	225.53
888.20	225.56
888.51	225.57
888.82	225.57
889.13	225.56
889.43	225.59
889.74	225.62
890.05	225.60
890.35	225.58
890.66	225.54
890.97	225.52
891.28	225.54
891.58	225.56
891.89	225.58
892.20	225.58
892.50	225.56
892.81	225.58
893.12	225.56
893.42	225.46
893.73	225.44
894.04	225.42
894.34	225.42
894.65	225.39
894.95	225.36
895.26	225.37
895.57	225.41
895.87	225.33
896.18	225.32
896.48	225.32
896.79	225.33
897.10	225.32
897.40	225.33
897.71	225.33
898.01	225.28
898.32	225.28
898.63	225.24
898.93	225.23
899.24	225.22
899.54	225.24
899.85	225.28
900.15	225.30
900.46	225.31
900.76	225.30
901.07	225.31
901.38	225.29
901.68	225.27
901.99	225.22
902.29	225.23
902.60	225.17
902.90	225.19
903.21	225.20
903.51	225.18
903.82	225.18
904.12	225.19
904.43	225.21
904.73	225.20
905.03	225.22
905.34	225.32
905.64	225.31
905.95	225.27
906.25	225.25
906.56	225.21
906.86	225.18
907.17	225.22
907.47	225.20
907.77	225.23
908.08	225.22
908.38	225.21
908.69	225.24
908.99	225.28
909.30	225.30
909.60	225.32
909.90	225.34
910.21	225.30
910.51	225.27
910.81	225.25
911.12	225.23
911.42	225.22
911.73	225.16
912.03	225.14
912.33	225.22
912.64	225.23
912.94	225.24
913.24	225.27
913.55	225.23
913.85	225.24
914.15	225.26
914.46	225.29
914.76	225.32
915.06	225.31
915.37	225.27
915.67	225.24
915.97	225.24
916.27	225.23
916.58	225.24
916.88	225.25
917.18	225.29
917.49	225.41
917.79	225.39
918.09	225.40
918.39	225.46
918.70	225.44
919.00	225.42
919.30	225.50
919.60	225.47
919.91	225.49
920.21	225.49
920.51	225.47
920.81	225.44
921.12	225.45
921.42	225.45
921.72	225.50
922.02	225.54
922.32	225.53
922.63	225.49
922.93	225.56
923.23	225.57
923.53	225.53
923.83	225.45
924.13	225.48
924.44	225.46
924.74	225.46
925.04	225.49
925.34	225.49
925.64	225.43
925.94	225.45
926.24	225.46
926.55	225.48
926.85	225.49
927.15	225.51
927.45	225.52
927.75	225.53
928.05	225.50
928.35	225.47
928.65	225.51
928.95	225.55
929.26	225.52
929.56	225.53
929.86	225.52
930.16	225.49
930.46	225.49
930.76	225.48
931.06	225.43
931.36	225.40
931.66	225.41
931.96	225.42
932.26	225.43
932.56	225.40
932.86	225.38
933.16	225.38
933.46	225.33
933.76	225.30
934.06	225.30
934.36	225.34
934.66	225.34
934.96	225.34
935.26	225.33
935.56	225.34
935.86	225.32
936.16	225.31
936.46	225.34
936.76	225.31
937.06	225.31
937.36	225.31
937.66	225.33
937.96	225.29
938.26	225.25
938.56	225.22
938.86	225.23
939.16	225.26
939.46	225.29
939.76	225.30
940.06	225.26
940.35	225.24
940.65	225.18
940.95	225.19
941.25	225.14
941.55	225.10
941.85	225.10
942.15	225.11
942.45	225.15
942.75	225.10
943.04	225.12
943.34	225.12
943.64	225.09
943.94	225.04
944.24	225.07
944.54	225.09
944.84	225.11
945.13	225.07
945.43	225.05
945.73	225.00
946.03	225.03
946.33	225.05
946.62	225.04
946.92	225.04
947.22	225.05
947.52	225.08
947.82	225.12
948.11	225.08
948.41	225.07
948.71	225.02
949.01	225.05
949.31	225.05
949.60	225.05
949.90	225.10
950.20	225.10
950.50	225.08
950.79	225.07
951.09	225.07
951.39	225.10
951.69	225.09
951.98	225.17
952.28	225.19
952.58	225.22
952.87	225.23
953.17	225.25
953.47	225.23
953.76	225.21
954.06	225.18
954.36	225.17
954.66	225.22
954.95	225.24
955.25	225.28
955.55	225.28
955.84	225.26
956.14	225.28
956.44	225.30
956.73	225.32
957.03	225.35
957.32	225.38
957.62	225.37
957.92	225.38
958.21	225.30
958.51	225.40
958.81	225.40
959.10	225.43
959.40	225.46
959.69	225.49
959.99	225.49
960.29	225.52
960.58	225.51
960.88	225.52
961.17	225.52
961.47	225.51
961.76	225.50
962.06	225.56
962.36	225.55
962.65	225.55
962.95	225.56
963.24	225.58
963.54	225.57
963.83	225.57
964.13	225.59
964.42	225.63
964.72	225.56
965.01	225.57
965.31	225.57
965.60	225.54
965.90	225.61
966.19	225.62
966.49	225.66
966.78	225.65
967.08	225.62
967.37	225.62
967.67	225.58
967.96	225.56
968.26	225.57
968.55	225.55
968.85	225.57
969.14	225.55
969.43	225.52
969.73	225.50
970.02	225.49
970.32	225.48
970.61	225.45
970.91	225.39
971.20	225.35
971.49	225.33
971.79	225.33
972.08	225.22
972.38	225.21
972.67	225.16
972.96	225.20
973.26	225.19
973.55	225.21
973.85	225.23
974.14	225.23
974.43	225.20
974.73	225.19
975.02	225.17
975.31	225.19
975.61	225.17
975.90	225.16
976.19	225.17
976.49	225.12
976.78	225.11
977.07	225.11
977.37	225.13
977.66	225.14
977.95	225.13
978.24	225.15
978.54	225.16
978.83	225.18
979.12	225.19
979.42	225.18
979.71	225.19
980.00	225.17
980.29	225.19
980.59	225.18
980.88	225.21
981.17	225.18
981.46	225.17
981.76	225.16
982.05	225.17
982.34	225.18
982.63	225.21
982.93	225.23
983.22	225.25
983.51	225.28
983.80	225.27
984.09	225.33
984.39	225.34
984.68	225.33
984.97	225.33
985.26	225.32
985.55	225.34
985.85	225.30
986.14	225.32
986.43	225.31
986.72	225.28
987.01	225.26
987.30	225.29
987.59	225.28
987.89	225.29
988.18	225.26
988.47	225.27
988.76	225.23
989.05	225.22
989.34	225.23
989.63	225.20
989.92	225.18
990.22	225.12
990.51	225.09
990.80	225.09
991.09	225.07
991.38	225.06
991.67	225.03
991.96	225.02
992.25	225.02
992.54	225.04
992.83	225.06
993.12	225.05
993.41	225.07
993.70	225.10
993.99	225.08
994.28	225.11
994.58	225.10
994.87	225.11
995.16	225.12
995.45	225.09
995.74	225.08
996.03	225.10
996.32	225.12
996.61	225.14
996.90	225.11
997.19	225.12
997.48	225.13
997.77	225.13
998.06	225.12
998.34	225.09
998.63	225.08
998.92	225.04
999.21	225.07
999.50	225.04
999.79	225.01
1000.08	225.03
1000.37	225.05
1000.66	225.05
1000.95	225.10
1001.24	225.11
1001.53	225.16
1001.82	225.14
1002.11	225.15
1002.40	225.14
1002.68	225.14
1002.97	225.24
1003.26	225.24
1003.55	225.20
1003.84	225.23
1004.13	225.26
1004.42	225.31
1004.71	225.30
1004.99	225.32
1005.28	225.35
1005.57	225.35
1005.86	225.34
1006.15	225.32
1006.44	225.31
1006.72	225.32
1007.01	225.28
1007.30	225.26
1007.59	225.23
1007.88	225.23
1008.17	225.19
1008.45	225.15
1008.74	225.12
1009.03	225.06
1009.32	225.03
1009.60	225.04
1009.89	225.02
1010.18	224.98
1010.47	224.91
1010.76	224.89
1011.04	224.86
1011.33	224.83
1011.62	224.86
1011.91	224.87
1012.19	224.87
1012.48	224.83
1012.77	224.81
1013.05	224.87
1013.34	224.87
1013.63	224.86
1013.92	224.85
1014.20	224.86
1014.49	224.85
1014.78	224.89
1015.06	224.85
1015.35	224.88
1015.64	224.92
1015.92	224.93
1016.21	224.95
1016.50	224.99
1016.78	225.03
1017.07	225.04
1017.36	225.05
1017.64	225.01
1017.93	225.01
1018.22	224.99
1018.50	224.98
1018.79	225.00
1019.08	224.96
1019.36	224.93
1019.65	224.92
1019.93	224.97
1020.22	224.98
1020.51	225.03
1020.79	225.01
1021.08	224.56
1021.36	224.34
1021.65	225.14
1021.94	225.18
1022.22	224.61
1022.51	224.75
1022.79	225.50
1023.08	225.00
1023.36	225.76
1023.65	224.86
>>>>>End Processed Spectral Data<<<<<
