SpectraSuite Data File
++++++++++++++++++++++++++++++++++++
Date: Fri Feb 01 16:21:14 EST 2013
User: group
Dark Spectrum Present: No
Reference Spectrum Present: No
Number of Sampled Component Spectra: 1
Spectrometers: USB2E7196
Integration Time (usec): 35000 (USB2E7196)
Spectra Averaged: 100 (USB2E7196)
Boxcar Smoothing: 10 (USB2E7196)
Correct for Electrical Dark: No (USB2E7196)
Strobe/Lamp Enabled: No (USB2E7196)
Correct for Detector Non-linearity: No (USB2E7196)
Correct for Stray Light: No (USB2E7196)
Number of Pixels in Processed Spectrum: 2048
>>>>>Begin Processed Spectral Data<<<<<
339.09	0.00
339.48	214.14
339.86	215.24
340.24	217.62
340.63	219.11
341.01	221.83
341.39	221.37
341.78	222.46
342.16	223.82
342.54	224.04
342.93	212.79
343.31	223.54
343.69	224.08
344.07	224.56
344.46	224.97
344.84	225.34
345.22	225.58
345.60	225.82
345.99	226.00
346.37	226.14
346.75	226.25
347.13	226.32
347.52	226.34
347.90	226.41
348.28	226.45
348.66	226.49
349.05	226.45
349.43	226.46
349.81	226.47
350.19	226.52
350.57	226.63
350.96	226.69
351.34	226.78
351.72	226.84
352.10	226.93
352.48	226.99
352.87	227.01
353.25	227.04
353.63	227.08
354.01	227.14
354.39	227.18
354.77	227.28
355.15	227.32
355.54	227.37
355.92	227.39
356.30	227.46
356.68	227.57
357.06	227.63
357.44	227.68
357.82	227.74
358.20	227.78
358.58	227.78
358.97	227.85
359.35	227.90
359.73	227.98
360.11	228.05
360.49	228.08
360.87	228.12
361.25	228.16
361.63	228.23
362.01	228.26
362.39	228.30
362.77	228.30
363.15	228.35
363.53	228.34
363.91	228.36
364.29	228.35
364.67	228.27
365.05	228.29
365.43	228.32
365.81	228.34
366.19	228.40
366.57	228.44
366.95	228.38
367.33	228.35
367.71	228.32
368.09	228.30
368.47	228.27
368.85	228.24
369.23	228.25
369.61	228.18
369.99	228.18
370.37	228.16
370.75	228.14
371.13	228.06
371.51	228.03
371.89	228.00
372.27	227.97
372.65	227.93
373.03	227.89
373.41	227.82
373.78	227.75
374.16	227.64
374.54	227.55
374.92	227.51
375.30	227.43
375.68	227.38
376.06	227.32
376.44	227.26
376.82	227.23
377.19	227.17
377.57	227.11
377.95	227.05
378.33	226.96
378.71	226.85
379.09	226.84
379.47	226.79
379.84	226.72
380.22	226.66
380.60	226.57
380.98	226.50
381.36	226.48
381.73	226.42
382.11	226.39
382.49	226.34
382.87	226.27
383.25	226.21
383.62	226.26
384.00	226.23
384.38	226.19
384.76	226.17
385.13	226.16
385.51	226.10
385.89	226.03
386.27	226.01
386.64	226.01
387.02	225.97
387.40	225.90
387.78	225.88
388.15	225.85
388.53	225.84
388.91	225.81
389.29	225.75
389.66	225.77
390.04	225.73
390.42	225.74
390.79	225.77
391.17	225.78
391.55	225.68
391.92	225.67
392.30	225.68
392.68	225.64
393.05	225.62
393.43	225.66
393.81	225.68
394.18	225.71
394.56	225.71
394.94	225.76
395.31	225.77
395.69	225.83
396.06	225.91
396.44	225.97
396.82	225.98
397.19	226.08
397.57	226.10
397.95	226.16
398.32	226.17
398.70	226.21
399.07	226.28
399.45	226.33
399.82	226.33
400.20	226.40
400.58	226.46
400.95	226.47
401.33	226.52
401.70	226.64
402.08	226.69
402.45	226.77
402.83	226.88
403.20	226.98
403.58	227.04
403.95	227.11
404.33	227.22
404.71	227.38
405.08	227.53
405.46	227.66
405.83	227.78
406.21	227.92
406.58	228.06
406.96	228.20
407.33	228.35
407.70	228.60
408.08	228.83
408.45	229.05
408.83	229.31
409.20	229.55
409.58	229.73
409.95	230.01
410.33	230.28
410.70	230.48
411.08	230.76
411.45	231.06
411.82	231.36
412.20	231.67
412.57	232.03
412.95	232.31
413.32	232.71
413.69	233.13
414.07	233.59
414.44	234.03
414.82	234.50
415.19	235.06
415.56	235.59
415.94	236.12
416.31	236.74
416.68	237.33
417.06	238.03
417.43	238.70
417.81	239.45
418.18	240.26
418.55	241.12
418.93	242.02
419.30	242.91
419.67	243.83
420.04	244.79
420.42	245.80
420.79	246.98
421.16	248.13
421.54	249.32
421.91	250.54
422.28	251.84
422.66	253.19
423.03	254.47
423.40	255.83
423.77	257.26
424.15	258.70
424.52	260.22
424.89	261.86
425.26	263.44
425.64	264.86
426.01	266.43
426.38	268.11
426.75	269.77
427.13	271.51
427.50	273.33
427.87	275.20
428.24	277.08
428.61	278.84
428.99	280.79
429.36	282.88
429.73	284.92
430.10	286.91
430.47	288.97
430.85	291.09
431.22	293.32
431.59	295.70
431.96	297.94
432.33	300.45
432.70	302.80
433.08	305.60
433.45	308.27
433.82	310.92
434.19	313.78
434.56	316.59
434.93	319.22
435.30	321.85
435.68	324.72
436.05	327.53
436.42	330.38
436.79	332.87
437.16	335.60
437.53	338.45
437.90	341.31
438.27	344.06
438.64	346.91
439.01	349.51
439.38	351.72
439.75	353.87
440.13	356.32
440.50	358.64
440.87	360.47
441.24	362.40
441.61	364.52
441.98	366.04
442.35	367.86
442.72	369.76
443.09	371.61
443.46	372.64
443.83	373.23
444.20	373.70
444.57	374.53
444.94	374.77
445.31	375.10
445.68	375.39
446.05	375.47
446.42	375.05
446.79	374.61
447.16	374.19
447.53	373.86
447.90	372.74
448.27	371.55
448.64	369.94
449.01	368.81
449.37	366.82
449.74	364.85
450.11	362.55
450.48	360.05
450.85	357.46
451.22	355.31
451.59	353.30
451.96	351.32
452.33	348.72
452.70	346.33
453.07	343.50
453.43	340.57
453.80	337.78
454.17	335.10
454.54	332.55
454.91	329.81
455.28	327.15
455.65	324.61
456.02	322.18
456.38	320.04
456.75	317.38
457.12	315.14
457.49	312.95
457.86	310.75
458.23	308.93
458.59	306.86
458.96	304.79
459.33	302.93
459.70	301.10
460.07	299.59
460.43	297.91
460.80	296.31
461.17	294.87
461.54	293.36
461.91	291.98
462.27	290.52
462.64	289.29
463.01	287.90
463.38	286.65
463.74	285.31
464.11	284.19
464.48	283.17
464.85	282.06
465.21	281.19
465.58	280.31
465.95	279.17
466.32	278.29
466.68	277.39
467.05	276.49
467.42	275.59
467.78	274.70
468.15	273.84
468.52	273.20
468.88	272.35
469.25	271.64
469.62	271.01
469.98	270.38
470.35	269.77
470.72	269.21
471.08	268.54
471.45	268.01
471.82	267.46
472.18	266.90
472.55	266.47
472.92	265.97
473.28	265.55
473.65	265.15
474.02	264.72
474.38	264.37
474.75	264.06
475.11	263.73
475.48	263.46
475.85	263.24
476.21	263.01
476.58	262.88
476.94	262.74
477.31	262.60
477.67	262.45
478.04	262.33
478.41	262.27
478.77	262.35
479.14	262.29
479.50	262.34
479.87	262.39
480.23	262.50
480.60	262.57
480.96	262.67
481.33	262.91
481.69	263.12
482.06	263.32
482.42	263.53
482.79	263.80
483.15	264.12
483.52	264.49
483.88	264.86
484.25	265.28
484.61	265.67
484.98	266.08
485.34	266.62
485.71	267.24
486.07	267.88
486.44	268.45
486.80	269.15
487.17	269.85
487.53	270.69
487.90	271.53
488.26	272.49
488.62	273.46
488.99	274.43
489.35	275.43
489.72	276.59
490.08	277.74
490.44	278.98
490.81	280.33
491.17	281.69
491.54	283.16
491.90	284.68
492.26	286.37
492.63	288.11
492.99	289.90
493.36	291.79
493.72	293.81
494.08	295.92
494.45	298.18
494.81	300.54
495.17	302.96
495.54	305.54
495.90	308.19
496.26	310.99
496.63	313.91
496.99	317.08
497.35	320.27
497.72	323.79
498.08	327.27
498.44	330.93
498.80	334.86
499.17	338.88
499.53	343.06
499.89	347.40
500.26	351.92
500.62	356.60
500.98	361.57
501.34	366.64
501.71	371.94
502.07	377.44
502.43	383.03
502.79	388.85
503.16	394.91
503.52	401.23
503.88	407.61
504.24	414.28
504.60	421.13
504.97	428.28
505.33	435.55
505.69	443.32
506.05	451.10
506.41	459.01
506.78	467.25
507.14	475.64
507.50	484.35
507.86	493.41
508.22	502.61
508.59	511.80
508.95	521.41
509.31	531.31
509.67	541.34
510.03	551.65
510.39	562.25
510.75	573.05
511.12	584.04
511.48	595.43
511.84	606.90
512.20	618.45
512.56	630.38
512.92	642.57
513.28	654.91
513.64	667.41
514.00	680.09
514.37	692.93
514.73	706.00
515.09	718.98
515.45	732.22
515.81	745.78
516.17	759.79
516.53	773.89
516.89	788.02
517.25	802.25
517.61	816.72
517.97	831.11
518.33	845.50
518.69	860.14
519.05	874.93
519.41	890.01
519.77	905.44
520.13	920.94
520.49	936.34
520.85	951.79
521.21	967.48
521.57	983.77
521.93	999.54
522.29	1015.93
522.65	1032.16
523.01	1048.30
523.37	1064.30
523.73	1080.45
524.09	1096.41
524.45	1112.68
524.81	1129.21
525.17	1145.86
525.53	1162.77
525.89	1179.60
526.25	1196.52
526.61	1213.02
526.97	1229.86
527.33	1246.39
527.68	1262.96
528.04	1279.35
528.40	1295.80
528.76	1312.78
529.12	1329.28
529.48	1346.09
529.84	1362.06
530.20	1378.72
530.56	1395.68
530.91	1413.09
531.27	1429.69
531.63	1446.21
531.99	1462.71
532.35	1478.63
532.71	1494.50
533.07	1510.61
533.42	1526.44
533.78	1542.25
534.14	1558.44
534.50	1573.64
534.86	1589.39
535.21	1604.40
535.57	1620.17
535.93	1635.65
536.29	1650.36
536.65	1665.37
537.00	1679.99
537.36	1695.14
537.72	1709.50
538.08	1723.91
538.44	1737.57
538.79	1751.46
539.15	1764.89
539.51	1778.48
539.87	1792.70
540.22	1806.41
540.58	1820.19
540.94	1833.56
541.29	1846.41
541.65	1858.99
542.01	1872.05
542.37	1884.32
542.72	1896.75
543.08	1908.54
543.44	1920.83
543.79	1931.91
544.15	1942.79
544.51	1954.26
544.87	1965.26
545.22	1976.22
545.58	1986.43
545.94	1996.11
546.29	2005.89
546.65	2015.88
547.01	2025.09
547.36	2033.80
547.72	2042.23
548.07	2049.97
548.43	2057.96
548.79	2066.02
549.14	2073.53
549.50	2080.84
549.86	2088.50
550.21	2095.71
550.57	2102.80
550.92	2109.30
551.28	2116.54
551.64	2123.61
551.99	2130.27
552.35	2136.28
552.70	2142.27
553.06	2148.12
553.41	2154.57
553.77	2160.61
554.13	2166.74
554.48	2172.93
554.84	2178.40
555.19	2183.62
555.55	2188.73
555.90	2193.23
556.26	2197.94
556.61	2202.68
556.97	2206.93
557.32	2210.97
557.68	2215.28
558.03	2219.60
558.39	2223.31
558.74	2227.92
559.10	2231.75
559.45	2235.34
559.81	2239.70
560.16	2243.58
560.52	2246.86
560.87	2250.14
561.23	2252.81
561.58	2255.64
561.94	2258.11
562.29	2260.49
562.64	2263.09
563.00	2265.68
563.35	2269.14
563.71	2272.31
564.06	2275.56
564.42	2278.56
564.77	2281.11
565.12	2283.29
565.48	2285.17
565.83	2287.23
566.19	2288.31
566.54	2289.08
566.89	2290.27
567.25	2290.89
567.60	2292.16
567.96	2293.91
568.31	2294.84
568.66	2296.02
569.02	2296.65
569.37	2297.10
569.72	2298.02
570.08	2298.13
570.43	2298.28
570.78	2297.84
571.14	2296.42
571.49	2295.06
571.84	2294.53
572.20	2293.48
572.55	2292.37
572.90	2290.80
573.26	2289.36
573.61	2287.78
573.96	2286.15
574.31	2283.32
574.67	2280.44
575.02	2276.82
575.37	2273.45
575.72	2269.66
576.08	2266.30
576.43	2262.99
576.78	2259.33
577.13	2256.26
577.49	2253.34
577.84	2249.82
578.19	2246.16
578.54	2242.67
578.90	2238.58
579.25	2233.21
579.60	2228.33
579.95	2223.39
580.30	2218.52
580.66	2213.39
581.01	2208.58
581.36	2203.79
581.71	2199.54
582.06	2195.09
582.42	2190.63
582.77	2185.40
583.12	2180.98
583.47	2176.32
583.82	2171.43
584.17	2166.27
584.53	2160.75
584.88	2155.27
585.23	2149.57
585.58	2144.16
585.93	2138.75
586.28	2133.92
586.63	2128.95
586.98	2123.96
587.34	2119.29
587.69	2114.51
588.04	2109.21
588.39	2103.69
588.74	2097.14
589.09	2091.08
589.44	2084.34
589.79	2078.51
590.14	2073.00
590.49	2066.30
590.84	2059.88
591.19	2053.89
591.54	2047.28
591.89	2039.95
592.25	2033.20
592.60	2026.06
592.95	2018.49
593.30	2011.12
593.65	2003.56
594.00	1996.66
594.35	1989.44
594.70	1981.59
595.05	1974.38
595.40	1967.19
595.75	1959.67
596.10	1953.61
596.45	1946.93
596.80	1940.78
597.15	1934.28
597.50	1927.14
597.85	1920.79
598.19	1914.15
598.54	1906.96
598.89	1900.54
599.24	1894.61
599.59	1887.82
599.94	1881.73
600.29	1875.41
600.64	1868.92
600.99	1861.57
601.34	1854.74
601.69	1847.89
602.04	1841.00
602.39	1833.60
602.74	1826.79
603.08	1819.94
603.43	1813.22
603.78	1805.86
604.13	1798.67
604.48	1791.18
604.83	1784.37
605.18	1777.52
605.53	1769.59
605.87	1761.65
606.22	1754.35
606.57	1746.47
606.92	1739.27
607.27	1732.04
607.62	1725.13
607.96	1717.81
608.31	1711.24
608.66	1703.46
609.01	1695.81
609.36	1688.22
609.70	1680.25
610.05	1672.30
610.40	1664.71
610.75	1656.33
611.10	1648.78
611.44	1640.41
611.79	1632.52
612.14	1623.95
612.49	1614.75
612.83	1606.41
613.18	1598.30
613.53	1590.32
613.88	1581.76
614.22	1573.48
614.57	1564.90
614.92	1556.80
615.27	1549.28
615.61	1540.93
615.96	1533.04
616.31	1525.36
616.65	1518.03
617.00	1510.49
617.35	1502.77
617.70	1494.41
618.04	1485.94
618.39	1477.65
618.74	1469.97
619.08	1461.75
619.43	1454.09
619.78	1447.19
620.12	1440.00
620.47	1432.49
620.82	1424.15
621.16	1416.74
621.51	1408.97
621.85	1401.30
622.20	1392.76
622.55	1384.41
622.89	1376.53
623.24	1368.97
623.59	1361.63
623.93	1354.07
624.28	1346.82
624.62	1339.20
624.97	1332.03
625.32	1325.27
625.66	1318.27
626.01	1311.04
626.35	1303.48
626.70	1295.71
627.04	1287.86
627.39	1280.14
627.73	1272.78
628.08	1265.96
628.43	1258.57
628.77	1251.31
629.12	1243.76
629.46	1236.63
629.81	1229.12
630.15	1221.89
630.50	1214.37
630.84	1206.15
631.19	1198.20
631.53	1190.71
631.88	1183.22
632.22	1175.59
632.57	1168.21
632.91	1160.58
633.26	1153.14
633.60	1145.76
633.95	1138.63
634.29	1131.66
634.64	1124.92
634.98	1117.58
635.32	1110.38
635.67	1103.94
636.01	1097.28
636.36	1090.53
636.70	1083.97
637.05	1077.53
637.39	1071.05
637.73	1064.57
638.08	1058.65
638.42	1052.70
638.77	1046.20
639.11	1039.58
639.45	1033.20
639.80	1026.59
640.14	1020.18
640.49	1013.68
640.83	1007.42
641.17	1001.22
641.52	994.85
641.86	988.38
642.20	982.39
642.55	976.07
642.89	969.52
643.23	962.92
643.58	957.12
643.92	950.96
644.26	944.79
644.61	938.74
644.95	932.66
645.29	926.09
645.64	919.31
645.98	913.02
646.32	907.11
646.66	901.10
647.01	895.27
647.35	889.58
647.69	883.76
648.04	878.25
648.38	872.42
648.72	866.48
649.06	860.42
649.41	854.58
649.75	848.61
650.09	842.69
650.43	836.94
650.78	830.78
651.12	824.85
651.46	819.13
651.80	813.28
652.14	807.89
652.49	802.47
652.83	797.30
653.17	791.55
653.51	785.86
653.85	780.48
654.20	774.90
654.54	768.95
654.88	763.19
655.22	757.21
655.56	751.51
655.90	746.00
656.25	740.75
656.59	735.39
656.93	730.30
657.27	725.10
657.61	719.64
657.95	714.53
658.29	709.42
658.64	704.14
658.98	698.89
659.32	693.49
659.66	688.34
660.00	683.05
660.34	678.06
660.68	673.16
661.02	668.06
661.36	663.28
661.70	658.76
662.05	654.40
662.39	650.11
662.73	645.65
663.07	641.26
663.41	636.80
663.75	632.24
664.09	627.63
664.43	623.22
664.77	619.17
665.11	614.91
665.45	610.77
665.79	606.67
666.13	602.53
666.47	598.39
666.81	594.22
667.15	590.06
667.49	586.21
667.83	582.38
668.17	578.44
668.51	574.44
668.85	570.34
669.19	566.52
669.53	562.67
669.87	558.80
670.21	555.09
670.55	551.49
670.89	548.11
671.23	544.74
671.57	541.20
671.91	537.60
672.25	534.10
672.58	530.53
672.92	527.12
673.26	523.91
673.60	520.73
673.94	517.56
674.28	514.63
674.62	511.67
674.96	508.55
675.30	505.64
675.64	502.67
675.97	499.87
676.31	496.99
676.65	494.06
676.99	491.37
677.33	488.50
677.67	485.65
678.01	482.60
678.34	479.61
678.68	476.73
679.02	473.90
679.36	471.11
679.70	468.44
680.04	465.71
680.37	462.81
680.71	460.04
681.05	457.44
681.39	454.72
681.73	452.03
682.06	449.52
682.40	446.93
682.74	444.40
683.08	441.90
683.42	439.29
683.75	436.80
684.09	434.17
684.43	431.63
684.77	429.13
685.10	426.78
685.44	424.47
685.78	422.17
686.12	419.94
686.45	417.64
686.79	415.32
687.13	413.12
687.46	411.01
687.80	408.87
688.14	406.65
688.48	404.62
688.81	402.43
689.15	400.20
689.49	398.07
689.82	396.00
690.16	393.94
690.50	391.98
690.83	389.96
691.17	388.06
691.51	386.23
691.84	384.39
692.18	382.47
692.52	380.46
692.85	378.50
693.19	376.57
693.52	374.74
693.86	372.87
694.20	371.08
694.53	369.25
694.87	367.41
695.21	365.60
695.54	363.77
695.88	362.05
696.21	360.33
696.55	358.66
696.88	356.92
697.22	355.16
697.56	353.58
697.89	351.94
698.23	350.31
698.56	348.69
698.90	347.08
699.23	345.43
699.57	343.93
699.90	342.45
700.24	340.92
700.58	339.41
700.91	337.92
701.25	336.44
701.58	335.06
701.92	333.67
702.25	332.27
702.59	330.84
702.92	329.49
703.26	328.21
703.59	326.89
703.93	325.75
704.26	324.54
704.60	323.18
704.93	321.89
705.26	320.62
705.60	319.41
705.93	318.25
706.27	317.21
706.60	316.13
706.94	315.02
707.27	313.91
707.61	312.82
707.94	311.81
708.27	310.72
708.61	309.66
708.94	308.64
709.28	307.67
709.61	306.75
709.94	305.78
710.28	304.75
710.61	303.80
710.95	302.71
711.28	301.84
711.61	300.87
711.95	300.01
712.28	299.06
712.61	298.07
712.95	297.16
713.28	296.25
713.61	295.34
713.95	294.48
714.28	293.64
714.61	292.81
714.95	292.01
715.28	291.15
715.61	290.26
715.95	289.42
716.28	288.57
716.61	287.74
716.95	286.95
717.28	286.20
717.61	285.43
717.94	284.69
718.28	283.86
718.61	283.17
718.94	282.47
719.27	281.83
719.61	281.22
719.94	280.56
720.27	279.87
720.60	279.18
720.94	278.52
721.27	277.93
721.60	277.33
721.93	276.70
722.27	276.15
722.60	275.60
722.93	275.04
723.26	274.52
723.59	273.93
723.93	273.34
724.26	272.80
724.59	272.24
724.92	271.76
725.25	271.26
725.59	270.74
725.92	270.25
726.25	269.70
726.58	269.23
726.91	268.74
727.24	268.30
727.57	267.85
727.91	267.38
728.24	266.90
728.57	266.41
728.90	265.97
729.23	265.50
729.56	265.07
729.89	264.62
730.22	264.11
730.55	263.70
730.89	263.27
731.22	262.83
731.55	262.40
731.88	261.95
732.21	261.56
732.54	261.13
732.87	260.70
733.20	260.33
733.53	259.94
733.86	259.57
734.19	259.19
734.52	258.82
734.85	258.51
735.18	258.09
735.51	257.75
735.84	257.37
736.17	257.00
736.50	256.59
736.83	256.35
737.16	256.02
737.49	255.66
737.82	255.32
738.15	255.01
738.48	254.69
738.81	254.34
739.14	253.99
739.47	253.64
739.80	253.32
740.13	252.99
740.46	252.62
740.79	252.23
741.12	251.91
741.45	251.58
741.78	251.18
742.11	250.89
742.44	250.54
742.77	250.26
743.10	249.97
743.43	249.67
743.75	249.28
744.08	249.14
744.41	248.86
744.74	248.61
745.07	248.29
745.40	248.03
745.73	247.76
746.06	247.50
746.39	247.27
746.71	247.02
747.04	246.76
747.37	246.50
747.70	246.25
748.03	246.00
748.36	245.78
748.68	245.57
749.01	245.35
749.34	245.16
749.67	244.91
750.00	244.67
750.33	244.53
750.65	244.35
750.98	244.00
751.31	243.77
751.64	243.55
751.97	243.38
752.29	243.14
752.62	242.92
752.95	242.72
753.28	242.52
753.60	242.28
753.93	242.12
754.26	241.95
754.59	241.72
754.91	241.51
755.24	241.36
755.57	241.16
755.90	240.95
756.22	240.75
756.55	240.58
756.88	240.40
757.20	240.17
757.53	239.92
757.86	239.75
758.19	239.59
758.51	239.40
758.84	239.21
759.17	239.06
759.49	238.94
759.82	238.79
760.15	238.62
760.47	238.46
760.80	238.29
761.13	238.12
761.45	237.99
761.78	237.85
762.11	237.65
762.43	237.52
762.76	237.41
763.08	237.26
763.41	237.14
763.74	236.99
764.06	236.85
764.39	236.75
764.71	236.60
765.04	236.49
765.37	236.39
765.69	236.24
766.02	236.09
766.34	235.96
766.67	235.79
767.00	235.69
767.32	235.63
767.65	235.58
767.97	235.48
768.30	235.37
768.62	235.27
768.95	235.18
769.27	235.08
769.60	234.98
769.92	234.87
770.25	234.75
770.57	234.69
770.90	234.61
771.22	234.51
771.55	234.42
771.87	234.33
772.20	234.22
772.52	234.24
772.85	234.28
773.17	234.17
773.50	234.10
773.82	234.01
774.15	233.87
774.47	233.74
774.80	233.66
775.12	233.57
775.45	233.48
775.77	233.40
776.09	233.32
776.42	233.21
776.74	233.17
777.07	233.06
777.39	233.00
777.72	232.89
778.04	232.84
778.36	232.74
778.69	232.67
779.01	232.62
779.33	232.43
779.66	232.25
779.98	232.20
780.31	232.16
780.63	232.13
780.95	232.10
781.28	232.05
781.60	231.97
781.92	231.92
782.25	231.87
782.57	231.79
782.89	231.74
783.22	231.67
783.54	231.60
783.86	231.57
784.19	231.49
784.51	231.48
784.83	231.39
785.16	231.37
785.48	231.29
785.80	231.22
786.12	231.24
786.45	231.21
786.77	231.13
787.09	231.07
787.42	230.99
787.74	230.94
788.06	230.88
788.38	230.84
788.71	230.82
789.03	230.77
789.35	230.71
789.67	230.66
789.99	230.59
790.32	230.54
790.64	230.49
790.96	230.50
791.28	230.43
791.61	230.40
791.93	230.35
792.25	230.32
792.57	230.38
792.89	230.27
793.21	230.20
793.54	230.18
793.86	230.14
794.18	230.09
794.50	230.05
794.82	230.00
795.14	229.97
795.47	229.91
795.79	229.86
796.11	229.81
796.43	229.78
796.75	229.76
797.07	229.73
797.39	229.67
797.71	229.61
798.04	229.54
798.36	229.50
798.68	229.44
799.00	229.38
799.32	229.28
799.64	229.25
799.96	229.26
800.28	229.23
800.60	229.17
800.92	229.11
801.24	229.05
801.56	229.02
801.89	228.98
802.21	228.97
802.53	228.96
802.85	228.97
803.17	228.98
803.49	228.95
803.81	228.90
804.13	228.85
804.45	228.76
804.77	228.77
805.09	228.76
805.41	228.76
805.73	228.71
806.05	228.67
806.37	228.69
806.69	228.63
807.01	228.60
807.33	228.60
807.65	228.55
807.97	228.59
808.28	228.57
808.60	228.50
808.92	228.45
809.24	228.44
809.56	228.39
809.88	228.31
810.20	228.25
810.52	228.26
810.84	228.24
811.16	228.24
811.48	228.25
811.80	228.25
812.12	228.19
812.43	228.22
812.75	228.20
813.07	228.16
813.39	228.15
813.71	228.11
814.03	228.07
814.35	228.07
814.67	227.99
814.98	227.96
815.30	227.99
815.62	227.95
815.94	227.89
816.26	227.92
816.58	227.86
816.89	227.90
817.21	227.84
817.53	227.86
817.85	227.85
818.17	227.79
818.48	227.74
818.80	227.74
819.12	227.70
819.44	227.67
819.76	227.67
820.07	227.66
820.39	227.67
820.71	227.69
821.03	227.69
821.34	227.69
821.66	227.72
821.98	227.73
822.30	227.76
822.61	227.80
822.93	227.75
823.25	227.76
823.57	227.72
823.88	227.76
824.20	227.73
824.52	227.74
824.83	227.69
825.15	227.67
825.47	227.67
825.79	227.68
826.10	227.68
826.42	227.64
826.74	227.63
827.05	227.61
827.37	227.61
827.69	227.57
828.00	227.57
828.32	227.53
828.64	227.45
828.95	227.46
829.27	227.43
829.58	227.40
829.90	227.41
830.22	227.42
830.53	227.37
830.85	227.36
831.17	227.30
831.48	227.30
831.80	227.33
832.11	227.28
832.43	227.26
832.75	227.21
833.06	227.26
833.38	227.22
833.69	227.21
834.01	227.19
834.32	227.21
834.64	227.18
834.96	227.19
835.27	227.22
835.59	227.17
835.90	227.14
836.22	227.10
836.53	227.09
836.85	227.01
837.16	227.09
837.48	227.05
837.79	227.07
838.11	227.08
838.42	227.04
838.74	227.04
839.05	227.05
839.37	227.06
839.68	226.96
840.00	226.95
840.31	226.91
840.63	226.88
840.94	226.82
841.26	226.81
841.57	226.77
841.88	226.74
842.20	226.71
842.51	226.69
842.83	226.71
843.14	226.79
843.46	226.82
843.77	226.77
844.08	226.75
844.40	226.69
844.71	226.63
845.03	226.63
845.34	226.65
845.65	226.63
845.97	226.60
846.28	226.63
846.60	226.64
846.91	226.61
847.22	226.60
847.54	226.59
847.85	226.58
848.16	226.60
848.48	226.59
848.79	226.66
849.10	226.68
849.42	226.68
849.73	226.59
850.04	226.59
850.36	226.51
850.67	226.52
850.98	226.53
851.30	226.57
851.61	226.54
851.92	226.50
852.23	226.51
852.55	226.51
852.86	226.52
853.17	226.52
853.49	226.56
853.80	226.56
854.11	226.61
854.42	226.62
854.74	226.58
855.05	226.59
855.36	226.51
855.67	226.51
855.99	226.51
856.30	226.61
856.61	226.60
856.92	226.62
857.23	226.65
857.55	226.68
857.86	226.67
858.17	226.72
858.48	226.71
858.79	226.73
859.11	226.74
859.42	226.70
859.73	226.67
860.04	226.68
860.35	226.67
860.66	226.62
860.98	226.62
861.29	226.65
861.60	226.65
861.91	226.66
862.22	226.62
862.53	226.61
862.84	226.51
863.16	226.54
863.47	226.54
863.78	226.50
864.09	226.51
864.40	226.51
864.71	226.50
865.02	226.49
865.33	226.46
865.64	226.47
865.95	226.49
866.27	226.57
866.58	226.56
866.89	226.57
867.20	226.59
867.51	226.57
867.82	226.59
868.13	226.61
868.44	226.61
868.75	226.66
869.06	226.63
869.37	226.65
869.68	226.63
869.99	226.65
870.30	226.66
870.61	226.66
870.92	226.68
871.23	226.66
871.54	226.70
871.85	226.72
872.16	226.73
872.47	226.72
872.78	226.66
873.09	226.68
873.40	226.67
873.71	226.67
874.02	226.67
874.33	226.66
874.64	226.65
874.95	226.63
875.26	226.58
875.56	226.59
875.87	226.56
876.18	226.53
876.49	226.63
876.80	226.60
877.11	226.63
877.42	226.58
877.73	226.58
878.04	226.57
878.35	226.55
878.66	226.53
878.96	226.52
879.27	226.50
879.58	226.45
879.89	226.43
880.20	226.45
880.51	226.45
880.82	226.40
881.12	226.36
881.43	226.36
881.74	226.38
882.05	226.36
882.36	226.39
882.67	226.44
882.97	226.28
883.28	226.29
883.59	226.23
883.90	226.26
884.21	226.26
884.51	226.23
884.82	226.22
885.13	226.20
885.44	226.22
885.74	226.21
886.05	226.23
886.36	226.25
886.67	226.21
886.98	226.26
887.28	226.26
887.59	226.27
887.90	226.27
888.20	226.26
888.51	226.29
888.82	226.25
889.13	226.23
889.43	226.35
889.74	226.34
890.05	226.36
890.35	226.33
890.66	226.31
890.97	226.30
891.28	226.28
891.58	226.30
891.89	226.27
892.20	226.26
892.50	226.23
892.81	226.21
893.12	226.19
893.42	226.14
893.73	226.14
894.04	226.14
894.34	226.16
894.65	226.15
894.95	226.15
895.26	226.17
895.57	226.21
895.87	226.11
896.18	226.11
896.48	226.08
896.79	226.10
897.10	226.15
897.40	226.15
897.71	226.19
898.01	226.18
898.32	226.21
898.63	226.21
898.93	226.23
899.24	226.23
899.54	226.23
899.85	226.23
900.15	226.24
900.46	226.22
900.76	226.22
901.07	226.23
901.38	226.17
901.68	226.15
901.99	226.10
902.29	226.08
902.60	226.08
902.90	226.10
903.21	226.07
903.51	226.03
903.82	226.03
904.12	225.98
904.43	225.98
904.73	226.00
905.03	226.02
905.34	226.10
905.64	226.09
905.95	226.09
906.25	226.09
906.56	226.09
906.86	226.08
907.17	226.05
907.47	226.04
907.77	226.05
908.08	226.04
908.38	226.06
908.69	226.07
908.99	226.10
909.30	226.13
909.60	226.16
909.90	226.12
910.21	226.09
910.51	226.08
910.81	226.09
911.12	226.05
911.42	226.04
911.73	225.92
912.03	225.92
912.33	225.94
912.64	225.96
912.94	225.92
913.24	225.93
913.55	225.93
913.85	225.94
914.15	225.95
914.46	225.94
914.76	225.91
915.06	225.94
915.37	225.92
915.67	225.90
915.97	225.87
916.27	225.92
916.58	225.95
916.88	225.97
917.18	225.96
917.49	226.05
917.79	226.04
918.09	226.06
918.39	226.08
918.70	226.06
919.00	226.04
919.30	226.13
919.60	226.14
919.91	226.14
920.21	226.16
920.51	226.16
920.81	226.18
921.12	226.21
921.42	226.21
921.72	226.19
922.02	226.20
922.32	226.21
922.63	226.19
922.93	226.24
923.23	226.25
923.53	226.25
923.83	226.19
924.13	226.25
924.44	226.25
924.74	226.30
925.04	226.34
925.34	226.33
925.64	226.27
925.94	226.25
926.24	226.31
926.55	226.27
926.85	226.28
927.15	226.29
927.45	226.30
927.75	226.31
928.05	226.33
928.35	226.33
928.65	226.36
928.95	226.37
929.26	226.31
929.56	226.35
929.86	226.32
930.16	226.29
930.46	226.22
930.76	226.21
931.06	226.16
931.36	226.13
931.66	226.14
931.96	226.18
932.26	226.18
932.56	226.13
932.86	226.14
933.16	226.12
933.46	226.10
933.76	226.06
934.06	226.05
934.36	226.04
934.66	226.01
934.96	226.02
935.26	226.01
935.56	226.04
935.86	226.01
936.16	226.03
936.46	226.04
936.76	226.04
937.06	226.03
937.36	226.02
937.66	226.02
937.96	226.03
938.26	226.00
938.56	226.01
938.86	226.00
939.16	226.04
939.46	226.08
939.76	226.08
940.06	226.10
940.35	226.09
940.65	226.07
940.95	226.11
941.25	226.06
941.55	226.04
941.85	226.03
942.15	226.01
942.45	226.05
942.75	226.04
943.04	226.07
943.34	226.11
943.64	226.08
943.94	226.06
944.24	226.04
944.54	226.03
944.84	226.01
945.13	226.00
945.43	225.97
945.73	225.94
946.03	225.92
946.33	225.92
946.62	225.92
946.92	225.94
947.22	225.93
947.52	225.92
947.82	225.95
948.11	225.94
948.41	225.93
948.71	225.88
949.01	225.87
949.31	225.88
949.60	225.88
949.90	225.91
950.20	225.89
950.50	225.91
950.79	225.90
951.09	225.93
951.39	225.93
951.69	225.92
951.98	225.92
952.28	225.96
952.58	225.93
952.87	225.93
953.17	225.93
953.47	225.92
953.76	225.93
954.06	225.91
954.36	225.88
954.66	225.90
954.95	225.93
955.25	225.96
955.55	225.97
955.84	225.94
956.14	225.94
956.44	225.97
956.73	225.95
957.03	225.96
957.32	225.97
957.62	225.99
957.92	226.00
958.21	226.01
958.51	226.13
958.81	226.19
959.10	226.22
959.40	226.22
959.69	226.22
959.99	226.25
960.29	226.27
960.58	226.27
960.88	226.33
961.17	226.30
961.47	226.33
961.76	226.32
962.06	226.33
962.36	226.31
962.65	226.31
962.95	226.35
963.24	226.37
963.54	226.36
963.83	226.38
964.13	226.38
964.42	226.34
964.72	226.27
965.01	226.26
965.31	226.23
965.60	226.23
965.90	226.31
966.19	226.28
966.49	226.29
966.78	226.31
967.08	226.25
967.37	226.31
967.67	226.27
967.96	226.30
968.26	226.30
968.55	226.30
968.85	226.33
969.14	226.32
969.43	226.31
969.73	226.31
970.02	226.27
970.32	226.29
970.61	226.30
970.91	226.26
971.20	226.22
971.49	226.20
971.79	226.20
972.08	226.10
972.38	226.10
972.67	226.06
972.96	226.08
973.26	226.07
973.55	226.05
973.85	226.06
974.14	226.06
974.43	226.10
974.73	226.13
975.02	226.10
975.31	226.06
975.61	226.05
975.90	226.04
976.19	226.04
976.49	226.04
976.78	226.05
977.07	226.05
977.37	226.06
977.66	226.08
977.95	226.05
978.24	226.04
978.54	226.05
978.83	226.06
979.12	226.02
979.42	226.05
979.71	226.03
980.00	226.01
980.29	225.96
980.59	225.91
980.88	225.94
981.17	225.92
981.46	225.92
981.76	225.92
982.05	225.92
982.34	225.96
982.63	225.92
982.93	225.90
983.22	225.94
983.51	225.95
983.80	225.95
984.09	225.98
984.39	226.00
984.68	226.00
984.97	225.98
985.26	226.00
985.55	225.97
985.85	225.94
986.14	225.94
986.43	225.97
986.72	225.95
987.01	225.88
987.30	225.89
987.59	225.88
987.89	225.87
988.18	225.88
988.47	225.87
988.76	225.86
989.05	225.87
989.34	225.84
989.63	225.84
989.92	225.83
990.22	225.80
990.51	225.77
990.80	225.73
991.09	225.76
991.38	225.77
991.67	225.78
991.96	225.77
992.25	225.80
992.54	225.77
992.83	225.78
993.12	225.77
993.41	225.81
993.70	225.88
993.99	225.89
994.28	225.91
994.58	225.89
994.87	225.90
995.16	225.90
995.45	225.91
995.74	225.89
996.03	225.91
996.32	225.92
996.61	225.99
996.90	226.03
997.19	226.02
997.48	226.01
997.77	226.00
998.06	226.03
998.34	225.98
998.63	225.98
998.92	226.00
999.21	226.03
999.50	226.01
999.79	225.96
1000.08	225.97
1000.37	225.96
1000.66	225.98
1000.95	226.01
1001.24	226.02
1001.53	226.01
1001.82	226.00
1002.11	225.98
1002.40	226.04
1002.68	226.06
1002.97	226.12
1003.26	226.13
1003.55	226.12
1003.84	226.16
1004.13	226.21
1004.42	226.21
1004.71	226.22
1004.99	226.18
1005.28	226.25
1005.57	226.23
1005.86	226.25
1006.15	226.26
1006.44	226.26
1006.72	226.24
1007.01	226.20
1007.30	226.22
1007.59	226.22
1007.88	226.25
1008.17	226.29
1008.45	226.27
1008.74	226.24
1009.03	226.20
1009.32	226.19
1009.60	226.18
1009.89	226.16
1010.18	226.13
1010.47	226.13
1010.76	226.12
1011.04	226.16
1011.33	226.13
1011.62	226.13
1011.91	226.13
1012.19	226.10
1012.48	226.07
1012.77	226.05
1013.05	226.11
1013.34	226.09
1013.63	226.06
1013.92	226.03
1014.20	225.99
1014.49	225.97
1014.78	225.95
1015.06	225.93
1015.35	225.90
1015.64	225.91
1015.92	225.90
1016.21	225.88
1016.50	225.89
1016.78	225.89
1017.07	225.88
1017.36	225.86
1017.64	225.81
1017.93	225.80
1018.22	225.80
1018.50	225.80
1018.79	225.79
1019.08	225.73
1019.36	225.72
1019.65	225.73
1019.93	225.74
1020.22	225.75
1020.51	225.76
1020.79	225.72
1021.08	225.80
1021.36	225.50
1021.65	225.42
1021.94	225.48
1022.22	225.63
1022.51	225.81
1022.79	226.04
1023.08	225.80
1023.36	226.27
1023.65	225.17
>>>>>End Processed Spectral Data<<<<<
