SpectraSuite Data File
++++++++++++++++++++++++++++++++++++
Date: Fri Feb 01 15:45:41 EST 2013
User: group
Dark Spectrum Present: No
Reference Spectrum Present: No
Number of Sampled Component Spectra: 1
Spectrometers: USB2E7196
Integration Time (usec): 35000 (USB2E7196)
Spectra Averaged: 100 (USB2E7196)
Boxcar Smoothing: 10 (USB2E7196)
Correct for Electrical Dark: No (USB2E7196)
Strobe/Lamp Enabled: No (USB2E7196)
Correct for Detector Non-linearity: No (USB2E7196)
Correct for Stray Light: No (USB2E7196)
Number of Pixels in Processed Spectrum: 2048
>>>>>Begin Processed Spectral Data<<<<<
339.09	0.00
339.48	214.77
339.86	216.48
340.24	217.77
340.63	218.99
341.01	221.76
341.39	221.71
341.78	223.38
342.16	224.82
342.54	224.12
342.93	213.16
343.31	223.93
343.69	224.47
344.07	224.92
344.46	225.36
344.84	225.73
345.22	225.96
345.60	226.19
345.99	226.37
346.37	226.46
346.75	226.62
347.13	226.72
347.52	226.77
347.90	226.86
348.28	226.89
348.66	226.92
349.05	226.93
349.43	226.94
349.81	227.00
350.19	227.07
350.57	227.13
350.96	227.18
351.34	227.27
351.72	227.35
352.10	227.45
352.48	227.52
352.87	227.61
353.25	227.70
353.63	227.80
354.01	227.84
354.39	227.91
354.77	227.96
355.15	228.05
355.54	228.11
355.92	228.16
356.30	228.25
356.68	228.38
357.06	228.45
357.44	228.53
357.82	228.60
358.20	228.67
358.58	228.72
358.97	228.80
359.35	228.90
359.73	228.98
360.11	229.00
360.49	229.05
360.87	229.08
361.25	229.11
361.63	229.16
362.01	229.23
362.39	229.25
362.77	229.29
363.15	229.29
363.53	229.34
363.91	229.36
364.29	229.38
364.67	229.31
365.05	229.32
365.43	229.35
365.81	229.33
366.19	229.38
366.57	229.42
366.95	229.42
367.33	229.34
367.71	229.32
368.09	229.34
368.47	229.29
368.85	229.22
369.23	229.23
369.61	229.19
369.99	229.16
370.37	229.16
370.75	229.18
371.13	229.13
371.51	229.07
371.89	229.07
372.27	229.01
372.65	228.96
373.03	228.91
373.41	228.84
373.78	228.79
374.16	228.69
374.54	228.57
374.92	228.52
375.30	228.47
375.68	228.41
376.06	228.35
376.44	228.33
376.82	228.30
377.19	228.23
377.57	228.17
377.95	228.10
378.33	228.01
378.71	227.87
379.09	227.82
379.47	227.74
379.84	227.62
380.22	227.55
380.60	227.45
380.98	227.38
381.36	227.30
381.73	227.18
382.11	227.14
382.49	227.07
382.87	226.96
383.25	226.91
383.62	226.94
384.00	226.88
384.38	226.79
384.76	226.75
385.13	226.70
385.51	226.62
385.89	226.56
386.27	226.54
386.64	226.51
387.02	226.46
387.40	226.43
387.78	226.40
388.15	226.35
388.53	226.34
388.91	226.33
389.29	226.28
389.66	226.32
390.04	226.28
390.42	226.28
390.79	226.28
391.17	226.25
391.55	226.14
391.92	226.12
392.30	226.17
392.68	226.15
393.05	226.18
393.43	226.19
393.81	226.22
394.18	226.19
394.56	226.22
394.94	226.26
395.31	226.27
395.69	226.30
396.06	226.35
396.44	226.40
396.82	226.42
397.19	226.56
397.57	226.59
397.95	226.68
398.32	226.72
398.70	226.81
399.07	226.91
399.45	226.96
399.82	227.03
400.20	227.06
400.58	227.15
400.95	227.17
401.33	227.31
401.70	227.44
402.08	227.59
402.45	227.66
402.83	227.76
403.20	227.87
403.58	228.02
403.95	228.16
404.33	228.29
404.71	228.44
405.08	228.58
405.46	228.70
405.83	228.83
406.21	228.98
406.58	229.17
406.96	229.31
407.33	229.53
407.70	229.75
408.08	230.00
408.45	230.21
408.83	230.47
409.20	230.64
409.58	230.83
409.95	231.08
410.33	231.37
410.70	231.62
411.08	231.92
411.45	232.20
411.82	232.52
412.20	232.86
412.57	233.27
412.95	233.54
413.32	233.98
413.69	234.39
414.07	234.82
414.44	235.26
414.82	235.73
415.19	236.24
415.56	236.76
415.94	237.31
416.31	237.94
416.68	238.56
417.06	239.32
417.43	240.03
417.81	240.76
418.18	241.54
418.55	242.38
418.93	243.23
419.30	244.11
419.67	245.06
420.04	245.98
420.42	246.94
420.79	248.14
421.16	249.25
421.54	250.45
421.91	251.66
422.28	252.93
422.66	254.25
423.03	255.61
423.40	256.94
423.77	258.34
424.15	259.79
424.52	261.30
424.89	262.87
425.26	264.40
425.64	265.87
426.01	267.47
426.38	269.12
426.75	270.80
427.13	272.54
427.50	274.31
427.87	276.23
428.24	278.09
428.61	279.80
428.99	281.75
429.36	283.85
429.73	285.91
430.10	287.94
430.47	290.01
430.85	292.06
431.22	294.33
431.59	296.70
431.96	298.95
432.33	301.40
432.70	303.80
433.08	306.61
433.45	309.26
433.82	311.87
434.19	314.79
434.56	317.61
434.93	320.23
435.30	322.87
435.68	325.73
436.05	328.59
436.42	331.44
436.79	333.95
437.16	336.64
437.53	339.49
437.90	342.28
438.27	345.04
438.64	347.92
439.01	350.52
439.38	352.74
439.75	354.92
440.13	357.46
440.50	359.77
440.87	361.61
441.24	363.55
441.61	365.66
441.98	367.18
442.35	368.95
442.72	370.85
443.09	372.67
443.46	373.66
443.83	374.25
444.20	374.75
444.57	375.61
444.94	375.94
445.31	376.26
445.68	376.63
446.05	376.69
446.42	376.30
446.79	375.85
447.16	375.46
447.53	375.14
447.90	373.95
448.27	372.80
448.64	371.23
449.01	370.07
449.37	368.12
449.74	366.20
450.11	363.98
450.48	361.50
450.85	358.96
451.22	356.83
451.59	354.80
451.96	352.88
452.33	350.30
452.70	347.90
453.07	345.12
453.43	342.23
453.80	339.43
454.17	336.77
454.54	334.24
454.91	331.51
455.28	328.80
455.65	326.31
456.02	323.85
456.38	321.71
456.75	319.05
457.12	316.80
457.49	314.55
457.86	312.41
458.23	310.53
458.59	308.49
458.96	306.41
459.33	304.57
459.70	302.70
460.07	301.18
460.43	299.47
460.80	297.81
461.17	296.34
461.54	294.90
461.91	293.37
462.27	291.93
462.64	290.66
463.01	289.35
463.38	288.09
463.74	286.72
464.11	285.56
464.48	284.57
464.85	283.47
465.21	282.60
465.58	281.64
465.95	280.55
466.32	279.62
466.68	278.69
467.05	277.76
467.42	276.82
467.78	275.87
468.15	274.99
468.52	274.35
468.88	273.48
469.25	272.68
469.62	272.12
469.98	271.40
470.35	270.75
470.72	270.09
471.08	269.40
471.45	268.83
471.82	268.30
472.18	267.66
472.55	267.22
472.92	266.66
473.28	266.15
473.65	265.69
474.02	265.24
474.38	264.90
474.75	264.60
475.11	264.29
475.48	264.02
475.85	263.74
476.21	263.45
476.58	263.30
476.94	263.18
477.31	262.99
477.67	262.84
478.04	262.77
478.41	262.73
478.77	262.78
479.14	262.73
479.50	262.72
479.87	262.80
480.23	262.88
480.60	262.97
480.96	263.12
481.33	263.35
481.69	263.55
482.06	263.73
482.42	263.94
482.79	264.20
483.15	264.53
483.52	264.95
483.88	265.33
484.25	265.69
484.61	266.12
484.98	266.58
485.34	267.14
485.71	267.71
486.07	268.30
486.44	268.85
486.80	269.56
487.17	270.28
487.53	271.12
487.90	271.98
488.26	272.93
488.62	273.88
488.99	274.85
489.35	275.92
489.72	277.05
490.08	278.25
490.44	279.50
490.81	280.80
491.17	282.13
491.54	283.62
491.90	285.17
492.26	286.80
492.63	288.54
492.99	290.31
493.36	292.20
493.72	294.29
494.08	296.43
494.45	298.66
494.81	301.03
495.17	303.44
495.54	306.01
495.90	308.71
496.26	311.56
496.63	314.49
496.99	317.58
497.35	320.85
497.72	324.25
498.08	327.75
498.44	331.49
498.80	335.42
499.17	339.47
499.53	343.63
499.89	348.03
500.26	352.55
500.62	357.23
500.98	362.19
501.34	367.27
501.71	372.59
502.07	378.05
502.43	383.64
502.79	389.46
503.16	395.53
503.52	401.79
503.88	408.15
504.24	414.85
504.60	421.80
504.97	428.91
505.33	436.22
505.69	443.87
506.05	451.62
506.41	459.49
506.78	467.61
507.14	476.06
507.50	484.75
507.86	493.74
508.22	502.97
508.59	512.21
508.95	521.77
509.31	531.65
509.67	541.76
510.03	552.11
510.39	562.73
510.75	573.49
511.12	584.41
511.48	595.74
511.84	607.13
512.20	618.60
512.56	630.59
512.92	642.71
513.28	655.10
513.64	667.58
514.00	680.33
514.37	693.26
514.73	706.25
515.09	719.29
515.45	732.60
515.81	746.17
516.17	760.19
516.53	774.39
516.89	788.48
517.25	802.76
517.61	817.22
517.97	831.60
518.33	846.07
518.69	860.85
519.05	875.80
519.41	891.01
519.77	906.52
520.13	921.90
520.49	937.40
520.85	952.90
521.21	968.60
521.57	984.86
521.93	1000.59
522.29	1017.13
522.65	1033.44
523.01	1049.65
523.37	1065.66
523.73	1081.79
524.09	1097.78
524.45	1114.10
524.81	1130.62
525.17	1147.38
525.53	1164.34
525.89	1181.21
526.25	1198.00
526.61	1214.48
526.97	1231.25
527.33	1247.78
527.68	1264.36
528.04	1280.78
528.40	1297.32
528.76	1314.43
529.12	1330.99
529.48	1347.94
529.84	1363.91
530.20	1380.49
530.56	1397.59
530.91	1415.13
531.27	1431.92
531.63	1448.36
531.99	1464.76
532.35	1480.73
532.71	1496.66
533.07	1513.00
533.42	1529.03
533.78	1545.15
534.14	1561.42
534.50	1576.65
534.86	1592.57
535.21	1607.77
535.57	1623.82
535.93	1639.31
536.29	1654.12
536.65	1669.05
537.00	1683.81
537.36	1699.19
537.72	1713.69
538.08	1728.09
538.44	1741.79
538.79	1755.63
539.15	1769.45
539.51	1783.35
539.87	1797.73
540.22	1811.44
540.58	1825.08
540.94	1838.41
541.29	1851.31
541.65	1863.99
542.01	1877.22
542.37	1889.56
542.72	1902.00
543.08	1913.73
543.44	1926.19
543.79	1937.37
544.15	1948.49
544.51	1960.03
544.87	1970.98
545.22	1981.86
545.58	1992.10
545.94	2001.88
546.29	2011.74
546.65	2021.45
547.01	2030.78
547.36	2039.58
547.72	2048.02
548.07	2055.86
548.43	2063.96
548.79	2072.08
549.14	2079.56
549.50	2086.95
549.86	2094.66
550.21	2101.98
550.57	2109.21
550.92	2115.77
551.28	2122.83
551.64	2129.97
551.99	2136.52
552.35	2142.66
552.70	2148.80
553.06	2154.75
553.41	2161.08
553.77	2167.16
554.13	2173.32
554.48	2179.43
554.84	2184.69
555.19	2189.97
555.55	2195.17
555.90	2199.55
556.26	2204.27
556.61	2208.92
556.97	2213.16
557.32	2217.21
557.68	2221.31
558.03	2225.53
558.39	2229.25
558.74	2233.91
559.10	2237.67
559.45	2241.26
559.81	2245.48
560.16	2249.35
560.52	2252.47
560.87	2255.75
561.23	2258.47
561.58	2261.37
561.94	2263.79
562.29	2266.24
562.64	2268.92
563.00	2271.54
563.35	2275.09
563.71	2278.23
564.06	2281.60
564.42	2284.46
564.77	2286.86
565.12	2289.08
565.48	2290.91
565.83	2292.62
566.19	2293.76
566.54	2294.76
566.89	2295.99
567.25	2296.46
567.60	2297.68
567.96	2299.36
568.31	2300.28
568.66	2301.19
569.02	2301.86
569.37	2302.26
569.72	2303.08
570.08	2303.30
570.43	2303.31
570.78	2302.65
571.14	2301.09
571.49	2299.66
571.84	2299.44
572.20	2298.40
572.55	2297.40
572.90	2295.88
573.26	2294.62
573.61	2293.11
573.96	2291.21
574.31	2288.28
574.67	2285.37
575.02	2281.83
575.37	2278.48
575.72	2274.75
576.08	2271.36
576.43	2267.99
576.78	2264.24
577.13	2261.22
577.49	2258.11
577.84	2254.57
578.19	2250.90
578.54	2247.35
578.90	2243.09
579.25	2237.56
579.60	2232.44
579.95	2227.46
580.30	2222.58
580.66	2217.32
581.01	2212.22
581.36	2207.21
581.71	2203.00
582.06	2198.55
582.42	2193.91
582.77	2188.66
583.12	2184.09
583.47	2179.43
583.82	2174.37
584.17	2169.01
584.53	2163.25
584.88	2157.60
585.23	2151.79
585.58	2146.19
585.93	2140.68
586.28	2135.89
586.63	2130.67
586.98	2125.68
587.34	2120.99
587.69	2116.06
588.04	2110.64
588.39	2104.94
588.74	2098.75
589.09	2092.49
589.44	2085.70
589.79	2079.73
590.14	2074.12
590.49	2067.47
590.84	2061.05
591.19	2054.99
591.54	2048.69
591.89	2041.37
592.25	2034.49
592.60	2027.20
592.95	2019.71
593.30	2012.30
593.65	2004.67
594.00	1997.71
594.35	1990.54
594.70	1982.48
595.05	1975.07
595.40	1967.92
595.75	1960.40
596.10	1953.99
596.45	1947.32
596.80	1941.18
597.15	1934.51
597.50	1927.39
597.85	1921.01
598.19	1914.42
598.54	1907.20
598.89	1900.53
599.24	1894.60
599.59	1887.98
599.94	1881.91
600.29	1875.57
600.64	1868.91
600.99	1861.52
601.34	1854.64
601.69	1847.64
602.04	1840.70
602.39	1833.29
602.74	1826.37
603.08	1819.78
603.43	1813.07
603.78	1805.70
604.13	1798.41
604.48	1791.07
604.83	1784.17
605.18	1777.04
605.53	1769.09
605.87	1761.13
606.22	1753.84
606.57	1745.98
606.92	1738.49
607.27	1731.24
607.62	1724.32
607.96	1717.08
608.31	1710.40
608.66	1702.65
609.01	1695.03
609.36	1687.51
609.70	1679.55
610.05	1671.58
610.40	1663.73
610.75	1655.50
611.10	1647.81
611.44	1639.45
611.79	1631.55
612.14	1622.77
612.49	1613.74
612.83	1605.31
613.18	1597.25
613.53	1589.06
613.88	1580.40
614.22	1572.10
614.57	1563.52
614.92	1555.46
615.27	1547.97
615.61	1539.58
615.96	1531.70
616.31	1524.06
616.65	1516.68
617.00	1509.13
617.35	1501.45
617.70	1493.13
618.04	1484.40
618.39	1476.22
618.74	1468.59
619.08	1460.20
619.43	1452.73
619.78	1445.70
620.12	1438.42
620.47	1430.92
620.82	1422.84
621.16	1415.55
621.51	1408.08
621.85	1400.42
622.20	1391.85
622.55	1383.35
622.89	1375.50
623.24	1367.81
623.59	1360.48
623.93	1352.84
624.28	1345.67
624.62	1338.14
624.97	1330.97
625.32	1324.33
625.66	1317.38
626.01	1310.12
626.35	1302.68
626.70	1294.94
627.04	1287.25
627.39	1279.56
627.73	1272.15
628.08	1265.23
628.43	1257.83
628.77	1250.37
629.12	1242.89
629.46	1235.67
629.81	1228.38
630.15	1221.22
630.50	1213.82
630.84	1205.51
631.19	1197.67
631.53	1190.09
631.88	1182.55
632.22	1174.98
632.57	1167.69
632.91	1160.09
633.26	1152.69
633.60	1145.36
633.95	1138.27
634.29	1131.30
634.64	1124.59
634.98	1117.22
635.32	1110.14
635.67	1103.65
636.01	1097.03
636.36	1090.19
636.70	1083.72
637.05	1077.07
637.39	1070.65
637.73	1064.17
638.08	1058.38
638.42	1052.46
638.77	1046.13
639.11	1039.52
639.45	1033.11
639.80	1026.39
640.14	1019.95
640.49	1013.47
640.83	1007.17
641.17	1000.89
641.52	994.50
641.86	988.08
642.20	982.14
642.55	975.80
642.89	969.23
643.23	962.65
643.58	956.80
643.92	950.60
644.26	944.54
644.61	938.48
644.95	932.42
645.29	925.81
645.64	918.96
645.98	912.57
646.32	906.70
646.66	900.69
647.01	894.96
647.35	889.26
647.69	883.39
648.04	877.85
648.38	872.04
648.72	866.00
649.06	859.89
649.41	854.02
649.75	848.03
650.09	842.09
650.43	836.33
650.78	830.21
651.12	824.25
651.46	818.54
651.80	812.86
652.14	807.49
652.49	802.03
652.83	796.89
653.17	791.15
653.51	785.50
653.85	780.11
654.20	774.42
654.54	768.33
654.88	762.61
655.22	756.76
655.56	751.13
655.90	745.74
656.25	740.52
656.59	735.20
656.93	730.09
657.27	724.92
657.61	719.51
657.95	714.48
658.29	709.41
658.64	704.19
658.98	698.84
659.32	693.35
659.66	688.19
660.00	682.89
660.34	677.97
660.68	673.02
661.02	667.90
661.36	663.16
661.70	658.72
662.05	654.33
662.39	649.93
662.73	645.46
663.07	641.01
663.41	636.52
663.75	632.04
664.09	627.51
664.43	623.10
664.77	618.99
665.11	614.67
665.45	610.59
665.79	606.51
666.13	602.40
666.47	598.29
666.81	594.15
667.15	590.03
667.49	586.12
667.83	582.34
668.17	578.50
668.51	574.43
668.85	570.46
669.19	566.64
669.53	562.81
669.87	558.86
670.21	555.22
670.55	551.66
670.89	548.21
671.23	544.75
671.57	541.29
671.91	537.75
672.25	534.24
672.58	530.73
672.92	527.32
673.26	524.05
673.60	520.95
673.94	517.80
674.28	514.85
674.62	511.88
674.96	508.70
675.30	505.77
675.64	502.87
675.97	500.08
676.31	497.20
676.65	494.31
676.99	491.65
677.33	488.80
677.67	485.94
678.01	482.88
678.34	479.90
678.68	476.98
679.02	474.16
679.36	471.46
679.70	468.72
680.04	465.95
680.37	463.16
680.71	460.37
681.05	457.78
681.39	455.09
681.73	452.45
682.06	449.96
682.40	447.38
682.74	444.86
683.08	442.27
683.42	439.64
683.75	437.16
684.09	434.65
684.43	432.13
684.77	429.68
685.10	427.40
685.44	425.11
685.78	422.87
686.12	420.63
686.45	418.30
686.79	416.01
687.13	413.83
687.46	411.61
687.80	409.44
688.14	407.23
688.48	405.13
688.81	402.82
689.15	400.67
689.49	398.56
689.82	396.55
690.16	394.50
690.50	392.60
690.83	390.62
691.17	388.61
691.51	386.72
691.84	384.83
692.18	382.88
692.52	380.86
692.85	378.96
693.19	377.05
693.52	375.23
693.86	373.43
694.20	371.62
694.53	369.85
694.87	368.02
695.21	366.23
695.54	364.49
695.88	362.91
696.21	361.20
696.55	359.48
696.88	357.78
697.22	356.11
697.56	354.48
697.89	352.84
698.23	351.26
698.56	349.67
698.90	348.11
699.23	346.47
699.57	344.97
699.90	343.42
700.24	341.90
700.58	340.36
700.91	338.84
701.25	337.39
701.58	336.02
701.92	334.68
702.25	333.31
702.59	331.90
702.92	330.51
703.26	329.20
703.59	327.94
703.93	326.73
704.26	325.48
704.60	324.19
704.93	322.92
705.26	321.64
705.60	320.44
705.93	319.27
706.27	318.23
706.60	317.16
706.94	316.08
707.27	314.96
707.61	313.91
707.94	312.89
708.27	311.82
708.61	310.73
708.94	309.72
709.28	308.78
709.61	307.82
709.94	306.88
710.28	305.86
710.61	304.85
710.95	303.76
711.28	302.86
711.61	301.90
711.95	300.99
712.28	300.03
712.61	299.07
712.95	298.14
713.28	297.27
713.61	296.36
713.95	295.44
714.28	294.61
714.61	293.74
714.95	292.90
715.28	292.03
715.61	291.16
715.95	290.29
716.28	289.41
716.61	288.58
716.95	287.70
717.28	286.96
717.61	286.22
717.94	285.47
718.28	284.65
718.61	283.95
718.94	283.23
719.27	282.60
719.61	281.95
719.94	281.30
720.27	280.59
720.60	279.92
720.94	279.28
721.27	278.65
721.60	278.06
721.93	277.43
722.27	276.90
722.60	276.37
722.93	275.79
723.26	275.25
723.59	274.70
723.93	274.18
724.26	273.61
724.59	273.07
724.92	272.56
725.25	272.06
725.59	271.54
725.92	271.03
726.25	270.51
726.58	270.02
726.91	269.51
727.24	269.05
727.57	268.60
727.91	268.11
728.24	267.68
728.57	267.21
728.90	266.79
729.23	266.27
729.56	265.85
729.89	265.38
730.22	264.86
730.55	264.40
730.89	263.97
731.22	263.51
731.55	263.08
731.88	262.64
732.21	262.25
732.54	261.81
732.87	261.39
733.20	260.98
733.53	260.60
733.86	260.23
734.19	259.82
734.52	259.45
734.85	259.13
735.18	258.70
735.51	258.32
735.84	257.92
736.17	257.59
736.50	257.14
736.83	256.92
737.16	256.61
737.49	256.30
737.82	255.93
738.15	255.64
738.48	255.29
738.81	254.96
739.14	254.61
739.47	254.28
739.80	253.96
740.13	253.66
740.46	253.32
740.79	252.98
741.12	252.65
741.45	252.32
741.78	251.99
742.11	251.70
742.44	251.36
742.77	251.09
743.10	250.80
743.43	250.51
743.75	250.11
744.08	249.95
744.41	249.65
744.74	249.38
745.07	249.07
745.40	248.83
745.73	248.58
746.06	248.32
746.39	248.07
746.71	247.80
747.04	247.53
747.37	247.28
747.70	247.01
748.03	246.78
748.36	246.56
748.68	246.30
749.01	246.07
749.34	245.84
749.67	245.61
750.00	245.33
750.33	245.20
750.65	245.01
750.98	244.69
751.31	244.45
751.64	244.27
751.97	244.11
752.29	243.87
752.62	243.65
752.95	243.40
753.28	243.16
753.60	242.95
753.93	242.78
754.26	242.55
754.59	242.35
754.91	242.11
755.24	241.91
755.57	241.71
755.90	241.52
756.22	241.34
756.55	241.15
756.88	241.00
757.20	240.75
757.53	240.50
757.86	240.32
758.19	240.19
758.51	239.97
758.84	239.78
759.17	239.62
759.49	239.45
759.82	239.35
760.15	239.23
760.47	239.05
760.80	238.88
761.13	238.78
761.45	238.64
761.78	238.55
762.11	238.37
762.43	238.24
762.76	238.12
763.08	237.98
763.41	237.84
763.74	237.70
764.06	237.56
764.39	237.45
764.71	237.30
765.04	237.14
765.37	237.05
765.69	236.91
766.02	236.78
766.34	236.67
766.67	236.52
767.00	236.39
767.32	236.37
767.65	236.32
767.97	236.18
768.30	236.05
768.62	235.89
768.95	235.78
769.27	235.67
769.60	235.54
769.92	235.40
770.25	235.30
770.57	235.20
770.90	235.09
771.22	235.01
771.55	234.92
771.87	234.84
772.20	234.74
772.52	234.74
772.85	234.77
773.17	234.67
773.50	234.57
773.82	234.46
774.15	234.33
774.47	234.20
774.80	234.09
775.12	234.02
775.45	233.97
775.77	233.88
776.09	233.83
776.42	233.77
776.74	233.75
777.07	233.66
777.39	233.60
777.72	233.57
778.04	233.50
778.36	233.45
778.69	233.39
779.01	233.35
779.33	233.23
779.66	233.02
779.98	232.93
780.31	232.90
780.63	232.89
780.95	232.81
781.28	232.73
781.60	232.67
781.92	232.62
782.25	232.55
782.57	232.52
782.89	232.44
783.22	232.36
783.54	232.28
783.86	232.28
784.19	232.19
784.51	232.15
784.83	232.04
785.16	231.97
785.48	231.92
785.80	231.82
786.12	231.76
786.45	231.74
786.77	231.70
787.09	231.65
787.42	231.58
787.74	231.58
788.06	231.55
788.38	231.52
788.71	231.45
789.03	231.42
789.35	231.39
789.67	231.32
789.99	231.32
790.32	231.28
790.64	231.20
790.96	231.26
791.28	231.19
791.61	231.16
791.93	231.13
792.25	231.10
792.57	231.17
792.89	231.13
793.21	231.10
793.54	231.03
793.86	230.98
794.18	230.96
794.50	230.90
794.82	230.87
795.14	230.81
795.47	230.80
795.79	230.76
796.11	230.71
796.43	230.67
796.75	230.60
797.07	230.55
797.39	230.53
797.71	230.40
798.04	230.34
798.36	230.34
798.68	230.29
799.00	230.25
799.32	230.15
799.64	230.08
799.96	230.05
800.28	230.05
800.60	230.01
800.92	229.96
801.24	229.91
801.56	229.87
801.89	229.84
802.21	229.78
802.53	229.74
802.85	229.73
803.17	229.76
803.49	229.71
803.81	229.66
804.13	229.60
804.45	229.59
804.77	229.59
805.09	229.56
805.41	229.53
805.73	229.47
806.05	229.41
806.37	229.40
806.69	229.33
807.01	229.27
807.33	229.27
807.65	229.20
807.97	229.24
808.28	229.22
808.60	229.20
808.92	229.14
809.24	229.15
809.56	229.08
809.88	229.03
810.20	229.01
810.52	229.04
810.84	229.00
811.16	228.96
811.48	228.92
811.80	228.92
812.12	228.93
812.43	228.92
812.75	228.90
813.07	228.88
813.39	228.87
813.71	228.87
814.03	228.83
814.35	228.84
814.67	228.75
814.98	228.73
815.30	228.71
815.62	228.69
815.94	228.63
816.26	228.67
816.58	228.64
816.89	228.65
817.21	228.60
817.53	228.64
817.85	228.64
818.17	228.61
818.48	228.55
818.80	228.53
819.12	228.49
819.44	228.45
819.76	228.43
820.07	228.44
820.39	228.43
820.71	228.42
821.03	228.42
821.34	228.42
821.66	228.42
821.98	228.43
822.30	228.43
822.61	228.47
822.93	228.42
823.25	228.40
823.57	228.38
823.88	228.38
824.20	228.31
824.52	228.31
824.83	228.33
825.15	228.34
825.47	228.34
825.79	228.36
826.10	228.35
826.42	228.35
826.74	228.36
827.05	228.34
827.37	228.35
827.69	228.31
828.00	228.28
828.32	228.28
828.64	228.26
828.95	228.31
829.27	228.26
829.58	228.27
829.90	228.30
830.22	228.26
830.53	228.26
830.85	228.29
831.17	228.26
831.48	228.24
831.80	228.23
832.11	228.20
832.43	228.19
832.75	228.20
833.06	228.18
833.38	228.13
833.69	228.12
834.01	228.11
834.32	228.11
834.64	228.14
834.96	228.10
835.27	228.08
835.59	228.02
835.90	228.01
836.22	228.01
836.53	227.96
836.85	227.99
837.16	228.09
837.48	228.05
837.79	228.07
838.11	228.05
838.42	228.02
838.74	228.03
839.05	227.99
839.37	227.95
839.68	227.93
840.00	227.90
840.31	227.92
840.63	227.88
840.94	227.88
841.26	227.81
841.57	227.81
841.88	227.80
842.20	227.81
842.51	227.75
842.83	227.73
843.14	227.82
843.46	227.79
843.77	227.68
844.08	227.68
844.40	227.62
844.71	227.60
845.03	227.60
845.34	227.62
845.65	227.60
845.97	227.60
846.28	227.58
846.60	227.62
846.91	227.56
847.22	227.52
847.54	227.53
847.85	227.55
848.16	227.53
848.48	227.52
848.79	227.54
849.10	227.59
849.42	227.60
849.73	227.50
850.04	227.50
850.36	227.45
850.67	227.49
850.98	227.51
851.30	227.52
851.61	227.49
851.92	227.45
852.23	227.50
852.55	227.50
852.86	227.50
853.17	227.50
853.49	227.55
853.80	227.55
854.11	227.53
854.42	227.53
854.74	227.54
855.05	227.56
855.36	227.53
855.67	227.51
855.99	227.49
856.30	227.58
856.61	227.59
856.92	227.61
857.23	227.56
857.55	227.52
857.86	227.54
858.17	227.53
858.48	227.51
858.79	227.49
859.11	227.49
859.42	227.49
859.73	227.45
860.04	227.45
860.35	227.44
860.66	227.40
860.98	227.38
861.29	227.40
861.60	227.39
861.91	227.41
862.22	227.39
862.53	227.40
862.84	227.29
863.16	227.30
863.47	227.27
863.78	227.30
864.09	227.33
864.40	227.32
864.71	227.36
865.02	227.36
865.33	227.36
865.64	227.39
865.95	227.41
866.27	227.49
866.58	227.50
866.89	227.53
867.20	227.59
867.51	227.60
867.82	227.59
868.13	227.62
868.44	227.56
868.75	227.60
869.06	227.61
869.37	227.61
869.68	227.60
869.99	227.63
870.30	227.63
870.61	227.63
870.92	227.61
871.23	227.60
871.54	227.63
871.85	227.64
872.16	227.64
872.47	227.62
872.78	227.58
873.09	227.57
873.40	227.56
873.71	227.55
874.02	227.58
874.33	227.59
874.64	227.58
874.95	227.59
875.26	227.55
875.56	227.53
875.87	227.54
876.18	227.51
876.49	227.61
876.80	227.59
877.11	227.59
877.42	227.59
877.73	227.57
878.04	227.54
878.35	227.52
878.66	227.50
878.96	227.51
879.27	227.49
879.58	227.44
879.89	227.42
880.20	227.46
880.51	227.41
880.82	227.37
881.12	227.32
881.43	227.30
881.74	227.27
882.05	227.28
882.36	227.27
882.67	227.27
882.97	227.15
883.28	227.14
883.59	227.13
883.90	227.14
884.21	227.11
884.51	227.08
884.82	227.04
885.13	227.02
885.44	226.99
885.74	226.94
886.05	226.97
886.36	226.96
886.67	226.90
886.98	226.94
887.28	226.97
887.59	226.98
887.90	226.98
888.20	226.99
888.51	227.00
888.82	226.97
889.13	226.97
889.43	227.04
889.74	227.05
890.05	227.01
890.35	227.01
890.66	227.02
890.97	227.03
891.28	227.03
891.58	227.02
891.89	227.02
892.20	227.02
892.50	226.98
892.81	226.97
893.12	226.98
893.42	226.94
893.73	226.94
894.04	226.91
894.34	226.93
894.65	226.91
894.95	226.91
895.26	226.92
895.57	226.97
895.87	226.84
896.18	226.81
896.48	226.85
896.79	226.83
897.10	226.85
897.40	226.84
897.71	226.87
898.01	226.86
898.32	226.88
898.63	226.90
898.93	226.91
899.24	226.93
899.54	226.91
899.85	226.91
900.15	226.86
900.46	226.86
900.76	226.88
901.07	226.87
901.38	226.85
901.68	226.86
901.99	226.81
902.29	226.82
902.60	226.82
902.90	226.78
903.21	226.80
903.51	226.78
903.82	226.82
904.12	226.82
904.43	226.85
904.73	226.85
905.03	226.86
905.34	226.94
905.64	226.92
905.95	226.92
906.25	226.92
906.56	226.96
906.86	226.95
907.17	226.93
907.47	226.93
907.77	226.95
908.08	226.93
908.38	226.96
908.69	227.01
908.99	227.06
909.30	227.07
909.60	227.06
909.90	227.08
910.21	227.06
910.51	227.07
910.81	227.07
911.12	227.08
911.42	227.07
911.73	226.97
912.03	226.99
912.33	226.99
912.64	226.98
912.94	226.97
913.24	226.97
913.55	226.97
913.85	227.00
914.15	226.99
914.46	226.98
914.76	226.95
915.06	226.94
915.37	226.89
915.67	226.90
915.97	226.89
916.27	226.86
916.58	226.85
916.88	226.81
917.18	226.79
917.49	226.83
917.79	226.84
918.09	226.88
918.39	226.89
918.70	226.85
919.00	226.85
919.30	226.90
919.60	226.88
919.91	226.86
920.21	226.85
920.51	226.84
920.81	226.84
921.12	226.84
921.42	226.80
921.72	226.79
922.02	226.80
922.32	226.80
922.63	226.79
922.93	226.84
923.23	226.85
923.53	226.84
923.83	226.77
924.13	226.77
924.44	226.81
924.74	226.84
925.04	226.89
925.34	226.88
925.64	226.82
925.94	226.84
926.24	226.89
926.55	226.84
926.85	226.85
927.15	226.86
927.45	226.88
927.75	226.92
928.05	226.97
928.35	226.97
928.65	226.96
928.95	226.99
929.26	226.94
929.56	226.93
929.86	227.00
930.16	227.03
930.46	227.02
930.76	226.96
931.06	226.94
931.36	226.90
931.66	226.93
931.96	226.96
932.26	226.97
932.56	226.95
932.86	227.00
933.16	227.00
933.46	227.01
933.76	227.00
934.06	227.03
934.36	227.06
934.66	227.04
934.96	227.07
935.26	227.08
935.56	227.11
935.86	227.14
936.16	227.07
936.46	227.07
936.76	227.07
937.06	227.09
937.36	227.07
937.66	227.05
937.96	227.05
938.26	227.04
938.56	227.06
938.86	227.07
939.16	227.04
939.46	227.06
939.76	227.07
940.06	227.09
940.35	227.07
940.65	227.01
940.95	227.06
941.25	227.03
941.55	226.99
941.85	227.00
942.15	227.02
942.45	227.05
942.75	227.00
943.04	227.03
943.34	227.02
943.64	227.01
943.94	227.02
944.24	227.01
944.54	227.02
944.84	226.98
945.13	226.93
945.43	226.93
945.73	226.92
946.03	226.90
946.33	226.87
946.62	226.83
946.92	226.83
947.22	226.83
947.52	226.83
947.82	226.83
948.11	226.80
948.41	226.74
948.71	226.73
949.01	226.75
949.31	226.72
949.60	226.72
949.90	226.74
950.20	226.75
950.50	226.73
950.79	226.67
951.09	226.72
951.39	226.75
951.69	226.76
951.98	226.75
952.28	226.73
952.58	226.70
952.87	226.72
953.17	226.73
953.47	226.71
953.76	226.70
954.06	226.71
954.36	226.70
954.66	226.68
954.95	226.70
955.25	226.70
955.55	226.70
955.84	226.68
956.14	226.69
956.44	226.67
956.73	226.65
957.03	226.66
957.32	226.66
957.62	226.65
957.92	226.64
958.21	226.62
958.51	226.71
958.81	226.72
959.10	226.71
959.40	226.70
959.69	226.69
959.99	226.70
960.29	226.69
960.58	226.71
960.88	226.77
961.17	226.73
961.47	226.73
961.76	226.76
962.06	226.77
962.36	226.75
962.65	226.76
962.95	226.78
963.24	226.77
963.54	226.75
963.83	226.74
964.13	226.73
964.42	226.73
964.72	226.70
965.01	226.69
965.31	226.68
965.60	226.68
965.90	226.73
966.19	226.71
966.49	226.71
966.78	226.68
967.08	226.66
967.37	226.68
967.67	226.65
967.96	226.67
968.26	226.64
968.55	226.65
968.85	226.64
969.14	226.67
969.43	226.66
969.73	226.65
970.02	226.69
970.32	226.70
970.61	226.71
970.91	226.68
971.20	226.68
971.49	226.71
971.79	226.74
972.08	226.68
972.38	226.70
972.67	226.69
972.96	226.74
973.26	226.72
973.55	226.77
973.85	226.77
974.14	226.74
974.43	226.76
974.73	226.77
975.02	226.78
975.31	226.77
975.61	226.80
975.90	226.82
976.19	226.78
976.49	226.80
976.78	226.81
977.07	226.82
977.37	226.84
977.66	226.81
977.95	226.79
978.24	226.80
978.54	226.82
978.83	226.83
979.12	226.80
979.42	226.82
979.71	226.78
980.00	226.80
980.29	226.82
980.59	226.82
980.88	226.82
981.17	226.83
981.46	226.83
981.76	226.82
982.05	226.84
982.34	226.83
982.63	226.83
982.93	226.82
983.22	226.82
983.51	226.84
983.80	226.88
984.09	226.88
984.39	226.87
984.68	226.87
984.97	226.87
985.26	226.85
985.55	226.83
985.85	226.82
986.14	226.82
986.43	226.85
986.72	226.83
987.01	226.79
987.30	226.81
987.59	226.78
987.89	226.77
988.18	226.76
988.47	226.78
988.76	226.75
989.05	226.76
989.34	226.76
989.63	226.78
989.92	226.77
990.22	226.75
990.51	226.77
990.80	226.75
991.09	226.78
991.38	226.81
991.67	226.81
991.96	226.82
992.25	226.81
992.54	226.76
992.83	226.76
993.12	226.77
993.41	226.77
993.70	226.83
993.99	226.87
994.28	226.89
994.58	226.89
994.87	226.90
995.16	226.88
995.45	226.85
995.74	226.80
996.03	226.79
996.32	226.79
996.61	226.78
996.90	226.77
997.19	226.75
997.48	226.74
997.77	226.72
998.06	226.72
998.34	226.73
998.63	226.76
998.92	226.74
999.21	226.76
999.50	226.74
999.79	226.69
1000.08	226.67
1000.37	226.64
1000.66	226.61
1000.95	226.63
1001.24	226.62
1001.53	226.62
1001.82	226.64
1002.11	226.61
1002.40	226.63
1002.68	226.66
1002.97	226.71
1003.26	226.72
1003.55	226.70
1003.84	226.72
1004.13	226.76
1004.42	226.74
1004.71	226.73
1004.99	226.73
1005.28	226.78
1005.57	226.76
1005.86	226.80
1006.15	226.80
1006.44	226.82
1006.72	226.84
1007.01	226.82
1007.30	226.85
1007.59	226.85
1007.88	226.83
1008.17	226.85
1008.45	226.81
1008.74	226.81
1009.03	226.74
1009.32	226.72
1009.60	226.78
1009.89	226.80
1010.18	226.75
1010.47	226.77
1010.76	226.76
1011.04	226.77
1011.33	226.72
1011.62	226.75
1011.91	226.74
1012.19	226.73
1012.48	226.74
1012.77	226.76
1013.05	226.83
1013.34	226.82
1013.63	226.82
1013.92	226.82
1014.20	226.81
1014.49	226.82
1014.78	226.79
1015.06	226.79
1015.35	226.77
1015.64	226.74
1015.92	226.73
1016.21	226.74
1016.50	226.72
1016.78	226.74
1017.07	226.72
1017.36	226.73
1017.64	226.71
1017.93	226.72
1018.22	226.74
1018.50	226.72
1018.79	226.72
1019.08	226.68
1019.36	226.67
1019.65	226.68
1019.93	226.73
1020.22	226.76
1020.51	226.87
1020.79	226.86
1021.08	226.82
1021.36	226.69
1021.65	227.39
1021.94	227.11
1022.22	226.51
1022.51	226.87
1022.79	227.61
1023.08	227.09
1023.36	228.58
1023.65	226.11
>>>>>End Processed Spectral Data<<<<<
