SpectraSuite Data File
++++++++++++++++++++++++++++++++++++
Date: Fri Feb 01 17:03:13 EST 2013
User: group
Dark Spectrum Present: No
Reference Spectrum Present: No
Number of Sampled Component Spectra: 1
Spectrometers: USB2E7196
Integration Time (usec): 35000 (USB2E7196)
Spectra Averaged: 100 (USB2E7196)
Boxcar Smoothing: 10 (USB2E7196)
Correct for Electrical Dark: No (USB2E7196)
Strobe/Lamp Enabled: No (USB2E7196)
Correct for Detector Non-linearity: No (USB2E7196)
Correct for Stray Light: No (USB2E7196)
Number of Pixels in Processed Spectrum: 2048
>>>>>Begin Processed Spectral Data<<<<<
339.09	0.00
339.48	213.35
339.86	214.55
340.24	215.58
340.63	217.51
341.01	220.25
341.39	220.13
341.78	221.76
342.16	223.19
342.54	223.30
342.93	211.77
343.31	222.48
343.69	223.03
344.07	223.50
344.46	223.95
344.84	224.34
345.22	224.58
345.60	224.85
345.99	225.03
346.37	225.17
346.75	225.27
347.13	225.36
347.52	225.40
347.90	225.47
348.28	225.51
348.66	225.55
349.05	225.55
349.43	225.61
349.81	225.65
350.19	225.68
350.57	225.72
350.96	225.79
351.34	225.87
351.72	225.94
352.10	226.03
352.48	226.13
352.87	226.17
353.25	226.26
353.63	226.31
354.01	226.36
354.39	226.42
354.77	226.48
355.15	226.58
355.54	226.63
355.92	226.69
356.30	226.77
356.68	226.86
357.06	226.96
357.44	227.00
357.82	227.05
358.20	227.13
358.58	227.17
358.97	227.19
359.35	227.27
359.73	227.35
360.11	227.41
360.49	227.43
360.87	227.45
361.25	227.47
361.63	227.54
362.01	227.61
362.39	227.60
362.77	227.68
363.15	227.69
363.53	227.74
363.91	227.77
364.29	227.75
364.67	227.69
365.05	227.70
365.43	227.73
365.81	227.73
366.19	227.77
366.57	227.81
366.95	227.83
367.33	227.79
367.71	227.75
368.09	227.75
368.47	227.73
368.85	227.74
369.23	227.73
369.61	227.68
369.99	227.66
370.37	227.69
370.75	227.69
371.13	227.63
371.51	227.57
371.89	227.52
372.27	227.47
372.65	227.44
373.03	227.37
373.41	227.31
373.78	227.29
374.16	227.18
374.54	227.09
374.92	227.03
375.30	226.97
375.68	226.93
376.06	226.88
376.44	226.85
376.82	226.79
377.19	226.73
377.57	226.67
377.95	226.56
378.33	226.48
378.71	226.34
379.09	226.30
379.47	226.25
379.84	226.18
380.22	226.14
380.60	226.06
380.98	225.99
381.36	225.95
381.73	225.86
382.11	225.79
382.49	225.76
382.87	225.67
383.25	225.64
383.62	225.71
384.00	225.63
384.38	225.59
384.76	225.56
385.13	225.55
385.51	225.54
385.89	225.49
386.27	225.43
386.64	225.42
387.02	225.36
387.40	225.34
387.78	225.31
388.15	225.32
388.53	225.27
388.91	225.24
389.29	225.20
389.66	225.18
390.04	225.18
390.42	225.16
390.79	225.14
391.17	225.14
391.55	225.02
391.92	225.00
392.30	225.01
392.68	224.97
393.05	224.94
393.43	224.93
393.81	224.96
394.18	224.97
394.56	224.94
394.94	224.97
395.31	224.97
395.69	225.00
396.06	225.01
396.44	225.05
396.82	225.06
397.19	225.12
397.57	225.14
397.95	225.22
398.32	225.25
398.70	225.30
399.07	225.35
399.45	225.36
399.82	225.40
400.20	225.45
400.58	225.54
400.95	225.59
401.33	225.66
401.70	225.80
402.08	225.87
402.45	225.98
402.83	226.08
403.20	226.16
403.58	226.25
403.95	226.37
404.33	226.49
404.71	226.59
405.08	226.77
405.46	226.92
405.83	227.03
406.21	227.18
406.58	227.33
406.96	227.45
407.33	227.64
407.70	227.83
408.08	228.09
408.45	228.28
408.83	228.51
409.20	228.71
409.58	228.84
409.95	229.10
410.33	229.37
410.70	229.60
411.08	229.91
411.45	230.22
411.82	230.49
412.20	230.84
412.57	231.29
412.95	231.55
413.32	231.94
413.69	232.36
414.07	232.75
414.44	233.24
414.82	233.73
415.19	234.28
415.56	234.80
415.94	235.31
416.31	235.95
416.68	236.59
417.06	237.31
417.43	238.02
417.81	238.78
418.18	239.49
418.55	240.34
418.93	241.20
419.30	242.06
419.67	243.01
420.04	244.00
420.42	244.91
420.79	246.12
421.16	247.27
421.54	248.43
421.91	249.65
422.28	250.88
422.66	252.23
423.03	253.56
423.40	254.91
423.77	256.33
424.15	257.72
424.52	259.19
424.89	260.77
425.26	262.31
425.64	263.75
426.01	265.34
426.38	266.96
426.75	268.61
427.13	270.37
427.50	272.18
427.87	274.01
428.24	275.90
428.61	277.60
428.99	279.54
429.36	281.61
429.73	283.71
430.10	285.74
430.47	287.75
430.85	289.81
431.22	292.02
431.59	294.40
431.96	296.63
432.33	299.10
432.70	301.45
433.08	304.23
433.45	306.87
433.82	309.50
434.19	312.40
434.56	315.20
434.93	317.85
435.30	320.43
435.68	323.25
436.05	326.05
436.42	328.85
436.79	331.32
437.16	334.04
437.53	336.83
437.90	339.56
438.27	342.28
438.64	345.08
439.01	347.67
439.38	349.83
439.75	352.02
440.13	354.49
440.50	356.85
440.87	358.64
441.24	360.56
441.61	362.69
441.98	364.17
442.35	365.98
442.72	367.80
443.09	369.60
443.46	370.62
443.83	371.27
444.20	371.81
444.57	372.67
444.94	372.94
445.31	373.25
445.68	373.69
446.05	373.80
446.42	373.45
446.79	373.01
447.16	372.64
447.53	372.30
447.90	371.13
448.27	369.95
448.64	368.44
449.01	367.33
449.37	365.36
449.74	363.52
450.11	361.25
450.48	358.79
450.85	356.30
451.22	354.20
451.59	352.17
451.96	350.21
452.33	347.57
452.70	345.27
453.07	342.48
453.43	339.59
453.80	336.83
454.17	334.18
454.54	331.66
454.91	328.94
455.28	326.24
455.65	323.78
456.02	321.37
456.38	319.20
456.75	316.50
457.12	314.29
457.49	312.04
457.86	309.91
458.23	308.05
458.59	305.99
458.96	303.88
459.33	302.00
459.70	300.16
460.07	298.70
460.43	296.98
460.80	295.39
461.17	293.92
461.54	292.41
461.91	290.97
462.27	289.47
462.64	288.21
463.01	286.90
463.38	285.64
463.74	284.24
464.11	283.07
464.48	282.08
464.85	280.95
465.21	280.08
465.58	279.17
465.95	278.12
466.32	277.25
466.68	276.37
467.05	275.52
467.42	274.61
467.78	273.65
468.15	272.79
468.52	272.11
468.88	271.28
469.25	270.54
469.62	269.97
469.98	269.35
470.35	268.73
470.72	268.16
471.08	267.52
471.45	266.99
471.82	266.49
472.18	265.92
472.55	265.48
472.92	265.02
473.28	264.57
473.65	264.10
474.02	263.68
474.38	263.35
474.75	263.07
475.11	262.75
475.48	262.56
475.85	262.33
476.21	262.14
476.58	261.97
476.94	261.85
477.31	261.71
477.67	261.58
478.04	261.51
478.41	261.46
478.77	261.52
479.14	261.49
479.50	261.51
479.87	261.59
480.23	261.73
480.60	261.80
480.96	261.88
481.33	262.15
481.69	262.30
482.06	262.50
482.42	262.66
482.79	262.91
483.15	263.22
483.52	263.59
483.88	263.96
484.25	264.36
484.61	264.82
484.98	265.27
485.34	265.82
485.71	266.39
486.07	267.02
486.44	267.61
486.80	268.30
487.17	269.08
487.53	269.88
487.90	270.73
488.26	271.69
488.62	272.69
488.99	273.65
489.35	274.75
489.72	275.89
490.08	277.11
490.44	278.41
490.81	279.71
491.17	281.05
491.54	282.53
491.90	284.10
492.26	285.69
492.63	287.45
492.99	289.23
493.36	291.11
493.72	293.15
494.08	295.25
494.45	297.47
494.81	299.81
495.17	302.24
495.54	304.78
495.90	307.41
496.26	310.20
496.63	313.12
496.99	316.21
497.35	319.46
497.72	322.84
498.08	326.32
498.44	330.01
498.80	333.94
499.17	337.94
499.53	342.09
499.89	346.44
500.26	350.86
500.62	355.52
500.98	360.47
501.34	365.48
501.71	370.76
502.07	376.20
502.43	381.76
502.79	387.53
503.16	393.55
503.52	399.77
503.88	406.14
504.24	412.72
504.60	419.55
504.97	426.59
505.33	433.82
505.69	441.46
506.05	449.11
506.41	456.89
506.78	464.93
507.14	473.22
507.50	481.82
507.86	490.72
508.22	499.86
508.59	509.01
508.95	518.54
509.31	528.24
509.67	538.18
510.03	548.40
510.39	558.81
510.75	569.48
511.12	580.23
511.48	591.35
511.84	602.68
512.20	614.01
512.56	625.80
512.92	637.78
513.28	649.93
513.64	662.32
514.00	674.88
514.37	687.62
514.73	700.48
515.09	713.37
515.45	726.47
515.81	739.69
516.17	753.38
516.53	767.23
516.89	781.13
517.25	795.06
517.61	809.19
517.97	823.35
518.33	837.53
518.69	852.13
519.05	866.86
519.41	881.74
519.77	896.96
520.13	912.09
520.49	927.33
520.85	942.44
521.21	957.71
521.57	973.64
521.93	989.06
522.29	1005.17
522.65	1021.02
523.01	1036.89
523.37	1052.59
523.73	1068.56
524.09	1084.45
524.45	1100.41
524.81	1116.79
525.17	1133.14
525.53	1149.71
525.89	1166.17
526.25	1182.67
526.61	1198.67
526.97	1215.10
527.33	1231.20
527.68	1247.43
528.04	1263.42
528.40	1279.68
528.76	1296.46
529.12	1312.67
529.48	1329.29
529.84	1345.04
530.20	1361.33
530.56	1377.90
530.91	1395.04
531.27	1411.41
531.63	1427.39
531.99	1443.67
532.35	1459.34
532.71	1474.98
533.07	1490.98
533.42	1506.59
533.78	1522.31
534.14	1538.23
534.50	1553.15
534.86	1568.65
535.21	1583.51
535.57	1599.06
535.93	1614.08
536.29	1628.54
536.65	1643.23
537.00	1657.56
537.36	1672.55
537.72	1686.70
538.08	1700.89
538.44	1714.37
538.79	1727.92
539.15	1741.04
539.51	1754.40
539.87	1768.33
540.22	1781.57
540.58	1794.81
540.94	1807.81
541.29	1820.20
541.65	1832.44
542.01	1845.46
542.37	1857.65
542.72	1869.82
543.08	1881.45
543.44	1893.62
543.79	1904.67
544.15	1915.42
544.51	1926.85
544.87	1937.44
545.22	1948.07
545.58	1958.19
545.94	1967.72
546.29	1977.27
546.65	1987.15
547.01	1996.30
547.36	2004.79
547.72	2013.24
548.07	2021.26
548.43	2029.20
548.79	2037.08
549.14	2044.74
549.50	2051.81
549.86	2059.20
550.21	2066.41
550.57	2073.52
550.92	2080.03
551.28	2086.86
551.64	2093.95
551.99	2100.38
552.35	2106.57
552.70	2112.69
553.06	2118.60
553.41	2124.98
553.77	2130.97
554.13	2136.97
554.48	2143.08
554.84	2148.80
555.19	2154.08
555.55	2159.19
555.90	2163.80
556.26	2168.83
556.61	2173.56
556.97	2178.04
557.32	2182.26
557.68	2186.44
558.03	2190.77
558.39	2194.54
558.74	2199.13
559.10	2203.06
559.45	2206.72
559.81	2210.99
560.16	2214.95
560.52	2218.25
560.87	2221.80
561.23	2224.41
561.58	2227.29
561.94	2229.85
562.29	2232.04
562.64	2235.01
563.00	2237.66
563.35	2241.15
563.71	2244.34
564.06	2247.57
564.42	2250.52
564.77	2253.33
565.12	2255.75
565.48	2257.85
565.83	2259.96
566.19	2261.68
566.54	2262.45
566.89	2263.73
567.25	2264.55
567.60	2265.94
567.96	2267.98
568.31	2268.73
568.66	2270.24
569.02	2271.16
569.37	2271.65
569.72	2272.84
570.08	2272.99
570.43	2273.13
570.78	2272.89
571.14	2271.55
571.49	2270.35
571.84	2270.31
572.20	2269.38
572.55	2268.47
572.90	2266.77
573.26	2265.50
573.61	2263.85
573.96	2262.52
574.31	2259.88
574.67	2257.15
575.02	2253.67
575.37	2250.30
575.72	2246.96
576.08	2243.73
576.43	2240.50
576.78	2237.22
577.13	2233.96
577.49	2230.89
577.84	2227.74
578.19	2224.10
578.54	2220.83
578.90	2217.02
579.25	2211.68
579.60	2206.90
579.95	2202.13
580.30	2197.43
580.66	2192.40
581.01	2187.56
581.36	2182.80
581.71	2178.82
582.06	2174.58
582.42	2170.46
582.77	2165.45
583.12	2161.10
583.47	2156.78
583.82	2152.18
584.17	2147.07
584.53	2141.92
584.88	2136.64
585.23	2131.16
585.58	2125.79
585.93	2120.31
586.28	2115.50
586.63	2110.59
586.98	2105.58
587.34	2101.06
587.69	2096.35
588.04	2091.50
588.39	2086.18
588.74	2079.83
589.09	2073.90
589.44	2067.38
589.79	2061.26
590.14	2055.67
590.49	2049.15
590.84	2042.70
591.19	2036.90
591.54	2030.65
591.89	2023.66
592.25	2017.22
592.60	2010.06
592.95	2002.91
593.30	1995.86
593.65	1988.60
594.00	1981.58
594.35	1974.55
594.70	1966.71
595.05	1959.86
595.40	1952.68
595.75	1945.37
596.10	1939.52
596.45	1932.92
596.80	1926.94
597.15	1920.74
597.50	1914.11
597.85	1907.82
598.19	1901.52
598.54	1894.69
598.89	1888.22
599.24	1882.37
599.59	1875.91
599.94	1869.80
600.29	1863.57
600.64	1857.20
600.99	1849.88
601.34	1843.35
601.69	1836.41
602.04	1829.72
602.39	1822.54
602.74	1815.81
603.08	1809.18
603.43	1802.48
603.78	1795.36
604.13	1788.16
604.48	1780.96
604.83	1774.16
605.18	1767.57
605.53	1759.76
605.87	1751.72
606.22	1744.44
606.57	1736.56
606.92	1729.09
607.27	1722.18
607.62	1715.36
607.96	1708.17
608.31	1701.83
608.66	1694.42
609.01	1687.24
609.36	1679.77
609.70	1671.75
610.05	1663.81
610.40	1656.27
610.75	1648.13
611.10	1640.54
611.44	1632.17
611.79	1624.12
612.14	1615.57
612.49	1606.35
612.83	1597.97
613.18	1589.97
613.53	1582.08
613.88	1573.63
614.22	1565.55
614.57	1556.80
614.92	1548.84
615.27	1541.40
615.61	1533.03
615.96	1525.00
616.31	1517.34
616.65	1510.03
617.00	1502.62
617.35	1495.02
617.70	1486.85
618.04	1478.31
618.39	1470.09
618.74	1462.71
619.08	1454.53
619.43	1446.83
619.78	1439.87
620.12	1432.77
620.47	1425.22
620.82	1417.05
621.16	1409.55
621.51	1401.89
621.85	1394.35
622.20	1385.89
622.55	1377.53
622.89	1369.70
623.24	1361.91
623.59	1354.37
623.93	1346.87
624.28	1339.59
624.62	1332.12
624.97	1324.96
625.32	1318.31
625.66	1311.31
626.01	1304.10
626.35	1296.81
626.70	1289.11
627.04	1281.50
627.39	1273.67
627.73	1266.31
628.08	1259.55
628.43	1252.53
628.77	1245.34
629.12	1237.81
629.46	1230.62
629.81	1223.06
630.15	1215.88
630.50	1208.65
630.84	1200.63
631.19	1192.69
631.53	1185.25
631.88	1177.65
632.22	1170.02
632.57	1162.70
632.91	1155.21
633.26	1147.89
633.60	1140.38
633.95	1133.23
634.29	1126.17
634.64	1119.53
634.98	1112.17
635.32	1104.88
635.67	1098.13
636.01	1091.38
636.36	1084.76
636.70	1078.28
637.05	1071.80
637.39	1065.33
637.73	1058.79
638.08	1052.93
638.42	1046.97
638.77	1040.49
639.11	1034.02
639.45	1027.67
639.80	1021.03
640.14	1014.67
640.49	1008.16
640.83	1001.97
641.17	995.87
641.52	989.63
641.86	983.17
642.20	977.37
642.55	971.10
642.89	964.79
643.23	958.29
643.58	952.50
643.92	946.34
644.26	940.49
644.61	934.54
644.95	928.69
645.29	922.13
645.64	915.46
645.98	909.19
646.32	903.31
646.66	897.26
647.01	891.45
647.35	885.78
647.69	879.88
648.04	874.37
648.38	868.65
648.72	862.75
649.06	856.75
649.41	850.86
649.75	844.99
650.09	839.08
650.43	833.39
650.78	827.21
651.12	821.33
651.46	815.57
651.80	809.93
652.14	804.45
652.49	799.10
652.83	794.00
653.17	788.42
653.51	782.76
653.85	777.40
654.20	771.86
654.54	765.81
654.88	760.15
655.22	754.30
655.56	748.51
655.90	743.00
656.25	737.83
656.59	732.51
656.93	727.47
657.27	722.32
657.61	716.93
657.95	711.91
658.29	706.83
658.64	701.55
658.98	696.12
659.32	690.66
659.66	685.56
660.00	680.31
660.34	675.37
660.68	670.47
661.02	665.45
661.36	660.75
661.70	656.32
662.05	652.06
662.39	647.79
662.73	643.42
663.07	639.04
663.41	634.64
663.75	630.19
664.09	625.65
664.43	621.25
664.77	617.09
665.11	612.84
665.45	608.68
665.79	604.65
666.13	600.59
666.47	596.54
666.81	592.33
667.15	588.14
667.49	584.25
667.83	580.38
668.17	576.47
668.51	572.42
668.85	568.37
669.19	564.43
669.53	560.62
669.87	556.78
670.21	553.13
670.55	549.46
670.89	546.04
671.23	542.66
671.57	539.19
671.91	535.71
672.25	532.25
672.58	528.81
672.92	525.37
673.26	522.17
673.60	519.08
673.94	516.09
674.28	513.22
674.62	510.33
674.96	507.27
675.30	504.37
675.64	501.41
675.97	498.66
676.31	495.78
676.65	492.87
676.99	490.21
677.33	487.32
677.67	484.53
678.01	481.62
678.34	478.62
678.68	475.75
679.02	472.93
679.36	470.17
679.70	467.46
680.04	464.77
680.37	461.96
680.71	459.14
681.05	456.45
681.39	453.68
681.73	450.99
682.06	448.48
682.40	445.95
682.74	443.45
683.08	440.88
683.42	438.34
683.75	435.82
684.09	433.27
684.43	430.83
684.77	428.38
685.10	425.99
685.44	423.67
685.78	421.37
686.12	419.11
686.45	416.85
686.79	414.52
687.13	412.29
687.46	410.17
687.80	408.06
688.14	405.85
688.48	403.85
688.81	401.66
689.15	399.53
689.49	397.34
689.82	395.28
690.16	393.21
690.50	391.24
690.83	389.31
691.17	387.31
691.51	385.44
691.84	383.57
692.18	381.66
692.52	379.70
692.85	377.75
693.19	375.95
693.52	374.07
693.86	372.26
694.20	370.53
694.53	368.67
694.87	366.80
695.21	365.00
695.54	363.19
695.88	361.43
696.21	359.72
696.55	358.10
696.88	356.42
697.22	354.73
697.56	353.10
697.89	351.44
698.23	349.82
698.56	348.19
698.90	346.64
699.23	344.98
699.57	343.44
699.90	341.91
700.24	340.32
700.58	338.80
700.91	337.32
701.25	335.83
701.58	334.51
701.92	333.15
702.25	331.75
702.59	330.36
702.92	329.06
703.26	327.72
703.59	326.42
703.93	325.22
704.26	323.99
704.60	322.65
704.93	321.36
705.26	320.14
705.60	318.89
705.93	317.68
706.27	316.68
706.60	315.59
706.94	314.50
707.27	313.39
707.61	312.32
707.94	311.26
708.27	310.21
708.61	309.10
708.94	308.11
709.28	307.13
709.61	306.16
709.94	305.20
710.28	304.18
710.61	303.20
710.95	302.10
711.28	301.23
711.61	300.34
711.95	299.47
712.28	298.53
712.61	297.60
712.95	296.70
713.28	295.79
713.61	294.87
713.95	293.99
714.28	293.18
714.61	292.32
714.95	291.50
715.28	290.63
715.61	289.77
715.95	288.93
716.28	288.09
716.61	287.28
716.95	286.44
717.28	285.69
717.61	284.93
717.94	284.23
718.28	283.43
718.61	282.69
718.94	281.99
719.27	281.34
719.61	280.66
719.94	280.00
720.27	279.32
720.60	278.68
720.94	278.05
721.27	277.46
721.60	276.87
721.93	276.25
722.27	275.72
722.60	275.19
722.93	274.58
723.26	274.03
723.59	273.46
723.93	272.91
724.26	272.41
724.59	271.83
724.92	271.28
725.25	270.79
725.59	270.28
725.92	269.76
726.25	269.24
726.58	268.76
726.91	268.27
727.24	267.78
727.57	267.31
727.91	266.79
728.24	266.26
728.57	265.78
728.90	265.33
729.23	264.82
729.56	264.39
729.89	263.96
730.22	263.47
730.55	263.03
730.89	262.58
731.22	262.14
731.55	261.71
731.88	261.33
732.21	260.90
732.54	260.47
732.87	260.05
733.20	259.62
733.53	259.25
733.86	258.92
734.19	258.50
734.52	258.14
734.85	257.86
735.18	257.49
735.51	257.14
735.84	256.78
736.17	256.43
736.50	256.00
736.83	255.78
737.16	255.48
737.49	255.15
737.82	254.83
738.15	254.49
738.48	254.14
738.81	253.77
739.14	253.42
739.47	253.08
739.80	252.76
740.13	252.48
740.46	252.14
740.79	251.71
741.12	251.41
741.45	251.09
741.78	250.70
742.11	250.42
742.44	250.10
742.77	249.76
743.10	249.44
743.43	249.13
743.75	248.71
744.08	248.54
744.41	248.26
744.74	247.96
745.07	247.69
745.40	247.46
745.73	247.20
746.06	246.92
746.39	246.63
746.71	246.33
747.04	246.01
747.37	245.72
747.70	245.50
748.03	245.26
748.36	245.02
748.68	244.77
749.01	244.49
749.34	244.23
749.67	244.02
750.00	243.82
750.33	243.66
750.65	243.44
750.98	243.10
751.31	242.84
751.64	242.62
751.97	242.45
752.29	242.20
752.62	241.98
752.95	241.79
753.28	241.59
753.60	241.42
753.93	241.26
754.26	241.05
754.59	240.82
754.91	240.63
755.24	240.43
755.57	240.26
755.90	240.08
756.22	239.88
756.55	239.69
756.88	239.48
757.20	239.26
757.53	239.05
757.86	238.88
758.19	238.74
758.51	238.57
758.84	238.33
759.17	238.18
759.49	238.02
759.82	237.87
760.15	237.73
760.47	237.57
760.80	237.38
761.13	237.29
761.45	237.14
761.78	236.98
762.11	236.83
762.43	236.68
762.76	236.55
763.08	236.44
763.41	236.29
763.74	236.16
764.06	236.03
764.39	235.91
764.71	235.78
765.04	235.60
765.37	235.48
765.69	235.37
766.02	235.24
766.34	235.11
766.67	235.00
767.00	234.89
767.32	234.80
767.65	234.76
767.97	234.64
768.30	234.54
768.62	234.43
768.95	234.31
769.27	234.17
769.60	234.10
769.92	233.96
770.25	233.84
770.57	233.70
770.90	233.59
771.22	233.48
771.55	233.41
771.87	233.34
772.20	233.25
772.52	233.21
772.85	233.25
773.17	233.17
773.50	233.06
773.82	232.99
774.15	232.90
774.47	232.76
774.80	232.66
775.12	232.58
775.45	232.46
775.77	232.38
776.09	232.31
776.42	232.22
776.74	232.20
777.07	232.11
777.39	232.07
777.72	231.99
778.04	231.91
778.36	231.81
778.69	231.75
779.01	231.68
779.33	231.54
779.66	231.34
779.98	231.26
780.31	231.20
780.63	231.14
780.95	231.06
781.28	231.00
781.60	230.96
781.92	230.89
782.25	230.86
782.57	230.80
782.89	230.75
783.22	230.68
783.54	230.59
783.86	230.56
784.19	230.51
784.51	230.51
784.83	230.45
785.16	230.35
785.48	230.31
785.80	230.26
786.12	230.21
786.45	230.17
786.77	230.10
787.09	230.04
787.42	229.96
787.74	229.91
788.06	229.86
788.38	229.80
788.71	229.77
789.03	229.72
789.35	229.68
789.67	229.63
789.99	229.60
790.32	229.57
790.64	229.51
790.96	229.55
791.28	229.46
791.61	229.44
791.93	229.45
792.25	229.41
792.57	229.42
792.89	229.38
793.21	229.37
793.54	229.35
793.86	229.31
794.18	229.28
794.50	229.30
794.82	229.26
795.14	229.24
795.47	229.18
795.79	229.16
796.11	229.13
796.43	229.08
796.75	229.05
797.07	229.00
797.39	229.01
797.71	228.91
798.04	228.84
798.36	228.81
798.68	228.79
799.00	228.79
799.32	228.74
799.64	228.75
799.96	228.72
800.28	228.68
800.60	228.63
800.92	228.61
801.24	228.51
801.56	228.47
801.89	228.40
802.21	228.40
802.53	228.35
802.85	228.36
803.17	228.37
803.49	228.34
803.81	228.29
804.13	228.22
804.45	228.18
804.77	228.22
805.09	228.19
805.41	228.14
805.73	228.09
806.05	228.03
806.37	227.98
806.69	227.95
807.01	227.93
807.33	227.92
807.65	227.88
807.97	227.93
808.28	227.88
808.60	227.88
808.92	227.84
809.24	227.85
809.56	227.78
809.88	227.73
810.20	227.70
810.52	227.69
810.84	227.65
811.16	227.63
811.48	227.56
811.80	227.57
812.12	227.54
812.43	227.50
812.75	227.50
813.07	227.45
813.39	227.43
813.71	227.40
814.03	227.36
814.35	227.33
814.67	227.24
814.98	227.25
815.30	227.22
815.62	227.19
815.94	227.12
816.26	227.18
816.58	227.12
816.89	227.14
817.21	227.11
817.53	227.07
817.85	227.03
818.17	227.02
818.48	226.94
818.80	226.96
819.12	226.94
819.44	226.90
819.76	226.86
820.07	226.83
820.39	226.82
820.71	226.83
821.03	226.83
821.34	226.80
821.66	226.78
821.98	226.78
822.30	226.78
822.61	226.81
822.93	226.69
823.25	226.70
823.57	226.65
823.88	226.67
824.20	226.69
824.52	226.71
824.83	226.72
825.15	226.72
825.47	226.69
825.79	226.69
826.10	226.65
826.42	226.63
826.74	226.61
827.05	226.60
827.37	226.59
827.69	226.58
828.00	226.59
828.32	226.58
828.64	226.57
828.95	226.62
829.27	226.63
829.58	226.68
829.90	226.69
830.22	226.74
830.53	226.71
830.85	226.67
831.17	226.64
831.48	226.62
831.80	226.64
832.11	226.62
832.43	226.62
832.75	226.63
833.06	226.73
833.38	226.73
833.69	226.71
834.01	226.68
834.32	226.66
834.64	226.66
834.96	226.69
835.27	226.69
835.59	226.64
835.90	226.58
836.22	226.56
836.53	226.55
836.85	226.52
837.16	226.64
837.48	226.67
837.79	226.73
838.11	226.78
838.42	226.75
838.74	226.78
839.05	226.79
839.37	226.82
839.68	226.75
840.00	226.75
840.31	226.78
840.63	226.81
840.94	226.79
841.26	226.77
841.57	226.71
841.88	226.72
842.20	226.70
842.51	226.70
842.83	226.71
843.14	226.75
843.46	226.73
843.77	226.66
844.08	226.61
844.40	226.55
844.71	226.49
845.03	226.47
845.34	226.44
845.65	226.41
845.97	226.36
846.28	226.33
846.60	226.35
846.91	226.31
847.22	226.28
847.54	226.31
847.85	226.32
848.16	226.36
848.48	226.32
848.79	226.35
849.10	226.39
849.42	226.41
849.73	226.31
850.04	226.27
850.36	226.24
850.67	226.27
850.98	226.26
851.30	226.26
851.61	226.30
851.92	226.29
852.23	226.31
852.55	226.30
852.86	226.30
853.17	226.25
853.49	226.30
853.80	226.32
854.11	226.30
854.42	226.30
854.74	226.27
855.05	226.28
855.36	226.22
855.67	226.18
855.99	226.14
856.30	226.27
856.61	226.27
856.92	226.23
857.23	226.20
857.55	226.16
857.86	226.14
858.17	226.11
858.48	226.06
858.79	226.01
859.11	226.02
859.42	226.03
859.73	226.02
860.04	225.96
860.35	225.94
860.66	225.91
860.98	225.88
861.29	225.85
861.60	225.81
861.91	225.85
862.22	225.79
862.53	225.77
862.84	225.64
863.16	225.69
863.47	225.66
863.78	225.67
864.09	225.68
864.40	225.71
864.71	225.72
865.02	225.73
865.33	225.71
865.64	225.64
865.95	225.61
866.27	225.71
866.58	225.70
866.89	225.69
867.20	225.69
867.51	225.67
867.82	225.64
868.13	225.65
868.44	225.61
868.75	225.63
869.06	225.63
869.37	225.64
869.68	225.60
869.99	225.66
870.30	225.70
870.61	225.70
870.92	225.70
871.23	225.66
871.54	225.71
871.85	225.73
872.16	225.79
872.47	225.83
872.78	225.77
873.09	225.78
873.40	225.77
873.71	225.78
874.02	225.77
874.33	225.80
874.64	225.82
874.95	225.84
875.26	225.84
875.56	225.83
875.87	225.82
876.18	225.82
876.49	225.90
876.80	225.87
877.11	225.83
877.42	225.85
877.73	225.87
878.04	225.87
878.35	225.91
878.66	225.93
878.96	225.93
879.27	225.88
879.58	225.88
879.89	225.90
880.20	225.92
880.51	225.93
880.82	225.92
881.12	225.91
881.43	225.88
881.74	225.89
882.05	225.91
882.36	225.92
882.67	225.91
882.97	225.84
883.28	225.85
883.59	225.84
883.90	225.85
884.21	225.84
884.51	225.79
884.82	225.76
885.13	225.73
885.44	225.71
885.74	225.75
886.05	225.72
886.36	225.72
886.67	225.67
886.98	225.74
887.28	225.76
887.59	225.75
887.90	225.76
888.20	225.73
888.51	225.72
888.82	225.69
889.13	225.70
889.43	225.75
889.74	225.74
890.05	225.76
890.35	225.74
890.66	225.74
890.97	225.75
891.28	225.73
891.58	225.70
891.89	225.68
892.20	225.65
892.50	225.65
892.81	225.64
893.12	225.63
893.42	225.55
893.73	225.50
894.04	225.49
894.34	225.50
894.65	225.46
894.95	225.46
895.26	225.46
895.57	225.50
895.87	225.42
896.18	225.40
896.48	225.39
896.79	225.35
897.10	225.35
897.40	225.34
897.71	225.36
898.01	225.38
898.32	225.37
898.63	225.36
898.93	225.36
899.24	225.38
899.54	225.37
899.85	225.39
900.15	225.39
900.46	225.40
900.76	225.39
901.07	225.41
901.38	225.38
901.68	225.40
901.99	225.32
902.29	225.26
902.60	225.25
902.90	225.24
903.21	225.23
903.51	225.19
903.82	225.20
904.12	225.18
904.43	225.16
904.73	225.16
905.03	225.17
905.34	225.27
905.64	225.24
905.95	225.27
906.25	225.26
906.56	225.31
906.86	225.29
907.17	225.28
907.47	225.29
907.77	225.32
908.08	225.28
908.38	225.30
908.69	225.33
908.99	225.33
909.30	225.36
909.60	225.38
909.90	225.40
910.21	225.36
910.51	225.37
910.81	225.37
911.12	225.38
911.42	225.38
911.73	225.28
912.03	225.28
912.33	225.27
912.64	225.29
912.94	225.25
913.24	225.27
913.55	225.30
913.85	225.31
914.15	225.32
914.46	225.34
914.76	225.37
915.06	225.38
915.37	225.36
915.67	225.36
915.97	225.38
916.27	225.37
916.58	225.43
916.88	225.42
917.18	225.39
917.49	225.49
917.79	225.50
918.09	225.55
918.39	225.59
918.70	225.61
919.00	225.61
919.30	225.70
919.60	225.68
919.91	225.64
920.21	225.67
920.51	225.62
920.81	225.65
921.12	225.63
921.42	225.63
921.72	225.67
922.02	225.66
922.32	225.66
922.63	225.69
922.93	225.72
923.23	225.75
923.53	225.76
923.83	225.70
924.13	225.70
924.44	225.69
924.74	225.69
925.04	225.69
925.34	225.67
925.64	225.61
925.94	225.60
926.24	225.68
926.55	225.65
926.85	225.68
927.15	225.66
927.45	225.63
927.75	225.67
928.05	225.67
928.35	225.64
928.65	225.67
928.95	225.62
929.26	225.57
929.56	225.55
929.86	225.54
930.16	225.50
930.46	225.47
930.76	225.48
931.06	225.44
931.36	225.42
931.66	225.42
931.96	225.40
932.26	225.39
932.56	225.31
932.86	225.30
933.16	225.30
933.46	225.27
933.76	225.26
934.06	225.26
934.36	225.23
934.66	225.24
934.96	225.19
935.26	225.22
935.56	225.22
935.86	225.19
936.16	225.18
936.46	225.19
936.76	225.20
937.06	225.12
937.36	225.10
937.66	225.06
937.96	225.07
938.26	225.05
938.56	225.05
938.86	225.05
939.16	225.06
939.46	225.01
939.76	225.06
940.06	225.07
940.35	225.05
940.65	225.01
940.95	225.01
941.25	224.99
941.55	224.93
941.85	224.94
942.15	224.96
942.45	224.99
942.75	224.96
943.04	224.97
943.34	225.00
943.64	225.01
943.94	225.02
944.24	225.02
944.54	225.03
944.84	225.03
945.13	225.05
945.43	225.04
945.73	225.05
946.03	225.02
946.33	224.99
946.62	224.99
946.92	225.01
947.22	225.02
947.52	225.04
947.82	225.06
948.11	225.02
948.41	225.00
948.71	224.99
949.01	225.02
949.31	225.04
949.60	225.04
949.90	225.05
950.20	225.07
950.50	225.07
950.79	225.07
951.09	225.12
951.39	225.10
951.69	225.09
951.98	225.13
952.28	225.13
952.58	225.13
952.87	225.12
953.17	225.15
953.47	225.11
953.76	225.11
954.06	225.11
954.36	225.14
954.66	225.14
954.95	225.12
955.25	225.13
955.55	225.11
955.84	225.10
956.14	225.09
956.44	225.08
956.73	225.08
957.03	225.10
957.32	225.08
957.62	225.09
957.92	225.12
958.21	225.10
958.51	225.20
958.81	225.24
959.10	225.27
959.40	225.30
959.69	225.35
959.99	225.38
960.29	225.38
960.58	225.37
960.88	225.43
961.17	225.44
961.47	225.44
961.76	225.42
962.06	225.46
962.36	225.46
962.65	225.49
962.95	225.47
963.24	225.46
963.54	225.42
963.83	225.45
964.13	225.45
964.42	225.43
964.72	225.37
965.01	225.33
965.31	225.31
965.60	225.28
965.90	225.31
966.19	225.27
966.49	225.28
966.78	225.26
967.08	225.22
967.37	225.25
967.67	225.22
967.96	225.26
968.26	225.24
968.55	225.24
968.85	225.20
969.14	225.18
969.43	225.17
969.73	225.18
970.02	225.16
970.32	225.14
970.61	225.14
970.91	225.11
971.20	225.11
971.49	225.10
971.79	225.12
972.08	225.06
972.38	225.07
972.67	225.06
972.96	225.09
973.26	225.05
973.55	225.07
973.85	225.08
974.14	225.07
974.43	225.06
974.73	225.06
975.02	225.04
975.31	225.04
975.61	225.05
975.90	225.07
976.19	225.05
976.49	225.07
976.78	225.06
977.07	225.07
977.37	225.06
977.66	225.07
977.95	225.06
978.24	225.05
978.54	225.08
978.83	225.08
979.12	225.07
979.42	225.09
979.71	225.07
980.00	225.04
980.29	225.03
980.59	225.05
980.88	225.05
981.17	225.08
981.46	225.11
981.76	225.09
982.05	225.10
982.34	225.12
982.63	225.11
982.93	225.13
983.22	225.15
983.51	225.17
983.80	225.18
984.09	225.20
984.39	225.22
984.68	225.21
984.97	225.22
985.26	225.22
985.55	225.23
985.85	225.22
986.14	225.27
986.43	225.28
986.72	225.26
987.01	225.26
987.30	225.25
987.59	225.27
987.89	225.28
988.18	225.26
988.47	225.25
988.76	225.25
989.05	225.21
989.34	225.21
989.63	225.24
989.92	225.23
990.22	225.21
990.51	225.21
990.80	225.24
991.09	225.25
991.38	225.26
991.67	225.23
991.96	225.25
992.25	225.26
992.54	225.27
992.83	225.28
993.12	225.27
993.41	225.28
993.70	225.30
993.99	225.35
994.28	225.34
994.58	225.34
994.87	225.36
995.16	225.39
995.45	225.42
995.74	225.37
996.03	225.40
996.32	225.42
996.61	225.41
996.90	225.39
997.19	225.37
997.48	225.35
997.77	225.35
998.06	225.34
998.34	225.33
998.63	225.29
998.92	225.31
999.21	225.31
999.50	225.32
999.79	225.29
1000.08	225.27
1000.37	225.28
1000.66	225.27
1000.95	225.27
1001.24	225.27
1001.53	225.24
1001.82	225.23
1002.11	225.21
1002.40	225.21
1002.68	225.24
1002.97	225.28
1003.26	225.27
1003.55	225.28
1003.84	225.28
1004.13	225.32
1004.42	225.27
1004.71	225.28
1004.99	225.24
1005.28	225.27
1005.57	225.25
1005.86	225.23
1006.15	225.25
1006.44	225.22
1006.72	225.24
1007.01	225.22
1007.30	225.22
1007.59	225.22
1007.88	225.23
1008.17	225.23
1008.45	225.19
1008.74	225.17
1009.03	225.14
1009.32	225.16
1009.60	225.12
1009.89	225.13
1010.18	225.07
1010.47	225.09
1010.76	225.07
1011.04	225.08
1011.33	225.06
1011.62	225.10
1011.91	225.10
1012.19	225.10
1012.48	225.12
1012.77	225.09
1013.05	225.11
1013.34	225.10
1013.63	225.10
1013.92	225.10
1014.20	225.08
1014.49	225.08
1014.78	225.06
1015.06	225.03
1015.35	225.00
1015.64	225.04
1015.92	225.02
1016.21	225.07
1016.50	225.07
1016.78	225.08
1017.07	225.09
1017.36	225.07
1017.64	225.02
1017.93	225.03
1018.22	224.99
1018.50	225.00
1018.79	225.00
1019.08	224.96
1019.36	224.98
1019.65	224.94
1019.93	224.97
1020.22	224.98
1020.51	225.06
1020.79	225.05
1021.08	224.92
1021.36	224.95
1021.65	224.90
1021.94	225.02
1022.22	225.25
1022.51	224.45
1022.79	225.47
1023.08	225.04
1023.36	226.55
1023.65	224.89
>>>>>End Processed Spectral Data<<<<<
