SpectraSuite Data File
++++++++++++++++++++++++++++++++++++
Date: Fri Feb 01 16:53:49 EST 2013
User: group
Dark Spectrum Present: No
Reference Spectrum Present: No
Number of Sampled Component Spectra: 1
Spectrometers: USB2E7196
Integration Time (usec): 35000 (USB2E7196)
Spectra Averaged: 100 (USB2E7196)
Boxcar Smoothing: 10 (USB2E7196)
Correct for Electrical Dark: No (USB2E7196)
Strobe/Lamp Enabled: No (USB2E7196)
Correct for Detector Non-linearity: No (USB2E7196)
Correct for Stray Light: No (USB2E7196)
Number of Pixels in Processed Spectrum: 2048
>>>>>Begin Processed Spectral Data<<<<<
339.09	0.00
339.48	214.36
339.86	214.79
340.24	216.09
340.63	217.54
341.01	219.97
341.39	220.17
341.78	221.55
342.16	222.95
342.54	222.89
342.93	211.70
343.31	222.37
343.69	222.86
344.07	223.30
344.46	223.71
344.84	224.07
345.22	224.32
345.60	224.57
345.99	224.74
346.37	224.84
346.75	224.99
347.13	225.01
347.52	225.08
347.90	225.11
348.28	225.12
348.66	225.18
349.05	225.15
349.43	225.16
349.81	225.17
350.19	225.20
350.57	225.26
350.96	225.35
351.34	225.45
351.72	225.54
352.10	225.65
352.48	225.74
352.87	225.79
353.25	225.86
353.63	225.90
354.01	225.96
354.39	226.06
354.77	226.11
355.15	226.23
355.54	226.28
355.92	226.34
356.30	226.41
356.68	226.50
357.06	226.58
357.44	226.62
357.82	226.69
358.20	226.76
358.58	226.81
358.97	226.92
359.35	226.97
359.73	227.04
360.11	227.07
360.49	227.13
360.87	227.13
361.25	227.19
361.63	227.28
362.01	227.32
362.39	227.37
362.77	227.37
363.15	227.41
363.53	227.46
363.91	227.51
364.29	227.55
364.67	227.49
365.05	227.50
365.43	227.56
365.81	227.60
366.19	227.64
366.57	227.71
366.95	227.65
367.33	227.64
367.71	227.62
368.09	227.64
368.47	227.63
368.85	227.67
369.23	227.65
369.61	227.60
369.99	227.62
370.37	227.62
370.75	227.68
371.13	227.67
371.51	227.61
371.89	227.59
372.27	227.58
372.65	227.55
373.03	227.49
373.41	227.46
373.78	227.39
374.16	227.30
374.54	227.18
374.92	227.14
375.30	227.09
375.68	227.02
376.06	226.97
376.44	226.90
376.82	226.84
377.19	226.80
377.57	226.75
377.95	226.68
378.33	226.60
378.71	226.48
379.09	226.40
379.47	226.36
379.84	226.26
380.22	226.17
380.60	226.12
380.98	226.12
381.36	226.01
381.73	225.96
382.11	225.91
382.49	225.88
382.87	225.81
383.25	225.76
383.62	225.83
384.00	225.76
384.38	225.73
384.76	225.69
385.13	225.68
385.51	225.63
385.89	225.52
386.27	225.44
386.64	225.41
387.02	225.36
387.40	225.30
387.78	225.27
388.15	225.26
388.53	225.24
388.91	225.19
389.29	225.18
389.66	225.16
390.04	225.10
390.42	225.09
390.79	225.08
391.17	225.04
391.55	224.91
391.92	224.89
392.30	224.85
392.68	224.83
393.05	224.81
393.43	224.82
393.81	224.85
394.18	224.86
394.56	224.85
394.94	224.86
395.31	224.88
395.69	224.92
396.06	224.92
396.44	224.93
396.82	224.92
397.19	224.99
397.57	224.99
397.95	225.06
398.32	225.07
398.70	225.10
399.07	225.19
399.45	225.23
399.82	225.29
400.20	225.37
400.58	225.46
400.95	225.48
401.33	225.55
401.70	225.68
402.08	225.73
402.45	225.82
402.83	225.93
403.20	226.03
403.58	226.08
403.95	226.20
404.33	226.32
404.71	226.41
405.08	226.56
405.46	226.69
405.83	226.83
406.21	226.96
406.58	227.11
406.96	227.25
407.33	227.42
407.70	227.59
408.08	227.84
408.45	228.01
408.83	228.24
409.20	228.44
409.58	228.62
409.95	228.89
410.33	229.13
410.70	229.39
411.08	229.67
411.45	229.98
411.82	230.27
412.20	230.61
412.57	231.02
412.95	231.32
413.32	231.74
413.69	232.12
414.07	232.55
414.44	233.03
414.82	233.45
415.19	234.04
415.56	234.58
415.94	235.12
416.31	235.78
416.68	236.39
417.06	237.12
417.43	237.82
417.81	238.60
418.18	239.39
418.55	240.22
418.93	241.11
419.30	242.02
419.67	242.94
420.04	243.88
420.42	244.87
420.79	246.07
421.16	247.24
421.54	248.46
421.91	249.70
422.28	250.94
422.66	252.28
423.03	253.57
423.40	254.89
423.77	256.29
424.15	257.68
424.52	259.16
424.89	260.74
425.26	262.29
425.64	263.73
426.01	265.33
426.38	266.97
426.75	268.62
427.13	270.30
427.50	272.13
427.87	273.98
428.24	275.82
428.61	277.57
428.99	279.46
429.36	281.58
429.73	283.61
430.10	285.64
430.47	287.70
430.85	289.79
431.22	292.02
431.59	294.37
431.96	296.67
432.33	299.16
432.70	301.54
433.08	304.33
433.45	306.97
433.82	309.54
434.19	312.42
434.56	315.19
434.93	317.88
435.30	320.45
435.68	323.36
436.05	326.16
436.42	328.95
436.79	331.46
437.16	334.10
437.53	336.94
437.90	339.71
438.27	342.47
438.64	345.27
439.01	347.81
439.38	350.06
439.75	352.17
440.13	354.61
440.50	356.87
440.87	358.68
441.24	360.57
441.61	362.73
441.98	364.18
442.35	365.97
442.72	367.76
443.09	369.61
443.46	370.57
443.83	371.21
444.20	371.67
444.57	372.54
444.94	372.86
445.31	373.17
445.68	373.54
446.05	373.62
446.42	373.28
446.79	372.91
447.16	372.44
447.53	372.12
447.90	371.01
448.27	369.91
448.64	368.35
449.01	367.19
449.37	365.21
449.74	363.40
450.11	361.17
450.48	358.78
450.85	356.25
451.22	354.16
451.59	352.16
451.96	350.27
452.33	347.65
452.70	345.29
453.07	342.52
453.43	339.69
453.80	336.92
454.17	334.27
454.54	331.73
454.91	329.05
455.28	326.41
455.65	323.92
456.02	321.45
456.38	319.34
456.75	316.74
457.12	314.51
457.49	312.30
457.86	310.17
458.23	308.28
458.59	306.25
458.96	304.17
459.33	302.29
459.70	300.41
460.07	298.96
460.43	297.26
460.80	295.63
461.17	294.14
461.54	292.67
461.91	291.23
462.27	289.78
462.64	288.53
463.01	287.15
463.38	285.85
463.74	284.52
464.11	283.35
464.48	282.36
464.85	281.26
465.21	280.39
465.58	279.47
465.95	278.41
466.32	277.50
466.68	276.63
467.05	275.76
467.42	274.89
467.78	273.96
468.15	273.11
468.52	272.46
468.88	271.64
469.25	270.86
469.62	270.26
469.98	269.62
470.35	268.98
470.72	268.40
471.08	267.76
471.45	267.26
471.82	266.73
472.18	266.14
472.55	265.72
472.92	265.24
473.28	264.77
473.65	264.35
474.02	263.93
474.38	263.56
474.75	263.24
475.11	262.91
475.48	262.63
475.85	262.35
476.21	262.10
476.58	261.92
476.94	261.79
477.31	261.60
477.67	261.44
478.04	261.41
478.41	261.37
478.77	261.44
479.14	261.37
479.50	261.41
479.87	261.50
480.23	261.59
480.60	261.64
480.96	261.79
481.33	261.98
481.69	262.17
482.06	262.35
482.42	262.54
482.79	262.77
483.15	263.10
483.52	263.53
483.88	263.89
484.25	264.30
484.61	264.72
484.98	265.20
485.34	265.77
485.71	266.31
486.07	266.93
486.44	267.51
486.80	268.25
487.17	268.94
487.53	269.73
487.90	270.58
488.26	271.54
488.62	272.49
488.99	273.45
489.35	274.51
489.72	275.68
490.08	276.88
490.44	278.16
490.81	279.53
491.17	280.86
491.54	282.32
491.90	283.85
492.26	285.51
492.63	287.26
492.99	289.02
493.36	290.94
493.72	292.96
494.08	295.06
494.45	297.29
494.81	299.67
495.17	302.13
495.54	304.73
495.90	307.35
496.26	310.17
496.63	313.15
496.99	316.23
497.35	319.47
497.72	322.88
498.08	326.35
498.44	329.99
498.80	333.92
499.17	337.91
499.53	342.09
499.89	346.43
500.26	350.92
500.62	355.58
500.98	360.53
501.34	365.59
501.71	370.92
502.07	376.33
502.43	381.88
502.79	387.60
503.16	393.61
503.52	399.88
503.88	406.25
504.24	412.87
504.60	419.75
504.97	426.80
505.33	434.06
505.69	441.75
506.05	449.50
506.41	457.34
506.78	465.46
507.14	473.88
507.50	482.53
507.86	491.44
508.22	500.58
508.59	509.68
508.95	519.18
509.31	528.84
509.67	538.87
510.03	549.07
510.39	559.58
510.75	570.26
511.12	581.05
511.48	592.20
511.84	603.48
512.20	614.87
512.56	626.74
512.92	638.73
513.28	650.94
513.64	663.28
514.00	675.83
514.37	688.68
514.73	701.52
515.09	714.41
515.45	727.60
515.81	741.03
516.17	754.91
516.53	768.94
516.89	783.00
517.25	797.02
517.61	811.26
517.97	825.51
518.33	839.74
518.69	854.32
519.05	869.13
519.41	884.15
519.77	899.51
520.13	914.67
520.49	929.90
520.85	945.01
521.21	960.43
521.57	976.48
521.93	991.99
522.29	1008.15
522.65	1024.27
523.01	1040.22
523.37	1056.02
523.73	1071.94
524.09	1087.73
524.45	1103.70
524.81	1119.99
525.17	1136.49
525.53	1153.13
525.89	1169.74
526.25	1186.44
526.61	1202.57
526.97	1218.96
527.33	1235.23
527.68	1251.53
528.04	1267.83
528.40	1284.19
528.76	1301.01
529.12	1317.29
529.48	1334.03
529.84	1349.71
530.20	1365.95
530.56	1382.59
530.91	1399.62
531.27	1416.12
531.63	1432.33
531.99	1448.69
532.35	1464.42
532.71	1480.18
533.07	1496.23
533.42	1511.90
533.78	1527.71
534.14	1543.69
534.50	1558.85
534.86	1574.40
535.21	1589.43
535.57	1604.90
535.93	1620.21
536.29	1634.82
536.65	1649.54
537.00	1663.86
537.36	1679.08
537.72	1693.33
538.08	1707.62
538.44	1721.23
538.79	1734.84
539.15	1748.17
539.51	1761.68
539.87	1775.95
540.22	1789.32
540.58	1802.74
540.94	1815.62
541.29	1828.07
541.65	1840.51
542.01	1853.47
542.37	1865.60
542.72	1877.80
543.08	1889.55
543.44	1901.75
543.79	1912.75
544.15	1923.74
544.51	1935.21
544.87	1945.85
545.22	1956.47
545.58	1966.50
545.94	1976.10
546.29	1985.73
546.65	1995.65
547.01	2004.89
547.36	2013.32
547.72	2021.72
548.07	2029.54
548.43	2037.72
548.79	2045.67
549.14	2053.21
549.50	2060.40
549.86	2067.81
550.21	2075.04
550.57	2082.07
550.92	2088.64
551.28	2095.70
551.64	2102.65
551.99	2109.10
552.35	2115.33
552.70	2121.63
553.06	2127.58
553.41	2134.05
553.77	2140.11
554.13	2145.94
554.48	2151.98
554.84	2157.62
555.19	2162.80
555.55	2167.99
555.90	2172.54
556.26	2177.48
556.61	2182.17
556.97	2186.52
557.32	2190.82
557.68	2194.97
558.03	2199.27
558.39	2202.82
558.74	2207.48
559.10	2211.35
559.45	2215.02
559.81	2219.21
560.16	2222.98
560.52	2226.18
560.87	2229.50
561.23	2232.19
561.58	2235.14
561.94	2237.73
562.29	2239.94
562.64	2243.03
563.00	2245.64
563.35	2249.15
563.71	2252.40
564.06	2255.63
564.42	2258.70
564.77	2261.37
565.12	2263.95
565.48	2266.16
565.83	2268.22
566.19	2269.69
566.54	2270.59
566.89	2271.94
567.25	2272.84
567.60	2274.15
567.96	2276.11
568.31	2276.96
568.66	2278.34
569.02	2279.23
569.37	2279.66
569.72	2280.75
570.08	2280.88
570.43	2281.09
570.78	2280.76
571.14	2279.33
571.49	2278.18
571.84	2278.03
572.20	2277.06
572.55	2276.06
572.90	2274.34
573.26	2273.15
573.61	2271.42
573.96	2270.05
574.31	2267.19
574.67	2264.37
575.02	2260.92
575.37	2257.43
575.72	2254.06
576.08	2250.68
576.43	2247.49
576.78	2244.15
577.13	2241.18
577.49	2238.00
577.84	2234.77
578.19	2231.20
578.54	2227.71
578.90	2223.74
579.25	2218.26
579.60	2213.57
579.95	2208.70
580.30	2203.95
580.66	2198.96
581.01	2194.20
581.36	2189.44
581.71	2185.47
582.06	2181.21
582.42	2177.02
582.77	2172.19
583.12	2167.71
583.47	2163.38
583.82	2158.57
584.17	2153.48
584.53	2148.07
584.88	2142.87
585.23	2137.31
585.58	2132.05
585.93	2126.77
586.28	2122.10
586.63	2117.27
586.98	2112.20
587.34	2107.55
587.69	2102.84
588.04	2097.83
588.39	2092.37
588.74	2085.95
589.09	2079.94
589.44	2073.14
589.79	2067.27
590.14	2061.80
590.49	2055.44
590.84	2049.06
591.19	2043.24
591.54	2036.78
591.89	2029.71
592.25	2023.07
592.60	2015.96
592.95	2008.53
593.30	2001.42
593.65	1994.05
594.00	1987.10
594.35	1980.05
594.70	1972.14
595.05	1965.17
595.40	1957.82
595.75	1950.52
596.10	1944.54
596.45	1937.97
596.80	1932.15
597.15	1925.68
597.50	1918.85
597.85	1912.30
598.19	1905.86
598.54	1898.85
598.89	1892.39
599.24	1886.48
599.59	1880.02
599.94	1873.81
600.29	1867.57
600.64	1860.92
600.99	1853.60
601.34	1846.77
601.69	1839.89
602.04	1833.27
602.39	1826.03
602.74	1819.51
603.08	1812.80
603.43	1806.15
603.78	1798.85
604.13	1791.57
604.48	1784.45
604.83	1777.59
605.18	1771.00
605.53	1763.12
605.87	1755.11
606.22	1747.89
606.57	1740.04
606.92	1732.58
607.27	1725.66
607.62	1718.89
607.96	1711.93
608.31	1705.42
608.66	1698.09
609.01	1690.59
609.36	1683.22
609.70	1675.23
610.05	1667.20
610.40	1659.54
610.75	1651.28
611.10	1643.84
611.44	1635.44
611.79	1627.46
612.14	1618.83
612.49	1609.55
612.83	1601.19
613.18	1593.09
613.53	1585.06
613.88	1576.69
614.22	1568.58
614.57	1559.86
614.92	1551.84
615.27	1544.32
615.61	1536.00
615.96	1527.84
616.31	1520.17
616.65	1512.75
617.00	1505.31
617.35	1497.59
617.70	1489.37
618.04	1480.85
618.39	1472.58
618.74	1465.16
619.08	1456.76
619.43	1449.22
619.78	1442.43
620.12	1435.39
620.47	1428.05
620.82	1419.85
621.16	1412.30
621.51	1404.58
621.85	1397.03
622.20	1388.63
622.55	1380.16
622.89	1372.38
623.24	1364.73
623.59	1357.32
623.93	1349.72
624.28	1342.50
624.62	1335.09
624.97	1327.88
625.32	1321.09
625.66	1314.05
626.01	1306.91
626.35	1299.66
626.70	1291.95
627.04	1284.21
627.39	1276.44
627.73	1269.01
628.08	1262.20
628.43	1255.04
628.77	1247.78
629.12	1240.25
629.46	1233.05
629.81	1225.57
630.15	1218.26
630.50	1210.93
630.84	1202.90
631.19	1194.97
631.53	1187.32
631.88	1179.68
632.22	1172.15
632.57	1164.95
632.91	1157.42
633.26	1149.96
633.60	1142.48
633.95	1135.33
634.29	1128.29
634.64	1121.54
634.98	1114.27
635.32	1107.16
635.67	1100.46
636.01	1093.79
636.36	1087.03
636.70	1080.40
637.05	1073.96
637.39	1067.53
637.73	1061.15
638.08	1055.30
638.42	1049.38
638.77	1043.09
639.11	1036.63
639.45	1030.23
639.80	1023.56
640.14	1017.31
640.49	1010.88
640.83	1004.65
641.17	998.45
641.52	992.12
641.86	985.69
642.20	979.77
642.55	973.41
642.89	966.96
643.23	960.38
643.58	954.69
643.92	948.55
644.26	942.57
644.61	936.50
644.95	930.53
645.29	923.92
645.64	917.21
645.98	910.83
646.32	904.93
646.66	898.91
647.01	893.12
647.35	887.28
647.69	881.33
648.04	875.74
648.38	869.94
648.72	864.07
649.06	858.08
649.41	852.17
649.75	846.27
650.09	840.41
650.43	834.69
650.78	828.53
651.12	822.59
651.46	816.83
651.80	811.22
652.14	805.82
652.49	800.49
652.83	795.24
653.17	789.66
653.51	783.94
653.85	778.55
654.20	773.02
654.54	767.08
654.88	761.34
655.22	755.42
655.56	749.76
655.90	744.21
656.25	738.92
656.59	733.55
656.93	728.45
657.27	723.30
657.61	717.83
657.95	712.66
658.29	707.57
658.64	702.27
658.98	696.89
659.32	691.36
659.66	686.11
660.00	680.85
660.34	675.80
660.68	670.93
661.02	665.88
661.36	661.09
661.70	656.58
662.05	652.29
662.39	648.04
662.73	643.62
663.07	639.24
663.41	634.80
663.75	630.38
664.09	625.81
664.43	621.41
664.77	617.39
665.11	613.17
665.45	609.07
665.79	605.03
666.13	600.97
666.47	596.89
666.81	592.80
667.15	588.70
667.49	584.86
667.83	581.00
668.17	577.13
668.51	573.06
668.85	568.98
669.19	565.10
669.53	561.31
669.87	557.45
670.21	553.75
670.55	550.14
670.89	546.70
671.23	543.31
671.57	539.79
671.91	536.24
672.25	532.70
672.58	529.20
672.92	525.76
673.26	522.60
673.60	519.44
673.94	516.36
674.28	513.46
674.62	510.55
674.96	507.53
675.30	504.60
675.64	501.69
675.97	499.03
676.31	496.17
676.65	493.28
676.99	490.56
677.33	487.69
677.67	484.85
678.01	481.83
678.34	478.83
678.68	475.99
679.02	473.21
679.36	470.47
679.70	467.77
680.04	465.04
680.37	462.20
680.71	459.36
681.05	456.67
681.39	453.97
681.73	451.24
682.06	448.70
682.40	446.18
682.74	443.63
683.08	441.09
683.42	438.50
683.75	435.99
684.09	433.41
684.43	431.02
684.77	428.56
685.10	426.19
685.44	423.93
685.78	421.64
686.12	419.34
686.45	417.06
686.79	414.79
687.13	412.59
687.46	410.42
687.80	408.31
688.14	406.12
688.48	404.05
688.81	401.90
689.15	399.72
689.49	397.56
689.82	395.52
690.16	393.37
690.50	391.44
690.83	389.45
691.17	387.50
691.51	385.55
691.84	383.71
692.18	381.83
692.52	379.85
692.85	377.91
693.19	376.04
693.52	374.23
693.86	372.37
694.20	370.54
694.53	368.72
694.87	366.86
695.21	365.06
695.54	363.25
695.88	361.46
696.21	359.73
696.55	358.10
696.88	356.41
697.22	354.74
697.56	353.10
697.89	351.47
698.23	349.90
698.56	348.29
698.90	346.74
699.23	345.08
699.57	343.53
699.90	342.01
700.24	340.49
700.58	338.93
700.91	337.48
701.25	336.05
701.58	334.66
701.92	333.29
702.25	331.94
702.59	330.56
702.92	329.23
703.26	327.91
703.59	326.54
703.93	325.35
704.26	324.13
704.60	322.79
704.93	321.50
705.26	320.17
705.60	318.93
705.93	317.74
706.27	316.70
706.60	315.66
706.94	314.51
707.27	313.38
707.61	312.31
707.94	311.25
708.27	310.17
708.61	309.08
708.94	308.05
709.28	307.05
709.61	306.09
709.94	305.12
710.28	304.08
710.61	303.12
710.95	302.04
711.28	301.09
711.61	300.14
711.95	299.22
712.28	298.30
712.61	297.33
712.95	296.33
713.28	295.39
713.61	294.44
713.95	293.58
714.28	292.72
714.61	291.88
714.95	290.99
715.28	290.12
715.61	289.24
715.95	288.38
716.28	287.56
716.61	286.72
716.95	285.88
717.28	285.13
717.61	284.34
717.94	283.61
718.28	282.79
718.61	282.05
718.94	281.32
719.27	280.69
719.61	280.05
719.94	279.44
720.27	278.76
720.60	278.06
720.94	277.41
721.27	276.85
721.60	276.29
721.93	275.70
722.27	275.17
722.60	274.62
722.93	274.08
723.26	273.55
723.59	272.96
723.93	272.46
724.26	271.90
724.59	271.34
724.92	270.83
725.25	270.36
725.59	269.86
725.92	269.39
726.25	268.89
726.58	268.41
726.91	267.90
727.24	267.46
727.57	267.03
727.91	266.54
728.24	266.05
728.57	265.53
728.90	265.10
729.23	264.57
729.56	264.14
729.89	263.67
730.22	263.11
730.55	262.64
730.89	262.21
731.22	261.83
731.55	261.42
731.88	260.99
732.21	260.55
732.54	260.14
732.87	259.70
733.20	259.31
733.53	258.91
733.86	258.55
734.19	258.14
734.52	257.74
734.85	257.44
735.18	257.01
735.51	256.64
735.84	256.29
736.17	255.98
736.50	255.59
736.83	255.37
737.16	255.06
737.49	254.75
737.82	254.38
738.15	254.01
738.48	253.69
738.81	253.38
739.14	253.07
739.47	252.78
739.80	252.50
740.13	252.15
740.46	251.82
740.79	251.49
741.12	251.14
741.45	250.85
741.78	250.49
742.11	250.23
742.44	249.92
742.77	249.62
743.10	249.29
743.43	249.02
743.75	248.62
744.08	248.48
744.41	248.21
744.74	247.93
745.07	247.61
745.40	247.32
745.73	247.06
746.06	246.79
746.39	246.50
746.71	246.22
747.04	245.94
747.37	245.67
747.70	245.42
748.03	245.21
748.36	244.96
748.68	244.71
749.01	244.44
749.34	244.26
749.67	243.98
750.00	243.78
750.33	243.62
750.65	243.40
750.98	243.04
751.31	242.82
751.64	242.63
751.97	242.49
752.29	242.28
752.62	242.02
752.95	241.78
753.28	241.54
753.60	241.33
753.93	241.14
754.26	240.95
754.59	240.76
754.91	240.55
755.24	240.33
755.57	240.14
755.90	239.98
756.22	239.71
756.55	239.55
756.88	239.35
757.20	239.10
757.53	238.93
757.86	238.79
758.19	238.59
758.51	238.39
758.84	238.18
759.17	238.01
759.49	237.84
759.82	237.73
760.15	237.60
760.47	237.45
760.80	237.31
761.13	237.19
761.45	237.03
761.78	236.85
762.11	236.75
762.43	236.59
762.76	236.42
763.08	236.34
763.41	236.21
763.74	236.10
764.06	235.96
764.39	235.80
764.71	235.64
765.04	235.53
765.37	235.41
765.69	235.28
766.02	235.17
766.34	235.05
766.67	234.89
767.00	234.78
767.32	234.73
767.65	234.63
767.97	234.52
768.30	234.39
768.62	234.30
768.95	234.18
769.27	234.09
769.60	233.98
769.92	233.84
770.25	233.72
770.57	233.59
770.90	233.50
771.22	233.40
771.55	233.33
771.87	233.25
772.20	233.18
772.52	233.17
772.85	233.19
773.17	233.11
773.50	233.03
773.82	232.93
774.15	232.76
774.47	232.62
774.80	232.53
775.12	232.49
775.45	232.40
775.77	232.32
776.09	232.21
776.42	232.15
776.74	232.09
777.07	232.03
777.39	231.96
777.72	231.87
778.04	231.83
778.36	231.75
778.69	231.68
779.01	231.60
779.33	231.47
779.66	231.28
779.98	231.21
780.31	231.15
780.63	231.12
780.95	231.11
781.28	231.07
781.60	230.99
781.92	230.92
782.25	230.86
782.57	230.81
782.89	230.79
783.22	230.72
783.54	230.66
783.86	230.57
784.19	230.49
784.51	230.44
784.83	230.37
785.16	230.31
785.48	230.23
785.80	230.20
786.12	230.14
786.45	230.09
786.77	230.05
787.09	230.02
787.42	229.92
787.74	229.85
788.06	229.80
788.38	229.76
788.71	229.72
789.03	229.64
789.35	229.60
789.67	229.51
789.99	229.49
790.32	229.43
790.64	229.43
790.96	229.49
791.28	229.40
791.61	229.33
791.93	229.29
792.25	229.28
792.57	229.32
792.89	229.25
793.21	229.22
793.54	229.18
793.86	229.11
794.18	229.11
794.50	229.05
794.82	229.01
795.14	228.98
795.47	228.94
795.79	228.92
796.11	228.85
796.43	228.83
796.75	228.80
797.07	228.78
797.39	228.72
797.71	228.58
798.04	228.57
798.36	228.56
798.68	228.49
799.00	228.43
799.32	228.32
799.64	228.30
799.96	228.25
800.28	228.21
800.60	228.20
800.92	228.18
801.24	228.14
801.56	228.12
801.89	228.09
802.21	228.04
802.53	228.03
802.85	228.08
803.17	228.09
803.49	228.00
803.81	227.98
804.13	227.94
804.45	227.94
804.77	227.95
805.09	227.93
805.41	227.90
805.73	227.89
806.05	227.88
806.37	227.84
806.69	227.85
807.01	227.83
807.33	227.80
807.65	227.74
807.97	227.74
808.28	227.69
808.60	227.64
808.92	227.64
809.24	227.67
809.56	227.61
809.88	227.56
810.20	227.57
810.52	227.53
810.84	227.50
811.16	227.49
811.48	227.40
811.80	227.40
812.12	227.41
812.43	227.40
812.75	227.36
813.07	227.33
813.39	227.27
813.71	227.24
814.03	227.19
814.35	227.16
814.67	227.11
814.98	227.11
815.30	227.06
815.62	227.02
815.94	226.92
816.26	226.93
816.58	226.89
816.89	226.87
817.21	226.84
817.53	226.81
817.85	226.76
818.17	226.77
818.48	226.73
818.80	226.69
819.12	226.62
819.44	226.57
819.76	226.59
820.07	226.61
820.39	226.57
820.71	226.58
821.03	226.57
821.34	226.53
821.66	226.49
821.98	226.50
822.30	226.47
822.61	226.51
822.93	226.45
823.25	226.44
823.57	226.42
823.88	226.40
824.20	226.36
824.52	226.37
824.83	226.36
825.15	226.30
825.47	226.29
825.79	226.29
826.10	226.30
826.42	226.25
826.74	226.20
827.05	226.20
827.37	226.14
827.69	226.14
828.00	226.17
828.32	226.16
828.64	226.13
828.95	226.18
829.27	226.11
829.58	226.09
829.90	226.10
830.22	226.11
830.53	226.08
830.85	226.10
831.17	226.10
831.48	226.04
831.80	226.07
832.11	226.07
832.43	226.02
832.75	226.03
833.06	226.06
833.38	226.05
833.69	226.03
834.01	226.02
834.32	226.02
834.64	226.00
834.96	226.00
835.27	226.00
835.59	225.98
835.90	225.98
836.22	226.01
836.53	225.96
836.85	225.94
837.16	226.03
837.48	226.04
837.79	226.05
838.11	226.07
838.42	226.07
838.74	226.09
839.05	226.12
839.37	226.06
839.68	226.03
840.00	226.04
840.31	226.07
840.63	226.09
840.94	226.08
841.26	226.07
841.57	226.10
841.88	226.12
842.20	226.09
842.51	226.06
842.83	226.04
843.14	226.14
843.46	226.16
843.77	226.11
844.08	226.09
844.40	226.04
844.71	226.04
845.03	226.05
845.34	226.04
845.65	226.03
845.97	226.06
846.28	226.06
846.60	226.02
846.91	226.00
847.22	225.97
847.54	226.00
847.85	226.00
848.16	225.96
848.48	225.97
848.79	226.03
849.10	226.07
849.42	226.09
849.73	226.00
850.04	225.98
850.36	225.97
850.67	226.00
850.98	226.05
851.30	226.04
851.61	226.00
851.92	226.01
852.23	226.03
852.55	226.04
852.86	226.03
853.17	226.06
853.49	226.08
853.80	226.10
854.11	226.10
854.42	226.10
854.74	226.07
855.05	226.05
855.36	225.97
855.67	225.96
855.99	225.93
856.30	226.02
856.61	226.01
856.92	226.00
857.23	225.95
857.55	225.90
857.86	225.88
858.17	225.90
858.48	225.88
858.79	225.85
859.11	225.85
859.42	225.85
859.73	225.85
860.04	225.82
860.35	225.80
860.66	225.76
860.98	225.74
861.29	225.75
861.60	225.71
861.91	225.74
862.22	225.71
862.53	225.69
862.84	225.58
863.16	225.62
863.47	225.56
863.78	225.53
864.09	225.51
864.40	225.49
864.71	225.47
865.02	225.45
865.33	225.42
865.64	225.37
865.95	225.37
866.27	225.42
866.58	225.42
866.89	225.45
867.20	225.44
867.51	225.44
867.82	225.41
868.13	225.47
868.44	225.47
868.75	225.46
869.06	225.46
869.37	225.47
869.68	225.40
869.99	225.45
870.30	225.50
870.61	225.53
870.92	225.53
871.23	225.54
871.54	225.59
871.85	225.63
872.16	225.64
872.47	225.63
872.78	225.53
873.09	225.52
873.40	225.47
873.71	225.46
874.02	225.48
874.33	225.48
874.64	225.43
874.95	225.44
875.26	225.44
875.56	225.45
875.87	225.44
876.18	225.43
876.49	225.51
876.80	225.53
877.11	225.51
877.42	225.52
877.73	225.53
878.04	225.52
878.35	225.51
878.66	225.53
878.96	225.52
879.27	225.56
879.58	225.58
879.89	225.60
880.20	225.62
880.51	225.60
880.82	225.62
881.12	225.62
881.43	225.60
881.74	225.60
882.05	225.61
882.36	225.65
882.67	225.71
882.97	225.60
883.28	225.55
883.59	225.57
883.90	225.59
884.21	225.62
884.51	225.62
884.82	225.61
885.13	225.65
885.44	225.65
885.74	225.65
886.05	225.62
886.36	225.60
886.67	225.57
886.98	225.61
887.28	225.61
887.59	225.59
887.90	225.60
888.20	225.58
888.51	225.59
888.82	225.57
889.13	225.56
889.43	225.67
889.74	225.67
890.05	225.64
890.35	225.61
890.66	225.56
890.97	225.54
891.28	225.56
891.58	225.52
891.89	225.52
892.20	225.48
892.50	225.48
892.81	225.49
893.12	225.50
893.42	225.44
893.73	225.43
894.04	225.41
894.34	225.42
894.65	225.41
894.95	225.36
895.26	225.33
895.57	225.36
895.87	225.25
896.18	225.27
896.48	225.31
896.79	225.31
897.10	225.34
897.40	225.31
897.71	225.36
898.01	225.35
898.32	225.36
898.63	225.39
898.93	225.36
899.24	225.37
899.54	225.34
899.85	225.37
900.15	225.39
900.46	225.40
900.76	225.38
901.07	225.34
901.38	225.34
901.68	225.36
901.99	225.35
902.29	225.36
902.60	225.35
902.90	225.31
903.21	225.32
903.51	225.31
903.82	225.36
904.12	225.33
904.43	225.33
904.73	225.31
905.03	225.29
905.34	225.43
905.64	225.46
905.95	225.49
906.25	225.49
906.56	225.48
906.86	225.48
907.17	225.51
907.47	225.55
907.77	225.53
908.08	225.49
908.38	225.45
908.69	225.46
908.99	225.47
909.30	225.48
909.60	225.46
909.90	225.49
910.21	225.44
910.51	225.42
910.81	225.45
911.12	225.48
911.42	225.50
911.73	225.38
912.03	225.37
912.33	225.37
912.64	225.38
912.94	225.37
913.24	225.38
913.55	225.36
913.85	225.37
914.15	225.40
914.46	225.46
914.76	225.45
915.06	225.40
915.37	225.39
915.67	225.42
915.97	225.40
916.27	225.36
916.58	225.36
916.88	225.35
917.18	225.33
917.49	225.37
917.79	225.35
918.09	225.39
918.39	225.40
918.70	225.44
919.00	225.43
919.30	225.46
919.60	225.43
919.91	225.41
920.21	225.43
920.51	225.44
920.81	225.41
921.12	225.44
921.42	225.49
921.72	225.51
922.02	225.48
922.32	225.50
922.63	225.51
922.93	225.57
923.23	225.55
923.53	225.53
923.83	225.49
924.13	225.49
924.44	225.46
924.74	225.48
925.04	225.45
925.34	225.45
925.64	225.40
925.94	225.41
926.24	225.48
926.55	225.47
926.85	225.46
927.15	225.46
927.45	225.47
927.75	225.48
928.05	225.48
928.35	225.48
928.65	225.52
928.95	225.49
929.26	225.45
929.56	225.51
929.86	225.52
930.16	225.49
930.46	225.47
930.76	225.45
931.06	225.40
931.36	225.37
931.66	225.35
931.96	225.36
932.26	225.40
932.56	225.32
932.86	225.32
933.16	225.28
933.46	225.28
933.76	225.26
934.06	225.22
934.36	225.26
934.66	225.24
934.96	225.20
935.26	225.22
935.56	225.20
935.86	225.19
936.16	225.18
936.46	225.19
936.76	225.19
937.06	225.22
937.36	225.23
937.66	225.22
937.96	225.22
938.26	225.20
938.56	225.16
938.86	225.20
939.16	225.22
939.46	225.25
939.76	225.24
940.06	225.19
940.35	225.21
940.65	225.13
940.95	225.14
941.25	225.12
941.55	225.12
941.85	225.12
942.15	225.12
942.45	225.14
942.75	225.16
943.04	225.15
943.34	225.13
943.64	225.14
943.94	225.13
944.24	225.15
944.54	225.15
944.84	225.16
945.13	225.12
945.43	225.06
945.73	225.04
946.03	225.03
946.33	225.07
946.62	225.04
946.92	225.04
947.22	225.03
947.52	225.06
947.82	225.07
948.11	225.08
948.41	225.05
948.71	224.99
949.01	224.95
949.31	224.96
949.60	224.96
949.90	224.94
950.20	224.95
950.50	224.97
950.79	225.00
951.09	225.01
951.39	225.02
951.69	225.02
951.98	225.05
952.28	225.10
952.58	225.05
952.87	225.06
953.17	225.07
953.47	225.04
953.76	225.00
954.06	224.97
954.36	224.94
954.66	224.95
954.95	225.01
955.25	225.04
955.55	225.05
955.84	225.04
956.14	225.03
956.44	225.05
956.73	225.00
957.03	224.98
957.32	224.97
957.62	224.96
957.92	224.99
958.21	224.98
958.51	225.07
958.81	225.09
959.10	225.08
959.40	225.12
959.69	225.17
959.99	225.22
960.29	225.24
960.58	225.24
960.88	225.26
961.17	225.22
961.47	225.23
961.76	225.22
962.06	225.24
962.36	225.23
962.65	225.22
962.95	225.23
963.24	225.24
963.54	225.27
963.83	225.30
964.13	225.34
964.42	225.30
964.72	225.23
965.01	225.25
965.31	225.24
965.60	225.21
965.90	225.27
966.19	225.23
966.49	225.24
966.78	225.24
967.08	225.23
967.37	225.23
967.67	225.23
967.96	225.26
968.26	225.24
968.55	225.29
968.85	225.30
969.14	225.32
969.43	225.29
969.73	225.28
970.02	225.26
970.32	225.22
970.61	225.26
970.91	225.23
971.20	225.19
971.49	225.21
971.79	225.23
972.08	225.16
972.38	225.17
972.67	225.16
972.96	225.19
973.26	225.16
973.55	225.19
973.85	225.18
974.14	225.15
974.43	225.16
974.73	225.12
975.02	225.11
975.31	225.10
975.61	225.11
975.90	225.08
976.19	225.05
976.49	225.06
976.78	225.05
977.07	225.05
977.37	225.08
977.66	225.07
977.95	225.03
978.24	225.04
978.54	225.04
978.83	225.04
979.12	225.01
979.42	225.04
979.71	225.01
980.00	224.98
980.29	225.00
980.59	224.96
980.88	225.02
981.17	224.98
981.46	224.98
981.76	224.99
982.05	225.04
982.34	225.04
982.63	225.02
982.93	225.02
983.22	225.01
983.51	224.99
983.80	225.04
984.09	225.05
984.39	225.04
984.68	225.07
984.97	225.08
985.26	225.06
985.55	225.07
985.85	225.05
986.14	225.08
986.43	225.09
986.72	225.08
987.01	225.03
987.30	225.03
987.59	225.00
987.89	225.00
988.18	224.95
988.47	224.93
988.76	224.94
989.05	224.91
989.34	224.91
989.63	224.93
989.92	224.87
990.22	224.86
990.51	224.85
990.80	224.81
991.09	224.84
991.38	224.88
991.67	224.82
991.96	224.81
992.25	224.82
992.54	224.76
992.83	224.78
993.12	224.77
993.41	224.80
993.70	224.87
993.99	224.89
994.28	224.92
994.58	224.93
994.87	224.93
995.16	224.95
995.45	224.95
995.74	224.93
996.03	224.94
996.32	224.96
996.61	224.98
996.90	224.98
997.19	224.93
997.48	224.89
997.77	224.90
998.06	224.92
998.34	224.85
998.63	224.87
998.92	224.88
999.21	224.91
999.50	224.91
999.79	224.92
1000.08	224.89
1000.37	224.91
1000.66	224.90
1000.95	224.94
1001.24	224.92
1001.53	224.90
1001.82	224.89
1002.11	224.91
1002.40	224.93
1002.68	224.95
1002.97	225.03
1003.26	225.06
1003.55	225.09
1003.84	225.11
1004.13	225.16
1004.42	225.22
1004.71	225.23
1004.99	225.22
1005.28	225.24
1005.57	225.22
1005.86	225.19
1006.15	225.18
1006.44	225.14
1006.72	225.18
1007.01	225.15
1007.30	225.20
1007.59	225.23
1007.88	225.27
1008.17	225.28
1008.45	225.23
1008.74	225.21
1009.03	225.18
1009.32	225.16
1009.60	225.17
1009.89	225.15
1010.18	225.10
1010.47	225.08
1010.76	225.10
1011.04	225.12
1011.33	225.11
1011.62	225.16
1011.91	225.18
1012.19	225.19
1012.48	225.25
1012.77	225.25
1013.05	225.34
1013.34	225.32
1013.63	225.30
1013.92	225.30
1014.20	225.28
1014.49	225.31
1014.78	225.30
1015.06	225.25
1015.35	225.27
1015.64	225.28
1015.92	225.31
1016.21	225.32
1016.50	225.34
1016.78	225.33
1017.07	225.32
1017.36	225.28
1017.64	225.23
1017.93	225.22
1018.22	225.20
1018.50	225.15
1018.79	225.13
1019.08	225.03
1019.36	225.01
1019.65	225.01
1019.93	225.00
1020.22	224.99
1020.51	225.02
1020.79	225.03
1021.08	224.79
1021.36	224.63
1021.65	225.08
1021.94	224.58
1022.22	224.65
1022.51	225.17
1022.79	225.00
1023.08	224.90
1023.36	225.82
1023.65	225.13
>>>>>End Processed Spectral Data<<<<<
