SpectraSuite Data File
++++++++++++++++++++++++++++++++++++
Date: Fri Feb 01 14:49:22 EST 2013
User: group
Dark Spectrum Present: No
Reference Spectrum Present: No
Number of Sampled Component Spectra: 1
Spectrometers: USB2E7196
Integration Time (usec): 35000 (USB2E7196)
Spectra Averaged: 100 (USB2E7196)
Boxcar Smoothing: 10 (USB2E7196)
Correct for Electrical Dark: No (USB2E7196)
Strobe/Lamp Enabled: No (USB2E7196)
Correct for Detector Non-linearity: No (USB2E7196)
Correct for Stray Light: No (USB2E7196)
Number of Pixels in Processed Spectrum: 2048
>>>>>Begin Processed Spectral Data<<<<<
339.09	0.00
339.48	215.90
339.86	217.43
340.24	218.84
340.63	219.63
341.01	222.41
341.39	222.77
341.78	224.13
342.16	225.12
342.54	225.39
342.93	214.07
343.31	224.88
343.69	225.41
344.07	225.86
344.46	226.30
344.84	226.72
345.22	226.98
345.60	227.25
345.99	227.43
346.37	227.57
346.75	227.70
347.13	227.77
347.52	227.81
347.90	227.86
348.28	227.88
348.66	227.91
349.05	227.93
349.43	227.95
349.81	227.98
350.19	228.04
350.57	228.13
350.96	228.21
351.34	228.30
351.72	228.37
352.10	228.48
352.48	228.54
352.87	228.57
353.25	228.64
353.63	228.69
354.01	228.79
354.39	228.84
354.77	228.88
355.15	228.96
355.54	229.04
355.92	229.10
356.30	229.19
356.68	229.33
357.06	229.40
357.44	229.48
357.82	229.55
358.20	229.59
358.58	229.63
358.97	229.68
359.35	229.78
359.73	229.85
360.11	229.87
360.49	229.93
360.87	229.96
361.25	230.02
361.63	230.07
362.01	230.09
362.39	230.13
362.77	230.18
363.15	230.19
363.53	230.21
363.91	230.21
364.29	230.20
364.67	230.11
365.05	230.13
365.43	230.14
365.81	230.15
366.19	230.23
366.57	230.25
366.95	230.22
367.33	230.16
367.71	230.13
368.09	230.15
368.47	230.13
368.85	230.10
369.23	230.06
369.61	230.01
369.99	230.00
370.37	229.96
370.75	229.94
371.13	229.89
371.51	229.84
371.89	229.82
372.27	229.75
372.65	229.72
373.03	229.62
373.41	229.55
373.78	229.46
374.16	229.30
374.54	229.24
374.92	229.19
375.30	229.11
375.68	229.05
376.06	228.95
376.44	228.85
376.82	228.81
377.19	228.73
377.57	228.63
377.95	228.49
378.33	228.42
378.71	228.29
379.09	228.22
379.47	228.14
379.84	228.03
380.22	227.96
380.60	227.88
380.98	227.83
381.36	227.73
381.73	227.67
382.11	227.63
382.49	227.55
382.87	227.44
383.25	227.39
383.62	227.47
384.00	227.41
384.38	227.34
384.76	227.28
385.13	227.28
385.51	227.25
385.89	227.20
386.27	227.14
386.64	227.09
387.02	227.06
387.40	226.99
387.78	226.98
388.15	226.96
388.53	226.90
388.91	226.83
389.29	226.81
389.66	226.77
390.04	226.72
390.42	226.69
390.79	226.71
391.17	226.68
391.55	226.55
391.92	226.55
392.30	226.54
392.68	226.53
393.05	226.50
393.43	226.51
393.81	226.54
394.18	226.54
394.56	226.60
394.94	226.65
395.31	226.69
395.69	226.75
396.06	226.78
396.44	226.85
396.82	226.90
397.19	227.00
397.57	227.04
397.95	227.15
398.32	227.21
398.70	227.28
399.07	227.38
399.45	227.40
399.82	227.50
400.20	227.58
400.58	227.69
400.95	227.72
401.33	227.84
401.70	228.04
402.08	228.17
402.45	228.26
402.83	228.40
403.20	228.55
403.58	228.65
403.95	228.81
404.33	228.98
404.71	229.16
405.08	229.34
405.46	229.53
405.83	229.66
406.21	229.84
406.58	230.04
406.96	230.21
407.33	230.47
407.70	230.68
408.08	230.97
408.45	231.19
408.83	231.46
409.20	231.66
409.58	231.86
409.95	232.14
410.33	232.42
410.70	232.66
411.08	232.95
411.45	233.27
411.82	233.59
412.20	233.91
412.57	234.29
412.95	234.62
413.32	235.01
413.69	235.44
414.07	235.83
414.44	236.29
414.82	236.77
415.19	237.31
415.56	237.84
415.94	238.39
416.31	239.04
416.68	239.68
417.06	240.42
417.43	241.09
417.81	241.84
418.18	242.64
418.55	243.45
418.93	244.27
419.30	245.20
419.67	246.13
420.04	247.12
420.42	248.11
420.79	249.25
421.16	250.42
421.54	251.58
421.91	252.82
422.28	254.07
422.66	255.41
423.03	256.70
423.40	257.99
423.77	259.40
424.15	260.77
424.52	262.25
424.89	263.82
425.26	265.33
425.64	266.74
426.01	268.31
426.38	269.99
426.75	271.71
427.13	273.38
427.50	275.14
427.87	276.99
428.24	278.83
428.61	280.57
428.99	282.51
429.36	284.58
429.73	286.61
430.10	288.59
430.47	290.63
430.85	292.71
431.22	294.95
431.59	297.31
431.96	299.58
432.33	302.03
432.70	304.40
433.08	307.20
433.45	309.81
433.82	312.39
434.19	315.24
434.56	318.00
434.93	320.66
435.30	323.30
435.68	326.16
436.05	328.98
436.42	331.76
436.79	334.27
437.16	337.00
437.53	339.81
437.90	342.60
438.27	345.28
438.64	348.10
439.01	350.70
439.38	352.93
439.75	355.04
440.13	357.57
440.50	359.89
440.87	361.75
441.24	363.71
441.61	365.90
441.98	367.39
442.35	369.20
442.72	371.06
443.09	372.86
443.46	373.86
443.83	374.45
444.20	374.98
444.57	375.80
444.94	376.08
445.31	376.42
445.68	376.81
446.05	376.94
446.42	376.57
446.79	376.15
447.16	375.68
447.53	375.40
447.90	374.23
448.27	373.10
448.64	371.51
449.01	370.37
449.37	368.40
449.74	366.53
450.11	364.31
450.48	361.83
450.85	359.28
451.22	357.18
451.59	355.18
451.96	353.23
452.33	350.63
452.70	348.31
453.07	345.51
453.43	342.63
453.80	339.88
454.17	337.24
454.54	334.68
454.91	332.02
455.28	329.36
455.65	326.91
456.02	324.49
456.38	322.33
456.75	319.73
457.12	317.49
457.49	315.29
457.86	313.13
458.23	311.32
458.59	309.32
458.96	307.21
459.33	305.35
459.70	303.49
460.07	301.98
460.43	300.23
460.80	298.62
461.17	297.18
461.54	295.65
461.91	294.23
462.27	292.83
462.64	291.57
463.01	290.21
463.38	288.90
463.74	287.49
464.11	286.32
464.48	285.27
464.85	284.16
465.21	283.29
465.58	282.33
465.95	281.21
466.32	280.27
466.68	279.37
467.05	278.45
467.42	277.57
467.78	276.60
468.15	275.73
468.52	275.05
468.88	274.17
469.25	273.42
469.62	272.79
469.98	272.09
470.35	271.41
470.72	270.79
471.08	270.12
471.45	269.56
471.82	269.00
472.18	268.36
472.55	267.90
472.92	267.34
473.28	266.83
473.65	266.33
474.02	265.89
474.38	265.51
474.75	265.14
475.11	264.76
475.48	264.50
475.85	264.26
476.21	264.02
476.58	263.77
476.94	263.57
477.31	263.35
477.67	263.15
478.04	263.04
478.41	262.94
478.77	262.97
479.14	262.88
479.50	262.90
479.87	263.01
480.23	263.04
480.60	263.07
480.96	263.17
481.33	263.37
481.69	263.49
482.06	263.64
482.42	263.86
482.79	264.08
483.15	264.38
483.52	264.73
483.88	265.05
484.25	265.44
484.61	265.86
484.98	266.29
485.34	266.86
485.71	267.41
486.07	268.02
486.44	268.59
486.80	269.30
487.17	270.05
487.53	270.84
487.90	271.69
488.26	272.63
488.62	273.62
488.99	274.62
489.35	275.68
489.72	276.82
490.08	278.01
490.44	279.27
490.81	280.56
491.17	281.87
491.54	283.35
491.90	284.89
492.26	286.54
492.63	288.30
492.99	290.04
493.36	291.95
493.72	293.95
494.08	296.02
494.45	298.24
494.81	300.55
495.17	302.90
495.54	305.47
495.90	308.12
496.26	310.89
496.63	313.82
496.99	316.94
497.35	320.19
497.72	323.59
498.08	327.12
498.44	330.79
498.80	334.72
499.17	338.69
499.53	342.84
499.89	347.19
500.26	351.67
500.62	356.33
500.98	361.28
501.34	366.35
501.71	371.60
502.07	377.02
502.43	382.57
502.79	388.38
503.16	394.33
503.52	400.57
503.88	406.98
504.24	413.58
504.60	420.37
504.97	427.46
505.33	434.70
505.69	442.36
506.05	450.14
506.41	457.95
506.78	466.14
507.14	474.58
507.50	483.20
507.86	492.12
508.22	501.26
508.59	510.40
508.95	519.96
509.31	529.73
509.67	539.79
510.03	550.07
510.39	560.57
510.75	571.42
511.12	582.31
511.48	593.52
511.84	604.87
512.20	616.37
512.56	628.27
512.92	640.43
513.28	652.65
513.64	665.03
514.00	677.76
514.37	690.54
514.73	703.52
515.09	716.52
515.45	729.82
515.81	743.39
516.17	757.33
516.53	771.32
516.89	785.47
517.25	799.62
517.61	813.98
517.97	828.43
518.33	842.87
518.69	857.66
519.05	872.64
519.41	887.84
519.77	903.46
520.13	918.96
520.49	934.40
520.85	949.86
521.21	965.62
521.57	981.82
521.93	997.72
522.29	1014.23
522.65	1030.54
523.01	1046.71
523.37	1062.81
523.73	1078.99
524.09	1095.17
524.45	1111.60
524.81	1128.29
525.17	1145.20
525.53	1162.03
525.89	1178.82
526.25	1195.66
526.61	1211.98
526.97	1228.77
527.33	1245.23
527.68	1261.81
528.04	1278.31
528.40	1295.10
528.76	1312.15
529.12	1328.84
529.48	1345.65
529.84	1361.71
530.20	1378.37
530.56	1395.40
530.91	1412.77
531.27	1429.57
531.63	1446.10
531.99	1462.69
532.35	1478.67
532.71	1494.60
533.07	1511.05
533.42	1527.06
533.78	1543.08
534.14	1559.45
534.50	1574.73
534.86	1590.48
535.21	1605.62
535.57	1621.63
535.93	1637.04
536.29	1651.97
536.65	1667.10
537.00	1682.01
537.36	1697.36
537.72	1712.05
538.08	1726.64
538.44	1740.56
538.79	1754.54
539.15	1768.32
539.51	1782.16
539.87	1796.67
540.22	1810.36
540.58	1824.10
540.94	1837.60
541.29	1850.70
541.65	1863.60
542.01	1876.94
542.37	1889.43
542.72	1902.12
543.08	1913.89
543.44	1926.41
543.79	1937.76
544.15	1948.65
544.51	1960.14
544.87	1971.15
545.22	1981.93
545.58	1992.22
545.94	2002.04
546.29	2012.02
546.65	2021.90
547.01	2031.10
547.36	2039.62
547.72	2048.16
548.07	2056.07
548.43	2064.12
548.79	2071.95
549.14	2079.59
549.50	2086.90
549.86	2094.49
550.21	2101.67
550.57	2108.85
550.92	2115.31
551.28	2122.28
551.64	2129.38
551.99	2135.87
552.35	2141.98
552.70	2148.13
553.06	2153.87
553.41	2160.11
553.77	2165.98
554.13	2171.83
554.48	2177.60
554.84	2183.05
555.19	2188.16
555.55	2193.09
555.90	2197.33
556.26	2202.15
556.61	2206.50
556.97	2210.70
557.32	2214.87
557.68	2218.93
558.03	2223.06
558.39	2226.61
558.74	2230.91
559.10	2234.61
559.45	2238.04
559.81	2242.19
560.16	2245.75
560.52	2248.94
560.87	2252.24
561.23	2254.63
561.58	2257.43
561.94	2260.08
562.29	2262.34
562.64	2264.96
563.00	2267.41
563.35	2270.84
563.71	2273.74
564.06	2276.80
564.42	2279.61
564.77	2281.91
565.12	2283.89
565.48	2285.59
565.83	2287.17
566.19	2288.27
566.54	2289.04
566.89	2290.19
567.25	2290.51
567.60	2291.64
567.96	2292.99
568.31	2293.45
568.66	2294.28
569.02	2294.60
569.37	2294.67
569.72	2295.18
570.08	2294.96
570.43	2294.79
570.78	2293.81
571.14	2292.13
571.49	2290.54
571.84	2289.80
572.20	2288.24
572.55	2286.83
572.90	2284.80
573.26	2283.10
573.61	2281.17
573.96	2279.17
574.31	2275.83
574.67	2272.49
575.02	2268.47
575.37	2264.74
575.72	2260.64
576.08	2257.05
576.43	2253.47
576.78	2249.66
577.13	2246.20
577.49	2242.93
577.84	2239.27
578.19	2235.56
578.54	2231.55
578.90	2227.08
579.25	2221.32
579.60	2216.14
579.95	2211.07
580.30	2205.94
580.66	2200.55
581.01	2195.30
581.36	2190.11
581.71	2185.71
582.06	2181.10
582.42	2176.52
582.77	2171.12
583.12	2166.41
583.47	2161.62
583.82	2156.55
584.17	2151.21
584.53	2145.57
584.88	2139.86
585.23	2133.81
585.58	2127.97
585.93	2122.35
586.28	2117.43
586.63	2112.20
586.98	2107.03
587.34	2102.21
587.69	2097.20
588.04	2091.93
588.39	2086.27
588.74	2079.55
589.09	2073.35
589.44	2066.33
589.79	2060.08
590.14	2054.24
590.49	2047.68
590.84	2040.97
591.19	2034.58
591.54	2027.75
591.89	2020.26
592.25	2013.30
592.60	2006.15
592.95	1998.43
593.30	1990.99
593.65	1983.11
594.00	1975.90
594.35	1968.45
594.70	1960.22
595.05	1953.00
595.40	1945.65
595.75	1938.05
596.10	1931.83
596.45	1924.89
596.80	1918.64
597.15	1912.01
597.50	1904.97
597.85	1898.40
598.19	1891.82
598.54	1884.83
598.89	1878.25
599.24	1872.33
599.59	1865.57
599.94	1859.09
600.29	1852.82
600.64	1846.16
600.99	1838.88
601.34	1832.18
601.69	1825.19
602.04	1818.29
602.39	1810.92
602.74	1804.06
603.08	1797.39
603.43	1790.69
603.78	1783.48
604.13	1776.37
604.48	1769.13
604.83	1762.39
605.18	1755.38
605.53	1747.43
605.87	1739.38
606.22	1732.05
606.57	1724.16
606.92	1716.86
607.27	1709.75
607.62	1702.75
607.96	1695.70
608.31	1689.15
608.66	1681.51
609.01	1674.06
609.36	1666.62
609.70	1658.66
610.05	1650.75
610.40	1643.18
610.75	1635.00
611.10	1627.32
611.44	1619.12
611.79	1611.08
612.14	1602.45
612.49	1593.43
612.83	1585.18
613.18	1577.17
613.53	1569.18
613.88	1560.80
614.22	1552.69
614.57	1544.25
614.92	1536.53
615.27	1529.09
615.61	1520.80
615.96	1512.94
616.31	1505.44
616.65	1498.14
617.00	1490.65
617.35	1482.92
617.70	1474.54
618.04	1465.94
618.39	1457.84
618.74	1450.27
619.08	1442.26
619.43	1434.79
619.78	1427.94
620.12	1420.90
620.47	1413.57
620.82	1405.54
621.16	1398.21
621.51	1390.59
621.85	1383.12
622.20	1374.74
622.55	1366.45
622.89	1358.78
623.24	1351.24
623.59	1344.00
623.93	1336.69
624.28	1329.51
624.62	1322.22
624.97	1315.23
625.32	1308.62
625.66	1301.71
626.01	1294.62
626.35	1287.21
626.70	1279.59
627.04	1272.03
627.39	1264.34
627.73	1257.03
628.08	1250.19
628.43	1243.01
628.77	1235.83
629.12	1228.40
629.46	1221.30
629.81	1213.98
630.15	1206.96
630.50	1199.73
630.84	1191.69
631.19	1183.75
631.53	1176.44
631.88	1169.03
632.22	1161.51
632.57	1154.49
632.91	1147.15
633.26	1139.79
633.60	1132.57
633.95	1125.56
634.29	1118.60
634.64	1111.97
634.98	1104.81
635.32	1097.87
635.67	1091.48
636.01	1084.98
636.36	1078.29
636.70	1071.93
637.05	1065.51
637.39	1059.15
637.73	1052.75
638.08	1047.00
638.42	1041.20
638.77	1034.89
639.11	1028.41
639.45	1022.16
639.80	1015.57
640.14	1009.22
640.49	1002.93
640.83	996.74
641.17	990.65
641.52	984.54
641.86	978.35
642.20	972.64
642.55	966.44
642.89	960.04
643.23	953.69
643.58	947.99
643.92	941.90
644.26	935.93
644.61	929.94
644.95	923.97
645.29	917.40
645.64	910.68
645.98	904.41
646.32	898.58
646.66	892.64
647.01	886.97
647.35	881.31
647.69	875.51
648.04	870.05
648.38	864.40
648.72	858.44
649.06	852.45
649.41	846.51
649.75	840.54
650.09	834.53
650.43	828.73
650.78	822.67
651.12	816.68
651.46	811.03
651.80	805.28
652.14	799.95
652.49	794.70
652.83	789.64
653.17	784.05
653.51	778.36
653.85	773.00
654.20	767.36
654.54	761.52
654.88	755.80
655.22	749.98
655.56	744.30
655.90	738.86
656.25	733.60
656.59	728.26
656.93	723.25
657.27	718.20
657.61	712.84
657.95	707.72
658.29	702.69
658.64	697.46
658.98	692.32
659.32	686.92
659.66	681.82
660.00	676.57
660.34	671.69
660.68	666.92
661.02	661.97
661.36	657.36
661.70	652.83
662.05	648.52
662.39	644.24
662.73	639.88
663.07	635.60
663.41	631.22
663.75	626.85
664.09	622.31
664.43	617.96
664.77	613.88
665.11	609.77
665.45	605.78
665.79	601.85
666.13	597.73
666.47	593.68
666.81	589.52
667.15	585.51
667.49	581.70
667.83	577.89
668.17	573.99
668.51	570.00
668.85	566.04
669.19	562.25
669.53	558.48
669.87	554.64
670.21	551.00
670.55	547.44
670.89	544.07
671.23	540.78
671.57	537.33
671.91	533.87
672.25	530.37
672.58	526.88
672.92	523.47
673.26	520.39
673.60	517.29
673.94	514.28
674.28	511.43
674.62	508.52
674.96	505.50
675.30	502.68
675.64	499.77
675.97	497.11
676.31	494.33
676.65	491.42
676.99	488.81
677.33	485.99
677.67	483.18
678.01	480.24
678.34	477.27
678.68	474.48
679.02	471.71
679.36	469.01
679.70	466.36
680.04	463.64
680.37	460.79
680.71	458.03
681.05	455.42
681.39	452.70
681.73	449.99
682.06	447.55
682.40	445.06
682.74	442.61
683.08	440.11
683.42	437.59
683.75	435.18
684.09	432.64
684.43	430.21
684.77	427.84
685.10	425.51
685.44	423.27
685.78	421.01
686.12	418.80
686.45	416.57
686.79	414.31
687.13	412.18
687.46	410.06
687.80	407.93
688.14	405.75
688.48	403.80
688.81	401.65
689.15	399.48
689.49	397.35
689.82	395.28
690.16	393.20
690.50	391.22
690.83	389.31
691.17	387.38
691.51	385.42
691.84	383.60
692.18	381.65
692.52	379.68
692.85	377.75
693.19	375.91
693.52	374.09
693.86	372.29
694.20	370.54
694.53	368.76
694.87	366.99
695.21	365.23
695.54	363.43
695.88	361.71
696.21	360.01
696.55	358.34
696.88	356.68
697.22	355.02
697.56	353.44
697.89	351.76
698.23	350.13
698.56	348.62
698.90	347.04
699.23	345.43
699.57	343.89
699.90	342.38
700.24	340.80
700.58	339.30
700.91	337.81
701.25	336.34
701.58	334.97
701.92	333.58
702.25	332.22
702.59	330.84
702.92	329.53
703.26	328.26
703.59	326.97
703.93	325.77
704.26	324.61
704.60	323.33
704.93	322.08
705.26	320.86
705.60	319.67
705.93	318.54
706.27	317.55
706.60	316.55
706.94	315.48
707.27	314.44
707.61	313.39
707.94	312.37
708.27	311.29
708.61	310.23
708.94	309.25
709.28	308.32
709.61	307.35
709.94	306.44
710.28	305.45
710.61	304.49
710.95	303.49
711.28	302.57
711.61	301.63
711.95	300.75
712.28	299.83
712.61	298.90
712.95	297.98
713.28	297.11
713.61	296.19
713.95	295.36
714.28	294.51
714.61	293.68
714.95	292.88
715.28	292.06
715.61	291.19
715.95	290.34
716.28	289.50
716.61	288.68
716.95	287.88
717.28	287.17
717.61	286.40
717.94	285.67
718.28	284.87
718.61	284.19
718.94	283.51
719.27	282.91
719.61	282.30
719.94	281.62
720.27	280.93
720.60	280.32
720.94	279.69
721.27	279.13
721.60	278.56
721.93	277.98
722.27	277.47
722.60	276.97
722.93	276.45
723.26	275.94
723.59	275.45
723.93	274.90
724.26	274.34
724.59	273.79
724.92	273.26
725.25	272.80
725.59	272.30
725.92	271.82
726.25	271.27
726.58	270.78
726.91	270.32
727.24	269.88
727.57	269.41
727.91	268.90
728.24	268.41
728.57	267.94
728.90	267.50
729.23	267.01
729.56	266.58
729.89	266.08
730.22	265.60
730.55	265.15
730.89	264.69
731.22	264.25
731.55	263.88
731.88	263.46
732.21	263.02
732.54	262.57
732.87	262.14
733.20	261.75
733.53	261.31
733.86	260.92
734.19	260.51
734.52	260.15
734.85	259.86
735.18	259.45
735.51	259.10
735.84	258.66
736.17	258.31
736.50	257.92
736.83	257.69
737.16	257.36
737.49	257.01
737.82	256.65
738.15	256.34
738.48	255.99
738.81	255.67
739.14	255.33
739.47	255.02
739.80	254.68
740.13	254.39
740.46	254.08
740.79	253.74
741.12	253.41
741.45	253.06
741.78	252.70
742.11	252.43
742.44	252.05
742.77	251.80
743.10	251.49
743.43	251.15
743.75	250.76
744.08	250.59
744.41	250.29
744.74	250.01
745.07	249.72
745.40	249.45
745.73	249.21
746.06	248.94
746.39	248.65
746.71	248.38
747.04	248.10
747.37	247.85
747.70	247.64
748.03	247.39
748.36	247.16
748.68	246.90
749.01	246.66
749.34	246.45
749.67	246.22
750.00	246.01
750.33	245.89
750.65	245.67
750.98	245.30
751.31	245.10
751.64	244.92
751.97	244.73
752.29	244.51
752.62	244.27
752.95	244.07
753.28	243.88
753.60	243.71
753.93	243.51
754.26	243.34
754.59	243.07
754.91	242.86
755.24	242.67
755.57	242.49
755.90	242.31
756.22	242.12
756.55	241.92
756.88	241.71
757.20	241.45
757.53	241.28
757.86	241.17
758.19	241.02
758.51	240.86
758.84	240.65
759.17	240.49
759.49	240.34
759.82	240.23
760.15	240.10
760.47	239.98
760.80	239.84
761.13	239.70
761.45	239.56
761.78	239.46
762.11	239.33
762.43	239.20
762.76	239.07
763.08	238.99
763.41	238.87
763.74	238.76
764.06	238.69
764.39	238.56
764.71	238.44
765.04	238.28
765.37	238.15
765.69	238.03
766.02	237.93
766.34	237.81
766.67	237.65
767.00	237.59
767.32	237.50
767.65	237.45
767.97	237.35
768.30	237.27
768.62	237.15
768.95	237.01
769.27	236.90
769.60	236.83
769.92	236.68
770.25	236.58
770.57	236.46
770.90	236.34
771.22	236.27
771.55	236.13
771.87	236.06
772.20	235.97
772.52	235.97
772.85	236.00
773.17	235.90
773.50	235.83
773.82	235.70
774.15	235.54
774.47	235.37
774.80	235.24
775.12	235.17
775.45	235.09
775.77	235.04
776.09	234.95
776.42	234.83
776.74	234.76
777.07	234.67
777.39	234.60
777.72	234.52
778.04	234.44
778.36	234.35
778.69	234.29
779.01	234.21
779.33	234.09
779.66	233.89
779.98	233.80
780.31	233.71
780.63	233.64
780.95	233.60
781.28	233.56
781.60	233.51
781.92	233.44
782.25	233.37
782.57	233.32
782.89	233.25
783.22	233.17
783.54	233.10
783.86	233.06
784.19	232.98
784.51	232.92
784.83	232.85
785.16	232.80
785.48	232.72
785.80	232.70
786.12	232.64
786.45	232.59
786.77	232.50
787.09	232.46
787.42	232.40
787.74	232.36
788.06	232.29
788.38	232.24
788.71	232.18
789.03	232.10
789.35	232.03
789.67	231.97
789.99	231.95
790.32	231.85
790.64	231.82
790.96	231.90
791.28	231.83
791.61	231.78
791.93	231.73
792.25	231.68
792.57	231.69
792.89	231.64
793.21	231.64
793.54	231.62
793.86	231.59
794.18	231.53
794.50	231.49
794.82	231.46
795.14	231.43
795.47	231.41
795.79	231.40
796.11	231.36
796.43	231.34
796.75	231.29
797.07	231.28
797.39	231.24
797.71	231.12
798.04	231.07
798.36	231.02
798.68	231.02
799.00	231.01
799.32	230.93
799.64	230.90
799.96	230.86
800.28	230.85
800.60	230.79
800.92	230.80
801.24	230.76
801.56	230.74
801.89	230.73
802.21	230.70
802.53	230.65
802.85	230.66
803.17	230.66
803.49	230.63
803.81	230.66
804.13	230.64
804.45	230.58
804.77	230.59
805.09	230.57
805.41	230.52
805.73	230.51
806.05	230.46
806.37	230.44
806.69	230.41
807.01	230.35
807.33	230.35
807.65	230.34
807.97	230.37
808.28	230.33
808.60	230.34
808.92	230.33
809.24	230.36
809.56	230.32
809.88	230.30
810.20	230.28
810.52	230.27
810.84	230.26
811.16	230.23
811.48	230.21
811.80	230.23
812.12	230.19
812.43	230.20
812.75	230.16
813.07	230.12
813.39	230.07
813.71	230.04
814.03	230.02
814.35	229.96
814.67	229.89
814.98	229.86
815.30	229.77
815.62	229.71
815.94	229.65
816.26	229.69
816.58	229.64
816.89	229.63
817.21	229.55
817.53	229.52
817.85	229.49
818.17	229.45
818.48	229.39
818.80	229.37
819.12	229.31
819.44	229.29
819.76	229.24
820.07	229.23
820.39	229.21
820.71	229.19
821.03	229.19
821.34	229.16
821.66	229.17
821.98	229.18
822.30	229.17
822.61	229.19
822.93	229.12
823.25	229.10
823.57	229.07
823.88	229.09
824.20	229.06
824.52	229.10
824.83	229.09
825.15	229.07
825.47	229.05
825.79	229.05
826.10	229.04
826.42	229.04
826.74	229.07
827.05	229.07
827.37	229.09
827.69	229.07
828.00	229.04
828.32	229.01
828.64	229.03
828.95	229.07
829.27	229.04
829.58	229.01
829.90	229.03
830.22	229.02
830.53	228.99
830.85	228.99
831.17	228.94
831.48	228.91
831.80	228.91
832.11	228.91
832.43	228.90
832.75	228.84
833.06	228.91
833.38	228.82
833.69	228.80
834.01	228.76
834.32	228.78
834.64	228.76
834.96	228.76
835.27	228.72
835.59	228.65
835.90	228.61
836.22	228.61
836.53	228.58
836.85	228.56
837.16	228.68
837.48	228.64
837.79	228.67
838.11	228.70
838.42	228.66
838.74	228.68
839.05	228.66
839.37	228.72
839.68	228.64
840.00	228.69
840.31	228.72
840.63	228.73
840.94	228.69
841.26	228.69
841.57	228.68
841.88	228.68
842.20	228.66
842.51	228.67
842.83	228.66
843.14	228.74
843.46	228.73
843.77	228.65
844.08	228.66
844.40	228.62
844.71	228.61
845.03	228.64
845.34	228.62
845.65	228.61
845.97	228.59
846.28	228.61
846.60	228.61
846.91	228.59
847.22	228.58
847.54	228.61
847.85	228.61
848.16	228.58
848.48	228.56
848.79	228.61
849.10	228.60
849.42	228.62
849.73	228.51
850.04	228.53
850.36	228.48
850.67	228.46
850.98	228.44
851.30	228.44
851.61	228.39
851.92	228.33
852.23	228.37
852.55	228.34
852.86	228.31
853.17	228.30
853.49	228.32
853.80	228.31
854.11	228.30
854.42	228.31
854.74	228.29
855.05	228.30
855.36	228.24
855.67	228.23
855.99	228.21
856.30	228.30
856.61	228.28
856.92	228.28
857.23	228.28
857.55	228.25
857.86	228.23
858.17	228.27
858.48	228.27
858.79	228.28
859.11	228.29
859.42	228.29
859.73	228.26
860.04	228.19
860.35	228.15
860.66	228.15
860.98	228.15
861.29	228.19
861.60	228.16
861.91	228.20
862.22	228.17
862.53	228.18
862.84	228.07
863.16	228.07
863.47	228.05
863.78	228.04
864.09	228.10
864.40	228.10
864.71	228.06
865.02	228.10
865.33	228.07
865.64	228.05
865.95	228.02
866.27	228.07
866.58	228.10
866.89	228.13
867.20	228.09
867.51	228.05
867.82	228.02
868.13	228.05
868.44	228.04
868.75	228.08
869.06	228.09
869.37	228.14
869.68	228.13
869.99	228.16
870.30	228.18
870.61	228.16
870.92	228.19
871.23	228.23
871.54	228.25
871.85	228.25
872.16	228.27
872.47	228.27
872.78	228.21
873.09	228.22
873.40	228.21
873.71	228.24
874.02	228.30
874.33	228.28
874.64	228.27
874.95	228.27
875.26	228.24
875.56	228.25
875.87	228.22
876.18	228.25
876.49	228.35
876.80	228.33
877.11	228.31
877.42	228.29
877.73	228.29
878.04	228.25
878.35	228.23
878.66	228.23
878.96	228.23
879.27	228.27
879.58	228.25
879.89	228.25
880.20	228.25
880.51	228.20
880.82	228.21
881.12	228.18
881.43	228.17
881.74	228.14
882.05	228.09
882.36	228.09
882.67	228.07
882.97	227.96
883.28	227.99
883.59	228.00
883.90	228.01
884.21	228.05
884.51	228.06
884.82	228.09
885.13	228.07
885.44	228.11
885.74	228.09
886.05	228.09
886.36	228.07
886.67	228.02
886.98	228.07
887.28	228.12
887.59	228.11
887.90	228.09
888.20	228.13
888.51	228.15
888.82	228.14
889.13	228.15
889.43	228.19
889.74	228.14
890.05	228.12
890.35	228.10
890.66	228.06
890.97	228.04
891.28	228.00
891.58	228.03
891.89	227.99
892.20	227.99
892.50	227.98
892.81	227.94
893.12	227.94
893.42	227.87
893.73	227.79
894.04	227.79
894.34	227.78
894.65	227.72
894.95	227.72
895.26	227.72
895.57	227.72
895.87	227.63
896.18	227.65
896.48	227.66
896.79	227.65
897.10	227.63
897.40	227.60
897.71	227.61
898.01	227.56
898.32	227.58
898.63	227.55
898.93	227.55
899.24	227.60
899.54	227.60
899.85	227.62
900.15	227.64
900.46	227.65
900.76	227.68
901.07	227.70
901.38	227.68
901.68	227.69
901.99	227.68
902.29	227.68
902.60	227.67
902.90	227.64
903.21	227.64
903.51	227.65
903.82	227.68
904.12	227.70
904.43	227.73
904.73	227.73
905.03	227.74
905.34	227.83
905.64	227.82
905.95	227.82
906.25	227.85
906.56	227.87
906.86	227.88
907.17	227.87
907.47	227.89
907.77	227.92
908.08	227.92
908.38	227.94
908.69	227.97
908.99	227.99
909.30	228.00
909.60	228.03
909.90	228.03
910.21	228.03
910.51	227.98
910.81	228.00
911.12	228.01
911.42	228.02
911.73	227.92
912.03	227.92
912.33	227.96
912.64	227.92
912.94	227.91
913.24	227.89
913.55	227.89
913.85	227.89
914.15	227.85
914.46	227.85
914.76	227.84
915.06	227.83
915.37	227.83
915.67	227.86
915.97	227.86
916.27	227.85
916.58	227.85
916.88	227.88
917.18	227.86
917.49	227.93
917.79	227.90
918.09	227.92
918.39	227.96
918.70	227.96
919.00	227.96
919.30	228.02
919.60	228.01
919.91	227.99
920.21	227.98
920.51	227.99
920.81	227.99
921.12	228.01
921.42	228.02
921.72	228.00
922.02	228.00
922.32	227.98
922.63	227.98
922.93	228.04
923.23	228.05
923.53	228.04
923.83	227.96
924.13	228.01
924.44	228.02
924.74	228.03
925.04	228.06
925.34	228.04
925.64	227.98
925.94	228.00
926.24	228.03
926.55	228.08
926.85	228.07
927.15	228.07
927.45	228.06
927.75	228.06
928.05	228.07
928.35	228.04
928.65	228.06
928.95	228.08
929.26	228.02
929.56	228.03
929.86	228.03
930.16	228.03
930.46	228.01
930.76	228.01
931.06	227.98
931.36	227.93
931.66	227.97
931.96	228.01
932.26	228.02
932.56	227.99
932.86	227.94
933.16	227.94
933.46	227.94
933.76	227.91
934.06	227.92
934.36	227.95
934.66	227.95
934.96	227.94
935.26	227.92
935.56	227.90
935.86	227.87
936.16	227.88
936.46	227.88
936.76	227.87
937.06	227.85
937.36	227.85
937.66	227.85
937.96	227.85
938.26	227.79
938.56	227.77
938.86	227.78
939.16	227.76
939.46	227.75
939.76	227.74
940.06	227.72
940.35	227.68
940.65	227.59
940.95	227.62
941.25	227.59
941.55	227.56
941.85	227.57
942.15	227.59
942.45	227.56
942.75	227.58
943.04	227.57
943.34	227.57
943.64	227.57
943.94	227.56
944.24	227.55
944.54	227.57
944.84	227.58
945.13	227.55
945.43	227.59
945.73	227.61
946.03	227.59
946.33	227.61
946.62	227.60
946.92	227.61
947.22	227.60
947.52	227.61
947.82	227.63
948.11	227.64
948.41	227.62
948.71	227.63
949.01	227.62
949.31	227.62
949.60	227.61
949.90	227.58
950.20	227.59
950.50	227.57
950.79	227.58
951.09	227.61
951.39	227.62
951.69	227.63
951.98	227.62
952.28	227.63
952.58	227.60
952.87	227.61
953.17	227.64
953.47	227.62
953.76	227.62
954.06	227.60
954.36	227.58
954.66	227.58
954.95	227.62
955.25	227.62
955.55	227.63
955.84	227.62
956.14	227.66
956.44	227.63
956.73	227.65
957.03	227.63
957.32	227.66
957.62	227.65
957.92	227.67
958.21	227.70
958.51	227.79
958.81	227.84
959.10	227.86
959.40	227.90
959.69	227.91
959.99	227.92
960.29	227.95
960.58	227.95
960.88	227.97
961.17	227.95
961.47	227.97
961.76	227.95
962.06	227.99
962.36	227.97
962.65	228.01
962.95	228.02
963.24	228.03
963.54	227.99
963.83	228.02
964.13	228.00
964.42	227.99
964.72	227.91
965.01	227.89
965.31	227.87
965.60	227.85
965.90	227.93
966.19	227.93
966.49	227.94
966.78	227.93
967.08	227.94
967.37	227.94
967.67	227.92
967.96	227.94
968.26	227.91
968.55	227.91
968.85	227.92
969.14	227.90
969.43	227.90
969.73	227.90
970.02	227.87
970.32	227.85
970.61	227.82
970.91	227.77
971.20	227.76
971.49	227.77
971.79	227.73
972.08	227.66
972.38	227.66
972.67	227.65
972.96	227.68
973.26	227.64
973.55	227.63
973.85	227.62
974.14	227.60
974.43	227.59
974.73	227.57
975.02	227.56
975.31	227.54
975.61	227.53
975.90	227.52
976.19	227.49
976.49	227.49
976.78	227.49
977.07	227.52
977.37	227.54
977.66	227.52
977.95	227.51
978.24	227.52
978.54	227.49
978.83	227.46
979.12	227.43
979.42	227.45
979.71	227.43
980.00	227.42
980.29	227.46
980.59	227.45
980.88	227.46
981.17	227.42
981.46	227.42
981.76	227.42
982.05	227.43
982.34	227.44
982.63	227.45
982.93	227.45
983.22	227.47
983.51	227.46
983.80	227.47
984.09	227.48
984.39	227.46
984.68	227.48
984.97	227.46
985.26	227.47
985.55	227.48
985.85	227.47
986.14	227.49
986.43	227.47
986.72	227.47
987.01	227.44
987.30	227.45
987.59	227.45
987.89	227.46
988.18	227.45
988.47	227.45
988.76	227.46
989.05	227.47
989.34	227.44
989.63	227.46
989.92	227.43
990.22	227.44
990.51	227.43
990.80	227.44
991.09	227.49
991.38	227.51
991.67	227.48
991.96	227.48
992.25	227.48
992.54	227.46
992.83	227.46
993.12	227.46
993.41	227.49
993.70	227.52
993.99	227.53
994.28	227.52
994.58	227.54
994.87	227.50
995.16	227.50
995.45	227.51
995.74	227.49
996.03	227.57
996.32	227.59
996.61	227.62
996.90	227.62
997.19	227.59
997.48	227.58
997.77	227.57
998.06	227.61
998.34	227.63
998.63	227.67
998.92	227.68
999.21	227.73
999.50	227.71
999.79	227.69
1000.08	227.70
1000.37	227.75
1000.66	227.74
1000.95	227.77
1001.24	227.78
1001.53	227.80
1001.82	227.81
1002.11	227.75
1002.40	227.76
1002.68	227.78
1002.97	227.84
1003.26	227.84
1003.55	227.82
1003.84	227.83
1004.13	227.85
1004.42	227.83
1004.71	227.78
1004.99	227.80
1005.28	227.80
1005.57	227.82
1005.86	227.83
1006.15	227.81
1006.44	227.76
1006.72	227.77
1007.01	227.80
1007.30	227.80
1007.59	227.78
1007.88	227.77
1008.17	227.78
1008.45	227.71
1008.74	227.67
1009.03	227.62
1009.32	227.60
1009.60	227.65
1009.89	227.64
1010.18	227.59
1010.47	227.58
1010.76	227.60
1011.04	227.57
1011.33	227.57
1011.62	227.55
1011.91	227.54
1012.19	227.53
1012.48	227.54
1012.77	227.54
1013.05	227.55
1013.34	227.54
1013.63	227.51
1013.92	227.52
1014.20	227.52
1014.49	227.55
1014.78	227.60
1015.06	227.59
1015.35	227.62
1015.64	227.61
1015.92	227.60
1016.21	227.60
1016.50	227.62
1016.78	227.66
1017.07	227.67
1017.36	227.66
1017.64	227.64
1017.93	227.65
1018.22	227.64
1018.50	227.65
1018.79	227.63
1019.08	227.55
1019.36	227.58
1019.65	227.58
1019.93	227.59
1020.22	227.61
1020.51	227.66
1020.79	227.64
1021.08	227.06
1021.36	227.49
1021.65	227.19
1021.94	227.00
1022.22	227.97
1022.51	227.23
1022.79	227.90
1023.08	227.93
1023.36	228.57
1023.65	227.70
>>>>>End Processed Spectral Data<<<<<
