SpectraSuite Data File
++++++++++++++++++++++++++++++++++++
Date: Fri Feb 01 14:54:44 EST 2013
User: group
Dark Spectrum Present: No
Reference Spectrum Present: No
Number of Sampled Component Spectra: 1
Spectrometers: USB2E7196
Integration Time (usec): 35000 (USB2E7196)
Spectra Averaged: 100 (USB2E7196)
Boxcar Smoothing: 10 (USB2E7196)
Correct for Electrical Dark: No (USB2E7196)
Strobe/Lamp Enabled: No (USB2E7196)
Correct for Detector Non-linearity: No (USB2E7196)
Correct for Stray Light: No (USB2E7196)
Number of Pixels in Processed Spectrum: 2048
>>>>>Begin Processed Spectral Data<<<<<
339.09	0.00
339.48	215.97
339.86	217.39
340.24	218.38
340.63	219.96
341.01	222.97
341.39	222.28
341.78	224.02
342.16	224.71
342.54	225.40
342.93	213.84
343.31	224.65
343.69	225.18
344.07	225.61
344.46	226.00
344.84	226.37
345.22	226.59
345.60	226.85
345.99	227.04
346.37	227.16
346.75	227.25
347.13	227.32
347.52	227.39
347.90	227.43
348.28	227.45
348.66	227.47
349.05	227.44
349.43	227.47
349.81	227.57
350.19	227.59
350.57	227.63
350.96	227.68
351.34	227.76
351.72	227.82
352.10	227.91
352.48	228.01
352.87	228.05
353.25	228.12
353.63	228.19
354.01	228.23
354.39	228.30
354.77	228.37
355.15	228.47
355.54	228.49
355.92	228.54
356.30	228.62
356.68	228.76
357.06	228.84
357.44	228.90
357.82	228.93
358.20	229.02
358.58	229.11
358.97	229.17
359.35	229.25
359.73	229.31
360.11	229.34
360.49	229.39
360.87	229.43
361.25	229.45
361.63	229.49
362.01	229.53
362.39	229.59
362.77	229.65
363.15	229.66
363.53	229.71
363.91	229.74
364.29	229.74
364.67	229.66
365.05	229.69
365.43	229.72
365.81	229.73
366.19	229.75
366.57	229.74
366.95	229.72
367.33	229.69
367.71	229.68
368.09	229.73
368.47	229.73
368.85	229.73
369.23	229.72
369.61	229.66
369.99	229.66
370.37	229.59
370.75	229.62
371.13	229.56
371.51	229.54
371.89	229.49
372.27	229.45
372.65	229.42
373.03	229.35
373.41	229.28
373.78	229.18
374.16	229.10
374.54	229.03
374.92	228.97
375.30	228.87
375.68	228.78
376.06	228.69
376.44	228.58
376.82	228.46
377.19	228.40
377.57	228.34
377.95	228.24
378.33	228.16
378.71	227.97
379.09	227.89
379.47	227.81
379.84	227.75
380.22	227.66
380.60	227.55
380.98	227.48
381.36	227.38
381.73	227.32
382.11	227.25
382.49	227.17
382.87	227.10
383.25	227.02
383.62	227.08
384.00	226.99
384.38	226.96
384.76	226.95
385.13	226.91
385.51	226.81
385.89	226.73
386.27	226.68
386.64	226.67
387.02	226.59
387.40	226.53
387.78	226.45
388.15	226.41
388.53	226.40
388.91	226.36
389.29	226.36
389.66	226.34
390.04	226.30
390.42	226.31
390.79	226.30
391.17	226.31
391.55	226.20
391.92	226.21
392.30	226.21
392.68	226.18
393.05	226.20
393.43	226.25
393.81	226.27
394.18	226.30
394.56	226.34
394.94	226.43
395.31	226.44
395.69	226.51
396.06	226.53
396.44	226.57
396.82	226.62
397.19	226.70
397.57	226.73
397.95	226.80
398.32	226.81
398.70	226.87
399.07	226.96
399.45	227.04
399.82	227.10
400.20	227.16
400.58	227.27
400.95	227.29
401.33	227.40
401.70	227.55
402.08	227.63
402.45	227.73
402.83	227.85
403.20	227.97
403.58	228.09
403.95	228.25
404.33	228.37
404.71	228.47
405.08	228.68
405.46	228.82
405.83	228.99
406.21	229.18
406.58	229.35
406.96	229.52
407.33	229.72
407.70	229.94
408.08	230.21
408.45	230.42
408.83	230.69
409.20	230.92
409.58	231.12
409.95	231.41
410.33	231.69
410.70	231.95
411.08	232.27
411.45	232.61
411.82	232.94
412.20	233.31
412.57	233.80
412.95	234.07
413.32	234.55
413.69	234.94
414.07	235.39
414.44	235.89
414.82	236.40
415.19	236.95
415.56	237.47
415.94	238.03
416.31	238.68
416.68	239.31
417.06	240.05
417.43	240.74
417.81	241.50
418.18	242.27
418.55	243.11
418.93	243.97
419.30	244.83
419.67	245.78
420.04	246.74
420.42	247.68
420.79	248.89
421.16	250.00
421.54	251.22
421.91	252.43
422.28	253.70
422.66	255.01
423.03	256.30
423.40	257.66
423.77	259.02
424.15	260.46
424.52	261.95
424.89	263.54
425.26	265.12
425.64	266.54
426.01	268.15
426.38	269.77
426.75	271.47
427.13	273.19
427.50	274.99
427.87	276.82
428.24	278.69
428.61	280.42
428.99	282.35
429.36	284.43
429.73	286.50
430.10	288.49
430.47	290.55
430.85	292.67
431.22	294.87
431.59	297.25
431.96	299.48
432.33	301.98
432.70	304.32
433.08	307.11
433.45	309.74
433.82	312.37
434.19	315.25
434.56	318.06
434.93	320.75
435.30	323.36
435.68	326.29
436.05	329.14
436.42	331.88
436.79	334.36
437.16	337.06
437.53	339.89
437.90	342.68
438.27	345.40
438.64	348.22
439.01	350.81
439.38	353.08
439.75	355.22
440.13	357.63
440.50	359.96
440.87	361.82
441.24	363.81
441.61	365.92
441.98	367.42
442.35	369.18
442.72	371.00
443.09	372.84
443.46	373.82
443.83	374.38
444.20	374.96
444.57	375.85
444.94	376.16
445.31	376.50
445.68	376.82
446.05	376.89
446.42	376.50
446.79	376.12
447.16	375.64
447.53	375.34
447.90	374.22
448.27	373.09
448.64	371.51
449.01	370.36
449.37	368.39
449.74	366.50
450.11	364.27
450.48	361.78
450.85	359.20
451.22	357.06
451.59	355.06
451.96	353.07
452.33	350.45
452.70	348.08
453.07	345.25
453.43	342.37
453.80	339.63
454.17	336.94
454.54	334.43
454.91	331.75
455.28	329.09
455.65	326.62
456.02	324.17
456.38	322.00
456.75	319.38
457.12	317.16
457.49	314.98
457.86	312.83
458.23	311.00
458.59	309.00
458.96	306.92
459.33	305.11
459.70	303.29
460.07	301.83
460.43	300.12
460.80	298.49
461.17	297.11
461.54	295.62
461.91	294.19
462.27	292.70
462.64	291.45
463.01	290.08
463.38	288.79
463.74	287.44
464.11	286.26
464.48	285.19
464.85	284.07
465.21	283.17
465.58	282.24
465.95	281.16
466.32	280.24
466.68	279.33
467.05	278.39
467.42	277.50
467.78	276.50
468.15	275.59
468.52	274.93
468.88	274.05
469.25	273.29
469.62	272.66
469.98	271.97
470.35	271.30
470.72	270.69
471.08	270.02
471.45	269.46
471.82	268.90
472.18	268.31
472.55	267.88
472.92	267.33
473.28	266.82
473.65	266.34
474.02	265.86
474.38	265.48
474.75	265.11
475.11	264.74
475.48	264.46
475.85	264.25
476.21	263.99
476.58	263.74
476.94	263.55
477.31	263.35
477.67	263.18
478.04	263.03
478.41	262.96
478.77	262.96
479.14	262.87
479.50	262.86
479.87	262.89
480.23	262.94
480.60	262.98
480.96	263.06
481.33	263.24
481.69	263.42
482.06	263.61
482.42	263.76
482.79	263.98
483.15	264.27
483.52	264.63
483.88	264.93
484.25	265.29
484.61	265.68
484.98	266.13
485.34	266.66
485.71	267.25
486.07	267.81
486.44	268.36
486.80	269.01
487.17	269.72
487.53	270.52
487.90	271.34
488.26	272.28
488.62	273.27
488.99	274.21
489.35	275.25
489.72	276.34
490.08	277.56
490.44	278.78
490.81	280.07
491.17	281.40
491.54	282.93
491.90	284.46
492.26	286.14
492.63	287.86
492.99	289.62
493.36	291.52
493.72	293.51
494.08	295.62
494.45	297.86
494.81	300.18
495.17	302.61
495.54	305.15
495.90	307.81
496.26	310.56
496.63	313.52
496.99	316.58
497.35	319.82
497.72	323.20
498.08	326.71
498.44	330.42
498.80	334.35
499.17	338.34
499.53	342.49
499.89	346.84
500.26	351.33
500.62	355.98
500.98	360.88
501.34	366.01
501.71	371.32
502.07	376.69
502.43	382.34
502.79	388.16
503.16	394.20
503.52	400.40
503.88	406.81
504.24	413.41
504.60	420.30
504.97	427.44
505.33	434.71
505.69	442.37
506.05	450.09
506.41	457.89
506.78	466.00
507.14	474.41
507.50	483.08
507.86	492.03
508.22	501.19
508.59	510.41
508.95	519.91
509.31	529.74
509.67	539.91
510.03	550.18
510.39	560.70
510.75	571.57
511.12	582.57
511.48	593.83
511.84	605.30
512.20	616.82
512.56	628.70
512.92	640.88
513.28	653.24
513.64	665.74
514.00	678.51
514.37	691.45
514.73	704.53
515.09	717.57
515.45	730.92
515.81	744.56
516.17	758.59
516.53	772.75
516.89	786.92
517.25	801.11
517.61	815.49
517.97	829.97
518.33	844.32
518.69	859.08
519.05	874.21
519.41	889.43
519.77	904.99
520.13	920.47
520.49	935.92
520.85	951.33
521.21	967.03
521.57	983.33
521.93	999.20
522.29	1015.70
522.65	1031.96
523.01	1048.19
523.37	1064.25
523.73	1080.46
524.09	1096.48
524.45	1112.77
524.81	1129.51
525.17	1146.47
525.53	1163.41
525.89	1180.30
526.25	1197.13
526.61	1213.37
526.97	1230.14
527.33	1246.62
527.68	1263.29
528.04	1279.80
528.40	1296.57
528.76	1313.65
529.12	1330.23
529.48	1347.03
529.84	1363.10
530.20	1379.92
530.56	1397.03
530.91	1414.56
531.27	1431.32
531.63	1448.01
531.99	1464.71
532.35	1480.59
532.71	1496.55
533.07	1512.90
533.42	1528.88
533.78	1545.02
534.14	1561.43
534.50	1576.80
534.86	1592.79
535.21	1608.05
535.57	1624.09
535.93	1639.60
536.29	1654.49
536.65	1669.51
537.00	1684.52
537.36	1699.92
537.72	1714.48
538.08	1728.92
538.44	1742.65
538.79	1756.66
539.15	1770.38
539.51	1784.18
539.87	1798.65
540.22	1812.30
540.58	1826.18
540.94	1839.66
541.29	1852.75
541.65	1865.57
542.01	1878.93
542.37	1891.21
542.72	1903.83
543.08	1915.67
543.44	1928.10
543.79	1939.52
544.15	1950.67
544.51	1962.11
544.87	1973.08
545.22	1983.89
545.58	1994.15
545.94	2004.10
546.29	2014.00
546.65	2023.82
547.01	2033.13
547.36	2041.90
547.72	2050.60
548.07	2058.39
548.43	2066.62
548.79	2074.64
549.14	2082.22
549.50	2089.64
549.86	2097.50
550.21	2104.64
550.57	2111.83
550.92	2118.45
551.28	2125.57
551.64	2132.61
551.99	2139.16
552.35	2145.32
552.70	2151.28
553.06	2157.17
553.41	2163.38
553.77	2169.42
554.13	2175.53
554.48	2181.61
554.84	2187.05
555.19	2192.14
555.55	2197.26
555.90	2201.51
556.26	2206.31
556.61	2210.96
556.97	2214.97
557.32	2219.04
557.68	2223.12
558.03	2227.28
558.39	2230.99
558.74	2235.31
559.10	2239.24
559.45	2242.97
559.81	2247.21
560.16	2250.99
560.52	2254.11
560.87	2257.40
561.23	2259.97
561.58	2262.82
561.94	2265.34
562.29	2267.69
562.64	2270.30
563.00	2272.82
563.35	2276.38
563.71	2279.24
564.06	2282.36
564.42	2285.25
564.77	2287.53
565.12	2289.67
565.48	2291.51
565.83	2293.08
566.19	2294.34
566.54	2295.07
566.89	2295.95
567.25	2296.30
567.60	2297.71
567.96	2299.37
568.31	2300.22
568.66	2301.05
569.02	2301.38
569.37	2301.34
569.72	2301.89
570.08	2301.86
570.43	2301.62
570.78	2300.64
571.14	2298.91
571.49	2297.30
571.84	2296.69
572.20	2295.36
572.55	2294.17
572.90	2292.38
573.26	2290.77
573.61	2288.86
573.96	2286.77
574.31	2283.63
574.67	2280.39
575.02	2276.46
575.37	2272.83
575.72	2268.69
576.08	2265.33
576.43	2261.84
576.78	2258.14
577.13	2254.93
577.49	2251.67
577.84	2248.15
578.19	2244.40
578.54	2240.65
578.90	2236.46
579.25	2230.79
579.60	2225.57
579.95	2220.41
580.30	2215.10
580.66	2209.84
581.01	2204.72
581.36	2199.74
581.71	2195.37
582.06	2190.75
582.42	2186.16
582.77	2180.79
583.12	2176.01
583.47	2170.98
583.82	2165.84
584.17	2160.48
584.53	2154.74
584.88	2148.94
585.23	2142.85
585.58	2137.30
585.93	2131.60
586.28	2126.47
586.63	2121.30
586.98	2116.16
587.34	2111.47
587.69	2106.61
588.04	2101.29
588.39	2095.46
588.74	2088.78
589.09	2082.54
589.44	2075.68
589.79	2069.59
590.14	2063.95
590.49	2057.27
590.84	2050.68
591.19	2044.33
591.54	2037.63
591.89	2029.94
592.25	2022.92
592.60	2015.67
592.95	2007.75
593.30	2000.43
593.65	1992.73
594.00	1985.54
594.35	1978.35
594.70	1970.01
595.05	1962.75
595.40	1955.27
595.75	1947.71
596.10	1941.33
596.45	1934.38
596.80	1928.11
597.15	1921.14
597.50	1913.74
597.85	1907.40
598.19	1900.77
598.54	1893.83
598.89	1887.16
599.24	1881.39
599.59	1874.84
599.94	1868.67
600.29	1862.61
600.64	1856.04
600.99	1848.62
601.34	1841.60
601.69	1834.46
602.04	1827.53
602.39	1820.03
602.74	1813.23
603.08	1806.50
603.43	1799.87
603.78	1792.74
604.13	1785.56
604.48	1778.24
604.83	1771.52
605.18	1764.43
605.53	1756.45
605.87	1748.25
606.22	1741.13
606.57	1733.19
606.92	1725.86
607.27	1718.65
607.62	1711.49
607.96	1704.09
608.31	1697.45
608.66	1689.99
609.01	1682.51
609.36	1675.01
609.70	1667.04
610.05	1659.02
610.40	1651.33
610.75	1643.03
611.10	1635.40
611.44	1627.10
611.79	1619.27
612.14	1610.58
612.49	1601.62
612.83	1593.31
613.18	1585.48
613.53	1577.31
613.88	1568.87
614.22	1560.59
614.57	1552.10
614.92	1544.19
615.27	1536.66
615.61	1528.32
615.96	1520.30
616.31	1512.75
616.65	1505.37
617.00	1497.82
617.35	1490.21
617.70	1481.91
618.04	1473.41
618.39	1465.19
618.74	1457.70
619.08	1449.47
619.43	1441.93
619.78	1435.04
620.12	1427.93
620.47	1420.36
620.82	1412.31
621.16	1404.93
621.51	1397.35
621.85	1389.71
622.20	1381.34
622.55	1373.13
622.89	1365.47
623.24	1358.07
623.59	1350.71
623.93	1343.37
624.28	1336.19
624.62	1328.70
624.97	1321.66
625.32	1314.96
625.66	1307.97
626.01	1300.72
626.35	1293.33
626.70	1285.71
627.04	1277.97
627.39	1270.31
627.73	1263.01
628.08	1256.16
628.43	1248.86
628.77	1241.52
629.12	1234.04
629.46	1226.77
629.81	1219.49
630.15	1212.34
630.50	1204.95
630.84	1196.90
631.19	1189.01
631.53	1181.55
631.88	1174.12
632.22	1166.52
632.57	1159.34
632.91	1151.90
633.26	1144.56
633.60	1137.31
633.95	1130.27
634.29	1123.25
634.64	1116.55
634.98	1109.22
635.32	1102.05
635.67	1095.56
636.01	1089.03
636.36	1082.30
636.70	1076.02
637.05	1069.52
637.39	1063.13
637.73	1056.61
638.08	1050.80
638.42	1044.81
638.77	1038.49
639.11	1031.91
639.45	1025.60
639.80	1018.94
640.14	1012.54
640.49	1006.08
640.83	999.89
641.17	993.70
641.52	987.51
641.86	981.22
642.20	975.44
642.55	969.30
642.89	962.83
643.23	956.44
643.58	950.65
643.92	944.35
644.26	938.25
644.61	932.31
644.95	926.28
645.29	919.73
645.64	913.09
645.98	906.82
646.32	901.09
646.66	895.07
647.01	889.36
647.35	883.68
647.69	877.87
648.04	872.43
648.38	866.64
648.72	860.62
649.06	854.55
649.41	848.66
649.75	842.72
650.09	836.85
650.43	830.92
650.78	824.91
651.12	819.01
651.46	813.30
651.80	807.42
652.14	802.15
652.49	796.75
652.83	791.62
653.17	785.97
653.51	780.22
653.85	774.98
654.20	769.39
654.54	763.47
654.88	757.85
655.22	751.88
655.56	746.29
655.90	740.87
656.25	735.67
656.59	730.42
656.93	725.30
657.27	720.13
657.61	714.83
657.95	709.68
658.29	704.68
658.64	699.58
658.98	694.40
659.32	689.01
659.66	683.85
660.00	678.59
660.34	673.70
660.68	668.84
661.02	663.81
661.36	659.15
661.70	654.78
662.05	650.40
662.39	646.14
662.73	641.75
663.07	637.44
663.41	633.04
663.75	628.51
664.09	624.07
664.43	619.75
664.77	615.76
665.11	611.63
665.45	607.60
665.79	603.46
666.13	599.40
666.47	595.31
666.81	591.18
667.15	587.12
667.49	583.30
667.83	579.58
668.17	575.69
668.51	571.66
668.85	567.63
669.19	563.86
669.53	560.09
669.87	556.27
670.21	552.61
670.55	549.05
670.89	545.72
671.23	542.29
671.57	538.89
671.91	535.32
672.25	531.91
672.58	528.36
672.92	525.06
673.26	521.94
673.60	518.82
673.94	515.77
674.28	512.88
674.62	509.90
674.96	506.80
675.30	503.87
675.64	500.97
675.97	498.22
676.31	495.35
676.65	492.44
676.99	489.68
677.33	486.90
677.67	484.08
678.01	481.06
678.34	478.08
678.68	475.18
679.02	472.42
679.36	469.61
679.70	466.95
680.04	464.21
680.37	461.31
680.71	458.62
681.05	456.03
681.39	453.35
681.73	450.75
682.06	448.21
682.40	445.68
682.74	443.19
683.08	440.69
683.42	438.13
683.75	435.68
684.09	433.22
684.43	430.75
684.77	428.33
685.10	426.03
685.44	423.77
685.78	421.52
686.12	419.30
686.45	417.03
686.79	414.73
687.13	412.56
687.46	410.47
687.80	408.32
688.14	406.15
688.48	404.11
688.81	401.89
689.15	399.79
689.49	397.66
689.82	395.58
690.16	393.48
690.50	391.56
690.83	389.62
691.17	387.68
691.51	385.82
691.84	383.97
692.18	382.04
692.52	380.08
692.85	378.19
693.19	376.32
693.52	374.51
693.86	372.76
694.20	371.03
694.53	369.25
694.87	367.43
695.21	365.70
695.54	363.89
695.88	362.21
696.21	360.49
696.55	358.87
696.88	357.24
697.22	355.64
697.56	354.02
697.89	352.37
698.23	350.78
698.56	349.17
698.90	347.57
699.23	345.96
699.57	344.42
699.90	342.89
700.24	341.32
700.58	339.81
700.91	338.30
701.25	336.84
701.58	335.44
701.92	334.13
702.25	332.71
702.59	331.30
702.92	329.95
703.26	328.66
703.59	327.41
703.93	326.21
704.26	324.95
704.60	323.68
704.93	322.45
705.26	321.13
705.60	319.99
705.93	318.89
706.27	317.85
706.60	316.83
706.94	315.74
707.27	314.66
707.61	313.63
707.94	312.66
708.27	311.60
708.61	310.53
708.94	309.51
709.28	308.53
709.61	307.62
709.94	306.70
710.28	305.65
710.61	304.67
710.95	303.62
711.28	302.73
711.61	301.78
711.95	300.84
712.28	299.96
712.61	298.93
712.95	298.03
713.28	297.16
713.61	296.24
713.95	295.35
714.28	294.50
714.61	293.58
714.95	292.69
715.28	291.83
715.61	290.95
715.95	290.10
716.28	289.26
716.61	288.45
716.95	287.64
717.28	286.96
717.61	286.15
717.94	285.42
718.28	284.63
718.61	283.92
718.94	283.24
719.27	282.59
719.61	281.99
719.94	281.29
720.27	280.55
720.60	279.92
720.94	279.30
721.27	278.74
721.60	278.19
721.93	277.62
722.27	277.07
722.60	276.55
722.93	275.96
723.26	275.41
723.59	274.87
723.93	274.28
724.26	273.73
724.59	273.21
724.92	272.66
725.25	272.16
725.59	271.65
725.92	271.17
726.25	270.64
726.58	270.17
726.91	269.70
727.24	269.26
727.57	268.78
727.91	268.29
728.24	267.83
728.57	267.36
728.90	266.91
729.23	266.41
729.56	265.98
729.89	265.55
730.22	265.10
730.55	264.63
730.89	264.19
731.22	263.73
731.55	263.30
731.88	262.90
732.21	262.50
732.54	262.07
732.87	261.65
733.20	261.26
733.53	260.86
733.86	260.53
734.19	260.15
734.52	259.77
734.85	259.46
735.18	259.06
735.51	258.69
735.84	258.31
736.17	258.02
736.50	257.63
736.83	257.39
737.16	257.06
737.49	256.75
737.82	256.42
738.15	256.09
738.48	255.76
738.81	255.41
739.14	255.10
739.47	254.79
739.80	254.43
740.13	254.16
740.46	253.81
740.79	253.43
741.12	253.11
741.45	252.81
741.78	252.49
742.11	252.19
742.44	251.89
742.77	251.63
743.10	251.32
743.43	251.02
743.75	250.65
744.08	250.48
744.41	250.15
744.74	249.90
745.07	249.59
745.40	249.36
745.73	249.10
746.06	248.80
746.39	248.53
746.71	248.31
747.04	248.00
747.37	247.73
747.70	247.49
748.03	247.24
748.36	247.02
748.68	246.74
749.01	246.49
749.34	246.25
749.67	246.01
750.00	245.76
750.33	245.59
750.65	245.39
750.98	245.04
751.31	244.86
751.64	244.62
751.97	244.49
752.29	244.30
752.62	244.08
752.95	243.88
753.28	243.68
753.60	243.45
753.93	243.26
754.26	243.09
754.59	242.86
754.91	242.66
755.24	242.47
755.57	242.28
755.90	242.07
756.22	241.87
756.55	241.66
756.88	241.44
757.20	241.20
757.53	240.98
757.86	240.81
758.19	240.65
758.51	240.49
758.84	240.25
759.17	240.05
759.49	239.88
759.82	239.76
760.15	239.60
760.47	239.47
760.80	239.32
761.13	239.17
761.45	239.03
761.78	238.87
762.11	238.72
762.43	238.60
762.76	238.47
763.08	238.33
763.41	238.21
763.74	238.08
764.06	237.94
764.39	237.79
764.71	237.64
765.04	237.51
765.37	237.40
765.69	237.28
766.02	237.18
766.34	237.06
766.67	236.91
767.00	236.82
767.32	236.72
767.65	236.68
767.97	236.61
768.30	236.52
768.62	236.42
768.95	236.30
769.27	236.18
769.60	236.10
769.92	236.00
770.25	235.95
770.57	235.86
770.90	235.80
771.22	235.71
771.55	235.66
771.87	235.58
772.20	235.48
772.52	235.49
772.85	235.48
773.17	235.38
773.50	235.27
773.82	235.16
774.15	235.04
774.47	234.86
774.80	234.75
775.12	234.69
775.45	234.62
775.77	234.56
776.09	234.49
776.42	234.42
776.74	234.38
777.07	234.23
777.39	234.16
777.72	234.07
778.04	234.03
778.36	233.94
778.69	233.84
779.01	233.76
779.33	233.62
779.66	233.44
779.98	233.35
780.31	233.30
780.63	233.30
780.95	233.24
781.28	233.19
781.60	233.10
781.92	233.01
782.25	232.94
782.57	232.87
782.89	232.80
783.22	232.72
783.54	232.64
783.86	232.62
784.19	232.54
784.51	232.49
784.83	232.42
785.16	232.37
785.48	232.32
785.80	232.25
786.12	232.20
786.45	232.15
786.77	232.12
787.09	232.07
787.42	231.97
787.74	231.95
788.06	231.92
788.38	231.85
788.71	231.82
789.03	231.75
789.35	231.72
789.67	231.68
789.99	231.64
790.32	231.58
790.64	231.52
790.96	231.58
791.28	231.53
791.61	231.49
791.93	231.45
792.25	231.43
792.57	231.48
792.89	231.41
793.21	231.40
793.54	231.34
793.86	231.26
794.18	231.24
794.50	231.18
794.82	231.15
795.14	231.15
795.47	231.12
795.79	231.12
796.11	231.05
796.43	231.02
796.75	231.00
797.07	230.97
797.39	230.93
797.71	230.81
798.04	230.78
798.36	230.71
798.68	230.71
799.00	230.66
799.32	230.61
799.64	230.61
799.96	230.60
800.28	230.61
800.60	230.61
800.92	230.58
801.24	230.55
801.56	230.51
801.89	230.47
802.21	230.43
802.53	230.39
802.85	230.39
803.17	230.36
803.49	230.32
803.81	230.28
804.13	230.26
804.45	230.24
804.77	230.22
805.09	230.18
805.41	230.15
805.73	230.12
806.05	230.03
806.37	230.01
806.69	229.96
807.01	229.94
807.33	229.91
807.65	229.86
807.97	229.92
808.28	229.90
808.60	229.91
808.92	229.87
809.24	229.87
809.56	229.85
809.88	229.79
810.20	229.75
810.52	229.74
810.84	229.71
811.16	229.65
811.48	229.61
811.80	229.66
812.12	229.62
812.43	229.60
812.75	229.60
813.07	229.57
813.39	229.52
813.71	229.47
814.03	229.43
814.35	229.41
814.67	229.36
814.98	229.34
815.30	229.28
815.62	229.27
815.94	229.20
816.26	229.22
816.58	229.22
816.89	229.21
817.21	229.18
817.53	229.18
817.85	229.17
818.17	229.14
818.48	229.05
818.80	229.03
819.12	229.01
819.44	228.99
819.76	228.95
820.07	228.94
820.39	228.92
820.71	228.91
821.03	228.88
821.34	228.82
821.66	228.81
821.98	228.82
822.30	228.78
822.61	228.82
822.93	228.75
823.25	228.73
823.57	228.71
823.88	228.71
824.20	228.66
824.52	228.66
824.83	228.63
825.15	228.64
825.47	228.63
825.79	228.63
826.10	228.60
826.42	228.56
826.74	228.53
827.05	228.52
827.37	228.49
827.69	228.49
828.00	228.48
828.32	228.43
828.64	228.40
828.95	228.45
829.27	228.41
829.58	228.40
829.90	228.41
830.22	228.42
830.53	228.38
830.85	228.41
831.17	228.40
831.48	228.40
831.80	228.39
832.11	228.40
832.43	228.38
832.75	228.38
833.06	228.47
833.38	228.45
833.69	228.44
834.01	228.48
834.32	228.45
834.64	228.45
834.96	228.46
835.27	228.45
835.59	228.43
835.90	228.42
836.22	228.44
836.53	228.40
836.85	228.39
837.16	228.53
837.48	228.52
837.79	228.58
838.11	228.60
838.42	228.62
838.74	228.65
839.05	228.63
839.37	228.63
839.68	228.54
840.00	228.56
840.31	228.57
840.63	228.54
840.94	228.52
841.26	228.51
841.57	228.53
841.88	228.54
842.20	228.51
842.51	228.50
842.83	228.49
843.14	228.59
843.46	228.60
843.77	228.51
844.08	228.49
844.40	228.43
844.71	228.43
845.03	228.41
845.34	228.38
845.65	228.40
845.97	228.43
846.28	228.42
846.60	228.42
846.91	228.43
847.22	228.41
847.54	228.45
847.85	228.43
848.16	228.44
848.48	228.40
848.79	228.43
849.10	228.45
849.42	228.45
849.73	228.36
850.04	228.35
850.36	228.32
850.67	228.32
850.98	228.30
851.30	228.28
851.61	228.26
851.92	228.24
852.23	228.23
852.55	228.22
852.86	228.23
853.17	228.21
853.49	228.20
853.80	228.23
854.11	228.22
854.42	228.25
854.74	228.21
855.05	228.23
855.36	228.17
855.67	228.15
855.99	228.13
856.30	228.22
856.61	228.18
856.92	228.14
857.23	228.12
857.55	228.10
857.86	228.07
858.17	228.07
858.48	228.01
858.79	227.98
859.11	227.96
859.42	227.92
859.73	227.91
860.04	227.89
860.35	227.86
860.66	227.83
860.98	227.78
861.29	227.76
861.60	227.71
861.91	227.72
862.22	227.69
862.53	227.65
862.84	227.50
863.16	227.52
863.47	227.54
863.78	227.53
864.09	227.56
864.40	227.58
864.71	227.57
865.02	227.63
865.33	227.59
865.64	227.54
865.95	227.55
866.27	227.58
866.58	227.56
866.89	227.56
867.20	227.57
867.51	227.54
867.82	227.55
868.13	227.56
868.44	227.56
868.75	227.56
869.06	227.60
869.37	227.60
869.68	227.54
869.99	227.54
870.30	227.52
870.61	227.51
870.92	227.49
871.23	227.44
871.54	227.40
871.85	227.45
872.16	227.50
872.47	227.49
872.78	227.47
873.09	227.50
873.40	227.46
873.71	227.42
874.02	227.46
874.33	227.45
874.64	227.45
874.95	227.45
875.26	227.44
875.56	227.42
875.87	227.45
876.18	227.46
876.49	227.58
876.80	227.59
877.11	227.57
877.42	227.61
877.73	227.64
878.04	227.67
878.35	227.65
878.66	227.66
878.96	227.68
879.27	227.67
879.58	227.67
879.89	227.71
880.20	227.77
880.51	227.77
880.82	227.79
881.12	227.80
881.43	227.78
881.74	227.82
882.05	227.82
882.36	227.83
882.67	227.86
882.97	227.74
883.28	227.75
883.59	227.77
883.90	227.77
884.21	227.77
884.51	227.74
884.82	227.72
885.13	227.70
885.44	227.69
885.74	227.68
886.05	227.68
886.36	227.66
886.67	227.62
886.98	227.66
887.28	227.64
887.59	227.65
887.90	227.67
888.20	227.65
888.51	227.66
888.82	227.64
889.13	227.65
889.43	227.75
889.74	227.71
890.05	227.70
890.35	227.69
890.66	227.68
890.97	227.69
891.28	227.70
891.58	227.70
891.89	227.70
892.20	227.71
892.50	227.70
892.81	227.71
893.12	227.71
893.42	227.65
893.73	227.67
894.04	227.65
894.34	227.62
894.65	227.61
894.95	227.59
895.26	227.60
895.57	227.65
895.87	227.51
896.18	227.55
896.48	227.53
896.79	227.50
897.10	227.52
897.40	227.49
897.71	227.49
898.01	227.46
898.32	227.47
898.63	227.47
898.93	227.44
899.24	227.44
899.54	227.44
899.85	227.44
900.15	227.41
900.46	227.39
900.76	227.41
901.07	227.40
901.38	227.40
901.68	227.39
901.99	227.32
902.29	227.36
902.60	227.32
902.90	227.32
903.21	227.29
903.51	227.26
903.82	227.30
904.12	227.31
904.43	227.33
904.73	227.32
905.03	227.27
905.34	227.35
905.64	227.34
905.95	227.32
906.25	227.35
906.56	227.33
906.86	227.34
907.17	227.32
907.47	227.33
907.77	227.32
908.08	227.28
908.38	227.28
908.69	227.25
908.99	227.32
909.30	227.33
909.60	227.38
909.90	227.40
910.21	227.36
910.51	227.36
910.81	227.36
911.12	227.35
911.42	227.39
911.73	227.31
912.03	227.32
912.33	227.34
912.64	227.32
912.94	227.34
913.24	227.33
913.55	227.34
913.85	227.36
914.15	227.36
914.46	227.39
914.76	227.38
915.06	227.40
915.37	227.37
915.67	227.37
915.97	227.36
916.27	227.33
916.58	227.36
916.88	227.37
917.18	227.36
917.49	227.44
917.79	227.42
918.09	227.45
918.39	227.51
918.70	227.51
919.00	227.49
919.30	227.52
919.60	227.52
919.91	227.50
920.21	227.50
920.51	227.51
920.81	227.50
921.12	227.54
921.42	227.55
921.72	227.55
922.02	227.56
922.32	227.57
922.63	227.56
922.93	227.60
923.23	227.57
923.53	227.58
923.83	227.55
924.13	227.58
924.44	227.57
924.74	227.58
925.04	227.60
925.34	227.62
925.64	227.62
925.94	227.62
926.24	227.68
926.55	227.64
926.85	227.69
927.15	227.71
927.45	227.69
927.75	227.67
928.05	227.68
928.35	227.66
928.65	227.70
928.95	227.73
929.26	227.68
929.56	227.72
929.86	227.71
930.16	227.67
930.46	227.67
930.76	227.70
931.06	227.62
931.36	227.57
931.66	227.59
931.96	227.55
932.26	227.55
932.56	227.50
932.86	227.50
933.16	227.47
933.46	227.47
933.76	227.47
934.06	227.49
934.36	227.51
934.66	227.50
934.96	227.46
935.26	227.44
935.56	227.45
935.86	227.45
936.16	227.42
936.46	227.43
936.76	227.40
937.06	227.35
937.36	227.34
937.66	227.32
937.96	227.30
938.26	227.27
938.56	227.26
938.86	227.27
939.16	227.34
939.46	227.32
939.76	227.30
940.06	227.27
940.35	227.23
940.65	227.19
940.95	227.18
941.25	227.15
941.55	227.20
941.85	227.14
942.15	227.15
942.45	227.17
942.75	227.18
943.04	227.21
943.34	227.23
943.64	227.25
943.94	227.28
944.24	227.26
944.54	227.30
944.84	227.31
945.13	227.28
945.43	227.21
945.73	227.23
946.03	227.24
946.33	227.23
946.62	227.23
946.92	227.24
947.22	227.29
947.52	227.30
947.82	227.25
948.11	227.27
948.41	227.22
948.71	227.21
949.01	227.20
949.31	227.19
949.60	227.20
949.90	227.21
950.20	227.20
950.50	227.22
950.79	227.20
951.09	227.25
951.39	227.23
951.69	227.21
951.98	227.21
952.28	227.24
952.58	227.23
952.87	227.23
953.17	227.25
953.47	227.22
953.76	227.22
954.06	227.22
954.36	227.23
954.66	227.24
954.95	227.27
955.25	227.29
955.55	227.29
955.84	227.29
956.14	227.30
956.44	227.33
956.73	227.31
957.03	227.35
957.32	227.34
957.62	227.37
957.92	227.44
958.21	227.44
958.51	227.53
958.81	227.57
959.10	227.60
959.40	227.62
959.69	227.63
959.99	227.66
960.29	227.68
960.58	227.69
960.88	227.72
961.17	227.74
961.47	227.76
961.76	227.76
962.06	227.76
962.36	227.74
962.65	227.76
962.95	227.78
963.24	227.73
963.54	227.72
963.83	227.75
964.13	227.73
964.42	227.70
964.72	227.61
965.01	227.58
965.31	227.56
965.60	227.54
965.90	227.61
966.19	227.58
966.49	227.61
966.78	227.61
967.08	227.61
967.37	227.58
967.67	227.54
967.96	227.54
968.26	227.52
968.55	227.52
968.85	227.48
969.14	227.47
969.43	227.51
969.73	227.52
970.02	227.51
970.32	227.49
970.61	227.50
970.91	227.46
971.20	227.47
971.49	227.46
971.79	227.47
972.08	227.39
972.38	227.37
972.67	227.35
972.96	227.35
973.26	227.33
973.55	227.34
973.85	227.34
974.14	227.35
974.43	227.36
974.73	227.35
975.02	227.35
975.31	227.32
975.61	227.32
975.90	227.29
976.19	227.26
976.49	227.28
976.78	227.28
977.07	227.28
977.37	227.30
977.66	227.30
977.95	227.26
978.24	227.24
978.54	227.26
978.83	227.23
979.12	227.25
979.42	227.26
979.71	227.25
980.00	227.26
980.29	227.23
980.59	227.22
980.88	227.22
981.17	227.22
981.46	227.22
981.76	227.21
982.05	227.22
982.34	227.23
982.63	227.23
982.93	227.21
983.22	227.22
983.51	227.21
983.80	227.20
984.09	227.25
984.39	227.25
984.68	227.29
984.97	227.29
985.26	227.27
985.55	227.23
985.85	227.18
986.14	227.20
986.43	227.24
986.72	227.22
987.01	227.20
987.30	227.17
987.59	227.21
987.89	227.23
988.18	227.22
988.47	227.19
988.76	227.18
989.05	227.20
989.34	227.19
989.63	227.20
989.92	227.22
990.22	227.18
990.51	227.18
990.80	227.15
991.09	227.15
991.38	227.16
991.67	227.16
991.96	227.20
992.25	227.19
992.54	227.18
992.83	227.19
993.12	227.20
993.41	227.24
993.70	227.25
993.99	227.25
994.28	227.26
994.58	227.29
994.87	227.25
995.16	227.26
995.45	227.26
995.74	227.22
996.03	227.22
996.32	227.26
996.61	227.31
996.90	227.35
997.19	227.37
997.48	227.37
997.77	227.39
998.06	227.42
998.34	227.43
998.63	227.42
998.92	227.44
999.21	227.47
999.50	227.45
999.79	227.40
1000.08	227.40
1000.37	227.38
1000.66	227.34
1000.95	227.42
1001.24	227.44
1001.53	227.43
1001.82	227.44
1002.11	227.41
1002.40	227.40
1002.68	227.42
1002.97	227.44
1003.26	227.43
1003.55	227.41
1003.84	227.41
1004.13	227.41
1004.42	227.39
1004.71	227.38
1004.99	227.38
1005.28	227.39
1005.57	227.39
1005.86	227.40
1006.15	227.40
1006.44	227.42
1006.72	227.44
1007.01	227.38
1007.30	227.36
1007.59	227.37
1007.88	227.39
1008.17	227.41
1008.45	227.38
1008.74	227.30
1009.03	227.25
1009.32	227.22
1009.60	227.22
1009.89	227.18
1010.18	227.11
1010.47	227.07
1010.76	227.06
1011.04	227.03
1011.33	227.02
1011.62	227.02
1011.91	227.01
1012.19	227.00
1012.48	226.96
1012.77	226.97
1013.05	227.02
1013.34	227.02
1013.63	227.01
1013.92	226.96
1014.20	226.96
1014.49	226.95
1014.78	226.95
1015.06	226.91
1015.35	226.92
1015.64	226.92
1015.92	226.96
1016.21	226.95
1016.50	226.97
1016.78	226.97
1017.07	226.98
1017.36	226.94
1017.64	226.94
1017.93	226.94
1018.22	226.94
1018.50	226.95
1018.79	226.93
1019.08	226.87
1019.36	226.88
1019.65	226.86
1019.93	226.90
1020.22	226.89
1020.51	226.93
1020.79	226.93
1021.08	227.13
1021.36	226.84
1021.65	226.83
1021.94	226.88
1022.22	227.06
1022.51	226.54
1022.79	227.25
1023.08	226.94
1023.36	227.84
1023.65	226.52
>>>>>End Processed Spectral Data<<<<<
