SpectraSuite Data File
++++++++++++++++++++++++++++++++++++
Date: Fri Feb 01 17:50:15 EST 2013
User: group
Dark Spectrum Present: No
Reference Spectrum Present: No
Number of Sampled Component Spectra: 1
Spectrometers: USB2E7196
Integration Time (usec): 35000 (USB2E7196)
Spectra Averaged: 100 (USB2E7196)
Boxcar Smoothing: 10 (USB2E7196)
Correct for Electrical Dark: No (USB2E7196)
Strobe/Lamp Enabled: No (USB2E7196)
Correct for Detector Non-linearity: No (USB2E7196)
Correct for Stray Light: No (USB2E7196)
Number of Pixels in Processed Spectrum: 2048
>>>>>Begin Processed Spectral Data<<<<<
339.09	0.00
339.48	212.46
339.86	214.17
340.24	215.00
340.63	216.64
341.01	219.40
341.39	219.42
341.78	220.63
342.16	222.31
342.54	222.52
342.93	210.92
343.31	221.59
343.69	222.13
344.07	222.60
344.46	223.04
344.84	223.42
345.22	223.63
345.60	223.88
345.99	224.08
346.37	224.19
346.75	224.27
347.13	224.32
347.52	224.39
347.90	224.48
348.28	224.51
348.66	224.58
349.05	224.59
349.43	224.63
349.81	224.70
350.19	224.73
350.57	224.80
350.96	224.87
351.34	224.93
351.72	225.04
352.10	225.10
352.48	225.15
352.87	225.19
353.25	225.27
353.63	225.32
354.01	225.38
354.39	225.49
354.77	225.59
355.15	225.74
355.54	225.81
355.92	225.82
356.30	225.89
356.68	226.02
357.06	226.11
357.44	226.18
357.82	226.22
358.20	226.28
358.58	226.33
358.97	226.41
359.35	226.47
359.73	226.55
360.11	226.63
360.49	226.71
360.87	226.80
361.25	226.87
361.63	226.98
362.01	227.01
362.39	227.04
362.77	227.11
363.15	227.15
363.53	227.17
363.91	227.24
364.29	227.32
364.67	227.25
365.05	227.26
365.43	227.27
365.81	227.29
366.19	227.36
366.57	227.39
366.95	227.40
367.33	227.42
367.71	227.41
368.09	227.41
368.47	227.42
368.85	227.38
369.23	227.40
369.61	227.36
369.99	227.37
370.37	227.37
370.75	227.40
371.13	227.30
371.51	227.28
371.89	227.26
372.27	227.20
372.65	227.16
373.03	227.13
373.41	227.10
373.78	227.06
374.16	226.97
374.54	226.90
374.92	226.83
375.30	226.77
375.68	226.72
376.06	226.66
376.44	226.60
376.82	226.54
377.19	226.52
377.57	226.45
377.95	226.37
378.33	226.28
378.71	226.16
379.09	226.15
379.47	226.10
379.84	226.03
380.22	225.96
380.60	225.88
380.98	225.82
381.36	225.77
381.73	225.71
382.11	225.68
382.49	225.62
382.87	225.55
383.25	225.50
383.62	225.53
384.00	225.46
384.38	225.40
384.76	225.38
385.13	225.33
385.51	225.27
385.89	225.24
386.27	225.19
386.64	225.14
387.02	225.07
387.40	225.02
387.78	224.94
388.15	224.90
388.53	224.87
388.91	224.86
389.29	224.82
389.66	224.80
390.04	224.77
390.42	224.78
390.79	224.79
391.17	224.74
391.55	224.62
391.92	224.62
392.30	224.62
392.68	224.63
393.05	224.59
393.43	224.59
393.81	224.59
394.18	224.59
394.56	224.57
394.94	224.61
395.31	224.60
395.69	224.66
396.06	224.69
396.44	224.72
396.82	224.72
397.19	224.80
397.57	224.79
397.95	224.80
398.32	224.81
398.70	224.85
399.07	224.93
399.45	224.95
399.82	225.04
400.20	225.09
400.58	225.14
400.95	225.18
401.33	225.28
401.70	225.40
402.08	225.48
402.45	225.60
402.83	225.72
403.20	225.83
403.58	225.97
403.95	226.09
404.33	226.22
404.71	226.36
405.08	226.54
405.46	226.70
405.83	226.86
406.21	227.01
406.58	227.22
406.96	227.42
407.33	227.66
407.70	227.84
408.08	228.11
408.45	228.37
408.83	228.65
409.20	228.90
409.58	229.15
409.95	229.49
410.33	229.84
410.70	230.15
411.08	230.54
411.45	230.87
411.82	231.28
412.20	231.74
412.57	232.24
412.95	232.60
413.32	233.16
413.69	233.67
414.07	234.26
414.44	234.84
414.82	235.40
415.19	236.14
415.56	236.89
415.94	237.63
416.31	238.46
416.68	239.28
417.06	240.23
417.43	241.12
417.81	242.11
418.18	243.12
418.55	244.20
418.93	245.34
419.30	246.53
419.67	247.74
420.04	248.97
420.42	250.28
420.79	251.83
421.16	253.31
421.54	254.88
421.91	256.46
422.28	258.09
422.66	259.85
423.03	261.46
423.40	263.19
423.77	265.01
424.15	266.87
424.52	268.81
424.89	270.89
425.26	272.96
425.64	274.85
426.01	276.93
426.38	279.10
426.75	281.27
427.13	283.56
427.50	285.96
427.87	288.42
428.24	290.83
428.61	293.15
428.99	295.67
429.36	298.44
429.73	301.18
430.10	303.86
430.47	306.58
430.85	309.40
431.22	312.37
431.59	315.52
431.96	318.45
432.33	321.70
432.70	324.83
433.08	328.52
433.45	331.96
433.82	335.37
434.19	339.14
434.56	342.78
434.93	346.20
435.30	349.58
435.68	353.39
436.05	357.15
436.42	360.83
436.79	364.12
437.16	367.66
437.53	371.37
437.90	375.06
438.27	378.63
438.64	382.35
439.01	385.67
439.38	388.59
439.75	391.42
440.13	394.68
440.50	397.77
440.87	400.16
441.24	402.69
441.61	405.51
441.98	407.51
442.35	409.97
442.72	412.47
443.09	414.89
443.46	416.19
443.83	416.95
444.20	417.60
444.57	418.74
444.94	419.12
445.31	419.54
445.68	419.93
446.05	420.07
446.42	419.60
446.79	419.07
447.16	418.52
447.53	418.10
447.90	416.56
448.27	415.01
448.64	412.89
449.01	411.42
449.37	408.92
449.74	406.43
450.11	403.43
450.48	400.15
450.85	396.83
451.22	394.03
451.59	391.39
451.96	388.84
452.33	385.40
452.70	382.31
453.07	378.58
453.43	374.83
453.80	371.17
454.17	367.66
454.54	364.40
454.91	360.77
455.28	357.31
455.65	354.13
456.02	350.87
456.38	348.10
456.75	344.63
457.12	341.59
457.49	338.66
457.86	335.84
458.23	333.35
458.59	330.64
458.96	327.88
459.33	325.44
459.70	322.97
460.07	321.01
460.43	318.74
460.80	316.64
461.17	314.72
461.54	312.77
461.91	310.87
462.27	308.90
462.64	307.26
463.01	305.45
463.38	303.69
463.74	301.94
464.11	300.35
464.48	298.96
464.85	297.54
465.21	296.38
465.58	295.14
465.95	293.73
466.32	292.54
466.68	291.37
467.05	290.18
467.42	289.04
467.78	287.78
468.15	286.63
468.52	285.73
468.88	284.62
469.25	283.61
469.62	282.73
469.98	281.83
470.35	280.98
470.72	280.21
471.08	279.35
471.45	278.58
471.82	277.90
472.18	277.10
472.55	276.52
472.92	275.82
473.28	275.21
473.65	274.61
474.02	273.99
474.38	273.43
474.75	272.94
475.11	272.41
475.48	272.04
475.85	271.72
476.21	271.39
476.58	271.10
476.94	270.81
477.31	270.61
477.67	270.41
478.04	270.25
478.41	270.04
478.77	270.03
479.14	269.91
479.50	269.85
479.87	269.86
480.23	269.88
480.60	269.89
480.96	269.90
481.33	270.10
481.69	270.33
482.06	270.50
482.42	270.66
482.79	270.90
483.15	271.17
483.52	271.54
483.88	271.85
484.25	272.21
484.61	272.65
484.98	273.04
485.34	273.56
485.71	274.11
486.07	274.73
486.44	275.30
486.80	275.99
487.17	276.69
487.53	277.56
487.90	278.43
488.26	279.44
488.62	280.48
488.99	281.47
489.35	282.50
489.72	283.68
490.08	284.94
490.44	286.23
490.81	287.61
491.17	288.96
491.54	290.50
491.90	292.09
492.26	293.81
492.63	295.65
492.99	297.51
493.36	299.54
493.72	301.72
494.08	303.92
494.45	306.30
494.81	308.83
495.17	311.35
495.54	314.05
495.90	316.81
496.26	319.74
496.63	322.83
496.99	326.11
497.35	329.51
497.72	333.05
498.08	336.76
498.44	340.62
498.80	344.75
499.17	349.02
499.53	353.39
499.89	358.01
500.26	362.75
500.62	367.67
500.98	372.88
501.34	378.18
501.71	383.80
502.07	389.52
502.43	395.39
502.79	401.49
503.16	407.86
503.52	414.42
503.88	421.15
504.24	428.09
504.60	435.34
504.97	442.84
505.33	450.55
505.69	458.72
506.05	466.91
506.41	475.27
506.78	483.90
507.14	492.88
507.50	502.04
507.86	511.55
508.22	521.28
508.59	531.00
508.95	541.12
509.31	551.47
509.67	562.11
510.03	572.95
510.39	584.16
510.75	595.61
511.12	607.20
511.48	619.17
511.84	631.40
512.20	643.56
512.56	656.22
512.92	669.19
513.28	682.25
513.64	695.56
514.00	709.07
514.37	722.84
514.73	736.79
515.09	750.67
515.45	764.82
515.81	779.28
516.17	794.17
516.53	809.21
516.89	824.35
517.25	839.53
517.61	855.02
517.97	870.49
518.33	885.86
518.69	901.66
519.05	917.71
519.41	933.98
519.77	950.63
520.13	967.28
520.49	983.91
520.85	1000.48
521.21	1017.39
521.57	1034.86
521.93	1051.86
522.29	1069.48
522.65	1087.05
523.01	1104.58
523.37	1121.97
523.73	1139.46
524.09	1156.98
524.45	1174.65
524.81	1192.75
525.17	1211.07
525.53	1229.31
525.89	1247.82
526.25	1266.22
526.61	1284.11
526.97	1302.40
527.33	1320.47
527.68	1338.62
528.04	1356.55
528.40	1374.72
528.76	1393.44
529.12	1411.62
529.48	1430.22
529.84	1447.80
530.20	1466.20
530.56	1484.98
530.91	1504.17
531.27	1522.60
531.63	1540.77
531.99	1559.05
532.35	1576.76
532.71	1594.42
533.07	1612.62
533.42	1630.19
533.78	1648.05
534.14	1666.20
534.50	1683.30
534.86	1701.06
535.21	1718.03
535.57	1735.88
535.93	1753.21
536.29	1769.76
536.65	1786.67
537.00	1803.13
537.36	1820.52
537.72	1836.82
538.08	1853.11
538.44	1868.67
538.79	1884.53
539.15	1900.07
539.51	1915.73
539.87	1931.99
540.22	1947.59
540.58	1963.32
540.94	1978.64
541.29	1993.40
541.65	2008.11
542.01	2023.25
542.37	2037.51
542.72	2051.93
543.08	2065.73
543.44	2080.23
543.79	2093.49
544.15	2106.47
544.51	2120.13
544.87	2132.81
545.22	2145.75
545.58	2157.85
545.94	2169.65
546.29	2181.54
546.65	2193.50
547.01	2204.96
547.36	2215.63
547.72	2226.00
548.07	2235.63
548.43	2245.62
548.79	2255.55
549.14	2264.81
549.50	2273.86
549.86	2283.23
550.21	2292.39
550.57	2301.36
550.92	2309.69
551.28	2318.57
551.64	2327.46
551.99	2335.68
552.35	2343.61
552.70	2351.28
553.06	2359.09
553.41	2367.22
553.77	2374.81
554.13	2382.45
554.48	2390.11
554.84	2397.40
555.19	2404.23
555.55	2411.01
555.90	2417.04
556.26	2423.64
556.61	2429.85
556.97	2435.88
557.32	2441.65
557.68	2447.10
558.03	2452.80
558.39	2457.88
558.74	2463.80
559.10	2469.16
559.45	2474.20
559.81	2479.90
560.16	2485.18
560.52	2489.86
560.87	2494.42
561.23	2498.38
561.58	2502.48
561.94	2506.13
562.29	2509.43
562.64	2513.43
563.00	2517.25
563.35	2521.98
563.71	2526.08
564.06	2530.61
564.42	2534.62
564.77	2538.29
565.12	2541.99
565.48	2544.90
565.83	2547.83
566.19	2550.42
566.54	2551.94
566.89	2554.15
567.25	2555.80
567.60	2557.99
567.96	2560.45
568.31	2562.19
568.66	2564.33
569.02	2565.80
569.37	2567.10
569.72	2568.96
570.08	2569.88
570.43	2570.44
570.78	2570.58
571.14	2569.66
571.49	2568.80
571.84	2569.18
572.20	2568.62
572.55	2568.03
572.90	2566.88
573.26	2566.06
573.61	2564.63
573.96	2563.70
574.31	2560.96
574.67	2558.17
575.02	2554.75
575.37	2551.59
575.72	2548.10
576.08	2544.67
576.43	2541.42
576.78	2537.89
577.13	2534.75
577.49	2531.81
577.84	2528.69
578.19	2524.89
578.54	2521.47
578.90	2517.25
579.25	2511.42
579.60	2506.30
579.95	2501.05
580.30	2495.84
580.66	2490.36
581.01	2485.08
581.36	2479.84
581.71	2475.62
582.06	2470.94
582.42	2466.27
582.77	2460.74
583.12	2455.81
583.47	2450.93
583.82	2445.73
584.17	2440.08
584.53	2434.18
584.88	2427.84
585.23	2421.56
585.58	2415.60
585.93	2409.53
586.28	2404.40
586.63	2399.04
586.98	2393.52
587.34	2388.40
587.69	2383.22
588.04	2377.62
588.39	2371.54
588.74	2364.41
589.09	2357.55
589.44	2350.24
589.79	2343.63
590.14	2337.50
590.49	2330.19
590.84	2323.05
591.19	2316.43
591.54	2309.27
591.89	2301.27
592.25	2293.99
592.60	2285.96
592.95	2277.73
593.30	2269.71
593.65	2261.27
594.00	2253.24
594.35	2245.01
594.70	2235.95
595.05	2228.04
595.40	2219.79
595.75	2211.33
596.10	2204.42
596.45	2196.93
596.80	2190.04
597.15	2182.52
597.50	2174.57
597.85	2167.14
598.19	2159.71
598.54	2151.73
598.89	2144.16
599.24	2137.23
599.59	2129.76
599.94	2122.60
600.29	2115.31
600.64	2107.69
600.99	2099.25
601.34	2091.52
601.69	2083.74
602.04	2076.14
602.39	2067.49
602.74	2059.64
603.08	2052.03
603.43	2044.24
603.78	2035.81
604.13	2027.48
604.48	2019.17
604.83	2011.39
605.18	2003.70
605.53	1994.65
605.87	1985.49
606.22	1977.23
606.57	1968.11
606.92	1959.50
607.27	1951.45
607.62	1943.57
607.96	1935.36
608.31	1927.70
608.66	1918.99
609.01	1910.29
609.36	1901.48
609.70	1892.43
610.05	1883.21
610.40	1874.30
610.75	1864.81
611.10	1855.98
611.44	1846.08
611.79	1836.85
612.14	1826.79
612.49	1816.29
612.83	1806.53
613.18	1797.14
613.53	1787.78
613.88	1778.12
614.22	1768.58
614.57	1758.62
614.92	1749.47
615.27	1740.63
615.61	1731.14
615.96	1721.82
616.31	1712.94
616.65	1704.46
617.00	1695.75
617.35	1686.93
617.70	1677.58
618.04	1667.77
618.39	1658.27
618.74	1649.63
619.08	1640.18
619.43	1631.25
619.78	1623.16
620.12	1615.00
620.47	1606.32
620.82	1596.85
621.16	1588.08
621.51	1579.31
621.85	1570.46
622.20	1560.48
622.55	1550.88
622.89	1541.81
623.24	1533.01
623.59	1524.35
623.93	1515.63
624.28	1507.22
624.62	1498.61
624.97	1490.09
625.32	1482.19
625.66	1474.12
626.01	1465.85
626.35	1457.25
626.70	1448.47
627.04	1439.49
627.39	1430.38
627.73	1421.74
628.08	1413.74
628.43	1405.47
628.77	1397.07
629.12	1388.23
629.46	1379.99
629.81	1371.24
630.15	1362.78
630.50	1354.29
630.84	1344.96
631.19	1335.79
631.53	1327.02
631.88	1318.22
632.22	1309.48
632.57	1301.02
632.91	1292.16
633.26	1283.67
633.60	1275.06
633.95	1266.74
634.29	1258.60
634.64	1250.98
634.98	1242.54
635.32	1234.24
635.67	1226.50
636.01	1218.79
636.36	1211.01
636.70	1203.47
637.05	1195.94
637.39	1188.43
637.73	1180.87
638.08	1174.05
638.42	1167.06
638.77	1159.73
639.11	1152.11
639.45	1144.62
639.80	1136.88
640.14	1129.63
640.49	1122.06
640.83	1114.76
641.17	1107.53
641.52	1100.23
641.86	1092.62
642.20	1085.85
642.55	1078.52
642.89	1071.14
643.23	1063.51
643.58	1056.92
643.92	1049.69
644.26	1042.87
644.61	1035.90
644.95	1029.02
645.29	1021.56
645.64	1013.85
645.98	1006.46
646.32	999.63
646.66	992.80
647.01	986.28
647.35	979.71
647.69	972.95
648.04	966.64
648.38	960.10
648.72	953.42
649.06	946.66
649.41	939.92
649.75	933.21
650.09	926.55
650.43	919.99
650.78	912.96
651.12	906.19
651.46	899.60
651.80	893.16
652.14	887.01
652.49	880.83
652.83	875.01
653.17	868.69
653.51	862.30
653.85	856.07
654.20	849.65
654.54	842.85
654.88	836.33
655.22	829.57
655.56	823.10
655.90	816.81
656.25	810.83
656.59	804.68
656.93	798.90
657.27	792.95
657.61	786.81
657.95	780.94
658.29	775.24
658.64	769.21
658.98	763.20
659.32	756.96
659.66	751.12
660.00	745.10
660.34	739.37
660.68	733.77
661.02	728.10
661.36	722.69
661.70	717.52
662.05	712.58
662.39	707.75
662.73	702.59
663.07	697.62
663.41	692.55
663.75	687.53
664.09	682.37
664.43	677.33
664.77	672.65
665.11	667.89
665.45	663.13
665.79	658.55
666.13	653.82
666.47	649.21
666.81	644.39
667.15	639.70
667.49	635.30
667.83	630.94
668.17	626.52
668.51	621.93
668.85	617.35
669.19	612.96
669.53	608.62
669.87	604.24
670.21	600.00
670.55	595.83
670.89	591.90
671.23	587.93
671.57	583.93
671.91	579.90
672.25	575.91
672.58	571.98
672.92	568.06
673.26	564.46
673.60	560.79
673.94	557.30
674.28	553.95
674.62	550.58
674.96	547.04
675.30	543.71
675.64	540.41
675.97	537.20
676.31	533.99
676.65	530.65
676.99	527.69
677.33	524.43
677.67	521.19
678.01	517.80
678.34	514.49
678.68	511.20
679.02	508.00
679.36	504.81
679.70	501.70
680.04	498.61
680.37	495.32
680.71	492.12
681.05	489.13
681.39	486.04
681.73	483.00
682.06	480.18
682.40	477.25
682.74	474.33
683.08	471.42
683.42	468.44
683.75	465.60
684.09	462.59
684.43	459.77
684.77	457.01
685.10	454.28
685.44	451.54
685.78	448.97
686.12	446.35
686.45	443.79
686.79	441.15
687.13	438.61
687.46	436.15
687.80	433.74
688.14	431.22
688.48	428.89
688.81	426.31
689.15	423.80
689.49	421.31
689.82	418.93
690.16	416.61
690.50	414.34
690.83	412.11
691.17	409.83
691.51	407.68
691.84	405.52
692.18	403.32
692.52	401.14
692.85	398.87
693.19	396.73
693.52	394.60
693.86	392.52
694.20	390.49
694.53	388.50
694.87	386.39
695.21	384.31
695.54	382.20
695.88	380.24
696.21	378.31
696.55	376.39
696.88	374.44
697.22	372.52
697.56	370.68
697.89	368.76
698.23	366.94
698.56	365.05
698.90	363.25
699.23	361.36
699.57	359.57
699.90	357.86
700.24	356.14
700.58	354.39
700.91	352.70
701.25	351.05
701.58	349.46
701.92	347.95
702.25	346.40
702.59	344.88
702.92	343.41
703.26	341.94
703.59	340.54
703.93	339.22
704.26	337.86
704.60	336.43
704.93	335.04
705.26	333.64
705.60	332.29
705.93	331.00
706.27	329.85
706.60	328.72
706.94	327.44
707.27	326.16
707.61	324.95
707.94	323.73
708.27	322.44
708.61	321.17
708.94	319.97
709.28	318.85
709.61	317.77
709.94	316.67
710.28	315.49
710.61	314.36
710.95	313.09
711.28	311.99
711.61	310.84
711.95	309.78
712.28	308.71
712.61	307.62
712.95	306.55
713.28	305.52
713.61	304.43
713.95	303.45
714.28	302.45
714.61	301.49
714.95	300.56
715.28	299.57
715.61	298.59
715.95	297.59
716.28	296.59
716.61	295.56
716.95	294.61
717.28	293.72
717.61	292.81
717.94	291.98
718.28	291.03
718.61	290.18
718.94	289.39
719.27	288.59
719.61	287.81
719.94	287.05
720.27	286.20
720.60	285.48
720.94	284.73
721.27	284.04
721.60	283.35
721.93	282.65
722.27	282.06
722.60	281.42
722.93	280.74
723.26	280.09
723.59	279.47
723.93	278.81
724.26	278.19
724.59	277.54
724.92	276.95
725.25	276.41
725.59	275.83
725.92	275.20
726.25	274.61
726.58	274.05
726.91	273.45
727.24	272.91
727.57	272.36
727.91	271.77
728.24	271.24
728.57	270.66
728.90	270.13
729.23	269.52
729.56	268.99
729.89	268.47
730.22	267.96
730.55	267.39
730.89	266.88
731.22	266.38
731.55	265.91
731.88	265.39
732.21	264.89
732.54	264.40
732.87	263.90
733.20	263.44
733.53	263.01
733.86	262.55
734.19	262.11
734.52	261.66
734.85	261.28
735.18	260.79
735.51	260.37
735.84	259.93
736.17	259.58
736.50	259.15
736.83	258.93
737.16	258.54
737.49	258.19
737.82	257.80
738.15	257.40
738.48	257.02
738.81	256.65
739.14	256.28
739.47	255.92
739.80	255.58
740.13	255.25
740.46	254.87
740.79	254.54
741.12	254.22
741.45	253.88
741.78	253.53
742.11	253.22
742.44	252.85
742.77	252.55
743.10	252.19
743.43	251.83
743.75	251.38
744.08	251.17
744.41	250.88
744.74	250.61
745.07	250.31
745.40	249.99
745.73	249.75
746.06	249.45
746.39	249.16
746.71	248.88
747.04	248.54
747.37	248.25
747.70	247.99
748.03	247.68
748.36	247.42
748.68	247.16
749.01	246.91
749.34	246.68
749.67	246.42
750.00	246.16
750.33	245.99
750.65	245.76
750.98	245.42
751.31	245.15
751.64	244.91
751.97	244.72
752.29	244.47
752.62	244.18
752.95	243.95
753.28	243.69
753.60	243.46
753.93	243.30
754.26	243.06
754.59	242.82
754.91	242.56
755.24	242.30
755.57	242.05
755.90	241.80
756.22	241.57
756.55	241.33
756.88	241.08
757.20	240.81
757.53	240.55
757.86	240.34
758.19	240.15
758.51	239.93
758.84	239.68
759.17	239.48
759.49	239.30
759.82	239.14
760.15	238.93
760.47	238.74
760.80	238.52
761.13	238.36
761.45	238.15
761.78	237.96
762.11	237.81
762.43	237.63
762.76	237.45
763.08	237.31
763.41	237.15
763.74	237.03
764.06	236.87
764.39	236.71
764.71	236.51
765.04	236.31
765.37	236.17
765.69	236.03
766.02	235.86
766.34	235.70
766.67	235.54
767.00	235.45
767.32	235.34
767.65	235.26
767.97	235.11
768.30	234.99
768.62	234.88
768.95	234.73
769.27	234.59
769.60	234.44
769.92	234.30
770.25	234.15
770.57	234.01
770.90	233.89
771.22	233.75
771.55	233.65
771.87	233.56
772.20	233.41
772.52	233.37
772.85	233.43
773.17	233.31
773.50	233.18
773.82	233.05
774.15	232.91
774.47	232.77
774.80	232.67
775.12	232.57
775.45	232.48
775.77	232.39
776.09	232.35
776.42	232.31
776.74	232.26
777.07	232.20
777.39	232.12
777.72	232.03
778.04	231.99
778.36	231.92
778.69	231.85
779.01	231.80
779.33	231.63
779.66	231.46
779.98	231.38
780.31	231.31
780.63	231.29
780.95	231.25
781.28	231.17
781.60	231.10
781.92	231.04
782.25	230.98
782.57	230.94
782.89	230.86
783.22	230.79
783.54	230.72
783.86	230.69
784.19	230.62
784.51	230.59
784.83	230.54
785.16	230.52
785.48	230.45
785.80	230.42
786.12	230.40
786.45	230.32
786.77	230.28
787.09	230.22
787.42	230.14
787.74	230.09
788.06	230.09
788.38	230.06
788.71	230.02
789.03	229.99
789.35	229.94
789.67	229.92
789.99	229.91
790.32	229.86
790.64	229.82
790.96	229.88
791.28	229.83
791.61	229.79
791.93	229.69
792.25	229.68
792.57	229.70
792.89	229.61
793.21	229.56
793.54	229.53
793.86	229.50
794.18	229.45
794.50	229.38
794.82	229.31
795.14	229.27
795.47	229.24
795.79	229.18
796.11	229.14
796.43	229.06
796.75	229.00
797.07	228.94
797.39	228.89
797.71	228.79
798.04	228.74
798.36	228.69
798.68	228.64
799.00	228.60
799.32	228.49
799.64	228.47
799.96	228.42
800.28	228.40
800.60	228.33
800.92	228.29
801.24	228.25
801.56	228.21
801.89	228.16
802.21	228.14
802.53	228.09
802.85	228.06
803.17	228.09
803.49	228.02
803.81	227.94
804.13	227.89
804.45	227.81
804.77	227.78
805.09	227.78
805.41	227.77
805.73	227.69
806.05	227.64
806.37	227.63
806.69	227.58
807.01	227.53
807.33	227.55
807.65	227.48
807.97	227.50
808.28	227.46
808.60	227.40
808.92	227.34
809.24	227.36
809.56	227.32
809.88	227.24
810.20	227.23
810.52	227.24
810.84	227.18
811.16	227.16
811.48	227.11
811.80	227.08
812.12	227.02
812.43	227.03
812.75	227.00
813.07	226.95
813.39	226.94
813.71	226.91
814.03	226.87
814.35	226.87
814.67	226.77
814.98	226.75
815.30	226.73
815.62	226.68
815.94	226.60
816.26	226.60
816.58	226.57
816.89	226.57
817.21	226.51
817.53	226.49
817.85	226.46
818.17	226.47
818.48	226.43
818.80	226.46
819.12	226.39
819.44	226.37
819.76	226.35
820.07	226.36
820.39	226.33
820.71	226.28
821.03	226.29
821.34	226.28
821.66	226.28
821.98	226.30
822.30	226.28
822.61	226.33
822.93	226.26
823.25	226.25
823.57	226.23
823.88	226.27
824.20	226.25
824.52	226.27
824.83	226.22
825.15	226.19
825.47	226.15
825.79	226.16
826.10	226.12
826.42	226.10
826.74	226.09
827.05	226.04
827.37	226.04
827.69	226.00
828.00	225.98
828.32	225.96
828.64	225.90
828.95	225.96
829.27	225.92
829.58	225.94
829.90	225.96
830.22	225.95
830.53	225.89
830.85	225.91
831.17	225.89
831.48	225.89
831.80	225.87
832.11	225.89
832.43	225.87
832.75	225.91
833.06	225.95
833.38	225.89
833.69	225.91
834.01	225.94
834.32	225.91
834.64	225.90
834.96	225.89
835.27	225.92
835.59	225.87
835.90	225.83
836.22	225.81
836.53	225.79
836.85	225.76
837.16	225.87
837.48	225.88
837.79	225.90
838.11	225.88
838.42	225.90
838.74	225.87
839.05	225.85
839.37	225.82
839.68	225.77
840.00	225.75
840.31	225.78
840.63	225.75
840.94	225.77
841.26	225.76
841.57	225.73
841.88	225.70
842.20	225.68
842.51	225.65
842.83	225.63
843.14	225.67
843.46	225.67
843.77	225.60
844.08	225.55
844.40	225.48
844.71	225.50
845.03	225.48
845.34	225.45
845.65	225.46
845.97	225.45
846.28	225.44
846.60	225.46
846.91	225.42
847.22	225.41
847.54	225.40
847.85	225.40
848.16	225.38
848.48	225.36
848.79	225.42
849.10	225.45
849.42	225.44
849.73	225.37
850.04	225.39
850.36	225.33
850.67	225.37
850.98	225.38
851.30	225.40
851.61	225.38
851.92	225.38
852.23	225.40
852.55	225.40
852.86	225.44
853.17	225.44
853.49	225.44
853.80	225.45
854.11	225.47
854.42	225.50
854.74	225.50
855.05	225.50
855.36	225.45
855.67	225.45
855.99	225.43
856.30	225.52
856.61	225.46
856.92	225.45
857.23	225.42
857.55	225.42
857.86	225.40
858.17	225.38
858.48	225.34
858.79	225.30
859.11	225.30
859.42	225.27
859.73	225.24
860.04	225.23
860.35	225.20
860.66	225.14
860.98	225.12
861.29	225.15
861.60	225.17
861.91	225.17
862.22	225.10
862.53	225.11
862.84	224.99
863.16	225.01
863.47	224.98
863.78	224.98
864.09	225.00
864.40	224.98
864.71	225.00
865.02	225.03
865.33	225.04
865.64	224.99
865.95	224.98
866.27	225.05
866.58	225.04
866.89	225.04
867.20	225.06
867.51	225.04
867.82	225.03
868.13	225.02
868.44	224.99
868.75	225.01
869.06	225.04
869.37	225.03
869.68	225.04
869.99	225.10
870.30	225.08
870.61	225.04
870.92	225.04
871.23	225.06
871.54	225.09
871.85	225.13
872.16	225.16
872.47	225.15
872.78	225.11
873.09	225.13
873.40	225.16
873.71	225.16
874.02	225.18
874.33	225.16
874.64	225.14
874.95	225.18
875.26	225.20
875.56	225.18
875.87	225.21
876.18	225.22
876.49	225.27
876.80	225.29
877.11	225.27
877.42	225.27
877.73	225.24
878.04	225.21
878.35	225.15
878.66	225.17
878.96	225.17
879.27	225.15
879.58	225.17
879.89	225.13
880.20	225.19
880.51	225.16
880.82	225.15
881.12	225.17
881.43	225.13
881.74	225.06
882.05	225.06
882.36	225.01
882.67	224.99
882.97	224.86
883.28	224.85
883.59	224.88
883.90	224.89
884.21	224.88
884.51	224.90
884.82	224.91
885.13	224.90
885.44	224.90
885.74	224.89
886.05	224.84
886.36	224.85
886.67	224.79
886.98	224.82
887.28	224.83
887.59	224.82
887.90	224.85
888.20	224.85
888.51	224.82
888.82	224.82
889.13	224.84
889.43	224.94
889.74	224.93
890.05	224.89
890.35	224.83
890.66	224.84
890.97	224.79
891.28	224.75
891.58	224.72
891.89	224.70
892.20	224.68
892.50	224.68
892.81	224.65
893.12	224.64
893.42	224.58
893.73	224.59
894.04	224.57
894.34	224.56
894.65	224.56
894.95	224.57
895.26	224.59
895.57	224.61
895.87	224.50
896.18	224.52
896.48	224.51
896.79	224.55
897.10	224.55
897.40	224.58
897.71	224.62
898.01	224.61
898.32	224.62
898.63	224.63
898.93	224.64
899.24	224.64
899.54	224.66
899.85	224.69
900.15	224.67
900.46	224.69
900.76	224.70
901.07	224.72
901.38	224.69
901.68	224.70
901.99	224.63
902.29	224.64
902.60	224.62
902.90	224.64
903.21	224.63
903.51	224.63
903.82	224.62
904.12	224.61
904.43	224.63
904.73	224.65
905.03	224.66
905.34	224.74
905.64	224.76
905.95	224.73
906.25	224.73
906.56	224.76
906.86	224.75
907.17	224.72
907.47	224.74
907.77	224.74
908.08	224.75
908.38	224.78
908.69	224.80
908.99	224.81
909.30	224.81
909.60	224.78
909.90	224.76
910.21	224.75
910.51	224.74
910.81	224.76
911.12	224.79
911.42	224.82
911.73	224.74
912.03	224.75
912.33	224.77
912.64	224.75
912.94	224.73
913.24	224.75
913.55	224.79
913.85	224.79
914.15	224.87
914.46	224.87
914.76	224.89
915.06	224.90
915.37	224.90
915.67	224.91
915.97	224.94
916.27	224.96
916.58	224.94
916.88	224.95
917.18	224.93
917.49	224.96
917.79	224.94
918.09	224.95
918.39	224.99
918.70	225.00
919.00	225.00
919.30	225.05
919.60	224.99
919.91	224.96
920.21	224.95
920.51	224.91
920.81	224.87
921.12	224.88
921.42	224.85
921.72	224.85
922.02	224.87
922.32	224.87
922.63	224.88
922.93	224.93
923.23	224.92
923.53	224.90
923.83	224.85
924.13	224.83
924.44	224.83
924.74	224.79
925.04	224.80
925.34	224.79
925.64	224.73
925.94	224.74
926.24	224.80
926.55	224.78
926.85	224.77
927.15	224.78
927.45	224.76
927.75	224.78
928.05	224.78
928.35	224.75
928.65	224.77
928.95	224.76
929.26	224.74
929.56	224.78
929.86	224.80
930.16	224.77
930.46	224.77
930.76	224.73
931.06	224.68
931.36	224.66
931.66	224.66
931.96	224.66
932.26	224.65
932.56	224.62
932.86	224.63
933.16	224.61
933.46	224.58
933.76	224.55
934.06	224.55
934.36	224.57
934.66	224.56
934.96	224.53
935.26	224.53
935.56	224.52
935.86	224.48
936.16	224.47
936.46	224.44
936.76	224.46
937.06	224.44
937.36	224.47
937.66	224.47
937.96	224.46
938.26	224.45
938.56	224.46
938.86	224.45
939.16	224.47
939.46	224.48
939.76	224.52
940.06	224.52
940.35	224.52
940.65	224.50
940.95	224.51
941.25	224.52
941.55	224.52
941.85	224.52
942.15	224.53
942.45	224.54
942.75	224.56
943.04	224.57
943.34	224.60
943.64	224.60
943.94	224.59
944.24	224.63
944.54	224.65
944.84	224.63
945.13	224.60
945.43	224.58
945.73	224.61
946.03	224.60
946.33	224.59
946.62	224.59
946.92	224.60
947.22	224.63
947.52	224.64
947.82	224.67
948.11	224.66
948.41	224.67
948.71	224.67
949.01	224.67
949.31	224.66
949.60	224.70
949.90	224.71
950.20	224.71
950.50	224.68
950.79	224.69
951.09	224.74
951.39	224.77
951.69	224.78
951.98	224.79
952.28	224.81
952.58	224.80
952.87	224.79
953.17	224.81
953.47	224.82
953.76	224.80
954.06	224.80
954.36	224.80
954.66	224.80
954.95	224.82
955.25	224.85
955.55	224.82
955.84	224.79
956.14	224.80
956.44	224.82
956.73	224.82
957.03	224.82
957.32	224.81
957.62	224.79
957.92	224.79
958.21	224.80
958.51	224.88
958.81	224.92
959.10	224.91
959.40	224.91
959.69	224.88
959.99	224.91
960.29	224.89
960.58	224.87
960.88	224.92
961.17	224.88
961.47	224.89
961.76	224.91
962.06	224.93
962.36	224.91
962.65	224.90
962.95	224.89
963.24	224.85
963.54	224.86
963.83	224.86
964.13	224.88
964.42	224.81
964.72	224.74
965.01	224.69
965.31	224.69
965.60	224.66
965.90	224.71
966.19	224.67
966.49	224.68
966.78	224.66
967.08	224.62
967.37	224.62
967.67	224.58
967.96	224.61
968.26	224.54
968.55	224.55
968.85	224.53
969.14	224.55
969.43	224.55
969.73	224.52
970.02	224.53
970.32	224.48
970.61	224.53
970.91	224.50
971.20	224.52
971.49	224.54
971.79	224.54
972.08	224.44
972.38	224.45
972.67	224.44
972.96	224.47
973.26	224.43
973.55	224.49
973.85	224.49
974.14	224.47
974.43	224.53
974.73	224.52
975.02	224.52
975.31	224.50
975.61	224.50
975.90	224.48
976.19	224.45
976.49	224.46
976.78	224.43
977.07	224.45
977.37	224.44
977.66	224.43
977.95	224.42
978.24	224.44
978.54	224.47
978.83	224.46
979.12	224.45
979.42	224.48
979.71	224.42
980.00	224.45
980.29	224.45
980.59	224.43
980.88	224.48
981.17	224.49
981.46	224.49
981.76	224.49
982.05	224.53
982.34	224.56
982.63	224.60
982.93	224.64
983.22	224.63
983.51	224.65
983.80	224.69
984.09	224.72
984.39	224.75
984.68	224.72
984.97	224.76
985.26	224.77
985.55	224.80
985.85	224.84
986.14	224.84
986.43	224.88
986.72	224.86
987.01	224.84
987.30	224.86
987.59	224.89
987.89	224.91
988.18	224.87
988.47	224.84
988.76	224.83
989.05	224.84
989.34	224.85
989.63	224.83
989.92	224.85
990.22	224.85
990.51	224.82
990.80	224.84
991.09	224.84
991.38	224.87
991.67	224.84
991.96	224.81
992.25	224.81
992.54	224.77
992.83	224.78
993.12	224.76
993.41	224.73
993.70	224.78
993.99	224.81
994.28	224.86
994.58	224.87
994.87	224.87
995.16	224.83
995.45	224.85
995.74	224.85
996.03	224.86
996.32	224.82
996.61	224.87
996.90	224.86
997.19	224.84
997.48	224.82
997.77	224.83
998.06	224.83
998.34	224.80
998.63	224.80
998.92	224.80
999.21	224.81
999.50	224.81
999.79	224.75
1000.08	224.74
1000.37	224.73
1000.66	224.73
1000.95	224.71
1001.24	224.69
1001.53	224.69
1001.82	224.67
1002.11	224.60
1002.40	224.63
1002.68	224.62
1002.97	224.67
1003.26	224.68
1003.55	224.65
1003.84	224.63
1004.13	224.67
1004.42	224.67
1004.71	224.65
1004.99	224.63
1005.28	224.66
1005.57	224.64
1005.86	224.64
1006.15	224.61
1006.44	224.59
1006.72	224.60
1007.01	224.58
1007.30	224.59
1007.59	224.56
1007.88	224.56
1008.17	224.59
1008.45	224.57
1008.74	224.52
1009.03	224.48
1009.32	224.46
1009.60	224.45
1009.89	224.43
1010.18	224.39
1010.47	224.41
1010.76	224.39
1011.04	224.41
1011.33	224.42
1011.62	224.43
1011.91	224.42
1012.19	224.43
1012.48	224.42
1012.77	224.43
1013.05	224.45
1013.34	224.45
1013.63	224.43
1013.92	224.43
1014.20	224.42
1014.49	224.39
1014.78	224.39
1015.06	224.36
1015.35	224.35
1015.64	224.34
1015.92	224.36
1016.21	224.34
1016.50	224.31
1016.78	224.35
1017.07	224.35
1017.36	224.30
1017.64	224.30
1017.93	224.31
1018.22	224.30
1018.50	224.28
1018.79	224.27
1019.08	224.26
1019.36	224.29
1019.65	224.25
1019.93	224.30
1020.22	224.33
1020.51	224.39
1020.79	224.43
1021.08	224.10
1021.36	223.95
1021.65	224.29
1021.94	224.71
1022.22	224.64
1022.51	223.66
1022.79	225.13
1023.08	224.81
1023.36	225.64
1023.65	224.70
>>>>>End Processed Spectral Data<<<<<
