SpectraSuite Data File
++++++++++++++++++++++++++++++++++++
Date: Fri Feb 01 17:39:45 EST 2013
User: group
Dark Spectrum Present: No
Reference Spectrum Present: No
Number of Sampled Component Spectra: 1
Spectrometers: USB2E7196
Integration Time (usec): 35000 (USB2E7196)
Spectra Averaged: 100 (USB2E7196)
Boxcar Smoothing: 10 (USB2E7196)
Correct for Electrical Dark: No (USB2E7196)
Strobe/Lamp Enabled: No (USB2E7196)
Correct for Detector Non-linearity: No (USB2E7196)
Correct for Stray Light: No (USB2E7196)
Number of Pixels in Processed Spectrum: 2048
>>>>>Begin Processed Spectral Data<<<<<
339.09	0.00
339.48	213.11
339.86	214.77
340.24	216.01
340.63	216.75
341.01	220.44
341.39	219.47
341.78	221.43
342.16	222.80
342.54	223.12
342.93	211.44
343.31	222.10
343.69	222.63
344.07	223.06
344.46	223.47
344.84	223.87
345.22	224.08
345.60	224.34
345.99	224.48
346.37	224.60
346.75	224.67
347.13	224.76
347.52	224.85
347.90	224.91
348.28	224.93
348.66	224.95
349.05	224.94
349.43	224.99
349.81	225.04
350.19	225.05
350.57	225.06
350.96	225.12
351.34	225.19
351.72	225.26
352.10	225.37
352.48	225.44
352.87	225.47
353.25	225.50
353.63	225.57
354.01	225.64
354.39	225.71
354.77	225.80
355.15	225.85
355.54	225.87
355.92	225.92
356.30	225.97
356.68	226.09
357.06	226.13
357.44	226.19
357.82	226.23
358.20	226.33
358.58	226.38
358.97	226.41
359.35	226.50
359.73	226.58
360.11	226.59
360.49	226.62
360.87	226.68
361.25	226.75
361.63	226.82
362.01	226.90
362.39	226.90
362.77	226.90
363.15	226.93
363.53	226.94
363.91	226.97
364.29	226.98
364.67	226.91
365.05	226.93
365.43	226.93
365.81	226.96
366.19	226.99
366.57	227.02
366.95	227.02
367.33	226.99
367.71	227.00
368.09	227.04
368.47	227.05
368.85	227.03
369.23	227.06
369.61	227.02
369.99	226.99
370.37	227.01
370.75	227.05
371.13	227.02
371.51	227.01
371.89	226.98
372.27	226.92
372.65	226.88
373.03	226.88
373.41	226.82
373.78	226.78
374.16	226.66
374.54	226.62
374.92	226.59
375.30	226.55
375.68	226.46
376.06	226.38
376.44	226.35
376.82	226.33
377.19	226.24
377.57	226.16
377.95	226.10
378.33	226.02
378.71	225.92
379.09	225.87
379.47	225.81
379.84	225.74
380.22	225.72
380.60	225.63
380.98	225.56
381.36	225.51
381.73	225.45
382.11	225.41
382.49	225.33
382.87	225.28
383.25	225.22
383.62	225.27
384.00	225.18
384.38	225.09
384.76	225.05
385.13	225.01
385.51	224.96
385.89	224.89
386.27	224.84
386.64	224.81
387.02	224.77
387.40	224.71
387.78	224.69
388.15	224.66
388.53	224.62
388.91	224.57
389.29	224.54
389.66	224.53
390.04	224.51
390.42	224.49
390.79	224.47
391.17	224.42
391.55	224.34
391.92	224.39
392.30	224.41
392.68	224.40
393.05	224.40
393.43	224.40
393.81	224.43
394.18	224.43
394.56	224.43
394.94	224.45
395.31	224.44
395.69	224.44
396.06	224.47
396.44	224.52
396.82	224.56
397.19	224.65
397.57	224.66
397.95	224.65
398.32	224.68
398.70	224.71
399.07	224.83
399.45	224.84
399.82	224.87
400.20	224.93
400.58	224.93
400.95	224.94
401.33	225.03
401.70	225.14
402.08	225.19
402.45	225.28
402.83	225.41
403.20	225.53
403.58	225.65
403.95	225.76
404.33	225.86
404.71	225.97
405.08	226.13
405.46	226.24
405.83	226.44
406.21	226.59
406.58	226.76
406.96	226.89
407.33	227.08
407.70	227.27
408.08	227.52
408.45	227.79
408.83	228.04
409.20	228.25
409.58	228.42
409.95	228.70
410.33	228.96
410.70	229.21
411.08	229.54
411.45	229.86
411.82	230.14
412.20	230.52
412.57	230.99
412.95	231.28
413.32	231.73
413.69	232.18
414.07	232.64
414.44	233.13
414.82	233.66
415.19	234.22
415.56	234.80
415.94	235.40
416.31	236.07
416.68	236.71
417.06	237.51
417.43	238.31
417.81	239.16
418.18	240.00
418.55	240.89
418.93	241.88
419.30	242.83
419.67	243.88
420.04	244.92
420.42	245.96
420.79	247.25
421.16	248.51
421.54	249.78
421.91	251.11
422.28	252.47
422.66	253.88
423.03	255.32
423.40	256.78
423.77	258.26
424.15	259.84
424.52	261.48
424.89	263.19
425.26	264.85
425.64	266.43
426.01	268.14
426.38	269.92
426.75	271.67
427.13	273.56
427.50	275.52
427.87	277.55
428.24	279.56
428.61	281.45
428.99	283.50
429.36	285.73
429.73	287.94
430.10	290.11
430.47	292.35
430.85	294.62
431.22	297.03
431.59	299.57
431.96	301.95
432.33	304.63
432.70	307.20
433.08	310.19
433.45	313.01
433.82	315.86
434.19	318.92
434.56	321.95
434.93	324.77
435.30	327.55
435.68	330.65
436.05	333.71
436.42	336.71
436.79	339.44
437.16	342.35
437.53	345.37
437.90	348.39
438.27	351.32
438.64	354.35
439.01	357.10
439.38	359.52
439.75	361.87
440.13	364.51
440.50	366.97
440.87	368.94
441.24	371.04
441.61	373.29
441.98	374.97
442.35	376.85
442.72	378.83
443.09	380.82
443.46	381.87
443.83	382.52
444.20	383.08
444.57	384.00
444.94	384.36
445.31	384.73
445.68	385.13
446.05	385.28
446.42	384.88
446.79	384.46
447.16	384.01
447.53	383.65
447.90	382.44
448.27	381.24
448.64	379.65
449.01	378.48
449.37	376.41
449.74	374.34
450.11	371.97
450.48	369.34
450.85	366.61
451.22	364.37
451.59	362.18
451.96	360.13
452.33	357.38
452.70	354.84
453.07	351.85
453.43	348.70
453.80	345.73
454.17	342.89
454.54	340.17
454.91	337.26
455.28	334.39
455.65	331.67
456.02	329.07
456.38	326.69
456.75	323.76
457.12	321.37
457.49	318.96
457.86	316.65
458.23	314.67
458.59	312.48
458.96	310.21
459.33	308.19
459.70	306.15
460.07	304.49
460.43	302.63
460.80	300.90
461.17	299.39
461.54	297.75
461.91	296.20
462.27	294.63
462.64	293.27
463.01	291.80
463.38	290.44
463.74	288.95
464.11	287.71
464.48	286.63
464.85	285.41
465.21	284.52
465.58	283.51
465.95	282.33
466.32	281.37
466.68	280.41
467.05	279.45
467.42	278.50
467.78	277.49
468.15	276.59
468.52	275.83
468.88	274.87
469.25	274.03
469.62	273.34
469.98	272.59
470.35	271.93
470.72	271.35
471.08	270.65
471.45	270.06
471.82	269.45
472.18	268.79
472.55	268.33
472.92	267.76
473.28	267.31
473.65	266.82
474.02	266.30
474.38	265.90
474.75	265.55
475.11	265.17
475.48	264.92
475.85	264.65
476.21	264.38
476.58	264.23
476.94	264.07
477.31	263.90
477.67	263.74
478.04	263.63
478.41	263.51
478.77	263.55
479.14	263.46
479.50	263.46
479.87	263.52
480.23	263.57
480.60	263.62
480.96	263.68
481.33	263.90
481.69	264.12
482.06	264.33
482.42	264.51
482.79	264.79
483.15	265.06
483.52	265.40
483.88	265.75
484.25	266.11
484.61	266.51
484.98	266.96
485.34	267.53
485.71	268.11
486.07	268.73
486.44	269.28
486.80	270.02
487.17	270.74
487.53	271.58
487.90	272.44
488.26	273.39
488.62	274.31
488.99	275.27
489.35	276.31
489.72	277.42
490.08	278.65
490.44	279.85
490.81	281.21
491.17	282.58
491.54	284.05
491.90	285.55
492.26	287.23
492.63	288.92
492.99	290.73
493.36	292.57
493.72	294.59
494.08	296.67
494.45	298.86
494.81	301.19
495.17	303.61
495.54	306.18
495.90	308.86
496.26	311.70
496.63	314.60
496.99	317.69
497.35	320.93
497.72	324.30
498.08	327.80
498.44	331.43
498.80	335.34
499.17	339.36
499.53	343.51
499.89	347.85
500.26	352.36
500.62	356.96
500.98	361.93
501.34	366.90
501.71	372.16
502.07	377.59
502.43	383.21
502.79	388.90
503.16	394.83
503.52	401.03
503.88	407.33
504.24	413.92
504.60	420.68
504.97	427.70
505.33	434.91
505.69	442.54
506.05	450.21
506.41	457.91
506.78	465.92
507.14	474.24
507.50	482.77
507.86	491.66
508.22	500.66
508.59	509.71
508.95	519.23
509.31	528.92
509.67	538.85
510.03	548.91
510.39	559.32
510.75	569.98
511.12	580.71
511.48	591.83
511.84	603.08
512.20	614.40
512.56	626.18
512.92	638.13
513.28	650.23
513.64	662.53
514.00	675.11
514.37	687.87
514.73	700.77
515.09	713.64
515.45	726.76
515.81	740.18
516.17	753.92
516.53	767.68
516.89	781.72
517.25	795.63
517.61	809.84
517.97	824.14
518.33	838.24
518.69	852.80
519.05	867.57
519.41	882.40
519.77	897.69
520.13	912.84
520.49	928.02
520.85	943.11
521.21	958.37
521.57	974.23
521.93	989.68
522.29	1005.64
522.65	1021.47
523.01	1037.30
523.37	1053.06
523.73	1068.87
524.09	1084.77
524.45	1100.69
524.81	1117.02
525.17	1133.46
525.53	1149.90
525.89	1166.48
526.25	1182.97
526.61	1199.09
526.97	1215.58
527.33	1231.77
527.68	1247.96
528.04	1264.05
528.40	1280.26
528.76	1297.14
529.12	1313.52
529.48	1330.18
529.84	1345.99
530.20	1362.49
530.56	1379.15
530.91	1396.11
531.27	1412.66
531.63	1428.89
531.99	1445.15
532.35	1460.98
532.71	1476.69
533.07	1492.79
533.42	1508.69
533.78	1524.62
534.14	1540.63
534.50	1555.92
534.86	1571.67
535.21	1586.81
535.57	1602.64
535.93	1618.06
536.29	1632.83
536.65	1647.75
537.00	1662.31
537.36	1677.67
537.72	1691.96
538.08	1706.42
538.44	1720.41
538.79	1734.39
539.15	1747.95
539.51	1761.73
539.87	1776.01
540.22	1789.70
540.58	1803.38
540.94	1816.54
541.29	1829.24
541.65	1841.94
542.01	1855.16
542.37	1867.49
542.72	1879.87
543.08	1891.91
543.44	1904.43
543.79	1915.85
544.15	1927.07
544.51	1938.88
544.87	1949.95
545.22	1961.28
545.58	1971.84
545.94	1981.83
546.29	1991.85
546.65	2002.01
547.01	2011.56
547.36	2020.65
547.72	2029.60
548.07	2038.17
548.43	2046.74
548.79	2055.03
549.14	2063.23
549.50	2070.95
549.86	2078.85
550.21	2086.76
550.57	2094.35
550.92	2101.46
551.28	2108.80
551.64	2116.15
551.99	2123.07
552.35	2129.66
552.70	2136.03
553.06	2142.23
553.41	2148.92
553.77	2155.14
554.13	2161.66
554.48	2168.18
554.84	2174.31
555.19	2179.82
555.55	2185.29
555.90	2190.28
556.26	2195.94
556.61	2200.90
556.97	2205.70
557.32	2210.45
557.68	2214.96
558.03	2219.56
558.39	2223.71
558.74	2228.88
559.10	2233.31
559.45	2237.34
559.81	2242.07
560.16	2246.39
560.52	2250.34
560.87	2254.18
561.23	2257.54
561.58	2260.70
561.94	2263.81
562.29	2266.26
562.64	2269.89
563.00	2273.01
563.35	2277.18
563.71	2280.72
564.06	2284.29
564.42	2287.79
564.77	2290.97
565.12	2293.94
565.48	2296.50
565.83	2298.94
566.19	2300.93
566.54	2302.25
566.89	2304.12
567.25	2305.35
567.60	2307.18
567.96	2309.40
568.31	2310.93
568.66	2312.53
569.02	2313.84
569.37	2314.74
569.72	2316.27
570.08	2316.78
570.43	2317.02
570.78	2316.81
571.14	2315.84
571.49	2314.99
571.84	2314.79
572.20	2314.10
572.55	2313.54
572.90	2312.25
573.26	2311.32
573.61	2309.73
573.96	2308.63
574.31	2306.01
574.67	2303.39
575.02	2300.16
575.37	2296.98
575.72	2293.60
576.08	2290.50
576.43	2287.46
576.78	2284.47
577.13	2281.48
577.49	2278.39
577.84	2275.47
578.19	2271.98
578.54	2268.71
578.90	2265.17
579.25	2260.12
579.60	2255.51
579.95	2250.83
580.30	2246.19
580.66	2241.24
581.01	2236.68
581.36	2231.87
581.71	2228.13
582.06	2224.19
582.42	2220.18
582.77	2215.26
583.12	2210.95
583.47	2206.80
583.82	2202.35
584.17	2197.21
584.53	2192.06
584.88	2186.89
585.23	2181.46
585.58	2176.23
585.93	2170.94
586.28	2165.88
586.63	2161.18
586.98	2156.27
587.34	2151.56
587.69	2146.76
588.04	2141.91
588.39	2136.39
588.74	2130.22
589.09	2124.11
589.44	2117.46
589.79	2111.30
590.14	2105.74
590.49	2099.36
590.84	2092.97
591.19	2086.90
591.54	2080.41
591.89	2073.30
592.25	2066.64
592.60	2059.47
592.95	2052.10
593.30	2044.81
593.65	2037.42
594.00	2030.40
594.35	2023.33
594.70	2015.29
595.05	2008.35
595.40	2001.02
595.75	1993.66
596.10	1987.55
596.45	1980.90
596.80	1974.71
597.15	1968.23
597.50	1961.59
597.85	1955.08
598.19	1948.55
598.54	1941.81
598.89	1935.40
599.24	1929.47
599.59	1923.12
599.94	1916.96
600.29	1910.62
600.64	1904.08
600.99	1896.78
601.34	1889.95
601.69	1882.78
602.04	1876.02
602.39	1868.62
602.74	1861.82
603.08	1855.23
603.43	1848.47
603.78	1841.30
604.13	1834.00
604.48	1826.86
604.83	1819.88
605.18	1813.10
605.53	1805.13
605.87	1796.83
606.22	1789.36
606.57	1781.33
606.92	1773.47
607.27	1766.21
607.62	1759.33
607.96	1752.19
608.31	1745.70
608.66	1738.11
609.01	1730.63
609.36	1723.22
609.70	1715.14
610.05	1706.93
610.40	1699.08
610.75	1690.60
611.10	1682.68
611.44	1674.01
611.79	1665.74
612.14	1656.81
612.49	1647.41
612.83	1638.73
613.18	1630.32
613.53	1621.92
613.88	1613.31
614.22	1604.97
614.57	1596.05
614.92	1587.69
615.27	1579.93
615.61	1571.47
615.96	1563.10
616.31	1555.12
616.65	1547.46
617.00	1539.77
617.35	1531.86
617.70	1523.39
618.04	1514.80
618.39	1506.30
618.74	1498.65
619.08	1490.07
619.43	1482.25
619.78	1475.01
620.12	1467.68
620.47	1460.10
620.82	1451.68
621.16	1443.85
621.51	1436.00
621.85	1428.15
622.20	1419.48
622.55	1410.87
622.89	1402.64
623.24	1394.74
623.59	1387.11
623.93	1379.27
624.28	1371.60
624.62	1363.94
624.97	1356.53
625.32	1349.34
625.66	1342.10
626.01	1334.72
626.35	1327.28
626.70	1319.33
627.04	1311.47
627.39	1303.63
627.73	1295.91
628.08	1288.83
628.43	1281.51
628.77	1274.13
629.12	1266.48
629.46	1259.13
629.81	1251.26
630.15	1243.76
630.50	1236.16
630.84	1227.85
631.19	1219.68
631.53	1211.98
631.88	1204.20
632.22	1196.29
632.57	1188.79
632.91	1181.09
633.26	1173.43
633.60	1165.65
633.95	1158.21
634.29	1150.78
634.64	1143.75
634.98	1136.28
635.32	1128.92
635.67	1121.96
636.01	1114.95
636.36	1108.01
636.70	1101.32
637.05	1094.61
637.39	1088.04
637.73	1081.49
638.08	1075.42
638.42	1069.24
638.77	1062.65
639.11	1055.95
639.45	1049.42
639.80	1042.66
640.14	1036.06
640.49	1029.41
640.83	1022.95
641.17	1016.72
641.52	1010.36
641.86	1003.71
642.20	997.72
642.55	991.28
642.89	984.74
643.23	978.03
643.58	972.05
643.92	965.71
644.26	959.67
644.61	953.40
644.95	947.27
645.29	940.64
645.64	933.81
645.98	927.36
646.32	921.14
646.66	914.95
647.01	909.00
647.35	903.22
647.69	897.18
648.04	891.53
648.38	885.60
648.72	879.60
649.06	873.48
649.41	867.41
649.75	861.38
650.09	855.31
650.43	849.40
650.78	843.13
651.12	837.01
651.46	831.06
651.80	825.36
652.14	819.75
652.49	814.25
652.83	808.92
653.17	803.24
653.51	797.57
653.85	792.03
654.20	786.32
654.54	780.19
654.88	774.29
655.22	768.27
655.56	762.41
655.90	756.72
656.25	751.37
656.59	745.99
656.93	740.77
657.27	735.55
657.61	729.99
657.95	724.81
658.29	719.56
658.64	714.15
658.98	708.62
659.32	703.04
659.66	697.67
660.00	692.37
660.34	687.35
660.68	682.33
661.02	677.16
661.36	672.37
661.70	667.81
662.05	663.45
662.39	659.13
662.73	654.65
663.07	650.21
663.41	645.69
663.75	641.07
664.09	636.37
664.43	631.96
664.77	627.82
665.11	623.51
665.45	619.32
665.79	615.24
666.13	611.14
666.47	606.93
666.81	602.73
667.15	598.47
667.49	594.39
667.83	590.41
668.17	586.46
668.51	582.30
668.85	578.15
669.19	574.16
669.53	570.26
669.87	566.28
670.21	562.51
670.55	558.76
670.89	555.25
671.23	551.83
671.57	548.20
671.91	544.60
672.25	541.01
672.58	537.45
672.92	533.91
673.26	530.61
673.60	527.42
673.94	524.31
674.28	521.26
674.62	518.30
674.96	515.22
675.30	512.28
675.64	509.37
675.97	506.56
676.31	503.64
676.65	500.63
676.99	497.88
677.33	494.90
677.67	492.09
678.01	489.09
678.34	486.10
678.68	483.14
679.02	480.28
679.36	477.44
679.70	474.65
680.04	471.87
680.37	469.00
680.71	466.13
681.05	463.41
681.39	460.67
681.73	457.95
682.06	455.31
682.40	452.69
682.74	450.03
683.08	447.37
683.42	444.70
683.75	442.13
684.09	439.48
684.43	437.00
684.77	434.46
685.10	432.01
685.44	429.58
685.78	427.20
686.12	424.90
686.45	422.55
686.79	420.29
687.13	418.01
687.46	415.80
687.80	413.64
688.14	411.34
688.48	409.25
688.81	407.02
689.15	404.86
689.49	402.63
689.82	400.53
690.16	398.38
690.50	396.37
690.83	394.41
691.17	392.34
691.51	390.37
691.84	388.49
692.18	386.50
692.52	384.55
692.85	382.53
693.19	380.61
693.52	378.69
693.86	376.70
694.20	374.87
694.53	373.02
694.87	371.07
695.21	369.26
695.54	367.34
695.88	365.48
696.21	363.65
696.55	361.90
696.88	360.14
697.22	358.46
697.56	356.73
697.89	355.06
698.23	353.45
698.56	351.80
698.90	350.13
699.23	348.51
699.57	346.91
699.90	345.34
700.24	343.66
700.58	342.15
700.91	340.67
701.25	339.20
701.58	337.77
701.92	336.34
702.25	334.94
702.59	333.53
702.92	332.15
703.26	330.83
703.59	329.53
703.93	328.28
704.26	327.03
704.60	325.75
704.93	324.38
705.26	323.07
705.60	321.82
705.93	320.60
706.27	319.44
706.60	318.32
706.94	317.21
707.27	316.10
707.61	314.94
707.94	313.85
708.27	312.68
708.61	311.53
708.94	310.51
709.28	309.45
709.61	308.48
709.94	307.51
710.28	306.46
710.61	305.43
710.95	304.31
711.28	303.35
711.61	302.37
711.95	301.42
712.28	300.44
712.61	299.42
712.95	298.46
713.28	297.55
713.61	296.59
713.95	295.71
714.28	294.87
714.61	294.00
714.95	293.15
715.28	292.31
715.61	291.40
715.95	290.52
716.28	289.66
716.61	288.77
716.95	287.93
717.28	287.14
717.61	286.38
717.94	285.61
718.28	284.76
718.61	284.01
718.94	283.27
719.27	282.63
719.61	281.99
719.94	281.28
720.27	280.53
720.60	279.87
720.94	279.18
721.27	278.51
721.60	277.92
721.93	277.28
722.27	276.70
722.60	276.12
722.93	275.53
723.26	274.96
723.59	274.41
723.93	273.87
724.26	273.28
724.59	272.69
724.92	272.16
725.25	271.66
725.59	271.12
725.92	270.63
726.25	270.06
726.58	269.51
726.91	269.03
727.24	268.54
727.57	268.06
727.91	267.54
728.24	267.06
728.57	266.53
728.90	266.06
729.23	265.54
729.56	265.11
729.89	264.62
730.22	264.12
730.55	263.64
730.89	263.13
731.22	262.67
731.55	262.23
731.88	261.77
732.21	261.31
732.54	260.84
732.87	260.36
733.20	259.94
733.53	259.58
733.86	259.16
734.19	258.75
734.52	258.31
734.85	258.03
735.18	257.62
735.51	257.26
735.84	256.86
736.17	256.52
736.50	256.08
736.83	255.85
737.16	255.50
737.49	255.16
737.82	254.84
738.15	254.50
738.48	254.16
738.81	253.81
739.14	253.50
739.47	253.19
739.80	252.92
740.13	252.59
740.46	252.22
740.79	251.91
741.12	251.58
741.45	251.26
741.78	250.89
742.11	250.57
742.44	250.26
742.77	249.98
743.10	249.67
743.43	249.40
743.75	248.98
744.08	248.86
744.41	248.57
744.74	248.28
745.07	247.97
745.40	247.69
745.73	247.44
746.06	247.17
746.39	246.93
746.71	246.63
747.04	246.38
747.37	246.12
747.70	245.86
748.03	245.63
748.36	245.43
748.68	245.19
749.01	244.95
749.34	244.67
749.67	244.45
750.00	244.21
750.33	244.04
750.65	243.84
750.98	243.45
751.31	243.25
751.64	243.03
751.97	242.92
752.29	242.71
752.62	242.47
752.95	242.25
753.28	241.98
753.60	241.73
753.93	241.54
754.26	241.33
754.59	241.12
754.91	240.93
755.24	240.68
755.57	240.46
755.90	240.29
756.22	240.11
756.55	239.88
756.88	239.63
757.20	239.38
757.53	239.16
757.86	238.99
758.19	238.82
758.51	238.63
758.84	238.37
759.17	238.17
759.49	238.01
759.82	237.88
760.15	237.75
760.47	237.64
760.80	237.44
761.13	237.35
761.45	237.17
761.78	236.97
762.11	236.85
762.43	236.68
762.76	236.53
763.08	236.41
763.41	236.29
763.74	236.20
764.06	236.04
764.39	235.91
764.71	235.75
765.04	235.58
765.37	235.44
765.69	235.30
766.02	235.18
766.34	235.04
766.67	234.88
767.00	234.77
767.32	234.70
767.65	234.65
767.97	234.47
768.30	234.37
768.62	234.26
768.95	234.12
769.27	234.02
769.60	233.87
769.92	233.76
770.25	233.60
770.57	233.50
770.90	233.40
771.22	233.27
771.55	233.17
771.87	233.08
772.20	232.99
772.52	232.97
772.85	232.96
773.17	232.88
773.50	232.77
773.82	232.65
774.15	232.48
774.47	232.34
774.80	232.24
775.12	232.18
775.45	232.08
775.77	231.99
776.09	231.90
776.42	231.84
776.74	231.75
777.07	231.66
777.39	231.56
777.72	231.52
778.04	231.50
778.36	231.40
778.69	231.32
779.01	231.24
779.33	231.08
779.66	230.93
779.98	230.84
780.31	230.81
780.63	230.79
780.95	230.76
781.28	230.71
781.60	230.62
781.92	230.50
782.25	230.45
782.57	230.39
782.89	230.34
783.22	230.30
783.54	230.22
783.86	230.21
784.19	230.13
784.51	230.08
784.83	230.02
785.16	229.98
785.48	229.94
785.80	229.88
786.12	229.87
786.45	229.78
786.77	229.78
787.09	229.71
787.42	229.64
787.74	229.61
788.06	229.55
788.38	229.54
788.71	229.51
789.03	229.51
789.35	229.50
789.67	229.45
789.99	229.39
790.32	229.34
790.64	229.31
790.96	229.38
791.28	229.31
791.61	229.25
791.93	229.21
792.25	229.18
792.57	229.22
792.89	229.17
793.21	229.16
793.54	229.07
793.86	229.04
794.18	229.00
794.50	228.92
794.82	228.89
795.14	228.89
795.47	228.90
795.79	228.82
796.11	228.76
796.43	228.72
796.75	228.70
797.07	228.70
797.39	228.66
797.71	228.57
798.04	228.56
798.36	228.52
798.68	228.48
799.00	228.45
799.32	228.37
799.64	228.33
799.96	228.32
800.28	228.31
800.60	228.26
800.92	228.22
801.24	228.20
801.56	228.16
801.89	228.11
802.21	228.05
802.53	227.99
802.85	228.00
803.17	228.03
803.49	227.95
803.81	227.90
804.13	227.85
804.45	227.80
804.77	227.76
805.09	227.78
805.41	227.74
805.73	227.68
806.05	227.62
806.37	227.58
806.69	227.51
807.01	227.47
807.33	227.45
807.65	227.42
807.97	227.43
808.28	227.39
808.60	227.34
808.92	227.32
809.24	227.39
809.56	227.30
809.88	227.23
810.20	227.24
810.52	227.20
810.84	227.18
811.16	227.12
811.48	227.05
811.80	227.04
812.12	226.99
812.43	226.98
812.75	226.95
813.07	226.89
813.39	226.92
813.71	226.91
814.03	226.87
814.35	226.83
814.67	226.75
814.98	226.74
815.30	226.72
815.62	226.68
815.94	226.57
816.26	226.62
816.58	226.57
816.89	226.57
817.21	226.58
817.53	226.55
817.85	226.52
818.17	226.55
818.48	226.48
818.80	226.52
819.12	226.51
819.44	226.50
819.76	226.52
820.07	226.47
820.39	226.42
820.71	226.42
821.03	226.42
821.34	226.43
821.66	226.42
821.98	226.41
822.30	226.41
822.61	226.46
822.93	226.38
823.25	226.40
823.57	226.33
823.88	226.32
824.20	226.34
824.52	226.33
824.83	226.28
825.15	226.24
825.47	226.19
825.79	226.18
826.10	226.13
826.42	226.09
826.74	226.09
827.05	226.09
827.37	226.05
827.69	226.03
828.00	226.00
828.32	225.99
828.64	225.96
828.95	225.95
829.27	225.91
829.58	225.88
829.90	225.86
830.22	225.91
830.53	225.84
830.85	225.79
831.17	225.80
831.48	225.78
831.80	225.80
832.11	225.78
832.43	225.77
832.75	225.78
833.06	225.84
833.38	225.80
833.69	225.80
834.01	225.78
834.32	225.76
834.64	225.73
834.96	225.71
835.27	225.73
835.59	225.71
835.90	225.66
836.22	225.66
836.53	225.65
836.85	225.58
837.16	225.71
837.48	225.71
837.79	225.72
838.11	225.71
838.42	225.70
838.74	225.74
839.05	225.73
839.37	225.71
839.68	225.61
840.00	225.59
840.31	225.56
840.63	225.57
840.94	225.57
841.26	225.57
841.57	225.59
841.88	225.55
842.20	225.54
842.51	225.56
842.83	225.59
843.14	225.63
843.46	225.65
843.77	225.58
844.08	225.56
844.40	225.52
844.71	225.52
845.03	225.48
845.34	225.43
845.65	225.40
845.97	225.39
846.28	225.41
846.60	225.42
846.91	225.41
847.22	225.42
847.54	225.44
847.85	225.43
848.16	225.40
848.48	225.38
848.79	225.39
849.10	225.41
849.42	225.38
849.73	225.28
850.04	225.28
850.36	225.23
850.67	225.27
850.98	225.28
851.30	225.25
851.61	225.25
851.92	225.25
852.23	225.28
852.55	225.29
852.86	225.31
853.17	225.33
853.49	225.38
853.80	225.35
854.11	225.34
854.42	225.36
854.74	225.35
855.05	225.35
855.36	225.33
855.67	225.31
855.99	225.33
856.30	225.46
856.61	225.46
856.92	225.50
857.23	225.50
857.55	225.51
857.86	225.55
858.17	225.55
858.48	225.54
858.79	225.56
859.11	225.56
859.42	225.53
859.73	225.52
860.04	225.50
860.35	225.51
860.66	225.48
860.98	225.49
861.29	225.49
861.60	225.49
861.91	225.54
862.22	225.54
862.53	225.55
862.84	225.47
863.16	225.47
863.47	225.42
863.78	225.43
864.09	225.42
864.40	225.41
864.71	225.44
865.02	225.44
865.33	225.40
865.64	225.39
865.95	225.42
866.27	225.46
866.58	225.45
866.89	225.46
867.20	225.47
867.51	225.42
867.82	225.42
868.13	225.49
868.44	225.44
868.75	225.46
869.06	225.42
869.37	225.40
869.68	225.37
869.99	225.37
870.30	225.35
870.61	225.37
870.92	225.33
871.23	225.35
871.54	225.35
871.85	225.37
872.16	225.37
872.47	225.32
872.78	225.26
873.09	225.29
873.40	225.30
873.71	225.30
874.02	225.29
874.33	225.27
874.64	225.22
874.95	225.21
875.26	225.18
875.56	225.19
875.87	225.17
876.18	225.17
876.49	225.23
876.80	225.20
877.11	225.14
877.42	225.15
877.73	225.11
878.04	225.09
878.35	225.08
878.66	225.07
878.96	225.04
879.27	224.99
879.58	224.99
879.89	224.95
880.20	224.97
880.51	224.96
880.82	224.96
881.12	224.96
881.43	224.95
881.74	224.87
882.05	224.87
882.36	224.87
882.67	224.84
882.97	224.73
883.28	224.72
883.59	224.70
883.90	224.70
884.21	224.71
884.51	224.71
884.82	224.68
885.13	224.68
885.44	224.69
885.74	224.73
886.05	224.68
886.36	224.66
886.67	224.60
886.98	224.62
887.28	224.65
887.59	224.62
887.90	224.61
888.20	224.62
888.51	224.66
888.82	224.61
889.13	224.62
889.43	224.69
889.74	224.70
890.05	224.69
890.35	224.65
890.66	224.59
890.97	224.57
891.28	224.57
891.58	224.57
891.89	224.58
892.20	224.57
892.50	224.58
892.81	224.58
893.12	224.57
893.42	224.55
893.73	224.55
894.04	224.59
894.34	224.61
894.65	224.61
894.95	224.59
895.26	224.66
895.57	224.72
895.87	224.65
896.18	224.72
896.48	224.75
896.79	224.79
897.10	224.83
897.40	224.87
897.71	224.91
898.01	224.93
898.32	224.95
898.63	224.94
898.93	224.96
899.24	224.98
899.54	225.00
899.85	225.01
900.15	225.02
900.46	225.00
900.76	225.00
901.07	225.04
901.38	225.03
901.68	225.02
901.99	224.95
902.29	224.95
902.60	224.92
902.90	224.94
903.21	224.94
903.51	224.95
903.82	224.96
904.12	224.98
904.43	225.00
904.73	224.98
905.03	225.00
905.34	225.11
905.64	225.12
905.95	225.14
906.25	225.13
906.56	225.09
906.86	225.12
907.17	225.12
907.47	225.12
907.77	225.16
908.08	225.14
908.38	225.20
908.69	225.23
908.99	225.26
909.30	225.26
909.60	225.27
909.90	225.28
910.21	225.26
910.51	225.21
910.81	225.21
911.12	225.27
911.42	225.25
911.73	225.11
912.03	225.10
912.33	225.11
912.64	225.12
912.94	225.15
913.24	225.11
913.55	225.08
913.85	225.05
914.15	225.05
914.46	225.08
914.76	225.05
915.06	225.00
915.37	224.96
915.67	224.93
915.97	224.92
916.27	224.91
916.58	224.91
916.88	224.92
917.18	224.88
917.49	224.91
917.79	224.88
918.09	224.91
918.39	224.91
918.70	224.89
919.00	224.85
919.30	224.86
919.60	224.87
919.91	224.87
920.21	224.89
920.51	224.84
920.81	224.81
921.12	224.81
921.42	224.81
921.72	224.78
922.02	224.78
922.32	224.76
922.63	224.73
922.93	224.75
923.23	224.70
923.53	224.70
923.83	224.64
924.13	224.64
924.44	224.64
924.74	224.67
925.04	224.67
925.34	224.67
925.64	224.61
925.94	224.59
926.24	224.62
926.55	224.59
926.85	224.59
927.15	224.56
927.45	224.58
927.75	224.58
928.05	224.60
928.35	224.63
928.65	224.63
928.95	224.64
929.26	224.60
929.56	224.64
929.86	224.60
930.16	224.59
930.46	224.59
930.76	224.61
931.06	224.53
931.36	224.51
931.66	224.57
931.96	224.60
932.26	224.62
932.56	224.57
932.86	224.57
933.16	224.58
933.46	224.61
933.76	224.58
934.06	224.61
934.36	224.64
934.66	224.60
934.96	224.61
935.26	224.64
935.56	224.64
935.86	224.65
936.16	224.67
936.46	224.68
936.76	224.68
937.06	224.66
937.36	224.67
937.66	224.66
937.96	224.62
938.26	224.60
938.56	224.57
938.86	224.63
939.16	224.66
939.46	224.66
939.76	224.64
940.06	224.63
940.35	224.62
940.65	224.58
940.95	224.60
941.25	224.58
941.55	224.55
941.85	224.57
942.15	224.60
942.45	224.63
942.75	224.61
943.04	224.63
943.34	224.65
943.64	224.66
943.94	224.68
944.24	224.72
944.54	224.72
944.84	224.75
945.13	224.74
945.43	224.75
945.73	224.74
946.03	224.78
946.33	224.78
946.62	224.80
946.92	224.81
947.22	224.81
947.52	224.83
947.82	224.88
948.11	224.86
948.41	224.83
948.71	224.80
949.01	224.83
949.31	224.82
949.60	224.82
949.90	224.88
950.20	224.91
950.50	224.89
950.79	224.90
951.09	224.92
951.39	224.90
951.69	224.88
951.98	224.94
952.28	224.94
952.58	224.94
952.87	224.91
953.17	224.94
953.47	224.92
953.76	224.91
954.06	224.89
954.36	224.87
954.66	224.89
954.95	224.91
955.25	224.91
955.55	224.92
955.84	224.88
956.14	224.87
956.44	224.81
956.73	224.75
957.03	224.77
957.32	224.75
957.62	224.71
957.92	224.72
958.21	224.68
958.51	224.75
958.81	224.74
959.10	224.75
959.40	224.74
959.69	224.72
959.99	224.72
960.29	224.71
960.58	224.69
960.88	224.70
961.17	224.69
961.47	224.69
961.76	224.69
962.06	224.70
962.36	224.67
962.65	224.73
962.95	224.80
963.24	224.78
963.54	224.80
963.83	224.80
964.13	224.76
964.42	224.71
964.72	224.63
965.01	224.66
965.31	224.68
965.60	224.65
965.90	224.69
966.19	224.66
966.49	224.66
966.78	224.69
967.08	224.68
967.37	224.67
967.67	224.66
967.96	224.67
968.26	224.68
968.55	224.70
968.85	224.66
969.14	224.63
969.43	224.64
969.73	224.57
970.02	224.59
970.32	224.60
970.61	224.60
970.91	224.59
971.20	224.58
971.49	224.55
971.79	224.59
972.08	224.53
972.38	224.55
972.67	224.52
972.96	224.51
973.26	224.50
973.55	224.53
973.85	224.53
974.14	224.52
974.43	224.51
974.73	224.48
975.02	224.47
975.31	224.48
975.61	224.46
975.90	224.51
976.19	224.50
976.49	224.52
976.78	224.59
977.07	224.58
977.37	224.55
977.66	224.57
977.95	224.54
978.24	224.58
978.54	224.59
978.83	224.65
979.12	224.64
979.42	224.63
979.71	224.63
980.00	224.61
980.29	224.62
980.59	224.64
980.88	224.68
981.17	224.69
981.46	224.66
981.76	224.68
982.05	224.68
982.34	224.70
982.63	224.72
982.93	224.70
983.22	224.74
983.51	224.75
983.80	224.75
984.09	224.77
984.39	224.77
984.68	224.77
984.97	224.76
985.26	224.77
985.55	224.78
985.85	224.75
986.14	224.77
986.43	224.78
986.72	224.74
987.01	224.68
987.30	224.67
987.59	224.70
987.89	224.71
988.18	224.71
988.47	224.71
988.76	224.68
989.05	224.67
989.34	224.67
989.63	224.69
989.92	224.69
990.22	224.66
990.51	224.66
990.80	224.67
991.09	224.62
991.38	224.63
991.67	224.61
991.96	224.61
992.25	224.60
992.54	224.59
992.83	224.60
993.12	224.63
993.41	224.64
993.70	224.67
993.99	224.65
994.28	224.65
994.58	224.64
994.87	224.64
995.16	224.64
995.45	224.62
995.74	224.59
996.03	224.59
996.32	224.60
996.61	224.64
996.90	224.62
997.19	224.65
997.48	224.64
997.77	224.66
998.06	224.65
998.34	224.66
998.63	224.64
998.92	224.66
999.21	224.68
999.50	224.69
999.79	224.64
1000.08	224.66
1000.37	224.65
1000.66	224.66
1000.95	224.70
1001.24	224.68
1001.53	224.69
1001.82	224.70
1002.11	224.66
1002.40	224.67
1002.68	224.67
1002.97	224.73
1003.26	224.69
1003.55	224.70
1003.84	224.70
1004.13	224.76
1004.42	224.77
1004.71	224.78
1004.99	224.77
1005.28	224.76
1005.57	224.75
1005.86	224.74
1006.15	224.72
1006.44	224.71
1006.72	224.67
1007.01	224.64
1007.30	224.66
1007.59	224.61
1007.88	224.60
1008.17	224.62
1008.45	224.59
1008.74	224.55
1009.03	224.52
1009.32	224.53
1009.60	224.53
1009.89	224.49
1010.18	224.43
1010.47	224.42
1010.76	224.39
1011.04	224.37
1011.33	224.36
1011.62	224.39
1011.91	224.39
1012.19	224.41
1012.48	224.43
1012.77	224.45
1013.05	224.46
1013.34	224.48
1013.63	224.50
1013.92	224.51
1014.20	224.47
1014.49	224.50
1014.78	224.51
1015.06	224.47
1015.35	224.47
1015.64	224.48
1015.92	224.50
1016.21	224.48
1016.50	224.48
1016.78	224.50
1017.07	224.52
1017.36	224.55
1017.64	224.52
1017.93	224.54
1018.22	224.52
1018.50	224.53
1018.79	224.51
1019.08	224.48
1019.36	224.46
1019.65	224.46
1019.93	224.48
1020.22	224.52
1020.51	224.55
1020.79	224.53
1021.08	224.43
1021.36	224.55
1021.65	224.38
1021.94	224.36
1022.22	224.62
1022.51	224.04
1022.79	224.79
1023.08	224.62
1023.36	225.59
1023.65	224.20
>>>>>End Processed Spectral Data<<<<<
