SpectraSuite Data File
++++++++++++++++++++++++++++++++++++
Date: Fri Feb 01 16:27:36 EST 2013
User: group
Dark Spectrum Present: No
Reference Spectrum Present: No
Number of Sampled Component Spectra: 1
Spectrometers: USB2E7196
Integration Time (usec): 35000 (USB2E7196)
Spectra Averaged: 100 (USB2E7196)
Boxcar Smoothing: 10 (USB2E7196)
Correct for Electrical Dark: No (USB2E7196)
Strobe/Lamp Enabled: No (USB2E7196)
Correct for Detector Non-linearity: No (USB2E7196)
Correct for Stray Light: No (USB2E7196)
Number of Pixels in Processed Spectrum: 2048
>>>>>Begin Processed Spectral Data<<<<<
339.09	0.00
339.48	214.07
339.86	215.72
340.24	216.03
340.63	218.07
341.01	221.03
341.39	220.97
341.78	222.18
342.16	223.73
342.54	223.67
342.93	212.30
343.31	223.03
343.69	223.58
344.07	224.04
344.46	224.51
344.84	224.93
345.22	225.16
345.60	225.39
345.99	225.59
346.37	225.70
346.75	225.82
347.13	225.88
347.52	225.98
347.90	226.08
348.28	226.09
348.66	226.16
349.05	226.17
349.43	226.22
349.81	226.28
350.19	226.35
350.57	226.38
350.96	226.44
351.34	226.54
351.72	226.60
352.10	226.70
352.48	226.75
352.87	226.78
353.25	226.87
353.63	226.96
354.01	226.99
354.39	227.09
354.77	227.15
355.15	227.27
355.54	227.32
355.92	227.33
356.30	227.43
356.68	227.55
357.06	227.62
357.44	227.69
357.82	227.75
358.20	227.84
358.58	227.91
358.97	227.98
359.35	228.05
359.73	228.14
360.11	228.18
360.49	228.26
360.87	228.32
361.25	228.35
361.63	228.40
362.01	228.46
362.39	228.51
362.77	228.55
363.15	228.55
363.53	228.57
363.91	228.60
364.29	228.64
364.67	228.56
365.05	228.53
365.43	228.52
365.81	228.55
366.19	228.58
366.57	228.62
366.95	228.62
367.33	228.58
367.71	228.54
368.09	228.59
368.47	228.56
368.85	228.54
369.23	228.54
369.61	228.48
369.99	228.50
370.37	228.46
370.75	228.46
371.13	228.43
371.51	228.39
371.89	228.35
372.27	228.29
372.65	228.27
373.03	228.26
373.41	228.21
373.78	228.13
374.16	228.01
374.54	227.91
374.92	227.82
375.30	227.79
375.68	227.73
376.06	227.63
376.44	227.58
376.82	227.50
377.19	227.41
377.57	227.34
377.95	227.24
378.33	227.16
378.71	227.06
379.09	226.99
379.47	226.94
379.84	226.86
380.22	226.82
380.60	226.74
380.98	226.67
381.36	226.60
381.73	226.55
382.11	226.51
382.49	226.47
382.87	226.39
383.25	226.31
383.62	226.38
384.00	226.27
384.38	226.19
384.76	226.16
385.13	226.16
385.51	226.11
385.89	226.06
386.27	226.01
386.64	225.95
387.02	225.88
387.40	225.78
387.78	225.73
388.15	225.65
388.53	225.60
388.91	225.53
389.29	225.49
389.66	225.48
390.04	225.43
390.42	225.39
390.79	225.39
391.17	225.38
391.55	225.22
391.92	225.24
392.30	225.22
392.68	225.21
393.05	225.19
393.43	225.17
393.81	225.18
394.18	225.17
394.56	225.20
394.94	225.26
395.31	225.30
395.69	225.33
396.06	225.38
396.44	225.42
396.82	225.48
397.19	225.53
397.57	225.55
397.95	225.62
398.32	225.63
398.70	225.68
399.07	225.77
399.45	225.86
399.82	225.92
400.20	226.00
400.58	226.04
400.95	226.06
401.33	226.15
401.70	226.30
402.08	226.40
402.45	226.48
402.83	226.59
403.20	226.74
403.58	226.85
403.95	226.96
404.33	227.10
404.71	227.22
405.08	227.43
405.46	227.56
405.83	227.68
406.21	227.87
406.58	228.05
406.96	228.20
407.33	228.38
407.70	228.57
408.08	228.83
408.45	229.03
408.83	229.31
409.20	229.52
409.58	229.70
409.95	229.96
410.33	230.21
410.70	230.40
411.08	230.69
411.45	231.00
411.82	231.31
412.20	231.65
412.57	232.08
412.95	232.34
413.32	232.78
413.69	233.16
414.07	233.56
414.44	234.05
414.82	234.51
415.19	235.03
415.56	235.58
415.94	236.13
416.31	236.78
416.68	237.42
417.06	238.15
417.43	238.82
417.81	239.59
418.18	240.40
418.55	241.29
418.93	242.19
419.30	243.09
419.67	244.01
420.04	244.96
420.42	245.95
420.79	247.15
421.16	248.31
421.54	249.51
421.91	250.77
422.28	252.00
422.66	253.37
423.03	254.71
423.40	256.05
423.77	257.39
424.15	258.83
424.52	260.26
424.89	261.86
425.26	263.42
425.64	264.87
426.01	266.48
426.38	268.12
426.75	269.77
427.13	271.49
427.50	273.30
427.87	275.20
428.24	277.01
428.61	278.76
428.99	280.65
429.36	282.77
429.73	284.79
430.10	286.77
430.47	288.77
430.85	290.85
431.22	293.07
431.59	295.48
431.96	297.74
432.33	300.24
432.70	302.60
433.08	305.40
433.45	308.01
433.82	310.57
434.19	313.46
434.56	316.22
434.93	318.85
435.30	321.46
435.68	324.29
436.05	327.14
436.42	329.88
436.79	332.37
437.16	335.03
437.53	337.86
437.90	340.68
438.27	343.45
438.64	346.24
439.01	348.77
439.38	351.00
439.75	353.12
440.13	355.60
440.50	357.90
440.87	359.72
441.24	361.63
441.61	363.71
441.98	365.21
442.35	367.01
442.72	368.87
443.09	370.66
443.46	371.66
443.83	372.22
444.20	372.73
444.57	373.59
444.94	373.85
445.31	374.20
445.68	374.55
446.05	374.62
446.42	374.28
446.79	373.87
447.16	373.42
447.53	373.14
447.90	372.00
448.27	370.82
448.64	369.25
449.01	368.15
449.37	366.24
449.74	364.32
450.11	362.02
450.48	359.52
450.85	356.99
451.22	354.85
451.59	352.83
451.96	350.96
452.33	348.37
452.70	346.07
453.07	343.25
453.43	340.30
453.80	337.51
454.17	334.83
454.54	332.35
454.91	329.67
455.28	326.98
455.65	324.45
456.02	322.08
456.38	319.96
456.75	317.34
457.12	315.13
457.49	312.93
457.86	310.83
458.23	309.03
458.59	307.04
458.96	304.99
459.33	303.18
459.70	301.30
460.07	299.80
460.43	298.09
460.80	296.53
461.17	295.13
461.54	293.71
461.91	292.31
462.27	290.85
462.64	289.61
463.01	288.27
463.38	287.03
463.74	285.67
464.11	284.47
464.48	283.43
464.85	282.33
465.21	281.46
465.58	280.54
465.95	279.44
466.32	278.55
466.68	277.63
467.05	276.72
467.42	275.83
467.78	274.91
468.15	274.07
468.52	273.39
468.88	272.55
469.25	271.73
469.62	271.15
469.98	270.50
470.35	269.86
470.72	269.29
471.08	268.64
471.45	268.13
471.82	267.59
472.18	267.02
472.55	266.60
472.92	266.08
473.28	265.64
473.65	265.21
474.02	264.78
474.38	264.43
474.75	264.11
475.11	263.77
475.48	263.50
475.85	263.26
476.21	263.04
476.58	262.89
476.94	262.76
477.31	262.59
477.67	262.44
478.04	262.33
478.41	262.26
478.77	262.32
479.14	262.25
479.50	262.30
479.87	262.39
480.23	262.47
480.60	262.59
480.96	262.68
481.33	262.90
481.69	263.08
482.06	263.26
482.42	263.50
482.79	263.79
483.15	264.14
483.52	264.55
483.88	264.90
484.25	265.27
484.61	265.71
484.98	266.13
485.34	266.69
485.71	267.28
486.07	267.89
486.44	268.44
486.80	269.14
487.17	269.88
487.53	270.68
487.90	271.52
488.26	272.43
488.62	273.40
488.99	274.37
489.35	275.41
489.72	276.56
490.08	277.73
490.44	278.96
490.81	280.29
491.17	281.64
491.54	283.09
491.90	284.66
492.26	286.30
492.63	288.08
492.99	289.85
493.36	291.78
493.72	293.82
494.08	295.96
494.45	298.21
494.81	300.53
495.17	302.94
495.54	305.52
495.90	308.23
496.26	311.06
496.63	314.03
496.99	317.20
497.35	320.46
497.72	323.94
498.08	327.40
498.44	331.06
498.80	334.99
499.17	339.07
499.53	343.27
499.89	347.66
500.26	352.17
500.62	356.86
500.98	361.83
501.34	366.91
501.71	372.27
502.07	377.74
502.43	383.39
502.79	389.24
503.16	395.32
503.52	401.60
503.88	408.02
504.24	414.67
504.60	421.54
504.97	428.63
505.33	435.93
505.69	443.74
506.05	451.52
506.41	459.38
506.78	467.55
507.14	475.98
507.50	484.69
507.86	493.70
508.22	502.95
508.59	512.15
508.95	521.78
509.31	531.56
509.67	541.62
510.03	551.92
510.39	562.50
510.75	573.30
511.12	584.28
511.48	595.60
511.84	607.07
512.20	618.56
512.56	630.52
512.92	642.72
513.28	655.03
513.64	667.44
514.00	680.08
514.37	692.93
514.73	705.90
515.09	718.92
515.45	732.10
515.81	745.63
516.17	759.50
516.53	773.59
516.89	787.75
517.25	801.98
517.61	816.43
517.97	830.79
518.33	845.03
518.69	859.60
519.05	874.46
519.41	889.53
519.77	905.01
520.13	920.42
520.49	935.60
520.85	950.94
521.21	966.68
521.57	982.90
521.93	998.66
522.29	1015.03
522.65	1031.10
523.01	1047.31
523.37	1063.33
523.73	1079.50
524.09	1095.45
524.45	1111.58
524.81	1128.03
525.17	1144.59
525.53	1161.47
525.89	1178.45
526.25	1195.34
526.61	1211.69
526.97	1228.36
527.33	1244.67
527.68	1261.14
528.04	1277.62
528.40	1294.16
528.76	1311.11
529.12	1327.53
529.48	1344.43
529.84	1360.40
530.20	1377.05
530.56	1393.95
530.91	1411.27
531.27	1427.94
531.63	1444.35
531.99	1460.81
532.35	1476.70
532.71	1492.53
533.07	1508.65
533.42	1524.41
533.78	1540.24
534.14	1556.38
534.50	1571.67
534.86	1587.61
535.21	1602.79
535.57	1618.59
535.93	1634.01
536.29	1648.70
536.65	1663.77
537.00	1678.38
537.36	1693.43
537.72	1707.86
538.08	1722.21
538.44	1735.85
538.79	1749.64
539.15	1763.19
539.51	1776.87
539.87	1791.17
540.22	1804.90
540.58	1818.58
540.94	1831.78
541.29	1844.67
541.65	1857.31
542.01	1870.35
542.37	1882.63
542.72	1894.85
543.08	1906.56
543.44	1918.80
543.79	1930.00
544.15	1940.92
544.51	1952.33
544.87	1963.25
545.22	1974.00
545.58	1984.16
545.94	1993.74
546.29	2003.63
546.65	2013.51
547.01	2022.84
547.36	2031.35
547.72	2039.68
548.07	2047.45
548.43	2055.65
548.79	2063.68
549.14	2071.07
549.50	2078.40
549.86	2085.93
550.21	2093.31
550.57	2100.43
550.92	2106.91
551.28	2113.91
551.64	2120.98
551.99	2127.48
552.35	2133.76
552.70	2139.84
553.06	2145.83
553.41	2152.27
553.77	2158.21
554.13	2164.18
554.48	2170.25
554.84	2175.76
555.19	2181.09
555.55	2186.24
555.90	2190.77
556.26	2195.56
556.61	2200.29
556.97	2204.52
557.32	2208.55
557.68	2212.64
558.03	2217.00
558.39	2220.65
558.74	2225.25
559.10	2229.06
559.45	2232.71
559.81	2236.93
560.16	2240.84
560.52	2244.01
560.87	2247.30
561.23	2249.83
561.58	2252.84
561.94	2255.39
562.29	2257.76
562.64	2260.41
563.00	2262.84
563.35	2266.17
563.71	2269.26
564.06	2272.64
564.42	2275.49
564.77	2278.16
565.12	2280.43
565.48	2282.30
565.83	2284.37
566.19	2285.78
566.54	2286.65
566.89	2287.88
567.25	2288.45
567.60	2289.75
567.96	2291.59
568.31	2292.55
568.66	2293.90
569.02	2294.55
569.37	2294.78
569.72	2295.74
570.08	2295.97
570.43	2296.23
570.78	2295.71
571.14	2294.22
571.49	2292.79
571.84	2292.64
572.20	2291.55
572.55	2290.51
572.90	2288.94
573.26	2287.64
573.61	2285.93
573.96	2284.26
574.31	2281.40
574.67	2278.55
575.02	2275.05
575.37	2271.57
575.72	2267.92
576.08	2264.56
576.43	2261.22
576.78	2257.73
577.13	2254.57
577.49	2251.49
577.84	2247.95
578.19	2244.32
578.54	2240.78
578.90	2236.56
579.25	2231.04
579.60	2226.05
579.95	2221.16
580.30	2216.20
580.66	2210.98
581.01	2206.11
581.36	2201.26
581.71	2197.18
582.06	2192.79
582.42	2188.34
582.77	2183.24
583.12	2178.65
583.47	2174.01
583.82	2169.18
584.17	2164.04
584.53	2158.66
584.88	2153.26
585.23	2147.66
585.58	2142.32
585.93	2136.95
586.28	2132.37
586.63	2127.30
586.98	2122.33
587.34	2117.80
587.69	2113.09
588.04	2108.00
588.39	2102.42
588.74	2096.01
589.09	2089.85
589.44	2083.03
589.79	2077.09
590.14	2071.51
590.49	2065.11
590.84	2058.69
591.19	2052.70
591.54	2046.22
591.89	2038.76
592.25	2032.01
592.60	2024.86
592.95	2017.30
593.30	2010.07
593.65	2002.50
594.00	1995.52
594.35	1988.40
594.70	1980.21
595.05	1973.11
595.40	1965.78
595.75	1958.24
596.10	1952.25
596.45	1945.42
596.80	1939.47
597.15	1932.79
597.50	1925.82
597.85	1919.30
598.19	1912.70
598.54	1905.50
598.89	1898.94
599.24	1893.28
599.59	1886.57
599.94	1880.38
600.29	1874.18
600.64	1867.58
600.99	1860.23
601.34	1853.50
601.69	1846.57
602.04	1839.82
602.39	1832.29
602.74	1825.55
603.08	1818.78
603.43	1811.91
603.78	1804.80
604.13	1797.54
604.48	1790.29
604.83	1783.41
605.18	1776.52
605.53	1768.65
605.87	1760.82
606.22	1753.62
606.57	1745.72
606.92	1738.39
607.27	1731.22
607.62	1724.25
607.96	1717.13
608.31	1710.46
608.66	1702.76
609.01	1695.20
609.36	1687.69
609.70	1679.80
610.05	1671.86
610.40	1664.37
610.75	1656.12
611.10	1648.42
611.44	1639.98
611.79	1632.15
612.14	1623.49
612.49	1614.28
612.83	1605.95
613.18	1597.74
613.53	1589.73
613.88	1581.13
614.22	1572.81
614.57	1564.17
614.92	1556.04
615.27	1548.37
615.61	1540.10
615.96	1532.26
616.31	1524.73
616.65	1517.44
617.00	1509.89
617.35	1502.12
617.70	1493.70
618.04	1485.04
618.39	1476.80
618.74	1469.24
619.08	1460.86
619.43	1453.19
619.78	1446.43
620.12	1439.12
620.47	1431.61
620.82	1423.25
621.16	1415.86
621.51	1408.32
621.85	1400.61
622.20	1392.12
622.55	1383.76
622.89	1375.85
623.24	1368.13
623.59	1360.61
623.93	1353.02
624.28	1345.84
624.62	1338.20
624.97	1331.05
625.32	1324.51
625.66	1317.52
626.01	1310.37
626.35	1302.88
626.70	1295.21
627.04	1287.43
627.39	1279.70
627.73	1272.24
628.08	1265.40
628.43	1258.11
628.77	1250.75
629.12	1243.37
629.46	1236.26
629.81	1228.84
630.15	1221.71
630.50	1214.38
630.84	1206.21
631.19	1198.33
631.53	1190.83
631.88	1183.31
632.22	1175.67
632.57	1168.24
632.91	1160.66
633.26	1153.06
633.60	1145.73
633.95	1138.55
634.29	1131.47
634.64	1124.85
634.98	1117.51
635.32	1110.32
635.67	1103.76
636.01	1097.03
636.36	1090.14
636.70	1083.50
637.05	1076.95
637.39	1070.41
637.73	1063.77
638.08	1057.91
638.42	1051.80
638.77	1045.32
639.11	1038.79
639.45	1032.38
639.80	1025.74
640.14	1019.42
640.49	1013.00
640.83	1006.67
641.17	1000.40
641.52	994.08
641.86	987.50
642.20	981.58
642.55	975.31
642.89	968.76
643.23	962.28
643.58	956.57
643.92	950.46
644.26	944.38
644.61	938.30
644.95	932.32
645.29	925.71
645.64	918.99
645.98	912.67
646.32	906.83
646.66	900.74
647.01	894.97
647.35	889.23
647.69	883.34
648.04	877.81
648.38	872.05
648.72	866.05
649.06	860.08
649.41	854.28
649.75	848.33
650.09	842.41
650.43	836.56
650.78	830.39
651.12	824.45
651.46	818.72
651.80	813.03
652.14	807.69
652.49	802.35
652.83	797.21
653.17	791.48
653.51	785.73
653.85	780.39
654.20	774.76
654.54	768.75
654.88	763.09
655.22	757.20
655.56	751.56
655.90	746.11
656.25	740.80
656.59	735.45
656.93	730.30
657.27	725.13
657.61	719.73
657.95	714.69
658.29	709.67
658.64	704.47
658.98	699.17
659.32	693.67
659.66	688.42
660.00	683.11
660.34	678.17
660.68	673.22
661.02	668.21
661.36	663.48
661.70	658.93
662.05	654.50
662.39	650.08
662.73	645.57
663.07	641.23
663.41	636.79
663.75	632.33
664.09	627.77
664.43	623.37
664.77	619.24
665.11	614.93
665.45	610.71
665.79	606.55
666.13	602.38
666.47	598.28
666.81	594.14
667.15	590.00
667.49	586.12
667.83	582.35
668.17	578.33
668.51	574.20
668.85	570.19
669.19	566.42
669.53	562.68
669.87	558.83
670.21	555.11
670.55	551.50
670.89	548.02
671.23	544.57
671.57	541.02
671.91	537.49
672.25	533.93
672.58	530.44
672.92	527.03
673.26	523.88
673.60	520.76
673.94	517.60
674.28	514.69
674.62	511.72
674.96	508.62
675.30	505.72
675.64	502.81
675.97	500.03
676.31	497.09
676.65	494.11
676.99	491.36
677.33	488.44
677.67	485.63
678.01	482.54
678.34	479.62
678.68	476.75
679.02	473.95
679.36	471.23
679.70	468.48
680.04	465.73
680.37	462.82
680.71	459.97
681.05	457.34
681.39	454.63
681.73	451.94
682.06	449.39
682.40	446.85
682.74	444.39
683.08	441.79
683.42	439.24
683.75	436.74
684.09	434.19
684.43	431.75
684.77	429.23
685.10	426.92
685.44	424.60
685.78	422.30
686.12	419.99
686.45	417.67
686.79	415.38
687.13	413.16
687.46	411.00
687.80	408.85
688.14	406.62
688.48	404.54
688.81	402.29
689.15	400.12
689.49	397.96
689.82	395.84
690.16	393.79
690.50	391.79
690.83	389.86
691.17	387.89
691.51	385.99
691.84	384.18
692.18	382.24
692.52	380.24
692.85	378.31
693.19	376.49
693.52	374.69
693.86	372.87
694.20	371.11
694.53	369.32
694.87	367.51
695.21	365.78
695.54	364.01
695.88	362.29
696.21	360.60
696.55	358.93
696.88	357.19
697.22	355.52
697.56	353.92
697.89	352.20
698.23	350.55
698.56	348.91
698.90	347.33
699.23	345.67
699.57	344.14
699.90	342.65
700.24	341.10
700.58	339.60
700.91	338.09
701.25	336.63
701.58	335.30
701.92	333.89
702.25	332.51
702.59	331.12
702.92	329.77
703.26	328.47
703.59	327.17
703.93	326.02
704.26	324.80
704.60	323.47
704.93	322.26
705.26	321.05
705.60	319.87
705.93	318.67
706.27	317.67
706.60	316.61
706.94	315.51
707.27	314.39
707.61	313.31
707.94	312.32
708.27	311.27
708.61	310.18
708.94	309.21
709.28	308.21
709.61	307.24
709.94	306.30
710.28	305.25
710.61	304.29
710.95	303.22
711.28	302.32
711.61	301.40
711.95	300.51
712.28	299.58
712.61	298.63
712.95	297.68
713.28	296.81
713.61	295.91
713.95	295.00
714.28	294.15
714.61	293.27
714.95	292.41
715.28	291.49
715.61	290.60
715.95	289.71
716.28	288.85
716.61	288.03
716.95	287.24
717.28	286.51
717.61	285.75
717.94	285.01
718.28	284.14
718.61	283.42
718.94	282.74
719.27	282.07
719.61	281.42
719.94	280.81
720.27	280.08
720.60	279.38
720.94	278.77
721.27	278.14
721.60	277.55
721.93	276.91
722.27	276.35
722.60	275.80
722.93	275.21
723.26	274.66
723.59	274.07
723.93	273.49
724.26	272.94
724.59	272.35
724.92	271.79
725.25	271.30
725.59	270.75
725.92	270.17
726.25	269.65
726.58	269.12
726.91	268.60
727.24	268.11
727.57	267.65
727.91	267.09
728.24	266.64
728.57	266.13
728.90	265.68
729.23	265.19
729.56	264.75
729.89	264.32
730.22	263.82
730.55	263.31
730.89	262.86
731.22	262.40
731.55	261.96
731.88	261.53
732.21	261.11
732.54	260.66
732.87	260.23
733.20	259.79
733.53	259.39
733.86	259.02
734.19	258.58
734.52	258.19
734.85	257.90
735.18	257.49
735.51	257.13
735.84	256.76
736.17	256.43
736.50	256.04
736.83	255.76
737.16	255.44
737.49	255.12
737.82	254.76
738.15	254.43
738.48	254.13
738.81	253.83
739.14	253.48
739.47	253.20
739.80	252.96
740.13	252.68
740.46	252.38
740.79	252.03
741.12	251.75
741.45	251.45
741.78	251.12
742.11	250.82
742.44	250.53
742.77	250.26
743.10	249.99
743.43	249.69
743.75	249.33
744.08	249.19
744.41	248.96
744.74	248.74
745.07	248.48
745.40	248.20
745.73	247.96
746.06	247.70
746.39	247.45
746.71	247.16
747.04	246.90
747.37	246.64
747.70	246.42
748.03	246.20
748.36	245.98
748.68	245.77
749.01	245.56
749.34	245.33
749.67	245.08
750.00	244.87
750.33	244.72
750.65	244.52
750.98	244.21
751.31	243.96
751.64	243.77
751.97	243.64
752.29	243.48
752.62	243.24
752.95	243.05
753.28	242.85
753.60	242.65
753.93	242.46
754.26	242.32
754.59	242.15
754.91	241.93
755.24	241.73
755.57	241.52
755.90	241.32
756.22	241.14
756.55	240.94
756.88	240.75
757.20	240.51
757.53	240.30
757.86	240.14
758.19	239.99
758.51	239.81
758.84	239.58
759.17	239.38
759.49	239.21
759.82	239.07
760.15	238.92
760.47	238.80
760.80	238.60
761.13	238.42
761.45	238.24
761.78	238.11
762.11	237.94
762.43	237.81
762.76	237.63
763.08	237.50
763.41	237.39
763.74	237.20
764.06	237.02
764.39	236.91
764.71	236.75
765.04	236.58
765.37	236.40
765.69	236.27
766.02	236.11
766.34	235.98
766.67	235.85
767.00	235.70
767.32	235.60
767.65	235.54
767.97	235.43
768.30	235.31
768.62	235.17
768.95	235.07
769.27	234.94
769.60	234.83
769.92	234.68
770.25	234.55
770.57	234.43
770.90	234.35
771.22	234.20
771.55	234.07
771.87	233.97
772.20	233.86
772.52	233.84
772.85	233.88
773.17	233.77
773.50	233.66
773.82	233.57
774.15	233.43
774.47	233.30
774.80	233.21
775.12	233.09
775.45	232.98
775.77	232.87
776.09	232.80
776.42	232.71
776.74	232.69
777.07	232.63
777.39	232.55
777.72	232.45
778.04	232.37
778.36	232.32
778.69	232.24
779.01	232.20
779.33	232.03
779.66	231.83
779.98	231.79
780.31	231.72
780.63	231.70
780.95	231.63
781.28	231.56
781.60	231.50
781.92	231.44
782.25	231.39
782.57	231.35
782.89	231.27
783.22	231.21
783.54	231.13
783.86	231.05
784.19	231.00
784.51	231.03
784.83	230.97
785.16	230.90
785.48	230.87
785.80	230.83
786.12	230.82
786.45	230.81
786.77	230.74
787.09	230.68
787.42	230.60
787.74	230.58
788.06	230.57
788.38	230.48
788.71	230.42
789.03	230.39
789.35	230.36
789.67	230.35
789.99	230.33
790.32	230.25
790.64	230.26
790.96	230.32
791.28	230.22
791.61	230.21
791.93	230.20
792.25	230.17
792.57	230.19
792.89	230.16
793.21	230.12
793.54	230.14
793.86	230.11
794.18	230.08
794.50	230.02
794.82	229.99
795.14	229.98
795.47	230.00
795.79	229.98
796.11	229.94
796.43	229.89
796.75	229.84
797.07	229.83
797.39	229.76
797.71	229.66
798.04	229.64
798.36	229.61
798.68	229.58
799.00	229.57
799.32	229.51
799.64	229.49
799.96	229.46
800.28	229.41
800.60	229.37
800.92	229.33
801.24	229.29
801.56	229.24
801.89	229.20
802.21	229.18
802.53	229.12
802.85	229.08
803.17	229.08
803.49	229.05
803.81	229.03
804.13	229.00
804.45	228.97
804.77	228.91
805.09	228.86
805.41	228.81
805.73	228.74
806.05	228.65
806.37	228.58
806.69	228.52
807.01	228.46
807.33	228.43
807.65	228.37
807.97	228.37
808.28	228.33
808.60	228.29
808.92	228.23
809.24	228.26
809.56	228.23
809.88	228.21
810.20	228.19
810.52	228.19
810.84	228.15
811.16	228.08
811.48	228.03
811.80	228.07
812.12	228.02
812.43	228.00
812.75	228.00
813.07	227.97
813.39	227.95
813.71	227.92
814.03	227.88
814.35	227.88
814.67	227.85
814.98	227.81
815.30	227.77
815.62	227.70
815.94	227.61
816.26	227.65
816.58	227.59
816.89	227.57
817.21	227.47
817.53	227.46
817.85	227.44
818.17	227.46
818.48	227.39
818.80	227.39
819.12	227.36
819.44	227.32
819.76	227.28
820.07	227.28
820.39	227.26
820.71	227.28
821.03	227.27
821.34	227.24
821.66	227.28
821.98	227.30
822.30	227.32
822.61	227.40
822.93	227.34
823.25	227.34
823.57	227.34
823.88	227.42
824.20	227.39
824.52	227.43
824.83	227.41
825.15	227.41
825.47	227.43
825.79	227.45
826.10	227.45
826.42	227.48
826.74	227.49
827.05	227.51
827.37	227.51
827.69	227.49
828.00	227.47
828.32	227.47
828.64	227.47
828.95	227.53
829.27	227.49
829.58	227.50
829.90	227.50
830.22	227.50
830.53	227.44
830.85	227.45
831.17	227.45
831.48	227.44
831.80	227.43
832.11	227.44
832.43	227.40
832.75	227.42
833.06	227.48
833.38	227.44
833.69	227.43
834.01	227.43
834.32	227.44
834.64	227.44
834.96	227.42
835.27	227.42
835.59	227.36
835.90	227.33
836.22	227.31
836.53	227.27
836.85	227.26
837.16	227.36
837.48	227.35
837.79	227.31
838.11	227.37
838.42	227.37
838.74	227.34
839.05	227.35
839.37	227.31
839.68	227.21
840.00	227.22
840.31	227.21
840.63	227.19
840.94	227.18
841.26	227.16
841.57	227.15
841.88	227.13
842.20	227.11
842.51	227.10
842.83	227.04
843.14	227.15
843.46	227.12
843.77	227.04
844.08	227.02
844.40	227.00
844.71	226.91
845.03	226.87
845.34	226.88
845.65	226.85
845.97	226.85
846.28	226.87
846.60	226.84
846.91	226.82
847.22	226.78
847.54	226.77
847.85	226.75
848.16	226.73
848.48	226.71
848.79	226.76
849.10	226.74
849.42	226.71
849.73	226.57
850.04	226.58
850.36	226.55
850.67	226.56
850.98	226.56
851.30	226.60
851.61	226.60
851.92	226.58
852.23	226.64
852.55	226.63
852.86	226.61
853.17	226.60
853.49	226.61
853.80	226.64
854.11	226.63
854.42	226.65
854.74	226.62
855.05	226.61
855.36	226.53
855.67	226.53
855.99	226.60
856.30	226.72
856.61	226.70
856.92	226.71
857.23	226.73
857.55	226.71
857.86	226.68
858.17	226.70
858.48	226.69
858.79	226.64
859.11	226.65
859.42	226.67
859.73	226.70
860.04	226.67
860.35	226.64
860.66	226.62
860.98	226.60
861.29	226.62
861.60	226.61
861.91	226.64
862.22	226.62
862.53	226.57
862.84	226.50
863.16	226.53
863.47	226.53
863.78	226.53
864.09	226.52
864.40	226.55
864.71	226.54
865.02	226.52
865.33	226.51
865.64	226.50
865.95	226.50
866.27	226.55
866.58	226.57
866.89	226.59
867.20	226.61
867.51	226.63
867.82	226.61
868.13	226.64
868.44	226.66
868.75	226.71
869.06	226.73
869.37	226.72
869.68	226.72
869.99	226.72
870.30	226.74
870.61	226.76
870.92	226.76
871.23	226.76
871.54	226.79
871.85	226.82
872.16	226.83
872.47	226.80
872.78	226.73
873.09	226.77
873.40	226.75
873.71	226.75
874.02	226.73
874.33	226.78
874.64	226.75
874.95	226.72
875.26	226.72
875.56	226.73
875.87	226.70
876.18	226.68
876.49	226.78
876.80	226.73
877.11	226.70
877.42	226.70
877.73	226.71
878.04	226.69
878.35	226.71
878.66	226.69
878.96	226.69
879.27	226.69
879.58	226.65
879.89	226.63
880.20	226.64
880.51	226.64
880.82	226.60
881.12	226.60
881.43	226.58
881.74	226.55
882.05	226.53
882.36	226.52
882.67	226.52
882.97	226.40
883.28	226.36
883.59	226.36
883.90	226.36
884.21	226.33
884.51	226.31
884.82	226.26
885.13	226.27
885.44	226.24
885.74	226.21
886.05	226.19
886.36	226.21
886.67	226.17
886.98	226.19
887.28	226.20
887.59	226.21
887.90	226.18
888.20	226.16
888.51	226.19
888.82	226.19
889.13	226.19
889.43	226.26
889.74	226.31
890.05	226.31
890.35	226.25
890.66	226.23
890.97	226.22
891.28	226.20
891.58	226.17
891.89	226.18
892.20	226.18
892.50	226.19
892.81	226.18
893.12	226.17
893.42	226.13
893.73	226.12
894.04	226.09
894.34	226.14
894.65	226.14
894.95	226.12
895.26	226.11
895.57	226.13
895.87	226.05
896.18	226.04
896.48	226.03
896.79	226.07
897.10	226.11
897.40	226.15
897.71	226.19
898.01	226.20
898.32	226.23
898.63	226.26
898.93	226.27
899.24	226.26
899.54	226.30
899.85	226.31
900.15	226.31
900.46	226.33
900.76	226.36
901.07	226.36
901.38	226.38
901.68	226.39
901.99	226.37
902.29	226.40
902.60	226.38
902.90	226.40
903.21	226.38
903.51	226.36
903.82	226.38
904.12	226.40
904.43	226.40
904.73	226.42
905.03	226.40
905.34	226.53
905.64	226.54
905.95	226.52
906.25	226.51
906.56	226.51
906.86	226.52
907.17	226.48
907.47	226.50
907.77	226.51
908.08	226.48
908.38	226.49
908.69	226.50
908.99	226.53
909.30	226.51
909.60	226.51
909.90	226.53
910.21	226.47
910.51	226.45
910.81	226.46
911.12	226.44
911.42	226.44
911.73	226.33
912.03	226.33
912.33	226.34
912.64	226.34
912.94	226.31
913.24	226.31
913.55	226.28
913.85	226.25
914.15	226.25
914.46	226.27
914.76	226.23
915.06	226.19
915.37	226.19
915.67	226.18
915.97	226.17
916.27	226.12
916.58	226.12
916.88	226.10
917.18	226.07
917.49	226.11
917.79	226.13
918.09	226.12
918.39	226.13
918.70	226.10
919.00	226.08
919.30	226.11
919.60	226.08
919.91	226.10
920.21	226.08
920.51	226.05
920.81	226.02
921.12	226.01
921.42	226.00
921.72	225.99
922.02	225.98
922.32	225.98
922.63	225.96
922.93	226.04
923.23	226.02
923.53	226.03
923.83	226.01
924.13	225.98
924.44	225.93
924.74	225.95
925.04	225.96
925.34	225.94
925.64	225.93
925.94	225.94
926.24	225.97
926.55	225.95
926.85	225.96
927.15	225.99
927.45	226.02
927.75	226.04
928.05	226.00
928.35	226.00
928.65	226.02
928.95	226.10
929.26	226.04
929.56	226.09
929.86	226.10
930.16	226.05
930.46	226.08
930.76	226.09
931.06	226.03
931.36	226.02
931.66	226.06
931.96	226.05
932.26	226.03
932.56	226.01
932.86	226.02
933.16	226.02
933.46	226.00
933.76	225.96
934.06	225.96
934.36	226.03
934.66	226.04
934.96	226.02
935.26	225.97
935.56	226.01
935.86	225.97
936.16	225.98
936.46	226.00
936.76	225.99
937.06	225.96
937.36	225.98
937.66	226.01
937.96	226.00
938.26	226.02
938.56	226.07
938.86	226.07
939.16	226.10
939.46	226.12
939.76	226.13
940.06	226.15
940.35	226.15
940.65	226.11
940.95	226.12
941.25	226.14
941.55	226.18
941.85	226.15
942.15	226.17
942.45	226.18
942.75	226.19
943.04	226.18
943.34	226.23
943.64	226.23
943.94	226.19
944.24	226.20
944.54	226.18
944.84	226.17
945.13	226.14
945.43	226.12
945.73	226.14
946.03	226.11
946.33	226.07
946.62	226.09
946.92	226.04
947.22	226.07
947.52	226.05
947.82	226.08
948.11	226.07
948.41	226.07
948.71	226.04
949.01	226.06
949.31	226.09
949.60	226.08
949.90	226.10
950.20	226.12
950.50	226.12
950.79	226.12
951.09	226.15
951.39	226.18
951.69	226.17
951.98	226.17
952.28	226.22
952.58	226.23
952.87	226.22
953.17	226.26
953.47	226.27
953.76	226.28
954.06	226.20
954.36	226.18
954.66	226.17
954.95	226.20
955.25	226.16
955.55	226.12
955.84	226.11
956.14	226.12
956.44	226.10
956.73	226.06
957.03	226.08
957.32	226.05
957.62	226.03
957.92	226.04
958.21	226.03
958.51	226.09
958.81	226.10
959.10	226.09
959.40	226.11
959.69	226.07
959.99	226.09
960.29	226.11
960.58	226.10
960.88	226.12
961.17	226.09
961.47	226.09
961.76	226.09
962.06	226.10
962.36	226.07
962.65	226.05
962.95	226.09
963.24	226.06
963.54	226.03
963.83	226.04
964.13	226.06
964.42	226.03
964.72	225.97
965.01	225.97
965.31	225.98
965.60	226.00
965.90	226.05
966.19	226.00
966.49	226.04
966.78	226.07
967.08	226.06
967.37	226.05
967.67	226.05
967.96	226.06
968.26	226.06
968.55	226.05
968.85	226.08
969.14	226.05
969.43	226.06
969.73	226.07
970.02	226.03
970.32	226.04
970.61	226.06
970.91	226.02
971.20	226.00
971.49	225.98
971.79	225.96
972.08	225.92
972.38	225.95
972.67	225.91
972.96	225.91
973.26	225.89
973.55	225.95
973.85	225.97
974.14	225.94
974.43	225.94
974.73	225.96
975.02	225.93
975.31	225.95
975.61	225.96
975.90	225.93
976.19	225.94
976.49	225.93
976.78	225.93
977.07	225.92
977.37	225.92
977.66	225.93
977.95	225.91
978.24	225.91
978.54	225.92
978.83	225.93
979.12	225.92
979.42	225.95
979.71	225.91
980.00	225.89
980.29	225.91
980.59	225.88
980.88	225.89
981.17	225.89
981.46	225.89
981.76	225.86
982.05	225.94
982.34	225.92
982.63	225.93
982.93	225.92
983.22	225.98
983.51	226.02
983.80	226.02
984.09	226.06
984.39	226.05
984.68	226.00
984.97	225.97
985.26	225.96
985.55	225.93
985.85	225.93
986.14	225.96
986.43	225.98
986.72	226.01
987.01	225.95
987.30	225.97
987.59	225.93
987.89	225.95
988.18	225.89
988.47	225.90
988.76	225.87
989.05	225.84
989.34	225.79
989.63	225.79
989.92	225.79
990.22	225.75
990.51	225.77
990.80	225.80
991.09	225.81
991.38	225.83
991.67	225.85
991.96	225.80
992.25	225.81
992.54	225.78
992.83	225.76
993.12	225.79
993.41	225.81
993.70	225.91
993.99	225.90
994.28	225.91
994.58	225.96
994.87	225.95
995.16	225.97
995.45	225.98
995.74	225.93
996.03	225.92
996.32	225.96
996.61	225.96
996.90	225.95
997.19	225.95
997.48	225.97
997.77	225.92
998.06	225.96
998.34	225.92
998.63	225.94
998.92	225.96
999.21	225.95
999.50	225.95
999.79	225.89
1000.08	225.90
1000.37	225.90
1000.66	225.86
1000.95	225.88
1001.24	225.91
1001.53	225.91
1001.82	225.91
1002.11	225.91
1002.40	225.91
1002.68	225.93
1002.97	226.03
1003.26	226.03
1003.55	226.00
1003.84	226.03
1004.13	226.03
1004.42	226.04
1004.71	226.00
1004.99	225.96
1005.28	226.01
1005.57	225.99
1005.86	225.95
1006.15	225.99
1006.44	225.96
1006.72	225.98
1007.01	225.98
1007.30	225.98
1007.59	226.00
1007.88	226.01
1008.17	226.02
1008.45	226.01
1008.74	226.00
1009.03	225.95
1009.32	225.95
1009.60	225.94
1009.89	225.91
1010.18	225.88
1010.47	225.87
1010.76	225.92
1011.04	225.91
1011.33	225.90
1011.62	225.91
1011.91	225.95
1012.19	225.91
1012.48	225.95
1012.77	225.92
1013.05	225.98
1013.34	225.94
1013.63	225.91
1013.92	225.94
1014.20	225.94
1014.49	225.91
1014.78	225.91
1015.06	225.90
1015.35	225.90
1015.64	225.92
1015.92	225.93
1016.21	225.97
1016.50	226.00
1016.78	225.98
1017.07	226.02
1017.36	226.01
1017.64	225.98
1017.93	225.99
1018.22	225.98
1018.50	225.96
1018.79	226.00
1019.08	225.89
1019.36	225.90
1019.65	225.89
1019.93	225.86
1020.22	225.85
1020.51	225.91
1020.79	225.87
1021.08	225.46
1021.36	225.61
1021.65	226.27
1021.94	225.04
1022.22	225.55
1022.51	225.31
1022.79	225.69
1023.08	226.03
1023.36	226.71
1023.65	225.39
>>>>>End Processed Spectral Data<<<<<
