SpectraSuite Data File
++++++++++++++++++++++++++++++++++++
Date: Fri Feb 01 17:44:45 EST 2013
User: group
Dark Spectrum Present: No
Reference Spectrum Present: No
Number of Sampled Component Spectra: 1
Spectrometers: USB2E7196
Integration Time (usec): 35000 (USB2E7196)
Spectra Averaged: 100 (USB2E7196)
Boxcar Smoothing: 10 (USB2E7196)
Correct for Electrical Dark: No (USB2E7196)
Strobe/Lamp Enabled: No (USB2E7196)
Correct for Detector Non-linearity: No (USB2E7196)
Correct for Stray Light: No (USB2E7196)
Number of Pixels in Processed Spectrum: 2048
>>>>>Begin Processed Spectral Data<<<<<
339.09	0.00
339.48	212.64
339.86	214.25
340.24	215.88
340.63	217.06
341.01	219.52
341.39	219.45
341.78	220.91
342.16	221.88
342.54	222.83
342.93	211.19
343.31	221.85
343.69	222.40
344.07	222.87
344.46	223.27
344.84	223.65
345.22	223.93
345.60	224.18
345.99	224.40
346.37	224.55
346.75	224.64
347.13	224.73
347.52	224.81
347.90	224.90
348.28	224.94
348.66	224.92
349.05	224.91
349.43	224.96
349.81	225.01
350.19	225.05
350.57	225.11
350.96	225.16
351.34	225.24
351.72	225.33
352.10	225.43
352.48	225.48
352.87	225.53
353.25	225.56
353.63	225.62
354.01	225.63
354.39	225.69
354.77	225.77
355.15	225.85
355.54	225.92
355.92	225.91
356.30	225.99
356.68	226.15
357.06	226.22
357.44	226.25
357.82	226.29
358.20	226.34
358.58	226.39
358.97	226.43
359.35	226.51
359.73	226.59
360.11	226.63
360.49	226.69
360.87	226.73
361.25	226.77
361.63	226.82
362.01	226.88
362.39	226.90
362.77	226.92
363.15	226.99
363.53	226.97
363.91	227.00
364.29	226.98
364.67	226.90
365.05	226.94
365.43	226.97
365.81	227.00
366.19	227.06
366.57	227.11
366.95	227.14
367.33	227.13
367.71	227.10
368.09	227.11
368.47	227.12
368.85	227.09
369.23	227.11
369.61	227.09
369.99	227.08
370.37	227.09
370.75	227.14
371.13	227.05
371.51	227.01
371.89	226.99
372.27	226.96
372.65	226.93
373.03	226.88
373.41	226.82
373.78	226.77
374.16	226.67
374.54	226.58
374.92	226.53
375.30	226.48
375.68	226.42
376.06	226.38
376.44	226.29
376.82	226.27
377.19	226.20
377.57	226.15
377.95	226.08
378.33	226.01
378.71	225.90
379.09	225.87
379.47	225.83
379.84	225.78
380.22	225.73
380.60	225.64
380.98	225.61
381.36	225.54
381.73	225.45
382.11	225.45
382.49	225.39
382.87	225.29
383.25	225.23
383.62	225.28
384.00	225.18
384.38	225.18
384.76	225.16
385.13	225.16
385.51	225.10
385.89	225.05
386.27	225.01
386.64	225.01
387.02	224.96
387.40	224.93
387.78	224.89
388.15	224.88
388.53	224.83
388.91	224.76
389.29	224.77
389.66	224.78
390.04	224.76
390.42	224.79
390.79	224.78
391.17	224.76
391.55	224.65
391.92	224.66
392.30	224.64
392.68	224.60
393.05	224.57
393.43	224.62
393.81	224.64
394.18	224.63
394.56	224.59
394.94	224.63
395.31	224.65
395.69	224.68
396.06	224.70
396.44	224.75
396.82	224.77
397.19	224.80
397.57	224.82
397.95	224.85
398.32	224.85
398.70	224.91
399.07	224.97
399.45	225.00
399.82	225.01
400.20	225.07
400.58	225.15
400.95	225.19
401.33	225.24
401.70	225.36
402.08	225.45
402.45	225.55
402.83	225.64
403.20	225.73
403.58	225.84
403.95	225.95
404.33	226.09
404.71	226.26
405.08	226.45
405.46	226.57
405.83	226.71
406.21	226.87
406.58	227.05
406.96	227.21
407.33	227.40
407.70	227.68
408.08	228.00
408.45	228.19
408.83	228.46
409.20	228.69
409.58	228.91
409.95	229.18
410.33	229.51
410.70	229.78
411.08	230.15
411.45	230.50
411.82	230.84
412.20	231.27
412.57	231.73
412.95	232.07
413.32	232.60
413.69	233.08
414.07	233.65
414.44	234.18
414.82	234.78
415.19	235.44
415.56	236.08
415.94	236.70
416.31	237.47
416.68	238.20
417.06	239.08
417.43	239.89
417.81	240.81
418.18	241.72
418.55	242.79
418.93	243.84
419.30	244.95
419.67	246.11
420.04	247.29
420.42	248.50
420.79	249.96
421.16	251.38
421.54	252.86
421.91	254.36
422.28	255.95
422.66	257.59
423.03	259.21
423.40	260.86
423.77	262.64
424.15	264.44
424.52	266.34
424.89	268.33
425.26	270.29
425.64	272.11
426.01	274.16
426.38	276.20
426.75	278.29
427.13	280.47
427.50	282.74
427.87	285.06
428.24	287.36
428.61	289.52
428.99	291.89
429.36	294.50
429.73	297.03
430.10	299.52
430.47	302.07
430.85	304.69
431.22	307.48
431.59	310.41
431.96	313.22
432.33	316.28
432.70	319.25
433.08	322.69
433.45	325.99
433.82	329.21
434.19	332.74
434.56	336.21
434.93	339.49
435.30	342.71
435.68	346.28
436.05	349.81
436.42	353.29
436.79	356.45
437.16	359.78
437.53	363.29
437.90	366.78
438.27	370.18
438.64	373.72
439.01	376.90
439.38	379.70
439.75	382.39
440.13	385.47
440.50	388.36
440.87	390.69
441.24	393.11
441.61	395.79
441.98	397.72
442.35	400.05
442.72	402.40
443.09	404.66
443.46	405.91
443.83	406.67
444.20	407.32
444.57	408.35
444.94	408.75
445.31	409.21
445.68	409.59
446.05	409.74
446.42	409.27
446.79	408.79
447.16	408.27
447.53	407.87
447.90	406.48
448.27	405.09
448.64	403.14
449.01	401.80
449.37	399.35
449.74	396.98
450.11	394.15
450.48	391.01
450.85	387.90
451.22	385.23
451.59	382.72
451.96	380.32
452.33	377.10
452.70	374.16
453.07	370.69
453.43	367.19
453.80	363.74
454.17	360.40
454.54	357.22
454.91	353.81
455.28	350.52
455.65	347.42
456.02	344.34
456.38	341.70
456.75	338.35
457.12	335.57
457.49	332.81
457.86	330.07
458.23	327.76
458.59	325.22
458.96	322.70
459.33	320.42
459.70	318.08
460.07	316.23
460.43	314.11
460.80	312.05
461.17	310.22
461.54	308.35
461.91	306.58
462.27	304.82
462.64	303.27
463.01	301.54
463.38	299.88
463.74	298.17
464.11	296.70
464.48	295.42
464.85	294.03
465.21	292.95
465.58	291.82
465.95	290.47
466.32	289.30
466.68	288.15
467.05	287.01
467.42	285.87
467.78	284.67
468.15	283.56
468.52	282.75
468.88	281.69
469.25	280.74
469.62	279.98
469.98	279.12
470.35	278.33
470.72	277.62
471.08	276.81
471.45	276.15
471.82	275.47
472.18	274.70
472.55	274.13
472.92	273.45
473.28	272.85
473.65	272.32
474.02	271.78
474.38	271.32
474.75	270.90
475.11	270.49
475.48	270.14
475.85	269.85
476.21	269.51
476.58	269.25
476.94	269.04
477.31	268.79
477.67	268.56
478.04	268.38
478.41	268.26
478.77	268.21
479.14	268.10
479.50	268.05
479.87	268.11
480.23	268.17
480.60	268.23
480.96	268.26
481.33	268.42
481.69	268.60
482.06	268.76
482.42	268.93
482.79	269.14
483.15	269.44
483.52	269.83
483.88	270.16
484.25	270.53
484.61	270.88
484.98	271.32
485.34	271.90
485.71	272.48
486.07	273.04
486.44	273.63
486.80	274.34
487.17	275.06
487.53	275.84
487.90	276.73
488.26	277.65
488.62	278.65
488.99	279.62
489.35	280.67
489.72	281.83
490.08	283.04
490.44	284.30
490.81	285.62
491.17	286.95
491.54	288.45
491.90	290.04
492.26	291.75
492.63	293.53
492.99	295.31
493.36	297.26
493.72	299.39
494.08	301.57
494.45	303.85
494.81	306.31
495.17	308.82
495.54	311.44
495.90	314.21
496.26	317.15
496.63	320.23
496.99	323.41
497.35	326.78
497.72	330.33
498.08	334.01
498.44	337.84
498.80	341.87
499.17	346.05
499.53	350.33
499.89	354.84
500.26	359.50
500.62	364.36
500.98	369.43
501.34	374.70
501.71	380.17
502.07	385.83
502.43	391.63
502.79	397.65
503.16	403.91
503.52	410.41
503.88	417.02
504.24	423.88
504.60	430.99
504.97	438.34
505.33	445.83
505.69	453.78
506.05	461.85
506.41	470.09
506.78	478.55
507.14	487.38
507.50	496.44
507.86	505.77
508.22	515.40
508.59	524.99
508.95	534.85
509.31	545.14
509.67	555.67
510.03	566.32
510.39	577.27
510.75	588.47
511.12	599.78
511.48	611.54
511.84	623.50
512.20	635.50
512.56	647.91
512.92	660.55
513.28	673.55
513.64	686.55
514.00	699.81
514.37	713.35
514.73	726.89
515.09	740.44
515.45	754.34
515.81	768.43
516.17	783.03
516.53	797.81
516.89	812.63
517.25	827.38
517.61	842.48
517.97	857.62
518.33	872.77
518.69	888.32
519.05	903.98
519.41	919.89
519.77	936.22
520.13	952.46
520.49	968.74
520.85	984.77
521.21	1001.28
521.57	1018.36
521.93	1034.94
522.29	1052.25
522.65	1069.53
523.01	1086.62
523.37	1103.59
523.73	1120.64
524.09	1137.71
524.45	1154.84
524.81	1172.46
525.17	1190.20
525.53	1208.13
525.89	1226.02
526.25	1243.73
526.61	1261.13
526.97	1278.77
527.33	1296.34
527.68	1313.96
528.04	1331.46
528.40	1349.09
528.76	1367.26
529.12	1384.93
529.48	1402.96
529.84	1419.99
530.20	1437.60
530.56	1455.76
530.91	1474.47
531.27	1492.48
531.63	1510.12
531.99	1527.96
532.35	1545.21
532.71	1562.43
533.07	1579.88
533.42	1597.11
533.78	1614.73
534.14	1632.30
534.50	1649.01
534.86	1666.14
535.21	1682.75
535.57	1700.06
535.93	1716.97
536.29	1733.01
536.65	1749.41
537.00	1765.48
537.36	1782.28
537.72	1798.19
538.08	1813.88
538.44	1828.87
538.79	1844.26
539.15	1859.27
539.51	1874.34
539.87	1890.09
540.22	1905.13
540.58	1920.40
540.94	1934.99
541.29	1949.07
541.65	1963.31
542.01	1978.05
542.37	1991.86
542.72	2005.65
543.08	2018.95
543.44	2032.77
543.79	2045.69
544.15	2058.08
544.51	2071.16
544.87	2083.62
545.22	2096.13
545.58	2108.06
545.94	2119.42
546.29	2130.67
546.65	2142.06
547.01	2153.01
547.36	2163.13
547.72	2173.09
548.07	2182.48
548.43	2192.30
548.79	2201.58
549.14	2210.53
549.50	2219.10
549.86	2228.05
550.21	2236.67
550.57	2245.32
550.92	2253.44
551.28	2261.82
551.64	2270.35
551.99	2278.37
552.35	2285.88
552.70	2293.32
553.06	2300.55
553.41	2308.27
553.77	2315.46
554.13	2322.77
554.48	2330.12
554.84	2337.16
555.19	2343.59
555.55	2350.04
555.90	2355.70
556.26	2362.19
556.61	2368.12
556.97	2373.92
557.32	2379.46
557.68	2384.90
558.03	2390.19
558.39	2394.99
558.74	2400.67
559.10	2405.69
559.45	2410.41
559.81	2415.72
560.16	2420.62
560.52	2424.99
560.87	2429.52
561.23	2433.29
561.58	2437.20
561.94	2440.73
562.29	2443.72
562.64	2447.80
563.00	2451.32
563.35	2455.76
563.71	2459.82
564.06	2464.01
564.42	2467.96
564.77	2471.46
565.12	2474.94
565.48	2477.90
565.83	2480.79
566.19	2483.12
566.54	2484.80
566.89	2486.81
567.25	2488.39
567.60	2490.38
567.96	2493.12
568.31	2494.65
568.66	2496.63
569.02	2498.09
569.37	2499.17
569.72	2500.88
570.08	2501.71
570.43	2502.26
570.78	2502.42
571.14	2501.32
571.49	2500.36
571.84	2500.26
572.20	2499.66
572.55	2498.79
572.90	2497.49
573.26	2496.56
573.61	2495.00
573.96	2493.81
574.31	2491.23
574.67	2488.45
575.02	2485.04
575.37	2481.75
575.72	2478.17
576.08	2474.88
576.43	2471.67
576.78	2468.25
577.13	2465.15
577.49	2461.85
577.84	2458.70
578.19	2455.05
578.54	2451.59
578.90	2447.66
579.25	2442.13
579.60	2437.29
579.95	2432.38
580.30	2427.30
580.66	2421.95
581.01	2417.00
581.36	2411.83
581.71	2407.67
582.06	2403.21
582.42	2398.93
582.77	2393.49
583.12	2388.86
583.47	2384.33
583.82	2379.26
584.17	2373.78
584.53	2368.13
584.88	2362.46
585.23	2356.52
585.58	2350.61
585.93	2344.86
586.28	2339.59
586.63	2334.35
586.98	2328.70
587.34	2323.65
587.69	2318.54
588.04	2313.27
588.39	2307.38
588.74	2300.45
589.09	2293.70
589.44	2286.60
589.79	2279.86
590.14	2273.71
590.49	2266.58
590.84	2259.48
591.19	2253.07
591.54	2246.13
591.89	2238.36
592.25	2231.17
592.60	2223.14
592.95	2215.21
593.30	2207.33
593.65	2199.05
594.00	2191.45
594.35	2183.65
594.70	2174.88
595.05	2167.30
595.40	2159.04
595.75	2150.92
596.10	2144.44
596.45	2137.33
596.80	2130.54
597.15	2123.53
597.50	2116.17
597.85	2109.04
598.19	2101.89
598.54	2094.47
598.89	2087.34
599.24	2080.77
599.59	2073.58
599.94	2066.77
600.29	2059.69
600.64	2052.28
600.99	2044.43
601.34	2036.92
601.69	2029.21
602.04	2021.80
602.39	2013.60
602.74	2006.34
603.08	1999.04
603.43	1991.47
603.78	1983.26
604.13	1975.19
604.48	1967.32
604.83	1959.56
605.18	1952.22
605.53	1943.50
605.87	1934.39
606.22	1926.18
606.57	1917.39
606.92	1908.92
607.27	1901.05
607.62	1893.49
607.96	1885.59
608.31	1878.28
608.66	1869.98
609.01	1861.68
609.36	1853.47
609.70	1844.55
610.05	1835.54
610.40	1827.07
610.75	1817.94
611.10	1809.47
611.44	1800.04
611.79	1790.86
612.14	1781.22
612.49	1770.79
612.83	1761.37
613.18	1752.26
613.53	1743.30
613.88	1733.88
614.22	1724.89
614.57	1715.20
614.92	1706.05
615.27	1697.70
615.61	1688.50
615.96	1679.31
616.31	1670.59
616.65	1662.14
617.00	1653.60
617.35	1644.96
617.70	1635.59
618.04	1626.03
618.39	1616.63
618.74	1608.25
619.08	1598.95
619.43	1590.46
619.78	1582.63
620.12	1574.60
620.47	1566.16
620.82	1556.83
621.16	1548.36
621.51	1539.58
621.85	1531.06
622.20	1521.72
622.55	1512.35
622.89	1503.39
623.24	1494.85
623.59	1486.60
623.93	1478.23
624.28	1470.21
624.62	1461.77
624.97	1453.61
625.32	1445.82
625.66	1437.96
626.01	1429.89
626.35	1421.76
626.70	1413.01
627.04	1404.44
627.39	1395.63
627.73	1387.23
628.08	1379.55
628.43	1371.47
628.77	1363.33
629.12	1354.92
629.46	1346.80
629.81	1338.27
630.15	1330.15
630.50	1321.89
630.84	1312.94
631.19	1303.92
631.53	1295.36
631.88	1286.87
632.22	1278.35
632.57	1270.21
632.91	1261.81
633.26	1253.55
633.60	1245.14
633.95	1237.04
634.29	1229.14
634.64	1221.59
634.98	1213.46
635.32	1205.49
635.67	1198.03
636.01	1190.64
636.36	1183.11
636.70	1175.79
637.05	1168.52
637.39	1161.27
637.73	1154.04
638.08	1147.31
638.42	1140.62
638.77	1133.48
639.11	1126.18
639.45	1119.00
639.80	1111.59
640.14	1104.51
640.49	1097.19
640.83	1090.16
641.17	1083.37
641.52	1076.34
641.86	1069.17
642.20	1062.67
642.55	1055.58
642.89	1048.39
643.23	1040.91
643.58	1034.42
643.92	1027.52
644.26	1020.86
644.61	1014.12
644.95	1007.47
645.29	1000.19
645.64	992.72
645.98	985.69
646.32	978.99
646.66	972.34
647.01	965.96
647.35	959.59
647.69	953.02
648.04	946.90
648.38	940.50
648.72	933.94
649.06	927.35
649.41	920.75
649.75	914.22
650.09	907.69
650.43	901.39
650.78	894.54
651.12	887.96
651.46	881.61
651.80	875.35
652.14	869.30
652.49	863.35
652.83	857.60
653.17	851.46
653.51	845.30
653.85	839.25
654.20	833.01
654.54	826.32
654.88	819.95
655.22	813.31
655.56	806.88
655.90	800.72
656.25	794.83
656.59	788.92
656.93	783.23
657.27	777.49
657.61	771.45
657.95	765.84
658.29	760.17
658.64	754.30
658.98	748.34
659.32	742.27
659.66	736.53
660.00	730.76
660.34	725.19
660.68	719.79
661.02	714.22
661.36	709.00
661.70	704.08
662.05	699.35
662.39	694.71
662.73	689.82
663.07	684.94
663.41	680.08
663.75	675.10
664.09	670.13
664.43	665.26
664.77	660.72
665.11	656.05
665.45	651.49
665.79	647.02
666.13	642.52
666.47	637.99
666.81	633.42
667.15	628.79
667.49	624.48
667.83	620.11
668.17	615.74
668.51	611.26
668.85	606.82
669.19	602.50
669.53	598.27
669.87	594.03
670.21	589.96
670.55	585.93
670.89	582.13
671.23	578.34
671.57	574.38
671.91	570.56
672.25	566.56
672.58	562.65
672.92	558.87
673.26	555.27
673.60	551.77
673.94	548.36
674.28	545.17
674.62	541.93
674.96	538.59
675.30	535.39
675.64	532.14
675.97	529.05
676.31	525.93
676.65	522.64
676.99	519.60
677.33	516.49
677.67	513.33
678.01	510.02
678.34	506.75
678.68	503.60
679.02	500.48
679.36	497.45
679.70	494.47
680.04	491.39
680.37	488.30
680.71	485.23
681.05	482.28
681.39	479.29
681.73	476.29
682.06	473.45
682.40	470.69
682.74	467.91
683.08	465.02
683.42	462.06
683.75	459.26
684.09	456.44
684.43	453.65
684.77	450.93
685.10	448.26
685.44	445.65
685.78	443.11
686.12	440.55
686.45	437.99
686.79	435.53
687.13	433.09
687.46	430.68
687.80	428.21
688.14	425.65
688.48	423.32
688.81	420.88
689.15	418.52
689.49	416.08
689.82	413.77
690.16	411.42
690.50	409.31
690.83	407.18
691.17	404.92
691.51	402.81
691.84	400.77
692.18	398.67
692.52	396.49
692.85	394.31
693.19	392.24
693.52	390.24
693.86	388.09
694.20	386.07
694.53	384.04
694.87	381.99
695.21	380.03
695.54	377.93
695.88	375.95
696.21	374.03
696.55	372.18
696.88	370.27
697.22	368.45
697.56	366.56
697.89	364.73
698.23	363.01
698.56	361.22
698.90	359.46
699.23	357.69
699.57	355.99
699.90	354.25
700.24	352.56
700.58	350.84
700.91	349.25
701.25	347.64
701.58	346.18
701.92	344.73
702.25	343.22
702.59	341.77
702.92	340.38
703.26	338.93
703.59	337.48
703.93	336.14
704.26	334.81
704.60	333.45
704.93	332.00
705.26	330.64
705.60	329.26
705.93	327.95
706.27	326.78
706.60	325.59
706.94	324.42
707.27	323.15
707.61	321.95
707.94	320.76
708.27	319.56
708.61	318.33
708.94	317.16
709.28	316.08
709.61	314.98
709.94	313.85
710.28	312.69
710.61	311.58
710.95	310.40
711.28	309.37
711.61	308.30
711.95	307.32
712.28	306.26
712.61	305.20
712.95	304.16
713.28	303.15
713.61	302.13
713.95	301.14
714.28	300.20
714.61	299.27
714.95	298.33
715.28	297.37
715.61	296.37
715.95	295.41
716.28	294.45
716.61	293.52
716.95	292.63
717.28	291.78
717.61	290.93
717.94	290.11
718.28	289.17
718.61	288.35
718.94	287.54
719.27	286.81
719.61	286.12
719.94	285.35
720.27	284.55
720.60	283.81
720.94	283.10
721.27	282.45
721.60	281.81
721.93	281.14
722.27	280.53
722.60	279.93
722.93	279.28
723.26	278.74
723.59	278.16
723.93	277.53
724.26	276.89
724.59	276.26
724.92	275.65
725.25	275.12
725.59	274.55
725.92	273.97
726.25	273.37
726.58	272.79
726.91	272.30
727.24	271.79
727.57	271.25
727.91	270.69
728.24	270.12
728.57	269.57
728.90	269.10
729.23	268.55
729.56	268.06
729.89	267.56
730.22	266.98
730.55	266.44
730.89	265.95
731.22	265.50
731.55	265.01
731.88	264.54
732.21	264.07
732.54	263.57
732.87	263.14
733.20	262.69
733.53	262.26
733.86	261.81
734.19	261.36
734.52	260.98
734.85	260.65
735.18	260.22
735.51	259.82
735.84	259.40
736.17	259.02
736.50	258.59
736.83	258.31
737.16	257.95
737.49	257.59
737.82	257.21
738.15	256.82
738.48	256.44
738.81	256.08
739.14	255.69
739.47	255.31
739.80	254.94
740.13	254.63
740.46	254.27
740.79	253.92
741.12	253.58
741.45	253.18
741.78	252.80
742.11	252.49
742.44	252.13
742.77	251.81
743.10	251.46
743.43	251.11
743.75	250.71
744.08	250.53
744.41	250.21
744.74	249.94
745.07	249.65
745.40	249.37
745.73	249.10
746.06	248.76
746.39	248.54
746.71	248.25
747.04	247.89
747.37	247.59
747.70	247.29
748.03	247.03
748.36	246.78
748.68	246.50
749.01	246.17
749.34	245.94
749.67	245.64
750.00	245.36
750.33	245.19
750.65	244.93
750.98	244.52
751.31	244.25
751.64	243.98
751.97	243.79
752.29	243.55
752.62	243.26
752.95	243.07
753.28	242.79
753.60	242.57
753.93	242.44
754.26	242.25
754.59	242.02
754.91	241.78
755.24	241.54
755.57	241.34
755.90	241.15
756.22	240.92
756.55	240.70
756.88	240.50
757.20	240.26
757.53	240.03
757.86	239.87
758.19	239.72
758.51	239.52
758.84	239.27
759.17	239.07
759.49	238.92
759.82	238.80
760.15	238.65
760.47	238.47
760.80	238.25
761.13	238.05
761.45	237.91
761.78	237.74
762.11	237.61
762.43	237.46
762.76	237.30
763.08	237.15
763.41	237.04
763.74	236.91
764.06	236.68
764.39	236.57
764.71	236.40
765.04	236.24
765.37	236.12
765.69	236.01
766.02	235.92
766.34	235.77
766.67	235.60
767.00	235.44
767.32	235.36
767.65	235.28
767.97	235.17
768.30	235.02
768.62	234.87
768.95	234.72
769.27	234.56
769.60	234.46
769.92	234.34
770.25	234.16
770.57	234.01
770.90	233.93
771.22	233.77
771.55	233.65
771.87	233.55
772.20	233.42
772.52	233.39
772.85	233.36
773.17	233.25
773.50	233.12
773.82	233.03
774.15	232.87
774.47	232.71
774.80	232.59
775.12	232.51
775.45	232.43
775.77	232.31
776.09	232.24
776.42	232.16
776.74	232.09
777.07	232.03
777.39	231.93
777.72	231.85
778.04	231.81
778.36	231.73
778.69	231.64
779.01	231.58
779.33	231.40
779.66	231.23
779.98	231.13
780.31	231.08
780.63	231.02
780.95	230.97
781.28	230.90
781.60	230.83
781.92	230.74
782.25	230.67
782.57	230.61
782.89	230.56
783.22	230.48
783.54	230.38
783.86	230.36
784.19	230.33
784.51	230.30
784.83	230.23
785.16	230.19
785.48	230.14
785.80	230.07
786.12	230.03
786.45	229.96
786.77	229.94
787.09	229.89
787.42	229.83
787.74	229.76
788.06	229.73
788.38	229.69
788.71	229.65
789.03	229.62
789.35	229.57
789.67	229.50
789.99	229.43
790.32	229.41
790.64	229.34
790.96	229.37
791.28	229.31
791.61	229.25
791.93	229.23
792.25	229.18
792.57	229.25
792.89	229.19
793.21	229.17
793.54	229.12
793.86	229.08
794.18	229.05
794.50	229.03
794.82	228.98
795.14	228.98
795.47	228.95
795.79	228.93
796.11	228.89
796.43	228.85
796.75	228.85
797.07	228.79
797.39	228.80
797.71	228.73
798.04	228.68
798.36	228.64
798.68	228.59
799.00	228.57
799.32	228.47
799.64	228.46
799.96	228.40
800.28	228.40
800.60	228.36
800.92	228.32
801.24	228.31
801.56	228.29
801.89	228.22
802.21	228.19
802.53	228.15
802.85	228.14
803.17	228.17
803.49	228.09
803.81	228.07
804.13	228.02
804.45	227.96
804.77	227.95
805.09	227.96
805.41	227.93
805.73	227.88
806.05	227.84
806.37	227.80
806.69	227.81
807.01	227.74
807.33	227.71
807.65	227.68
807.97	227.66
808.28	227.61
808.60	227.59
808.92	227.55
809.24	227.57
809.56	227.53
809.88	227.44
810.20	227.44
810.52	227.43
810.84	227.33
811.16	227.27
811.48	227.21
811.80	227.18
812.12	227.13
812.43	227.11
812.75	227.08
813.07	227.06
813.39	226.99
813.71	226.98
814.03	226.99
814.35	226.95
814.67	226.88
814.98	226.87
815.30	226.83
815.62	226.77
815.94	226.67
816.26	226.68
816.58	226.66
816.89	226.64
817.21	226.59
817.53	226.60
817.85	226.60
818.17	226.57
818.48	226.51
818.80	226.51
819.12	226.48
819.44	226.44
819.76	226.36
820.07	226.35
820.39	226.32
820.71	226.27
821.03	226.21
821.34	226.18
821.66	226.18
821.98	226.21
822.30	226.20
822.61	226.24
822.93	226.17
823.25	226.13
823.57	226.11
823.88	226.12
824.20	226.08
824.52	226.05
824.83	226.03
825.15	226.05
825.47	226.00
825.79	226.01
826.10	225.98
826.42	226.02
826.74	226.01
827.05	225.97
827.37	225.97
827.69	226.00
828.00	225.98
828.32	225.94
828.64	225.88
828.95	225.92
829.27	225.89
829.58	225.89
829.90	225.91
830.22	225.92
830.53	225.86
830.85	225.86
831.17	225.87
831.48	225.87
831.80	225.87
832.11	225.88
832.43	225.85
832.75	225.86
833.06	225.87
833.38	225.84
833.69	225.87
834.01	225.85
834.32	225.83
834.64	225.80
834.96	225.79
835.27	225.79
835.59	225.76
835.90	225.73
836.22	225.74
836.53	225.72
836.85	225.69
837.16	225.80
837.48	225.82
837.79	225.84
838.11	225.84
838.42	225.80
838.74	225.81
839.05	225.81
839.37	225.78
839.68	225.72
840.00	225.71
840.31	225.70
840.63	225.67
840.94	225.68
841.26	225.68
841.57	225.71
841.88	225.72
842.20	225.65
842.51	225.64
842.83	225.60
843.14	225.69
843.46	225.73
843.77	225.67
844.08	225.67
844.40	225.63
844.71	225.61
845.03	225.60
845.34	225.57
845.65	225.57
845.97	225.58
846.28	225.59
846.60	225.60
846.91	225.56
847.22	225.57
847.54	225.57
847.85	225.58
848.16	225.54
848.48	225.51
848.79	225.59
849.10	225.59
849.42	225.58
849.73	225.46
850.04	225.40
850.36	225.35
850.67	225.34
850.98	225.30
851.30	225.31
851.61	225.33
851.92	225.32
852.23	225.34
852.55	225.33
852.86	225.35
853.17	225.37
853.49	225.40
853.80	225.40
854.11	225.40
854.42	225.42
854.74	225.41
855.05	225.41
855.36	225.35
855.67	225.37
855.99	225.38
856.30	225.49
856.61	225.49
856.92	225.49
857.23	225.48
857.55	225.48
857.86	225.45
858.17	225.41
858.48	225.39
858.79	225.36
859.11	225.35
859.42	225.31
859.73	225.27
860.04	225.27
860.35	225.22
860.66	225.16
860.98	225.15
861.29	225.20
861.60	225.16
861.91	225.17
862.22	225.13
862.53	225.09
862.84	224.96
863.16	224.97
863.47	224.96
863.78	224.96
864.09	224.96
864.40	224.97
864.71	224.96
865.02	224.95
865.33	224.94
865.64	224.91
865.95	224.90
866.27	224.94
866.58	224.94
866.89	224.92
867.20	224.93
867.51	224.90
867.82	224.85
868.13	224.89
868.44	224.86
868.75	224.83
869.06	224.83
869.37	224.86
869.68	224.82
869.99	224.83
870.30	224.81
870.61	224.80
870.92	224.77
871.23	224.81
871.54	224.84
871.85	224.83
872.16	224.83
872.47	224.86
872.78	224.81
873.09	224.79
873.40	224.79
873.71	224.79
874.02	224.79
874.33	224.80
874.64	224.77
874.95	224.77
875.26	224.81
875.56	224.82
875.87	224.81
876.18	224.80
876.49	224.92
876.80	224.91
877.11	224.92
877.42	224.95
877.73	224.90
878.04	224.88
878.35	224.90
878.66	224.90
878.96	224.85
879.27	224.81
879.58	224.80
879.89	224.83
880.20	224.85
880.51	224.84
880.82	224.84
881.12	224.85
881.43	224.85
881.74	224.84
882.05	224.82
882.36	224.81
882.67	224.82
882.97	224.72
883.28	224.73
883.59	224.69
883.90	224.67
884.21	224.72
884.51	224.74
884.82	224.73
885.13	224.76
885.44	224.78
885.74	224.83
886.05	224.85
886.36	224.85
886.67	224.83
886.98	224.86
887.28	224.87
887.59	224.90
887.90	224.92
888.20	224.88
888.51	224.92
888.82	224.90
889.13	224.93
889.43	224.98
889.74	224.98
890.05	225.04
890.35	225.05
890.66	225.03
890.97	225.03
891.28	225.00
891.58	224.98
891.89	225.02
892.20	225.00
892.50	224.98
892.81	224.95
893.12	224.97
893.42	224.93
893.73	224.97
894.04	224.96
894.34	224.93
894.65	224.99
894.95	224.98
895.26	225.01
895.57	225.04
895.87	224.93
896.18	224.92
896.48	224.91
896.79	224.90
897.10	224.92
897.40	224.92
897.71	224.95
898.01	224.94
898.32	224.95
898.63	224.94
898.93	224.96
899.24	224.99
899.54	224.96
899.85	224.97
900.15	224.93
900.46	224.93
900.76	224.94
901.07	224.91
901.38	224.92
901.68	224.92
901.99	224.85
902.29	224.87
902.60	224.89
902.90	224.92
903.21	224.93
903.51	224.90
903.82	224.91
904.12	224.91
904.43	224.93
904.73	224.88
905.03	224.93
905.34	225.02
905.64	224.97
905.95	224.97
906.25	224.94
906.56	224.94
906.86	224.92
907.17	224.96
907.47	224.96
907.77	224.93
908.08	224.91
908.38	224.91
908.69	224.93
908.99	224.93
909.30	224.86
909.60	224.81
909.90	224.82
910.21	224.79
910.51	224.75
910.81	224.72
911.12	224.75
911.42	224.68
911.73	224.56
912.03	224.58
912.33	224.57
912.64	224.57
912.94	224.54
913.24	224.54
913.55	224.46
913.85	224.44
914.15	224.47
914.46	224.49
914.76	224.51
915.06	224.50
915.37	224.47
915.67	224.45
915.97	224.47
916.27	224.44
916.58	224.41
916.88	224.43
917.18	224.42
917.49	224.46
917.79	224.47
918.09	224.50
918.39	224.48
918.70	224.49
919.00	224.49
919.30	224.55
919.60	224.56
919.91	224.56
920.21	224.56
920.51	224.53
920.81	224.51
921.12	224.52
921.42	224.54
921.72	224.54
922.02	224.56
922.32	224.61
922.63	224.60
922.93	224.66
923.23	224.62
923.53	224.63
923.83	224.59
924.13	224.60
924.44	224.60
924.74	224.66
925.04	224.70
925.34	224.71
925.64	224.66
925.94	224.67
926.24	224.74
926.55	224.73
926.85	224.74
927.15	224.75
927.45	224.74
927.75	224.73
928.05	224.75
928.35	224.74
928.65	224.72
928.95	224.74
929.26	224.73
929.56	224.79
929.86	224.82
930.16	224.81
930.46	224.82
930.76	224.84
931.06	224.78
931.36	224.75
931.66	224.75
931.96	224.77
932.26	224.75
932.56	224.68
932.86	224.69
933.16	224.68
933.46	224.69
933.76	224.70
934.06	224.70
934.36	224.70
934.66	224.68
934.96	224.66
935.26	224.67
935.56	224.64
935.86	224.59
936.16	224.57
936.46	224.56
936.76	224.55
937.06	224.54
937.36	224.56
937.66	224.55
937.96	224.52
938.26	224.49
938.56	224.52
938.86	224.56
939.16	224.54
939.46	224.56
939.76	224.57
940.06	224.52
940.35	224.48
940.65	224.42
940.95	224.47
941.25	224.43
941.55	224.40
941.85	224.39
942.15	224.43
942.45	224.42
942.75	224.39
943.04	224.40
943.34	224.44
943.64	224.41
943.94	224.40
944.24	224.39
944.54	224.38
944.84	224.35
945.13	224.32
945.43	224.35
945.73	224.28
946.03	224.23
946.33	224.24
946.62	224.24
946.92	224.23
947.22	224.19
947.52	224.21
947.82	224.23
948.11	224.24
948.41	224.24
948.71	224.21
949.01	224.24
949.31	224.22
949.60	224.18
949.90	224.22
950.20	224.22
950.50	224.25
950.79	224.24
951.09	224.25
951.39	224.22
951.69	224.19
951.98	224.25
952.28	224.28
952.58	224.26
952.87	224.25
953.17	224.28
953.47	224.27
953.76	224.28
954.06	224.26
954.36	224.23
954.66	224.19
954.95	224.21
955.25	224.21
955.55	224.21
955.84	224.19
956.14	224.14
956.44	224.18
956.73	224.17
957.03	224.17
957.32	224.19
957.62	224.22
957.92	224.23
958.21	224.20
958.51	224.31
958.81	224.34
959.10	224.35
959.40	224.39
959.69	224.44
959.99	224.42
960.29	224.45
960.58	224.46
960.88	224.54
961.17	224.56
961.47	224.58
961.76	224.56
962.06	224.59
962.36	224.62
962.65	224.59
962.95	224.58
963.24	224.59
963.54	224.60
963.83	224.63
964.13	224.64
964.42	224.64
964.72	224.57
965.01	224.55
965.31	224.60
965.60	224.57
965.90	224.63
966.19	224.64
966.49	224.67
966.78	224.68
967.08	224.67
967.37	224.69
967.67	224.65
967.96	224.70
968.26	224.70
968.55	224.72
968.85	224.72
969.14	224.72
969.43	224.69
969.73	224.70
970.02	224.70
970.32	224.72
970.61	224.71
970.91	224.69
971.20	224.67
971.49	224.62
971.79	224.67
972.08	224.59
972.38	224.58
972.67	224.54
972.96	224.54
973.26	224.50
973.55	224.51
973.85	224.54
974.14	224.53
974.43	224.52
974.73	224.50
975.02	224.50
975.31	224.53
975.61	224.54
975.90	224.55
976.19	224.55
976.49	224.49
976.78	224.52
977.07	224.52
977.37	224.56
977.66	224.58
977.95	224.56
978.24	224.58
978.54	224.61
978.83	224.61
979.12	224.64
979.42	224.66
979.71	224.65
980.00	224.64
980.29	224.63
980.59	224.64
980.88	224.66
981.17	224.66
981.46	224.65
981.76	224.65
982.05	224.64
982.34	224.63
982.63	224.67
982.93	224.67
983.22	224.68
983.51	224.67
983.80	224.69
984.09	224.68
984.39	224.63
984.68	224.62
984.97	224.63
985.26	224.59
985.55	224.60
985.85	224.59
986.14	224.59
986.43	224.59
986.72	224.56
987.01	224.56
987.30	224.53
987.59	224.56
987.89	224.56
988.18	224.52
988.47	224.52
988.76	224.50
989.05	224.47
989.34	224.46
989.63	224.47
989.92	224.45
990.22	224.47
990.51	224.49
990.80	224.50
991.09	224.50
991.38	224.52
991.67	224.52
991.96	224.50
992.25	224.53
992.54	224.52
992.83	224.54
993.12	224.50
993.41	224.54
993.70	224.55
993.99	224.59
994.28	224.64
994.58	224.64
994.87	224.63
995.16	224.64
995.45	224.66
995.74	224.61
996.03	224.66
996.32	224.63
996.61	224.66
996.90	224.66
997.19	224.66
997.48	224.64
997.77	224.66
998.06	224.68
998.34	224.61
998.63	224.64
998.92	224.65
999.21	224.68
999.50	224.67
999.79	224.62
1000.08	224.60
1000.37	224.57
1000.66	224.58
1000.95	224.61
1001.24	224.64
1001.53	224.61
1001.82	224.64
1002.11	224.60
1002.40	224.62
1002.68	224.64
1002.97	224.68
1003.26	224.66
1003.55	224.65
1003.84	224.61
1004.13	224.62
1004.42	224.63
1004.71	224.60
1004.99	224.56
1005.28	224.58
1005.57	224.56
1005.86	224.57
1006.15	224.54
1006.44	224.54
1006.72	224.55
1007.01	224.53
1007.30	224.51
1007.59	224.53
1007.88	224.52
1008.17	224.53
1008.45	224.47
1008.74	224.45
1009.03	224.40
1009.32	224.39
1009.60	224.39
1009.89	224.39
1010.18	224.36
1010.47	224.39
1010.76	224.39
1011.04	224.41
1011.33	224.40
1011.62	224.41
1011.91	224.41
1012.19	224.43
1012.48	224.43
1012.77	224.41
1013.05	224.48
1013.34	224.50
1013.63	224.47
1013.92	224.47
1014.20	224.45
1014.49	224.47
1014.78	224.49
1015.06	224.48
1015.35	224.49
1015.64	224.53
1015.92	224.56
1016.21	224.54
1016.50	224.53
1016.78	224.53
1017.07	224.56
1017.36	224.52
1017.64	224.54
1017.93	224.58
1018.22	224.61
1018.50	224.62
1018.79	224.62
1019.08	224.56
1019.36	224.57
1019.65	224.57
1019.93	224.60
1020.22	224.60
1020.51	224.66
1020.79	224.66
1021.08	225.21
1021.36	224.59
1021.65	224.33
1021.94	224.43
1022.22	225.03
1022.51	224.04
1022.79	225.06
1023.08	224.25
1023.36	225.70
1023.65	224.95
>>>>>End Processed Spectral Data<<<<<
