SpectraSuite Data File
++++++++++++++++++++++++++++++++++++
Date: Fri Feb 01 16:14:32 EST 2013
User: group
Dark Spectrum Present: No
Reference Spectrum Present: No
Number of Sampled Component Spectra: 1
Spectrometers: USB2E7196
Integration Time (usec): 35000 (USB2E7196)
Spectra Averaged: 100 (USB2E7196)
Boxcar Smoothing: 10 (USB2E7196)
Correct for Electrical Dark: No (USB2E7196)
Strobe/Lamp Enabled: No (USB2E7196)
Correct for Detector Non-linearity: No (USB2E7196)
Correct for Stray Light: No (USB2E7196)
Number of Pixels in Processed Spectrum: 2048
>>>>>Begin Processed Spectral Data<<<<<
339.09	0.00
339.48	214.57
339.86	215.68
340.24	217.83
340.63	218.71
341.01	221.69
341.39	221.49
341.78	222.73
342.16	223.81
342.54	225.01
342.93	213.02
343.31	223.77
343.69	224.32
344.07	224.81
344.46	225.23
344.84	225.57
345.22	225.80
345.60	226.04
345.99	226.23
346.37	226.37
346.75	226.44
347.13	226.49
347.52	226.52
347.90	226.60
348.28	226.60
348.66	226.61
349.05	226.58
349.43	226.62
349.81	226.67
350.19	226.73
350.57	226.76
350.96	226.82
351.34	226.90
351.72	226.98
352.10	227.05
352.48	227.10
352.87	227.19
353.25	227.25
353.63	227.30
354.01	227.36
354.39	227.39
354.77	227.47
355.15	227.56
355.54	227.61
355.92	227.62
356.30	227.71
356.68	227.83
357.06	227.92
357.44	227.94
357.82	227.97
358.20	228.03
358.58	228.09
358.97	228.15
359.35	228.22
359.73	228.24
360.11	228.29
360.49	228.35
360.87	228.40
361.25	228.44
361.63	228.50
362.01	228.55
362.39	228.62
362.77	228.67
363.15	228.68
363.53	228.70
363.91	228.71
364.29	228.73
364.67	228.70
365.05	228.72
365.43	228.74
365.81	228.76
366.19	228.78
366.57	228.82
366.95	228.81
367.33	228.78
367.71	228.79
368.09	228.80
368.47	228.73
368.85	228.69
369.23	228.71
369.61	228.66
369.99	228.63
370.37	228.61
370.75	228.62
371.13	228.58
371.51	228.55
371.89	228.52
372.27	228.45
372.65	228.38
373.03	228.31
373.41	228.22
373.78	228.12
374.16	228.03
374.54	227.93
374.92	227.86
375.30	227.80
375.68	227.72
376.06	227.64
376.44	227.60
376.82	227.55
377.19	227.45
377.57	227.39
377.95	227.31
378.33	227.23
378.71	227.09
379.09	227.01
379.47	226.95
379.84	226.89
380.22	226.79
380.60	226.71
380.98	226.63
381.36	226.58
381.73	226.55
382.11	226.50
382.49	226.42
382.87	226.35
383.25	226.32
383.62	226.37
384.00	226.32
384.38	226.27
384.76	226.23
385.13	226.22
385.51	226.18
385.89	226.12
386.27	226.06
386.64	226.01
387.02	225.99
387.40	225.96
387.78	225.91
388.15	225.89
388.53	225.87
388.91	225.88
389.29	225.83
389.66	225.83
390.04	225.77
390.42	225.77
390.79	225.75
391.17	225.72
391.55	225.61
391.92	225.58
392.30	225.58
392.68	225.57
393.05	225.58
393.43	225.57
393.81	225.60
394.18	225.59
394.56	225.62
394.94	225.66
395.31	225.68
395.69	225.71
396.06	225.77
396.44	225.81
396.82	225.81
397.19	225.89
397.57	225.90
397.95	225.98
398.32	226.03
398.70	226.09
399.07	226.14
399.45	226.19
399.82	226.27
400.20	226.31
400.58	226.37
400.95	226.38
401.33	226.48
401.70	226.61
402.08	226.70
402.45	226.78
402.83	226.85
403.20	226.92
403.58	227.02
403.95	227.12
404.33	227.26
404.71	227.39
405.08	227.59
405.46	227.74
405.83	227.90
406.21	228.05
406.58	228.20
406.96	228.40
407.33	228.61
407.70	228.75
408.08	229.02
408.45	229.24
408.83	229.52
409.20	229.71
409.58	229.90
409.95	230.19
410.33	230.46
410.70	230.73
411.08	231.04
411.45	231.37
411.82	231.70
412.20	232.03
412.57	232.45
412.95	232.73
413.32	233.14
413.69	233.53
414.07	233.96
414.44	234.42
414.82	234.87
415.19	235.37
415.56	235.96
415.94	236.49
416.31	237.12
416.68	237.73
417.06	238.45
417.43	239.11
417.81	239.87
418.18	240.68
418.55	241.54
418.93	242.40
419.30	243.27
419.67	244.20
420.04	245.15
420.42	246.10
420.79	247.31
421.16	248.45
421.54	249.63
421.91	250.81
422.28	252.09
422.66	253.44
423.03	254.77
423.40	256.09
423.77	257.53
424.15	258.98
424.52	260.43
424.89	262.06
425.26	263.63
425.64	265.08
426.01	266.60
426.38	268.23
426.75	269.88
427.13	271.63
427.50	273.40
427.87	275.25
428.24	277.11
428.61	278.82
428.99	280.75
429.36	282.85
429.73	284.96
430.10	286.99
430.47	289.03
430.85	291.12
431.22	293.39
431.59	295.75
431.96	297.96
432.33	300.46
432.70	302.81
433.08	305.59
433.45	308.22
433.82	310.86
434.19	313.74
434.56	316.56
434.93	319.23
435.30	321.88
435.68	324.74
436.05	327.57
436.42	330.36
436.79	332.89
437.16	335.59
437.53	338.37
437.90	341.14
438.27	343.86
438.64	346.67
439.01	349.24
439.38	351.46
439.75	353.63
440.13	356.12
440.50	358.42
440.87	360.27
441.24	362.18
441.61	364.29
441.98	365.79
442.35	367.59
442.72	369.40
443.09	371.15
443.46	372.15
443.83	372.72
444.20	373.24
444.57	374.03
444.94	374.36
445.31	374.72
445.68	375.08
446.05	375.17
446.42	374.81
446.79	374.41
447.16	373.99
447.53	373.69
447.90	372.51
448.27	371.39
448.64	369.88
449.01	368.77
449.37	366.82
449.74	364.92
450.11	362.66
450.48	360.24
450.85	357.77
451.22	355.65
451.59	353.64
451.96	351.68
452.33	349.12
452.70	346.73
453.07	343.92
453.43	341.05
453.80	338.27
454.17	335.60
454.54	333.06
454.91	330.33
455.28	327.66
455.65	325.18
456.02	322.76
456.38	320.58
456.75	317.95
457.12	315.74
457.49	313.54
457.86	311.42
458.23	309.57
458.59	307.53
458.96	305.45
459.33	303.63
459.70	301.80
460.07	300.31
460.43	298.58
460.80	296.92
461.17	295.50
461.54	294.05
461.91	292.66
462.27	291.17
462.64	289.94
463.01	288.61
463.38	287.31
463.74	285.92
464.11	284.75
464.48	283.72
464.85	282.62
465.21	281.78
465.58	280.86
465.95	279.73
466.32	278.83
466.68	277.94
467.05	277.05
467.42	276.23
467.78	275.29
468.15	274.46
468.52	273.82
468.88	272.96
469.25	272.18
469.62	271.54
469.98	270.88
470.35	270.23
470.72	269.62
471.08	269.01
471.45	268.48
471.82	267.97
472.18	267.37
472.55	266.93
472.92	266.34
473.28	265.86
473.65	265.44
474.02	265.02
474.38	264.65
474.75	264.32
475.11	263.94
475.48	263.66
475.85	263.45
476.21	263.17
476.58	262.98
476.94	262.84
477.31	262.67
477.67	262.54
478.04	262.46
478.41	262.42
478.77	262.44
479.14	262.37
479.50	262.35
479.87	262.40
480.23	262.49
480.60	262.58
480.96	262.68
481.33	262.92
481.69	263.08
482.06	263.31
482.42	263.49
482.79	263.74
483.15	264.09
483.52	264.47
483.88	264.84
484.25	265.22
484.61	265.66
484.98	266.10
485.34	266.69
485.71	267.26
486.07	267.84
486.44	268.40
486.80	269.16
487.17	269.93
487.53	270.76
487.90	271.62
488.26	272.57
488.62	273.56
488.99	274.53
489.35	275.59
489.72	276.71
490.08	277.91
490.44	279.15
490.81	280.49
491.17	281.82
491.54	283.32
491.90	284.89
492.26	286.49
492.63	288.23
492.99	289.98
493.36	291.87
493.72	293.88
494.08	296.01
494.45	298.26
494.81	300.56
495.17	302.97
495.54	305.50
495.90	308.19
496.26	311.01
496.63	313.95
496.99	317.05
497.35	320.31
497.72	323.69
498.08	327.21
498.44	330.93
498.80	334.88
499.17	338.94
499.53	343.09
499.89	347.52
500.26	352.01
500.62	356.71
500.98	361.71
501.34	366.84
501.71	372.15
502.07	377.62
502.43	383.30
502.79	389.13
503.16	395.25
503.52	401.51
503.88	407.90
504.24	414.57
504.60	421.49
504.97	428.61
505.33	435.96
505.69	443.69
506.05	451.46
506.41	459.36
506.78	467.54
507.14	476.04
507.50	484.71
507.86	493.74
508.22	502.99
508.59	512.26
508.95	521.79
509.31	531.65
509.67	541.78
510.03	552.03
510.39	562.62
510.75	573.44
511.12	584.42
511.48	595.78
511.84	607.21
512.20	618.73
512.56	630.67
512.92	642.88
513.28	655.28
513.64	667.74
514.00	680.46
514.37	693.43
514.73	706.52
515.09	719.57
515.45	732.90
515.81	746.40
516.17	760.32
516.53	774.46
516.89	788.60
517.25	802.66
517.61	817.13
517.97	831.59
518.33	845.90
518.69	860.66
519.05	875.63
519.41	890.77
519.77	906.23
520.13	921.72
520.49	937.09
520.85	952.36
521.21	967.94
521.57	984.05
521.93	999.66
522.29	1015.97
522.65	1032.16
523.01	1048.29
523.37	1064.22
523.73	1080.30
524.09	1096.37
524.45	1112.66
524.81	1129.29
525.17	1145.96
525.53	1162.68
525.89	1179.64
526.25	1196.38
526.61	1212.67
526.97	1229.34
527.33	1245.76
527.68	1262.20
528.04	1278.57
528.40	1295.05
528.76	1312.14
529.12	1328.73
529.48	1345.71
529.84	1361.52
530.20	1378.23
530.56	1395.06
530.91	1412.44
531.27	1429.13
531.63	1445.59
531.99	1462.08
532.35	1477.97
532.71	1493.90
533.07	1510.09
533.42	1525.90
533.78	1541.89
534.14	1558.06
534.50	1573.37
534.86	1589.16
535.21	1604.30
535.57	1620.06
535.93	1635.49
536.29	1650.18
536.65	1665.07
537.00	1679.63
537.36	1694.97
537.72	1709.25
538.08	1723.72
538.44	1737.44
538.79	1751.26
539.15	1764.62
539.51	1778.21
539.87	1792.41
540.22	1805.98
540.58	1819.70
540.94	1832.82
541.29	1845.47
541.65	1858.05
542.01	1871.10
542.37	1883.45
542.72	1895.81
543.08	1907.58
543.44	1919.92
543.79	1931.01
544.15	1941.97
544.51	1953.54
544.87	1964.50
545.22	1975.37
545.58	1985.57
545.94	1995.27
546.29	2005.08
546.65	2015.05
547.01	2024.28
547.36	2033.04
547.72	2041.46
548.07	2049.32
548.43	2057.45
548.79	2065.45
549.14	2073.13
549.50	2080.47
549.86	2088.08
550.21	2095.36
550.57	2102.67
550.92	2109.35
551.28	2116.47
551.64	2123.56
551.99	2129.89
552.35	2135.94
552.70	2141.91
553.06	2147.81
553.41	2154.13
553.77	2160.17
554.13	2166.20
554.48	2172.34
554.84	2177.84
555.19	2183.10
555.55	2188.27
555.90	2192.74
556.26	2197.65
556.61	2202.25
556.97	2206.62
557.32	2210.65
557.68	2214.70
558.03	2218.91
558.39	2222.39
558.74	2226.91
559.10	2230.79
559.45	2234.51
559.81	2238.79
560.16	2242.64
560.52	2245.95
560.87	2249.38
561.23	2251.94
561.58	2254.78
561.94	2257.24
562.29	2259.53
562.64	2262.31
563.00	2264.76
563.35	2268.40
563.71	2271.65
564.06	2274.84
564.42	2277.75
564.77	2280.41
565.12	2282.94
565.48	2284.84
565.83	2286.88
566.19	2288.32
566.54	2289.17
566.89	2290.33
567.25	2291.04
567.60	2292.40
567.96	2294.16
568.31	2295.01
568.66	2296.16
569.02	2296.77
569.37	2297.14
569.72	2298.00
570.08	2298.15
570.43	2298.15
570.78	2297.55
571.14	2295.94
571.49	2294.47
571.84	2294.11
572.20	2292.95
572.55	2291.65
572.90	2289.92
573.26	2288.62
573.61	2287.02
573.96	2285.36
574.31	2282.44
574.67	2279.45
575.02	2275.84
575.37	2272.30
575.72	2268.58
576.08	2265.14
576.43	2261.85
576.78	2258.23
577.13	2255.02
577.49	2251.81
577.84	2248.50
578.19	2244.72
578.54	2241.20
578.90	2237.19
579.25	2231.65
579.60	2226.74
579.95	2222.02
580.30	2217.13
580.66	2211.79
581.01	2206.74
581.36	2201.72
581.71	2197.64
582.06	2193.25
582.42	2188.91
582.77	2183.73
583.12	2179.17
583.47	2174.67
583.82	2169.90
584.17	2164.70
584.53	2159.17
584.88	2153.59
585.23	2147.80
585.58	2142.27
585.93	2136.75
586.28	2131.79
586.63	2126.82
586.98	2121.87
587.34	2117.03
587.69	2112.16
588.04	2107.06
588.39	2101.39
588.74	2094.94
589.09	2088.71
589.44	2081.99
589.79	2075.80
590.14	2070.23
590.49	2063.66
590.84	2057.08
591.19	2050.96
591.54	2044.65
591.89	2037.55
592.25	2030.92
592.60	2023.79
592.95	2016.33
593.30	2009.07
593.65	2001.58
594.00	1994.48
594.35	1987.11
594.70	1978.93
595.05	1971.87
595.40	1964.58
595.75	1957.16
596.10	1951.08
596.45	1944.43
596.80	1938.27
597.15	1931.85
597.50	1924.95
597.85	1918.50
598.19	1912.19
598.54	1905.21
598.89	1898.48
599.24	1892.46
599.59	1885.89
599.94	1879.73
600.29	1873.42
600.64	1866.72
600.99	1859.34
601.34	1852.55
601.69	1845.55
602.04	1838.73
602.39	1831.48
602.74	1824.74
603.08	1818.07
603.43	1811.44
603.78	1804.23
604.13	1797.05
604.48	1789.78
604.83	1782.88
605.18	1776.09
605.53	1768.06
605.87	1760.02
606.22	1752.86
606.57	1744.96
606.92	1737.57
607.27	1730.47
607.62	1723.75
607.96	1716.56
608.31	1710.11
608.66	1702.58
609.01	1695.22
609.36	1687.91
609.70	1679.80
610.05	1671.77
610.40	1664.25
610.75	1656.00
611.10	1648.28
611.44	1639.80
611.79	1631.72
612.14	1622.96
612.49	1613.73
612.83	1605.29
613.18	1597.12
613.53	1589.06
613.88	1580.50
614.22	1572.17
614.57	1563.50
614.92	1555.39
615.27	1548.07
615.61	1539.72
615.96	1531.59
616.31	1523.84
616.65	1516.42
617.00	1508.80
617.35	1501.12
617.70	1492.64
618.04	1484.01
618.39	1475.84
618.74	1468.36
619.08	1460.24
619.43	1452.74
619.78	1445.87
620.12	1438.77
620.47	1431.29
620.82	1423.12
621.16	1415.64
621.51	1408.02
621.85	1400.37
622.20	1391.82
622.55	1383.36
622.89	1375.54
623.24	1368.00
623.59	1360.58
623.93	1352.94
624.28	1345.85
624.62	1338.37
624.97	1331.27
625.32	1324.49
625.66	1317.42
626.01	1310.18
626.35	1302.69
626.70	1294.86
627.04	1287.17
627.39	1279.34
627.73	1271.92
628.08	1265.05
628.43	1257.94
628.77	1250.60
629.12	1243.08
629.46	1235.90
629.81	1228.37
630.15	1221.06
630.50	1213.60
630.84	1205.54
631.19	1197.67
631.53	1190.07
631.88	1182.43
632.22	1174.71
632.57	1167.36
632.91	1159.88
633.26	1152.47
633.60	1144.96
633.95	1137.86
634.29	1130.73
634.64	1124.03
634.98	1116.73
635.32	1109.45
635.67	1102.77
636.01	1096.24
636.36	1089.45
636.70	1082.92
637.05	1076.44
637.39	1070.06
637.73	1063.60
638.08	1057.72
638.42	1051.76
638.77	1045.33
639.11	1038.82
639.45	1032.47
639.80	1025.85
640.14	1019.46
640.49	1012.93
640.83	1006.72
641.17	1000.53
641.52	994.27
641.86	987.86
642.20	982.00
642.55	975.60
642.89	969.06
643.23	962.43
643.58	956.69
643.92	950.53
644.26	944.49
644.61	938.42
644.95	932.46
645.29	925.80
645.64	919.09
645.98	912.79
646.32	906.88
646.66	900.88
647.01	895.12
647.35	889.44
647.69	883.54
648.04	877.97
648.38	872.19
648.72	866.23
649.06	860.22
649.41	854.34
649.75	848.49
650.09	842.57
650.43	836.72
650.78	830.59
651.12	824.63
651.46	818.85
651.80	813.13
652.14	807.71
652.49	802.42
652.83	797.20
653.17	791.58
653.51	785.94
653.85	780.49
654.20	774.84
654.54	768.80
654.88	763.09
655.22	757.20
655.56	751.44
655.90	745.85
656.25	740.54
656.59	735.17
656.93	730.10
657.27	724.98
657.61	719.56
657.95	714.41
658.29	709.30
658.64	704.07
658.98	698.71
659.32	693.27
659.66	688.04
660.00	682.83
660.34	677.88
660.68	672.92
661.02	667.90
661.36	663.16
661.70	658.58
662.05	654.23
662.39	649.90
662.73	645.45
663.07	641.08
663.41	636.65
663.75	632.15
664.09	627.61
664.43	623.27
664.77	619.15
665.11	614.92
665.45	610.82
665.79	606.75
666.13	602.70
666.47	598.55
666.81	594.30
667.15	590.13
667.49	586.16
667.83	582.33
668.17	578.33
668.51	574.30
668.85	570.30
669.19	566.40
669.53	562.61
669.87	558.79
670.21	555.15
670.55	551.50
670.89	548.06
671.23	544.56
671.57	541.00
671.91	537.50
672.25	533.98
672.58	530.52
672.92	527.02
673.26	523.76
673.60	520.66
673.94	517.58
674.28	514.60
674.62	511.63
674.96	508.53
675.30	505.67
675.64	502.75
675.97	500.00
676.31	497.13
676.65	494.14
676.99	491.40
677.33	488.53
677.67	485.67
678.01	482.65
678.34	479.67
678.68	476.87
679.02	474.07
679.36	471.28
679.70	468.46
680.04	465.75
680.37	462.91
680.71	460.10
681.05	457.43
681.39	454.71
681.73	452.05
682.06	449.50
682.40	446.96
682.74	444.35
683.08	441.72
683.42	439.10
683.75	436.63
684.09	434.04
684.43	431.55
684.77	429.12
685.10	426.75
685.44	424.39
685.78	422.01
686.12	419.73
686.45	417.44
686.79	415.16
687.13	412.98
687.46	410.80
687.80	408.63
688.14	406.46
688.48	404.42
688.81	402.22
689.15	400.04
689.49	397.88
689.82	395.81
690.16	393.75
690.50	391.85
690.83	389.90
691.17	387.93
691.51	386.06
691.84	384.22
692.18	382.33
692.52	380.40
692.85	378.52
693.19	376.64
693.52	374.83
693.86	373.04
694.20	371.24
694.53	369.48
694.87	367.60
695.21	365.83
695.54	364.00
695.88	362.25
696.21	360.56
696.55	358.92
696.88	357.27
697.22	355.64
697.56	354.00
697.89	352.41
698.23	350.84
698.56	349.24
698.90	347.65
699.23	346.07
699.57	344.51
699.90	342.96
700.24	341.43
700.58	339.93
700.91	338.47
701.25	337.00
701.58	335.62
701.92	334.30
702.25	332.92
702.59	331.57
702.92	330.27
703.26	328.94
703.59	327.65
703.93	326.44
704.26	325.19
704.60	323.86
704.93	322.57
705.26	321.29
705.60	320.07
705.93	318.90
706.27	317.76
706.60	316.69
706.94	315.62
707.27	314.48
707.61	313.35
707.94	312.27
708.27	311.20
708.61	310.07
708.94	308.99
709.28	308.00
709.61	307.05
709.94	306.07
710.28	305.06
710.61	304.06
710.95	303.01
711.28	302.12
711.61	301.21
711.95	300.29
712.28	299.36
712.61	298.42
712.95	297.51
713.28	296.63
713.61	295.72
713.95	294.76
714.28	293.92
714.61	293.11
714.95	292.28
715.28	291.38
715.61	290.55
715.95	289.71
716.28	288.90
716.61	288.02
716.95	287.20
717.28	286.50
717.61	285.71
717.94	284.95
718.28	284.12
718.61	283.34
718.94	282.62
719.27	281.91
719.61	281.24
719.94	280.54
720.27	279.82
720.60	279.16
720.94	278.58
721.27	277.98
721.60	277.39
721.93	276.82
722.27	276.29
722.60	275.74
722.93	275.17
723.26	274.60
723.59	274.08
723.93	273.53
724.26	272.94
724.59	272.38
724.92	271.86
725.25	271.35
725.59	270.85
725.92	270.33
726.25	269.86
726.58	269.36
726.91	268.87
727.24	268.43
727.57	267.99
727.91	267.46
728.24	266.99
728.57	266.50
728.90	266.01
729.23	265.55
729.56	265.13
729.89	264.67
730.22	264.17
730.55	263.68
730.89	263.22
731.22	262.78
731.55	262.36
731.88	261.95
732.21	261.54
732.54	261.12
732.87	260.72
733.20	260.29
733.53	259.90
733.86	259.57
734.19	259.16
734.52	258.78
734.85	258.49
735.18	258.07
735.51	257.70
735.84	257.31
736.17	256.95
736.50	256.54
736.83	256.31
737.16	256.03
737.49	255.72
737.82	255.44
738.15	255.12
738.48	254.81
738.81	254.47
739.14	254.13
739.47	253.85
739.80	253.54
740.13	253.28
740.46	252.96
740.79	252.59
741.12	252.34
741.45	252.01
741.78	251.66
742.11	251.41
742.44	251.07
742.77	250.79
743.10	250.50
743.43	250.20
743.75	249.80
744.08	249.65
744.41	249.34
744.74	249.03
745.07	248.77
745.40	248.52
745.73	248.27
746.06	248.00
746.39	247.73
746.71	247.48
747.04	247.17
747.37	246.89
747.70	246.68
748.03	246.38
748.36	246.20
748.68	245.94
749.01	245.67
749.34	245.49
749.67	245.27
750.00	245.02
750.33	244.84
750.65	244.61
750.98	244.24
751.31	244.05
751.64	243.87
751.97	243.68
752.29	243.43
752.62	243.18
752.95	242.96
753.28	242.72
753.60	242.52
753.93	242.36
754.26	242.19
754.59	241.91
754.91	241.74
755.24	241.49
755.57	241.28
755.90	241.09
756.22	240.86
756.55	240.65
756.88	240.48
757.20	240.26
757.53	240.06
757.86	239.89
758.19	239.74
758.51	239.54
758.84	239.32
759.17	239.14
759.49	238.97
759.82	238.85
760.15	238.72
760.47	238.54
760.80	238.34
761.13	238.20
761.45	238.04
761.78	237.84
762.11	237.68
762.43	237.55
762.76	237.41
763.08	237.31
763.41	237.18
763.74	237.04
764.06	236.88
764.39	236.75
764.71	236.59
765.04	236.44
765.37	236.28
765.69	236.16
766.02	236.04
766.34	235.93
766.67	235.78
767.00	235.65
767.32	235.58
767.65	235.51
767.97	235.40
768.30	235.29
768.62	235.24
768.95	235.11
769.27	234.97
769.60	234.88
769.92	234.75
770.25	234.60
770.57	234.47
770.90	234.40
771.22	234.33
771.55	234.25
771.87	234.17
772.20	234.07
772.52	234.05
772.85	234.08
773.17	234.00
773.50	233.90
773.82	233.79
774.15	233.67
774.47	233.55
774.80	233.49
775.12	233.44
775.45	233.34
775.77	233.31
776.09	233.26
776.42	233.17
776.74	233.15
777.07	233.09
777.39	233.03
777.72	232.97
778.04	232.88
778.36	232.77
778.69	232.68
779.01	232.66
779.33	232.48
779.66	232.30
779.98	232.23
780.31	232.19
780.63	232.18
780.95	232.15
781.28	232.10
781.60	231.99
781.92	231.94
782.25	231.89
782.57	231.81
782.89	231.77
783.22	231.72
783.54	231.63
783.86	231.59
784.19	231.56
784.51	231.50
784.83	231.44
785.16	231.42
785.48	231.40
785.80	231.32
786.12	231.32
786.45	231.28
786.77	231.25
787.09	231.18
787.42	231.10
787.74	231.06
788.06	231.01
788.38	230.96
788.71	230.91
789.03	230.88
789.35	230.84
789.67	230.80
789.99	230.75
790.32	230.69
790.64	230.67
790.96	230.71
791.28	230.65
791.61	230.63
791.93	230.63
792.25	230.56
792.57	230.60
792.89	230.52
793.21	230.47
793.54	230.45
793.86	230.41
794.18	230.34
794.50	230.27
794.82	230.20
795.14	230.21
795.47	230.20
795.79	230.13
796.11	230.07
796.43	230.03
796.75	230.00
797.07	229.97
797.39	229.92
797.71	229.78
798.04	229.75
798.36	229.70
798.68	229.65
799.00	229.62
799.32	229.55
799.64	229.53
799.96	229.51
800.28	229.48
800.60	229.43
800.92	229.45
801.24	229.40
801.56	229.38
801.89	229.31
802.21	229.22
802.53	229.18
802.85	229.16
803.17	229.14
803.49	229.08
803.81	229.06
804.13	229.04
804.45	229.03
804.77	228.99
805.09	228.94
805.41	228.92
805.73	228.89
806.05	228.83
806.37	228.81
806.69	228.78
807.01	228.72
807.33	228.71
807.65	228.64
807.97	228.67
808.28	228.64
808.60	228.63
808.92	228.64
809.24	228.66
809.56	228.64
809.88	228.59
810.20	228.59
810.52	228.58
810.84	228.53
811.16	228.49
811.48	228.41
811.80	228.42
812.12	228.38
812.43	228.37
812.75	228.41
813.07	228.38
813.39	228.36
813.71	228.32
814.03	228.29
814.35	228.30
814.67	228.25
814.98	228.26
815.30	228.26
815.62	228.24
815.94	228.17
816.26	228.20
816.58	228.17
816.89	228.16
817.21	228.12
817.53	228.14
817.85	228.13
818.17	228.17
818.48	228.14
818.80	228.14
819.12	228.10
819.44	228.02
819.76	228.01
820.07	228.04
820.39	228.07
820.71	228.08
821.03	228.09
821.34	228.06
821.66	228.06
821.98	228.03
822.30	228.01
822.61	228.08
822.93	228.04
823.25	228.03
823.57	228.02
823.88	228.04
824.20	228.00
824.52	228.01
824.83	228.02
825.15	228.01
825.47	228.00
825.79	228.01
826.10	228.03
826.42	228.02
826.74	227.97
827.05	227.93
827.37	227.90
827.69	227.88
828.00	227.86
828.32	227.84
828.64	227.86
828.95	227.91
829.27	227.85
829.58	227.82
829.90	227.82
830.22	227.80
830.53	227.75
830.85	227.74
831.17	227.69
831.48	227.65
831.80	227.65
832.11	227.63
832.43	227.60
832.75	227.55
833.06	227.56
833.38	227.55
833.69	227.55
834.01	227.56
834.32	227.53
834.64	227.50
834.96	227.48
835.27	227.45
835.59	227.41
835.90	227.37
836.22	227.36
836.53	227.33
836.85	227.28
837.16	227.35
837.48	227.32
837.79	227.34
838.11	227.31
838.42	227.27
838.74	227.22
839.05	227.20
839.37	227.17
839.68	227.09
840.00	227.04
840.31	227.03
840.63	226.99
840.94	226.99
841.26	226.96
841.57	226.91
841.88	226.89
842.20	226.82
842.51	226.78
842.83	226.75
843.14	226.81
843.46	226.81
843.77	226.74
844.08	226.72
844.40	226.69
844.71	226.67
845.03	226.66
845.34	226.63
845.65	226.61
845.97	226.64
846.28	226.68
846.60	226.66
846.91	226.63
847.22	226.59
847.54	226.58
847.85	226.58
848.16	226.59
848.48	226.57
848.79	226.63
849.10	226.65
849.42	226.67
849.73	226.61
850.04	226.61
850.36	226.56
850.67	226.60
850.98	226.61
851.30	226.60
851.61	226.60
851.92	226.59
852.23	226.64
852.55	226.63
852.86	226.63
853.17	226.66
853.49	226.70
853.80	226.78
854.11	226.77
854.42	226.77
854.74	226.78
855.05	226.78
855.36	226.72
855.67	226.73
855.99	226.73
856.30	226.83
856.61	226.82
856.92	226.85
857.23	226.84
857.55	226.86
857.86	226.86
858.17	226.90
858.48	226.92
858.79	226.90
859.11	226.93
859.42	226.90
859.73	226.91
860.04	226.91
860.35	226.86
860.66	226.86
860.98	226.86
861.29	226.86
861.60	226.86
861.91	226.88
862.22	226.90
862.53	226.89
862.84	226.79
863.16	226.84
863.47	226.84
863.78	226.82
864.09	226.81
864.40	226.82
864.71	226.80
865.02	226.82
865.33	226.82
865.64	226.78
865.95	226.83
866.27	226.88
866.58	226.86
866.89	226.90
867.20	226.93
867.51	226.93
867.82	226.94
868.13	226.98
868.44	226.97
868.75	226.97
869.06	226.96
869.37	226.97
869.68	226.94
869.99	226.96
870.30	226.98
870.61	226.99
870.92	226.99
871.23	227.00
871.54	227.05
871.85	227.06
872.16	227.08
872.47	227.06
872.78	227.00
873.09	227.00
873.40	226.96
873.71	226.94
874.02	226.96
874.33	226.93
874.64	226.87
874.95	226.87
875.26	226.85
875.56	226.83
875.87	226.80
876.18	226.76
876.49	226.86
876.80	226.84
877.11	226.77
877.42	226.77
877.73	226.75
878.04	226.67
878.35	226.68
878.66	226.65
878.96	226.64
879.27	226.61
879.58	226.60
879.89	226.60
880.20	226.60
880.51	226.56
880.82	226.53
881.12	226.53
881.43	226.50
881.74	226.46
882.05	226.43
882.36	226.43
882.67	226.46
882.97	226.31
883.28	226.30
883.59	226.31
883.90	226.29
884.21	226.29
884.51	226.28
884.82	226.19
885.13	226.19
885.44	226.18
885.74	226.16
886.05	226.14
886.36	226.10
886.67	226.08
886.98	226.13
887.28	226.18
887.59	226.19
887.90	226.21
888.20	226.18
888.51	226.22
888.82	226.21
889.13	226.19
889.43	226.27
889.74	226.25
890.05	226.22
890.35	226.23
890.66	226.22
890.97	226.19
891.28	226.22
891.58	226.22
891.89	226.21
892.20	226.19
892.50	226.20
892.81	226.19
893.12	226.19
893.42	226.18
893.73	226.17
894.04	226.17
894.34	226.15
894.65	226.16
894.95	226.15
895.26	226.16
895.57	226.19
895.87	226.11
896.18	226.15
896.48	226.17
896.79	226.20
897.10	226.21
897.40	226.25
897.71	226.25
898.01	226.25
898.32	226.28
898.63	226.33
898.93	226.33
899.24	226.34
899.54	226.35
899.85	226.31
900.15	226.30
900.46	226.33
900.76	226.35
901.07	226.37
901.38	226.41
901.68	226.41
901.99	226.38
902.29	226.39
902.60	226.38
902.90	226.41
903.21	226.43
903.51	226.42
903.82	226.46
904.12	226.48
904.43	226.49
904.73	226.53
905.03	226.53
905.34	226.63
905.64	226.64
905.95	226.63
906.25	226.67
906.56	226.67
906.86	226.65
907.17	226.64
907.47	226.67
907.77	226.63
908.08	226.65
908.38	226.67
908.69	226.68
908.99	226.71
909.30	226.67
909.60	226.65
909.90	226.65
910.21	226.65
910.51	226.63
910.81	226.61
911.12	226.56
911.42	226.56
911.73	226.44
912.03	226.44
912.33	226.46
912.64	226.43
912.94	226.41
913.24	226.37
913.55	226.35
913.85	226.34
914.15	226.36
914.46	226.36
914.76	226.32
915.06	226.33
915.37	226.27
915.67	226.31
915.97	226.25
916.27	226.23
916.58	226.15
916.88	226.16
917.18	226.14
917.49	226.18
917.79	226.18
918.09	226.20
918.39	226.23
918.70	226.19
919.00	226.17
919.30	226.20
919.60	226.22
919.91	226.22
920.21	226.22
920.51	226.21
920.81	226.20
921.12	226.27
921.42	226.23
921.72	226.24
922.02	226.23
922.32	226.25
922.63	226.26
922.93	226.34
923.23	226.35
923.53	226.36
923.83	226.31
924.13	226.30
924.44	226.31
924.74	226.29
925.04	226.34
925.34	226.34
925.64	226.33
925.94	226.35
926.24	226.37
926.55	226.36
926.85	226.35
927.15	226.34
927.45	226.30
927.75	226.28
928.05	226.29
928.35	226.25
928.65	226.29
928.95	226.29
929.26	226.26
929.56	226.26
929.86	226.27
930.16	226.29
930.46	226.31
930.76	226.28
931.06	226.26
931.36	226.20
931.66	226.22
931.96	226.22
932.26	226.20
932.56	226.17
932.86	226.18
933.16	226.18
933.46	226.19
933.76	226.19
934.06	226.26
934.36	226.28
934.66	226.32
934.96	226.29
935.26	226.31
935.56	226.36
935.86	226.35
936.16	226.36
936.46	226.33
936.76	226.31
937.06	226.33
937.36	226.35
937.66	226.39
937.96	226.39
938.26	226.38
938.56	226.39
938.86	226.41
939.16	226.41
939.46	226.43
939.76	226.42
940.06	226.42
940.35	226.38
940.65	226.34
940.95	226.34
941.25	226.30
941.55	226.29
941.85	226.30
942.15	226.30
942.45	226.31
942.75	226.30
943.04	226.33
943.34	226.34
943.64	226.33
943.94	226.35
944.24	226.36
944.54	226.39
944.84	226.39
945.13	226.40
945.43	226.41
945.73	226.41
946.03	226.43
946.33	226.42
946.62	226.42
946.92	226.42
947.22	226.43
947.52	226.45
947.82	226.45
948.11	226.42
948.41	226.41
948.71	226.38
949.01	226.40
949.31	226.35
949.60	226.32
949.90	226.32
950.20	226.28
950.50	226.26
950.79	226.23
951.09	226.26
951.39	226.23
951.69	226.19
951.98	226.20
952.28	226.15
952.58	226.16
952.87	226.16
953.17	226.15
953.47	226.13
953.76	226.12
954.06	226.09
954.36	226.05
954.66	226.03
954.95	226.06
955.25	226.06
955.55	226.04
955.84	226.03
956.14	226.03
956.44	226.02
956.73	225.99
957.03	225.98
957.32	225.93
957.62	225.93
957.92	225.96
958.21	225.91
958.51	226.03
958.81	226.04
959.10	226.03
959.40	226.04
959.69	226.04
959.99	226.06
960.29	226.08
960.58	226.06
960.88	226.08
961.17	226.06
961.47	226.05
961.76	226.08
962.06	226.09
962.36	226.06
962.65	226.06
962.95	226.08
963.24	226.05
963.54	226.08
963.83	226.07
964.13	226.03
964.42	226.01
964.72	225.93
965.01	225.93
965.31	225.95
965.60	225.92
965.90	225.95
966.19	225.94
966.49	225.92
966.78	225.91
967.08	225.91
967.37	225.93
967.67	225.90
967.96	225.94
968.26	225.97
968.55	226.01
968.85	226.02
969.14	226.06
969.43	226.08
969.73	226.02
970.02	226.06
970.32	226.09
970.61	226.11
970.91	226.10
971.20	226.08
971.49	226.07
971.79	226.11
972.08	226.07
972.38	226.09
972.67	226.14
972.96	226.20
973.26	226.17
973.55	226.19
973.85	226.22
974.14	226.20
974.43	226.16
974.73	226.13
975.02	226.10
975.31	226.08
975.61	226.11
975.90	226.14
976.19	226.14
976.49	226.15
976.78	226.15
977.07	226.15
977.37	226.18
977.66	226.20
977.95	226.20
978.24	226.24
978.54	226.26
978.83	226.23
979.12	226.22
979.42	226.26
979.71	226.24
980.00	226.23
980.29	226.24
980.59	226.25
980.88	226.27
981.17	226.29
981.46	226.30
981.76	226.28
982.05	226.31
982.34	226.28
982.63	226.26
982.93	226.26
983.22	226.28
983.51	226.32
983.80	226.36
984.09	226.38
984.39	226.36
984.68	226.34
984.97	226.34
985.26	226.33
985.55	226.34
985.85	226.35
986.14	226.36
986.43	226.37
986.72	226.36
987.01	226.34
987.30	226.33
987.59	226.33
987.89	226.35
988.18	226.31
988.47	226.31
988.76	226.33
989.05	226.31
989.34	226.26
989.63	226.24
989.92	226.16
990.22	226.12
990.51	226.05
990.80	226.04
991.09	226.06
991.38	226.08
991.67	226.07
991.96	226.01
992.25	226.00
992.54	225.94
992.83	225.93
993.12	225.91
993.41	225.92
993.70	225.96
993.99	225.95
994.28	225.95
994.58	225.96
994.87	225.93
995.16	225.92
995.45	225.95
995.74	225.89
996.03	225.93
996.32	225.96
996.61	225.98
996.90	225.98
997.19	225.96
997.48	225.95
997.77	225.91
998.06	225.93
998.34	225.94
998.63	225.96
998.92	225.98
999.21	225.98
999.50	225.96
999.79	225.93
1000.08	225.91
1000.37	225.94
1000.66	225.93
1000.95	225.99
1001.24	226.00
1001.53	225.98
1001.82	225.98
1002.11	225.96
1002.40	225.95
1002.68	225.99
1002.97	226.05
1003.26	226.05
1003.55	226.03
1003.84	226.06
1004.13	226.12
1004.42	226.14
1004.71	226.15
1004.99	226.13
1005.28	226.18
1005.57	226.22
1005.86	226.21
1006.15	226.25
1006.44	226.25
1006.72	226.30
1007.01	226.26
1007.30	226.28
1007.59	226.30
1007.88	226.36
1008.17	226.39
1008.45	226.36
1008.74	226.33
1009.03	226.30
1009.32	226.32
1009.60	226.34
1009.89	226.35
1010.18	226.32
1010.47	226.31
1010.76	226.34
1011.04	226.37
1011.33	226.38
1011.62	226.42
1011.91	226.43
1012.19	226.45
1012.48	226.45
1012.77	226.40
1013.05	226.44
1013.34	226.45
1013.63	226.47
1013.92	226.47
1014.20	226.45
1014.49	226.49
1014.78	226.53
1015.06	226.52
1015.35	226.51
1015.64	226.53
1015.92	226.52
1016.21	226.53
1016.50	226.54
1016.78	226.52
1017.07	226.52
1017.36	226.49
1017.64	226.44
1017.93	226.45
1018.22	226.41
1018.50	226.44
1018.79	226.48
1019.08	226.45
1019.36	226.45
1019.65	226.40
1019.93	226.39
1020.22	226.39
1020.51	226.44
1020.79	226.42
1021.08	226.07
1021.36	226.78
1021.65	226.74
1021.94	226.34
1022.22	226.42
1022.51	225.39
1022.79	226.58
1023.08	226.19
1023.36	227.44
1023.65	226.60
>>>>>End Processed Spectral Data<<<<<
