SpectraSuite Data File
++++++++++++++++++++++++++++++++++++
Date: Fri Feb 01 15:45:19 EST 2013
User: group
Dark Spectrum Present: No
Reference Spectrum Present: No
Number of Sampled Component Spectra: 1
Spectrometers: USB2E7196
Integration Time (usec): 35000 (USB2E7196)
Spectra Averaged: 100 (USB2E7196)
Boxcar Smoothing: 10 (USB2E7196)
Correct for Electrical Dark: No (USB2E7196)
Strobe/Lamp Enabled: No (USB2E7196)
Correct for Detector Non-linearity: No (USB2E7196)
Correct for Stray Light: No (USB2E7196)
Number of Pixels in Processed Spectrum: 2048
>>>>>Begin Processed Spectral Data<<<<<
339.09	0.00
339.48	214.78
339.86	216.70
340.24	218.17
340.63	219.20
341.01	221.90
341.39	222.22
341.78	223.39
342.16	224.75
342.54	224.96
342.93	213.42
343.31	224.22
343.69	224.76
344.07	225.22
344.46	225.66
344.84	226.06
345.22	226.32
345.60	226.55
345.99	226.75
346.37	226.88
346.75	226.97
347.13	227.06
347.52	227.11
347.90	227.20
348.28	227.25
348.66	227.29
349.05	227.31
349.43	227.36
349.81	227.43
350.19	227.47
350.57	227.53
350.96	227.60
351.34	227.67
351.72	227.74
352.10	227.85
352.48	227.91
352.87	227.94
353.25	227.99
353.63	228.08
354.01	228.11
354.39	228.16
354.77	228.27
355.15	228.34
355.54	228.39
355.92	228.39
356.30	228.44
356.68	228.56
357.06	228.66
357.44	228.72
357.82	228.76
358.20	228.82
358.58	228.87
358.97	228.93
359.35	228.94
359.73	229.06
360.11	229.06
360.49	229.11
360.87	229.16
361.25	229.21
361.63	229.27
362.01	229.33
362.39	229.37
362.77	229.38
363.15	229.41
363.53	229.44
363.91	229.49
364.29	229.53
364.67	229.43
365.05	229.42
365.43	229.40
365.81	229.42
366.19	229.42
366.57	229.43
366.95	229.37
367.33	229.36
367.71	229.30
368.09	229.32
368.47	229.28
368.85	229.25
369.23	229.20
369.61	229.12
369.99	229.06
370.37	229.00
370.75	229.02
371.13	228.94
371.51	228.85
371.89	228.78
372.27	228.72
372.65	228.66
373.03	228.58
373.41	228.51
373.78	228.44
374.16	228.32
374.54	228.25
374.92	228.19
375.30	228.15
375.68	228.09
376.06	228.00
376.44	227.90
376.82	227.81
377.19	227.77
377.57	227.69
377.95	227.61
378.33	227.57
378.71	227.42
379.09	227.37
379.47	227.34
379.84	227.26
380.22	227.18
380.60	227.11
380.98	227.04
381.36	226.96
381.73	226.91
382.11	226.88
382.49	226.80
382.87	226.73
383.25	226.66
383.62	226.73
384.00	226.66
384.38	226.60
384.76	226.58
385.13	226.55
385.51	226.49
385.89	226.47
386.27	226.41
386.64	226.37
387.02	226.36
387.40	226.30
387.78	226.27
388.15	226.24
388.53	226.21
388.91	226.21
389.29	226.20
389.66	226.15
390.04	226.13
390.42	226.12
390.79	226.12
391.17	226.12
391.55	225.99
391.92	226.02
392.30	226.07
392.68	226.04
393.05	226.06
393.43	226.09
393.81	226.09
394.18	226.09
394.56	226.11
394.94	226.12
395.31	226.12
395.69	226.19
396.06	226.26
396.44	226.32
396.82	226.35
397.19	226.45
397.57	226.53
397.95	226.60
398.32	226.63
398.70	226.73
399.07	226.80
399.45	226.87
399.82	226.92
400.20	226.98
400.58	227.10
400.95	227.14
401.33	227.23
401.70	227.40
402.08	227.54
402.45	227.66
402.83	227.80
403.20	227.95
403.58	228.05
403.95	228.19
404.33	228.34
404.71	228.43
405.08	228.59
405.46	228.73
405.83	228.90
406.21	229.05
406.58	229.17
406.96	229.32
407.33	229.53
407.70	229.72
408.08	229.99
408.45	230.19
408.83	230.41
409.20	230.64
409.58	230.80
409.95	231.03
410.33	231.31
410.70	231.54
411.08	231.88
411.45	232.19
411.82	232.47
412.20	232.82
412.57	233.25
412.95	233.56
413.32	233.96
413.69	234.33
414.07	234.78
414.44	235.26
414.82	235.74
415.19	236.24
415.56	236.80
415.94	237.33
416.31	237.95
416.68	238.60
417.06	239.29
417.43	239.99
417.81	240.72
418.18	241.45
418.55	242.28
418.93	243.09
419.30	243.96
419.67	244.90
420.04	245.84
420.42	246.84
420.79	248.00
421.16	249.13
421.54	250.30
421.91	251.51
422.28	252.79
422.66	254.15
423.03	255.42
423.40	256.78
423.77	258.17
424.15	259.57
424.52	261.03
424.89	262.65
425.26	264.19
425.64	265.63
426.01	267.26
426.38	268.92
426.75	270.59
427.13	272.33
427.50	274.13
427.87	275.98
428.24	277.81
428.61	279.57
428.99	281.49
429.36	283.65
429.73	285.73
430.10	287.74
430.47	289.77
430.85	291.91
431.22	294.15
431.59	296.52
431.96	298.82
432.33	301.34
432.70	303.74
433.08	306.57
433.45	309.24
433.82	311.81
434.19	314.69
434.56	317.50
434.93	320.12
435.30	322.76
435.68	325.68
436.05	328.58
436.42	331.35
436.79	333.91
437.16	336.60
437.53	339.47
437.90	342.28
438.27	345.03
438.64	347.89
439.01	350.44
439.38	352.67
439.75	354.82
440.13	357.27
440.50	359.59
440.87	361.41
441.24	363.34
441.61	365.52
441.98	367.00
442.35	368.79
442.72	370.67
443.09	372.50
443.46	373.51
443.83	374.09
444.20	374.60
444.57	375.45
444.94	375.69
445.31	375.99
445.68	376.35
446.05	376.46
446.42	376.06
446.79	375.70
447.16	375.28
447.53	374.94
447.90	373.80
448.27	372.61
448.64	371.05
449.01	369.95
449.37	367.98
449.74	366.06
450.11	363.84
450.48	361.41
450.85	358.88
451.22	356.73
451.59	354.70
451.96	352.77
452.33	350.12
452.70	347.75
453.07	344.88
453.43	341.94
453.80	339.14
454.17	336.51
454.54	333.94
454.91	331.19
455.28	328.51
455.65	326.03
456.02	323.56
456.38	321.41
456.75	318.72
457.12	316.50
457.49	314.35
457.86	312.17
458.23	310.28
458.59	308.21
458.96	306.11
459.33	304.25
459.70	302.37
460.07	300.86
460.43	299.16
460.80	297.54
461.17	296.11
461.54	294.56
461.91	293.07
462.27	291.63
462.64	290.40
463.01	289.06
463.38	287.75
463.74	286.42
464.11	285.26
464.48	284.24
464.85	283.10
465.21	282.21
465.58	281.28
465.95	280.17
466.32	279.28
466.68	278.35
467.05	277.44
467.42	276.59
467.78	275.68
468.15	274.78
468.52	274.16
468.88	273.32
469.25	272.59
469.62	272.01
469.98	271.35
470.35	270.72
470.72	270.11
471.08	269.50
471.45	268.93
471.82	268.40
472.18	267.77
472.55	267.35
472.92	266.79
473.28	266.34
473.65	265.91
474.02	265.47
474.38	265.11
474.75	264.77
475.11	264.39
475.48	264.13
475.85	263.93
476.21	263.68
476.58	263.51
476.94	263.38
477.31	263.14
477.67	262.96
478.04	262.87
478.41	262.81
478.77	262.85
479.14	262.83
479.50	262.84
479.87	262.91
480.23	262.99
480.60	263.07
480.96	263.16
481.33	263.34
481.69	263.53
482.06	263.73
482.42	263.94
482.79	264.23
483.15	264.55
483.52	264.94
483.88	265.28
484.25	265.68
484.61	266.11
484.98	266.60
485.34	267.17
485.71	267.78
486.07	268.37
486.44	268.92
486.80	269.62
487.17	270.33
487.53	271.18
487.90	272.01
488.26	272.97
488.62	273.94
488.99	274.90
489.35	275.94
489.72	277.09
490.08	278.30
490.44	279.52
490.81	280.82
491.17	282.16
491.54	283.66
491.90	285.22
492.26	286.84
492.63	288.61
492.99	290.37
493.36	292.19
493.72	294.25
494.08	296.36
494.45	298.59
494.81	300.96
495.17	303.35
495.54	305.95
495.90	308.64
496.26	311.46
496.63	314.42
496.99	317.51
497.35	320.77
497.72	324.14
498.08	327.66
498.44	331.32
498.80	335.25
499.17	339.27
499.53	343.43
499.89	347.81
500.26	352.29
500.62	356.95
500.98	362.00
501.34	367.07
501.71	372.39
502.07	377.82
502.43	383.43
502.79	389.26
503.16	395.35
503.52	401.67
503.88	408.09
504.24	414.74
504.60	421.66
504.97	428.79
505.33	436.16
505.69	443.85
506.05	451.61
506.41	459.47
506.78	467.68
507.14	476.17
507.50	484.92
507.86	493.91
508.22	503.11
508.59	512.26
508.95	521.87
509.31	531.72
509.67	541.82
510.03	552.18
510.39	562.72
510.75	573.51
511.12	584.44
511.48	595.70
511.84	607.12
512.20	618.66
512.56	630.64
512.92	642.78
513.28	655.16
513.64	667.64
514.00	680.38
514.37	693.27
514.73	706.27
515.09	719.23
515.45	732.64
515.81	746.17
516.17	760.21
516.53	774.32
516.89	788.46
517.25	802.67
517.61	817.04
517.97	831.55
518.33	846.01
518.69	860.79
519.05	875.82
519.41	890.94
519.77	906.51
520.13	921.99
520.49	937.35
520.85	952.72
521.21	968.49
521.57	984.73
521.93	1000.59
522.29	1017.03
522.65	1033.33
523.01	1049.44
523.37	1065.67
523.73	1081.84
524.09	1097.94
524.45	1114.27
524.81	1130.93
525.17	1147.71
525.53	1164.64
525.89	1181.39
526.25	1198.13
526.61	1214.48
526.97	1231.29
527.33	1247.74
527.68	1264.40
528.04	1281.03
528.40	1297.73
528.76	1314.71
529.12	1331.36
529.48	1348.14
529.84	1364.16
530.20	1380.81
530.56	1397.83
530.91	1415.15
531.27	1431.87
531.63	1448.31
531.99	1464.89
532.35	1480.87
532.71	1496.72
533.07	1513.00
533.42	1528.92
533.78	1545.05
534.14	1561.40
534.50	1576.75
534.86	1592.64
535.21	1607.68
535.57	1623.52
535.93	1638.97
536.29	1653.82
536.65	1668.85
537.00	1683.75
537.36	1699.06
537.72	1713.69
538.08	1728.05
538.44	1741.86
538.79	1755.76
539.15	1769.46
539.51	1783.31
539.87	1797.66
540.22	1811.56
540.58	1825.34
540.94	1838.77
541.29	1851.58
541.65	1864.16
542.01	1877.53
542.37	1889.78
542.72	1902.29
543.08	1914.17
543.44	1926.51
543.79	1937.82
544.15	1948.73
544.51	1960.24
544.87	1971.17
545.22	1981.78
545.58	1992.08
545.94	2001.81
546.29	2011.75
546.65	2021.56
547.01	2030.75
547.36	2039.52
547.72	2047.87
548.07	2055.61
548.43	2063.70
548.79	2071.83
549.14	2079.47
549.50	2086.62
549.86	2094.39
550.21	2101.76
550.57	2108.74
550.92	2115.32
551.28	2122.26
551.64	2129.45
551.99	2135.92
552.35	2142.01
552.70	2148.20
553.06	2154.13
553.41	2160.46
553.77	2166.42
554.13	2172.45
554.48	2178.58
554.84	2183.85
555.19	2189.09
555.55	2194.21
555.90	2198.79
556.26	2203.59
556.61	2208.31
556.97	2212.79
557.32	2216.88
557.68	2220.91
558.03	2225.26
558.39	2228.94
558.74	2233.61
559.10	2237.30
559.45	2240.97
559.81	2245.36
560.16	2249.40
560.52	2252.52
560.87	2256.07
561.23	2258.74
561.58	2261.85
561.94	2264.39
562.29	2266.83
562.64	2269.61
563.00	2272.20
563.35	2275.67
563.71	2278.87
564.06	2282.02
564.42	2284.59
564.77	2287.05
565.12	2289.28
565.48	2291.19
565.83	2293.02
566.19	2294.28
566.54	2295.31
566.89	2296.37
567.25	2296.83
567.60	2298.02
567.96	2299.74
568.31	2300.47
568.66	2301.46
569.02	2301.95
569.37	2302.02
569.72	2302.96
570.08	2303.13
570.43	2303.15
570.78	2302.45
571.14	2300.99
571.49	2299.60
571.84	2299.35
572.20	2298.16
572.55	2297.08
572.90	2295.58
573.26	2294.27
573.61	2292.67
573.96	2290.83
574.31	2287.88
574.67	2285.08
575.02	2281.43
575.37	2278.08
575.72	2274.17
576.08	2270.90
576.43	2267.59
576.78	2264.06
577.13	2260.86
577.49	2257.71
577.84	2254.19
578.19	2250.61
578.54	2246.87
578.90	2242.62
579.25	2237.02
579.60	2232.09
579.95	2227.15
580.30	2222.03
580.66	2216.86
581.01	2211.90
581.36	2207.12
581.71	2202.92
582.06	2198.19
582.42	2193.71
582.77	2188.58
583.12	2184.13
583.47	2179.32
583.82	2174.30
584.17	2169.19
584.53	2163.64
584.88	2157.91
585.23	2152.13
585.58	2146.53
585.93	2141.18
586.28	2136.48
586.63	2131.50
586.98	2126.53
587.34	2121.86
587.69	2116.99
588.04	2111.68
588.39	2105.83
588.74	2099.32
589.09	2093.29
589.44	2086.62
589.79	2080.65
590.14	2074.89
590.49	2068.27
590.84	2061.98
591.19	2055.96
591.54	2049.38
591.89	2041.94
592.25	2035.29
592.60	2028.09
592.95	2020.48
593.30	2012.95
593.65	2005.34
594.00	1998.24
594.35	1990.86
594.70	1982.79
595.05	1975.56
595.40	1968.26
595.75	1960.78
596.10	1954.42
596.45	1947.60
596.80	1941.49
597.15	1934.76
597.50	1927.70
597.85	1921.21
598.19	1914.36
598.54	1907.16
598.89	1900.56
599.24	1894.77
599.59	1887.87
599.94	1881.56
600.29	1875.30
600.64	1868.87
600.99	1861.41
601.34	1854.56
601.69	1847.66
602.04	1840.76
602.39	1833.44
602.74	1826.60
603.08	1819.92
603.43	1813.14
603.78	1805.78
604.13	1798.50
604.48	1791.13
604.83	1784.24
605.18	1777.24
605.53	1769.29
605.87	1761.24
606.22	1753.91
606.57	1745.88
606.92	1738.68
607.27	1731.50
607.62	1724.64
607.96	1717.16
608.31	1710.57
608.66	1702.91
609.01	1695.29
609.36	1687.68
609.70	1679.55
610.05	1671.54
610.40	1663.79
610.75	1655.56
611.10	1647.87
611.44	1639.45
611.79	1631.45
612.14	1622.70
612.49	1613.48
612.83	1605.22
613.18	1597.18
613.53	1589.10
613.88	1580.56
614.22	1572.27
614.57	1563.74
614.92	1555.57
615.27	1548.01
615.61	1539.63
615.96	1531.65
616.31	1524.05
616.65	1516.61
617.00	1509.17
617.35	1501.55
617.70	1493.23
618.04	1484.69
618.39	1476.49
618.74	1468.81
619.08	1460.65
619.43	1453.19
619.78	1446.36
620.12	1439.13
620.47	1431.61
620.82	1423.44
621.16	1416.05
621.51	1408.55
621.85	1400.92
622.20	1392.41
622.55	1384.09
622.89	1376.21
623.24	1368.66
623.59	1361.22
623.93	1353.77
624.28	1346.47
624.62	1338.92
624.97	1331.74
625.32	1325.10
625.66	1318.06
626.01	1310.96
626.35	1303.43
626.70	1295.68
627.04	1287.89
627.39	1280.11
627.73	1272.76
628.08	1265.78
628.43	1258.41
628.77	1250.83
629.12	1243.22
629.46	1236.08
629.81	1228.70
630.15	1221.51
630.50	1214.03
630.84	1205.87
631.19	1198.01
631.53	1190.56
631.88	1182.98
632.22	1175.30
632.57	1167.95
632.91	1160.47
633.26	1153.00
633.60	1145.67
633.95	1138.68
634.29	1131.81
634.64	1125.12
634.98	1117.70
635.32	1110.62
635.67	1104.05
636.01	1097.57
636.36	1090.84
636.70	1084.30
637.05	1077.73
637.39	1071.26
637.73	1064.79
638.08	1058.96
638.42	1052.90
638.77	1046.44
639.11	1039.78
639.45	1033.52
639.80	1026.85
640.14	1020.41
640.49	1013.90
640.83	1007.62
641.17	1001.20
641.52	994.70
641.86	988.32
642.20	982.43
642.55	976.09
642.89	969.60
643.23	962.94
643.58	957.08
643.92	950.89
644.26	944.70
644.61	938.72
644.95	932.69
645.29	926.10
645.64	919.35
645.98	912.95
646.32	907.11
646.66	901.05
647.01	895.20
647.35	889.47
647.69	883.65
648.04	878.06
648.38	872.27
648.72	866.23
649.06	860.16
649.41	854.34
649.75	848.38
650.09	842.45
650.43	836.67
650.78	830.56
651.12	824.62
651.46	818.90
651.80	813.11
652.14	807.67
652.49	802.20
652.83	797.07
653.17	791.36
653.51	785.68
653.85	780.32
654.20	774.65
654.54	768.66
654.88	762.88
655.22	756.97
655.56	751.27
655.90	745.99
656.25	740.69
656.59	735.32
656.93	730.18
657.27	725.03
657.61	719.62
657.95	714.51
658.29	709.42
658.64	704.23
658.98	698.88
659.32	693.42
659.66	688.28
660.00	682.89
660.34	677.99
660.68	673.05
661.02	667.97
661.36	663.23
661.70	658.70
662.05	654.32
662.39	650.02
662.73	645.59
663.07	641.12
663.41	636.64
663.75	632.10
664.09	627.54
664.43	623.11
664.77	619.00
665.11	614.79
665.45	610.66
665.79	606.58
666.13	602.46
666.47	598.38
666.81	594.08
667.15	589.97
667.49	586.03
667.83	582.25
668.17	578.27
668.51	574.22
668.85	570.23
669.19	566.49
669.53	562.61
669.87	558.74
670.21	555.02
670.55	551.43
670.89	548.02
671.23	544.64
671.57	541.12
671.91	537.55
672.25	534.05
672.58	530.57
672.92	527.17
673.26	524.03
673.60	520.85
673.94	517.83
674.28	514.88
674.62	511.92
674.96	508.78
675.30	505.95
675.64	503.08
675.97	500.31
676.31	497.34
676.65	494.45
676.99	491.72
677.33	488.89
677.67	486.09
678.01	483.03
678.34	479.99
678.68	477.13
679.02	474.35
679.36	471.61
679.70	468.86
680.04	466.05
680.37	463.17
680.71	460.39
681.05	457.76
681.39	455.14
681.73	452.51
682.06	450.02
682.40	447.39
682.74	444.84
683.08	442.32
683.42	439.77
683.75	437.22
684.09	434.68
684.43	432.17
684.77	429.62
685.10	427.30
685.44	425.04
685.78	422.74
686.12	420.49
686.45	418.13
686.79	415.79
687.13	413.60
687.46	411.44
687.80	409.34
688.14	407.18
688.48	405.08
688.81	402.83
689.15	400.68
689.49	398.55
689.82	396.41
690.16	394.31
690.50	392.38
690.83	390.49
691.17	388.52
691.51	386.62
691.84	384.81
692.18	382.87
692.52	380.90
692.85	378.99
693.19	377.10
693.52	375.31
693.86	373.52
694.20	371.77
694.53	369.97
694.87	368.11
695.21	366.26
695.54	364.43
695.88	362.71
696.21	360.96
696.55	359.30
696.88	357.65
697.22	355.94
697.56	354.29
697.89	352.58
698.23	350.97
698.56	349.33
698.90	347.71
699.23	346.05
699.57	344.49
699.90	342.96
700.24	341.40
700.58	339.84
700.91	338.34
701.25	336.91
701.58	335.56
701.92	334.16
702.25	332.82
702.59	331.45
702.92	330.14
703.26	328.86
703.59	327.56
703.93	326.36
704.26	325.15
704.60	323.86
704.93	322.64
705.26	321.38
705.60	320.27
705.93	319.13
706.27	318.13
706.60	317.08
706.94	316.00
707.27	314.92
707.61	313.85
707.94	312.86
708.27	311.74
708.61	310.65
708.94	309.67
709.28	308.67
709.61	307.67
709.94	306.71
710.28	305.68
710.61	304.72
710.95	303.67
711.28	302.75
711.61	301.79
711.95	300.84
712.28	299.90
712.61	298.90
712.95	297.98
713.28	297.08
713.61	296.18
713.95	295.30
714.28	294.43
714.61	293.56
714.95	292.72
715.28	291.86
715.61	290.97
715.95	290.10
716.28	289.25
716.61	288.43
716.95	287.62
717.28	286.88
717.61	286.09
717.94	285.35
718.28	284.56
718.61	283.83
718.94	283.18
719.27	282.52
719.61	281.86
719.94	281.23
720.27	280.53
720.60	279.86
720.94	279.24
721.27	278.68
721.60	278.12
721.93	277.53
722.27	276.96
722.60	276.43
722.93	275.89
723.26	275.37
723.59	274.83
723.93	274.25
724.26	273.70
724.59	273.13
724.92	272.59
725.25	272.07
725.59	271.58
725.92	271.06
726.25	270.54
726.58	270.05
726.91	269.50
727.24	269.02
727.57	268.54
727.91	268.03
728.24	267.54
728.57	267.05
728.90	266.59
729.23	266.11
729.56	265.65
729.89	265.17
730.22	264.67
730.55	264.18
730.89	263.76
731.22	263.33
731.55	262.92
731.88	262.50
732.21	262.05
732.54	261.60
732.87	261.15
733.20	260.78
733.53	260.38
733.86	260.04
734.19	259.64
734.52	259.25
734.85	258.92
735.18	258.49
735.51	258.12
735.84	257.72
736.17	257.36
736.50	256.96
736.83	256.74
737.16	256.41
737.49	256.11
737.82	255.76
738.15	255.41
738.48	255.07
738.81	254.77
739.14	254.45
739.47	254.12
739.80	253.82
740.13	253.50
740.46	253.19
740.79	252.84
741.12	252.53
741.45	252.20
741.78	251.84
742.11	251.57
742.44	251.25
742.77	250.99
743.10	250.71
743.43	250.41
743.75	250.03
744.08	249.88
744.41	249.64
744.74	249.40
745.07	249.10
745.40	248.86
745.73	248.60
746.06	248.37
746.39	248.15
746.71	247.88
747.04	247.62
747.37	247.38
747.70	247.15
748.03	246.90
748.36	246.71
748.68	246.49
749.01	246.26
749.34	246.03
749.67	245.82
750.00	245.59
750.33	245.46
750.65	245.22
750.98	244.87
751.31	244.63
751.64	244.41
751.97	244.26
752.29	244.02
752.62	243.79
752.95	243.61
753.28	243.40
753.60	243.25
753.93	243.08
754.26	242.88
754.59	242.66
754.91	242.46
755.24	242.28
755.57	242.06
755.90	241.86
756.22	241.69
756.55	241.47
756.88	241.30
757.20	241.09
757.53	240.92
757.86	240.77
758.19	240.62
758.51	240.43
758.84	240.25
759.17	240.10
759.49	239.95
759.82	239.82
760.15	239.64
760.47	239.47
760.80	239.27
761.13	239.14
761.45	238.99
761.78	238.85
762.11	238.73
762.43	238.59
762.76	238.48
763.08	238.34
763.41	238.23
763.74	238.07
764.06	237.91
764.39	237.74
764.71	237.60
765.04	237.49
765.37	237.38
765.69	237.25
766.02	237.11
766.34	236.97
766.67	236.78
767.00	236.69
767.32	236.60
767.65	236.55
767.97	236.44
768.30	236.32
768.62	236.20
768.95	236.02
769.27	235.92
769.60	235.80
769.92	235.67
770.25	235.54
770.57	235.40
770.90	235.26
771.22	235.14
771.55	235.02
771.87	234.88
772.20	234.74
772.52	234.70
772.85	234.73
773.17	234.62
773.50	234.52
773.82	234.42
774.15	234.26
774.47	234.08
774.80	233.94
775.12	233.86
775.45	233.78
775.77	233.73
776.09	233.65
776.42	233.57
776.74	233.51
777.07	233.41
777.39	233.34
777.72	233.26
778.04	233.24
778.36	233.15
778.69	233.10
779.01	233.06
779.33	232.87
779.66	232.70
779.98	232.64
780.31	232.59
780.63	232.53
780.95	232.53
781.28	232.51
781.60	232.43
781.92	232.37
782.25	232.29
782.57	232.19
782.89	232.12
783.22	232.05
783.54	231.96
783.86	231.94
784.19	231.90
784.51	231.89
784.83	231.81
785.16	231.76
785.48	231.70
785.80	231.66
786.12	231.67
786.45	231.62
786.77	231.59
787.09	231.56
787.42	231.50
787.74	231.44
788.06	231.40
788.38	231.39
788.71	231.36
789.03	231.36
789.35	231.38
789.67	231.34
789.99	231.33
790.32	231.28
790.64	231.22
790.96	231.27
791.28	231.20
791.61	231.18
791.93	231.16
792.25	231.14
792.57	231.14
792.89	231.07
793.21	231.05
793.54	230.99
793.86	230.91
794.18	230.89
794.50	230.84
794.82	230.82
795.14	230.81
795.47	230.78
795.79	230.72
796.11	230.65
796.43	230.61
796.75	230.56
797.07	230.57
797.39	230.52
797.71	230.44
798.04	230.42
798.36	230.39
798.68	230.35
799.00	230.33
799.32	230.28
799.64	230.28
799.96	230.25
800.28	230.23
800.60	230.23
800.92	230.20
801.24	230.17
801.56	230.13
801.89	230.06
802.21	230.04
802.53	230.00
802.85	230.00
803.17	230.01
803.49	229.99
803.81	229.92
804.13	229.91
804.45	229.87
804.77	229.84
805.09	229.78
805.41	229.77
805.73	229.69
806.05	229.60
806.37	229.58
806.69	229.53
807.01	229.54
807.33	229.47
807.65	229.41
807.97	229.44
808.28	229.37
808.60	229.34
808.92	229.30
809.24	229.34
809.56	229.30
809.88	229.25
810.20	229.19
810.52	229.22
810.84	229.16
811.16	229.09
811.48	229.05
811.80	229.07
812.12	229.02
812.43	229.04
812.75	229.04
813.07	228.99
813.39	228.95
813.71	228.91
814.03	228.91
814.35	228.86
814.67	228.75
814.98	228.74
815.30	228.71
815.62	228.69
815.94	228.60
816.26	228.61
816.58	228.56
816.89	228.55
817.21	228.51
817.53	228.51
817.85	228.52
818.17	228.53
818.48	228.47
818.80	228.50
819.12	228.45
819.44	228.41
819.76	228.37
820.07	228.35
820.39	228.33
820.71	228.33
821.03	228.35
821.34	228.35
821.66	228.33
821.98	228.35
822.30	228.33
822.61	228.39
822.93	228.33
823.25	228.32
823.57	228.31
823.88	228.31
824.20	228.31
824.52	228.29
824.83	228.25
825.15	228.22
825.47	228.23
825.79	228.23
826.10	228.21
826.42	228.25
826.74	228.26
827.05	228.26
827.37	228.24
827.69	228.24
828.00	228.25
828.32	228.26
828.64	228.24
828.95	228.30
829.27	228.26
829.58	228.24
829.90	228.26
830.22	228.29
830.53	228.27
830.85	228.28
831.17	228.25
831.48	228.28
831.80	228.27
832.11	228.22
832.43	228.20
832.75	228.21
833.06	228.20
833.38	228.16
833.69	228.14
834.01	228.15
834.32	228.11
834.64	228.09
834.96	228.07
835.27	228.04
835.59	228.01
835.90	227.98
836.22	228.00
836.53	227.98
836.85	227.93
837.16	228.01
837.48	227.99
837.79	228.06
838.11	228.05
838.42	228.07
838.74	228.09
839.05	228.09
839.37	228.08
839.68	228.02
840.00	228.04
840.31	228.00
840.63	227.96
840.94	227.95
841.26	227.92
841.57	227.90
841.88	227.91
842.20	227.82
842.51	227.80
842.83	227.78
843.14	227.83
843.46	227.85
843.77	227.76
844.08	227.71
844.40	227.65
844.71	227.63
845.03	227.62
845.34	227.56
845.65	227.54
845.97	227.53
846.28	227.53
846.60	227.50
846.91	227.51
847.22	227.49
847.54	227.51
847.85	227.52
848.16	227.52
848.48	227.49
848.79	227.53
849.10	227.54
849.42	227.53
849.73	227.44
850.04	227.41
850.36	227.35
850.67	227.38
850.98	227.35
851.30	227.34
851.61	227.28
851.92	227.25
852.23	227.26
852.55	227.25
852.86	227.26
853.17	227.27
853.49	227.29
853.80	227.34
854.11	227.34
854.42	227.34
854.74	227.30
855.05	227.28
855.36	227.24
855.67	227.24
855.99	227.25
856.30	227.35
856.61	227.31
856.92	227.33
857.23	227.31
857.55	227.31
857.86	227.28
858.17	227.34
858.48	227.31
858.79	227.30
859.11	227.31
859.42	227.28
859.73	227.28
860.04	227.26
860.35	227.19
860.66	227.18
860.98	227.21
861.29	227.23
861.60	227.25
861.91	227.29
862.22	227.28
862.53	227.25
862.84	227.15
863.16	227.20
863.47	227.21
863.78	227.23
864.09	227.24
864.40	227.29
864.71	227.27
865.02	227.31
865.33	227.31
865.64	227.32
865.95	227.34
866.27	227.36
866.58	227.37
866.89	227.41
867.20	227.41
867.51	227.39
867.82	227.38
868.13	227.40
868.44	227.37
868.75	227.40
869.06	227.42
869.37	227.43
869.68	227.38
869.99	227.38
870.30	227.37
870.61	227.37
870.92	227.31
871.23	227.33
871.54	227.36
871.85	227.40
872.16	227.39
872.47	227.38
872.78	227.34
873.09	227.37
873.40	227.35
873.71	227.36
874.02	227.38
874.33	227.39
874.64	227.34
874.95	227.35
875.26	227.30
875.56	227.26
875.87	227.23
876.18	227.26
876.49	227.37
876.80	227.38
877.11	227.39
877.42	227.42
877.73	227.41
878.04	227.39
878.35	227.39
878.66	227.38
878.96	227.37
879.27	227.38
879.58	227.38
879.89	227.34
880.20	227.35
880.51	227.31
880.82	227.31
881.12	227.33
881.43	227.31
881.74	227.32
882.05	227.32
882.36	227.36
882.67	227.36
882.97	227.24
883.28	227.23
883.59	227.21
883.90	227.20
884.21	227.20
884.51	227.16
884.82	227.13
885.13	227.11
885.44	227.10
885.74	227.07
886.05	227.01
886.36	227.02
886.67	226.96
886.98	227.05
887.28	227.01
887.59	227.02
887.90	227.01
888.20	227.00
888.51	227.00
888.82	226.97
889.13	226.97
889.43	227.03
889.74	227.01
890.05	227.00
890.35	226.97
890.66	226.96
890.97	226.96
891.28	226.92
891.58	226.92
891.89	226.89
892.20	226.89
892.50	226.92
892.81	226.92
893.12	226.91
893.42	226.84
893.73	226.84
894.04	226.81
894.34	226.83
894.65	226.81
894.95	226.84
895.26	226.85
895.57	226.88
895.87	226.81
896.18	226.81
896.48	226.81
896.79	226.85
897.10	226.87
897.40	226.87
897.71	226.90
898.01	226.89
898.32	226.96
898.63	226.97
898.93	226.96
899.24	226.95
899.54	226.97
899.85	226.96
900.15	227.00
900.46	227.04
900.76	227.08
901.07	227.11
901.38	227.07
901.68	227.11
901.99	227.07
902.29	227.08
902.60	227.11
902.90	227.12
903.21	227.09
903.51	227.07
903.82	227.11
904.12	227.15
904.43	227.18
904.73	227.19
905.03	227.20
905.34	227.29
905.64	227.31
905.95	227.33
906.25	227.33
906.56	227.35
906.86	227.36
907.17	227.36
907.47	227.37
907.77	227.38
908.08	227.36
908.38	227.39
908.69	227.40
908.99	227.42
909.30	227.45
909.60	227.50
909.90	227.53
910.21	227.51
910.51	227.46
910.81	227.42
911.12	227.42
911.42	227.43
911.73	227.36
912.03	227.38
912.33	227.41
912.64	227.41
912.94	227.36
913.24	227.32
913.55	227.30
913.85	227.28
914.15	227.33
914.46	227.32
914.76	227.29
915.06	227.32
915.37	227.31
915.67	227.28
915.97	227.25
916.27	227.22
916.58	227.25
916.88	227.26
917.18	227.27
917.49	227.34
917.79	227.34
918.09	227.30
918.39	227.30
918.70	227.28
919.00	227.33
919.30	227.39
919.60	227.35
919.91	227.33
920.21	227.33
920.51	227.27
920.81	227.29
921.12	227.32
921.42	227.30
921.72	227.29
922.02	227.30
922.32	227.32
922.63	227.30
922.93	227.31
923.23	227.28
923.53	227.27
923.83	227.18
924.13	227.20
924.44	227.23
924.74	227.20
925.04	227.20
925.34	227.18
925.64	227.13
925.94	227.17
926.24	227.21
926.55	227.20
926.85	227.18
927.15	227.14
927.45	227.11
927.75	227.07
928.05	227.04
928.35	227.02
928.65	227.02
928.95	227.03
929.26	226.99
929.56	227.00
929.86	227.01
930.16	227.01
930.46	226.95
930.76	226.94
931.06	226.94
931.36	226.91
931.66	226.88
931.96	226.87
932.26	226.87
932.56	226.82
932.86	226.83
933.16	226.84
933.46	226.83
933.76	226.80
934.06	226.84
934.36	226.89
934.66	226.86
934.96	226.82
935.26	226.81
935.56	226.80
935.86	226.77
936.16	226.75
936.46	226.73
936.76	226.72
937.06	226.71
937.36	226.69
937.66	226.72
937.96	226.72
938.26	226.72
938.56	226.70
938.86	226.72
939.16	226.72
939.46	226.73
939.76	226.74
940.06	226.72
940.35	226.68
940.65	226.62
940.95	226.64
941.25	226.65
941.55	226.66
941.85	226.68
942.15	226.69
942.45	226.73
942.75	226.71
943.04	226.75
943.34	226.79
943.64	226.81
943.94	226.80
944.24	226.80
944.54	226.79
944.84	226.78
945.13	226.76
945.43	226.78
945.73	226.76
946.03	226.79
946.33	226.80
946.62	226.80
946.92	226.85
947.22	226.84
947.52	226.88
947.82	226.92
948.11	226.92
948.41	226.96
948.71	226.95
949.01	226.95
949.31	226.93
949.60	226.92
949.90	226.94
950.20	226.94
950.50	226.93
950.79	226.95
951.09	226.97
951.39	226.98
951.69	226.94
951.98	226.99
952.28	227.01
952.58	227.01
952.87	227.02
953.17	227.01
953.47	226.99
953.76	226.97
954.06	226.92
954.36	226.91
954.66	226.89
954.95	226.90
955.25	226.93
955.55	226.95
955.84	226.92
956.14	226.91
956.44	226.93
956.73	226.92
957.03	226.91
957.32	226.89
957.62	226.91
957.92	226.95
958.21	226.95
958.51	227.03
958.81	227.04
959.10	227.05
959.40	227.06
959.69	227.07
959.99	227.07
960.29	227.08
960.58	227.07
960.88	227.08
961.17	227.10
961.47	227.11
961.76	227.09
962.06	227.10
962.36	227.10
962.65	227.11
962.95	227.09
963.24	227.09
963.54	227.10
963.83	227.09
964.13	227.07
964.42	227.02
964.72	226.94
965.01	226.94
965.31	226.93
965.60	226.92
965.90	226.99
966.19	226.97
966.49	226.95
966.78	226.96
967.08	226.93
967.37	226.91
967.67	226.88
967.96	226.90
968.26	226.89
968.55	226.88
968.85	226.86
969.14	226.87
969.43	226.83
969.73	226.84
970.02	226.85
970.32	226.81
970.61	226.80
970.91	226.76
971.20	226.75
971.49	226.75
971.79	226.76
972.08	226.67
972.38	226.66
972.67	226.64
972.96	226.65
973.26	226.62
973.55	226.62
973.85	226.57
974.14	226.56
974.43	226.56
974.73	226.53
975.02	226.53
975.31	226.56
975.61	226.61
975.90	226.61
976.19	226.56
976.49	226.59
976.78	226.61
977.07	226.66
977.37	226.65
977.66	226.67
977.95	226.66
978.24	226.68
978.54	226.73
978.83	226.76
979.12	226.72
979.42	226.76
979.71	226.73
980.00	226.79
980.29	226.80
980.59	226.80
980.88	226.84
981.17	226.84
981.46	226.84
981.76	226.82
982.05	226.87
982.34	226.90
982.63	226.89
982.93	226.86
983.22	226.86
983.51	226.89
983.80	226.93
984.09	226.93
984.39	226.91
984.68	226.86
984.97	226.88
985.26	226.89
985.55	226.91
985.85	226.94
986.14	226.93
986.43	226.95
986.72	226.98
987.01	226.94
987.30	226.94
987.59	226.95
987.89	226.96
988.18	226.91
988.47	226.92
988.76	226.93
989.05	226.94
989.34	226.92
989.63	226.90
989.92	226.82
990.22	226.80
990.51	226.81
990.80	226.81
991.09	226.82
991.38	226.84
991.67	226.81
991.96	226.78
992.25	226.79
992.54	226.76
992.83	226.75
993.12	226.78
993.41	226.76
993.70	226.77
993.99	226.75
994.28	226.75
994.58	226.75
994.87	226.75
995.16	226.73
995.45	226.73
995.74	226.71
996.03	226.75
996.32	226.76
996.61	226.76
996.90	226.76
997.19	226.73
997.48	226.74
997.77	226.72
998.06	226.72
998.34	226.66
998.63	226.68
998.92	226.64
999.21	226.61
999.50	226.61
999.79	226.57
1000.08	226.56
1000.37	226.54
1000.66	226.54
1000.95	226.53
1001.24	226.54
1001.53	226.54
1001.82	226.55
1002.11	226.51
1002.40	226.50
1002.68	226.52
1002.97	226.57
1003.26	226.56
1003.55	226.51
1003.84	226.49
1004.13	226.52
1004.42	226.54
1004.71	226.52
1004.99	226.51
1005.28	226.54
1005.57	226.51
1005.86	226.48
1006.15	226.52
1006.44	226.52
1006.72	226.52
1007.01	226.53
1007.30	226.52
1007.59	226.46
1007.88	226.46
1008.17	226.46
1008.45	226.46
1008.74	226.44
1009.03	226.43
1009.32	226.41
1009.60	226.43
1009.89	226.44
1010.18	226.41
1010.47	226.40
1010.76	226.38
1011.04	226.38
1011.33	226.43
1011.62	226.46
1011.91	226.48
1012.19	226.48
1012.48	226.49
1012.77	226.50
1013.05	226.56
1013.34	226.57
1013.63	226.60
1013.92	226.63
1014.20	226.66
1014.49	226.69
1014.78	226.71
1015.06	226.68
1015.35	226.71
1015.64	226.75
1015.92	226.80
1016.21	226.85
1016.50	226.86
1016.78	226.90
1017.07	226.93
1017.36	226.90
1017.64	226.90
1017.93	226.95
1018.22	226.94
1018.50	226.94
1018.79	226.95
1019.08	226.88
1019.36	226.92
1019.65	226.92
1019.93	226.97
1020.22	226.97
1020.51	227.00
1020.79	226.97
1021.08	226.94
1021.36	226.70
1021.65	227.03
1021.94	226.47
1022.22	227.45
1022.51	226.57
1022.79	227.99
1023.08	226.82
1023.36	227.80
1023.65	226.14
>>>>>End Processed Spectral Data<<<<<
