SpectraSuite Data File
++++++++++++++++++++++++++++++++++++
Date: Fri Feb 01 15:36:25 EST 2013
User: group
Dark Spectrum Present: No
Reference Spectrum Present: No
Number of Sampled Component Spectra: 1
Spectrometers: USB2E7196
Integration Time (usec): 35000 (USB2E7196)
Spectra Averaged: 100 (USB2E7196)
Boxcar Smoothing: 10 (USB2E7196)
Correct for Electrical Dark: No (USB2E7196)
Strobe/Lamp Enabled: No (USB2E7196)
Correct for Detector Non-linearity: No (USB2E7196)
Correct for Stray Light: No (USB2E7196)
Number of Pixels in Processed Spectrum: 2048
>>>>>Begin Processed Spectral Data<<<<<
339.09	0.00
339.48	215.58
339.86	215.89
340.24	217.91
340.63	219.65
341.01	222.20
341.39	221.44
341.78	223.34
342.16	224.78
342.54	224.61
342.93	213.43
343.31	224.20
343.69	224.72
344.07	225.23
344.46	225.63
344.84	225.98
345.22	226.23
345.60	226.48
345.99	226.64
346.37	226.76
346.75	226.87
347.13	226.94
347.52	226.97
347.90	227.08
348.28	227.11
348.66	227.16
349.05	227.15
349.43	227.17
349.81	227.23
350.19	227.26
350.57	227.26
350.96	227.36
351.34	227.47
351.72	227.57
352.10	227.65
352.48	227.73
352.87	227.78
353.25	227.85
353.63	227.91
354.01	228.01
354.39	228.07
354.77	228.13
355.15	228.25
355.54	228.33
355.92	228.37
356.30	228.43
356.68	228.53
357.06	228.59
357.44	228.62
357.82	228.68
358.20	228.74
358.58	228.80
358.97	228.89
359.35	228.92
359.73	228.97
360.11	229.03
360.49	229.11
360.87	229.20
361.25	229.23
361.63	229.32
362.01	229.35
362.39	229.40
362.77	229.45
363.15	229.43
363.53	229.47
363.91	229.46
364.29	229.48
364.67	229.38
365.05	229.36
365.43	229.42
365.81	229.40
366.19	229.44
366.57	229.49
366.95	229.45
367.33	229.43
367.71	229.43
368.09	229.42
368.47	229.40
368.85	229.35
369.23	229.33
369.61	229.28
369.99	229.26
370.37	229.22
370.75	229.23
371.13	229.19
371.51	229.10
371.89	229.12
372.27	229.08
372.65	229.05
373.03	229.00
373.41	228.90
373.78	228.89
374.16	228.76
374.54	228.66
374.92	228.61
375.30	228.53
375.68	228.43
376.06	228.32
376.44	228.24
376.82	228.16
377.19	228.07
377.57	227.97
377.95	227.88
378.33	227.80
378.71	227.68
379.09	227.62
379.47	227.55
379.84	227.42
380.22	227.34
380.60	227.27
380.98	227.21
381.36	227.13
381.73	227.01
382.11	227.00
382.49	226.92
382.87	226.79
383.25	226.74
383.62	226.79
384.00	226.77
384.38	226.64
384.76	226.61
385.13	226.61
385.51	226.56
385.89	226.49
386.27	226.42
386.64	226.37
387.02	226.32
387.40	226.28
387.78	226.27
388.15	226.27
388.53	226.21
388.91	226.17
389.29	226.14
389.66	226.15
390.04	226.11
390.42	226.11
390.79	226.11
391.17	226.08
391.55	225.96
391.92	225.93
392.30	226.01
392.68	226.02
393.05	226.03
393.43	226.01
393.81	226.02
394.18	226.03
394.56	226.04
394.94	226.07
395.31	226.07
395.69	226.13
396.06	226.15
396.44	226.21
396.82	226.25
397.19	226.35
397.57	226.37
397.95	226.42
398.32	226.46
398.70	226.52
399.07	226.62
399.45	226.70
399.82	226.78
400.20	226.80
400.58	226.87
400.95	226.89
401.33	227.00
401.70	227.18
402.08	227.31
402.45	227.42
402.83	227.58
403.20	227.72
403.58	227.81
403.95	227.95
404.33	228.09
404.71	228.24
405.08	228.40
405.46	228.56
405.83	228.76
406.21	228.91
406.58	229.10
406.96	229.26
407.33	229.48
407.70	229.68
408.08	229.97
408.45	230.17
408.83	230.43
409.20	230.69
409.58	230.85
409.95	231.11
410.33	231.42
410.70	231.65
411.08	231.96
411.45	232.24
411.82	232.55
412.20	232.91
412.57	233.32
412.95	233.62
413.32	234.01
413.69	234.36
414.07	234.82
414.44	235.28
414.82	235.77
415.19	236.30
415.56	236.87
415.94	237.42
416.31	238.08
416.68	238.69
417.06	239.39
417.43	240.07
417.81	240.85
418.18	241.61
418.55	242.45
418.93	243.33
419.30	244.24
419.67	245.18
420.04	246.16
420.42	247.15
420.79	248.34
421.16	249.53
421.54	250.74
421.91	251.95
422.28	253.20
422.66	254.55
423.03	255.83
423.40	257.15
423.77	258.55
424.15	260.00
424.52	261.49
424.89	263.09
425.26	264.66
425.64	266.09
426.01	267.67
426.38	269.28
426.75	270.96
427.13	272.67
427.50	274.46
427.87	276.31
428.24	278.17
428.61	279.93
428.99	281.85
429.36	283.95
429.73	285.99
430.10	287.98
430.47	290.02
430.85	292.15
431.22	294.40
431.59	296.76
431.96	298.98
432.33	301.47
432.70	303.88
433.08	306.71
433.45	309.37
433.82	311.96
434.19	314.86
434.56	317.68
434.93	320.32
435.30	322.91
435.68	325.82
436.05	328.61
436.42	331.39
436.79	333.89
437.16	336.59
437.53	339.46
437.90	342.28
438.27	344.99
438.64	347.81
439.01	350.40
439.38	352.62
439.75	354.71
440.13	357.23
440.50	359.53
440.87	361.36
441.24	363.28
441.61	365.49
441.98	366.96
442.35	368.76
442.72	370.65
443.09	372.44
443.46	373.39
443.83	374.04
444.20	374.57
444.57	375.42
444.94	375.70
445.31	376.03
445.68	376.42
446.05	376.54
446.42	376.18
446.79	375.73
447.16	375.29
447.53	375.05
447.90	373.86
448.27	372.70
448.64	371.13
449.01	370.02
449.37	368.02
449.74	366.13
450.11	363.89
450.48	361.42
450.85	358.91
451.22	356.81
451.59	354.76
451.96	352.78
452.33	350.17
452.70	347.82
453.07	345.01
453.43	342.11
453.80	339.31
454.17	336.58
454.54	334.06
454.91	331.39
455.28	328.74
455.65	326.28
456.02	323.82
456.38	321.67
456.75	319.00
457.12	316.78
457.49	314.59
457.86	312.40
458.23	310.55
458.59	308.49
458.96	306.38
459.33	304.56
459.70	302.71
460.07	301.20
460.43	299.48
460.80	297.85
461.17	296.37
461.54	294.92
461.91	293.53
462.27	292.07
462.64	290.78
463.01	289.35
463.38	288.01
463.74	286.65
464.11	285.51
464.48	284.49
464.85	283.35
465.21	282.47
465.58	281.52
465.95	280.42
466.32	279.52
466.68	278.64
467.05	277.70
467.42	276.83
467.78	275.91
468.15	275.00
468.52	274.35
468.88	273.48
469.25	272.68
469.62	272.00
469.98	271.31
470.35	270.70
470.72	270.14
471.08	269.49
471.45	268.93
471.82	268.35
472.18	267.72
472.55	267.30
472.92	266.77
473.28	266.30
473.65	265.85
474.02	265.47
474.38	265.09
474.75	264.77
475.11	264.35
475.48	264.08
475.85	263.85
476.21	263.58
476.58	263.43
476.94	263.27
477.31	263.13
477.67	262.99
478.04	262.86
478.41	262.78
478.77	262.84
479.14	262.77
479.50	262.75
479.87	262.83
480.23	262.90
480.60	262.96
480.96	263.05
481.33	263.24
481.69	263.41
482.06	263.59
482.42	263.82
482.79	264.11
483.15	264.44
483.52	264.83
483.88	265.21
484.25	265.59
484.61	266.06
484.98	266.49
485.34	267.08
485.71	267.64
486.07	268.26
486.44	268.81
486.80	269.52
487.17	270.28
487.53	271.06
487.90	271.92
488.26	272.86
488.62	273.88
488.99	274.86
489.35	275.90
489.72	277.06
490.08	278.26
490.44	279.51
490.81	280.84
491.17	282.19
491.54	283.66
491.90	285.19
492.26	286.83
492.63	288.61
492.99	290.43
493.36	292.36
493.72	294.42
494.08	296.53
494.45	298.82
494.81	301.15
495.17	303.68
495.54	306.26
495.90	308.95
496.26	311.76
496.63	314.77
496.99	317.88
497.35	321.12
497.72	324.53
498.08	328.08
498.44	331.75
498.80	335.65
499.17	339.68
499.53	343.85
499.89	348.24
500.26	352.79
500.62	357.38
500.98	362.35
501.34	367.42
501.71	372.79
502.07	378.23
502.43	383.85
502.79	389.64
503.16	395.67
503.52	401.93
503.88	408.34
504.24	414.95
504.60	421.82
504.97	428.94
505.33	436.23
505.69	443.96
506.05	451.78
506.41	459.69
506.78	467.86
507.14	476.38
507.50	485.11
507.86	494.07
508.22	503.31
508.59	512.55
508.95	522.17
509.31	531.92
509.67	542.04
510.03	552.39
510.39	562.95
510.75	573.76
511.12	584.72
511.48	596.05
511.84	607.53
512.20	619.07
512.56	631.07
512.92	643.25
513.28	655.54
513.64	668.02
514.00	680.72
514.37	693.64
514.73	706.61
515.09	719.60
515.45	732.92
515.81	746.55
516.17	760.48
516.53	774.59
516.89	788.86
517.25	802.99
517.61	817.33
517.97	831.74
518.33	846.20
518.69	860.95
519.05	875.95
519.41	891.03
519.77	906.55
520.13	921.93
520.49	937.34
520.85	952.87
521.21	968.57
521.57	984.97
521.93	1000.77
522.29	1017.24
522.65	1033.50
523.01	1049.67
523.37	1065.68
523.73	1081.87
524.09	1097.96
524.45	1114.23
524.81	1130.89
525.17	1147.85
525.53	1164.74
525.89	1181.61
526.25	1198.45
526.61	1214.85
526.97	1231.55
527.33	1248.05
527.68	1264.63
528.04	1281.16
528.40	1297.84
528.76	1314.90
529.12	1331.33
529.48	1348.24
529.84	1364.27
530.20	1380.90
530.56	1397.99
530.91	1415.46
531.27	1432.33
531.63	1448.82
531.99	1465.45
532.35	1481.49
532.71	1497.35
533.07	1513.72
533.42	1529.76
533.78	1545.86
534.14	1562.13
534.50	1577.48
534.86	1593.39
535.21	1608.67
535.57	1624.67
535.93	1640.10
536.29	1654.86
536.65	1669.98
537.00	1684.84
537.36	1700.20
537.72	1714.79
538.08	1729.18
538.44	1742.91
538.79	1756.74
539.15	1770.43
539.51	1784.17
539.87	1798.49
540.22	1812.22
540.58	1826.00
540.94	1839.32
541.29	1852.33
541.65	1865.10
542.01	1878.52
542.37	1890.82
542.72	1903.40
543.08	1915.18
543.44	1927.49
543.79	1938.77
544.15	1949.86
544.51	1961.40
544.87	1972.39
545.22	1983.20
545.58	1993.46
545.94	2003.28
546.29	2013.24
546.65	2023.12
547.01	2032.43
547.36	2041.07
547.72	2049.67
548.07	2057.47
548.43	2065.67
548.79	2073.53
549.14	2080.93
549.50	2088.31
549.86	2096.08
550.21	2103.23
550.57	2110.46
550.92	2117.10
551.28	2124.28
551.64	2131.29
551.99	2137.75
552.35	2143.88
552.70	2150.07
553.06	2156.10
553.41	2162.32
553.77	2168.50
554.13	2174.66
554.48	2180.72
554.84	2186.29
555.19	2191.50
555.55	2196.67
555.90	2201.05
556.26	2205.88
556.61	2210.67
556.97	2214.85
557.32	2219.07
557.68	2223.24
558.03	2227.52
558.39	2231.23
558.74	2235.85
559.10	2239.74
559.45	2243.43
559.81	2247.62
560.16	2251.31
560.52	2254.57
560.87	2258.09
561.23	2260.57
561.58	2263.45
561.94	2265.95
562.29	2268.30
562.64	2270.95
563.00	2273.62
563.35	2277.26
563.71	2280.59
564.06	2283.75
564.42	2286.62
564.77	2288.97
565.12	2291.21
565.48	2292.92
565.83	2294.85
566.19	2295.95
566.54	2296.82
566.89	2298.03
567.25	2298.74
567.60	2300.27
567.96	2301.80
568.31	2302.62
568.66	2303.63
569.02	2304.02
569.37	2304.38
569.72	2305.20
570.08	2305.33
570.43	2305.31
570.78	2304.71
571.14	2302.93
571.49	2301.68
571.84	2301.27
572.20	2300.18
572.55	2299.10
572.90	2297.52
573.26	2295.95
573.61	2294.42
573.96	2292.60
574.31	2289.57
574.67	2286.39
575.02	2282.56
575.37	2279.30
575.72	2275.55
576.08	2272.27
576.43	2269.03
576.78	2265.34
577.13	2262.19
577.49	2259.16
577.84	2255.51
578.19	2251.61
578.54	2248.09
578.90	2243.80
579.25	2238.29
579.60	2233.30
579.95	2228.28
580.30	2223.26
580.66	2218.09
581.01	2213.04
581.36	2208.01
581.71	2203.62
582.06	2199.23
582.42	2194.76
582.77	2189.37
583.12	2184.67
583.47	2179.83
583.82	2174.73
584.17	2169.42
584.53	2163.85
584.88	2158.04
585.23	2152.16
585.58	2146.64
585.93	2141.07
586.28	2136.27
586.63	2131.04
586.98	2125.84
587.34	2121.14
587.69	2116.33
588.04	2111.06
588.39	2105.34
588.74	2098.90
589.09	2092.80
589.44	2085.93
589.79	2079.91
590.14	2074.48
590.49	2067.80
590.84	2061.44
591.19	2055.39
591.54	2048.82
591.89	2041.38
592.25	2034.55
592.60	2027.49
592.95	2019.93
593.30	2012.58
593.65	2004.95
594.00	1998.00
594.35	1990.84
594.70	1982.76
595.05	1975.35
595.40	1968.06
595.75	1960.47
596.10	1954.18
596.45	1947.45
596.80	1941.30
597.15	1934.63
597.50	1927.24
597.85	1920.81
598.19	1914.05
598.54	1906.96
598.89	1900.27
599.24	1894.27
599.59	1887.52
599.94	1881.21
600.29	1874.71
600.64	1868.10
600.99	1860.57
601.34	1853.66
601.69	1846.60
602.04	1839.62
602.39	1832.22
602.74	1825.33
603.08	1818.62
603.43	1811.97
603.78	1804.55
604.13	1797.29
604.48	1789.83
604.83	1783.02
605.18	1776.00
605.53	1768.13
605.87	1760.03
606.22	1752.83
606.57	1744.85
606.92	1737.57
607.27	1730.36
607.62	1723.50
607.96	1716.13
608.31	1709.47
608.66	1701.84
609.01	1694.31
609.36	1686.69
609.70	1678.74
610.05	1670.55
610.40	1662.88
610.75	1654.43
611.10	1646.68
611.44	1638.34
611.79	1630.55
612.14	1621.71
612.49	1612.56
612.83	1604.04
613.18	1595.99
613.53	1587.86
613.88	1579.31
614.22	1570.91
614.57	1562.27
614.92	1554.17
615.27	1546.62
615.61	1538.26
615.96	1530.28
616.31	1522.55
616.65	1515.21
617.00	1507.67
617.35	1500.01
617.70	1491.52
618.04	1483.04
618.39	1474.96
618.74	1467.27
619.08	1458.88
619.43	1451.45
619.78	1444.64
620.12	1437.45
620.47	1429.90
620.82	1421.72
621.16	1414.42
621.51	1406.89
621.85	1399.32
622.20	1390.86
622.55	1382.59
622.89	1374.79
623.24	1367.06
623.59	1359.65
623.93	1352.07
624.28	1344.82
624.62	1337.43
624.97	1330.30
625.32	1323.56
625.66	1316.46
626.01	1309.28
626.35	1301.79
626.70	1293.92
627.04	1286.04
627.39	1278.37
627.73	1271.01
628.08	1264.18
628.43	1256.89
628.77	1249.54
629.12	1242.05
629.46	1234.91
629.81	1227.48
630.15	1220.28
630.50	1213.04
630.84	1204.93
631.19	1197.10
631.53	1189.65
631.88	1182.02
632.22	1174.45
632.57	1167.18
632.91	1159.74
633.26	1152.33
633.60	1145.19
633.95	1138.24
634.29	1131.32
634.64	1124.67
634.98	1117.21
635.32	1110.07
635.67	1103.51
636.01	1096.95
636.36	1090.09
636.70	1083.52
637.05	1077.00
637.39	1070.55
637.73	1063.96
638.08	1058.04
638.42	1052.10
638.77	1045.70
639.11	1039.15
639.45	1032.73
639.80	1025.96
640.14	1019.45
640.49	1012.92
640.83	1006.53
641.17	1000.29
641.52	993.93
641.86	987.37
642.20	981.61
642.55	975.33
642.89	968.85
643.23	962.32
643.58	956.59
643.92	950.36
644.26	944.25
644.61	938.24
644.95	932.22
645.29	925.62
645.64	918.79
645.98	912.35
646.32	906.54
646.66	900.66
647.01	894.91
647.35	889.29
647.69	883.52
648.04	877.92
648.38	872.08
648.72	866.08
649.06	860.04
649.41	854.16
649.75	848.15
650.09	842.14
650.43	836.36
650.78	830.11
651.12	824.19
651.46	818.42
651.80	812.65
652.14	807.24
652.49	801.92
652.83	796.75
653.17	790.98
653.51	785.22
653.85	779.69
654.20	774.06
654.54	767.95
654.88	762.17
655.22	756.22
655.56	750.53
655.90	745.11
656.25	739.83
656.59	734.43
656.93	729.30
657.27	724.16
657.61	718.60
657.95	713.53
658.29	708.40
658.64	703.24
658.98	697.90
659.32	692.38
659.66	687.10
660.00	681.77
660.34	676.93
660.68	671.98
661.02	666.97
661.36	662.25
661.70	657.82
662.05	653.39
662.39	649.11
662.73	644.64
663.07	640.21
663.41	635.81
663.75	631.29
664.09	626.80
664.43	622.41
664.77	618.30
665.11	614.06
665.45	609.99
665.79	605.86
666.13	601.75
666.47	597.70
666.81	593.63
667.15	589.57
667.49	585.64
667.83	581.90
668.17	578.01
668.51	573.99
668.85	569.92
669.19	566.16
669.53	562.34
669.87	558.44
670.21	554.82
670.55	551.20
670.89	547.83
671.23	544.38
671.57	540.83
671.91	537.30
672.25	533.82
672.58	530.31
672.92	526.96
673.26	523.79
673.60	520.67
673.94	517.57
674.28	514.70
674.62	511.77
674.96	508.62
675.30	505.70
675.64	502.79
675.97	500.07
676.31	497.15
676.65	494.24
676.99	491.57
677.33	488.68
677.67	485.85
678.01	482.74
678.34	479.77
678.68	476.95
679.02	474.18
679.36	471.49
679.70	468.81
680.04	465.99
680.37	463.14
680.71	460.33
681.05	457.73
681.39	455.03
681.73	452.40
682.06	449.93
682.40	447.42
682.74	444.91
683.08	442.37
683.42	439.83
683.75	437.31
684.09	434.75
684.43	432.28
684.77	429.80
685.10	427.49
685.44	425.21
685.78	422.92
686.12	420.66
686.45	418.36
686.79	416.05
687.13	413.89
687.46	411.74
687.80	409.59
688.14	407.29
688.48	405.20
688.81	402.95
689.15	400.76
689.49	398.56
689.82	396.45
690.16	394.37
690.50	392.41
690.83	390.50
691.17	388.51
691.51	386.58
691.84	384.72
692.18	382.79
692.52	380.76
692.85	378.85
693.19	376.95
693.52	375.09
693.86	373.30
694.20	371.53
694.53	369.74
694.87	367.93
695.21	366.16
695.54	364.36
695.88	362.69
696.21	360.94
696.55	359.28
696.88	357.54
697.22	355.89
697.56	354.29
697.89	352.62
698.23	350.97
698.56	349.36
698.90	347.76
699.23	346.08
699.57	344.58
699.90	343.09
700.24	341.53
700.58	339.99
700.91	338.46
701.25	336.97
701.58	335.58
701.92	334.20
702.25	332.80
702.59	331.38
702.92	329.98
703.26	328.65
703.59	327.33
703.93	326.19
704.26	324.93
704.60	323.61
704.93	322.39
705.26	321.16
705.60	319.97
705.93	318.83
706.27	317.84
706.60	316.77
706.94	315.60
707.27	314.49
707.61	313.43
707.94	312.43
708.27	311.36
708.61	310.26
708.94	309.26
709.28	308.28
709.61	307.33
709.94	306.36
710.28	305.38
710.61	304.45
710.95	303.35
711.28	302.42
711.61	301.46
711.95	300.51
712.28	299.57
712.61	298.64
712.95	297.71
713.28	296.82
713.61	295.94
713.95	295.05
714.28	294.23
714.61	293.36
714.95	292.49
715.28	291.67
715.61	290.85
715.95	290.01
716.28	289.18
716.61	288.39
716.95	287.60
717.28	286.89
717.61	286.15
717.94	285.48
718.28	284.69
718.61	284.01
718.94	283.34
719.27	282.72
719.61	282.06
719.94	281.42
720.27	280.72
720.60	280.08
720.94	279.49
721.27	278.93
721.60	278.38
721.93	277.81
722.27	277.29
722.60	276.76
722.93	276.20
723.26	275.70
723.59	275.14
723.93	274.64
724.26	274.09
724.59	273.53
724.92	272.98
725.25	272.53
725.59	272.00
725.92	271.50
726.25	270.99
726.58	270.52
726.91	270.03
727.24	269.57
727.57	269.10
727.91	268.59
728.24	268.12
728.57	267.62
728.90	267.18
729.23	266.65
729.56	266.19
729.89	265.76
730.22	265.24
730.55	264.76
730.89	264.29
731.22	263.86
731.55	263.45
731.88	263.01
732.21	262.54
732.54	262.11
732.87	261.70
733.20	261.31
733.53	260.90
733.86	260.53
734.19	260.12
734.52	259.72
734.85	259.45
735.18	259.01
735.51	258.64
735.84	258.25
736.17	257.91
736.50	257.53
736.83	257.23
737.16	256.94
737.49	256.61
737.82	256.27
738.15	255.85
738.48	255.47
738.81	255.14
739.14	254.82
739.47	254.48
739.80	254.13
740.13	253.78
740.46	253.43
740.79	253.08
741.12	252.75
741.45	252.43
741.78	252.03
742.11	251.73
742.44	251.38
742.77	251.07
743.10	250.72
743.43	250.40
743.75	250.03
744.08	249.83
744.41	249.53
744.74	249.23
745.07	248.99
745.40	248.74
745.73	248.48
746.06	248.20
746.39	247.95
746.71	247.70
747.04	247.44
747.37	247.18
747.70	246.93
748.03	246.68
748.36	246.46
748.68	246.21
749.01	245.96
749.34	245.75
749.67	245.52
750.00	245.33
750.33	245.17
750.65	244.97
750.98	244.63
751.31	244.43
751.64	244.24
751.97	244.05
752.29	243.85
752.62	243.60
752.95	243.38
753.28	243.16
753.60	242.96
753.93	242.79
754.26	242.60
754.59	242.37
754.91	242.17
755.24	241.97
755.57	241.80
755.90	241.63
756.22	241.42
756.55	241.24
756.88	241.05
757.20	240.82
757.53	240.61
757.86	240.46
758.19	240.30
758.51	240.15
758.84	240.00
759.17	239.82
759.49	239.68
759.82	239.58
760.15	239.44
760.47	239.29
760.80	239.14
761.13	239.03
761.45	238.92
761.78	238.82
762.11	238.69
762.43	238.54
762.76	238.40
763.08	238.30
763.41	238.18
763.74	238.02
764.06	237.88
764.39	237.74
764.71	237.61
765.04	237.46
765.37	237.29
765.69	237.17
766.02	237.05
766.34	236.93
766.67	236.78
767.00	236.68
767.32	236.62
767.65	236.53
767.97	236.40
768.30	236.29
768.62	236.17
768.95	236.03
769.27	235.90
769.60	235.79
769.92	235.64
770.25	235.54
770.57	235.41
770.90	235.30
771.22	235.21
771.55	235.09
771.87	235.00
772.20	234.93
772.52	234.89
772.85	234.89
773.17	234.79
773.50	234.70
773.82	234.61
774.15	234.44
774.47	234.29
774.80	234.20
775.12	234.09
775.45	233.98
775.77	233.89
776.09	233.85
776.42	233.77
776.74	233.72
777.07	233.63
777.39	233.57
777.72	233.50
778.04	233.44
778.36	233.37
778.69	233.30
779.01	233.20
779.33	233.03
779.66	232.85
779.98	232.78
780.31	232.70
780.63	232.64
780.95	232.56
781.28	232.49
781.60	232.39
781.92	232.33
782.25	232.27
782.57	232.20
782.89	232.11
783.22	232.00
783.54	231.93
783.86	231.86
784.19	231.76
784.51	231.71
784.83	231.60
785.16	231.56
785.48	231.51
785.80	231.46
786.12	231.41
786.45	231.38
786.77	231.29
787.09	231.24
787.42	231.14
787.74	231.12
788.06	231.09
788.38	231.03
788.71	230.94
789.03	230.89
789.35	230.87
789.67	230.80
789.99	230.79
790.32	230.72
790.64	230.73
790.96	230.80
791.28	230.72
791.61	230.69
791.93	230.62
792.25	230.59
792.57	230.64
792.89	230.58
793.21	230.58
793.54	230.58
793.86	230.51
794.18	230.50
794.50	230.42
794.82	230.37
795.14	230.39
795.47	230.42
795.79	230.40
796.11	230.34
796.43	230.34
796.75	230.32
797.07	230.28
797.39	230.21
797.71	230.12
798.04	230.12
798.36	230.12
798.68	230.09
799.00	230.10
799.32	230.04
799.64	230.04
799.96	230.01
800.28	230.02
800.60	230.02
800.92	230.04
801.24	230.04
801.56	230.04
801.89	230.01
802.21	230.01
802.53	229.97
802.85	229.99
803.17	230.02
803.49	229.97
803.81	229.96
804.13	229.97
804.45	229.92
804.77	229.92
805.09	229.92
805.41	229.89
805.73	229.85
806.05	229.78
806.37	229.75
806.69	229.71
807.01	229.68
807.33	229.66
807.65	229.60
807.97	229.63
808.28	229.60
808.60	229.58
808.92	229.51
809.24	229.57
809.56	229.54
809.88	229.47
810.20	229.47
810.52	229.50
810.84	229.45
811.16	229.44
811.48	229.37
811.80	229.36
812.12	229.37
812.43	229.34
812.75	229.33
813.07	229.29
813.39	229.32
813.71	229.24
814.03	229.20
814.35	229.18
814.67	229.09
814.98	229.05
815.30	229.03
815.62	228.98
815.94	228.88
816.26	228.89
816.58	228.84
816.89	228.84
817.21	228.75
817.53	228.77
817.85	228.74
818.17	228.75
818.48	228.65
818.80	228.62
819.12	228.59
819.44	228.57
819.76	228.55
820.07	228.50
820.39	228.51
820.71	228.49
821.03	228.49
821.34	228.47
821.66	228.45
821.98	228.41
822.30	228.40
822.61	228.43
822.93	228.35
823.25	228.32
823.57	228.30
823.88	228.30
824.20	228.25
824.52	228.25
824.83	228.21
825.15	228.23
825.47	228.21
825.79	228.19
826.10	228.16
826.42	228.11
826.74	228.07
827.05	228.03
827.37	227.99
827.69	227.95
828.00	227.91
828.32	227.91
828.64	227.92
828.95	227.93
829.27	227.91
829.58	227.90
829.90	227.93
830.22	227.91
830.53	227.87
830.85	227.86
831.17	227.81
831.48	227.83
831.80	227.80
832.11	227.78
832.43	227.77
832.75	227.75
833.06	227.84
833.38	227.82
833.69	227.82
834.01	227.86
834.32	227.88
834.64	227.87
834.96	227.86
835.27	227.84
835.59	227.82
835.90	227.77
836.22	227.78
836.53	227.76
836.85	227.73
837.16	227.84
837.48	227.84
837.79	227.88
838.11	227.86
838.42	227.89
838.74	227.90
839.05	227.90
839.37	227.91
839.68	227.87
840.00	227.87
840.31	227.90
840.63	227.89
840.94	227.86
841.26	227.89
841.57	227.91
841.88	227.89
842.20	227.90
842.51	227.90
842.83	227.88
843.14	227.95
843.46	227.94
843.77	227.91
844.08	227.90
844.40	227.90
844.71	227.89
845.03	227.89
845.34	227.88
845.65	227.89
845.97	227.89
846.28	227.88
846.60	227.86
846.91	227.86
847.22	227.83
847.54	227.86
847.85	227.85
848.16	227.82
848.48	227.82
848.79	227.84
849.10	227.89
849.42	227.90
849.73	227.81
850.04	227.83
850.36	227.76
850.67	227.76
850.98	227.74
851.30	227.76
851.61	227.72
851.92	227.75
852.23	227.74
852.55	227.74
852.86	227.71
853.17	227.72
853.49	227.69
853.80	227.71
854.11	227.71
854.42	227.74
854.74	227.72
855.05	227.74
855.36	227.72
855.67	227.68
855.99	227.67
856.30	227.77
856.61	227.75
856.92	227.73
857.23	227.73
857.55	227.68
857.86	227.63
858.17	227.64
858.48	227.60
858.79	227.57
859.11	227.56
859.42	227.57
859.73	227.54
860.04	227.53
860.35	227.49
860.66	227.42
860.98	227.37
861.29	227.38
861.60	227.32
861.91	227.30
862.22	227.26
862.53	227.21
862.84	227.09
863.16	227.09
863.47	227.09
863.78	227.06
864.09	227.07
864.40	227.08
864.71	227.07
865.02	227.06
865.33	227.04
865.64	227.02
865.95	227.02
866.27	227.07
866.58	227.05
866.89	227.01
867.20	227.03
867.51	227.01
867.82	226.97
868.13	227.02
868.44	227.01
868.75	227.04
869.06	227.07
869.37	227.09
869.68	227.09
869.99	227.09
870.30	227.12
870.61	227.13
870.92	227.14
871.23	227.13
871.54	227.13
871.85	227.14
872.16	227.15
872.47	227.16
872.78	227.10
873.09	227.11
873.40	227.15
873.71	227.15
874.02	227.18
874.33	227.21
874.64	227.20
874.95	227.19
875.26	227.19
875.56	227.18
875.87	227.18
876.18	227.18
876.49	227.28
876.80	227.24
877.11	227.25
877.42	227.22
877.73	227.23
878.04	227.23
878.35	227.25
878.66	227.29
878.96	227.27
879.27	227.25
879.58	227.26
879.89	227.23
880.20	227.26
880.51	227.27
880.82	227.26
881.12	227.26
881.43	227.28
881.74	227.28
882.05	227.29
882.36	227.32
882.67	227.35
882.97	227.27
883.28	227.31
883.59	227.30
883.90	227.34
884.21	227.38
884.51	227.39
884.82	227.35
885.13	227.33
885.44	227.34
885.74	227.40
886.05	227.37
886.36	227.43
886.67	227.39
886.98	227.43
887.28	227.47
887.59	227.47
887.90	227.48
888.20	227.47
888.51	227.48
888.82	227.42
889.13	227.43
889.43	227.51
889.74	227.48
890.05	227.46
890.35	227.45
890.66	227.43
890.97	227.41
891.28	227.42
891.58	227.42
891.89	227.41
892.20	227.40
892.50	227.42
892.81	227.41
893.12	227.43
893.42	227.38
893.73	227.37
894.04	227.40
894.34	227.41
894.65	227.37
894.95	227.38
895.26	227.39
895.57	227.41
895.87	227.28
896.18	227.31
896.48	227.34
896.79	227.34
897.10	227.33
897.40	227.34
897.71	227.37
898.01	227.33
898.32	227.38
898.63	227.35
898.93	227.36
899.24	227.34
899.54	227.30
899.85	227.30
900.15	227.27
900.46	227.24
900.76	227.25
901.07	227.24
901.38	227.20
901.68	227.24
901.99	227.15
902.29	227.18
902.60	227.14
902.90	227.08
903.21	227.07
903.51	227.06
903.82	227.05
904.12	227.02
904.43	227.02
904.73	226.98
905.03	226.97
905.34	227.05
905.64	227.04
905.95	227.06
906.25	227.06
906.56	227.04
906.86	227.02
907.17	226.97
907.47	226.98
907.77	226.95
908.08	226.88
908.38	226.88
908.69	226.84
908.99	226.88
909.30	226.90
909.60	226.88
909.90	226.87
910.21	226.86
910.51	226.83
910.81	226.86
911.12	226.85
911.42	226.87
911.73	226.80
912.03	226.81
912.33	226.84
912.64	226.84
912.94	226.84
913.24	226.83
913.55	226.83
913.85	226.84
914.15	226.88
914.46	226.88
914.76	226.90
915.06	226.95
915.37	226.93
915.67	226.95
915.97	226.94
916.27	226.94
916.58	226.93
916.88	226.94
917.18	226.92
917.49	227.00
917.79	226.97
918.09	226.95
918.39	226.96
918.70	226.90
919.00	226.90
919.30	226.97
919.60	226.95
919.91	226.98
920.21	226.98
920.51	226.96
920.81	226.99
921.12	226.99
921.42	226.97
921.72	226.97
922.02	226.96
922.32	226.99
922.63	226.99
922.93	227.06
923.23	227.06
923.53	227.05
923.83	226.99
924.13	227.03
924.44	227.04
924.74	227.04
925.04	227.07
925.34	227.10
925.64	227.06
925.94	227.06
926.24	227.08
926.55	227.09
926.85	227.14
927.15	227.14
927.45	227.15
927.75	227.18
928.05	227.18
928.35	227.19
928.65	227.21
928.95	227.22
929.26	227.18
929.56	227.22
929.86	227.25
930.16	227.22
930.46	227.20
930.76	227.21
931.06	227.19
931.36	227.18
931.66	227.16
931.96	227.16
932.26	227.17
932.56	227.13
932.86	227.12
933.16	227.08
933.46	227.07
933.76	227.05
934.06	227.06
934.36	227.11
934.66	227.12
934.96	227.14
935.26	227.13
935.56	227.12
935.86	227.08
936.16	227.02
936.46	227.04
936.76	227.03
937.06	227.00
937.36	227.01
937.66	227.01
937.96	227.03
938.26	227.00
938.56	227.00
938.86	227.00
939.16	227.05
939.46	227.07
939.76	227.04
940.06	227.03
940.35	226.98
940.65	226.92
940.95	226.91
941.25	226.83
941.55	226.80
941.85	226.80
942.15	226.84
942.45	226.86
942.75	226.84
943.04	226.83
943.34	226.84
943.64	226.83
943.94	226.76
944.24	226.76
944.54	226.75
944.84	226.76
945.13	226.74
945.43	226.70
945.73	226.71
946.03	226.72
946.33	226.68
946.62	226.68
946.92	226.69
947.22	226.69
947.52	226.72
947.82	226.74
948.11	226.72
948.41	226.67
948.71	226.65
949.01	226.68
949.31	226.67
949.60	226.67
949.90	226.69
950.20	226.70
950.50	226.68
950.79	226.66
951.09	226.66
951.39	226.64
951.69	226.62
951.98	226.64
952.28	226.65
952.58	226.70
952.87	226.71
953.17	226.70
953.47	226.69
953.76	226.69
954.06	226.68
954.36	226.66
954.66	226.68
954.95	226.71
955.25	226.71
955.55	226.73
955.84	226.75
956.14	226.75
956.44	226.81
956.73	226.81
957.03	226.86
957.32	226.86
957.62	226.89
957.92	226.93
958.21	226.93
958.51	227.04
958.81	226.99
959.10	227.01
959.40	227.04
959.69	227.06
959.99	227.08
960.29	227.09
960.58	227.09
960.88	227.09
961.17	227.11
961.47	227.11
961.76	227.12
962.06	227.11
962.36	227.10
962.65	227.05
962.95	227.09
963.24	227.06
963.54	227.05
963.83	227.08
964.13	227.12
964.42	227.08
964.72	227.01
965.01	227.07
965.31	227.04
965.60	227.00
965.90	227.03
966.19	226.99
966.49	226.99
966.78	226.98
967.08	227.00
967.37	226.99
967.67	226.98
967.96	226.96
968.26	226.96
968.55	226.99
968.85	227.00
969.14	226.99
969.43	227.00
969.73	227.01
970.02	226.95
970.32	226.90
970.61	226.89
970.91	226.85
971.20	226.83
971.49	226.84
971.79	226.88
972.08	226.83
972.38	226.86
972.67	226.86
972.96	226.89
973.26	226.86
973.55	226.89
973.85	226.86
974.14	226.84
974.43	226.86
974.73	226.84
975.02	226.85
975.31	226.84
975.61	226.80
975.90	226.81
976.19	226.83
976.49	226.84
976.78	226.87
977.07	226.89
977.37	226.89
977.66	226.87
977.95	226.82
978.24	226.84
978.54	226.86
978.83	226.87
979.12	226.87
979.42	226.87
979.71	226.82
980.00	226.84
980.29	226.86
980.59	226.82
980.88	226.81
981.17	226.80
981.46	226.80
981.76	226.81
982.05	226.85
982.34	226.83
982.63	226.82
982.93	226.80
983.22	226.83
983.51	226.82
983.80	226.86
984.09	226.87
984.39	226.87
984.68	226.85
984.97	226.80
985.26	226.79
985.55	226.80
985.85	226.83
986.14	226.84
986.43	226.85
986.72	226.87
987.01	226.84
987.30	226.86
987.59	226.85
987.89	226.87
988.18	226.82
988.47	226.83
988.76	226.83
989.05	226.82
989.34	226.78
989.63	226.79
989.92	226.75
990.22	226.76
990.51	226.77
990.80	226.77
991.09	226.81
991.38	226.82
991.67	226.82
991.96	226.80
992.25	226.81
992.54	226.77
992.83	226.76
993.12	226.80
993.41	226.80
993.70	226.84
993.99	226.86
994.28	226.90
994.58	226.92
994.87	226.92
995.16	226.94
995.45	226.95
995.74	226.94
996.03	226.96
996.32	226.98
996.61	226.99
996.90	226.96
997.19	226.93
997.48	226.93
997.77	226.90
998.06	226.91
998.34	226.89
998.63	226.90
998.92	226.88
999.21	226.87
999.50	226.86
999.79	226.82
1000.08	226.80
1000.37	226.81
1000.66	226.79
1000.95	226.80
1001.24	226.80
1001.53	226.81
1001.82	226.80
1002.11	226.79
1002.40	226.79
1002.68	226.83
1002.97	226.93
1003.26	226.93
1003.55	226.89
1003.84	226.94
1004.13	226.95
1004.42	226.96
1004.71	226.95
1004.99	226.96
1005.28	226.97
1005.57	226.96
1005.86	226.98
1006.15	226.95
1006.44	226.90
1006.72	226.91
1007.01	226.89
1007.30	226.89
1007.59	226.89
1007.88	226.89
1008.17	226.88
1008.45	226.86
1008.74	226.78
1009.03	226.72
1009.32	226.74
1009.60	226.76
1009.89	226.75
1010.18	226.70
1010.47	226.69
1010.76	226.67
1011.04	226.64
1011.33	226.66
1011.62	226.70
1011.91	226.67
1012.19	226.68
1012.48	226.70
1012.77	226.69
1013.05	226.73
1013.34	226.71
1013.63	226.72
1013.92	226.72
1014.20	226.71
1014.49	226.72
1014.78	226.71
1015.06	226.67
1015.35	226.66
1015.64	226.66
1015.92	226.71
1016.21	226.71
1016.50	226.71
1016.78	226.73
1017.07	226.75
1017.36	226.74
1017.64	226.70
1017.93	226.71
1018.22	226.71
1018.50	226.72
1018.79	226.73
1019.08	226.66
1019.36	226.67
1019.65	226.66
1019.93	226.71
1020.22	226.69
1020.51	226.74
1020.79	226.76
1021.08	226.67
1021.36	226.94
1021.65	227.02
1021.94	225.89
1022.22	226.78
1022.51	226.98
1022.79	227.69
1023.08	226.15
1023.36	227.93
1023.65	226.70
>>>>>End Processed Spectral Data<<<<<
