SpectraSuite Data File
++++++++++++++++++++++++++++++++++++
Date: Fri Feb 01 16:28:56 EST 2013
User: group
Dark Spectrum Present: No
Reference Spectrum Present: No
Number of Sampled Component Spectra: 1
Spectrometers: USB2E7196
Integration Time (usec): 35000 (USB2E7196)
Spectra Averaged: 100 (USB2E7196)
Boxcar Smoothing: 10 (USB2E7196)
Correct for Electrical Dark: No (USB2E7196)
Strobe/Lamp Enabled: No (USB2E7196)
Correct for Detector Non-linearity: No (USB2E7196)
Correct for Stray Light: No (USB2E7196)
Number of Pixels in Processed Spectrum: 2048
>>>>>Begin Processed Spectral Data<<<<<
339.09	0.00
339.48	213.29
339.86	215.93
340.24	216.68
340.63	218.65
341.01	221.24
341.39	220.65
341.78	222.18
342.16	223.42
342.54	223.78
342.93	212.42
343.31	223.15
343.69	223.73
344.07	224.17
344.46	224.61
344.84	224.94
345.22	225.16
345.60	225.44
345.99	225.62
346.37	225.70
346.75	225.80
347.13	225.86
347.52	225.91
347.90	226.00
348.28	226.01
348.66	226.07
349.05	226.02
349.43	226.09
349.81	226.10
350.19	226.13
350.57	226.15
350.96	226.22
351.34	226.30
351.72	226.38
352.10	226.49
352.48	226.57
352.87	226.66
353.25	226.73
353.63	226.79
354.01	226.87
354.39	227.00
354.77	227.09
355.15	227.17
355.54	227.23
355.92	227.28
356.30	227.34
356.68	227.47
357.06	227.55
357.44	227.59
357.82	227.67
358.20	227.72
358.58	227.76
358.97	227.85
359.35	227.91
359.73	227.98
360.11	228.01
360.49	228.05
360.87	228.10
361.25	228.13
361.63	228.21
362.01	228.26
362.39	228.28
362.77	228.30
363.15	228.35
363.53	228.40
363.91	228.44
364.29	228.45
364.67	228.40
365.05	228.44
365.43	228.45
365.81	228.45
366.19	228.51
366.57	228.59
366.95	228.58
367.33	228.57
367.71	228.57
368.09	228.58
368.47	228.58
368.85	228.54
369.23	228.55
369.61	228.47
369.99	228.46
370.37	228.46
370.75	228.49
371.13	228.43
371.51	228.37
371.89	228.33
372.27	228.29
372.65	228.25
373.03	228.24
373.41	228.20
373.78	228.15
374.16	228.02
374.54	227.92
374.92	227.86
375.30	227.80
375.68	227.70
376.06	227.66
376.44	227.58
376.82	227.53
377.19	227.48
377.57	227.44
377.95	227.36
378.33	227.30
378.71	227.16
379.09	227.12
379.47	227.09
379.84	227.02
380.22	226.97
380.60	226.90
380.98	226.78
381.36	226.73
381.73	226.66
382.11	226.66
382.49	226.61
382.87	226.51
383.25	226.45
383.62	226.49
384.00	226.38
384.38	226.34
384.76	226.31
385.13	226.26
385.51	226.18
385.89	226.15
386.27	226.09
386.64	226.08
387.02	225.99
387.40	225.95
387.78	225.92
388.15	225.83
388.53	225.77
388.91	225.75
389.29	225.68
389.66	225.69
390.04	225.65
390.42	225.63
390.79	225.62
391.17	225.60
391.55	225.49
391.92	225.50
392.30	225.52
392.68	225.51
393.05	225.51
393.43	225.52
393.81	225.48
394.18	225.45
394.56	225.45
394.94	225.51
395.31	225.53
395.69	225.58
396.06	225.66
396.44	225.71
396.82	225.71
397.19	225.80
397.57	225.78
397.95	225.80
398.32	225.82
398.70	225.88
399.07	225.97
399.45	226.03
399.82	226.05
400.20	226.06
400.58	226.10
400.95	226.11
401.33	226.19
401.70	226.35
402.08	226.46
402.45	226.54
402.83	226.66
403.20	226.73
403.58	226.79
403.95	226.90
404.33	227.03
404.71	227.18
405.08	227.33
405.46	227.49
405.83	227.64
406.21	227.83
406.58	228.00
406.96	228.13
407.33	228.33
407.70	228.58
408.08	228.85
408.45	229.05
408.83	229.30
409.20	229.51
409.58	229.67
409.95	229.95
410.33	230.19
410.70	230.43
411.08	230.72
411.45	231.01
411.82	231.33
412.20	231.69
412.57	232.09
412.95	232.41
413.32	232.79
413.69	233.21
414.07	233.61
414.44	234.05
414.82	234.53
415.19	235.05
415.56	235.55
415.94	236.11
416.31	236.76
416.68	237.43
417.06	238.17
417.43	238.85
417.81	239.59
418.18	240.41
418.55	241.23
418.93	242.11
419.30	243.01
419.67	243.94
420.04	244.84
420.42	245.82
420.79	246.97
421.16	248.14
421.54	249.32
421.91	250.54
422.28	251.78
422.66	253.10
423.03	254.43
423.40	255.79
423.77	257.16
424.15	258.56
424.52	259.99
424.89	261.58
425.26	263.14
425.64	264.53
426.01	266.09
426.38	267.75
426.75	269.43
427.13	271.18
427.50	272.99
427.87	274.87
428.24	276.72
428.61	278.47
428.99	280.39
429.36	282.48
429.73	284.51
430.10	286.58
430.47	288.67
430.85	290.80
431.22	293.04
431.59	295.43
431.96	297.69
432.33	300.19
432.70	302.49
433.08	305.30
433.45	308.00
433.82	310.59
434.19	313.47
434.56	316.25
434.93	318.89
435.30	321.51
435.68	324.38
436.05	327.20
436.42	329.96
436.79	332.51
437.16	335.17
437.53	338.00
437.90	340.74
438.27	343.42
438.64	346.20
439.01	348.77
439.38	350.98
439.75	353.09
440.13	355.59
440.50	357.96
440.87	359.78
441.24	361.67
441.61	363.85
441.98	365.32
442.35	367.09
442.72	368.84
443.09	370.60
443.46	371.58
443.83	372.14
444.20	372.68
444.57	373.47
444.94	373.76
445.31	374.09
445.68	374.45
446.05	374.54
446.42	374.16
446.79	373.74
447.16	373.32
447.53	373.07
447.90	371.90
448.27	370.73
448.64	369.14
449.01	368.04
449.37	366.02
449.74	364.10
450.11	361.85
450.48	359.47
450.85	356.95
451.22	354.84
451.59	352.83
451.96	350.91
452.33	348.32
452.70	345.94
453.07	343.15
453.43	340.28
453.80	337.53
454.17	334.84
454.54	332.29
454.91	329.55
455.28	326.90
455.65	324.44
456.02	322.03
456.38	319.91
456.75	317.28
457.12	315.06
457.49	312.88
457.86	310.74
458.23	308.88
458.59	306.88
458.96	304.81
459.33	303.03
459.70	301.16
460.07	299.70
460.43	298.04
460.80	296.41
461.17	294.97
461.54	293.48
461.91	292.12
462.27	290.74
462.64	289.52
463.01	288.15
463.38	286.86
463.74	285.52
464.11	284.37
464.48	283.33
464.85	282.24
465.21	281.44
465.58	280.57
465.95	279.50
466.32	278.61
466.68	277.72
467.05	276.81
467.42	275.95
467.78	274.98
468.15	274.18
468.52	273.56
468.88	272.72
469.25	271.97
469.62	271.33
469.98	270.65
470.35	270.07
470.72	269.48
471.08	268.87
471.45	268.36
471.82	267.83
472.18	267.25
472.55	266.87
472.92	266.33
473.28	265.85
473.65	265.41
474.02	265.00
474.38	264.66
474.75	264.36
475.11	264.02
475.48	263.82
475.85	263.54
476.21	263.33
476.58	263.14
476.94	262.97
477.31	262.84
477.67	262.70
478.04	262.55
478.41	262.50
478.77	262.50
479.14	262.44
479.50	262.42
479.87	262.47
480.23	262.52
480.60	262.57
480.96	262.67
481.33	262.89
481.69	263.06
482.06	263.21
482.42	263.41
482.79	263.66
483.15	263.95
483.52	264.34
483.88	264.64
484.25	265.05
484.61	265.48
484.98	265.92
485.34	266.45
485.71	267.10
486.07	267.70
486.44	268.26
486.80	268.93
487.17	269.68
487.53	270.51
487.90	271.37
488.26	272.27
488.62	273.29
488.99	274.23
489.35	275.28
489.72	276.40
490.08	277.59
490.44	278.87
490.81	280.19
491.17	281.56
491.54	283.06
491.90	284.59
492.26	286.23
492.63	287.98
492.99	289.76
493.36	291.62
493.72	293.66
494.08	295.79
494.45	298.06
494.81	300.43
495.17	302.89
495.54	305.45
495.90	308.16
496.26	310.95
496.63	313.93
496.99	317.03
497.35	320.34
497.72	323.74
498.08	327.21
498.44	330.93
498.80	334.83
499.17	338.94
499.53	343.11
499.89	347.49
500.26	351.96
500.62	356.66
500.98	361.62
501.34	366.69
501.71	372.02
502.07	377.50
502.43	383.12
502.79	388.91
503.16	395.01
503.52	401.31
503.88	407.77
504.24	414.45
504.60	421.34
504.97	428.46
505.33	435.75
505.69	443.53
506.05	451.32
506.41	459.25
506.78	467.40
507.14	475.87
507.50	484.60
507.86	493.58
508.22	502.76
508.59	512.00
508.95	521.59
509.31	531.44
509.67	541.50
510.03	551.77
510.39	562.33
510.75	573.14
511.12	584.09
511.48	595.37
511.84	606.82
512.20	618.37
512.56	630.28
512.92	642.48
513.28	654.74
513.64	667.15
514.00	679.84
514.37	692.75
514.73	705.78
515.09	718.85
515.45	732.17
515.81	745.77
516.17	759.65
516.53	773.78
516.89	787.95
517.25	802.09
517.61	816.47
517.97	830.84
518.33	845.20
518.69	859.88
519.05	874.78
519.41	889.82
519.77	905.28
520.13	920.68
520.49	936.01
520.85	951.39
521.21	967.05
521.57	983.22
521.93	998.91
522.29	1015.30
522.65	1031.44
523.01	1047.57
523.37	1063.45
523.73	1079.59
524.09	1095.57
524.45	1111.70
524.81	1128.29
525.17	1145.02
525.53	1161.85
525.89	1178.66
526.25	1195.43
526.61	1211.73
526.97	1228.42
527.33	1244.82
527.68	1261.32
528.04	1277.81
528.40	1294.28
528.76	1311.19
529.12	1327.68
529.48	1344.56
529.84	1360.34
530.20	1376.86
530.56	1393.86
530.91	1411.29
531.27	1427.95
531.63	1444.30
531.99	1460.92
532.35	1476.78
532.71	1492.55
533.07	1508.68
533.42	1524.43
533.78	1540.37
534.14	1556.65
534.50	1571.89
534.86	1587.76
535.21	1602.91
535.57	1618.69
535.93	1634.07
536.29	1648.90
536.65	1663.79
537.00	1678.29
537.36	1693.49
537.72	1707.83
538.08	1722.24
538.44	1735.86
538.79	1749.69
539.15	1763.28
539.51	1776.85
539.87	1791.03
540.22	1804.79
540.58	1818.51
540.94	1831.82
541.29	1844.54
541.65	1856.90
542.01	1870.09
542.37	1882.18
542.72	1894.56
543.08	1906.14
543.44	1918.55
543.79	1929.66
544.15	1940.46
544.51	1952.09
544.87	1963.12
545.22	1974.05
545.58	1984.08
545.94	1993.83
546.29	2003.53
546.65	2013.30
547.01	2022.41
547.36	2031.15
547.72	2039.45
548.07	2047.20
548.43	2055.31
548.79	2063.36
549.14	2071.03
549.50	2078.30
549.86	2085.94
550.21	2093.16
550.57	2100.25
550.92	2106.70
551.28	2113.67
551.64	2120.89
551.99	2127.24
552.35	2133.25
552.70	2139.28
553.06	2145.07
553.41	2151.34
553.77	2157.39
554.13	2163.43
554.48	2169.61
554.84	2175.09
555.19	2180.46
555.55	2185.73
555.90	2190.07
556.26	2194.95
556.61	2199.71
556.97	2203.83
557.32	2208.06
557.68	2212.13
558.03	2216.58
558.39	2220.35
558.74	2225.07
559.10	2228.85
559.45	2232.59
559.81	2236.96
560.16	2240.78
560.52	2244.25
560.87	2247.63
561.23	2250.37
561.58	2253.30
561.94	2255.81
562.29	2258.08
562.64	2260.70
563.00	2263.30
563.35	2266.82
563.71	2269.96
564.06	2273.16
564.42	2276.15
564.77	2278.57
565.12	2280.90
565.48	2282.73
565.83	2284.65
566.19	2285.94
566.54	2286.88
566.89	2287.97
567.25	2288.57
567.60	2289.80
567.96	2291.40
568.31	2292.27
568.66	2293.43
569.02	2294.12
569.37	2294.54
569.72	2295.50
570.08	2295.78
570.43	2295.83
570.78	2295.40
571.14	2294.02
571.49	2292.57
571.84	2292.37
572.20	2291.34
572.55	2290.43
572.90	2288.98
573.26	2287.71
573.61	2286.10
573.96	2284.50
574.31	2281.60
574.67	2278.77
575.02	2275.37
575.37	2272.07
575.72	2268.34
576.08	2265.01
576.43	2261.82
576.78	2258.26
577.13	2255.26
577.49	2252.29
577.84	2248.77
578.19	2245.16
578.54	2241.59
578.90	2237.66
579.25	2232.06
579.60	2227.19
579.95	2222.18
580.30	2217.21
580.66	2211.95
581.01	2207.07
581.36	2202.22
581.71	2198.16
582.06	2193.74
582.42	2189.33
582.77	2184.18
583.12	2179.67
583.47	2174.99
583.82	2169.99
584.17	2164.79
584.53	2159.24
584.88	2153.54
585.23	2147.95
585.58	2142.58
585.93	2137.17
586.28	2132.28
586.63	2127.44
586.98	2122.45
587.34	2117.78
587.69	2112.89
588.04	2107.73
588.39	2102.17
588.74	2095.66
589.09	2089.59
589.44	2082.83
589.79	2076.88
590.14	2071.35
590.49	2064.88
590.84	2058.47
591.19	2052.54
591.54	2046.08
591.89	2038.74
592.25	2032.09
592.60	2024.95
592.95	2017.32
593.30	2009.97
593.65	2002.49
594.00	1995.40
594.35	1988.25
594.70	1980.31
595.05	1973.17
595.40	1965.96
595.75	1958.43
596.10	1952.36
596.45	1945.61
596.80	1939.47
597.15	1932.87
597.50	1925.76
597.85	1919.41
598.19	1912.85
598.54	1905.74
598.89	1899.21
599.24	1893.43
599.59	1886.57
599.94	1880.39
600.29	1874.22
600.64	1867.74
600.99	1860.37
601.34	1853.68
601.69	1846.79
602.04	1839.97
602.39	1832.62
602.74	1825.83
603.08	1819.00
603.43	1812.30
603.78	1805.13
604.13	1798.01
604.48	1790.63
604.83	1783.89
605.18	1776.98
605.53	1769.02
605.87	1761.05
606.22	1753.91
606.57	1745.90
606.92	1738.74
607.27	1731.63
607.62	1724.55
607.96	1717.31
608.31	1710.71
608.66	1702.98
609.01	1695.34
609.36	1687.83
609.70	1679.88
610.05	1671.94
610.40	1664.40
610.75	1655.97
611.10	1648.28
611.44	1639.87
611.79	1631.97
612.14	1623.23
612.49	1614.05
612.83	1605.69
613.18	1597.48
613.53	1589.29
613.88	1580.76
614.22	1572.56
614.57	1563.96
614.92	1555.96
615.27	1548.38
615.61	1540.01
615.96	1531.98
616.31	1524.31
616.65	1516.80
617.00	1509.27
617.35	1501.45
617.70	1493.09
618.04	1484.63
618.39	1476.42
618.74	1468.76
619.08	1460.49
619.43	1452.95
619.78	1446.07
620.12	1438.90
620.47	1431.32
620.82	1423.16
621.16	1415.85
621.51	1408.24
621.85	1400.49
622.20	1392.01
622.55	1383.48
622.89	1375.70
623.24	1368.05
623.59	1360.73
623.93	1353.27
624.28	1346.06
624.62	1338.50
624.97	1331.35
625.32	1324.61
625.66	1317.62
626.01	1310.50
626.35	1303.08
626.70	1295.30
627.04	1287.41
627.39	1279.69
627.73	1272.44
628.08	1265.55
628.43	1258.18
628.77	1250.71
629.12	1243.23
629.46	1236.08
629.81	1228.72
630.15	1221.56
630.50	1214.21
630.84	1205.85
631.19	1197.95
631.53	1190.32
631.88	1182.88
632.22	1175.32
632.57	1168.07
632.91	1160.44
633.26	1152.92
633.60	1145.48
633.95	1138.39
634.29	1131.50
634.64	1124.78
634.98	1117.38
635.32	1110.10
635.67	1103.50
636.01	1096.85
636.36	1089.97
636.70	1083.43
637.05	1076.90
637.39	1070.38
637.73	1063.86
638.08	1058.06
638.42	1051.98
638.77	1045.72
639.11	1039.04
639.45	1032.63
639.80	1025.94
640.14	1019.52
640.49	1013.03
640.83	1006.78
641.17	1000.51
641.52	994.05
641.86	987.55
642.20	981.68
642.55	975.42
642.89	968.94
643.23	962.43
643.58	956.72
643.92	950.50
644.26	944.43
644.61	938.36
644.95	932.29
645.29	925.84
645.64	919.17
645.98	912.83
646.32	907.04
646.66	900.93
647.01	895.13
647.35	889.48
647.69	883.64
648.04	878.12
648.38	872.35
648.72	866.39
649.06	860.40
649.41	854.52
649.75	848.62
650.09	842.71
650.43	836.98
650.78	830.70
651.12	824.80
651.46	819.03
651.80	813.23
652.14	807.86
652.49	802.40
652.83	797.23
653.17	791.35
653.51	785.66
653.85	780.25
654.20	774.63
654.54	768.56
654.88	762.81
655.22	756.83
655.56	751.15
655.90	745.69
656.25	740.39
656.59	735.02
656.93	729.87
657.27	724.66
657.61	719.16
657.95	714.18
658.29	709.04
658.64	703.83
658.98	698.60
659.32	693.16
659.66	687.89
660.00	682.60
660.34	677.81
660.68	672.81
661.02	667.74
661.36	663.01
661.70	658.56
662.05	654.28
662.39	649.99
662.73	645.53
663.07	641.15
663.41	636.71
663.75	632.27
664.09	627.72
664.43	623.35
664.77	619.22
665.11	614.92
665.45	610.80
665.79	606.72
666.13	602.56
666.47	598.52
666.81	594.36
667.15	590.20
667.49	586.27
667.83	582.45
668.17	578.60
668.51	574.46
668.85	570.41
669.19	566.48
669.53	562.58
669.87	558.68
670.21	555.02
670.55	551.37
670.89	547.90
671.23	544.47
671.57	540.89
671.91	537.30
672.25	533.85
672.58	530.32
672.92	526.86
673.26	523.62
673.60	520.40
673.94	517.28
674.28	514.34
674.62	511.38
674.96	508.31
675.30	505.37
675.64	502.42
675.97	499.63
676.31	496.76
676.65	493.87
676.99	491.10
677.33	488.15
677.67	485.34
678.01	482.30
678.34	479.30
678.68	476.44
679.02	473.64
679.36	470.81
679.70	468.06
680.04	465.31
680.37	462.42
680.71	459.64
681.05	457.06
681.39	454.35
681.73	451.66
682.06	449.10
682.40	446.50
682.74	444.00
683.08	441.43
683.42	438.87
683.75	436.36
684.09	433.85
684.43	431.43
684.77	428.92
685.10	426.53
685.44	424.25
685.78	421.98
686.12	419.71
686.45	417.42
686.79	415.20
687.13	413.01
687.46	410.91
687.80	408.75
688.14	406.54
688.48	404.48
688.81	402.23
689.15	400.08
689.49	398.00
689.82	395.94
690.16	393.87
690.50	391.89
690.83	389.94
691.17	387.91
691.51	386.02
691.84	384.18
692.18	382.30
692.52	380.32
692.85	378.40
693.19	376.57
693.52	374.74
693.86	372.86
694.20	371.09
694.53	369.29
694.87	367.45
695.21	365.67
695.54	363.84
695.88	362.18
696.21	360.45
696.55	358.72
696.88	357.05
697.22	355.36
697.56	353.74
697.89	352.12
698.23	350.55
698.56	348.97
698.90	347.39
699.23	345.77
699.57	344.20
699.90	342.67
700.24	341.08
700.58	339.60
700.91	338.13
701.25	336.65
701.58	335.27
701.92	333.88
702.25	332.51
702.59	331.15
702.92	329.78
703.26	328.49
703.59	327.20
703.93	326.00
704.26	324.80
704.60	323.47
704.93	322.19
705.26	320.98
705.60	319.76
705.93	318.61
706.27	317.55
706.60	316.47
706.94	315.35
707.27	314.26
707.61	313.15
707.94	312.09
708.27	311.05
708.61	309.97
708.94	309.00
709.28	308.02
709.61	307.08
709.94	306.14
710.28	305.11
710.61	304.17
710.95	303.10
711.28	302.19
711.61	301.26
711.95	300.34
712.28	299.40
712.61	298.45
712.95	297.55
713.28	296.67
713.61	295.82
713.95	294.98
714.28	294.15
714.61	293.28
714.95	292.45
715.28	291.53
715.61	290.65
715.95	289.79
716.28	288.89
716.61	288.00
716.95	287.17
717.28	286.41
717.61	285.62
717.94	284.90
718.28	284.11
718.61	283.38
718.94	282.67
719.27	282.01
719.61	281.36
719.94	280.67
720.27	279.95
720.60	279.26
720.94	278.61
721.27	278.02
721.60	277.42
721.93	276.85
722.27	276.31
722.60	275.73
722.93	275.19
723.26	274.68
723.59	274.14
723.93	273.59
724.26	273.06
724.59	272.52
724.92	271.98
725.25	271.47
725.59	270.96
725.92	270.48
726.25	269.93
726.58	269.39
726.91	268.88
727.24	268.39
727.57	267.95
727.91	267.45
728.24	266.98
728.57	266.52
728.90	266.04
729.23	265.58
729.56	265.17
729.89	264.70
730.22	264.22
730.55	263.78
730.89	263.32
731.22	262.88
731.55	262.42
731.88	261.97
732.21	261.53
732.54	261.10
732.87	260.65
733.20	260.25
733.53	259.91
733.86	259.54
734.19	259.13
734.52	258.73
734.85	258.41
735.18	258.03
735.51	257.67
735.84	257.29
736.17	256.91
736.50	256.53
736.83	256.28
737.16	255.94
737.49	255.57
737.82	255.24
738.15	254.89
738.48	254.56
738.81	254.26
739.14	253.92
739.47	253.59
739.80	253.27
740.13	252.97
740.46	252.67
740.79	252.33
741.12	252.00
741.45	251.67
741.78	251.33
742.11	251.01
742.44	250.68
742.77	250.40
743.10	250.09
743.43	249.79
743.75	249.42
744.08	249.26
744.41	249.00
744.74	248.71
745.07	248.42
745.40	248.18
745.73	247.95
746.06	247.70
746.39	247.42
746.71	247.15
747.04	246.87
747.37	246.54
747.70	246.32
748.03	246.11
748.36	245.92
748.68	245.66
749.01	245.39
749.34	245.15
749.67	244.92
750.00	244.73
750.33	244.55
750.65	244.31
750.98	243.97
751.31	243.75
751.64	243.55
751.97	243.40
752.29	243.19
752.62	242.92
752.95	242.72
753.28	242.53
753.60	242.30
753.93	242.13
754.26	241.95
754.59	241.69
754.91	241.46
755.24	241.23
755.57	241.04
755.90	240.88
756.22	240.72
756.55	240.52
756.88	240.30
757.20	240.06
757.53	239.82
757.86	239.65
758.19	239.48
758.51	239.34
758.84	239.15
759.17	238.96
759.49	238.81
759.82	238.66
760.15	238.49
760.47	238.36
760.80	238.15
761.13	237.99
761.45	237.85
761.78	237.69
762.11	237.53
762.43	237.40
762.76	237.23
763.08	237.04
763.41	236.92
763.74	236.79
764.06	236.64
764.39	236.52
764.71	236.36
765.04	236.21
765.37	236.06
765.69	235.91
766.02	235.81
766.34	235.69
766.67	235.57
767.00	235.49
767.32	235.39
767.65	235.35
767.97	235.29
768.30	235.18
768.62	235.07
768.95	234.98
769.27	234.86
769.60	234.78
769.92	234.68
770.25	234.54
770.57	234.45
770.90	234.38
771.22	234.28
771.55	234.21
771.87	234.16
772.20	234.08
772.52	234.06
772.85	234.05
773.17	233.97
773.50	233.85
773.82	233.74
774.15	233.65
774.47	233.50
774.80	233.38
775.12	233.31
775.45	233.23
775.77	233.14
776.09	233.13
776.42	233.03
776.74	232.98
777.07	232.93
777.39	232.85
777.72	232.74
778.04	232.69
778.36	232.59
778.69	232.51
779.01	232.41
779.33	232.26
779.66	232.11
779.98	232.05
780.31	231.97
780.63	231.95
780.95	231.89
781.28	231.85
781.60	231.79
781.92	231.72
782.25	231.67
782.57	231.60
782.89	231.52
783.22	231.46
783.54	231.41
783.86	231.34
784.19	231.24
784.51	231.23
784.83	231.17
785.16	231.13
785.48	231.12
785.80	231.09
786.12	231.01
786.45	230.92
786.77	230.85
787.09	230.81
787.42	230.72
787.74	230.67
788.06	230.60
788.38	230.57
788.71	230.56
789.03	230.53
789.35	230.53
789.67	230.44
789.99	230.43
790.32	230.41
790.64	230.39
790.96	230.43
791.28	230.37
791.61	230.34
791.93	230.35
792.25	230.27
792.57	230.27
792.89	230.25
793.21	230.27
793.54	230.22
793.86	230.19
794.18	230.17
794.50	230.11
794.82	230.08
795.14	230.05
795.47	230.01
795.79	229.96
796.11	229.89
796.43	229.84
796.75	229.80
797.07	229.72
797.39	229.68
797.71	229.59
798.04	229.56
798.36	229.53
798.68	229.47
799.00	229.46
799.32	229.39
799.64	229.36
799.96	229.32
800.28	229.32
800.60	229.24
800.92	229.22
801.24	229.19
801.56	229.18
801.89	229.14
802.21	229.10
802.53	229.06
802.85	229.03
803.17	229.09
803.49	229.03
803.81	229.00
804.13	228.96
804.45	228.92
804.77	228.90
805.09	228.84
805.41	228.78
805.73	228.72
806.05	228.67
806.37	228.64
806.69	228.60
807.01	228.56
807.33	228.59
807.65	228.51
807.97	228.51
808.28	228.46
808.60	228.43
808.92	228.41
809.24	228.45
809.56	228.41
809.88	228.34
810.20	228.30
810.52	228.26
810.84	228.22
811.16	228.19
811.48	228.14
811.80	228.18
812.12	228.13
812.43	228.13
812.75	228.09
813.07	228.06
813.39	228.06
813.71	228.01
814.03	227.96
814.35	227.94
814.67	227.92
814.98	227.92
815.30	227.91
815.62	227.85
815.94	227.77
816.26	227.82
816.58	227.80
816.89	227.81
817.21	227.79
817.53	227.80
817.85	227.79
818.17	227.77
818.48	227.70
818.80	227.74
819.12	227.70
819.44	227.67
819.76	227.65
820.07	227.61
820.39	227.61
820.71	227.62
821.03	227.61
821.34	227.58
821.66	227.56
821.98	227.55
822.30	227.54
822.61	227.56
822.93	227.48
823.25	227.44
823.57	227.40
823.88	227.42
824.20	227.39
824.52	227.38
824.83	227.37
825.15	227.37
825.47	227.34
825.79	227.34
826.10	227.35
826.42	227.29
826.74	227.30
827.05	227.28
827.37	227.28
827.69	227.24
828.00	227.20
828.32	227.18
828.64	227.18
828.95	227.20
829.27	227.17
829.58	227.15
829.90	227.17
830.22	227.19
830.53	227.15
830.85	227.14
831.17	227.11
831.48	227.12
831.80	227.11
832.11	227.09
832.43	227.08
832.75	227.08
833.06	227.17
833.38	227.15
833.69	227.12
834.01	227.12
834.32	227.13
834.64	227.14
834.96	227.12
835.27	227.07
835.59	227.05
835.90	227.05
836.22	227.06
836.53	227.02
836.85	227.00
837.16	227.10
837.48	227.09
837.79	227.13
838.11	227.12
838.42	227.11
838.74	227.13
839.05	227.11
839.37	227.09
839.68	227.02
840.00	226.96
840.31	226.98
840.63	226.95
840.94	226.93
841.26	226.94
841.57	226.93
841.88	226.95
842.20	226.93
842.51	226.89
842.83	226.85
843.14	226.97
843.46	226.96
843.77	226.87
844.08	226.85
844.40	226.78
844.71	226.75
845.03	226.71
845.34	226.71
845.65	226.71
845.97	226.70
846.28	226.71
846.60	226.72
846.91	226.72
847.22	226.71
847.54	226.72
847.85	226.70
848.16	226.67
848.48	226.60
848.79	226.64
849.10	226.63
849.42	226.60
849.73	226.46
850.04	226.43
850.36	226.42
850.67	226.45
850.98	226.44
851.30	226.44
851.61	226.46
851.92	226.40
852.23	226.42
852.55	226.43
852.86	226.42
853.17	226.43
853.49	226.44
853.80	226.45
854.11	226.46
854.42	226.43
854.74	226.44
855.05	226.48
855.36	226.45
855.67	226.47
855.99	226.51
856.30	226.67
856.61	226.68
856.92	226.70
857.23	226.64
857.55	226.66
857.86	226.67
858.17	226.69
858.48	226.71
858.79	226.67
859.11	226.67
859.42	226.64
859.73	226.67
860.04	226.66
860.35	226.63
860.66	226.58
860.98	226.60
861.29	226.63
861.60	226.61
861.91	226.61
862.22	226.61
862.53	226.60
862.84	226.44
863.16	226.47
863.47	226.42
863.78	226.45
864.09	226.47
864.40	226.46
864.71	226.43
865.02	226.41
865.33	226.40
865.64	226.37
865.95	226.38
866.27	226.41
866.58	226.39
866.89	226.42
867.20	226.42
867.51	226.40
867.82	226.40
868.13	226.41
868.44	226.39
868.75	226.37
869.06	226.40
869.37	226.47
869.68	226.43
869.99	226.46
870.30	226.47
870.61	226.45
870.92	226.41
871.23	226.40
871.54	226.45
871.85	226.46
872.16	226.46
872.47	226.44
872.78	226.38
873.09	226.41
873.40	226.37
873.71	226.40
874.02	226.41
874.33	226.38
874.64	226.38
874.95	226.38
875.26	226.37
875.56	226.34
875.87	226.28
876.18	226.29
876.49	226.35
876.80	226.32
877.11	226.31
877.42	226.35
877.73	226.37
878.04	226.35
878.35	226.35
878.66	226.34
878.96	226.34
879.27	226.32
879.58	226.33
879.89	226.35
880.20	226.36
880.51	226.34
880.82	226.34
881.12	226.33
881.43	226.30
881.74	226.29
882.05	226.28
882.36	226.28
882.67	226.29
882.97	226.22
883.28	226.20
883.59	226.23
883.90	226.24
884.21	226.26
884.51	226.26
884.82	226.28
885.13	226.30
885.44	226.29
885.74	226.29
886.05	226.25
886.36	226.21
886.67	226.20
886.98	226.26
887.28	226.28
887.59	226.27
887.90	226.30
888.20	226.30
888.51	226.31
888.82	226.29
889.13	226.30
889.43	226.36
889.74	226.38
890.05	226.33
890.35	226.33
890.66	226.30
890.97	226.31
891.28	226.29
891.58	226.25
891.89	226.26
892.20	226.29
892.50	226.29
892.81	226.31
893.12	226.32
893.42	226.25
893.73	226.25
894.04	226.26
894.34	226.26
894.65	226.25
894.95	226.26
895.26	226.29
895.57	226.34
895.87	226.24
896.18	226.25
896.48	226.26
896.79	226.23
897.10	226.21
897.40	226.19
897.71	226.21
898.01	226.21
898.32	226.21
898.63	226.21
898.93	226.19
899.24	226.18
899.54	226.16
899.85	226.17
900.15	226.15
900.46	226.17
900.76	226.18
901.07	226.20
901.38	226.16
901.68	226.16
901.99	226.12
902.29	226.12
902.60	226.10
902.90	226.08
903.21	226.09
903.51	226.13
903.82	226.16
904.12	226.14
904.43	226.16
904.73	226.14
905.03	226.13
905.34	226.23
905.64	226.22
905.95	226.23
906.25	226.24
906.56	226.23
906.86	226.19
907.17	226.21
907.47	226.19
907.77	226.23
908.08	226.20
908.38	226.22
908.69	226.21
908.99	226.25
909.30	226.29
909.60	226.30
909.90	226.28
910.21	226.23
910.51	226.22
910.81	226.21
911.12	226.21
911.42	226.23
911.73	226.15
912.03	226.16
912.33	226.16
912.64	226.15
912.94	226.16
913.24	226.15
913.55	226.13
913.85	226.09
914.15	226.12
914.46	226.12
914.76	226.08
915.06	226.11
915.37	226.07
915.67	226.06
915.97	226.05
916.27	226.04
916.58	226.06
916.88	226.09
917.18	226.11
917.49	226.21
917.79	226.20
918.09	226.17
918.39	226.21
918.70	226.20
919.00	226.17
919.30	226.20
919.60	226.19
919.91	226.19
920.21	226.23
920.51	226.20
920.81	226.18
921.12	226.20
921.42	226.17
921.72	226.15
922.02	226.15
922.32	226.13
922.63	226.12
922.93	226.17
923.23	226.14
923.53	226.12
923.83	226.06
924.13	226.09
924.44	226.11
924.74	226.11
925.04	226.15
925.34	226.17
925.64	226.16
925.94	226.19
926.24	226.24
926.55	226.21
926.85	226.21
927.15	226.22
927.45	226.23
927.75	226.26
928.05	226.29
928.35	226.28
928.65	226.29
928.95	226.31
929.26	226.25
929.56	226.28
929.86	226.28
930.16	226.25
930.46	226.21
930.76	226.23
931.06	226.17
931.36	226.12
931.66	226.15
931.96	226.14
932.26	226.10
932.56	226.05
932.86	226.06
933.16	226.06
933.46	226.06
933.76	226.04
934.06	226.06
934.36	226.08
934.66	226.10
934.96	226.10
935.26	226.11
935.56	226.11
935.86	226.09
936.16	226.08
936.46	226.07
936.76	226.11
937.06	226.06
937.36	226.09
937.66	226.11
937.96	226.11
938.26	226.10
938.56	226.11
938.86	226.11
939.16	226.14
939.46	226.14
939.76	226.14
940.06	226.16
940.35	226.13
940.65	226.09
940.95	226.05
941.25	226.06
941.55	226.05
941.85	226.07
942.15	226.07
942.45	226.09
942.75	226.10
943.04	226.09
943.34	226.14
943.64	226.15
943.94	226.11
944.24	226.11
944.54	226.10
944.84	226.12
945.13	226.10
945.43	226.09
945.73	226.08
946.03	226.11
946.33	226.07
946.62	226.03
946.92	226.04
947.22	226.08
947.52	226.08
947.82	226.10
948.11	226.08
948.41	226.09
948.71	226.08
949.01	226.10
949.31	226.07
949.60	226.07
949.90	226.06
950.20	226.07
950.50	226.07
950.79	226.09
951.09	226.09
951.39	226.11
951.69	226.05
951.98	226.09
952.28	226.10
952.58	226.09
952.87	226.10
953.17	226.12
953.47	226.07
953.76	226.07
954.06	226.04
954.36	226.05
954.66	226.02
954.95	226.05
955.25	226.02
955.55	226.07
955.84	226.06
956.14	226.09
956.44	226.07
956.73	226.04
957.03	226.04
957.32	226.01
957.62	226.01
957.92	226.08
958.21	226.07
958.51	226.16
958.81	226.19
959.10	226.21
959.40	226.21
959.69	226.23
959.99	226.21
960.29	226.19
960.58	226.17
960.88	226.21
961.17	226.20
961.47	226.25
961.76	226.21
962.06	226.23
962.36	226.20
962.65	226.21
962.95	226.21
963.24	226.16
963.54	226.20
963.83	226.19
964.13	226.14
964.42	226.13
964.72	226.05
965.01	226.04
965.31	226.06
965.60	226.04
965.90	226.09
966.19	226.08
966.49	226.09
966.78	226.09
967.08	226.08
967.37	226.07
967.67	226.01
967.96	226.00
968.26	226.00
968.55	226.00
968.85	226.03
969.14	226.04
969.43	226.06
969.73	226.01
970.02	226.03
970.32	226.02
970.61	226.02
970.91	225.99
971.20	225.94
971.49	225.91
971.79	225.94
972.08	225.88
972.38	225.87
972.67	225.87
972.96	225.89
973.26	225.88
973.55	225.90
973.85	225.89
974.14	225.88
974.43	225.87
974.73	225.84
975.02	225.83
975.31	225.78
975.61	225.76
975.90	225.79
976.19	225.77
976.49	225.76
976.78	225.75
977.07	225.75
977.37	225.81
977.66	225.82
977.95	225.77
978.24	225.77
978.54	225.79
978.83	225.78
979.12	225.78
979.42	225.77
979.71	225.79
980.00	225.81
980.29	225.82
980.59	225.79
980.88	225.87
981.17	225.87
981.46	225.89
981.76	225.89
982.05	225.90
982.34	225.90
982.63	225.94
982.93	225.94
983.22	225.95
983.51	225.94
983.80	225.94
984.09	225.98
984.39	225.99
984.68	226.01
984.97	226.01
985.26	225.99
985.55	226.02
985.85	226.00
986.14	226.04
986.43	226.06
986.72	226.02
987.01	225.95
987.30	225.93
987.59	225.95
987.89	225.97
988.18	225.96
988.47	225.95
988.76	225.93
989.05	225.93
989.34	225.90
989.63	225.93
989.92	225.89
990.22	225.86
990.51	225.86
990.80	225.83
991.09	225.86
991.38	225.88
991.67	225.83
991.96	225.79
992.25	225.75
992.54	225.73
992.83	225.78
993.12	225.79
993.41	225.80
993.70	225.82
993.99	225.85
994.28	225.85
994.58	225.89
994.87	225.85
995.16	225.84
995.45	225.83
995.74	225.78
996.03	225.83
996.32	225.85
996.61	225.83
996.90	225.82
997.19	225.81
997.48	225.80
997.77	225.81
998.06	225.80
998.34	225.80
998.63	225.85
998.92	225.79
999.21	225.82
999.50	225.80
999.79	225.79
1000.08	225.74
1000.37	225.75
1000.66	225.70
1000.95	225.74
1001.24	225.73
1001.53	225.76
1001.82	225.76
1002.11	225.72
1002.40	225.71
1002.68	225.74
1002.97	225.81
1003.26	225.79
1003.55	225.76
1003.84	225.75
1004.13	225.80
1004.42	225.79
1004.71	225.75
1004.99	225.76
1005.28	225.76
1005.57	225.76
1005.86	225.75
1006.15	225.76
1006.44	225.75
1006.72	225.79
1007.01	225.79
1007.30	225.80
1007.59	225.77
1007.88	225.76
1008.17	225.77
1008.45	225.77
1008.74	225.74
1009.03	225.68
1009.32	225.65
1009.60	225.66
1009.89	225.67
1010.18	225.61
1010.47	225.63
1010.76	225.61
1011.04	225.61
1011.33	225.60
1011.62	225.61
1011.91	225.60
1012.19	225.61
1012.48	225.61
1012.77	225.58
1013.05	225.63
1013.34	225.63
1013.63	225.65
1013.92	225.68
1014.20	225.67
1014.49	225.68
1014.78	225.67
1015.06	225.68
1015.35	225.74
1015.64	225.76
1015.92	225.74
1016.21	225.76
1016.50	225.74
1016.78	225.79
1017.07	225.83
1017.36	225.82
1017.64	225.79
1017.93	225.81
1018.22	225.80
1018.50	225.81
1018.79	225.81
1019.08	225.76
1019.36	225.78
1019.65	225.81
1019.93	225.84
1020.22	225.89
1020.51	225.96
1020.79	225.94
1021.08	225.58
1021.36	226.12
1021.65	225.65
1021.94	225.73
1022.22	226.15
1022.51	226.36
1022.79	226.43
1023.08	226.54
1023.36	227.46
1023.65	225.45
>>>>>End Processed Spectral Data<<<<<
