SpectraSuite Data File
++++++++++++++++++++++++++++++++++++
Date: Fri Feb 01 17:27:59 EST 2013
User: group
Dark Spectrum Present: No
Reference Spectrum Present: No
Number of Sampled Component Spectra: 1
Spectrometers: USB2E7196
Integration Time (usec): 35000 (USB2E7196)
Spectra Averaged: 100 (USB2E7196)
Boxcar Smoothing: 10 (USB2E7196)
Correct for Electrical Dark: No (USB2E7196)
Strobe/Lamp Enabled: No (USB2E7196)
Correct for Detector Non-linearity: No (USB2E7196)
Correct for Stray Light: No (USB2E7196)
Number of Pixels in Processed Spectrum: 2048
>>>>>Begin Processed Spectral Data<<<<<
339.09	0.00
339.48	213.37
339.86	213.86
340.24	215.78
340.63	217.15
341.01	219.95
341.39	219.32
341.78	221.01
342.16	222.77
342.54	223.08
342.93	211.29
343.31	221.96
343.69	222.48
344.07	222.99
344.46	223.44
344.84	223.79
345.22	224.04
345.60	224.31
345.99	224.48
346.37	224.57
346.75	224.68
347.13	224.76
347.52	224.82
347.90	224.85
348.28	224.89
348.66	224.95
349.05	224.94
349.43	225.03
349.81	225.08
350.19	225.12
350.57	225.17
350.96	225.24
351.34	225.33
351.72	225.43
352.10	225.51
352.48	225.52
352.87	225.62
353.25	225.68
353.63	225.74
354.01	225.81
354.39	225.93
354.77	225.97
355.15	226.08
355.54	226.14
355.92	226.20
356.30	226.31
356.68	226.49
357.06	226.60
357.44	226.62
357.82	226.68
358.20	226.75
358.58	226.80
358.97	226.91
359.35	226.99
359.73	227.05
360.11	227.13
360.49	227.24
360.87	227.29
361.25	227.35
361.63	227.45
362.01	227.54
362.39	227.58
362.77	227.66
363.15	227.70
363.53	227.71
363.91	227.75
364.29	227.77
364.67	227.64
365.05	227.64
365.43	227.69
365.81	227.70
366.19	227.74
366.57	227.82
366.95	227.81
367.33	227.77
367.71	227.79
368.09	227.78
368.47	227.75
368.85	227.72
369.23	227.73
369.61	227.67
369.99	227.68
370.37	227.62
370.75	227.64
371.13	227.58
371.51	227.56
371.89	227.53
372.27	227.47
372.65	227.46
373.03	227.39
373.41	227.34
373.78	227.29
374.16	227.17
374.54	227.02
374.92	226.92
375.30	226.85
375.68	226.72
376.06	226.68
376.44	226.60
376.82	226.52
377.19	226.45
377.57	226.42
377.95	226.29
378.33	226.22
378.71	226.09
379.09	226.02
379.47	225.92
379.84	225.85
380.22	225.78
380.60	225.69
380.98	225.67
381.36	225.59
381.73	225.51
382.11	225.50
382.49	225.50
382.87	225.41
383.25	225.37
383.62	225.46
384.00	225.36
384.38	225.32
384.76	225.29
385.13	225.23
385.51	225.17
385.89	225.09
386.27	225.05
386.64	225.02
387.02	224.97
387.40	224.95
387.78	224.92
388.15	224.87
388.53	224.85
388.91	224.78
389.29	224.77
389.66	224.75
390.04	224.71
390.42	224.67
390.79	224.69
391.17	224.64
391.55	224.51
391.92	224.48
392.30	224.48
392.68	224.45
393.05	224.48
393.43	224.45
393.81	224.46
394.18	224.43
394.56	224.37
394.94	224.38
395.31	224.38
395.69	224.45
396.06	224.47
396.44	224.48
396.82	224.52
397.19	224.57
397.57	224.60
397.95	224.64
398.32	224.68
398.70	224.74
399.07	224.82
399.45	224.86
399.82	224.93
400.20	224.95
400.58	225.03
400.95	225.04
401.33	225.14
401.70	225.29
402.08	225.41
402.45	225.52
402.83	225.64
403.20	225.74
403.58	225.80
403.95	225.92
404.33	226.06
404.71	226.17
405.08	226.33
405.46	226.45
405.83	226.58
406.21	226.72
406.58	226.89
406.96	227.06
407.33	227.26
407.70	227.45
408.08	227.76
408.45	227.98
408.83	228.20
409.20	228.42
409.58	228.59
409.95	228.91
410.33	229.23
410.70	229.48
411.08	229.78
411.45	230.13
411.82	230.44
412.20	230.79
412.57	231.25
412.95	231.55
413.32	232.02
413.69	232.43
414.07	232.87
414.44	233.34
414.82	233.87
415.19	234.43
415.56	235.01
415.94	235.56
416.31	236.18
416.68	236.84
417.06	237.56
417.43	238.26
417.81	239.03
418.18	239.81
418.55	240.67
418.93	241.57
419.30	242.49
419.67	243.52
420.04	244.50
420.42	245.51
420.79	246.78
421.16	247.90
421.54	249.17
421.91	250.43
422.28	251.71
422.66	253.06
423.03	254.39
423.40	255.80
423.77	257.29
424.15	258.79
424.52	260.38
424.89	262.07
425.26	263.73
425.64	265.20
426.01	266.87
426.38	268.63
426.75	270.38
427.13	272.17
427.50	274.05
427.87	276.03
428.24	277.97
428.61	279.76
428.99	281.83
429.36	284.00
429.73	286.19
430.10	288.32
430.47	290.45
430.85	292.66
431.22	294.97
431.59	297.41
431.96	299.75
432.33	302.28
432.70	304.72
433.08	307.62
433.45	310.39
433.82	313.09
434.19	316.06
434.56	319.02
434.93	321.80
435.30	324.50
435.68	327.48
436.05	330.42
436.42	333.32
436.79	335.90
437.16	338.70
437.53	341.63
437.90	344.55
438.27	347.44
438.64	350.36
439.01	353.06
439.38	355.41
439.75	357.64
440.13	360.23
440.50	362.67
440.87	364.57
441.24	366.57
441.61	368.84
441.98	370.38
442.35	372.22
442.72	374.11
443.09	375.98
443.46	377.06
443.83	377.69
444.20	378.19
444.57	379.11
444.94	379.40
445.31	379.76
445.68	380.11
446.05	380.19
446.42	379.81
446.79	379.40
447.16	378.95
447.53	378.66
447.90	377.48
448.27	376.29
448.64	374.67
449.01	373.51
449.37	371.49
449.74	369.55
450.11	367.23
450.48	364.68
450.85	362.08
451.22	359.80
451.59	357.70
451.96	355.72
452.33	352.98
452.70	350.59
453.07	347.65
453.43	344.68
453.80	341.78
454.17	339.00
454.54	336.32
454.91	333.47
455.28	330.70
455.65	328.12
456.02	325.58
456.38	323.35
456.75	320.55
457.12	318.20
457.49	315.87
457.86	313.59
458.23	311.68
458.59	309.49
458.96	307.33
459.33	305.43
459.70	303.49
460.07	301.96
460.43	300.17
460.80	298.47
461.17	296.92
461.54	295.41
461.91	293.96
462.27	292.50
462.64	291.18
463.01	289.75
463.38	288.42
463.74	287.00
464.11	285.78
464.48	284.78
464.85	283.64
465.21	282.73
465.58	281.78
465.95	280.65
466.32	279.77
466.68	278.81
467.05	277.86
467.42	276.97
467.78	275.96
468.15	275.06
468.52	274.39
468.88	273.53
469.25	272.72
469.62	272.10
469.98	271.38
470.35	270.76
470.72	270.15
471.08	269.48
471.45	268.93
471.82	268.35
472.18	267.72
472.55	267.26
472.92	266.71
473.28	266.24
473.65	265.77
474.02	265.30
474.38	265.00
474.75	264.68
475.11	264.29
475.48	264.04
475.85	263.77
476.21	263.54
476.58	263.35
476.94	263.23
477.31	263.03
477.67	262.90
478.04	262.81
478.41	262.77
478.77	262.79
479.14	262.73
479.50	262.77
479.87	262.82
480.23	262.90
480.60	263.01
480.96	263.09
481.33	263.31
481.69	263.52
482.06	263.69
482.42	263.88
482.79	264.15
483.15	264.48
483.52	264.84
483.88	265.17
484.25	265.59
484.61	265.99
484.98	266.44
485.34	266.99
485.71	267.57
486.07	268.14
486.44	268.67
486.80	269.35
487.17	270.08
487.53	270.88
487.90	271.73
488.26	272.64
488.62	273.62
488.99	274.56
489.35	275.60
489.72	276.66
490.08	277.85
490.44	279.06
490.81	280.36
491.17	281.74
491.54	283.22
491.90	284.74
492.26	286.38
492.63	288.09
492.99	289.83
493.36	291.69
493.72	293.74
494.08	295.87
494.45	298.10
494.81	300.41
495.17	302.83
495.54	305.38
495.90	308.05
496.26	310.82
496.63	313.76
496.99	316.83
497.35	320.11
497.72	323.48
498.08	326.97
498.44	330.61
498.80	334.46
499.17	338.48
499.53	342.57
499.89	346.87
500.26	351.31
500.62	355.92
500.98	360.85
501.34	365.88
501.71	371.11
502.07	376.47
502.43	382.02
502.79	387.77
503.16	393.76
503.52	399.91
503.88	406.23
504.24	412.76
504.60	419.57
504.97	426.62
505.33	433.86
505.69	441.50
506.05	449.19
506.41	456.94
506.78	464.94
507.14	473.23
507.50	481.80
507.86	490.61
508.22	499.67
508.59	508.70
508.95	518.05
509.31	527.73
509.67	537.63
510.03	547.81
510.39	558.14
510.75	568.69
511.12	579.36
511.48	590.46
511.84	601.60
512.20	612.87
512.56	624.56
512.92	636.44
513.28	648.49
513.64	660.65
514.00	673.18
514.37	685.86
514.73	698.54
515.09	711.26
515.45	724.31
515.81	737.49
516.17	751.07
516.53	764.87
516.89	778.69
517.25	792.44
517.61	806.47
517.97	820.59
518.33	834.67
518.69	849.06
519.05	863.67
519.41	878.55
519.77	893.59
520.13	908.58
520.49	923.57
520.85	938.52
521.21	953.76
521.57	969.39
521.93	984.69
522.29	1000.56
522.65	1016.44
523.01	1032.06
523.37	1047.68
523.73	1063.41
524.09	1079.08
524.45	1094.92
524.81	1111.17
525.17	1127.46
525.53	1143.79
525.89	1160.13
526.25	1176.51
526.61	1192.38
526.97	1208.60
527.33	1224.65
527.68	1240.76
528.04	1256.75
528.40	1272.82
528.76	1289.50
529.12	1305.73
529.48	1322.06
529.84	1337.71
530.20	1353.81
530.56	1370.25
530.91	1387.19
531.27	1403.48
531.63	1419.51
531.99	1435.60
532.35	1451.17
532.71	1466.56
533.07	1482.52
533.42	1498.14
533.78	1513.85
534.14	1529.71
534.50	1544.65
534.86	1560.17
535.21	1574.97
535.57	1590.45
535.93	1605.64
536.29	1620.09
536.65	1634.73
537.00	1649.17
537.36	1664.25
537.72	1678.44
538.08	1692.73
538.44	1706.37
538.79	1720.19
539.15	1733.52
539.51	1747.00
539.87	1761.05
540.22	1774.58
540.58	1788.08
540.94	1801.07
541.29	1813.71
541.65	1826.22
542.01	1839.15
542.37	1851.40
542.72	1863.75
543.08	1875.61
543.44	1887.96
543.79	1899.24
544.15	1910.22
544.51	1921.85
544.87	1932.76
545.22	1943.63
545.58	1953.89
545.94	1963.63
546.29	1973.39
546.65	1983.39
547.01	1992.81
547.36	2001.68
547.72	2010.45
548.07	2018.52
548.43	2026.81
548.79	2034.85
549.14	2042.66
549.50	2050.25
549.86	2057.93
550.21	2065.40
550.57	2072.78
550.92	2079.53
551.28	2086.59
551.64	2093.84
551.99	2100.48
552.35	2106.77
552.70	2113.19
553.06	2119.52
553.41	2126.21
553.77	2132.38
554.13	2138.66
554.48	2144.99
554.84	2150.87
555.19	2156.23
555.55	2161.76
555.90	2166.66
556.26	2172.03
556.61	2176.97
556.97	2181.87
557.32	2186.45
557.68	2190.93
558.03	2195.51
558.39	2199.52
558.74	2204.46
559.10	2208.87
559.45	2212.84
559.81	2217.48
560.16	2221.67
560.52	2225.24
560.87	2228.86
561.23	2231.97
561.58	2235.15
561.94	2238.14
562.29	2240.58
562.64	2243.97
563.00	2246.70
563.35	2250.47
563.71	2253.90
564.06	2257.46
564.42	2260.63
564.77	2263.57
565.12	2266.37
565.48	2268.73
565.83	2270.96
566.19	2272.89
566.54	2273.90
566.89	2275.58
567.25	2276.74
567.60	2278.39
567.96	2280.59
568.31	2281.86
568.66	2283.50
569.02	2284.56
569.37	2285.27
569.72	2286.71
570.08	2287.18
570.43	2287.68
570.78	2287.64
571.14	2286.64
571.49	2285.66
571.84	2285.48
572.20	2284.87
572.55	2284.12
572.90	2282.80
573.26	2281.94
573.61	2280.45
573.96	2279.40
574.31	2276.85
574.67	2274.24
575.02	2271.03
575.37	2267.84
575.72	2264.53
576.08	2261.39
576.43	2258.26
576.78	2255.08
577.13	2252.19
577.49	2249.12
577.84	2246.00
578.19	2242.49
578.54	2239.23
578.90	2235.52
579.25	2230.37
579.60	2225.65
579.95	2220.98
580.30	2216.25
580.66	2211.39
581.01	2206.66
581.36	2201.94
581.71	2198.10
582.06	2194.18
582.42	2190.01
582.77	2185.22
583.12	2180.80
583.47	2176.71
583.82	2172.29
584.17	2167.20
584.53	2161.95
584.88	2156.81
585.23	2151.45
585.58	2146.17
585.93	2140.87
586.28	2136.20
586.63	2131.59
586.98	2126.76
587.34	2122.19
587.69	2117.50
588.04	2112.57
588.39	2107.30
588.74	2101.06
589.09	2095.25
589.44	2088.62
589.79	2082.72
590.14	2077.25
590.49	2071.03
590.84	2064.60
591.19	2058.75
591.54	2052.59
591.89	2045.77
592.25	2039.27
592.60	2032.28
592.95	2025.16
593.30	2018.00
593.65	2010.64
594.00	2003.67
594.35	1996.60
594.70	1988.77
595.05	1981.95
595.40	1974.81
595.75	1967.43
596.10	1961.41
596.45	1954.77
596.80	1948.68
597.15	1942.34
597.50	1935.55
597.85	1929.07
598.19	1922.67
598.54	1915.90
598.89	1909.42
599.24	1903.47
599.59	1897.08
599.94	1890.89
600.29	1884.56
600.64	1878.11
600.99	1870.84
601.34	1864.14
601.69	1857.15
602.04	1850.49
602.39	1843.15
602.74	1836.33
603.08	1829.74
603.43	1823.04
603.78	1815.83
604.13	1808.77
604.48	1801.61
604.83	1794.78
605.18	1788.23
605.53	1780.32
605.87	1772.25
606.22	1764.95
606.57	1757.03
606.92	1749.45
607.27	1742.47
607.62	1735.74
607.96	1728.54
608.31	1722.16
608.66	1714.68
609.01	1707.22
609.36	1699.79
609.70	1691.82
610.05	1683.88
610.40	1676.25
610.75	1667.94
611.10	1660.24
611.44	1651.65
611.79	1643.43
612.14	1634.74
612.49	1625.31
612.83	1616.74
613.18	1608.55
613.53	1600.42
613.88	1591.85
614.22	1583.69
614.57	1574.80
614.92	1566.59
615.27	1559.18
615.61	1550.65
615.96	1542.39
616.31	1534.70
616.65	1527.18
617.00	1519.62
617.35	1511.81
617.70	1503.37
618.04	1494.81
618.39	1486.56
618.74	1479.03
619.08	1470.77
619.43	1463.00
619.78	1455.92
620.12	1448.81
620.47	1441.24
620.82	1432.99
621.16	1425.39
621.51	1417.49
621.85	1409.78
622.20	1401.15
622.55	1392.59
622.89	1384.58
623.24	1376.85
623.59	1369.34
623.93	1361.69
624.28	1354.29
624.62	1346.70
624.97	1339.40
625.32	1332.41
625.66	1325.14
626.01	1317.77
626.35	1310.37
626.70	1302.47
627.04	1294.79
627.39	1286.91
627.73	1279.37
628.08	1272.32
628.43	1265.11
628.77	1257.74
629.12	1250.15
629.46	1242.92
629.81	1235.19
630.15	1227.93
630.50	1220.49
630.84	1212.32
631.19	1204.20
631.53	1196.53
631.88	1188.86
632.22	1181.23
632.57	1173.87
632.91	1166.30
633.26	1158.87
633.60	1151.20
633.95	1144.05
634.29	1136.78
634.64	1130.00
634.98	1122.60
635.32	1115.41
635.67	1108.54
636.01	1101.82
636.36	1095.03
636.70	1088.38
637.05	1081.86
637.39	1075.32
637.73	1068.83
638.08	1062.83
638.42	1056.80
638.77	1050.34
639.11	1043.74
639.45	1037.26
639.80	1030.63
640.14	1024.21
640.49	1017.78
640.83	1011.44
641.17	1005.23
641.52	999.01
641.86	992.42
642.20	986.44
642.55	980.00
642.89	973.55
643.23	966.85
643.58	961.08
643.92	954.90
644.26	948.89
644.61	942.68
644.95	936.61
645.29	929.93
645.64	923.25
645.98	916.90
646.32	910.92
646.66	904.85
647.01	898.98
647.35	893.18
647.69	887.17
648.04	881.62
648.38	875.84
648.72	869.84
649.06	863.87
649.41	857.96
649.75	852.03
650.09	846.07
650.43	840.33
650.78	834.16
651.12	828.20
651.46	822.34
651.80	816.80
652.14	811.34
652.49	806.05
652.83	800.83
653.17	795.19
653.51	789.56
653.85	784.16
654.20	778.58
654.54	772.62
654.88	766.80
655.22	760.88
655.56	755.09
655.90	749.53
656.25	744.22
656.59	738.88
656.93	733.74
657.27	728.65
657.61	723.25
657.95	718.12
658.29	712.99
658.64	707.74
658.98	702.22
659.32	696.75
659.66	691.54
660.00	686.26
660.34	681.30
660.68	676.29
661.02	671.19
661.36	666.41
661.70	661.91
662.05	657.58
662.39	653.39
662.73	648.90
663.07	644.49
663.41	640.05
663.75	635.53
664.09	631.01
664.43	626.52
664.77	622.40
665.11	618.14
665.45	613.93
665.79	609.96
666.13	605.97
666.47	601.87
666.81	597.69
667.15	593.48
667.49	589.53
667.83	585.69
668.17	581.76
668.51	577.72
668.85	573.60
669.19	569.67
669.53	565.74
669.87	561.91
670.21	558.20
670.55	554.52
670.89	551.08
671.23	547.63
671.57	544.09
671.91	540.57
672.25	536.98
672.58	533.41
672.92	529.90
673.26	526.61
673.60	523.42
673.94	520.25
674.28	517.33
674.62	514.37
674.96	511.24
675.30	508.32
675.64	505.39
675.97	502.59
676.31	499.70
676.65	496.74
676.99	493.98
677.33	491.05
677.67	488.24
678.01	485.17
678.34	482.19
678.68	479.25
679.02	476.42
679.36	473.65
679.70	470.95
680.04	468.16
680.37	465.26
680.71	462.37
681.05	459.73
681.39	456.96
681.73	454.28
682.06	451.81
682.40	449.22
682.74	446.60
683.08	444.04
683.42	441.38
683.75	438.84
684.09	436.23
684.43	433.75
684.77	431.20
685.10	428.82
685.44	426.48
685.78	424.16
686.12	421.82
686.45	419.48
686.79	417.16
687.13	414.94
687.46	412.76
687.80	410.61
688.14	408.36
688.48	406.25
688.81	403.97
689.15	401.74
689.49	399.55
689.82	397.41
690.16	395.25
690.50	393.29
690.83	391.33
691.17	389.29
691.51	387.39
691.84	385.53
692.18	383.58
692.52	381.61
692.85	379.68
693.19	377.75
693.52	375.88
693.86	374.08
694.20	372.25
694.53	370.44
694.87	368.57
695.21	366.74
695.54	364.87
695.88	363.11
696.21	361.36
696.55	359.69
696.88	358.03
697.22	356.35
697.56	354.74
697.89	353.09
698.23	351.52
698.56	349.88
698.90	348.31
699.23	346.68
699.57	345.09
699.90	343.54
700.24	342.00
700.58	340.48
700.91	338.95
701.25	337.49
701.58	336.16
701.92	334.81
702.25	333.43
702.59	332.14
702.92	330.79
703.26	329.46
703.59	328.15
703.93	326.95
704.26	325.72
704.60	324.43
704.93	323.14
705.26	321.89
705.60	320.70
705.93	319.52
706.27	318.44
706.60	317.37
706.94	316.24
707.27	315.13
707.61	314.06
707.94	313.04
708.27	311.96
708.61	310.86
708.94	309.77
709.28	308.81
709.61	307.79
709.94	306.87
710.28	305.85
710.61	304.85
710.95	303.75
711.28	302.83
711.61	301.84
711.95	300.89
712.28	299.95
712.61	298.95
712.95	297.99
713.28	297.12
713.61	296.17
713.95	295.32
714.28	294.44
714.61	293.54
714.95	292.64
715.28	291.77
715.61	290.88
715.95	290.04
716.28	289.15
716.61	288.29
716.95	287.39
717.28	286.65
717.61	285.86
717.94	285.12
718.28	284.32
718.61	283.56
718.94	282.82
719.27	282.10
719.61	281.46
719.94	280.76
720.27	279.98
720.60	279.35
720.94	278.67
721.27	278.08
721.60	277.51
721.93	276.89
722.27	276.29
722.60	275.69
722.93	275.12
723.26	274.56
723.59	273.99
723.93	273.43
724.26	272.83
724.59	272.25
724.92	271.69
725.25	271.17
725.59	270.62
725.92	270.12
726.25	269.57
726.58	269.02
726.91	268.54
727.24	268.03
727.57	267.50
727.91	266.97
728.24	266.44
728.57	265.90
728.90	265.43
729.23	264.95
729.56	264.53
729.89	264.04
730.22	263.59
730.55	263.13
730.89	262.67
731.22	262.22
731.55	261.78
731.88	261.33
732.21	260.91
732.54	260.46
732.87	260.03
733.20	259.60
733.53	259.23
733.86	258.84
734.19	258.46
734.52	258.10
734.85	257.78
735.18	257.38
735.51	257.04
735.84	256.68
736.17	256.30
736.50	255.91
736.83	255.68
737.16	255.28
737.49	254.93
737.82	254.61
738.15	254.29
738.48	253.92
738.81	253.63
739.14	253.31
739.47	252.98
739.80	252.71
740.13	252.46
740.46	252.14
740.79	251.82
741.12	251.53
741.45	251.23
741.78	250.87
742.11	250.61
742.44	250.24
742.77	249.97
743.10	249.69
743.43	249.37
743.75	248.98
744.08	248.86
744.41	248.60
744.74	248.31
745.07	248.05
745.40	247.82
745.73	247.57
746.06	247.30
746.39	247.05
746.71	246.75
747.04	246.45
747.37	246.17
747.70	245.92
748.03	245.66
748.36	245.41
748.68	245.19
749.01	244.92
749.34	244.72
749.67	244.45
750.00	244.21
750.33	244.05
750.65	243.83
750.98	243.47
751.31	243.22
751.64	242.99
751.97	242.80
752.29	242.58
752.62	242.31
752.95	242.06
753.28	241.80
753.60	241.60
753.93	241.43
754.26	241.21
754.59	240.97
754.91	240.72
755.24	240.51
755.57	240.29
755.90	240.09
756.22	239.94
756.55	239.71
756.88	239.53
757.20	239.32
757.53	239.08
757.86	238.91
758.19	238.77
758.51	238.63
758.84	238.42
759.17	238.25
759.49	238.08
759.82	237.97
760.15	237.88
760.47	237.72
760.80	237.55
761.13	237.43
761.45	237.27
761.78	237.15
762.11	237.01
762.43	236.89
762.76	236.72
763.08	236.53
763.41	236.41
763.74	236.25
764.06	236.08
764.39	235.94
764.71	235.79
765.04	235.63
765.37	235.49
765.69	235.34
766.02	235.23
766.34	235.10
766.67	234.94
767.00	234.80
767.32	234.73
767.65	234.62
767.97	234.50
768.30	234.42
768.62	234.27
768.95	234.13
769.27	234.01
769.60	233.93
769.92	233.81
770.25	233.73
770.57	233.65
770.90	233.52
771.22	233.43
771.55	233.35
771.87	233.27
772.20	233.20
772.52	233.18
772.85	233.19
773.17	233.10
773.50	233.02
773.82	232.93
774.15	232.82
774.47	232.67
774.80	232.60
775.12	232.51
775.45	232.44
775.77	232.37
776.09	232.29
776.42	232.21
776.74	232.18
777.07	232.07
777.39	231.97
777.72	231.93
778.04	231.91
778.36	231.82
778.69	231.74
779.01	231.65
779.33	231.55
779.66	231.35
779.98	231.28
780.31	231.22
780.63	231.17
780.95	231.08
781.28	231.06
781.60	230.96
781.92	230.88
782.25	230.84
782.57	230.80
782.89	230.73
783.22	230.66
783.54	230.59
783.86	230.57
784.19	230.48
784.51	230.44
784.83	230.36
785.16	230.31
785.48	230.30
785.80	230.24
786.12	230.17
786.45	230.12
786.77	230.08
787.09	230.06
787.42	229.99
787.74	229.98
788.06	229.92
788.38	229.91
788.71	229.90
789.03	229.86
789.35	229.84
789.67	229.83
789.99	229.80
790.32	229.73
790.64	229.70
790.96	229.78
791.28	229.73
791.61	229.67
791.93	229.66
792.25	229.58
792.57	229.64
792.89	229.58
793.21	229.55
793.54	229.52
793.86	229.43
794.18	229.37
794.50	229.28
794.82	229.26
795.14	229.22
795.47	229.17
795.79	229.13
796.11	229.06
796.43	228.99
796.75	228.98
797.07	228.95
797.39	228.96
797.71	228.84
798.04	228.82
798.36	228.80
798.68	228.73
799.00	228.72
799.32	228.62
799.64	228.59
799.96	228.56
800.28	228.55
800.60	228.52
800.92	228.51
801.24	228.50
801.56	228.48
801.89	228.44
802.21	228.42
802.53	228.36
802.85	228.35
803.17	228.38
803.49	228.30
803.81	228.28
804.13	228.20
804.45	228.14
804.77	228.09
805.09	228.05
805.41	228.05
805.73	227.97
806.05	227.92
806.37	227.90
806.69	227.86
807.01	227.84
807.33	227.84
807.65	227.76
807.97	227.77
808.28	227.72
808.60	227.69
808.92	227.63
809.24	227.68
809.56	227.64
809.88	227.55
810.20	227.54
810.52	227.49
810.84	227.47
811.16	227.46
811.48	227.44
811.80	227.47
812.12	227.43
812.43	227.46
812.75	227.44
813.07	227.44
813.39	227.41
813.71	227.34
814.03	227.30
814.35	227.30
814.67	227.24
814.98	227.24
815.30	227.22
815.62	227.17
815.94	227.10
816.26	227.09
816.58	227.06
816.89	227.04
817.21	227.03
817.53	227.01
817.85	226.99
818.17	226.95
818.48	226.87
818.80	226.85
819.12	226.79
819.44	226.75
819.76	226.70
820.07	226.69
820.39	226.67
820.71	226.66
821.03	226.63
821.34	226.60
821.66	226.58
821.98	226.55
822.30	226.57
822.61	226.59
822.93	226.56
823.25	226.55
823.57	226.53
823.88	226.51
824.20	226.48
824.52	226.47
824.83	226.49
825.15	226.49
825.47	226.49
825.79	226.46
826.10	226.43
826.42	226.43
826.74	226.42
827.05	226.44
827.37	226.43
827.69	226.41
828.00	226.40
828.32	226.37
828.64	226.37
828.95	226.40
829.27	226.37
829.58	226.35
829.90	226.33
830.22	226.36
830.53	226.32
830.85	226.31
831.17	226.27
831.48	226.24
831.80	226.23
832.11	226.19
832.43	226.19
832.75	226.19
833.06	226.24
833.38	226.19
833.69	226.14
834.01	226.13
834.32	226.14
834.64	226.12
834.96	226.11
835.27	226.09
835.59	226.06
835.90	226.03
836.22	226.02
836.53	226.01
836.85	225.96
837.16	226.05
837.48	226.06
837.79	226.08
838.11	226.03
838.42	226.01
838.74	226.03
839.05	226.00
839.37	225.97
839.68	225.92
840.00	225.88
840.31	225.90
840.63	225.87
840.94	225.84
841.26	225.81
841.57	225.81
841.88	225.81
842.20	225.77
842.51	225.74
842.83	225.71
843.14	225.78
843.46	225.79
843.77	225.73
844.08	225.69
844.40	225.67
844.71	225.70
845.03	225.68
845.34	225.66
845.65	225.66
845.97	225.66
846.28	225.65
846.60	225.71
846.91	225.68
847.22	225.69
847.54	225.69
847.85	225.71
848.16	225.67
848.48	225.68
848.79	225.74
849.10	225.76
849.42	225.75
849.73	225.65
850.04	225.66
850.36	225.64
850.67	225.65
850.98	225.65
851.30	225.67
851.61	225.65
851.92	225.64
852.23	225.69
852.55	225.69
852.86	225.66
853.17	225.62
853.49	225.70
853.80	225.69
854.11	225.70
854.42	225.70
854.74	225.69
855.05	225.68
855.36	225.63
855.67	225.60
855.99	225.59
856.30	225.70
856.61	225.66
856.92	225.65
857.23	225.67
857.55	225.63
857.86	225.60
858.17	225.61
858.48	225.63
858.79	225.57
859.11	225.59
859.42	225.61
859.73	225.61
860.04	225.58
860.35	225.52
860.66	225.50
860.98	225.53
861.29	225.54
861.60	225.54
861.91	225.54
862.22	225.53
862.53	225.52
862.84	225.43
863.16	225.51
863.47	225.49
863.78	225.45
864.09	225.46
864.40	225.46
864.71	225.49
865.02	225.49
865.33	225.49
865.64	225.46
865.95	225.45
866.27	225.50
866.58	225.47
866.89	225.50
867.20	225.50
867.51	225.45
867.82	225.46
868.13	225.47
868.44	225.43
868.75	225.46
869.06	225.44
869.37	225.49
869.68	225.43
869.99	225.43
870.30	225.45
870.61	225.47
870.92	225.45
871.23	225.43
871.54	225.40
871.85	225.43
872.16	225.45
872.47	225.41
872.78	225.34
873.09	225.33
873.40	225.33
873.71	225.33
874.02	225.34
874.33	225.34
874.64	225.31
874.95	225.33
875.26	225.28
875.56	225.28
875.87	225.22
876.18	225.19
876.49	225.27
876.80	225.27
877.11	225.26
877.42	225.30
877.73	225.29
878.04	225.27
878.35	225.27
878.66	225.27
878.96	225.27
879.27	225.27
879.58	225.25
879.89	225.24
880.20	225.26
880.51	225.25
880.82	225.27
881.12	225.30
881.43	225.30
881.74	225.31
882.05	225.31
882.36	225.31
882.67	225.32
882.97	225.23
883.28	225.22
883.59	225.17
883.90	225.14
884.21	225.17
884.51	225.17
884.82	225.14
885.13	225.12
885.44	225.15
885.74	225.16
886.05	225.17
886.36	225.19
886.67	225.16
886.98	225.20
887.28	225.19
887.59	225.16
887.90	225.13
888.20	225.15
888.51	225.16
888.82	225.15
889.13	225.13
889.43	225.22
889.74	225.20
890.05	225.24
890.35	225.25
890.66	225.22
890.97	225.18
891.28	225.18
891.58	225.20
891.89	225.14
892.20	225.09
892.50	225.06
892.81	225.05
893.12	225.03
893.42	224.99
893.73	224.96
894.04	224.96
894.34	224.99
894.65	224.99
894.95	224.99
895.26	225.01
895.57	225.05
895.87	224.91
896.18	224.88
896.48	224.87
896.79	224.87
897.10	224.86
897.40	224.89
897.71	224.90
898.01	224.84
898.32	224.86
898.63	224.89
898.93	224.92
899.24	224.91
899.54	224.89
899.85	224.86
900.15	224.84
900.46	224.83
900.76	224.81
901.07	224.77
901.38	224.75
901.68	224.74
901.99	224.70
902.29	224.74
902.60	224.73
902.90	224.72
903.21	224.71
903.51	224.72
903.82	224.72
904.12	224.71
904.43	224.73
904.73	224.73
905.03	224.74
905.34	224.84
905.64	224.82
905.95	224.84
906.25	224.87
906.56	224.88
906.86	224.88
907.17	224.86
907.47	224.89
907.77	224.90
908.08	224.90
908.38	224.90
908.69	224.93
908.99	224.99
909.30	224.99
909.60	225.01
909.90	225.03
910.21	225.05
910.51	225.04
910.81	225.05
911.12	225.06
911.42	225.07
911.73	224.95
912.03	225.00
912.33	225.02
912.64	225.03
912.94	225.05
913.24	225.05
913.55	225.07
913.85	225.07
914.15	225.10
914.46	225.10
914.76	225.11
915.06	225.11
915.37	225.08
915.67	225.10
915.97	225.09
916.27	225.08
916.58	225.08
916.88	225.07
917.18	225.09
917.49	225.19
917.79	225.17
918.09	225.21
918.39	225.23
918.70	225.20
919.00	225.23
919.30	225.29
919.60	225.28
919.91	225.27
920.21	225.28
920.51	225.28
920.81	225.25
921.12	225.25
921.42	225.22
921.72	225.24
922.02	225.26
922.32	225.26
922.63	225.25
922.93	225.28
923.23	225.32
923.53	225.31
923.83	225.25
924.13	225.27
924.44	225.28
924.74	225.30
925.04	225.37
925.34	225.36
925.64	225.31
925.94	225.35
926.24	225.41
926.55	225.39
926.85	225.41
927.15	225.45
927.45	225.47
927.75	225.50
928.05	225.51
928.35	225.51
928.65	225.55
928.95	225.54
929.26	225.48
929.56	225.47
929.86	225.47
930.16	225.43
930.46	225.41
930.76	225.39
931.06	225.32
931.36	225.27
931.66	225.28
931.96	225.28
932.26	225.25
932.56	225.21
932.86	225.23
933.16	225.18
933.46	225.16
933.76	225.12
934.06	225.14
934.36	225.16
934.66	225.13
934.96	225.11
935.26	225.10
935.56	225.11
935.86	225.12
936.16	225.10
936.46	225.08
936.76	225.06
937.06	225.04
937.36	225.08
937.66	225.06
937.96	225.03
938.26	224.99
938.56	224.99
938.86	224.98
939.16	224.97
939.46	225.00
939.76	225.05
940.06	225.04
940.35	224.97
940.65	224.89
940.95	224.90
941.25	224.84
941.55	224.84
941.85	224.85
942.15	224.85
942.45	224.87
942.75	224.86
943.04	224.89
943.34	224.91
943.64	224.88
943.94	224.86
944.24	224.85
944.54	224.82
944.84	224.79
945.13	224.77
945.43	224.73
945.73	224.70
946.03	224.66
946.33	224.67
946.62	224.67
946.92	224.69
947.22	224.69
947.52	224.74
947.82	224.77
948.11	224.75
948.41	224.75
948.71	224.74
949.01	224.75
949.31	224.71
949.60	224.70
949.90	224.72
950.20	224.71
950.50	224.73
950.79	224.74
951.09	224.78
951.39	224.78
951.69	224.79
951.98	224.84
952.28	224.85
952.58	224.83
952.87	224.87
953.17	224.89
953.47	224.89
953.76	224.91
954.06	224.89
954.36	224.86
954.66	224.83
954.95	224.86
955.25	224.89
955.55	224.89
955.84	224.88
956.14	224.90
956.44	224.93
956.73	224.93
957.03	224.96
957.32	224.97
957.62	224.97
957.92	225.01
958.21	225.00
958.51	225.10
958.81	225.11
959.10	225.08
959.40	225.11
959.69	225.14
959.99	225.15
960.29	225.15
960.58	225.12
960.88	225.20
961.17	225.18
961.47	225.19
961.76	225.19
962.06	225.20
962.36	225.18
962.65	225.16
962.95	225.15
963.24	225.16
963.54	225.17
963.83	225.18
964.13	225.21
964.42	225.16
964.72	225.09
965.01	225.09
965.31	225.12
965.60	225.08
965.90	225.15
966.19	225.08
966.49	225.07
966.78	225.12
967.08	225.09
967.37	225.09
967.67	225.05
967.96	225.06
968.26	225.07
968.55	225.09
968.85	225.09
969.14	225.09
969.43	225.06
969.73	225.05
970.02	225.07
970.32	225.04
970.61	225.03
970.91	225.02
971.20	225.01
971.49	225.01
971.79	224.99
972.08	224.88
972.38	224.90
972.67	224.91
972.96	224.88
973.26	224.86
973.55	224.86
973.85	224.88
974.14	224.90
974.43	224.87
974.73	224.85
975.02	224.84
975.31	224.84
975.61	224.83
975.90	224.80
976.19	224.77
976.49	224.73
976.78	224.77
977.07	224.76
977.37	224.73
977.66	224.77
977.95	224.78
978.24	224.82
978.54	224.84
978.83	224.82
979.12	224.85
979.42	224.83
979.71	224.82
980.00	224.79
980.29	224.81
980.59	224.81
980.88	224.80
981.17	224.78
981.46	224.80
981.76	224.81
982.05	224.85
982.34	224.84
982.63	224.84
982.93	224.80
983.22	224.82
983.51	224.85
983.80	224.82
984.09	224.83
984.39	224.81
984.68	224.79
984.97	224.81
985.26	224.76
985.55	224.80
985.85	224.77
986.14	224.81
986.43	224.78
986.72	224.77
987.01	224.78
987.30	224.82
987.59	224.79
987.89	224.77
988.18	224.73
988.47	224.75
988.76	224.76
989.05	224.79
989.34	224.76
989.63	224.82
989.92	224.82
990.22	224.79
990.51	224.79
990.80	224.78
991.09	224.79
991.38	224.84
991.67	224.83
991.96	224.83
992.25	224.85
992.54	224.84
992.83	224.82
993.12	224.80
993.41	224.80
993.70	224.84
993.99	224.87
994.28	224.92
994.58	224.93
994.87	224.94
995.16	224.95
995.45	224.92
995.74	224.85
996.03	224.86
996.32	224.87
996.61	224.89
996.90	224.92
997.19	224.91
997.48	224.89
997.77	224.90
998.06	224.94
998.34	224.89
998.63	224.93
998.92	224.95
999.21	224.96
999.50	224.96
999.79	224.95
1000.08	224.97
1000.37	224.96
1000.66	224.96
1000.95	224.97
1001.24	224.96
1001.53	225.00
1001.82	225.01
1002.11	225.00
1002.40	225.02
1002.68	225.01
1002.97	225.05
1003.26	225.04
1003.55	225.01
1003.84	225.03
1004.13	225.03
1004.42	225.04
1004.71	225.04
1004.99	225.06
1005.28	225.12
1005.57	225.12
1005.86	225.10
1006.15	225.09
1006.44	225.07
1006.72	225.05
1007.01	225.04
1007.30	225.06
1007.59	225.06
1007.88	225.05
1008.17	225.06
1008.45	225.01
1008.74	225.01
1009.03	224.95
1009.32	224.95
1009.60	224.94
1009.89	224.89
1010.18	224.88
1010.47	224.84
1010.76	224.83
1011.04	224.79
1011.33	224.75
1011.62	224.73
1011.91	224.73
1012.19	224.71
1012.48	224.73
1012.77	224.72
1013.05	224.74
1013.34	224.74
1013.63	224.71
1013.92	224.72
1014.20	224.69
1014.49	224.69
1014.78	224.67
1015.06	224.64
1015.35	224.65
1015.64	224.66
1015.92	224.70
1016.21	224.68
1016.50	224.69
1016.78	224.72
1017.07	224.73
1017.36	224.73
1017.64	224.72
1017.93	224.73
1018.22	224.73
1018.50	224.73
1018.79	224.72
1019.08	224.67
1019.36	224.68
1019.65	224.70
1019.93	224.68
1020.22	224.73
1020.51	224.81
1020.79	224.83
1021.08	224.85
1021.36	224.86
1021.65	224.50
1021.94	224.35
1022.22	225.22
1022.51	225.08
1022.79	224.76
1023.08	225.00
1023.36	226.16
1023.65	225.05
>>>>>End Processed Spectral Data<<<<<
