SpectraSuite Data File
++++++++++++++++++++++++++++++++++++
Date: Fri Feb 01 16:24:13 EST 2013
User: group
Dark Spectrum Present: No
Reference Spectrum Present: No
Number of Sampled Component Spectra: 1
Spectrometers: USB2E7196
Integration Time (usec): 35000 (USB2E7196)
Spectra Averaged: 100 (USB2E7196)
Boxcar Smoothing: 10 (USB2E7196)
Correct for Electrical Dark: No (USB2E7196)
Strobe/Lamp Enabled: No (USB2E7196)
Correct for Detector Non-linearity: No (USB2E7196)
Correct for Stray Light: No (USB2E7196)
Number of Pixels in Processed Spectrum: 2048
>>>>>Begin Processed Spectral Data<<<<<
339.09	0.00
339.48	214.20
339.86	215.56
340.24	217.32
340.63	217.75
341.01	221.05
341.39	221.01
341.78	222.06
342.16	223.31
342.54	224.63
342.93	212.39
343.31	223.13
343.69	223.63
344.07	224.12
344.46	224.52
344.84	224.96
345.22	225.21
345.60	225.46
345.99	225.64
346.37	225.78
346.75	225.86
347.13	225.94
347.52	225.98
347.90	226.03
348.28	226.08
348.66	226.11
349.05	226.11
349.43	226.14
349.81	226.21
350.19	226.28
350.57	226.38
350.96	226.47
351.34	226.56
351.72	226.66
352.10	226.74
352.48	226.83
352.87	226.86
353.25	226.91
353.63	226.96
354.01	227.04
354.39	227.10
354.77	227.15
355.15	227.26
355.54	227.31
355.92	227.36
356.30	227.42
356.68	227.57
357.06	227.64
357.44	227.71
357.82	227.78
358.20	227.84
358.58	227.87
358.97	227.93
359.35	227.99
359.73	228.07
360.11	228.11
360.49	228.15
360.87	228.18
361.25	228.22
361.63	228.29
362.01	228.31
362.39	228.33
362.77	228.41
363.15	228.40
363.53	228.44
363.91	228.46
364.29	228.46
364.67	228.39
365.05	228.41
365.43	228.42
365.81	228.43
366.19	228.49
366.57	228.52
366.95	228.49
367.33	228.47
367.71	228.46
368.09	228.48
368.47	228.44
368.85	228.41
369.23	228.42
369.61	228.38
369.99	228.40
370.37	228.38
370.75	228.41
371.13	228.36
371.51	228.31
371.89	228.30
372.27	228.27
372.65	228.21
373.03	228.19
373.41	228.14
373.78	228.10
374.16	227.98
374.54	227.94
374.92	227.88
375.30	227.83
375.68	227.76
376.06	227.68
376.44	227.62
376.82	227.54
377.19	227.48
377.57	227.41
377.95	227.30
378.33	227.23
378.71	227.08
379.09	227.05
379.47	226.99
379.84	226.89
380.22	226.81
380.60	226.73
380.98	226.63
381.36	226.58
381.73	226.48
382.11	226.44
382.49	226.35
382.87	226.33
383.25	226.24
383.62	226.31
384.00	226.25
384.38	226.22
384.76	226.23
385.13	226.23
385.51	226.17
385.89	226.13
386.27	226.10
386.64	226.10
387.02	226.05
387.40	226.04
387.78	226.00
388.15	225.97
388.53	225.94
388.91	225.91
389.29	225.87
389.66	225.88
390.04	225.83
390.42	225.82
390.79	225.76
391.17	225.76
391.55	225.60
391.92	225.59
392.30	225.61
392.68	225.58
393.05	225.56
393.43	225.57
393.81	225.58
394.18	225.59
394.56	225.59
394.94	225.62
395.31	225.63
395.69	225.67
396.06	225.69
396.44	225.71
396.82	225.72
397.19	225.81
397.57	225.80
397.95	225.90
398.32	225.90
398.70	225.97
399.07	226.04
399.45	226.13
399.82	226.17
400.20	226.22
400.58	226.27
400.95	226.29
401.33	226.39
401.70	226.54
402.08	226.62
402.45	226.69
402.83	226.78
403.20	226.83
403.58	226.93
403.95	227.11
404.33	227.22
404.71	227.37
405.08	227.56
405.46	227.71
405.83	227.85
406.21	228.01
406.58	228.16
406.96	228.34
407.33	228.51
407.70	228.72
408.08	228.96
408.45	229.19
408.83	229.43
409.20	229.65
409.58	229.84
409.95	230.06
410.33	230.31
410.70	230.57
411.08	230.87
411.45	231.20
411.82	231.47
412.20	231.82
412.57	232.21
412.95	232.50
413.32	232.91
413.69	233.30
414.07	233.73
414.44	234.21
414.82	234.67
415.19	235.20
415.56	235.75
415.94	236.31
416.31	236.93
416.68	237.55
417.06	238.25
417.43	238.90
417.81	239.71
418.18	240.53
418.55	241.37
418.93	242.28
419.30	243.13
419.67	244.06
420.04	245.07
420.42	246.06
420.79	247.24
421.16	248.36
421.54	249.55
421.91	250.73
422.28	251.99
422.66	253.33
423.03	254.62
423.40	255.95
423.77	257.35
424.15	258.79
424.52	260.28
424.89	261.88
425.26	263.42
425.64	264.89
426.01	266.47
426.38	268.13
426.75	269.80
427.13	271.55
427.50	273.34
427.87	275.18
428.24	277.03
428.61	278.74
428.99	280.69
429.36	282.74
429.73	284.85
430.10	286.86
430.47	288.92
430.85	291.02
431.22	293.22
431.59	295.59
431.96	297.79
432.33	300.27
432.70	302.64
433.08	305.46
433.45	308.04
433.82	310.65
434.19	313.48
434.56	316.28
434.93	318.92
435.30	321.49
435.68	324.34
436.05	327.19
436.42	329.98
436.79	332.53
437.16	335.22
437.53	338.01
437.90	340.79
438.27	343.46
438.64	346.28
439.01	348.88
439.38	351.10
439.75	353.29
440.13	355.75
440.50	358.03
440.87	359.82
441.24	361.72
441.61	363.87
441.98	365.37
442.35	367.10
442.72	368.90
443.09	370.75
443.46	371.73
443.83	372.31
444.20	372.78
444.57	373.54
444.94	373.87
445.31	374.25
445.68	374.58
446.05	374.69
446.42	374.35
446.79	373.94
447.16	373.49
447.53	373.17
447.90	372.04
448.27	370.94
448.64	369.39
449.01	368.31
449.37	366.35
449.74	364.48
450.11	362.27
450.48	359.82
450.85	357.28
451.22	355.14
451.59	353.13
451.96	351.22
452.33	348.64
452.70	346.27
453.07	343.45
453.43	340.60
453.80	337.85
454.17	335.13
454.54	332.58
454.91	329.88
455.28	327.19
455.65	324.71
456.02	322.25
456.38	320.15
456.75	317.48
457.12	315.21
457.49	312.98
457.86	310.85
458.23	309.01
458.59	307.04
458.96	304.99
459.33	303.17
459.70	301.32
460.07	299.88
460.43	298.16
460.80	296.51
461.17	295.07
461.54	293.59
461.91	292.23
462.27	290.78
462.64	289.56
463.01	288.22
463.38	286.94
463.74	285.59
464.11	284.43
464.48	283.39
464.85	282.28
465.21	281.43
465.58	280.49
465.95	279.41
466.32	278.47
466.68	277.57
467.05	276.69
467.42	275.79
467.78	274.84
468.15	273.97
468.52	273.31
468.88	272.45
469.25	271.64
469.62	271.00
469.98	270.36
470.35	269.73
470.72	269.15
471.08	268.51
471.45	267.97
471.82	267.43
472.18	266.87
472.55	266.45
472.92	265.93
473.28	265.48
473.65	265.04
474.02	264.65
474.38	264.29
474.75	263.95
475.11	263.65
475.48	263.42
475.85	263.20
476.21	262.99
476.58	262.81
476.94	262.70
477.31	262.54
477.67	262.39
478.04	262.27
478.41	262.20
478.77	262.24
479.14	262.19
479.50	262.23
479.87	262.31
480.23	262.42
480.60	262.49
480.96	262.62
481.33	262.85
481.69	263.03
482.06	263.23
482.42	263.42
482.79	263.63
483.15	263.94
483.52	264.31
483.88	264.70
484.25	265.09
484.61	265.55
484.98	265.99
485.34	266.54
485.71	267.15
486.07	267.76
486.44	268.33
486.80	269.03
487.17	269.74
487.53	270.55
487.90	271.42
488.26	272.37
488.62	273.31
488.99	274.25
489.35	275.31
489.72	276.44
490.08	277.68
490.44	278.98
490.81	280.30
491.17	281.65
491.54	283.10
491.90	284.69
492.26	286.28
492.63	288.03
492.99	289.80
493.36	291.66
493.72	293.73
494.08	295.85
494.45	298.06
494.81	300.41
495.17	302.85
495.54	305.40
495.90	308.11
496.26	310.92
496.63	313.93
496.99	317.03
497.35	320.29
497.72	323.67
498.08	327.14
498.44	330.83
498.80	334.75
499.17	338.82
499.53	343.00
499.89	347.41
500.26	351.95
500.62	356.69
500.98	361.63
501.34	366.70
501.71	372.07
502.07	377.52
502.43	383.15
502.79	388.99
503.16	395.05
503.52	401.28
503.88	407.68
504.24	414.32
504.60	421.23
504.97	428.36
505.33	435.75
505.69	443.49
506.05	451.25
506.41	459.18
506.78	467.40
507.14	475.81
507.50	484.54
507.86	493.56
508.22	502.74
508.59	512.00
508.95	521.55
509.31	531.33
509.67	541.45
510.03	551.73
510.39	562.28
510.75	573.07
511.12	584.06
511.48	595.39
511.84	606.86
512.20	618.41
512.56	630.37
512.92	642.52
513.28	654.86
513.64	667.32
514.00	679.99
514.37	692.89
514.73	705.95
515.09	718.92
515.45	732.16
515.81	745.77
516.17	759.76
516.53	773.94
516.89	787.97
517.25	802.19
517.61	816.64
517.97	831.08
518.33	845.48
518.69	860.18
519.05	875.07
519.41	890.13
519.77	905.60
520.13	920.94
520.49	936.26
520.85	951.67
521.21	967.38
521.57	983.59
521.93	999.25
522.29	1015.54
522.65	1031.78
523.01	1047.91
523.37	1063.82
523.73	1079.92
524.09	1095.89
524.45	1112.33
524.81	1128.88
525.17	1145.62
525.53	1162.40
525.89	1179.27
526.25	1196.19
526.61	1212.54
526.97	1229.26
527.33	1245.61
527.68	1262.23
528.04	1278.71
528.40	1295.19
528.76	1312.19
529.12	1328.74
529.48	1345.54
529.84	1361.60
530.20	1378.11
530.56	1395.14
530.91	1412.54
531.27	1429.20
531.63	1445.58
531.99	1462.09
532.35	1477.98
532.71	1493.78
533.07	1510.03
533.42	1525.83
533.78	1541.56
534.14	1557.84
534.50	1573.14
534.86	1588.93
535.21	1604.00
535.57	1619.62
535.93	1635.04
536.29	1649.70
536.65	1664.62
537.00	1679.36
537.36	1694.48
537.72	1708.98
538.08	1723.22
538.44	1736.85
538.79	1750.75
539.15	1764.43
539.51	1777.99
539.87	1792.25
540.22	1805.80
540.58	1819.42
540.94	1832.63
541.29	1845.52
541.65	1857.96
542.01	1871.01
542.37	1883.19
542.72	1895.52
543.08	1907.27
543.44	1919.69
543.79	1930.86
544.15	1941.79
544.51	1953.40
544.87	1964.29
545.22	1975.03
545.58	1985.04
545.94	1994.79
546.29	2004.52
546.65	2014.18
547.01	2023.35
547.36	2031.95
547.72	2040.42
548.07	2048.19
548.43	2056.39
548.79	2064.41
549.14	2071.92
549.50	2079.14
549.86	2086.81
550.21	2094.09
550.57	2101.24
550.92	2107.62
551.28	2114.72
551.64	2121.65
551.99	2127.93
552.35	2133.99
552.70	2140.13
553.06	2146.31
553.41	2152.64
553.77	2158.56
554.13	2164.75
554.48	2170.85
554.84	2176.28
555.19	2181.57
555.55	2186.75
555.90	2191.15
556.26	2196.00
556.61	2200.85
556.97	2205.25
557.32	2209.40
557.68	2213.57
558.03	2217.94
558.39	2221.67
558.74	2226.27
559.10	2230.30
559.45	2234.07
559.81	2238.46
560.16	2242.27
560.52	2245.48
560.87	2248.85
561.23	2251.58
561.58	2254.48
561.94	2257.05
562.29	2259.54
562.64	2262.23
563.00	2264.71
563.35	2268.16
563.71	2271.27
564.06	2274.56
564.42	2277.48
564.77	2279.98
565.12	2282.33
565.48	2284.20
565.83	2286.10
566.19	2287.40
566.54	2288.28
566.89	2289.44
567.25	2290.06
567.60	2291.47
567.96	2293.19
568.31	2294.15
568.66	2295.37
569.02	2295.91
569.37	2296.28
569.72	2297.19
570.08	2297.40
570.43	2297.57
570.78	2297.21
571.14	2295.75
571.49	2294.27
571.84	2293.93
572.20	2292.97
572.55	2291.90
572.90	2290.44
573.26	2289.19
573.61	2287.60
573.96	2285.83
574.31	2282.91
574.67	2280.08
575.02	2276.47
575.37	2273.25
575.72	2269.46
576.08	2265.90
576.43	2262.68
576.78	2259.14
577.13	2255.99
577.49	2252.98
577.84	2249.60
578.19	2245.88
578.54	2242.43
578.90	2238.34
579.25	2232.84
579.60	2227.90
579.95	2223.04
580.30	2218.06
580.66	2212.89
581.01	2207.94
581.36	2203.06
581.71	2198.98
582.06	2194.37
582.42	2189.97
582.77	2184.75
583.12	2180.26
583.47	2175.74
583.82	2170.79
584.17	2165.57
584.53	2160.07
584.88	2154.47
585.23	2148.67
585.58	2143.18
585.93	2137.64
586.28	2132.86
586.63	2127.80
586.98	2122.76
587.34	2117.95
587.69	2113.14
588.04	2107.92
588.39	2102.26
588.74	2095.84
589.09	2089.59
589.44	2082.96
589.79	2077.01
590.14	2071.41
590.49	2064.84
590.84	2058.49
591.19	2052.59
591.54	2046.18
591.89	2038.90
592.25	2032.09
592.60	2024.94
592.95	2017.41
593.30	2010.08
593.65	2002.54
594.00	1995.55
594.35	1988.39
594.70	1980.50
595.05	1973.44
595.40	1966.25
595.75	1958.78
596.10	1952.60
596.45	1945.95
596.80	1939.77
597.15	1933.21
597.50	1926.14
597.85	1919.73
598.19	1913.08
598.54	1905.85
598.89	1899.27
599.24	1893.40
599.59	1886.73
599.94	1880.62
600.29	1874.29
600.64	1867.73
600.99	1860.36
601.34	1853.70
601.69	1846.65
602.04	1839.94
602.39	1832.56
602.74	1825.63
603.08	1818.90
603.43	1812.24
603.78	1804.97
604.13	1797.77
604.48	1790.25
604.83	1783.37
605.18	1776.42
605.53	1768.60
605.87	1760.75
606.22	1753.46
606.57	1745.58
606.92	1738.42
607.27	1731.32
607.62	1724.54
607.96	1717.25
608.31	1710.72
608.66	1703.10
609.01	1695.58
609.36	1687.88
609.70	1679.86
610.05	1671.85
610.40	1664.22
610.75	1656.05
611.10	1648.36
611.44	1639.94
611.79	1632.16
612.14	1623.58
612.49	1614.41
612.83	1606.03
613.18	1597.88
613.53	1589.68
613.88	1581.06
614.22	1572.70
614.57	1564.05
614.92	1555.93
615.27	1548.43
615.61	1540.05
615.96	1531.99
616.31	1524.41
616.65	1517.02
617.00	1509.45
617.35	1501.78
617.70	1493.41
618.04	1484.82
618.39	1476.71
618.74	1469.11
619.08	1460.78
619.43	1453.12
619.78	1446.30
620.12	1439.06
620.47	1431.51
620.82	1423.47
621.16	1416.07
621.51	1408.53
621.85	1400.87
622.20	1392.34
622.55	1383.96
622.89	1376.20
623.24	1368.52
623.59	1361.11
623.93	1353.48
624.28	1346.29
624.62	1338.76
624.97	1331.61
625.32	1324.84
625.66	1317.75
626.01	1310.66
626.35	1303.12
626.70	1295.40
627.04	1287.59
627.39	1279.82
627.73	1272.39
628.08	1265.54
628.43	1258.14
628.77	1250.71
629.12	1243.22
629.46	1235.99
629.81	1228.63
630.15	1221.25
630.50	1213.86
630.84	1205.63
631.19	1197.78
631.53	1190.19
631.88	1182.72
632.22	1175.19
632.57	1167.89
632.91	1160.36
633.26	1152.88
633.60	1145.51
633.95	1138.31
634.29	1131.28
634.64	1124.54
634.98	1117.28
635.32	1110.01
635.67	1103.44
636.01	1096.80
636.36	1089.94
636.70	1083.46
637.05	1076.84
637.39	1070.42
637.73	1063.82
638.08	1057.87
638.42	1051.81
638.77	1045.42
639.11	1038.70
639.45	1032.24
639.80	1025.45
640.14	1019.09
640.49	1012.57
640.83	1006.34
641.17	1000.19
641.52	993.78
641.86	987.33
642.20	981.42
642.55	975.10
642.89	968.71
643.23	962.16
643.58	956.44
643.92	950.22
644.26	944.15
644.61	938.10
644.95	932.11
645.29	925.65
645.64	919.00
645.98	912.62
646.32	906.88
646.66	900.87
647.01	895.19
647.35	889.40
647.69	883.53
648.04	877.96
648.38	872.15
648.72	866.26
649.06	860.22
649.41	854.27
649.75	848.34
650.09	842.39
650.43	836.62
650.78	830.38
651.12	824.50
651.46	818.80
651.80	812.97
652.14	807.64
652.49	802.23
652.83	797.07
653.17	791.39
653.51	785.63
653.85	780.17
654.20	774.50
654.54	768.49
654.88	762.77
655.22	756.91
655.56	751.16
655.90	745.64
656.25	740.42
656.59	735.13
656.93	730.00
657.27	724.84
657.61	719.42
657.95	714.39
658.29	709.26
658.64	703.98
658.98	698.78
659.32	693.29
659.66	688.06
660.00	682.68
660.34	677.71
660.68	672.81
661.02	667.78
661.36	663.08
661.70	658.64
662.05	654.34
662.39	650.01
662.73	645.56
663.07	641.25
663.41	636.79
663.75	632.27
664.09	627.77
664.43	623.30
664.77	619.08
665.11	614.74
665.45	610.65
665.79	606.58
666.13	602.49
666.47	598.35
666.81	594.24
667.15	590.21
667.49	586.34
667.83	582.50
668.17	578.61
668.51	574.46
668.85	570.36
669.19	566.53
669.53	562.68
669.87	558.80
670.21	555.12
670.55	551.44
670.89	547.99
671.23	544.50
671.57	541.04
671.91	537.57
672.25	534.11
672.58	530.59
672.92	527.12
673.26	523.91
673.60	520.74
673.94	517.58
674.28	514.63
674.62	511.63
674.96	508.51
675.30	505.55
675.64	502.68
675.97	499.89
676.31	496.96
676.65	494.02
676.99	491.32
677.33	488.40
677.67	485.61
678.01	482.62
678.34	479.64
678.68	476.75
679.02	473.93
679.36	471.14
679.70	468.42
680.04	465.71
680.37	462.78
680.71	460.01
681.05	457.39
681.39	454.65
681.73	452.03
682.06	449.53
682.40	447.00
682.74	444.47
683.08	441.94
683.42	439.36
683.75	436.87
684.09	434.34
684.43	431.88
684.77	429.38
685.10	427.01
685.44	424.74
685.78	422.45
686.12	420.19
686.45	417.90
686.79	415.57
687.13	413.37
687.46	411.23
687.80	409.07
688.14	406.89
688.48	404.82
688.81	402.55
689.15	400.40
689.49	398.21
689.82	396.14
690.16	394.08
690.50	392.14
690.83	390.18
691.17	388.19
691.51	386.30
691.84	384.53
692.18	382.58
692.52	380.60
692.85	378.68
693.19	376.78
693.52	375.01
693.86	373.25
694.20	371.48
694.53	369.68
694.87	367.84
695.21	366.03
695.54	364.22
695.88	362.52
696.21	360.79
696.55	359.16
696.88	357.47
697.22	355.78
697.56	354.13
697.89	352.49
698.23	350.88
698.56	349.26
698.90	347.60
699.23	345.97
699.57	344.37
699.90	342.81
700.24	341.28
700.58	339.71
700.91	338.21
701.25	336.74
701.58	335.43
701.92	334.09
702.25	332.69
702.59	331.32
702.92	330.00
703.26	328.69
703.59	327.42
703.93	326.27
704.26	325.04
704.60	323.72
704.93	322.45
705.26	321.21
705.60	320.02
705.93	318.88
706.27	317.83
706.60	316.84
706.94	315.74
707.27	314.60
707.61	313.56
707.94	312.50
708.27	311.41
708.61	310.30
708.94	309.28
709.28	308.32
709.61	307.36
709.94	306.37
710.28	305.34
710.61	304.35
710.95	303.26
711.28	302.34
711.61	301.41
711.95	300.47
712.28	299.52
712.61	298.54
712.95	297.59
713.28	296.70
713.61	295.81
713.95	294.92
714.28	294.08
714.61	293.17
714.95	292.34
715.28	291.48
715.61	290.55
715.95	289.68
716.28	288.81
716.61	287.92
716.95	287.08
717.28	286.32
717.61	285.52
717.94	284.75
718.28	283.91
718.61	283.16
718.94	282.47
719.27	281.79
719.61	281.15
719.94	280.53
720.27	279.81
720.60	279.11
720.94	278.52
721.27	277.89
721.60	277.32
721.93	276.69
722.27	276.10
722.60	275.53
722.93	274.97
723.26	274.42
723.59	273.88
723.93	273.32
724.26	272.75
724.59	272.22
724.92	271.71
725.25	271.21
725.59	270.67
725.92	270.17
726.25	269.65
726.58	269.16
726.91	268.61
727.24	268.14
727.57	267.65
727.91	267.09
728.24	266.63
728.57	266.14
728.90	265.71
729.23	265.21
729.56	264.81
729.89	264.34
730.22	263.86
730.55	263.40
730.89	262.99
731.22	262.59
731.55	262.14
731.88	261.69
732.21	261.29
732.54	260.88
732.87	260.42
733.20	260.03
733.53	259.62
733.86	259.26
734.19	258.85
734.52	258.47
734.85	258.20
735.18	257.79
735.51	257.43
735.84	257.02
736.17	256.70
736.50	256.30
736.83	256.05
737.16	255.75
737.49	255.43
737.82	255.06
738.15	254.68
738.48	254.33
738.81	254.02
739.14	253.68
739.47	253.37
739.80	253.10
740.13	252.78
740.46	252.44
740.79	252.09
741.12	251.80
741.45	251.51
741.78	251.16
742.11	250.87
742.44	250.55
742.77	250.30
743.10	249.98
743.43	249.72
743.75	249.35
744.08	249.20
744.41	248.92
744.74	248.65
745.07	248.44
745.40	248.19
745.73	247.96
746.06	247.70
746.39	247.44
746.71	247.18
747.04	246.92
747.37	246.71
747.70	246.48
748.03	246.23
748.36	246.00
748.68	245.74
749.01	245.52
749.34	245.31
749.67	245.07
750.00	244.86
750.33	244.65
750.65	244.45
750.98	244.10
751.31	243.94
751.64	243.78
751.97	243.56
752.29	243.34
752.62	243.08
752.95	242.86
753.28	242.66
753.60	242.45
753.93	242.28
754.26	242.09
754.59	241.87
754.91	241.65
755.24	241.42
755.57	241.25
755.90	241.08
756.22	240.89
756.55	240.71
756.88	240.49
757.20	240.27
757.53	240.05
757.86	239.89
758.19	239.71
758.51	239.50
758.84	239.32
759.17	239.12
759.49	238.98
759.82	238.85
760.15	238.70
760.47	238.54
760.80	238.35
761.13	238.20
761.45	238.05
761.78	237.92
762.11	237.79
762.43	237.62
762.76	237.40
763.08	237.26
763.41	237.12
763.74	237.02
764.06	236.91
764.39	236.78
764.71	236.62
765.04	236.45
765.37	236.32
765.69	236.17
766.02	236.08
766.34	235.94
766.67	235.77
767.00	235.67
767.32	235.58
767.65	235.50
767.97	235.37
768.30	235.27
768.62	235.14
768.95	235.05
769.27	234.93
769.60	234.86
769.92	234.72
770.25	234.58
770.57	234.46
770.90	234.34
771.22	234.21
771.55	234.07
771.87	233.99
772.20	233.86
772.52	233.86
772.85	233.87
773.17	233.78
773.50	233.68
773.82	233.56
774.15	233.44
774.47	233.29
774.80	233.19
775.12	233.10
775.45	233.03
775.77	232.95
776.09	232.91
776.42	232.83
776.74	232.80
777.07	232.71
777.39	232.62
777.72	232.52
778.04	232.49
778.36	232.45
778.69	232.39
779.01	232.34
779.33	232.18
779.66	232.01
779.98	231.93
780.31	231.86
780.63	231.82
780.95	231.78
781.28	231.74
781.60	231.69
781.92	231.62
782.25	231.56
782.57	231.48
782.89	231.41
783.22	231.35
783.54	231.28
783.86	231.27
784.19	231.21
784.51	231.19
784.83	231.09
785.16	231.03
785.48	230.97
785.80	230.93
786.12	230.89
786.45	230.83
786.77	230.76
787.09	230.76
787.42	230.70
787.74	230.60
788.06	230.57
788.38	230.53
788.71	230.49
789.03	230.43
789.35	230.41
789.67	230.34
789.99	230.34
790.32	230.29
790.64	230.27
790.96	230.35
791.28	230.27
791.61	230.26
791.93	230.22
792.25	230.16
792.57	230.22
792.89	230.18
793.21	230.15
793.54	230.10
793.86	230.04
794.18	230.04
794.50	230.01
794.82	229.96
795.14	229.94
795.47	229.94
795.79	229.90
796.11	229.85
796.43	229.83
796.75	229.79
797.07	229.75
797.39	229.69
797.71	229.53
798.04	229.52
798.36	229.47
798.68	229.44
799.00	229.45
799.32	229.36
799.64	229.30
799.96	229.29
800.28	229.30
800.60	229.30
800.92	229.22
801.24	229.18
801.56	229.17
801.89	229.11
802.21	229.06
802.53	229.01
802.85	229.03
803.17	229.02
803.49	228.96
803.81	228.90
804.13	228.82
804.45	228.79
804.77	228.74
805.09	228.73
805.41	228.69
805.73	228.63
806.05	228.58
806.37	228.60
806.69	228.53
807.01	228.48
807.33	228.45
807.65	228.42
807.97	228.43
808.28	228.38
808.60	228.34
808.92	228.29
809.24	228.33
809.56	228.28
809.88	228.21
810.20	228.21
810.52	228.22
810.84	228.20
811.16	228.19
811.48	228.18
811.80	228.19
812.12	228.18
812.43	228.17
812.75	228.12
813.07	228.08
813.39	228.08
813.71	228.03
814.03	227.99
814.35	227.97
814.67	227.90
814.98	227.88
815.30	227.87
815.62	227.86
815.94	227.75
816.26	227.75
816.58	227.73
816.89	227.71
817.21	227.66
817.53	227.66
817.85	227.67
818.17	227.66
818.48	227.59
818.80	227.58
819.12	227.56
819.44	227.55
819.76	227.52
820.07	227.49
820.39	227.49
820.71	227.49
821.03	227.48
821.34	227.47
821.66	227.47
821.98	227.46
822.30	227.44
822.61	227.48
822.93	227.46
823.25	227.44
823.57	227.40
823.88	227.43
824.20	227.41
824.52	227.39
824.83	227.38
825.15	227.36
825.47	227.36
825.79	227.36
826.10	227.37
826.42	227.35
826.74	227.32
827.05	227.32
827.37	227.32
827.69	227.31
828.00	227.32
828.32	227.28
828.64	227.28
828.95	227.35
829.27	227.34
829.58	227.35
829.90	227.36
830.22	227.35
830.53	227.32
830.85	227.31
831.17	227.29
831.48	227.29
831.80	227.32
832.11	227.31
832.43	227.28
832.75	227.25
833.06	227.30
833.38	227.28
833.69	227.26
834.01	227.22
834.32	227.22
834.64	227.19
834.96	227.22
835.27	227.22
835.59	227.18
835.90	227.13
836.22	227.06
836.53	227.04
836.85	227.05
837.16	227.13
837.48	227.13
837.79	227.17
838.11	227.16
838.42	227.12
838.74	227.09
839.05	227.07
839.37	227.09
839.68	227.02
840.00	227.03
840.31	227.02
840.63	227.03
840.94	227.01
841.26	227.00
841.57	226.96
841.88	226.96
842.20	226.93
842.51	226.92
842.83	226.94
843.14	227.00
843.46	227.00
843.77	226.96
844.08	226.94
844.40	226.86
844.71	226.89
845.03	226.90
845.34	226.92
845.65	226.95
845.97	226.94
846.28	226.96
846.60	226.97
846.91	226.96
847.22	226.98
847.54	226.99
847.85	227.01
848.16	227.02
848.48	226.97
848.79	227.00
849.10	227.03
849.42	227.03
849.73	226.95
850.04	226.97
850.36	226.95
850.67	226.98
850.98	227.02
851.30	227.03
851.61	227.01
851.92	227.00
852.23	227.03
852.55	227.03
852.86	227.03
853.17	227.04
853.49	227.06
853.80	227.06
854.11	227.08
854.42	227.08
854.74	227.07
855.05	227.08
855.36	227.00
855.67	226.99
855.99	226.99
856.30	227.09
856.61	227.08
856.92	227.03
857.23	227.00
857.55	226.93
857.86	226.90
858.17	226.92
858.48	226.88
858.79	226.85
859.11	226.85
859.42	226.82
859.73	226.77
860.04	226.78
860.35	226.75
860.66	226.70
860.98	226.67
861.29	226.64
861.60	226.65
861.91	226.69
862.22	226.65
862.53	226.63
862.84	226.52
863.16	226.51
863.47	226.50
863.78	226.49
864.09	226.52
864.40	226.49
864.71	226.46
865.02	226.46
865.33	226.45
865.64	226.42
865.95	226.42
866.27	226.50
866.58	226.52
866.89	226.52
867.20	226.52
867.51	226.50
867.82	226.51
868.13	226.52
868.44	226.50
868.75	226.53
869.06	226.52
869.37	226.51
869.68	226.47
869.99	226.46
870.30	226.47
870.61	226.47
870.92	226.50
871.23	226.49
871.54	226.50
871.85	226.52
872.16	226.50
872.47	226.48
872.78	226.40
873.09	226.34
873.40	226.33
873.71	226.34
874.02	226.35
874.33	226.35
874.64	226.34
874.95	226.31
875.26	226.28
875.56	226.29
875.87	226.28
876.18	226.29
876.49	226.42
876.80	226.40
877.11	226.37
877.42	226.34
877.73	226.39
878.04	226.36
878.35	226.37
878.66	226.38
878.96	226.40
879.27	226.40
879.58	226.41
879.89	226.42
880.20	226.45
880.51	226.46
880.82	226.46
881.12	226.46
881.43	226.46
881.74	226.46
882.05	226.47
882.36	226.49
882.67	226.50
882.97	226.37
883.28	226.35
883.59	226.37
883.90	226.41
884.21	226.38
884.51	226.38
884.82	226.36
885.13	226.38
885.44	226.37
885.74	226.35
886.05	226.34
886.36	226.30
886.67	226.27
886.98	226.32
887.28	226.33
887.59	226.34
887.90	226.35
888.20	226.32
888.51	226.34
888.82	226.32
889.13	226.32
889.43	226.40
889.74	226.43
890.05	226.40
890.35	226.34
890.66	226.37
890.97	226.35
891.28	226.32
891.58	226.32
891.89	226.33
892.20	226.32
892.50	226.31
892.81	226.31
893.12	226.30
893.42	226.26
893.73	226.26
894.04	226.28
894.34	226.27
894.65	226.29
894.95	226.27
895.26	226.29
895.57	226.33
895.87	226.26
896.18	226.28
896.48	226.29
896.79	226.32
897.10	226.32
897.40	226.31
897.71	226.33
898.01	226.30
898.32	226.28
898.63	226.30
898.93	226.29
899.24	226.29
899.54	226.27
899.85	226.26
900.15	226.24
900.46	226.21
900.76	226.24
901.07	226.20
901.38	226.21
901.68	226.20
901.99	226.13
902.29	226.11
902.60	226.11
902.90	226.11
903.21	226.10
903.51	226.09
903.82	226.14
904.12	226.14
904.43	226.17
904.73	226.17
905.03	226.20
905.34	226.29
905.64	226.28
905.95	226.27
906.25	226.25
906.56	226.25
906.86	226.25
907.17	226.26
907.47	226.29
907.77	226.23
908.08	226.26
908.38	226.29
908.69	226.31
908.99	226.31
909.30	226.32
909.60	226.32
909.90	226.32
910.21	226.30
910.51	226.29
910.81	226.29
911.12	226.32
911.42	226.29
911.73	226.23
912.03	226.27
912.33	226.33
912.64	226.35
912.94	226.32
913.24	226.34
913.55	226.34
913.85	226.35
914.15	226.41
914.46	226.42
914.76	226.41
915.06	226.40
915.37	226.36
915.67	226.34
915.97	226.34
916.27	226.32
916.58	226.32
916.88	226.34
917.18	226.34
917.49	226.40
917.79	226.41
918.09	226.45
918.39	226.46
918.70	226.45
919.00	226.44
919.30	226.50
919.60	226.46
919.91	226.42
920.21	226.43
920.51	226.42
920.81	226.38
921.12	226.37
921.42	226.38
921.72	226.39
922.02	226.41
922.32	226.46
922.63	226.45
922.93	226.47
923.23	226.46
923.53	226.46
923.83	226.37
924.13	226.34
924.44	226.32
924.74	226.31
925.04	226.36
925.34	226.35
925.64	226.31
925.94	226.34
926.24	226.40
926.55	226.39
926.85	226.40
927.15	226.42
927.45	226.43
927.75	226.42
928.05	226.44
928.35	226.45
928.65	226.44
928.95	226.44
929.26	226.43
929.56	226.39
929.86	226.40
930.16	226.39
930.46	226.40
930.76	226.38
931.06	226.32
931.36	226.24
931.66	226.26
931.96	226.29
932.26	226.28
932.56	226.24
932.86	226.24
933.16	226.23
933.46	226.16
933.76	226.13
934.06	226.14
934.36	226.13
934.66	226.08
934.96	226.05
935.26	226.04
935.56	226.02
935.86	226.01
936.16	225.98
936.46	225.98
936.76	225.95
937.06	225.92
937.36	225.93
937.66	225.95
937.96	225.90
938.26	225.84
938.56	225.81
938.86	225.80
939.16	225.80
939.46	225.81
939.76	225.83
940.06	225.83
940.35	225.80
940.65	225.74
940.95	225.77
941.25	225.76
941.55	225.76
941.85	225.76
942.15	225.77
942.45	225.78
942.75	225.78
943.04	225.79
943.34	225.82
943.64	225.79
943.94	225.75
944.24	225.76
944.54	225.75
944.84	225.73
945.13	225.72
945.43	225.68
945.73	225.67
946.03	225.71
946.33	225.70
946.62	225.70
946.92	225.72
947.22	225.70
947.52	225.72
947.82	225.71
948.11	225.68
948.41	225.70
948.71	225.69
949.01	225.70
949.31	225.69
949.60	225.68
949.90	225.74
950.20	225.77
950.50	225.79
950.79	225.83
951.09	225.89
951.39	225.87
951.69	225.89
951.98	225.89
952.28	225.87
952.58	225.89
952.87	225.90
953.17	225.91
953.47	225.91
953.76	225.88
954.06	225.86
954.36	225.88
954.66	225.86
954.95	225.90
955.25	225.93
955.55	225.95
955.84	225.95
956.14	225.97
956.44	225.96
956.73	225.96
957.03	225.98
957.32	225.94
957.62	225.96
957.92	225.99
958.21	226.01
958.51	226.12
958.81	226.16
959.10	226.18
959.40	226.22
959.69	226.24
959.99	226.30
960.29	226.34
960.58	226.33
960.88	226.37
961.17	226.35
961.47	226.36
961.76	226.38
962.06	226.38
962.36	226.34
962.65	226.36
962.95	226.38
963.24	226.31
963.54	226.34
963.83	226.35
964.13	226.32
964.42	226.31
964.72	226.25
965.01	226.23
965.31	226.21
965.60	226.14
965.90	226.23
966.19	226.18
966.49	226.17
966.78	226.17
967.08	226.14
967.37	226.11
967.67	226.08
967.96	226.05
968.26	226.09
968.55	226.09
968.85	226.09
969.14	226.06
969.43	226.11
969.73	226.07
970.02	226.07
970.32	226.06
970.61	226.01
970.91	225.96
971.20	225.95
971.49	225.96
971.79	225.94
972.08	225.88
972.38	225.89
972.67	225.88
972.96	225.90
973.26	225.89
973.55	225.94
973.85	225.92
974.14	225.92
974.43	225.87
974.73	225.88
975.02	225.87
975.31	225.85
975.61	225.85
975.90	225.86
976.19	225.81
976.49	225.81
976.78	225.80
977.07	225.78
977.37	225.75
977.66	225.74
977.95	225.73
978.24	225.69
978.54	225.70
978.83	225.68
979.12	225.65
979.42	225.63
979.71	225.59
980.00	225.59
980.29	225.58
980.59	225.58
980.88	225.56
981.17	225.53
981.46	225.54
981.76	225.51
982.05	225.52
982.34	225.55
982.63	225.55
982.93	225.58
983.22	225.65
983.51	225.67
983.80	225.67
984.09	225.71
984.39	225.73
984.68	225.74
984.97	225.76
985.26	225.80
985.55	225.81
985.85	225.80
986.14	225.85
986.43	225.89
986.72	225.88
987.01	225.87
987.30	225.88
987.59	225.87
987.89	225.88
988.18	225.84
988.47	225.81
988.76	225.84
989.05	225.80
989.34	225.77
989.63	225.78
989.92	225.79
990.22	225.78
990.51	225.74
990.80	225.73
991.09	225.73
991.38	225.72
991.67	225.72
991.96	225.72
992.25	225.71
992.54	225.68
992.83	225.70
993.12	225.72
993.41	225.75
993.70	225.82
993.99	225.86
994.28	225.92
994.58	225.97
994.87	225.95
995.16	225.98
995.45	225.97
995.74	225.97
996.03	225.99
996.32	225.99
996.61	226.06
996.90	226.04
997.19	226.09
997.48	226.10
997.77	226.11
998.06	226.11
998.34	226.11
998.63	226.10
998.92	226.13
999.21	226.13
999.50	226.13
999.79	226.09
1000.08	226.08
1000.37	226.09
1000.66	226.04
1000.95	226.08
1001.24	226.09
1001.53	226.12
1001.82	226.11
1002.11	226.09
1002.40	226.10
1002.68	226.12
1002.97	226.19
1003.26	226.13
1003.55	226.11
1003.84	226.10
1004.13	226.12
1004.42	226.10
1004.71	226.10
1004.99	226.11
1005.28	226.14
1005.57	226.12
1005.86	226.13
1006.15	226.12
1006.44	226.10
1006.72	226.13
1007.01	226.09
1007.30	226.12
1007.59	226.10
1007.88	226.11
1008.17	226.12
1008.45	226.10
1008.74	226.05
1009.03	226.03
1009.32	226.03
1009.60	226.05
1009.89	226.02
1010.18	225.97
1010.47	225.98
1010.76	225.99
1011.04	225.93
1011.33	225.92
1011.62	225.94
1011.91	225.90
1012.19	225.93
1012.48	225.90
1012.77	225.88
1013.05	225.93
1013.34	225.89
1013.63	225.87
1013.92	225.85
1014.20	225.80
1014.49	225.80
1014.78	225.80
1015.06	225.74
1015.35	225.73
1015.64	225.74
1015.92	225.76
1016.21	225.78
1016.50	225.80
1016.78	225.79
1017.07	225.83
1017.36	225.85
1017.64	225.83
1017.93	225.86
1018.22	225.84
1018.50	225.89
1018.79	225.89
1019.08	225.85
1019.36	225.84
1019.65	225.85
1019.93	225.88
1020.22	225.97
1020.51	226.03
1020.79	226.01
1021.08	226.26
1021.36	226.29
1021.65	225.92
1021.94	225.91
1022.22	225.39
1022.51	225.83
1022.79	226.36
1023.08	226.76
1023.36	227.05
1023.65	225.50
>>>>>End Processed Spectral Data<<<<<
