SpectraSuite Data File
++++++++++++++++++++++++++++++++++++
Date: Fri Feb 01 15:43:48 EST 2013
User: group
Dark Spectrum Present: No
Reference Spectrum Present: No
Number of Sampled Component Spectra: 1
Spectrometers: USB2E7196
Integration Time (usec): 35000 (USB2E7196)
Spectra Averaged: 100 (USB2E7196)
Boxcar Smoothing: 10 (USB2E7196)
Correct for Electrical Dark: No (USB2E7196)
Strobe/Lamp Enabled: No (USB2E7196)
Correct for Detector Non-linearity: No (USB2E7196)
Correct for Stray Light: No (USB2E7196)
Number of Pixels in Processed Spectrum: 2048
>>>>>Begin Processed Spectral Data<<<<<
339.09	0.00
339.48	215.27
339.86	216.65
340.24	218.02
340.63	219.32
341.01	221.86
341.39	221.85
341.78	223.78
342.16	224.57
342.54	225.40
342.93	213.39
343.31	224.18
343.69	224.71
344.07	225.17
344.46	225.58
344.84	225.95
345.22	226.19
345.60	226.43
345.99	226.58
346.37	226.70
346.75	226.77
347.13	226.84
347.52	226.91
347.90	226.98
348.28	226.97
348.66	227.01
349.05	226.97
349.43	226.99
349.81	227.05
350.19	227.08
350.57	227.10
350.96	227.18
351.34	227.23
351.72	227.31
352.10	227.39
352.48	227.47
352.87	227.53
353.25	227.58
353.63	227.63
354.01	227.71
354.39	227.78
354.77	227.84
355.15	227.94
355.54	228.00
355.92	228.02
356.30	228.10
356.68	228.25
357.06	228.31
357.44	228.37
357.82	228.43
358.20	228.54
358.58	228.62
358.97	228.67
359.35	228.78
359.73	228.82
360.11	228.87
360.49	228.92
360.87	228.95
361.25	229.02
361.63	229.07
362.01	229.10
362.39	229.10
362.77	229.16
363.15	229.20
363.53	229.24
363.91	229.25
364.29	229.27
364.67	229.17
365.05	229.19
365.43	229.22
365.81	229.20
366.19	229.22
366.57	229.28
366.95	229.26
367.33	229.20
367.71	229.21
368.09	229.21
368.47	229.19
368.85	229.19
369.23	229.17
369.61	229.13
369.99	229.13
370.37	229.13
370.75	229.15
371.13	229.04
371.51	228.98
371.89	228.95
372.27	228.94
372.65	228.91
373.03	228.87
373.41	228.82
373.78	228.77
374.16	228.62
374.54	228.53
374.92	228.46
375.30	228.44
375.68	228.33
376.06	228.28
376.44	228.20
376.82	228.14
377.19	228.07
377.57	228.01
377.95	227.91
378.33	227.85
378.71	227.72
379.09	227.72
379.47	227.67
379.84	227.59
380.22	227.50
380.60	227.44
380.98	227.38
381.36	227.31
381.73	227.25
382.11	227.20
382.49	227.12
382.87	227.07
383.25	227.00
383.62	227.08
384.00	227.02
384.38	226.97
384.76	226.96
385.13	226.91
385.51	226.89
385.89	226.86
386.27	226.80
386.64	226.78
387.02	226.72
387.40	226.68
387.78	226.65
388.15	226.61
388.53	226.57
388.91	226.54
389.29	226.51
389.66	226.52
390.04	226.52
390.42	226.52
390.79	226.49
391.17	226.44
391.55	226.32
391.92	226.30
392.30	226.30
392.68	226.27
393.05	226.29
393.43	226.31
393.81	226.29
394.18	226.28
394.56	226.28
394.94	226.28
395.31	226.25
395.69	226.32
396.06	226.35
396.44	226.43
396.82	226.49
397.19	226.56
397.57	226.59
397.95	226.63
398.32	226.62
398.70	226.72
399.07	226.81
399.45	226.86
399.82	226.92
400.20	226.97
400.58	227.02
400.95	227.07
401.33	227.13
401.70	227.30
402.08	227.41
402.45	227.51
402.83	227.63
403.20	227.77
403.58	227.84
403.95	227.98
404.33	228.07
404.71	228.17
405.08	228.34
405.46	228.48
405.83	228.62
406.21	228.81
406.58	229.00
406.96	229.14
407.33	229.34
407.70	229.54
408.08	229.81
408.45	230.07
408.83	230.28
409.20	230.49
409.58	230.71
409.95	230.95
410.33	231.22
410.70	231.49
411.08	231.82
411.45	232.14
411.82	232.40
412.20	232.74
412.57	233.16
412.95	233.44
413.32	233.86
413.69	234.27
414.07	234.72
414.44	235.16
414.82	235.66
415.19	236.21
415.56	236.79
415.94	237.34
416.31	237.97
416.68	238.64
417.06	239.37
417.43	240.01
417.81	240.82
418.18	241.61
418.55	242.47
418.93	243.32
419.30	244.26
419.67	245.26
420.04	246.25
420.42	247.27
420.79	248.48
421.16	249.65
421.54	250.88
421.91	252.08
422.28	253.32
422.66	254.65
423.03	255.94
423.40	257.24
423.77	258.65
424.15	260.08
424.52	261.54
424.89	263.18
425.26	264.76
425.64	266.21
426.01	267.81
426.38	269.44
426.75	271.11
427.13	272.81
427.50	274.62
427.87	276.48
428.24	278.34
428.61	280.08
428.99	281.99
429.36	284.09
429.73	286.12
430.10	288.14
430.47	290.22
430.85	292.36
431.22	294.63
431.59	297.04
431.96	299.24
432.33	301.73
432.70	304.07
433.08	306.85
433.45	309.43
433.82	312.03
434.19	314.89
434.56	317.70
434.93	320.34
435.30	322.92
435.68	325.82
436.05	328.64
436.42	331.40
436.79	333.93
437.16	336.63
437.53	339.49
437.90	342.31
438.27	345.08
438.64	347.85
439.01	350.41
439.38	352.63
439.75	354.83
440.13	357.31
440.50	359.62
440.87	361.47
441.24	363.44
441.61	365.56
441.98	367.08
442.35	368.85
442.72	370.72
443.09	372.56
443.46	373.53
443.83	374.11
444.20	374.65
444.57	375.44
444.94	375.70
445.31	376.06
445.68	376.40
446.05	376.41
446.42	376.03
446.79	375.62
447.16	375.15
447.53	374.82
447.90	373.65
448.27	372.49
448.64	370.90
449.01	369.73
449.37	367.81
449.74	365.89
450.11	363.67
450.48	361.16
450.85	358.64
451.22	356.47
451.59	354.43
451.96	352.50
452.33	349.91
452.70	347.58
453.07	344.71
453.43	341.81
453.80	339.10
454.17	336.45
454.54	333.90
454.91	331.15
455.28	328.49
455.65	326.02
456.02	323.60
456.38	321.46
456.75	318.84
457.12	316.57
457.49	314.38
457.86	312.22
458.23	310.40
458.59	308.32
458.96	306.30
459.33	304.43
459.70	302.57
460.07	301.07
460.43	299.31
460.80	297.73
461.17	296.28
461.54	294.79
461.91	293.34
462.27	291.91
462.64	290.70
463.01	289.35
463.38	288.04
463.74	286.69
464.11	285.54
464.48	284.51
464.85	283.39
465.21	282.54
465.58	281.60
465.95	280.52
466.32	279.61
466.68	278.67
467.05	277.78
467.42	276.86
467.78	275.96
468.15	275.12
468.52	274.43
468.88	273.60
469.25	272.83
469.62	272.21
469.98	271.55
470.35	270.90
470.72	270.31
471.08	269.66
471.45	269.12
471.82	268.57
472.18	267.97
472.55	267.54
472.92	267.02
473.28	266.59
473.65	266.12
474.02	265.70
474.38	265.35
474.75	265.06
475.11	264.73
475.48	264.44
475.85	264.20
476.21	263.95
476.58	263.76
476.94	263.59
477.31	263.41
477.67	263.22
478.04	263.10
478.41	263.04
478.77	263.04
479.14	262.95
479.50	262.95
479.87	262.99
480.23	263.05
480.60	263.07
480.96	263.16
481.33	263.36
481.69	263.53
482.06	263.71
482.42	263.90
482.79	264.12
483.15	264.44
483.52	264.82
483.88	265.20
484.25	265.58
484.61	266.00
484.98	266.44
485.34	267.06
485.71	267.64
486.07	268.24
486.44	268.86
486.80	269.56
487.17	270.31
487.53	271.13
487.90	271.99
488.26	272.96
488.62	273.93
488.99	274.93
489.35	276.00
489.72	277.12
490.08	278.32
490.44	279.58
490.81	280.90
491.17	282.23
491.54	283.70
491.90	285.20
492.26	286.85
492.63	288.64
492.99	290.44
493.36	292.33
493.72	294.38
494.08	296.48
494.45	298.76
494.81	301.14
495.17	303.57
495.54	306.16
495.90	308.83
496.26	311.64
496.63	314.60
496.99	317.71
497.35	320.96
497.72	324.34
498.08	327.89
498.44	331.56
498.80	335.51
499.17	339.50
499.53	343.69
499.89	348.05
500.26	352.54
500.62	357.15
500.98	362.14
501.34	367.19
501.71	372.51
502.07	377.96
502.43	383.59
502.79	389.40
503.16	395.48
503.52	401.75
503.88	408.15
504.24	414.79
504.60	421.71
504.97	428.82
505.33	436.20
505.69	443.92
506.05	451.68
506.41	459.58
506.78	467.80
507.14	476.30
507.50	485.00
507.86	494.00
508.22	503.25
508.59	512.47
508.95	522.10
509.31	531.89
509.67	541.98
510.03	552.24
510.39	562.81
510.75	573.56
511.12	584.49
511.48	595.81
511.84	607.23
512.20	618.73
512.56	630.64
512.92	642.83
513.28	655.18
513.64	667.66
514.00	680.32
514.37	693.27
514.73	706.30
515.09	719.32
515.45	732.49
515.81	746.09
516.17	760.08
516.53	774.20
516.89	788.39
517.25	802.52
517.61	816.96
517.97	831.43
518.33	845.87
518.69	860.68
519.05	875.69
519.41	890.91
519.77	906.48
520.13	921.99
520.49	937.40
520.85	952.82
521.21	968.66
521.57	984.93
521.93	1000.66
522.29	1017.16
522.65	1033.50
523.01	1049.83
523.37	1065.79
523.73	1081.99
524.09	1098.07
524.45	1114.43
524.81	1131.11
525.17	1148.02
525.53	1164.90
525.89	1181.91
526.25	1198.72
526.61	1215.05
526.97	1231.73
527.33	1248.20
527.68	1264.75
528.04	1281.27
528.40	1297.92
528.76	1314.99
529.12	1331.55
529.48	1348.50
529.84	1364.54
530.20	1381.15
530.56	1398.25
530.91	1415.74
531.27	1432.48
531.63	1448.97
531.99	1465.47
532.35	1481.50
532.71	1497.36
533.07	1513.65
533.42	1529.48
533.78	1545.57
534.14	1561.86
534.50	1577.30
534.86	1593.11
535.21	1608.36
535.57	1624.23
535.93	1639.73
536.29	1654.39
536.65	1669.53
537.00	1684.37
537.36	1699.59
537.72	1714.05
538.08	1728.40
538.44	1742.11
538.79	1756.06
539.15	1769.79
539.51	1783.45
539.87	1797.75
540.22	1811.54
540.58	1825.34
540.94	1838.80
541.29	1851.67
541.65	1864.40
542.01	1877.55
542.37	1889.88
542.72	1902.32
543.08	1914.12
543.44	1926.34
543.79	1937.71
544.15	1948.74
544.51	1960.14
544.87	1971.13
545.22	1982.00
545.58	1992.34
545.94	2002.17
546.29	2011.98
546.65	2021.80
547.01	2031.25
547.36	2040.10
547.72	2048.42
548.07	2056.22
548.43	2064.28
548.79	2072.39
549.14	2079.91
549.50	2087.25
549.86	2095.04
550.21	2102.36
550.57	2109.53
550.92	2116.16
551.28	2123.17
551.64	2130.16
551.99	2136.71
552.35	2142.76
552.70	2148.92
553.06	2154.90
553.41	2161.24
553.77	2167.16
554.13	2173.19
554.48	2179.29
554.84	2184.58
555.19	2189.83
555.55	2194.89
555.90	2199.29
556.26	2204.01
556.61	2208.64
556.97	2212.88
557.32	2216.91
557.68	2220.97
558.03	2225.32
558.39	2229.07
558.74	2233.65
559.10	2237.55
559.45	2241.19
559.81	2245.61
560.16	2249.50
560.52	2252.60
560.87	2256.12
561.23	2258.89
561.58	2261.78
561.94	2264.32
562.29	2266.75
562.64	2269.55
563.00	2272.23
563.35	2275.86
563.71	2278.95
564.06	2282.21
564.42	2285.04
564.77	2287.49
565.12	2289.82
565.48	2291.62
565.83	2293.41
566.19	2294.68
566.54	2295.63
566.89	2296.71
567.25	2297.14
567.60	2298.33
567.96	2299.99
568.31	2300.69
568.66	2301.77
569.02	2302.40
569.37	2302.74
569.72	2303.67
570.08	2303.73
570.43	2303.62
570.78	2302.92
571.14	2301.39
571.49	2300.09
571.84	2299.88
572.20	2298.75
572.55	2297.69
572.90	2296.24
573.26	2294.96
573.61	2293.27
573.96	2291.28
574.31	2288.44
574.67	2285.56
575.02	2281.95
575.37	2278.49
575.72	2274.65
576.08	2271.26
576.43	2267.99
576.78	2264.28
577.13	2261.04
577.49	2257.91
577.84	2254.45
578.19	2250.71
578.54	2247.20
578.90	2242.88
579.25	2237.27
579.60	2232.30
579.95	2227.33
580.30	2222.19
580.66	2216.93
581.01	2211.99
581.36	2207.06
581.71	2202.77
582.06	2198.19
582.42	2193.65
582.77	2188.48
583.12	2183.87
583.47	2179.09
583.82	2173.90
584.17	2168.54
584.53	2162.89
584.88	2157.18
585.23	2151.44
585.58	2145.93
585.93	2140.40
586.28	2135.64
586.63	2130.62
586.98	2125.70
587.34	2120.87
587.69	2115.95
588.04	2110.60
588.39	2104.94
588.74	2098.60
589.09	2092.51
589.44	2085.81
589.79	2079.79
590.14	2074.28
590.49	2067.82
590.84	2061.55
591.19	2055.59
591.54	2049.14
591.89	2041.80
592.25	2035.06
592.60	2027.71
592.95	2020.15
593.30	2012.81
593.65	2005.17
594.00	1997.94
594.35	1990.55
594.70	1982.54
595.05	1975.25
595.40	1968.07
595.75	1960.43
596.10	1954.12
596.45	1947.40
596.80	1941.27
597.15	1934.71
597.50	1927.45
597.85	1920.90
598.19	1914.20
598.54	1907.01
598.89	1900.29
599.24	1894.45
599.59	1887.67
599.94	1881.61
600.29	1875.26
600.64	1868.68
600.99	1861.22
601.34	1854.47
601.69	1847.53
602.04	1840.60
602.39	1833.32
602.74	1826.41
603.08	1819.66
603.43	1812.82
603.78	1805.40
604.13	1798.11
604.48	1790.70
604.83	1783.84
605.18	1776.83
605.53	1768.75
605.87	1760.74
606.22	1753.52
606.57	1745.47
606.92	1738.19
607.27	1731.04
607.62	1724.03
607.96	1716.63
608.31	1710.09
608.66	1702.41
609.01	1694.72
609.36	1687.22
609.70	1679.21
610.05	1671.14
610.40	1663.44
610.75	1655.18
611.10	1647.49
611.44	1639.06
611.79	1631.05
612.14	1622.34
612.49	1613.29
612.83	1604.97
613.18	1596.95
613.53	1588.94
613.88	1580.44
614.22	1572.12
614.57	1563.44
614.92	1555.38
615.27	1547.81
615.61	1539.50
615.96	1531.60
616.31	1524.00
616.65	1516.56
617.00	1508.97
617.35	1501.38
617.70	1493.05
618.04	1484.54
618.39	1476.31
618.74	1468.76
619.08	1460.54
619.43	1453.05
619.78	1446.08
620.12	1438.85
620.47	1431.20
620.82	1423.08
621.16	1415.78
621.51	1408.30
621.85	1400.71
622.20	1392.24
622.55	1383.85
622.89	1375.93
623.24	1368.12
623.59	1360.77
623.93	1353.21
624.28	1345.96
624.62	1338.38
624.97	1331.28
625.32	1324.70
625.66	1317.73
626.01	1310.50
626.35	1303.00
626.70	1295.26
627.04	1287.38
627.39	1279.61
627.73	1272.35
628.08	1265.32
628.43	1257.89
628.77	1250.45
629.12	1242.87
629.46	1235.73
629.81	1228.36
630.15	1221.15
630.50	1213.84
630.84	1205.59
631.19	1197.81
631.53	1190.30
631.88	1182.72
632.22	1175.13
632.57	1167.73
632.91	1160.08
633.26	1152.60
633.60	1145.24
633.95	1138.13
634.29	1131.28
634.64	1124.63
634.98	1117.15
635.32	1109.96
635.67	1103.46
636.01	1096.79
636.36	1090.00
636.70	1083.50
637.05	1076.93
637.39	1070.48
637.73	1063.92
638.08	1058.15
638.42	1052.07
638.77	1045.60
639.11	1039.07
639.45	1032.59
639.80	1025.90
640.14	1019.50
640.49	1012.99
640.83	1006.68
641.17	1000.38
641.52	994.00
641.86	987.56
642.20	981.77
642.55	975.60
642.89	969.04
643.23	962.50
643.58	956.73
643.92	950.53
644.26	944.45
644.61	938.43
644.95	932.48
645.29	925.83
645.64	919.00
645.98	912.66
646.32	906.75
646.66	900.78
647.01	895.05
647.35	889.42
647.69	883.68
648.04	878.15
648.38	872.39
648.72	866.30
649.06	860.23
649.41	854.32
649.75	848.29
650.09	842.40
650.43	836.66
650.78	830.47
651.12	824.48
651.46	818.71
651.80	812.90
652.14	807.47
652.49	802.06
652.83	796.95
653.17	791.19
653.51	785.44
653.85	780.04
654.20	774.30
654.54	768.29
654.88	762.59
655.22	756.72
655.56	750.95
655.90	745.56
656.25	740.27
656.59	734.89
656.93	729.76
657.27	724.55
657.61	719.13
657.95	714.04
658.29	709.04
658.64	703.89
658.98	698.60
659.32	693.20
659.66	688.04
660.00	682.72
660.34	677.84
660.68	672.95
661.02	667.94
661.36	663.24
661.70	658.75
662.05	654.34
662.39	650.03
662.73	645.65
663.07	641.27
663.41	636.87
663.75	632.39
664.09	627.83
664.43	623.44
664.77	619.29
665.11	615.02
665.45	610.90
665.79	606.76
666.13	602.67
666.47	598.59
666.81	594.45
667.15	590.36
667.49	586.50
667.83	582.78
668.17	578.77
668.51	574.64
668.85	570.58
669.19	566.70
669.53	562.82
669.87	558.89
670.21	555.25
670.55	551.64
670.89	548.21
671.23	544.78
671.57	541.27
671.91	537.76
672.25	534.28
672.58	530.75
672.92	527.33
673.26	524.15
673.60	520.98
673.94	517.87
674.28	514.99
674.62	512.04
674.96	508.91
675.30	506.04
675.64	503.21
675.97	500.43
676.31	497.58
676.65	494.67
676.99	492.02
677.33	489.10
677.67	486.29
678.01	483.24
678.34	480.29
678.68	477.43
679.02	474.57
679.36	471.83
679.70	469.14
680.04	466.41
680.37	463.52
680.71	460.74
681.05	458.12
681.39	455.37
681.73	452.73
682.06	450.20
682.40	447.69
682.74	445.17
683.08	442.69
683.42	440.12
683.75	437.61
684.09	435.10
684.43	432.61
684.77	430.15
685.10	427.86
685.44	425.58
685.78	423.28
686.12	421.05
686.45	418.76
686.79	416.40
687.13	414.16
687.46	412.02
687.80	409.86
688.14	407.61
688.48	405.60
688.81	403.29
689.15	401.16
689.49	398.98
689.82	396.87
690.16	394.77
690.50	392.79
690.83	390.85
691.17	388.84
691.51	386.96
691.84	385.05
692.18	383.05
692.52	381.04
692.85	379.12
693.19	377.24
693.52	375.46
693.86	373.67
694.20	371.91
694.53	370.12
694.87	368.24
695.21	366.47
695.54	364.62
695.88	362.96
696.21	361.18
696.55	359.50
696.88	357.80
697.22	356.09
697.56	354.41
697.89	352.77
698.23	351.15
698.56	349.52
698.90	347.92
699.23	346.30
699.57	344.73
699.90	343.19
700.24	341.66
700.58	340.08
700.91	338.60
701.25	337.16
701.58	335.78
701.92	334.41
702.25	333.03
702.59	331.66
702.92	330.29
703.26	329.02
703.59	327.74
703.93	326.54
704.26	325.32
704.60	324.03
704.93	322.74
705.26	321.47
705.60	320.32
705.93	319.17
706.27	318.18
706.60	317.14
706.94	316.03
707.27	314.89
707.61	313.84
707.94	312.79
708.27	311.70
708.61	310.61
708.94	309.59
709.28	308.60
709.61	307.63
709.94	306.68
710.28	305.65
710.61	304.68
710.95	303.61
711.28	302.73
711.61	301.79
711.95	300.88
712.28	299.96
712.61	298.96
712.95	298.00
713.28	297.09
713.61	296.20
713.95	295.30
714.28	294.46
714.61	293.60
714.95	292.74
715.28	291.89
715.61	290.98
715.95	290.19
716.28	289.36
716.61	288.57
716.95	287.78
717.28	287.07
717.61	286.30
717.94	285.58
718.28	284.77
718.61	284.08
718.94	283.39
719.27	282.71
719.61	282.10
719.94	281.46
720.27	280.73
720.60	280.06
720.94	279.49
721.27	278.84
721.60	278.27
721.93	277.72
722.27	277.17
722.60	276.64
722.93	276.05
723.26	275.51
723.59	274.91
723.93	274.32
724.26	273.78
724.59	273.23
724.92	272.71
725.25	272.24
725.59	271.73
725.92	271.23
726.25	270.72
726.58	270.21
726.91	269.72
727.24	269.27
727.57	268.77
727.91	268.29
728.24	267.87
728.57	267.34
728.90	266.88
729.23	266.36
729.56	265.96
729.89	265.49
730.22	264.97
730.55	264.53
730.89	264.12
731.22	263.63
731.55	263.16
731.88	262.74
732.21	262.25
732.54	261.78
732.87	261.37
733.20	260.99
733.53	260.63
733.86	260.25
734.19	259.85
734.52	259.46
734.85	259.15
735.18	258.74
735.51	258.40
735.84	258.02
736.17	257.69
736.50	257.31
736.83	257.07
737.16	256.73
737.49	256.41
737.82	256.04
738.15	255.72
738.48	255.44
738.81	255.13
739.14	254.82
739.47	254.55
739.80	254.19
740.13	253.86
740.46	253.52
740.79	253.19
741.12	252.92
741.45	252.64
741.78	252.24
742.11	251.94
742.44	251.63
742.77	251.35
743.10	251.00
743.43	250.68
743.75	250.28
744.08	250.16
744.41	249.87
744.74	249.64
745.07	249.37
745.40	249.10
745.73	248.85
746.06	248.59
746.39	248.30
746.71	248.05
747.04	247.80
747.37	247.53
747.70	247.27
748.03	246.99
748.36	246.76
748.68	246.52
749.01	246.27
749.34	246.06
749.67	245.81
750.00	245.64
750.33	245.53
750.65	245.32
750.98	244.99
751.31	244.75
751.64	244.54
751.97	244.36
752.29	244.12
752.62	243.83
752.95	243.61
753.28	243.40
753.60	243.21
753.93	243.02
754.26	242.82
754.59	242.60
754.91	242.39
755.24	242.21
755.57	242.09
755.90	241.90
756.22	241.70
756.55	241.52
756.88	241.28
757.20	241.00
757.53	240.83
757.86	240.64
758.19	240.51
758.51	240.35
758.84	240.13
759.17	239.96
759.49	239.85
759.82	239.73
760.15	239.61
760.47	239.45
760.80	239.30
761.13	239.22
761.45	239.06
761.78	238.97
762.11	238.82
762.43	238.62
762.76	238.49
763.08	238.33
763.41	238.21
763.74	238.11
764.06	238.00
764.39	237.85
764.71	237.76
765.04	237.61
765.37	237.49
765.69	237.37
766.02	237.27
766.34	237.12
766.67	236.95
767.00	236.81
767.32	236.72
767.65	236.63
767.97	236.49
768.30	236.41
768.62	236.26
768.95	236.12
769.27	236.01
769.60	235.92
769.92	235.84
770.25	235.70
770.57	235.60
770.90	235.47
771.22	235.33
771.55	235.19
771.87	235.09
772.20	234.98
772.52	234.98
772.85	234.99
773.17	234.88
773.50	234.80
773.82	234.70
774.15	234.58
774.47	234.48
774.80	234.38
775.12	234.26
775.45	234.21
775.77	234.10
776.09	234.02
776.42	233.95
776.74	233.88
777.07	233.81
777.39	233.72
777.72	233.66
778.04	233.60
778.36	233.53
778.69	233.45
779.01	233.38
779.33	233.21
779.66	233.04
779.98	232.99
780.31	232.96
780.63	232.91
780.95	232.86
781.28	232.78
781.60	232.71
781.92	232.66
782.25	232.56
782.57	232.53
782.89	232.47
783.22	232.38
783.54	232.30
783.86	232.24
784.19	232.19
784.51	232.15
784.83	232.10
785.16	232.04
785.48	232.00
785.80	231.96
786.12	231.94
786.45	231.87
786.77	231.83
787.09	231.75
787.42	231.67
787.74	231.62
788.06	231.58
788.38	231.53
788.71	231.48
789.03	231.45
789.35	231.41
789.67	231.39
789.99	231.38
790.32	231.33
790.64	231.28
790.96	231.30
791.28	231.24
791.61	231.19
791.93	231.19
792.25	231.11
792.57	231.15
792.89	231.05
793.21	231.04
793.54	231.01
793.86	230.96
794.18	230.93
794.50	230.91
794.82	230.85
795.14	230.80
795.47	230.80
795.79	230.78
796.11	230.74
796.43	230.69
796.75	230.64
797.07	230.64
797.39	230.62
797.71	230.51
798.04	230.50
798.36	230.48
798.68	230.43
799.00	230.42
799.32	230.33
799.64	230.32
799.96	230.29
800.28	230.28
800.60	230.25
800.92	230.25
801.24	230.20
801.56	230.20
801.89	230.18
802.21	230.15
802.53	230.08
802.85	230.04
803.17	230.06
803.49	230.04
803.81	229.99
804.13	229.98
804.45	229.93
804.77	229.92
805.09	229.87
805.41	229.83
805.73	229.77
806.05	229.71
806.37	229.66
806.69	229.62
807.01	229.56
807.33	229.52
807.65	229.44
807.97	229.45
808.28	229.42
808.60	229.38
808.92	229.33
809.24	229.35
809.56	229.34
809.88	229.27
810.20	229.22
810.52	229.22
810.84	229.14
811.16	229.11
811.48	229.04
811.80	229.06
812.12	229.01
812.43	229.04
812.75	229.03
813.07	229.02
813.39	228.99
813.71	228.94
814.03	228.92
814.35	228.92
814.67	228.85
814.98	228.82
815.30	228.79
815.62	228.75
815.94	228.67
816.26	228.67
816.58	228.62
816.89	228.60
817.21	228.54
817.53	228.53
817.85	228.52
818.17	228.51
818.48	228.44
818.80	228.50
819.12	228.48
819.44	228.43
819.76	228.39
820.07	228.38
820.39	228.38
820.71	228.37
821.03	228.34
821.34	228.33
821.66	228.34
821.98	228.33
822.30	228.32
822.61	228.40
822.93	228.32
823.25	228.32
823.57	228.31
823.88	228.31
824.20	228.29
824.52	228.27
824.83	228.24
825.15	228.22
825.47	228.16
825.79	228.17
826.10	228.14
826.42	228.12
826.74	228.13
827.05	228.13
827.37	228.12
827.69	228.13
828.00	228.09
828.32	228.07
828.64	228.06
828.95	228.08
829.27	228.05
829.58	228.07
829.90	228.07
830.22	228.08
830.53	228.08
830.85	228.09
831.17	228.07
831.48	228.09
831.80	228.11
832.11	228.12
832.43	228.10
832.75	228.09
833.06	228.17
833.38	228.18
833.69	228.19
834.01	228.19
834.32	228.17
834.64	228.21
834.96	228.21
835.27	228.23
835.59	228.23
835.90	228.18
836.22	228.17
836.53	228.17
836.85	228.16
837.16	228.24
837.48	228.24
837.79	228.27
838.11	228.24
838.42	228.23
838.74	228.22
839.05	228.20
839.37	228.26
839.68	228.18
840.00	228.15
840.31	228.13
840.63	228.10
840.94	228.11
841.26	228.07
841.57	228.03
841.88	228.01
842.20	227.95
842.51	227.96
842.83	227.91
843.14	227.96
843.46	227.93
843.77	227.85
844.08	227.83
844.40	227.81
844.71	227.79
845.03	227.81
845.34	227.78
845.65	227.76
845.97	227.71
846.28	227.70
846.60	227.68
846.91	227.67
847.22	227.65
847.54	227.65
847.85	227.63
848.16	227.63
848.48	227.63
848.79	227.69
849.10	227.68
849.42	227.72
849.73	227.63
850.04	227.63
850.36	227.62
850.67	227.62
850.98	227.60
851.30	227.59
851.61	227.56
851.92	227.54
852.23	227.54
852.55	227.55
852.86	227.51
853.17	227.50
853.49	227.49
853.80	227.48
854.11	227.47
854.42	227.46
854.74	227.41
855.05	227.36
855.36	227.29
855.67	227.26
855.99	227.23
856.30	227.32
856.61	227.32
856.92	227.31
857.23	227.34
857.55	227.32
857.86	227.29
858.17	227.31
858.48	227.31
858.79	227.27
859.11	227.26
859.42	227.26
859.73	227.23
860.04	227.22
860.35	227.23
860.66	227.18
860.98	227.19
861.29	227.23
861.60	227.25
861.91	227.28
862.22	227.29
862.53	227.28
862.84	227.18
863.16	227.16
863.47	227.14
863.78	227.11
864.09	227.15
864.40	227.16
864.71	227.14
865.02	227.15
865.33	227.15
865.64	227.12
865.95	227.13
866.27	227.25
866.58	227.24
866.89	227.27
867.20	227.27
867.51	227.23
867.82	227.20
868.13	227.25
868.44	227.24
868.75	227.25
869.06	227.27
869.37	227.29
869.68	227.29
869.99	227.31
870.30	227.30
870.61	227.29
870.92	227.30
871.23	227.34
871.54	227.36
871.85	227.39
872.16	227.42
872.47	227.41
872.78	227.34
873.09	227.35
873.40	227.32
873.71	227.34
874.02	227.38
874.33	227.40
874.64	227.37
874.95	227.38
875.26	227.37
875.56	227.37
875.87	227.38
876.18	227.39
876.49	227.48
876.80	227.48
877.11	227.47
877.42	227.51
877.73	227.48
878.04	227.47
878.35	227.46
878.66	227.47
878.96	227.48
879.27	227.49
879.58	227.49
879.89	227.49
880.20	227.53
880.51	227.52
880.82	227.50
881.12	227.50
881.43	227.50
881.74	227.50
882.05	227.49
882.36	227.50
882.67	227.48
882.97	227.36
883.28	227.39
883.59	227.35
883.90	227.33
884.21	227.34
884.51	227.33
884.82	227.31
885.13	227.28
885.44	227.28
885.74	227.25
886.05	227.25
886.36	227.26
886.67	227.20
886.98	227.24
887.28	227.23
887.59	227.21
887.90	227.22
888.20	227.18
888.51	227.20
888.82	227.13
889.13	227.14
889.43	227.22
889.74	227.21
890.05	227.21
890.35	227.19
890.66	227.16
890.97	227.10
891.28	227.08
891.58	227.08
891.89	227.07
892.20	227.05
892.50	227.02
892.81	226.99
893.12	227.01
893.42	226.95
893.73	226.97
894.04	226.98
894.34	226.96
894.65	226.94
894.95	226.91
895.26	226.93
895.57	226.96
895.87	226.84
896.18	226.81
896.48	226.83
896.79	226.83
897.10	226.85
897.40	226.86
897.71	226.85
898.01	226.81
898.32	226.81
898.63	226.79
898.93	226.80
899.24	226.75
899.54	226.73
899.85	226.72
900.15	226.68
900.46	226.65
900.76	226.63
901.07	226.65
901.38	226.68
901.68	226.70
901.99	226.64
902.29	226.66
902.60	226.70
902.90	226.69
903.21	226.68
903.51	226.69
903.82	226.73
904.12	226.76
904.43	226.82
904.73	226.81
905.03	226.84
905.34	226.93
905.64	226.96
905.95	226.98
906.25	227.03
906.56	227.03
906.86	227.05
907.17	227.09
907.47	227.10
907.77	227.10
908.08	227.08
908.38	227.10
908.69	227.10
908.99	227.10
909.30	227.10
909.60	227.13
909.90	227.11
910.21	227.10
910.51	227.07
910.81	227.09
911.12	227.13
911.42	227.13
911.73	227.03
912.03	227.04
912.33	227.09
912.64	227.10
912.94	227.09
913.24	227.12
913.55	227.13
913.85	227.11
914.15	227.11
914.46	227.13
914.76	227.12
915.06	227.13
915.37	227.11
915.67	227.12
915.97	227.13
916.27	227.13
916.58	227.15
916.88	227.17
917.18	227.17
917.49	227.23
917.79	227.24
918.09	227.31
918.39	227.34
918.70	227.34
919.00	227.32
919.30	227.42
919.60	227.38
919.91	227.34
920.21	227.36
920.51	227.33
920.81	227.30
921.12	227.33
921.42	227.31
921.72	227.32
922.02	227.30
922.32	227.27
922.63	227.27
922.93	227.31
923.23	227.30
923.53	227.28
923.83	227.20
924.13	227.19
924.44	227.15
924.74	227.17
925.04	227.14
925.34	227.14
925.64	227.03
925.94	227.05
926.24	227.15
926.55	227.11
926.85	227.12
927.15	227.16
927.45	227.16
927.75	227.16
928.05	227.13
928.35	227.12
928.65	227.17
928.95	227.16
929.26	227.10
929.56	227.11
929.86	227.10
930.16	227.06
930.46	227.04
930.76	227.03
931.06	226.92
931.36	226.89
931.66	226.91
931.96	226.93
932.26	226.90
932.56	226.82
932.86	226.83
933.16	226.82
933.46	226.79
933.76	226.77
934.06	226.81
934.36	226.85
934.66	226.82
934.96	226.78
935.26	226.78
935.56	226.79
935.86	226.75
936.16	226.74
936.46	226.75
936.76	226.75
937.06	226.73
937.36	226.73
937.66	226.72
937.96	226.70
938.26	226.68
938.56	226.67
938.86	226.69
939.16	226.70
939.46	226.71
939.76	226.70
940.06	226.69
940.35	226.64
940.65	226.59
940.95	226.61
941.25	226.60
941.55	226.59
941.85	226.58
942.15	226.60
942.45	226.64
942.75	226.63
943.04	226.64
943.34	226.65
943.64	226.65
943.94	226.64
944.24	226.65
944.54	226.63
944.84	226.64
945.13	226.60
945.43	226.59
945.73	226.62
946.03	226.62
946.33	226.64
946.62	226.60
946.92	226.63
947.22	226.64
947.52	226.63
947.82	226.66
948.11	226.66
948.41	226.65
948.71	226.63
949.01	226.66
949.31	226.65
949.60	226.66
949.90	226.70
950.20	226.72
950.50	226.73
950.79	226.76
951.09	226.76
951.39	226.77
951.69	226.76
951.98	226.77
952.28	226.79
952.58	226.76
952.87	226.82
953.17	226.83
953.47	226.84
953.76	226.88
954.06	226.86
954.36	226.87
954.66	226.89
954.95	226.94
955.25	226.96
955.55	226.98
955.84	226.98
956.14	226.98
956.44	226.98
956.73	226.96
957.03	226.98
957.32	227.00
957.62	227.02
957.92	227.08
958.21	227.10
958.51	227.19
958.81	227.23
959.10	227.22
959.40	227.25
959.69	227.21
959.99	227.19
960.29	227.24
960.58	227.22
960.88	227.27
961.17	227.22
961.47	227.24
961.76	227.22
962.06	227.24
962.36	227.26
962.65	227.27
962.95	227.29
963.24	227.27
963.54	227.23
963.83	227.24
964.13	227.20
964.42	227.15
964.72	227.06
965.01	227.05
965.31	227.02
965.60	226.97
965.90	227.06
966.19	227.03
966.49	227.00
966.78	227.00
967.08	226.98
967.37	226.97
967.67	226.96
967.96	226.96
968.26	226.91
968.55	226.93
968.85	226.92
969.14	226.91
969.43	226.93
969.73	226.90
970.02	226.87
970.32	226.86
970.61	226.82
970.91	226.80
971.20	226.77
971.49	226.76
971.79	226.77
972.08	226.70
972.38	226.70
972.67	226.68
972.96	226.69
973.26	226.65
973.55	226.68
973.85	226.65
974.14	226.64
974.43	226.66
974.73	226.60
975.02	226.58
975.31	226.56
975.61	226.56
975.90	226.61
976.19	226.62
976.49	226.63
976.78	226.66
977.07	226.65
977.37	226.66
977.66	226.69
977.95	226.69
978.24	226.69
978.54	226.71
978.83	226.71
979.12	226.70
979.42	226.70
979.71	226.69
980.00	226.69
980.29	226.71
980.59	226.73
980.88	226.75
981.17	226.77
981.46	226.78
981.76	226.77
982.05	226.81
982.34	226.83
982.63	226.85
982.93	226.86
983.22	226.89
983.51	226.89
983.80	226.91
984.09	226.91
984.39	226.89
984.68	226.88
984.97	226.90
985.26	226.93
985.55	226.93
985.85	226.92
986.14	226.95
986.43	226.97
986.72	226.95
987.01	226.95
987.30	226.97
987.59	226.96
987.89	226.95
988.18	226.92
988.47	226.91
988.76	226.89
989.05	226.89
989.34	226.87
989.63	226.92
989.92	226.91
990.22	226.92
990.51	226.95
990.80	226.96
991.09	226.99
991.38	226.99
991.67	227.00
991.96	226.97
992.25	226.97
992.54	226.93
992.83	226.94
993.12	226.92
993.41	226.91
993.70	226.97
993.99	227.01
994.28	227.01
994.58	227.04
994.87	227.02
995.16	227.01
995.45	227.03
995.74	227.00
996.03	227.00
996.32	227.02
996.61	227.02
996.90	226.99
997.19	226.97
997.48	226.98
997.77	226.96
998.06	226.99
998.34	226.93
998.63	226.92
998.92	226.93
999.21	226.96
999.50	226.95
999.79	226.88
1000.08	226.87
1000.37	226.86
1000.66	226.82
1000.95	226.83
1001.24	226.86
1001.53	226.85
1001.82	226.82
1002.11	226.79
1002.40	226.79
1002.68	226.81
1002.97	226.91
1003.26	226.89
1003.55	226.84
1003.84	226.86
1004.13	226.87
1004.42	226.89
1004.71	226.86
1004.99	226.84
1005.28	226.86
1005.57	226.83
1005.86	226.82
1006.15	226.81
1006.44	226.78
1006.72	226.78
1007.01	226.75
1007.30	226.70
1007.59	226.69
1007.88	226.67
1008.17	226.67
1008.45	226.61
1008.74	226.56
1009.03	226.47
1009.32	226.43
1009.60	226.46
1009.89	226.46
1010.18	226.39
1010.47	226.37
1010.76	226.39
1011.04	226.38
1011.33	226.37
1011.62	226.36
1011.91	226.38
1012.19	226.38
1012.48	226.37
1012.77	226.39
1013.05	226.45
1013.34	226.46
1013.63	226.43
1013.92	226.47
1014.20	226.47
1014.49	226.51
1014.78	226.49
1015.06	226.44
1015.35	226.45
1015.64	226.42
1015.92	226.42
1016.21	226.46
1016.50	226.48
1016.78	226.47
1017.07	226.46
1017.36	226.44
1017.64	226.46
1017.93	226.45
1018.22	226.43
1018.50	226.43
1018.79	226.44
1019.08	226.38
1019.36	226.42
1019.65	226.44
1019.93	226.47
1020.22	226.50
1020.51	226.53
1020.79	226.52
1021.08	226.18
1021.36	226.20
1021.65	227.10
1021.94	226.09
1022.22	227.14
1022.51	226.81
1022.79	227.21
1023.08	227.20
1023.36	227.27
1023.65	225.97
>>>>>End Processed Spectral Data<<<<<
