SpectraSuite Data File
++++++++++++++++++++++++++++++++++++
Date: Fri Feb 01 15:02:00 EST 2013
User: group
Dark Spectrum Present: No
Reference Spectrum Present: No
Number of Sampled Component Spectra: 1
Spectrometers: USB2E7196
Integration Time (usec): 35000 (USB2E7196)
Spectra Averaged: 100 (USB2E7196)
Boxcar Smoothing: 10 (USB2E7196)
Correct for Electrical Dark: No (USB2E7196)
Strobe/Lamp Enabled: No (USB2E7196)
Correct for Detector Non-linearity: No (USB2E7196)
Correct for Stray Light: No (USB2E7196)
Number of Pixels in Processed Spectrum: 2048
>>>>>Begin Processed Spectral Data<<<<<
339.09	0.00
339.48	215.36
339.86	216.27
340.24	218.54
340.63	219.83
341.01	221.87
341.39	222.20
341.78	223.91
342.16	224.50
342.54	225.21
342.93	213.65
343.31	224.44
343.69	224.96
344.07	225.44
344.46	225.84
344.84	226.19
345.22	226.44
345.60	226.68
345.99	226.84
346.37	226.97
346.75	227.07
347.13	227.12
347.52	227.17
347.90	227.21
348.28	227.20
348.66	227.26
349.05	227.24
349.43	227.26
349.81	227.27
350.19	227.31
350.57	227.34
350.96	227.39
351.34	227.48
351.72	227.57
352.10	227.66
352.48	227.71
352.87	227.77
353.25	227.84
353.63	227.88
354.01	227.91
354.39	227.97
354.77	228.05
355.15	228.16
355.54	228.22
355.92	228.29
356.30	228.40
356.68	228.52
357.06	228.60
357.44	228.67
357.82	228.73
358.20	228.80
358.58	228.85
358.97	228.89
359.35	228.96
359.73	229.04
360.11	229.10
360.49	229.15
360.87	229.19
361.25	229.22
361.63	229.31
362.01	229.38
362.39	229.44
362.77	229.50
363.15	229.53
363.53	229.53
363.91	229.53
364.29	229.51
364.67	229.43
365.05	229.47
365.43	229.44
365.81	229.43
366.19	229.47
366.57	229.53
366.95	229.53
367.33	229.50
367.71	229.46
368.09	229.49
368.47	229.49
368.85	229.46
369.23	229.48
369.61	229.44
369.99	229.45
370.37	229.41
370.75	229.40
371.13	229.31
371.51	229.27
371.89	229.23
372.27	229.19
372.65	229.16
373.03	229.12
373.41	229.09
373.78	229.05
374.16	228.95
374.54	228.84
374.92	228.78
375.30	228.71
375.68	228.59
376.06	228.49
376.44	228.39
376.82	228.34
377.19	228.28
377.57	228.18
377.95	228.06
378.33	228.00
378.71	227.86
379.09	227.82
379.47	227.78
379.84	227.69
380.22	227.62
380.60	227.53
380.98	227.42
381.36	227.33
381.73	227.20
382.11	227.13
382.49	227.08
382.87	227.00
383.25	226.94
383.62	227.01
384.00	226.94
384.38	226.93
384.76	226.91
385.13	226.86
385.51	226.80
385.89	226.77
386.27	226.68
386.64	226.65
387.02	226.58
387.40	226.54
387.78	226.52
388.15	226.51
388.53	226.44
388.91	226.42
389.29	226.38
389.66	226.38
390.04	226.36
390.42	226.32
390.79	226.31
391.17	226.30
391.55	226.17
391.92	226.18
392.30	226.16
392.68	226.10
393.05	226.07
393.43	226.08
393.81	226.10
394.18	226.13
394.56	226.14
394.94	226.20
395.31	226.19
395.69	226.21
396.06	226.23
396.44	226.27
396.82	226.31
397.19	226.42
397.57	226.47
397.95	226.56
398.32	226.63
398.70	226.73
399.07	226.82
399.45	226.91
399.82	226.99
400.20	227.05
400.58	227.14
400.95	227.21
401.33	227.32
401.70	227.46
402.08	227.54
402.45	227.66
402.83	227.76
403.20	227.88
403.58	228.01
403.95	228.16
404.33	228.31
404.71	228.48
405.08	228.66
405.46	228.84
405.83	228.99
406.21	229.14
406.58	229.29
406.96	229.44
407.33	229.64
407.70	229.81
408.08	230.11
408.45	230.35
408.83	230.62
409.20	230.85
409.58	231.03
409.95	231.32
410.33	231.65
410.70	231.91
411.08	232.20
411.45	232.49
411.82	232.78
412.20	233.16
412.57	233.56
412.95	233.85
413.32	234.25
413.69	234.63
414.07	235.09
414.44	235.54
414.82	236.03
415.19	236.58
415.56	237.13
415.94	237.68
416.31	238.32
416.68	238.94
417.06	239.66
417.43	240.38
417.81	241.13
418.18	241.86
418.55	242.73
418.93	243.62
419.30	244.52
419.67	245.46
420.04	246.41
420.42	247.42
420.79	248.60
421.16	249.74
421.54	250.94
421.91	252.14
422.28	253.41
422.66	254.75
423.03	256.03
423.40	257.38
423.77	258.75
424.15	260.19
424.52	261.64
424.89	263.24
425.26	264.81
425.64	266.25
426.01	267.83
426.38	269.48
426.75	271.14
427.13	272.84
427.50	274.68
427.87	276.58
428.24	278.37
428.61	280.11
428.99	282.07
429.36	284.18
429.73	286.24
430.10	288.29
430.47	290.36
430.85	292.49
431.22	294.73
431.59	297.16
431.96	299.41
432.33	301.92
432.70	304.25
433.08	307.02
433.45	309.70
433.82	312.29
434.19	315.19
434.56	318.02
434.93	320.71
435.30	323.33
435.68	326.21
436.05	329.09
436.42	331.91
436.79	334.47
437.16	337.18
437.53	340.06
437.90	342.85
438.27	345.59
438.64	348.48
439.01	351.07
439.38	353.32
439.75	355.52
440.13	358.01
440.50	360.35
440.87	362.23
441.24	364.20
441.61	366.40
441.98	367.90
442.35	369.72
442.72	371.57
443.09	373.42
443.46	374.41
443.83	375.03
444.20	375.57
444.57	376.38
444.94	376.66
445.31	376.97
445.68	377.33
446.05	377.41
446.42	376.98
446.79	376.54
447.16	376.08
447.53	375.70
447.90	374.53
448.27	373.42
448.64	371.84
449.01	370.66
449.37	368.65
449.74	366.73
450.11	364.50
450.48	361.98
450.85	359.41
451.22	357.28
451.59	355.26
451.96	353.29
452.33	350.68
452.70	348.30
453.07	345.49
453.43	342.58
453.80	339.83
454.17	337.16
454.54	334.63
454.91	331.91
455.28	329.28
455.65	326.77
456.02	324.27
456.38	322.09
456.75	319.44
457.12	317.23
457.49	315.02
457.86	312.78
458.23	310.95
458.59	308.91
458.96	306.78
459.33	304.91
459.70	303.02
460.07	301.50
460.43	299.77
460.80	298.09
461.17	296.66
461.54	295.10
461.91	293.66
462.27	292.23
462.64	290.94
463.01	289.57
463.38	288.29
463.74	286.95
464.11	285.78
464.48	284.75
464.85	283.61
465.21	282.74
465.58	281.83
465.95	280.73
466.32	279.77
466.68	278.85
467.05	277.94
467.42	277.05
467.78	276.08
468.15	275.21
468.52	274.58
468.88	273.66
469.25	272.92
469.62	272.27
469.98	271.54
470.35	270.91
470.72	270.28
471.08	269.59
471.45	269.05
471.82	268.48
472.18	267.88
472.55	267.44
472.92	266.87
473.28	266.41
473.65	265.96
474.02	265.54
474.38	265.16
474.75	264.82
475.11	264.49
475.48	264.25
475.85	264.01
476.21	263.74
476.58	263.58
476.94	263.39
477.31	263.20
477.67	263.06
478.04	262.96
478.41	262.89
478.77	262.91
479.14	262.81
479.50	262.85
479.87	262.91
480.23	263.00
480.60	263.06
480.96	263.16
481.33	263.37
481.69	263.54
482.06	263.74
482.42	263.98
482.79	264.20
483.15	264.51
483.52	264.89
483.88	265.25
484.25	265.65
484.61	266.11
484.98	266.57
485.34	267.17
485.71	267.75
486.07	268.37
486.44	268.96
486.80	269.70
487.17	270.41
487.53	271.20
487.90	272.02
488.26	272.95
488.62	273.92
488.99	274.88
489.35	275.94
489.72	277.05
490.08	278.22
490.44	279.46
490.81	280.79
491.17	282.11
491.54	283.59
491.90	285.12
492.26	286.77
492.63	288.48
492.99	290.22
493.36	292.09
493.72	294.10
494.08	296.21
494.45	298.42
494.81	300.80
495.17	303.27
495.54	305.79
495.90	308.45
496.26	311.24
496.63	314.18
496.99	317.27
497.35	320.55
497.72	323.95
498.08	327.46
498.44	331.09
498.80	335.03
499.17	339.03
499.53	343.16
499.89	347.47
500.26	351.97
500.62	356.66
500.98	361.63
501.34	366.68
501.71	371.97
502.07	377.34
502.43	382.94
502.79	388.70
503.16	394.79
503.52	401.03
503.88	407.42
504.24	414.03
504.60	420.89
504.97	427.94
505.33	435.23
505.69	442.88
506.05	450.65
506.41	458.55
506.78	466.67
507.14	475.09
507.50	483.78
507.86	492.71
508.22	501.84
508.59	511.01
508.95	520.58
509.31	530.37
509.67	540.55
510.03	550.82
510.39	561.33
510.75	572.16
511.12	583.10
511.48	594.41
511.84	605.90
512.20	617.40
512.56	629.35
512.92	641.51
513.28	653.82
513.64	666.27
514.00	678.97
514.37	691.90
514.73	704.93
515.09	717.99
515.45	731.31
515.81	744.93
516.17	758.95
516.53	773.05
516.89	787.23
517.25	801.31
517.61	815.70
517.97	830.18
518.33	844.60
518.69	859.38
519.05	874.43
519.41	889.58
519.77	905.13
520.13	920.68
520.49	936.05
520.85	951.53
521.21	967.24
521.57	983.51
521.93	999.37
522.29	1015.80
522.65	1032.15
523.01	1048.43
523.37	1064.49
523.73	1080.68
524.09	1096.90
524.45	1113.27
524.81	1130.08
525.17	1147.05
525.53	1164.07
525.89	1181.06
526.25	1197.96
526.61	1214.36
526.97	1231.16
527.33	1247.77
527.68	1264.39
528.04	1281.01
528.40	1297.77
528.76	1315.05
529.12	1331.67
529.48	1348.68
529.84	1364.72
530.20	1381.42
530.56	1398.55
530.91	1416.01
531.27	1432.83
531.63	1449.30
531.99	1465.96
532.35	1481.90
532.71	1497.80
533.07	1514.14
533.42	1530.01
533.78	1546.12
534.14	1562.48
534.50	1577.95
534.86	1593.82
535.21	1609.07
535.57	1625.19
535.93	1640.70
536.29	1655.48
536.65	1670.76
537.00	1685.57
537.36	1701.03
537.72	1715.61
538.08	1730.14
538.44	1744.10
538.79	1758.18
539.15	1772.01
539.51	1785.91
539.87	1800.45
540.22	1814.26
540.58	1828.04
540.94	1841.66
541.29	1854.76
541.65	1867.52
542.01	1880.74
542.37	1893.27
542.72	1905.94
543.08	1917.62
543.44	1930.11
543.79	1941.51
544.15	1952.37
544.51	1963.90
544.87	1974.99
545.22	1985.89
545.58	1996.13
545.94	2005.94
546.29	2015.85
546.65	2025.79
547.01	2034.94
547.36	2043.60
547.72	2052.08
548.07	2060.10
548.43	2068.18
548.79	2076.16
549.14	2083.80
549.50	2091.24
549.86	2098.87
550.21	2106.02
550.57	2113.23
550.92	2119.76
551.28	2126.81
551.64	2134.06
551.99	2140.74
552.35	2146.88
552.70	2152.93
553.06	2158.97
553.41	2165.18
553.77	2170.97
554.13	2176.99
554.48	2183.03
554.84	2188.34
555.19	2193.75
555.55	2198.69
555.90	2203.05
556.26	2207.83
556.61	2212.42
556.97	2216.58
557.32	2220.61
557.68	2224.84
558.03	2229.26
558.39	2233.04
558.74	2237.61
559.10	2241.33
559.45	2244.74
559.81	2249.06
560.16	2252.90
560.52	2255.97
560.87	2259.42
561.23	2262.19
561.58	2265.04
561.94	2267.72
562.29	2270.17
562.64	2272.80
563.00	2275.40
563.35	2279.00
563.71	2281.95
564.06	2285.15
564.42	2288.02
564.77	2290.60
565.12	2292.59
565.48	2294.23
565.83	2295.94
566.19	2297.00
566.54	2297.84
566.89	2298.92
567.25	2299.30
567.60	2300.49
567.96	2302.00
568.31	2302.68
568.66	2303.53
569.02	2303.94
569.37	2303.97
569.72	2304.67
570.08	2304.43
570.43	2304.31
570.78	2303.32
571.14	2301.77
571.49	2300.24
571.84	2299.69
572.20	2298.22
572.55	2297.12
572.90	2295.48
573.26	2293.91
573.61	2292.14
573.96	2290.24
574.31	2287.08
574.67	2283.97
575.02	2280.18
575.37	2276.64
575.72	2272.65
576.08	2269.24
576.43	2265.74
576.78	2262.11
577.13	2258.92
577.49	2255.94
577.84	2252.33
578.19	2248.68
578.54	2244.84
578.90	2240.30
579.25	2234.73
579.60	2229.69
579.95	2224.47
580.30	2219.25
580.66	2214.00
581.01	2209.04
581.36	2204.05
581.71	2199.91
582.06	2195.24
582.42	2190.75
582.77	2185.46
583.12	2180.73
583.47	2175.92
583.82	2170.80
584.17	2165.26
584.53	2159.55
584.88	2153.61
585.23	2147.80
585.58	2142.07
585.93	2136.69
586.28	2132.05
586.63	2126.69
586.98	2121.59
587.34	2116.90
587.69	2111.93
588.04	2106.50
588.39	2100.83
588.74	2094.14
589.09	2087.83
589.44	2081.06
589.79	2074.82
590.14	2069.14
590.49	2062.59
590.84	2056.04
591.19	2049.96
591.54	2043.48
591.89	2035.97
592.25	2029.02
592.60	2021.63
592.95	2013.93
593.30	2006.36
593.65	1998.57
594.00	1991.62
594.35	1984.26
594.70	1976.09
595.05	1968.74
595.40	1961.29
595.75	1953.51
596.10	1947.22
596.45	1940.26
596.80	1933.88
597.15	1927.24
597.50	1920.02
597.85	1913.37
598.19	1906.66
598.54	1899.51
598.89	1892.87
599.24	1886.88
599.59	1880.11
599.94	1873.83
600.29	1867.41
600.64	1860.79
600.99	1853.31
601.34	1846.25
601.69	1839.20
602.04	1832.22
602.39	1824.81
602.74	1818.03
603.08	1811.27
603.43	1804.52
603.78	1797.29
604.13	1790.15
604.48	1782.74
604.83	1775.89
605.18	1768.90
605.53	1760.86
605.87	1752.84
606.22	1745.58
606.57	1737.74
606.92	1730.58
607.27	1723.18
607.62	1716.33
607.96	1709.04
608.31	1702.40
608.66	1694.73
609.01	1687.03
609.36	1679.55
609.70	1671.57
610.05	1663.54
610.40	1655.87
610.75	1647.56
611.10	1639.90
611.44	1631.51
611.79	1623.58
612.14	1614.84
612.49	1605.80
612.83	1597.49
613.18	1589.44
613.53	1581.41
613.88	1572.81
614.22	1564.55
614.57	1556.10
614.92	1548.10
615.27	1540.66
615.61	1532.32
615.96	1524.48
616.31	1517.08
616.65	1509.76
617.00	1502.23
617.35	1494.57
617.70	1486.14
618.04	1477.52
618.39	1469.30
618.74	1461.70
619.08	1453.38
619.43	1445.90
619.78	1439.03
620.12	1431.90
620.47	1424.31
620.82	1416.11
621.16	1408.74
621.51	1401.12
621.85	1393.64
622.20	1385.18
622.55	1376.83
622.89	1369.09
623.24	1361.53
623.59	1354.14
623.93	1346.62
624.28	1339.43
624.62	1331.95
624.97	1324.83
625.32	1318.19
625.66	1311.26
626.01	1304.08
626.35	1296.61
626.70	1288.82
627.04	1281.16
627.39	1273.38
627.73	1265.99
628.08	1259.11
628.43	1251.80
628.77	1244.47
629.12	1236.94
629.46	1229.79
629.81	1222.39
630.15	1215.20
630.50	1207.88
630.84	1199.70
631.19	1191.78
631.53	1184.36
631.88	1176.83
632.22	1169.30
632.57	1162.11
632.91	1154.59
633.26	1147.24
633.60	1140.06
633.95	1133.17
634.29	1126.13
634.64	1119.59
634.98	1112.36
635.32	1105.26
635.67	1098.75
636.01	1092.16
636.36	1085.42
636.70	1078.91
637.05	1072.33
637.39	1065.87
637.73	1059.24
638.08	1053.38
638.42	1047.48
638.77	1040.98
639.11	1034.39
639.45	1028.10
639.80	1021.38
640.14	1014.98
640.49	1008.53
640.83	1002.20
641.17	995.92
641.52	989.67
641.86	983.26
642.20	977.45
642.55	971.15
642.89	964.72
643.23	958.19
643.58	952.44
643.92	946.27
644.26	940.22
644.61	934.20
644.95	928.33
645.29	921.76
645.64	915.04
645.98	908.81
646.32	903.08
646.66	897.10
647.01	891.41
647.35	885.71
647.69	879.94
648.04	874.42
648.38	868.60
648.72	862.56
649.06	856.43
649.41	850.68
649.75	844.65
650.09	838.73
650.43	832.92
650.78	826.77
651.12	820.93
651.46	815.29
651.80	809.54
652.14	804.09
652.49	798.73
652.83	793.59
653.17	787.87
653.51	782.08
653.85	776.62
654.20	770.93
654.54	765.02
654.88	759.26
655.22	753.46
655.56	747.80
655.90	742.37
656.25	737.18
656.59	731.74
656.93	726.72
657.27	721.57
657.61	716.16
657.95	711.09
658.29	705.95
658.64	700.69
658.98	695.48
659.32	690.04
659.66	684.89
660.00	679.58
660.34	674.71
660.68	669.87
661.02	664.89
661.36	660.25
661.70	655.80
662.05	651.47
662.39	647.13
662.73	642.74
663.07	638.43
663.41	633.97
663.75	629.51
664.09	625.02
664.43	620.68
664.77	616.65
665.11	612.38
665.45	608.30
665.79	604.27
666.13	600.17
666.47	596.13
666.81	592.00
667.15	587.91
667.49	584.04
667.83	580.30
668.17	576.38
668.51	572.36
668.85	568.34
669.19	564.53
669.53	560.75
669.87	556.88
670.21	553.21
670.55	549.65
670.89	546.24
671.23	542.84
671.57	539.36
671.91	535.81
672.25	532.40
672.58	528.88
672.92	525.52
673.26	522.40
673.60	519.34
673.94	516.19
674.28	513.27
674.62	510.35
674.96	507.24
675.30	504.35
675.64	501.44
675.97	498.72
676.31	495.92
676.65	492.99
676.99	490.31
677.33	487.48
677.67	484.71
678.01	481.68
678.34	478.73
678.68	475.88
679.02	473.15
679.36	470.42
679.70	467.75
680.04	465.01
680.37	462.10
680.71	459.32
681.05	456.77
681.39	454.12
681.73	451.50
682.06	449.00
682.40	446.52
682.74	444.02
683.08	441.45
683.42	438.85
683.75	436.44
684.09	433.93
684.43	431.50
684.77	428.97
685.10	426.65
685.44	424.33
685.78	422.07
686.12	419.85
686.45	417.59
686.79	415.33
687.13	413.16
687.46	411.07
687.80	408.91
688.14	406.70
688.48	404.65
688.81	402.43
689.15	400.25
689.49	398.12
689.82	396.00
690.16	393.91
690.50	391.95
690.83	389.93
691.17	387.92
691.51	385.98
691.84	384.15
692.18	382.22
692.52	380.30
692.85	378.40
693.19	376.48
693.52	374.64
693.86	372.84
694.20	371.05
694.53	369.28
694.87	367.45
695.21	365.72
695.54	363.92
695.88	362.16
696.21	360.43
696.55	358.71
696.88	357.06
697.22	355.42
697.56	353.81
697.89	352.15
698.23	350.57
698.56	348.97
698.90	347.40
699.23	345.76
699.57	344.18
699.90	342.66
700.24	341.16
700.58	339.61
700.91	338.12
701.25	336.66
701.58	335.27
701.92	333.93
702.25	332.55
702.59	331.21
702.92	329.94
703.26	328.69
703.59	327.41
703.93	326.26
704.26	325.03
704.60	323.76
704.93	322.54
705.26	321.37
705.60	320.23
705.93	319.12
706.27	318.13
706.60	317.15
706.94	316.02
707.27	314.90
707.61	313.89
707.94	312.86
708.27	311.81
708.61	310.69
708.94	309.68
709.28	308.70
709.61	307.76
709.94	306.78
710.28	305.80
710.61	304.89
710.95	303.84
711.28	302.94
711.61	302.02
711.95	301.12
712.28	300.12
712.61	299.17
712.95	298.26
713.28	297.37
713.61	296.45
713.95	295.59
714.28	294.79
714.61	293.93
714.95	293.11
715.28	292.28
715.61	291.49
715.95	290.66
716.28	289.80
716.61	288.97
716.95	288.20
717.28	287.46
717.61	286.68
717.94	285.98
718.28	285.16
718.61	284.47
718.94	283.78
719.27	283.17
719.61	282.53
719.94	281.87
720.27	281.14
720.60	280.50
720.94	279.89
721.27	279.28
721.60	278.69
721.93	278.11
722.27	277.55
722.60	276.95
722.93	276.40
723.26	275.89
723.59	275.35
723.93	274.80
724.26	274.24
724.59	273.69
724.92	273.17
725.25	272.68
725.59	272.14
725.92	271.62
726.25	271.08
726.58	270.59
726.91	270.11
727.24	269.64
727.57	269.17
727.91	268.66
728.24	268.18
728.57	267.73
728.90	267.30
729.23	266.82
729.56	266.41
729.89	265.92
730.22	265.47
730.55	264.98
730.89	264.51
731.22	264.02
731.55	263.58
731.88	263.11
732.21	262.67
732.54	262.20
732.87	261.76
733.20	261.38
733.53	260.98
733.86	260.55
734.19	260.17
734.52	259.78
734.85	259.45
735.18	259.02
735.51	258.60
735.84	258.18
736.17	257.82
736.50	257.40
736.83	257.14
737.16	256.73
737.49	256.39
737.82	256.01
738.15	255.72
738.48	255.39
738.81	255.04
739.14	254.74
739.47	254.44
739.80	254.11
740.13	253.77
740.46	253.43
740.79	253.13
741.12	252.79
741.45	252.49
741.78	252.11
742.11	251.82
742.44	251.51
742.77	251.19
743.10	250.85
743.43	250.55
743.75	250.15
744.08	250.01
744.41	249.72
744.74	249.46
745.07	249.16
745.40	248.90
745.73	248.67
746.06	248.35
746.39	248.09
746.71	247.85
747.04	247.56
747.37	247.29
747.70	247.04
748.03	246.77
748.36	246.52
748.68	246.29
749.01	246.05
749.34	245.84
749.67	245.64
750.00	245.46
750.33	245.31
750.65	245.13
750.98	244.82
751.31	244.62
751.64	244.42
751.97	244.26
752.29	244.05
752.62	243.81
752.95	243.65
753.28	243.47
753.60	243.24
753.93	243.09
754.26	242.95
754.59	242.73
754.91	242.54
755.24	242.36
755.57	242.22
755.90	242.04
756.22	241.83
756.55	241.64
756.88	241.46
757.20	241.20
757.53	241.01
757.86	240.84
758.19	240.67
758.51	240.52
758.84	240.32
759.17	240.17
759.49	240.05
759.82	239.92
760.15	239.75
760.47	239.63
760.80	239.46
761.13	239.32
761.45	239.19
761.78	239.10
762.11	238.98
762.43	238.81
762.76	238.71
763.08	238.62
763.41	238.51
763.74	238.41
764.06	238.33
764.39	238.23
764.71	238.13
765.04	238.04
765.37	237.89
765.69	237.76
766.02	237.63
766.34	237.51
766.67	237.37
767.00	237.30
767.32	237.26
767.65	237.25
767.97	237.12
768.30	236.99
768.62	236.87
768.95	236.74
769.27	236.65
769.60	236.59
769.92	236.46
770.25	236.32
770.57	236.18
770.90	236.06
771.22	235.92
771.55	235.80
771.87	235.68
772.20	235.60
772.52	235.62
772.85	235.64
773.17	235.51
773.50	235.40
773.82	235.27
774.15	235.11
774.47	234.93
774.80	234.83
775.12	234.76
775.45	234.65
775.77	234.56
776.09	234.47
776.42	234.34
776.74	234.28
777.07	234.19
777.39	234.11
777.72	234.02
778.04	233.95
778.36	233.89
778.69	233.81
779.01	233.77
779.33	233.61
779.66	233.41
779.98	233.35
780.31	233.27
780.63	233.23
780.95	233.14
781.28	233.07
781.60	233.00
781.92	232.88
782.25	232.82
782.57	232.75
782.89	232.65
783.22	232.55
783.54	232.45
783.86	232.40
784.19	232.28
784.51	232.24
784.83	232.16
785.16	232.04
785.48	232.02
785.80	231.92
786.12	231.84
786.45	231.79
786.77	231.75
787.09	231.70
787.42	231.63
787.74	231.59
788.06	231.53
788.38	231.48
788.71	231.45
789.03	231.40
789.35	231.35
789.67	231.31
789.99	231.29
790.32	231.23
790.64	231.20
790.96	231.23
791.28	231.19
791.61	231.15
791.93	231.13
792.25	231.06
792.57	231.10
792.89	231.05
793.21	231.03
793.54	230.97
793.86	230.91
794.18	230.85
794.50	230.80
794.82	230.78
795.14	230.74
795.47	230.74
795.79	230.71
796.11	230.66
796.43	230.66
796.75	230.62
797.07	230.62
797.39	230.60
797.71	230.55
798.04	230.52
798.36	230.50
798.68	230.47
799.00	230.46
799.32	230.39
799.64	230.39
799.96	230.36
800.28	230.38
800.60	230.37
800.92	230.35
801.24	230.32
801.56	230.27
801.89	230.25
802.21	230.26
802.53	230.26
802.85	230.25
803.17	230.27
803.49	230.22
803.81	230.18
804.13	230.13
804.45	230.09
804.77	230.06
805.09	230.04
805.41	230.04
805.73	229.97
806.05	229.91
806.37	229.88
806.69	229.86
807.01	229.83
807.33	229.81
807.65	229.77
807.97	229.80
808.28	229.83
808.60	229.82
808.92	229.77
809.24	229.80
809.56	229.76
809.88	229.71
810.20	229.71
810.52	229.72
810.84	229.68
811.16	229.66
811.48	229.62
811.80	229.63
812.12	229.56
812.43	229.58
812.75	229.60
813.07	229.56
813.39	229.52
813.71	229.48
814.03	229.43
814.35	229.41
814.67	229.33
814.98	229.27
815.30	229.20
815.62	229.13
815.94	229.04
816.26	229.04
816.58	228.98
816.89	228.94
817.21	228.90
817.53	228.90
817.85	228.89
818.17	228.86
818.48	228.79
818.80	228.78
819.12	228.73
819.44	228.65
819.76	228.62
820.07	228.59
820.39	228.56
820.71	228.54
821.03	228.52
821.34	228.47
821.66	228.45
821.98	228.46
822.30	228.43
822.61	228.43
822.93	228.42
823.25	228.40
823.57	228.37
823.88	228.39
824.20	228.32
824.52	228.31
824.83	228.31
825.15	228.30
825.47	228.30
825.79	228.29
826.10	228.28
826.42	228.26
826.74	228.28
827.05	228.27
827.37	228.28
827.69	228.27
828.00	228.28
828.32	228.29
828.64	228.29
828.95	228.34
829.27	228.35
829.58	228.31
829.90	228.31
830.22	228.33
830.53	228.27
830.85	228.27
831.17	228.24
831.48	228.22
831.80	228.24
832.11	228.18
832.43	228.14
832.75	228.15
833.06	228.21
833.38	228.16
833.69	228.15
834.01	228.14
834.32	228.14
834.64	228.13
834.96	228.12
835.27	228.12
835.59	228.11
835.90	228.07
836.22	228.09
836.53	228.12
836.85	228.10
837.16	228.23
837.48	228.24
837.79	228.26
838.11	228.28
838.42	228.27
838.74	228.29
839.05	228.35
839.37	228.36
839.68	228.34
840.00	228.35
840.31	228.39
840.63	228.37
840.94	228.37
841.26	228.36
841.57	228.36
841.88	228.38
842.20	228.37
842.51	228.36
842.83	228.35
843.14	228.39
843.46	228.42
843.77	228.37
844.08	228.36
844.40	228.36
844.71	228.35
845.03	228.35
845.34	228.39
845.65	228.36
845.97	228.35
846.28	228.32
846.60	228.32
846.91	228.26
847.22	228.28
847.54	228.30
847.85	228.28
848.16	228.28
848.48	228.24
848.79	228.24
849.10	228.24
849.42	228.23
849.73	228.12
850.04	228.08
850.36	228.03
850.67	228.04
850.98	228.03
851.30	228.01
851.61	228.02
851.92	227.96
852.23	227.97
852.55	227.97
852.86	227.95
853.17	227.95
853.49	227.98
853.80	227.97
854.11	227.95
854.42	227.98
854.74	227.95
855.05	227.91
855.36	227.86
855.67	227.85
855.99	227.84
856.30	227.96
856.61	227.94
856.92	227.94
857.23	227.93
857.55	227.92
857.86	227.89
858.17	227.86
858.48	227.86
858.79	227.84
859.11	227.82
859.42	227.78
859.73	227.75
860.04	227.71
860.35	227.66
860.66	227.61
860.98	227.59
861.29	227.61
861.60	227.60
861.91	227.57
862.22	227.53
862.53	227.52
862.84	227.41
863.16	227.43
863.47	227.38
863.78	227.38
864.09	227.37
864.40	227.40
864.71	227.38
865.02	227.41
865.33	227.38
865.64	227.35
865.95	227.34
866.27	227.40
866.58	227.40
866.89	227.42
867.20	227.42
867.51	227.39
867.82	227.36
868.13	227.39
868.44	227.40
868.75	227.40
869.06	227.37
869.37	227.39
869.68	227.36
869.99	227.35
870.30	227.36
870.61	227.34
870.92	227.32
871.23	227.32
871.54	227.28
871.85	227.30
872.16	227.32
872.47	227.32
872.78	227.29
873.09	227.32
873.40	227.31
873.71	227.33
874.02	227.35
874.33	227.34
874.64	227.33
874.95	227.36
875.26	227.39
875.56	227.40
875.87	227.37
876.18	227.40
876.49	227.53
876.80	227.52
877.11	227.54
877.42	227.57
877.73	227.60
878.04	227.60
878.35	227.59
878.66	227.61
878.96	227.62
879.27	227.62
879.58	227.61
879.89	227.63
880.20	227.66
880.51	227.69
880.82	227.69
881.12	227.69
881.43	227.67
881.74	227.66
882.05	227.70
882.36	227.74
882.67	227.74
882.97	227.62
883.28	227.60
883.59	227.60
883.90	227.59
884.21	227.61
884.51	227.63
884.82	227.62
885.13	227.61
885.44	227.63
885.74	227.64
886.05	227.65
886.36	227.65
886.67	227.63
886.98	227.66
887.28	227.71
887.59	227.72
887.90	227.73
888.20	227.70
888.51	227.71
888.82	227.68
889.13	227.69
889.43	227.77
889.74	227.77
890.05	227.77
890.35	227.75
890.66	227.72
890.97	227.70
891.28	227.72
891.58	227.72
891.89	227.70
892.20	227.71
892.50	227.68
892.81	227.68
893.12	227.67
893.42	227.61
893.73	227.61
894.04	227.58
894.34	227.57
894.65	227.58
894.95	227.54
895.26	227.53
895.57	227.53
895.87	227.42
896.18	227.40
896.48	227.40
896.79	227.34
897.10	227.34
897.40	227.34
897.71	227.32
898.01	227.31
898.32	227.33
898.63	227.26
898.93	227.21
899.24	227.22
899.54	227.18
899.85	227.15
900.15	227.08
900.46	227.10
900.76	227.12
901.07	227.11
901.38	227.08
901.68	227.08
901.99	227.03
902.29	227.04
902.60	227.06
902.90	227.07
903.21	227.09
903.51	227.06
903.82	227.05
904.12	227.06
904.43	227.05
904.73	227.04
905.03	227.04
905.34	227.12
905.64	227.10
905.95	227.12
906.25	227.13
906.56	227.15
906.86	227.13
907.17	227.11
907.47	227.11
907.77	227.10
908.08	227.06
908.38	227.08
908.69	227.07
908.99	227.11
909.30	227.08
909.60	227.12
909.90	227.16
910.21	227.17
910.51	227.13
910.81	227.15
911.12	227.14
911.42	227.16
911.73	227.09
912.03	227.09
912.33	227.10
912.64	227.10
912.94	227.11
913.24	227.06
913.55	227.08
913.85	227.10
914.15	227.14
914.46	227.21
914.76	227.25
915.06	227.27
915.37	227.24
915.67	227.23
915.97	227.23
916.27	227.20
916.58	227.22
916.88	227.24
917.18	227.22
917.49	227.31
917.79	227.31
918.09	227.37
918.39	227.42
918.70	227.41
919.00	227.40
919.30	227.42
919.60	227.46
919.91	227.45
920.21	227.44
920.51	227.43
920.81	227.42
921.12	227.41
921.42	227.43
921.72	227.47
922.02	227.47
922.32	227.49
922.63	227.52
922.93	227.54
923.23	227.53
923.53	227.55
923.83	227.47
924.13	227.49
924.44	227.43
924.74	227.45
925.04	227.50
925.34	227.52
925.64	227.53
925.94	227.54
926.24	227.57
926.55	227.59
926.85	227.60
927.15	227.59
927.45	227.60
927.75	227.59
928.05	227.56
928.35	227.58
928.65	227.58
928.95	227.55
929.26	227.53
929.56	227.58
929.86	227.60
930.16	227.59
930.46	227.57
930.76	227.61
931.06	227.56
931.36	227.51
931.66	227.50
931.96	227.49
932.26	227.47
932.56	227.46
932.86	227.44
933.16	227.44
933.46	227.43
933.76	227.38
934.06	227.39
934.36	227.44
934.66	227.42
934.96	227.38
935.26	227.37
935.56	227.37
935.86	227.34
936.16	227.29
936.46	227.25
936.76	227.26
937.06	227.22
937.36	227.21
937.66	227.20
937.96	227.20
938.26	227.20
938.56	227.19
938.86	227.18
939.16	227.19
939.46	227.17
939.76	227.15
940.06	227.13
940.35	227.10
940.65	227.03
940.95	227.02
941.25	227.02
941.55	227.03
941.85	227.03
942.15	227.05
942.45	227.06
942.75	227.08
943.04	227.08
943.34	227.08
943.64	227.08
943.94	227.08
944.24	227.10
944.54	227.09
944.84	227.09
945.13	227.06
945.43	227.05
945.73	227.07
946.03	227.05
946.33	227.06
946.62	227.07
946.92	227.05
947.22	227.07
947.52	227.07
947.82	227.08
948.11	227.08
948.41	227.04
948.71	227.01
949.01	227.03
949.31	227.02
949.60	227.04
949.90	227.06
950.20	227.05
950.50	227.05
950.79	227.03
951.09	227.04
951.39	227.04
951.69	227.03
951.98	227.06
952.28	227.10
952.58	227.10
952.87	227.08
953.17	227.12
953.47	227.11
953.76	227.09
954.06	227.07
954.36	227.05
954.66	227.08
954.95	227.10
955.25	227.08
955.55	227.09
955.84	227.05
956.14	227.06
956.44	227.09
956.73	227.09
957.03	227.12
957.32	227.12
957.62	227.14
957.92	227.15
958.21	227.14
958.51	227.23
958.81	227.27
959.10	227.27
959.40	227.28
959.69	227.30
959.99	227.34
960.29	227.33
960.58	227.33
960.88	227.37
961.17	227.36
961.47	227.42
961.76	227.40
962.06	227.46
962.36	227.45
962.65	227.41
962.95	227.41
963.24	227.41
963.54	227.39
963.83	227.40
964.13	227.41
964.42	227.41
964.72	227.33
965.01	227.32
965.31	227.34
965.60	227.35
965.90	227.40
966.19	227.36
966.49	227.35
966.78	227.37
967.08	227.34
967.37	227.34
967.67	227.27
967.96	227.30
968.26	227.29
968.55	227.29
968.85	227.32
969.14	227.32
969.43	227.32
969.73	227.32
970.02	227.32
970.32	227.30
970.61	227.29
970.91	227.28
971.20	227.25
971.49	227.22
971.79	227.23
972.08	227.15
972.38	227.16
972.67	227.19
972.96	227.19
973.26	227.16
973.55	227.19
973.85	227.22
974.14	227.20
974.43	227.20
974.73	227.18
975.02	227.17
975.31	227.16
975.61	227.14
975.90	227.15
976.19	227.12
976.49	227.14
976.78	227.10
977.07	227.09
977.37	227.10
977.66	227.11
977.95	227.07
978.24	227.09
978.54	227.11
978.83	227.09
979.12	227.07
979.42	227.08
979.71	227.07
980.00	227.05
980.29	227.06
980.59	227.03
980.88	227.07
981.17	227.08
981.46	227.07
981.76	227.08
982.05	227.11
982.34	227.10
982.63	227.08
982.93	227.12
983.22	227.13
983.51	227.11
983.80	227.10
984.09	227.12
984.39	227.11
984.68	227.09
984.97	227.10
985.26	227.11
985.55	227.11
985.85	227.06
986.14	227.05
986.43	227.02
986.72	227.04
987.01	226.97
987.30	226.92
987.59	226.91
987.89	226.89
988.18	226.85
988.47	226.88
988.76	226.87
989.05	226.84
989.34	226.84
989.63	226.90
989.92	226.91
990.22	226.91
990.51	226.91
990.80	226.88
991.09	226.90
991.38	226.90
991.67	226.88
991.96	226.87
992.25	226.93
992.54	226.94
992.83	226.93
993.12	226.94
993.41	226.99
993.70	227.02
993.99	227.05
994.28	227.06
994.58	227.04
994.87	227.04
995.16	227.03
995.45	226.99
995.74	226.94
996.03	226.96
996.32	226.96
996.61	226.97
996.90	226.98
997.19	226.95
997.48	226.95
997.77	226.97
998.06	227.00
998.34	226.98
998.63	226.98
998.92	227.01
999.21	227.01
999.50	227.00
999.79	227.00
1000.08	227.01
1000.37	227.01
1000.66	227.01
1000.95	227.01
1001.24	227.03
1001.53	227.05
1001.82	227.04
1002.11	227.03
1002.40	227.05
1002.68	227.08
1002.97	227.15
1003.26	227.17
1003.55	227.17
1003.84	227.19
1004.13	227.25
1004.42	227.23
1004.71	227.22
1004.99	227.20
1005.28	227.26
1005.57	227.26
1005.86	227.25
1006.15	227.25
1006.44	227.20
1006.72	227.22
1007.01	227.21
1007.30	227.22
1007.59	227.21
1007.88	227.23
1008.17	227.21
1008.45	227.17
1008.74	227.15
1009.03	227.09
1009.32	227.06
1009.60	227.04
1009.89	227.01
1010.18	226.97
1010.47	226.96
1010.76	226.99
1011.04	226.98
1011.33	226.98
1011.62	226.99
1011.91	226.99
1012.19	226.97
1012.48	227.00
1012.77	227.02
1013.05	227.08
1013.34	227.09
1013.63	227.10
1013.92	227.11
1014.20	227.12
1014.49	227.12
1014.78	227.12
1015.06	227.11
1015.35	227.11
1015.64	227.15
1015.92	227.13
1016.21	227.11
1016.50	227.14
1016.78	227.13
1017.07	227.11
1017.36	227.07
1017.64	227.08
1017.93	227.04
1018.22	227.07
1018.50	227.09
1018.79	227.05
1019.08	226.96
1019.36	226.96
1019.65	226.97
1019.93	226.99
1020.22	227.02
1020.51	227.08
1020.79	227.04
1021.08	227.26
1021.36	227.44
1021.65	226.66
1021.94	226.29
1022.22	227.00
1022.51	227.35
1022.79	227.72
1023.08	227.70
1023.36	227.95
1023.65	226.66
>>>>>End Processed Spectral Data<<<<<
