SpectraSuite Data File
++++++++++++++++++++++++++++++++++++
Date: Fri Feb 01 17:15:53 EST 2013
User: group
Dark Spectrum Present: No
Reference Spectrum Present: No
Number of Sampled Component Spectra: 1
Spectrometers: USB2E7196
Integration Time (usec): 35000 (USB2E7196)
Spectra Averaged: 100 (USB2E7196)
Boxcar Smoothing: 10 (USB2E7196)
Correct for Electrical Dark: No (USB2E7196)
Strobe/Lamp Enabled: No (USB2E7196)
Correct for Detector Non-linearity: No (USB2E7196)
Correct for Stray Light: No (USB2E7196)
Number of Pixels in Processed Spectrum: 2048
>>>>>Begin Processed Spectral Data<<<<<
339.09	0.00
339.48	212.93
339.86	214.56
340.24	215.80
340.63	217.06
341.01	219.89
341.39	220.51
341.78	221.68
342.16	222.31
342.54	222.95
342.93	211.49
343.31	222.19
343.69	222.75
344.07	223.23
344.46	223.65
344.84	224.05
345.22	224.30
345.60	224.53
345.99	224.69
346.37	224.82
346.75	224.93
347.13	225.01
347.52	225.05
347.90	225.13
348.28	225.16
348.66	225.20
349.05	225.15
349.43	225.21
349.81	225.27
350.19	225.31
350.57	225.38
350.96	225.41
351.34	225.50
351.72	225.56
352.10	225.64
352.48	225.69
352.87	225.75
353.25	225.82
353.63	225.90
354.01	225.97
354.39	226.06
354.77	226.13
355.15	226.21
355.54	226.29
355.92	226.31
356.30	226.39
356.68	226.54
357.06	226.64
357.44	226.68
357.82	226.72
358.20	226.78
358.58	226.84
358.97	226.92
359.35	226.98
359.73	227.05
360.11	227.11
360.49	227.22
360.87	227.26
361.25	227.33
361.63	227.38
362.01	227.45
362.39	227.48
362.77	227.52
363.15	227.56
363.53	227.56
363.91	227.59
364.29	227.59
364.67	227.51
365.05	227.53
365.43	227.58
365.81	227.59
366.19	227.64
366.57	227.70
366.95	227.72
367.33	227.72
367.71	227.74
368.09	227.74
368.47	227.70
368.85	227.67
369.23	227.65
369.61	227.59
369.99	227.58
370.37	227.58
370.75	227.57
371.13	227.52
371.51	227.50
371.89	227.47
372.27	227.46
372.65	227.42
373.03	227.37
373.41	227.28
373.78	227.27
374.16	227.17
374.54	227.08
374.92	227.00
375.30	226.93
375.68	226.84
376.06	226.80
376.44	226.73
376.82	226.68
377.19	226.65
377.57	226.57
377.95	226.47
378.33	226.40
378.71	226.29
379.09	226.23
379.47	226.17
379.84	226.11
380.22	226.00
380.60	225.93
380.98	225.87
381.36	225.80
381.73	225.70
382.11	225.68
382.49	225.60
382.87	225.52
383.25	225.48
383.62	225.54
384.00	225.42
384.38	225.37
384.76	225.32
385.13	225.28
385.51	225.23
385.89	225.16
386.27	225.11
386.64	225.12
387.02	225.07
387.40	225.04
387.78	224.99
388.15	224.96
388.53	224.92
388.91	224.90
389.29	224.87
389.66	224.87
390.04	224.79
390.42	224.80
390.79	224.77
391.17	224.72
391.55	224.58
391.92	224.60
392.30	224.61
392.68	224.57
393.05	224.59
393.43	224.62
393.81	224.66
394.18	224.64
394.56	224.60
394.94	224.64
395.31	224.63
395.69	224.70
396.06	224.74
396.44	224.78
396.82	224.78
397.19	224.86
397.57	224.87
397.95	224.95
398.32	224.96
398.70	225.01
399.07	225.12
399.45	225.20
399.82	225.25
400.20	225.29
400.58	225.37
400.95	225.38
401.33	225.48
401.70	225.58
402.08	225.68
402.45	225.80
402.83	225.90
403.20	226.04
403.58	226.11
403.95	226.22
404.33	226.33
404.71	226.47
405.08	226.65
405.46	226.80
405.83	226.95
406.21	227.09
406.58	227.29
406.96	227.41
407.33	227.58
407.70	227.77
408.08	228.05
408.45	228.29
408.83	228.54
409.20	228.74
409.58	228.94
409.95	229.19
410.33	229.45
410.70	229.69
411.08	229.98
411.45	230.28
411.82	230.61
412.20	230.98
412.57	231.39
412.95	231.69
413.32	232.12
413.69	232.52
414.07	232.94
414.44	233.39
414.82	233.87
415.19	234.42
415.56	234.98
415.94	235.54
416.31	236.14
416.68	236.77
417.06	237.51
417.43	238.20
417.81	238.97
418.18	239.78
418.55	240.66
418.93	241.53
419.30	242.46
419.67	243.40
420.04	244.40
420.42	245.43
420.79	246.64
421.16	247.81
421.54	249.04
421.91	250.31
422.28	251.61
422.66	253.01
423.03	254.35
423.40	255.72
423.77	257.15
424.15	258.63
424.52	260.13
424.89	261.76
425.26	263.35
425.64	264.84
426.01	266.45
426.38	268.14
426.75	269.89
427.13	271.67
427.50	273.54
427.87	275.45
428.24	277.32
428.61	279.07
428.99	281.05
429.36	283.20
429.73	285.27
430.10	287.34
430.47	289.42
430.85	291.58
431.22	293.86
431.59	296.29
431.96	298.54
432.33	301.07
432.70	303.51
433.08	306.38
433.45	309.08
433.82	311.78
434.19	314.71
434.56	317.56
434.93	320.26
435.30	322.95
435.68	325.90
436.05	328.80
436.42	331.67
436.79	334.23
437.16	336.97
437.53	339.94
437.90	342.78
438.27	345.60
438.64	348.48
439.01	351.12
439.38	353.45
439.75	355.69
440.13	358.22
440.50	360.57
440.87	362.48
441.24	364.48
441.61	366.64
441.98	368.22
442.35	370.06
442.72	371.97
443.09	373.86
443.46	374.87
443.83	375.53
444.20	376.06
444.57	376.97
444.94	377.30
445.31	377.65
445.68	378.08
446.05	378.22
446.42	377.85
446.79	377.47
447.16	377.01
447.53	376.72
447.90	375.62
448.27	374.45
448.64	372.84
449.01	371.71
449.37	369.77
449.74	367.84
450.11	365.56
450.48	363.03
450.85	360.43
451.22	358.29
451.59	356.19
451.96	354.23
452.33	351.59
452.70	349.23
453.07	346.36
453.43	343.43
453.80	340.59
454.17	337.85
454.54	335.23
454.91	332.51
455.28	329.78
455.65	327.20
456.02	324.77
456.38	322.56
456.75	319.81
457.12	317.49
457.49	315.24
457.86	313.02
458.23	311.13
458.59	309.05
458.96	306.88
459.33	305.01
459.70	303.07
460.07	301.50
460.43	299.73
460.80	298.02
461.17	296.51
461.54	294.97
461.91	293.55
462.27	292.06
462.64	290.75
463.01	289.39
463.38	288.07
463.74	286.63
464.11	285.44
464.48	284.40
464.85	283.26
465.21	282.31
465.58	281.36
465.95	280.24
466.32	279.29
466.68	278.39
467.05	277.45
467.42	276.56
467.78	275.63
468.15	274.73
468.52	274.06
468.88	273.20
469.25	272.39
469.62	271.74
469.98	271.05
470.35	270.41
470.72	269.78
471.08	269.11
471.45	268.59
471.82	268.09
472.18	267.45
472.55	267.02
472.92	266.52
473.28	266.08
473.65	265.64
474.02	265.20
474.38	264.79
474.75	264.47
475.11	264.10
475.48	263.82
475.85	263.56
476.21	263.34
476.58	263.11
476.94	262.96
477.31	262.77
477.67	262.63
478.04	262.49
478.41	262.43
478.77	262.50
479.14	262.42
479.50	262.42
479.87	262.51
480.23	262.60
480.60	262.65
480.96	262.69
481.33	262.88
481.69	263.10
482.06	263.33
482.42	263.53
482.79	263.79
483.15	264.12
483.52	264.51
483.88	264.86
484.25	265.24
484.61	265.70
484.98	266.11
485.34	266.70
485.71	267.26
486.07	267.84
486.44	268.41
486.80	269.10
487.17	269.84
487.53	270.65
487.90	271.52
488.26	272.46
488.62	273.47
488.99	274.47
489.35	275.49
489.72	276.62
490.08	277.79
490.44	279.03
490.81	280.36
491.17	281.69
491.54	283.16
491.90	284.74
492.26	286.41
492.63	288.16
492.99	289.90
493.36	291.79
493.72	293.81
494.08	295.85
494.45	298.07
494.81	300.38
495.17	302.84
495.54	305.39
495.90	308.09
496.26	310.87
496.63	313.82
496.99	316.92
497.35	320.12
497.72	323.52
498.08	327.01
498.44	330.62
498.80	334.56
499.17	338.60
499.53	342.75
499.89	347.05
500.26	351.53
500.62	356.15
500.98	361.10
501.34	366.17
501.71	371.48
502.07	376.92
502.43	382.53
502.79	388.27
503.16	394.30
503.52	400.48
503.88	406.82
504.24	413.38
504.60	420.18
504.97	427.29
505.33	434.53
505.69	442.21
506.05	449.96
506.41	457.71
506.78	465.78
507.14	474.14
507.50	482.81
507.86	491.70
508.22	500.85
508.59	509.97
508.95	519.39
509.31	529.14
509.67	539.06
510.03	549.20
510.39	559.64
510.75	570.30
511.12	581.08
511.48	592.28
511.84	603.57
512.20	614.91
512.56	626.61
512.92	638.58
513.28	650.79
513.64	663.05
514.00	675.57
514.37	688.33
514.73	701.16
515.09	713.90
515.45	727.05
515.81	740.35
516.17	754.08
516.53	768.00
516.89	781.96
517.25	795.84
517.61	810.06
517.97	824.28
518.33	838.41
518.69	852.94
519.05	867.55
519.41	882.36
519.77	897.65
520.13	912.85
520.49	928.04
520.85	943.07
521.21	958.42
521.57	974.37
521.93	989.85
522.29	1005.86
522.65	1021.82
523.01	1037.55
523.37	1053.33
523.73	1069.17
524.09	1084.89
524.45	1100.67
524.81	1117.15
525.17	1133.49
525.53	1149.87
525.89	1166.40
526.25	1182.87
526.61	1199.01
526.97	1215.45
527.33	1231.62
527.68	1247.93
528.04	1263.96
528.40	1280.17
528.76	1296.84
529.12	1313.13
529.48	1329.68
529.84	1345.32
530.20	1361.75
530.56	1378.51
530.91	1395.48
531.27	1411.93
531.63	1428.20
531.99	1444.60
532.35	1460.29
532.71	1475.97
533.07	1492.08
533.42	1507.61
533.78	1523.48
534.14	1539.44
534.50	1554.45
534.86	1570.06
535.21	1584.95
535.57	1600.63
535.93	1615.84
536.29	1630.38
536.65	1645.07
537.00	1659.47
537.36	1674.63
537.72	1688.80
538.08	1703.08
538.44	1716.80
538.79	1730.55
539.15	1743.91
539.51	1757.41
539.87	1771.47
540.22	1784.95
540.58	1798.31
540.94	1811.46
541.29	1823.96
541.65	1836.45
542.01	1849.57
542.37	1861.74
542.72	1874.02
543.08	1885.73
543.44	1898.02
543.79	1909.40
544.15	1920.27
544.51	1931.78
544.87	1942.61
545.22	1953.45
545.58	1963.74
545.94	1973.48
546.29	1983.35
546.65	1993.23
547.01	2002.58
547.36	2011.32
547.72	2019.92
548.07	2028.15
548.43	2036.42
548.79	2044.41
549.14	2052.24
549.50	2059.61
549.86	2067.21
550.21	2074.61
550.57	2082.00
550.92	2088.92
551.28	2095.99
551.64	2103.33
551.99	2110.03
552.35	2116.38
552.70	2122.77
553.06	2128.87
553.41	2135.37
553.77	2141.55
554.13	2147.89
554.48	2154.02
554.84	2159.88
555.19	2165.21
555.55	2170.57
555.90	2175.25
556.26	2180.74
556.61	2185.48
556.97	2190.27
557.32	2194.80
557.68	2199.16
558.03	2203.62
558.39	2207.46
558.74	2212.30
559.10	2216.38
559.45	2220.20
559.81	2224.85
560.16	2228.80
560.52	2232.31
560.87	2235.98
561.23	2238.91
561.58	2241.94
561.94	2244.98
562.29	2247.37
562.64	2250.66
563.00	2253.33
563.35	2257.16
563.71	2260.57
564.06	2264.02
564.42	2267.20
564.77	2270.06
565.12	2272.91
565.48	2275.11
565.83	2277.32
566.19	2279.00
566.54	2280.15
566.89	2281.78
567.25	2282.71
567.60	2284.14
567.96	2286.19
568.31	2287.30
568.66	2288.76
569.02	2289.74
569.37	2290.27
569.72	2291.65
570.08	2291.94
570.43	2292.44
570.78	2292.34
571.14	2291.01
571.49	2289.88
571.84	2289.57
572.20	2288.81
572.55	2287.83
572.90	2286.50
573.26	2285.43
573.61	2283.95
573.96	2282.75
574.31	2280.01
574.67	2277.28
575.02	2274.06
575.37	2270.82
575.72	2267.40
576.08	2264.09
576.43	2260.82
576.78	2257.69
577.13	2254.59
577.49	2251.50
577.84	2248.25
578.19	2244.62
578.54	2241.31
578.90	2237.73
579.25	2232.57
579.60	2227.91
579.95	2223.33
580.30	2218.61
580.66	2213.49
581.01	2208.79
581.36	2203.98
581.71	2200.19
582.06	2196.13
582.42	2192.07
582.77	2187.31
583.12	2183.02
583.47	2178.88
583.82	2174.50
584.17	2169.37
584.53	2164.13
584.88	2159.04
585.23	2153.61
585.58	2148.31
585.93	2142.96
586.28	2137.97
586.63	2133.15
586.98	2128.05
587.34	2123.35
587.69	2118.59
588.04	2113.78
588.39	2108.35
588.74	2101.89
589.09	2095.76
589.44	2089.18
589.79	2083.07
590.14	2077.37
590.49	2070.92
590.84	2064.41
591.19	2058.36
591.54	2052.03
591.89	2045.00
592.25	2038.41
592.60	2031.34
592.95	2024.08
593.30	2016.99
593.65	2009.55
594.00	2002.65
594.35	1995.81
594.70	1987.79
595.05	1980.86
595.40	1973.56
595.75	1966.15
596.10	1960.29
596.45	1953.89
596.80	1947.73
597.15	1941.38
597.50	1934.62
597.85	1928.24
598.19	1921.78
598.54	1915.10
598.89	1908.40
599.24	1902.43
599.59	1896.00
599.94	1889.78
600.29	1883.35
600.64	1876.68
600.99	1869.62
601.34	1862.84
601.69	1855.82
602.04	1849.16
602.39	1841.68
602.74	1834.98
603.08	1828.40
603.43	1821.73
603.78	1814.33
604.13	1807.19
604.48	1800.00
604.83	1793.17
605.18	1786.55
605.53	1778.76
605.87	1770.57
606.22	1763.46
606.57	1755.59
606.92	1747.92
607.27	1740.95
607.62	1734.18
607.96	1727.21
608.31	1720.75
608.66	1713.33
609.01	1705.86
609.36	1698.45
609.70	1690.66
610.05	1682.71
610.40	1675.01
610.75	1666.74
611.10	1659.12
611.44	1650.58
611.79	1642.51
612.14	1633.68
612.49	1624.26
612.83	1615.75
613.18	1607.58
613.53	1599.48
613.88	1591.00
614.22	1582.76
614.57	1573.81
614.92	1565.77
615.27	1558.12
615.61	1549.79
615.96	1541.56
616.31	1533.74
616.65	1526.29
617.00	1518.64
617.35	1510.93
617.70	1502.58
618.04	1494.08
618.39	1485.79
618.74	1478.31
619.08	1469.97
619.43	1462.46
619.78	1455.39
620.12	1448.22
620.47	1440.59
620.82	1432.23
621.16	1424.51
621.51	1416.91
621.85	1409.28
622.20	1400.74
622.55	1392.23
622.89	1384.08
623.24	1376.30
623.59	1368.79
623.93	1361.15
624.28	1353.84
624.62	1346.30
624.97	1339.08
625.32	1332.02
625.66	1324.90
626.01	1317.58
626.35	1310.20
626.70	1302.29
627.04	1294.64
627.39	1286.81
627.73	1279.36
628.08	1272.46
628.43	1265.33
628.77	1257.92
629.12	1250.50
629.46	1243.21
629.81	1235.65
630.15	1228.33
630.50	1220.92
630.84	1212.73
631.19	1204.71
631.53	1197.04
631.88	1189.23
632.22	1181.52
632.57	1174.22
632.91	1166.60
633.26	1159.08
633.60	1151.41
633.95	1144.10
634.29	1136.91
634.64	1130.03
634.98	1122.65
635.32	1115.44
635.67	1108.61
636.01	1101.83
636.36	1094.87
636.70	1088.25
637.05	1081.60
637.39	1075.07
637.73	1068.52
638.08	1062.54
638.42	1056.50
638.77	1050.10
639.11	1043.54
639.45	1037.08
639.80	1030.34
640.14	1023.89
640.49	1017.41
640.83	1011.15
641.17	1004.95
641.52	998.61
641.86	992.15
642.20	986.24
642.55	979.71
642.89	973.27
643.23	966.64
643.58	960.75
643.92	954.64
644.26	948.63
644.61	942.59
644.95	936.55
645.29	930.06
645.64	923.29
645.98	916.86
646.32	910.78
646.66	904.71
647.01	898.90
647.35	893.17
647.69	887.14
648.04	881.55
648.38	875.81
648.72	869.80
649.06	863.75
649.41	857.70
649.75	851.91
650.09	845.97
650.43	840.19
650.78	834.10
651.12	828.02
651.46	822.26
651.80	816.48
652.14	810.96
652.49	805.59
652.83	800.31
653.17	794.82
653.51	789.22
653.85	783.78
654.20	778.21
654.54	772.17
654.88	766.42
655.22	760.49
655.56	754.67
655.90	749.17
656.25	743.89
656.59	738.62
656.93	733.42
657.27	728.22
657.61	722.76
657.95	717.63
658.29	712.48
658.64	707.17
658.98	701.83
659.32	696.35
659.66	691.06
660.00	685.83
660.34	680.76
660.68	675.82
661.02	670.78
661.36	666.08
661.70	661.56
662.05	657.21
662.39	652.94
662.73	648.48
663.07	644.07
663.41	639.64
663.75	635.19
664.09	630.62
664.43	626.27
664.77	622.24
665.11	617.96
665.45	613.77
665.79	609.74
666.13	605.64
666.47	601.54
666.81	597.36
667.15	593.21
667.49	589.24
667.83	585.32
668.17	581.29
668.51	577.19
668.85	573.10
669.19	569.14
669.53	565.24
669.87	561.40
670.21	557.65
670.55	553.86
670.89	550.34
671.23	546.91
671.57	543.30
671.91	539.71
672.25	536.16
672.58	532.66
672.92	529.18
673.26	525.96
673.60	522.78
673.94	519.63
674.28	516.60
674.62	513.63
674.96	510.58
675.30	507.66
675.64	504.68
675.97	501.87
676.31	499.09
676.65	496.20
676.99	493.44
677.33	490.54
677.67	487.78
678.01	484.71
678.34	481.73
678.68	478.81
679.02	475.96
679.36	473.13
679.70	470.35
680.04	467.59
680.37	464.72
680.71	461.88
681.05	459.25
681.39	456.54
681.73	453.85
682.06	451.29
682.40	448.70
682.74	446.10
683.08	443.51
683.42	440.83
683.75	438.22
684.09	435.60
684.43	433.07
684.77	430.57
685.10	428.22
685.44	425.84
685.78	423.54
686.12	421.24
686.45	418.97
686.79	416.70
687.13	414.48
687.46	412.30
687.80	410.14
688.14	407.87
688.48	405.82
688.81	403.58
689.15	401.42
689.49	399.24
689.82	397.16
690.16	395.09
690.50	393.11
690.83	391.20
691.17	389.23
691.51	387.35
691.84	385.48
692.18	383.53
692.52	381.56
692.85	379.59
693.19	377.72
693.52	375.87
693.86	373.99
694.20	372.17
694.53	370.35
694.87	368.45
695.21	366.66
695.54	364.82
695.88	363.06
696.21	361.33
696.55	359.68
696.88	357.99
697.22	356.26
697.56	354.57
697.89	352.91
698.23	351.31
698.56	349.69
698.90	348.13
699.23	346.52
699.57	345.00
699.90	343.43
700.24	341.84
700.58	340.32
700.91	338.86
701.25	337.40
701.58	336.03
701.92	334.67
702.25	333.29
702.59	331.90
702.92	330.60
703.26	329.26
703.59	327.94
703.93	326.77
704.26	325.59
704.60	324.35
704.93	323.09
705.26	321.82
705.60	320.62
705.93	319.45
706.27	318.36
706.60	317.27
706.94	316.19
707.27	315.08
707.61	313.98
707.94	312.93
708.27	311.83
708.61	310.70
708.94	309.68
709.28	308.65
709.61	307.65
709.94	306.68
710.28	305.62
710.61	304.60
710.95	303.48
711.28	302.49
711.61	301.48
711.95	300.50
712.28	299.54
712.61	298.54
712.95	297.60
713.28	296.71
713.61	295.77
713.95	294.88
714.28	293.99
714.61	293.09
714.95	292.23
715.28	291.38
715.61	290.51
715.95	289.66
716.28	288.83
716.61	288.02
716.95	287.17
717.28	286.42
717.61	285.67
717.94	284.92
718.28	284.11
718.61	283.39
718.94	282.72
719.27	282.04
719.61	281.38
719.94	280.72
720.27	279.97
720.60	279.34
720.94	278.70
721.27	278.11
721.60	277.53
721.93	276.92
722.27	276.33
722.60	275.76
722.93	275.15
723.26	274.57
723.59	273.98
723.93	273.39
724.26	272.84
724.59	272.24
724.92	271.72
725.25	271.20
725.59	270.67
725.92	270.11
726.25	269.59
726.58	269.05
726.91	268.55
727.24	268.04
727.57	267.52
727.91	266.96
728.24	266.48
728.57	265.99
728.90	265.53
729.23	265.04
729.56	264.65
729.89	264.21
730.22	263.74
730.55	263.25
730.89	262.81
731.22	262.35
731.55	261.95
731.88	261.48
732.21	261.04
732.54	260.62
732.87	260.20
733.20	259.77
733.53	259.41
733.86	259.02
734.19	258.62
734.52	258.25
734.85	257.95
735.18	257.52
735.51	257.13
735.84	256.74
736.17	256.37
736.50	255.91
736.83	255.66
737.16	255.29
737.49	254.98
737.82	254.63
738.15	254.32
738.48	253.98
738.81	253.63
739.14	253.31
739.47	253.00
739.80	252.72
740.13	252.40
740.46	252.06
740.79	251.73
741.12	251.45
741.45	251.14
741.78	250.80
742.11	250.54
742.44	250.21
742.77	249.91
743.10	249.58
743.43	249.31
743.75	248.92
744.08	248.82
744.41	248.53
744.74	248.28
745.07	247.99
745.40	247.75
745.73	247.54
746.06	247.29
746.39	247.04
746.71	246.77
747.04	246.51
747.37	246.24
747.70	245.99
748.03	245.72
748.36	245.50
748.68	245.24
749.01	244.99
749.34	244.82
749.67	244.59
750.00	244.41
750.33	244.22
750.65	243.99
750.98	243.63
751.31	243.41
751.64	243.16
751.97	242.99
752.29	242.74
752.62	242.48
752.95	242.25
753.28	242.01
753.60	241.78
753.93	241.58
754.26	241.39
754.59	241.18
754.91	240.94
755.24	240.72
755.57	240.52
755.90	240.29
756.22	240.05
756.55	239.86
756.88	239.64
757.20	239.39
757.53	239.17
757.86	238.96
758.19	238.79
758.51	238.64
758.84	238.41
759.17	238.24
759.49	238.08
759.82	237.97
760.15	237.80
760.47	237.64
760.80	237.45
761.13	237.31
761.45	237.13
761.78	236.96
762.11	236.82
762.43	236.67
762.76	236.52
763.08	236.41
763.41	236.24
763.74	236.12
764.06	236.02
764.39	235.88
764.71	235.73
765.04	235.56
765.37	235.40
765.69	235.25
766.02	235.13
766.34	235.00
766.67	234.84
767.00	234.71
767.32	234.65
767.65	234.63
767.97	234.50
768.30	234.39
768.62	234.31
768.95	234.16
769.27	234.07
769.60	233.96
769.92	233.83
770.25	233.72
770.57	233.57
770.90	233.44
771.22	233.34
771.55	233.26
771.87	233.22
772.20	233.10
772.52	233.12
772.85	233.13
773.17	233.01
773.50	232.89
773.82	232.79
774.15	232.63
774.47	232.47
774.80	232.39
775.12	232.29
775.45	232.20
775.77	232.16
776.09	232.06
776.42	231.98
776.74	231.94
777.07	231.87
777.39	231.80
777.72	231.71
778.04	231.66
778.36	231.60
778.69	231.51
779.01	231.46
779.33	231.30
779.66	231.11
779.98	231.05
780.31	231.01
780.63	231.02
780.95	230.99
781.28	230.91
781.60	230.86
781.92	230.81
782.25	230.77
782.57	230.70
782.89	230.66
783.22	230.59
783.54	230.51
783.86	230.47
784.19	230.42
784.51	230.41
784.83	230.33
785.16	230.23
785.48	230.17
785.80	230.15
786.12	230.10
786.45	230.04
786.77	230.01
787.09	229.97
787.42	229.88
787.74	229.84
788.06	229.84
788.38	229.80
788.71	229.73
789.03	229.70
789.35	229.70
789.67	229.65
789.99	229.62
790.32	229.58
790.64	229.54
790.96	229.57
791.28	229.50
791.61	229.46
791.93	229.47
792.25	229.44
792.57	229.44
792.89	229.42
793.21	229.38
793.54	229.33
793.86	229.25
794.18	229.22
794.50	229.18
794.82	229.11
795.14	229.04
795.47	229.04
795.79	228.96
796.11	228.88
796.43	228.82
796.75	228.77
797.07	228.71
797.39	228.67
797.71	228.56
798.04	228.53
798.36	228.50
798.68	228.45
799.00	228.39
799.32	228.27
799.64	228.23
799.96	228.21
800.28	228.19
800.60	228.16
800.92	228.12
801.24	228.08
801.56	228.09
801.89	228.07
802.21	228.03
802.53	227.97
802.85	227.94
803.17	227.96
803.49	227.92
803.81	227.89
804.13	227.88
804.45	227.82
804.77	227.82
805.09	227.79
805.41	227.73
805.73	227.68
806.05	227.67
806.37	227.67
806.69	227.63
807.01	227.60
807.33	227.58
807.65	227.50
807.97	227.51
808.28	227.45
808.60	227.42
808.92	227.36
809.24	227.44
809.56	227.41
809.88	227.37
810.20	227.34
810.52	227.34
810.84	227.29
811.16	227.27
811.48	227.21
811.80	227.22
812.12	227.23
812.43	227.24
812.75	227.23
813.07	227.17
813.39	227.15
813.71	227.12
814.03	227.08
814.35	227.08
814.67	226.99
814.98	226.94
815.30	226.90
815.62	226.91
815.94	226.78
816.26	226.81
816.58	226.76
816.89	226.76
817.21	226.71
817.53	226.68
817.85	226.70
818.17	226.69
818.48	226.63
818.80	226.64
819.12	226.62
819.44	226.60
819.76	226.57
820.07	226.56
820.39	226.54
820.71	226.55
821.03	226.52
821.34	226.54
821.66	226.56
821.98	226.57
822.30	226.54
822.61	226.60
822.93	226.54
823.25	226.55
823.57	226.51
823.88	226.53
824.20	226.52
824.52	226.49
824.83	226.50
825.15	226.47
825.47	226.44
825.79	226.46
826.10	226.45
826.42	226.44
826.74	226.45
827.05	226.45
827.37	226.42
827.69	226.45
828.00	226.42
828.32	226.38
828.64	226.37
828.95	226.41
829.27	226.40
829.58	226.40
829.90	226.37
830.22	226.40
830.53	226.38
830.85	226.37
831.17	226.37
831.48	226.34
831.80	226.34
832.11	226.34
832.43	226.31
832.75	226.30
833.06	226.35
833.38	226.30
833.69	226.27
834.01	226.28
834.32	226.26
834.64	226.24
834.96	226.28
835.27	226.27
835.59	226.20
835.90	226.16
836.22	226.14
836.53	226.14
836.85	226.12
837.16	226.20
837.48	226.18
837.79	226.19
838.11	226.21
838.42	226.24
838.74	226.21
839.05	226.18
839.37	226.18
839.68	226.10
840.00	226.11
840.31	226.16
840.63	226.17
840.94	226.16
841.26	226.17
841.57	226.12
841.88	226.12
842.20	226.13
842.51	226.13
842.83	226.12
843.14	226.19
843.46	226.17
843.77	226.10
844.08	226.09
844.40	226.06
844.71	226.02
845.03	225.98
845.34	225.97
845.65	225.97
845.97	225.97
846.28	225.95
846.60	225.96
846.91	225.92
847.22	225.88
847.54	225.88
847.85	225.87
848.16	225.87
848.48	225.87
848.79	225.90
849.10	225.86
849.42	225.85
849.73	225.76
850.04	225.78
850.36	225.75
850.67	225.76
850.98	225.73
851.30	225.73
851.61	225.71
851.92	225.74
852.23	225.77
852.55	225.75
852.86	225.75
853.17	225.75
853.49	225.77
853.80	225.78
854.11	225.79
854.42	225.78
854.74	225.76
855.05	225.74
855.36	225.66
855.67	225.66
855.99	225.66
856.30	225.76
856.61	225.74
856.92	225.74
857.23	225.72
857.55	225.74
857.86	225.74
858.17	225.75
858.48	225.72
858.79	225.67
859.11	225.71
859.42	225.70
859.73	225.67
860.04	225.63
860.35	225.59
860.66	225.54
860.98	225.56
861.29	225.59
861.60	225.57
861.91	225.58
862.22	225.57
862.53	225.55
862.84	225.41
863.16	225.42
863.47	225.38
863.78	225.36
864.09	225.35
864.40	225.36
864.71	225.37
865.02	225.33
865.33	225.31
865.64	225.29
865.95	225.31
866.27	225.40
866.58	225.39
866.89	225.40
867.20	225.41
867.51	225.39
867.82	225.35
868.13	225.38
868.44	225.40
868.75	225.43
869.06	225.44
869.37	225.46
869.68	225.42
869.99	225.44
870.30	225.46
870.61	225.46
870.92	225.43
871.23	225.42
871.54	225.48
871.85	225.50
872.16	225.51
872.47	225.49
872.78	225.43
873.09	225.46
873.40	225.45
873.71	225.43
874.02	225.40
874.33	225.39
874.64	225.38
874.95	225.38
875.26	225.34
875.56	225.36
875.87	225.36
876.18	225.36
876.49	225.47
876.80	225.48
877.11	225.47
877.42	225.48
877.73	225.48
878.04	225.43
878.35	225.45
878.66	225.44
878.96	225.44
879.27	225.43
879.58	225.43
879.89	225.41
880.20	225.49
880.51	225.51
880.82	225.54
881.12	225.55
881.43	225.53
881.74	225.53
882.05	225.51
882.36	225.53
882.67	225.55
882.97	225.44
883.28	225.45
883.59	225.45
883.90	225.46
884.21	225.48
884.51	225.51
884.82	225.49
885.13	225.49
885.44	225.46
885.74	225.44
886.05	225.39
886.36	225.41
886.67	225.34
886.98	225.37
887.28	225.32
887.59	225.32
887.90	225.33
888.20	225.36
888.51	225.39
888.82	225.40
889.13	225.42
889.43	225.50
889.74	225.48
890.05	225.47
890.35	225.46
890.66	225.43
890.97	225.41
891.28	225.38
891.58	225.39
891.89	225.38
892.20	225.36
892.50	225.39
892.81	225.35
893.12	225.36
893.42	225.32
893.73	225.36
894.04	225.37
894.34	225.35
894.65	225.33
894.95	225.32
895.26	225.29
895.57	225.33
895.87	225.21
896.18	225.24
896.48	225.25
896.79	225.24
897.10	225.24
897.40	225.22
897.71	225.24
898.01	225.23
898.32	225.25
898.63	225.28
898.93	225.29
899.24	225.31
899.54	225.29
899.85	225.30
900.15	225.27
900.46	225.21
900.76	225.21
901.07	225.19
901.38	225.17
901.68	225.20
901.99	225.14
902.29	225.13
902.60	225.11
902.90	225.10
903.21	225.09
903.51	225.10
903.82	225.16
904.12	225.15
904.43	225.16
904.73	225.16
905.03	225.16
905.34	225.26
905.64	225.26
905.95	225.26
906.25	225.29
906.56	225.34
906.86	225.37
907.17	225.41
907.47	225.42
907.77	225.39
908.08	225.34
908.38	225.38
908.69	225.40
908.99	225.41
909.30	225.42
909.60	225.42
909.90	225.41
910.21	225.38
910.51	225.33
910.81	225.33
911.12	225.30
911.42	225.28
911.73	225.17
912.03	225.18
912.33	225.19
912.64	225.18
912.94	225.16
913.24	225.14
913.55	225.12
913.85	225.12
914.15	225.16
914.46	225.17
914.76	225.13
915.06	225.12
915.37	225.12
915.67	225.12
915.97	225.13
916.27	225.10
916.58	225.10
916.88	225.14
917.18	225.13
917.49	225.22
917.79	225.26
918.09	225.28
918.39	225.30
918.70	225.30
919.00	225.26
919.30	225.30
919.60	225.31
919.91	225.34
920.21	225.34
920.51	225.34
920.81	225.36
921.12	225.36
921.42	225.36
921.72	225.35
922.02	225.35
922.32	225.36
922.63	225.42
922.93	225.47
923.23	225.47
923.53	225.45
923.83	225.37
924.13	225.34
924.44	225.31
924.74	225.33
925.04	225.39
925.34	225.42
925.64	225.39
925.94	225.41
926.24	225.43
926.55	225.45
926.85	225.43
927.15	225.42
927.45	225.44
927.75	225.44
928.05	225.43
928.35	225.45
928.65	225.44
928.95	225.41
929.26	225.37
929.56	225.37
929.86	225.40
930.16	225.40
930.46	225.44
930.76	225.46
931.06	225.39
931.36	225.31
931.66	225.34
931.96	225.34
932.26	225.35
932.56	225.31
932.86	225.30
933.16	225.29
933.46	225.28
933.76	225.27
934.06	225.31
934.36	225.36
934.66	225.35
934.96	225.34
935.26	225.34
935.56	225.33
935.86	225.31
936.16	225.32
936.46	225.31
936.76	225.28
937.06	225.29
937.36	225.31
937.66	225.33
937.96	225.29
938.26	225.26
938.56	225.24
938.86	225.24
939.16	225.26
939.46	225.27
939.76	225.29
940.06	225.25
940.35	225.22
940.65	225.16
940.95	225.17
941.25	225.14
941.55	225.12
941.85	225.12
942.15	225.15
942.45	225.14
942.75	225.14
943.04	225.13
943.34	225.13
943.64	225.13
943.94	225.10
944.24	225.09
944.54	225.10
944.84	225.05
945.13	225.03
945.43	225.01
945.73	225.01
946.03	225.00
946.33	225.00
946.62	224.97
946.92	224.98
947.22	224.96
947.52	225.01
947.82	225.01
948.11	225.01
948.41	224.99
948.71	224.97
949.01	224.97
949.31	224.94
949.60	224.91
949.90	224.94
950.20	224.94
950.50	224.94
950.79	224.91
951.09	224.97
951.39	224.97
951.69	224.98
951.98	224.98
952.28	224.95
952.58	224.97
952.87	224.99
953.17	224.99
953.47	224.99
953.76	224.98
954.06	224.97
954.36	224.95
954.66	224.93
954.95	224.92
955.25	224.95
955.55	224.93
955.84	224.90
956.14	224.90
956.44	224.91
956.73	224.90
957.03	224.93
957.32	224.93
957.62	224.92
957.92	224.91
958.21	224.91
958.51	225.02
958.81	225.04
959.10	225.04
959.40	225.07
959.69	225.05
959.99	225.05
960.29	225.03
960.58	225.03
960.88	225.03
961.17	225.06
961.47	225.05
961.76	225.08
962.06	225.12
962.36	225.11
962.65	225.10
962.95	225.08
963.24	225.05
963.54	225.03
963.83	225.03
964.13	225.05
964.42	225.01
964.72	224.94
965.01	224.93
965.31	224.92
965.60	224.92
965.90	224.98
966.19	224.98
966.49	225.00
966.78	225.02
967.08	225.04
967.37	225.04
967.67	225.04
967.96	225.06
968.26	225.06
968.55	225.06
968.85	225.08
969.14	225.12
969.43	225.13
969.73	225.14
970.02	225.17
970.32	225.15
970.61	225.18
970.91	225.16
971.20	225.14
971.49	225.17
971.79	225.20
972.08	225.14
972.38	225.14
972.67	225.12
972.96	225.13
973.26	225.13
973.55	225.14
973.85	225.12
974.14	225.14
974.43	225.14
974.73	225.12
975.02	225.12
975.31	225.10
975.61	225.15
975.90	225.16
976.19	225.14
976.49	225.16
976.78	225.15
977.07	225.15
977.37	225.18
977.66	225.17
977.95	225.11
978.24	225.15
978.54	225.18
978.83	225.23
979.12	225.21
979.42	225.20
979.71	225.21
980.00	225.22
980.29	225.18
980.59	225.17
980.88	225.21
981.17	225.19
981.46	225.18
981.76	225.14
982.05	225.15
982.34	225.16
982.63	225.16
982.93	225.17
983.22	225.17
983.51	225.16
983.80	225.17
984.09	225.20
984.39	225.15
984.68	225.11
984.97	225.06
985.26	225.06
985.55	225.05
985.85	225.03
986.14	225.05
986.43	225.08
986.72	225.07
987.01	225.05
987.30	225.05
987.59	225.04
987.89	225.05
988.18	225.01
988.47	224.98
988.76	224.93
989.05	224.91
989.34	224.89
989.63	224.89
989.92	224.85
990.22	224.83
990.51	224.83
990.80	224.82
991.09	224.84
991.38	224.81
991.67	224.80
991.96	224.76
992.25	224.74
992.54	224.69
992.83	224.67
993.12	224.65
993.41	224.66
993.70	224.68
993.99	224.69
994.28	224.68
994.58	224.67
994.87	224.69
995.16	224.70
995.45	224.70
995.74	224.68
996.03	224.72
996.32	224.70
996.61	224.71
996.90	224.71
997.19	224.68
997.48	224.72
997.77	224.70
998.06	224.70
998.34	224.68
998.63	224.68
998.92	224.69
999.21	224.68
999.50	224.69
999.79	224.66
1000.08	224.65
1000.37	224.66
1000.66	224.65
1000.95	224.69
1001.24	224.68
1001.53	224.66
1001.82	224.64
1002.11	224.61
1002.40	224.65
1002.68	224.64
1002.97	224.72
1003.26	224.72
1003.55	224.69
1003.84	224.71
1004.13	224.78
1004.42	224.77
1004.71	224.77
1004.99	224.76
1005.28	224.79
1005.57	224.80
1005.86	224.82
1006.15	224.83
1006.44	224.86
1006.72	224.89
1007.01	224.85
1007.30	224.84
1007.59	224.86
1007.88	224.88
1008.17	224.90
1008.45	224.88
1008.74	224.86
1009.03	224.81
1009.32	224.86
1009.60	224.88
1009.89	224.87
1010.18	224.84
1010.47	224.89
1010.76	224.90
1011.04	224.91
1011.33	224.90
1011.62	224.92
1011.91	224.92
1012.19	224.95
1012.48	224.92
1012.77	224.91
1013.05	225.00
1013.34	225.04
1013.63	225.05
1013.92	225.09
1014.20	225.07
1014.49	225.11
1014.78	225.13
1015.06	225.10
1015.35	225.09
1015.64	225.12
1015.92	225.16
1016.21	225.17
1016.50	225.15
1016.78	225.15
1017.07	225.18
1017.36	225.17
1017.64	225.15
1017.93	225.14
1018.22	225.12
1018.50	225.14
1018.79	225.12
1019.08	225.05
1019.36	225.03
1019.65	225.02
1019.93	225.02
1020.22	225.07
1020.51	225.09
1020.79	225.06
1021.08	225.10
1021.36	224.84
1021.65	224.78
1021.94	225.17
1022.22	224.54
1022.51	224.95
1022.79	225.55
1023.08	225.54
1023.36	226.10
1023.65	224.56
>>>>>End Processed Spectral Data<<<<<
