SpectraSuite Data File
++++++++++++++++++++++++++++++++++++
Date: Fri Feb 01 15:05:49 EST 2013
User: group
Dark Spectrum Present: No
Reference Spectrum Present: No
Number of Sampled Component Spectra: 1
Spectrometers: USB2E7196
Integration Time (usec): 35000 (USB2E7196)
Spectra Averaged: 100 (USB2E7196)
Boxcar Smoothing: 10 (USB2E7196)
Correct for Electrical Dark: No (USB2E7196)
Strobe/Lamp Enabled: No (USB2E7196)
Correct for Detector Non-linearity: No (USB2E7196)
Correct for Stray Light: No (USB2E7196)
Number of Pixels in Processed Spectrum: 2048
>>>>>Begin Processed Spectral Data<<<<<
339.09	0.00
339.48	215.30
339.86	216.68
340.24	217.37
340.63	219.60
341.01	221.43
341.39	222.30
341.78	223.61
342.16	224.60
342.54	225.20
342.93	213.44
343.31	224.20
343.69	224.74
344.07	225.20
344.46	225.67
344.84	226.07
345.22	226.34
345.60	226.58
345.99	226.73
346.37	226.83
346.75	226.93
347.13	227.03
347.52	227.06
347.90	227.14
348.28	227.18
348.66	227.24
349.05	227.26
349.43	227.27
349.81	227.33
350.19	227.40
350.57	227.46
350.96	227.50
351.34	227.63
351.72	227.72
352.10	227.81
352.48	227.85
352.87	227.86
353.25	227.93
353.63	227.99
354.01	228.10
354.39	228.21
354.77	228.26
355.15	228.37
355.54	228.47
355.92	228.50
356.30	228.56
356.68	228.68
357.06	228.72
357.44	228.80
357.82	228.81
358.20	228.86
358.58	228.92
358.97	228.98
359.35	229.04
359.73	229.11
360.11	229.14
360.49	229.21
360.87	229.29
361.25	229.34
361.63	229.40
362.01	229.42
362.39	229.44
362.77	229.50
363.15	229.50
363.53	229.50
363.91	229.51
364.29	229.55
364.67	229.45
365.05	229.49
365.43	229.51
365.81	229.53
366.19	229.58
366.57	229.59
366.95	229.59
367.33	229.56
367.71	229.55
368.09	229.59
368.47	229.55
368.85	229.50
369.23	229.48
369.61	229.41
369.99	229.38
370.37	229.36
370.75	229.33
371.13	229.22
371.51	229.14
371.89	229.09
372.27	229.00
372.65	228.95
373.03	228.91
373.41	228.84
373.78	228.78
374.16	228.65
374.54	228.58
374.92	228.49
375.30	228.41
375.68	228.30
376.06	228.22
376.44	228.14
376.82	228.06
377.19	228.02
377.57	227.96
377.95	227.85
378.33	227.75
378.71	227.65
379.09	227.61
379.47	227.57
379.84	227.50
380.22	227.39
380.60	227.31
380.98	227.19
381.36	227.13
381.73	227.01
382.11	226.95
382.49	226.88
382.87	226.79
383.25	226.70
383.62	226.76
384.00	226.69
384.38	226.65
384.76	226.61
385.13	226.55
385.51	226.50
385.89	226.43
386.27	226.40
386.64	226.39
387.02	226.35
387.40	226.28
387.78	226.27
388.15	226.27
388.53	226.26
388.91	226.23
389.29	226.20
389.66	226.23
390.04	226.20
390.42	226.19
390.79	226.18
391.17	226.18
391.55	226.07
391.92	226.07
392.30	226.08
392.68	226.06
393.05	226.05
393.43	226.05
393.81	226.09
394.18	226.09
394.56	226.09
394.94	226.11
395.31	226.14
395.69	226.16
396.06	226.22
396.44	226.26
396.82	226.32
397.19	226.40
397.57	226.44
397.95	226.52
398.32	226.58
398.70	226.68
399.07	226.78
399.45	226.83
399.82	226.88
400.20	226.94
400.58	227.05
400.95	227.11
401.33	227.23
401.70	227.36
402.08	227.47
402.45	227.60
402.83	227.73
403.20	227.88
403.58	228.03
403.95	228.13
404.33	228.27
404.71	228.39
405.08	228.58
405.46	228.72
405.83	228.92
406.21	229.11
406.58	229.27
406.96	229.43
407.33	229.61
407.70	229.82
408.08	230.10
408.45	230.35
408.83	230.62
409.20	230.84
409.58	231.06
409.95	231.34
410.33	231.55
410.70	231.82
411.08	232.11
411.45	232.38
411.82	232.70
412.20	233.07
412.57	233.54
412.95	233.87
413.32	234.31
413.69	234.69
414.07	235.11
414.44	235.57
414.82	236.05
415.19	236.60
415.56	237.18
415.94	237.73
416.31	238.33
416.68	238.93
417.06	239.65
417.43	240.33
417.81	241.12
418.18	241.93
418.55	242.76
418.93	243.64
419.30	244.55
419.67	245.52
420.04	246.45
420.42	247.39
420.79	248.54
421.16	249.68
421.54	250.89
421.91	252.09
422.28	253.36
422.66	254.70
423.03	255.99
423.40	257.31
423.77	258.73
424.15	260.14
424.52	261.58
424.89	263.19
425.26	264.72
425.64	266.14
426.01	267.73
426.38	269.42
426.75	271.11
427.13	272.84
427.50	274.64
427.87	276.51
428.24	278.35
428.61	280.08
428.99	282.01
429.36	284.10
429.73	286.15
430.10	288.16
430.47	290.22
430.85	292.40
431.22	294.63
431.59	297.02
431.96	299.33
432.33	301.84
432.70	304.21
433.08	307.04
433.45	309.68
433.82	312.32
434.19	315.19
434.56	317.96
434.93	320.60
435.30	323.23
435.68	326.14
436.05	329.01
436.42	331.83
436.79	334.35
437.16	337.05
437.53	339.92
437.90	342.71
438.27	345.45
438.64	348.24
439.01	350.83
439.38	353.03
439.75	355.18
440.13	357.70
440.50	360.04
440.87	361.91
441.24	363.85
441.61	365.97
441.98	367.43
442.35	369.25
442.72	371.23
443.09	373.01
443.46	374.01
443.83	374.60
444.20	375.12
444.57	375.96
444.94	376.27
445.31	376.60
445.68	377.00
446.05	377.08
446.42	376.69
446.79	376.30
447.16	375.88
447.53	375.53
447.90	374.40
448.27	373.23
448.64	371.59
449.01	370.47
449.37	368.54
449.74	366.70
450.11	364.43
450.48	361.89
450.85	359.38
451.22	357.23
451.59	355.24
451.96	353.27
452.33	350.67
452.70	348.30
453.07	345.41
453.43	342.49
453.80	339.73
454.17	337.04
454.54	334.50
454.91	331.75
455.28	329.12
455.65	326.61
456.02	324.17
456.38	322.08
456.75	319.43
457.12	317.15
457.49	314.94
457.86	312.79
458.23	310.92
458.59	308.87
458.96	306.77
459.33	304.90
459.70	303.07
460.07	301.56
460.43	299.86
460.80	298.28
461.17	296.85
461.54	295.36
461.91	293.97
462.27	292.51
462.64	291.27
463.01	289.85
463.38	288.53
463.74	287.13
464.11	285.93
464.48	284.90
464.85	283.80
465.21	282.92
465.58	281.97
465.95	280.86
466.32	279.95
466.68	279.02
467.05	278.10
467.42	277.19
467.78	276.25
468.15	275.33
468.52	274.64
468.88	273.73
469.25	272.95
469.62	272.31
469.98	271.57
470.35	270.87
470.72	270.29
471.08	269.64
471.45	269.15
471.82	268.61
472.18	267.95
472.55	267.51
472.92	266.97
473.28	266.49
473.65	266.02
474.02	265.52
474.38	265.11
474.75	264.77
475.11	264.39
475.48	264.11
475.85	263.92
476.21	263.67
476.58	263.48
476.94	263.31
477.31	263.10
477.67	262.97
478.04	262.89
478.41	262.86
478.77	262.91
479.14	262.78
479.50	262.75
479.87	262.82
480.23	262.87
480.60	262.92
480.96	263.02
481.33	263.22
481.69	263.44
482.06	263.68
482.42	263.87
482.79	264.10
483.15	264.41
483.52	264.75
483.88	265.12
484.25	265.51
484.61	265.90
484.98	266.38
485.34	266.94
485.71	267.47
486.07	268.02
486.44	268.56
486.80	269.29
487.17	270.04
487.53	270.85
487.90	271.69
488.26	272.61
488.62	273.59
488.99	274.54
489.35	275.57
489.72	276.68
490.08	277.83
490.44	279.10
490.81	280.42
491.17	281.76
491.54	283.22
491.90	284.76
492.26	286.41
492.63	288.12
492.99	289.89
493.36	291.82
493.72	293.84
494.08	295.95
494.45	298.18
494.81	300.49
495.17	302.90
495.54	305.46
495.90	308.13
496.26	310.92
496.63	313.90
496.99	317.01
497.35	320.24
497.72	323.68
498.08	327.16
498.44	330.81
498.80	334.72
499.17	338.72
499.53	342.83
499.89	347.25
500.26	351.77
500.62	356.44
500.98	361.36
501.34	366.46
501.71	371.75
502.07	377.20
502.43	382.82
502.79	388.64
503.16	394.66
503.52	400.94
503.88	407.35
504.24	413.95
504.60	420.80
504.97	427.89
505.33	435.22
505.69	442.92
506.05	450.68
506.41	458.52
506.78	466.69
507.14	475.14
507.50	483.77
507.86	492.75
508.22	501.92
508.59	511.10
508.95	520.68
509.31	530.48
509.67	540.54
510.03	550.80
510.39	561.33
510.75	572.16
511.12	583.02
511.48	594.29
511.84	605.74
512.20	617.27
512.56	629.26
512.92	641.38
513.28	653.68
513.64	666.15
514.00	678.85
514.37	691.78
514.73	704.89
515.09	717.95
515.45	731.24
515.81	744.81
516.17	758.76
516.53	772.84
516.89	787.01
517.25	801.17
517.61	815.66
517.97	830.15
518.33	844.63
518.69	859.39
519.05	874.39
519.41	889.63
519.77	905.15
520.13	920.59
520.49	936.01
520.85	951.42
521.21	967.22
521.57	983.52
521.93	999.36
522.29	1015.73
522.65	1032.12
523.01	1048.48
523.37	1064.58
523.73	1080.86
524.09	1097.04
524.45	1113.43
524.81	1130.25
525.17	1147.17
525.53	1164.13
525.89	1181.01
526.25	1198.04
526.61	1214.53
526.97	1231.24
527.33	1247.86
527.68	1264.58
528.04	1281.21
528.40	1298.00
528.76	1315.15
529.12	1331.81
529.48	1348.67
529.84	1364.82
530.20	1381.37
530.56	1398.39
530.91	1415.82
531.27	1432.61
531.63	1449.21
531.99	1465.84
532.35	1481.80
532.71	1497.64
533.07	1513.98
533.42	1529.92
533.78	1546.00
534.14	1562.32
534.50	1577.78
534.86	1593.73
535.21	1608.98
535.57	1625.00
535.93	1640.59
536.29	1655.40
536.65	1670.65
537.00	1685.56
537.36	1700.95
537.72	1715.62
538.08	1730.01
538.44	1744.00
538.79	1757.99
539.15	1771.78
539.51	1785.75
539.87	1800.28
540.22	1814.20
540.58	1828.08
540.94	1841.51
541.29	1854.58
541.65	1867.38
542.01	1880.79
542.37	1893.17
542.72	1905.69
543.08	1917.58
543.44	1930.08
543.79	1941.44
544.15	1952.45
544.51	1964.16
544.87	1975.18
545.22	1985.99
545.58	1996.37
545.94	2006.20
546.29	2016.07
546.65	2025.88
547.01	2035.02
547.36	2043.79
547.72	2052.25
548.07	2060.01
548.43	2068.23
548.79	2076.25
549.14	2083.89
549.50	2091.22
549.86	2098.97
550.21	2106.27
550.57	2113.29
550.92	2119.79
551.28	2126.85
551.64	2133.95
551.99	2140.44
552.35	2146.67
552.70	2152.86
553.06	2158.72
553.41	2164.95
553.77	2171.27
554.13	2177.29
554.48	2183.43
554.84	2188.77
555.19	2194.16
555.55	2199.21
555.90	2203.74
556.26	2208.38
556.61	2213.00
556.97	2217.11
557.32	2221.24
557.68	2225.42
558.03	2229.84
558.39	2233.53
558.74	2238.16
559.10	2241.85
559.45	2245.41
559.81	2249.69
560.16	2253.49
560.52	2256.79
560.87	2260.08
561.23	2262.49
561.58	2265.50
561.94	2268.04
562.29	2270.47
562.64	2273.10
563.00	2275.88
563.35	2279.26
563.71	2282.59
564.06	2285.67
564.42	2288.54
564.77	2290.85
565.12	2292.81
565.48	2294.45
565.83	2296.15
566.19	2297.07
566.54	2297.98
566.89	2299.07
567.25	2299.36
567.60	2300.61
567.96	2302.12
568.31	2303.04
568.66	2304.00
569.02	2304.43
569.37	2304.48
569.72	2305.09
570.08	2304.96
570.43	2304.77
570.78	2303.86
571.14	2302.14
571.49	2300.66
571.84	2300.14
572.20	2298.85
572.55	2297.85
572.90	2296.38
573.26	2294.72
573.61	2293.12
573.96	2291.20
574.31	2288.09
574.67	2284.90
575.02	2281.10
575.37	2277.65
575.72	2273.57
576.08	2270.17
576.43	2266.70
576.78	2263.02
577.13	2259.78
577.49	2256.60
577.84	2252.95
578.19	2249.27
578.54	2245.31
578.90	2240.97
579.25	2235.35
579.60	2230.41
579.95	2225.27
580.30	2220.05
580.66	2214.88
581.01	2209.77
581.36	2204.71
581.71	2200.39
582.06	2195.98
582.42	2191.34
582.77	2185.93
583.12	2181.13
583.47	2176.17
583.82	2170.92
584.17	2165.61
584.53	2159.99
584.88	2154.20
585.23	2148.37
585.58	2142.73
585.93	2137.31
586.28	2132.55
586.63	2127.36
586.98	2122.08
587.34	2117.38
587.69	2112.46
588.04	2107.21
588.39	2101.52
588.74	2094.89
589.09	2088.62
589.44	2081.65
589.79	2075.50
590.14	2069.76
590.49	2063.34
590.84	2056.89
591.19	2050.83
591.54	2044.32
591.89	2036.77
592.25	2029.93
592.60	2022.48
592.95	2014.92
593.30	2007.56
593.65	1999.82
594.00	1992.77
594.35	1985.47
594.70	1977.25
595.05	1969.81
595.40	1962.48
595.75	1954.78
596.10	1948.50
596.45	1941.68
596.80	1935.43
597.15	1928.90
597.50	1921.73
597.85	1915.27
598.19	1908.58
598.54	1901.40
598.89	1894.67
599.24	1888.77
599.59	1881.91
599.94	1875.83
600.29	1869.51
600.64	1862.75
600.99	1855.17
601.34	1848.28
601.69	1841.22
602.04	1834.12
602.39	1826.77
602.74	1819.86
603.08	1813.12
603.43	1806.52
603.78	1799.16
604.13	1792.08
604.48	1784.72
604.83	1777.88
605.18	1770.67
605.53	1762.56
605.87	1754.62
606.22	1747.43
606.57	1739.52
606.92	1732.28
607.27	1724.94
607.62	1717.92
607.96	1710.59
608.31	1703.98
608.66	1696.25
609.01	1688.71
609.36	1681.36
609.70	1673.34
610.05	1665.24
610.40	1657.64
610.75	1649.23
611.10	1641.61
611.44	1633.18
611.79	1625.10
612.14	1616.43
612.49	1607.45
612.83	1599.14
613.18	1591.02
613.53	1582.88
613.88	1574.25
614.22	1565.99
614.57	1557.52
614.92	1549.45
615.27	1541.93
615.61	1533.62
615.96	1525.62
616.31	1518.05
616.65	1510.61
617.00	1503.05
617.35	1495.38
617.70	1487.03
618.04	1478.50
618.39	1470.36
618.74	1462.68
619.08	1454.51
619.43	1446.92
619.78	1440.03
620.12	1432.85
620.47	1425.36
620.82	1417.30
621.16	1410.05
621.51	1402.46
621.85	1394.89
622.20	1386.39
622.55	1378.07
622.89	1370.42
623.24	1362.96
623.59	1355.65
623.93	1348.28
624.28	1341.14
624.62	1333.71
624.97	1326.49
625.32	1319.80
625.66	1312.68
626.01	1305.52
626.35	1297.93
626.70	1290.29
627.04	1282.50
627.39	1274.88
627.73	1267.40
628.08	1260.46
628.43	1253.11
628.77	1245.73
629.12	1238.12
629.46	1230.94
629.81	1223.65
630.15	1216.36
630.50	1208.96
630.84	1200.78
631.19	1192.86
631.53	1185.33
631.88	1177.85
632.22	1170.31
632.57	1162.99
632.91	1155.56
633.26	1148.15
633.60	1141.02
633.95	1134.07
634.29	1127.12
634.64	1120.50
634.98	1113.27
635.32	1106.08
635.67	1099.57
636.01	1093.02
636.36	1086.34
636.70	1079.99
637.05	1073.34
637.39	1066.89
637.73	1060.38
638.08	1054.65
638.42	1048.66
638.77	1042.24
639.11	1035.60
639.45	1029.30
639.80	1022.73
640.14	1016.31
640.49	1009.95
640.83	1003.53
641.17	997.13
641.52	990.80
641.86	984.35
642.20	978.53
642.55	972.37
642.89	965.82
643.23	959.35
643.58	953.43
643.92	947.20
644.26	941.17
644.61	935.20
644.95	929.18
645.29	922.40
645.64	915.68
645.98	909.36
646.32	903.60
646.66	897.49
647.01	891.70
647.35	886.01
647.69	880.14
648.04	874.75
648.38	869.01
648.72	862.99
649.06	856.91
649.41	851.00
649.75	844.85
650.09	838.86
650.43	832.98
650.78	826.94
651.12	821.07
651.46	815.36
651.80	809.55
652.14	804.16
652.49	798.76
652.83	793.51
653.17	787.78
653.51	782.02
653.85	776.67
654.20	771.02
654.54	765.02
654.88	759.36
655.22	753.49
655.56	747.86
655.90	742.47
656.25	737.14
656.59	731.79
656.93	726.79
657.27	721.71
657.61	716.30
657.95	711.20
658.29	706.05
658.64	700.86
658.98	695.60
659.32	690.16
659.66	685.06
660.00	679.76
660.34	674.88
660.68	670.04
661.02	665.01
661.36	660.34
661.70	655.94
662.05	651.54
662.39	647.21
662.73	642.79
663.07	638.49
663.41	634.17
663.75	629.71
664.09	625.19
664.43	620.84
664.77	616.78
665.11	612.57
665.45	608.51
665.79	604.45
666.13	600.40
666.47	596.34
666.81	592.17
667.15	588.11
667.49	584.31
667.83	580.54
668.17	576.72
668.51	572.68
668.85	568.69
669.19	564.90
669.53	561.06
669.87	557.12
670.21	553.43
670.55	549.84
670.89	546.48
671.23	543.04
671.57	539.57
671.91	536.05
672.25	532.60
672.58	529.12
672.92	525.78
673.26	522.65
673.60	519.56
673.94	516.51
674.28	513.67
674.62	510.73
674.96	507.64
675.30	504.70
675.64	501.85
675.97	499.11
676.31	496.26
676.65	493.35
676.99	490.71
677.33	487.87
677.67	485.06
678.01	482.01
678.34	479.02
678.68	476.25
679.02	473.51
679.36	470.78
679.70	468.15
680.04	465.39
680.37	462.52
680.71	459.75
681.05	457.13
681.39	454.43
681.73	451.79
682.06	449.25
682.40	446.74
682.74	444.16
683.08	441.63
683.42	439.04
683.75	436.55
684.09	434.08
684.43	431.60
684.77	429.09
685.10	426.81
685.44	424.58
685.78	422.24
686.12	419.95
686.45	417.71
686.79	415.36
687.13	413.16
687.46	411.00
687.80	408.84
688.14	406.63
688.48	404.58
688.81	402.32
689.15	400.20
689.49	398.04
689.82	396.00
690.16	393.86
690.50	391.91
690.83	390.03
691.17	387.97
691.51	386.08
691.84	384.28
692.18	382.28
692.52	380.26
692.85	378.35
693.19	376.48
693.52	374.63
693.86	372.81
694.20	370.98
694.53	369.17
694.87	367.28
695.21	365.50
695.54	363.66
695.88	361.97
696.21	360.17
696.55	358.53
696.88	356.85
697.22	355.23
697.56	353.63
697.89	351.87
698.23	350.28
698.56	348.70
698.90	347.07
699.23	345.49
699.57	343.96
699.90	342.37
700.24	340.82
700.58	339.24
700.91	337.72
701.25	336.33
701.58	335.02
701.92	333.69
702.25	332.31
702.59	330.97
702.92	329.61
703.26	328.37
703.59	327.06
703.93	325.88
704.26	324.64
704.60	323.36
704.93	322.14
705.26	320.93
705.60	319.76
705.93	318.58
706.27	317.52
706.60	316.48
706.94	315.45
707.27	314.34
707.61	313.30
707.94	312.34
708.27	311.25
708.61	310.17
708.94	309.20
709.28	308.25
709.61	307.32
709.94	306.40
710.28	305.42
710.61	304.44
710.95	303.36
711.28	302.46
711.61	301.50
711.95	300.61
712.28	299.64
712.61	298.64
712.95	297.75
713.28	296.90
713.61	296.03
713.95	295.13
714.28	294.33
714.61	293.52
714.95	292.68
715.28	291.86
715.61	290.97
715.95	290.12
716.28	289.25
716.61	288.43
716.95	287.62
717.28	286.82
717.61	286.06
717.94	285.34
718.28	284.56
718.61	283.87
718.94	283.18
719.27	282.54
719.61	281.97
719.94	281.36
720.27	280.66
720.60	280.02
720.94	279.44
721.27	278.84
721.60	278.30
721.93	277.69
722.27	277.15
722.60	276.62
722.93	276.06
723.26	275.55
723.59	274.99
723.93	274.48
724.26	273.99
724.59	273.46
724.92	272.96
725.25	272.43
725.59	271.94
725.92	271.47
726.25	270.95
726.58	270.45
726.91	269.94
727.24	269.52
727.57	269.03
727.91	268.52
728.24	268.09
728.57	267.59
728.90	267.18
729.23	266.67
729.56	266.23
729.89	265.73
730.22	265.23
730.55	264.76
730.89	264.29
731.22	263.85
731.55	263.39
731.88	262.96
732.21	262.54
732.54	262.11
732.87	261.64
733.20	261.25
733.53	260.84
733.86	260.47
734.19	260.05
734.52	259.64
734.85	259.32
735.18	258.88
735.51	258.49
735.84	258.10
736.17	257.77
736.50	257.36
736.83	257.14
737.16	256.81
737.49	256.48
737.82	256.13
738.15	255.83
738.48	255.48
738.81	255.15
739.14	254.83
739.47	254.46
739.80	254.16
740.13	253.88
740.46	253.55
740.79	253.18
741.12	252.87
741.45	252.59
741.78	252.23
742.11	251.92
742.44	251.57
742.77	251.28
743.10	250.98
743.43	250.68
743.75	250.31
744.08	250.15
744.41	249.88
744.74	249.64
745.07	249.30
745.40	249.06
745.73	248.80
746.06	248.52
746.39	248.29
746.71	248.00
747.04	247.71
747.37	247.43
747.70	247.20
748.03	246.93
748.36	246.70
748.68	246.45
749.01	246.24
749.34	246.03
749.67	245.75
750.00	245.51
750.33	245.37
750.65	245.14
750.98	244.86
751.31	244.63
751.64	244.38
751.97	244.26
752.29	244.07
752.62	243.79
752.95	243.58
753.28	243.37
753.60	243.15
753.93	243.02
754.26	242.83
754.59	242.64
754.91	242.43
755.24	242.22
755.57	242.06
755.90	241.86
756.22	241.66
756.55	241.50
756.88	241.29
757.20	241.04
757.53	240.87
757.86	240.66
758.19	240.51
758.51	240.36
758.84	240.15
759.17	239.98
759.49	239.86
759.82	239.78
760.15	239.61
760.47	239.49
760.80	239.31
761.13	239.20
761.45	239.04
761.78	238.91
762.11	238.78
762.43	238.62
762.76	238.47
763.08	238.40
763.41	238.30
763.74	238.18
764.06	238.06
764.39	237.92
764.71	237.79
765.04	237.66
765.37	237.51
765.69	237.40
766.02	237.25
766.34	237.13
766.67	236.95
767.00	236.87
767.32	236.80
767.65	236.73
767.97	236.58
768.30	236.46
768.62	236.32
768.95	236.23
769.27	236.12
769.60	236.04
769.92	235.85
770.25	235.71
770.57	235.63
770.90	235.55
771.22	235.45
771.55	235.37
771.87	235.31
772.20	235.22
772.52	235.18
772.85	235.20
773.17	235.08
773.50	235.00
773.82	234.88
774.15	234.77
774.47	234.61
774.80	234.53
775.12	234.44
775.45	234.37
775.77	234.26
776.09	234.17
776.42	234.11
776.74	234.06
777.07	234.01
777.39	233.92
777.72	233.85
778.04	233.77
778.36	233.67
778.69	233.57
779.01	233.54
779.33	233.39
779.66	233.21
779.98	233.12
780.31	233.04
780.63	233.00
780.95	232.95
781.28	232.87
781.60	232.81
781.92	232.73
782.25	232.66
782.57	232.58
782.89	232.53
783.22	232.43
783.54	232.37
783.86	232.26
784.19	232.20
784.51	232.14
784.83	232.07
785.16	232.01
785.48	231.94
785.80	231.85
786.12	231.82
786.45	231.78
786.77	231.76
787.09	231.70
787.42	231.63
787.74	231.54
788.06	231.49
788.38	231.44
788.71	231.38
789.03	231.35
789.35	231.31
789.67	231.24
789.99	231.20
790.32	231.14
790.64	231.15
790.96	231.18
791.28	231.08
791.61	231.06
791.93	231.04
792.25	231.00
792.57	231.02
792.89	230.97
793.21	230.92
793.54	230.88
793.86	230.84
794.18	230.80
794.50	230.78
794.82	230.77
795.14	230.74
795.47	230.75
795.79	230.71
796.11	230.65
796.43	230.63
796.75	230.62
797.07	230.58
797.39	230.54
797.71	230.45
798.04	230.43
798.36	230.40
798.68	230.33
799.00	230.32
799.32	230.24
799.64	230.22
799.96	230.19
800.28	230.18
800.60	230.17
800.92	230.18
801.24	230.15
801.56	230.14
801.89	230.13
802.21	230.11
802.53	230.08
802.85	230.11
803.17	230.14
803.49	230.09
803.81	230.09
804.13	230.05
804.45	230.03
804.77	230.03
805.09	230.00
805.41	229.97
805.73	229.91
806.05	229.87
806.37	229.86
806.69	229.85
807.01	229.83
807.33	229.79
807.65	229.72
807.97	229.77
808.28	229.72
808.60	229.71
808.92	229.68
809.24	229.72
809.56	229.65
809.88	229.60
810.20	229.55
810.52	229.55
810.84	229.54
811.16	229.50
811.48	229.46
811.80	229.51
812.12	229.54
812.43	229.55
812.75	229.54
813.07	229.52
813.39	229.49
813.71	229.47
814.03	229.47
814.35	229.45
814.67	229.34
814.98	229.30
815.30	229.26
815.62	229.22
815.94	229.14
816.26	229.17
816.58	229.10
816.89	229.12
817.21	229.08
817.53	229.06
817.85	229.04
818.17	229.02
818.48	228.91
818.80	228.88
819.12	228.85
819.44	228.81
819.76	228.78
820.07	228.76
820.39	228.73
820.71	228.68
821.03	228.63
821.34	228.61
821.66	228.60
821.98	228.57
822.30	228.54
822.61	228.59
822.93	228.49
823.25	228.50
823.57	228.46
823.88	228.44
824.20	228.42
824.52	228.43
824.83	228.41
825.15	228.39
825.47	228.34
825.79	228.34
826.10	228.29
826.42	228.26
826.74	228.24
827.05	228.22
827.37	228.19
827.69	228.18
828.00	228.17
828.32	228.18
828.64	228.19
828.95	228.23
829.27	228.13
829.58	228.20
829.90	228.20
830.22	228.19
830.53	228.16
830.85	228.13
831.17	228.06
831.48	228.07
831.80	228.07
832.11	228.06
832.43	228.01
832.75	228.04
833.06	228.10
833.38	228.06
833.69	228.06
834.01	228.07
834.32	228.10
834.64	228.07
834.96	228.01
835.27	228.00
835.59	227.98
835.90	227.99
836.22	227.98
836.53	227.96
836.85	227.93
837.16	228.06
837.48	228.07
837.79	228.15
838.11	228.17
838.42	228.17
838.74	228.19
839.05	228.18
839.37	228.18
839.68	228.15
840.00	228.16
840.31	228.16
840.63	228.19
840.94	228.17
841.26	228.19
841.57	228.22
841.88	228.22
842.20	228.20
842.51	228.20
842.83	228.19
843.14	228.26
843.46	228.28
843.77	228.22
844.08	228.20
844.40	228.15
844.71	228.14
845.03	228.14
845.34	228.13
845.65	228.13
845.97	228.16
846.28	228.12
846.60	228.14
846.91	228.10
847.22	228.08
847.54	228.09
847.85	228.11
848.16	228.10
848.48	228.11
848.79	228.12
849.10	228.13
849.42	228.15
849.73	228.06
850.04	228.05
850.36	228.00
850.67	228.02
850.98	228.04
851.30	228.04
851.61	228.04
851.92	228.05
852.23	228.09
852.55	228.06
852.86	228.07
853.17	228.06
853.49	228.09
853.80	228.08
854.11	228.07
854.42	228.10
854.74	228.10
855.05	228.11
855.36	228.06
855.67	228.03
855.99	228.01
856.30	228.12
856.61	228.12
856.92	228.11
857.23	228.11
857.55	228.07
857.86	228.04
858.17	228.01
858.48	227.97
858.79	227.93
859.11	227.93
859.42	227.88
859.73	227.85
860.04	227.82
860.35	227.80
860.66	227.78
860.98	227.73
861.29	227.70
861.60	227.69
861.91	227.68
862.22	227.65
862.53	227.61
862.84	227.49
863.16	227.49
863.47	227.44
863.78	227.41
864.09	227.37
864.40	227.36
864.71	227.38
865.02	227.38
865.33	227.34
865.64	227.31
865.95	227.33
866.27	227.34
866.58	227.32
866.89	227.30
867.20	227.29
867.51	227.26
867.82	227.24
868.13	227.23
868.44	227.24
868.75	227.25
869.06	227.23
869.37	227.22
869.68	227.20
869.99	227.23
870.30	227.20
870.61	227.20
870.92	227.20
871.23	227.15
871.54	227.15
871.85	227.17
872.16	227.16
872.47	227.13
872.78	227.13
873.09	227.15
873.40	227.15
873.71	227.18
874.02	227.18
874.33	227.18
874.64	227.15
874.95	227.16
875.26	227.15
875.56	227.16
875.87	227.18
876.18	227.18
876.49	227.27
876.80	227.32
877.11	227.31
877.42	227.30
877.73	227.32
878.04	227.29
878.35	227.30
878.66	227.36
878.96	227.35
879.27	227.32
879.58	227.34
879.89	227.33
880.20	227.33
880.51	227.35
880.82	227.37
881.12	227.39
881.43	227.35
881.74	227.36
882.05	227.39
882.36	227.41
882.67	227.43
882.97	227.32
883.28	227.29
883.59	227.31
883.90	227.35
884.21	227.39
884.51	227.42
884.82	227.42
885.13	227.37
885.44	227.37
885.74	227.39
886.05	227.37
886.36	227.39
886.67	227.33
886.98	227.38
887.28	227.38
887.59	227.37
887.90	227.41
888.20	227.40
888.51	227.39
888.82	227.36
889.13	227.35
889.43	227.45
889.74	227.47
890.05	227.43
890.35	227.42
890.66	227.40
890.97	227.38
891.28	227.38
891.58	227.40
891.89	227.44
892.20	227.43
892.50	227.44
892.81	227.40
893.12	227.44
893.42	227.39
893.73	227.39
894.04	227.41
894.34	227.40
894.65	227.43
894.95	227.42
895.26	227.46
895.57	227.51
895.87	227.40
896.18	227.42
896.48	227.46
896.79	227.44
897.10	227.45
897.40	227.46
897.71	227.46
898.01	227.43
898.32	227.44
898.63	227.43
898.93	227.44
899.24	227.45
899.54	227.44
899.85	227.44
900.15	227.44
900.46	227.41
900.76	227.39
901.07	227.37
901.38	227.34
901.68	227.33
901.99	227.28
902.29	227.30
902.60	227.23
902.90	227.19
903.21	227.20
903.51	227.16
903.82	227.16
904.12	227.16
904.43	227.18
904.73	227.15
905.03	227.13
905.34	227.23
905.64	227.23
905.95	227.22
906.25	227.20
906.56	227.18
906.86	227.17
907.17	227.15
907.47	227.15
907.77	227.15
908.08	227.07
908.38	227.05
908.69	227.05
908.99	227.09
909.30	227.05
909.60	227.04
909.90	227.04
910.21	227.01
910.51	226.97
910.81	226.96
911.12	226.99
911.42	227.01
911.73	226.88
912.03	226.88
912.33	226.92
912.64	226.91
912.94	226.91
913.24	226.91
913.55	226.94
913.85	226.95
914.15	226.95
914.46	226.99
914.76	226.99
915.06	226.99
915.37	226.99
915.67	227.06
915.97	227.07
916.27	227.04
916.58	227.05
916.88	227.05
917.18	227.06
917.49	227.11
917.79	227.10
918.09	227.12
918.39	227.12
918.70	227.08
919.00	227.10
919.30	227.14
919.60	227.17
919.91	227.14
920.21	227.14
920.51	227.15
920.81	227.15
921.12	227.16
921.42	227.17
921.72	227.16
922.02	227.16
922.32	227.14
922.63	227.18
922.93	227.20
923.23	227.26
923.53	227.24
923.83	227.18
924.13	227.18
924.44	227.23
924.74	227.26
925.04	227.31
925.34	227.32
925.64	227.26
925.94	227.22
926.24	227.29
926.55	227.30
926.85	227.31
927.15	227.32
927.45	227.38
927.75	227.38
928.05	227.40
928.35	227.38
928.65	227.43
928.95	227.44
929.26	227.42
929.56	227.44
929.86	227.45
930.16	227.46
930.46	227.44
930.76	227.39
931.06	227.36
931.36	227.34
931.66	227.30
931.96	227.34
932.26	227.36
932.56	227.31
932.86	227.32
933.16	227.34
933.46	227.32
933.76	227.23
934.06	227.25
934.36	227.26
934.66	227.28
934.96	227.23
935.26	227.22
935.56	227.24
935.86	227.17
936.16	227.13
936.46	227.09
936.76	227.10
937.06	227.10
937.36	227.09
937.66	227.08
937.96	227.11
938.26	227.07
938.56	227.04
938.86	227.02
939.16	227.01
939.46	227.01
939.76	227.01
940.06	226.99
940.35	226.95
940.65	226.89
940.95	226.86
941.25	226.87
941.55	226.85
941.85	226.83
942.15	226.86
942.45	226.89
942.75	226.91
943.04	226.88
943.34	226.88
943.64	226.84
943.94	226.83
944.24	226.82
944.54	226.84
944.84	226.84
945.13	226.83
945.43	226.80
945.73	226.76
946.03	226.76
946.33	226.75
946.62	226.74
946.92	226.70
947.22	226.71
947.52	226.72
947.82	226.76
948.11	226.73
948.41	226.70
948.71	226.68
949.01	226.68
949.31	226.67
949.60	226.67
949.90	226.67
950.20	226.69
950.50	226.69
950.79	226.67
951.09	226.71
951.39	226.72
951.69	226.71
951.98	226.74
952.28	226.74
952.58	226.76
952.87	226.81
953.17	226.85
953.47	226.83
953.76	226.85
954.06	226.84
954.36	226.84
954.66	226.84
954.95	226.86
955.25	226.88
955.55	226.92
955.84	226.93
956.14	226.98
956.44	226.95
956.73	226.96
957.03	227.01
957.32	226.99
957.62	227.01
957.92	227.03
958.21	227.03
958.51	227.18
958.81	227.20
959.10	227.19
959.40	227.24
959.69	227.27
959.99	227.27
960.29	227.25
960.58	227.29
960.88	227.37
961.17	227.38
961.47	227.42
961.76	227.39
962.06	227.37
962.36	227.39
962.65	227.42
962.95	227.41
963.24	227.37
963.54	227.37
963.83	227.40
964.13	227.44
964.42	227.44
964.72	227.34
965.01	227.37
965.31	227.35
965.60	227.31
965.90	227.39
966.19	227.39
966.49	227.39
966.78	227.39
967.08	227.36
967.37	227.34
967.67	227.32
967.96	227.34
968.26	227.36
968.55	227.35
968.85	227.30
969.14	227.31
969.43	227.33
969.73	227.34
970.02	227.30
970.32	227.27
970.61	227.24
970.91	227.21
971.20	227.18
971.49	227.17
971.79	227.17
972.08	227.07
972.38	227.05
972.67	227.02
972.96	227.02
973.26	226.99
973.55	227.01
973.85	226.99
974.14	226.97
974.43	226.94
974.73	226.94
975.02	226.96
975.31	226.94
975.61	226.92
975.90	226.87
976.19	226.86
976.49	226.83
976.78	226.82
977.07	226.81
977.37	226.80
977.66	226.80
977.95	226.79
978.24	226.79
978.54	226.77
978.83	226.81
979.12	226.76
979.42	226.78
979.71	226.75
980.00	226.75
980.29	226.75
980.59	226.74
980.88	226.75
981.17	226.69
981.46	226.69
981.76	226.68
982.05	226.74
982.34	226.71
982.63	226.70
982.93	226.70
983.22	226.72
983.51	226.73
983.80	226.74
984.09	226.76
984.39	226.78
984.68	226.81
984.97	226.80
985.26	226.81
985.55	226.76
985.85	226.76
986.14	226.75
986.43	226.77
986.72	226.79
987.01	226.76
987.30	226.80
987.59	226.79
987.89	226.80
988.18	226.73
988.47	226.75
988.76	226.79
989.05	226.80
989.34	226.80
989.63	226.84
989.92	226.85
990.22	226.82
990.51	226.81
990.80	226.79
991.09	226.81
991.38	226.83
991.67	226.83
991.96	226.83
992.25	226.86
992.54	226.84
992.83	226.86
993.12	226.88
993.41	226.91
993.70	226.97
993.99	227.01
994.28	227.08
994.58	227.11
994.87	227.11
995.16	227.14
995.45	227.15
995.74	227.13
996.03	227.16
996.32	227.20
996.61	227.24
996.90	227.25
997.19	227.26
997.48	227.31
997.77	227.35
998.06	227.40
998.34	227.40
998.63	227.44
998.92	227.43
999.21	227.46
999.50	227.46
999.79	227.42
1000.08	227.46
1000.37	227.42
1000.66	227.41
1000.95	227.44
1001.24	227.44
1001.53	227.49
1001.82	227.47
1002.11	227.43
1002.40	227.43
1002.68	227.45
1002.97	227.52
1003.26	227.50
1003.55	227.46
1003.84	227.43
1004.13	227.44
1004.42	227.45
1004.71	227.45
1004.99	227.43
1005.28	227.46
1005.57	227.46
1005.86	227.44
1006.15	227.41
1006.44	227.39
1006.72	227.40
1007.01	227.34
1007.30	227.37
1007.59	227.32
1007.88	227.32
1008.17	227.31
1008.45	227.28
1008.74	227.23
1009.03	227.16
1009.32	227.15
1009.60	227.12
1009.89	227.11
1010.18	227.06
1010.47	226.99
1010.76	226.97
1011.04	226.99
1011.33	226.95
1011.62	226.97
1011.91	226.94
1012.19	226.90
1012.48	226.90
1012.77	226.89
1013.05	226.96
1013.34	226.90
1013.63	226.87
1013.92	226.85
1014.20	226.82
1014.49	226.81
1014.78	226.80
1015.06	226.77
1015.35	226.74
1015.64	226.74
1015.92	226.72
1016.21	226.68
1016.50	226.70
1016.78	226.70
1017.07	226.68
1017.36	226.65
1017.64	226.57
1017.93	226.56
1018.22	226.55
1018.50	226.56
1018.79	226.53
1019.08	226.43
1019.36	226.42
1019.65	226.42
1019.93	226.46
1020.22	226.47
1020.51	226.51
1020.79	226.47
1021.08	226.24
1021.36	226.81
1021.65	226.30
1021.94	226.23
1022.22	226.31
1022.51	226.45
1022.79	227.26
1023.08	226.39
1023.36	227.53
1023.65	225.87
>>>>>End Processed Spectral Data<<<<<
