SpectraSuite Data File
++++++++++++++++++++++++++++++++++++
Date: Fri Feb 01 15:30:00 EST 2013
User: group
Dark Spectrum Present: No
Reference Spectrum Present: No
Number of Sampled Component Spectra: 1
Spectrometers: USB2E7196
Integration Time (usec): 35000 (USB2E7196)
Spectra Averaged: 100 (USB2E7196)
Boxcar Smoothing: 10 (USB2E7196)
Correct for Electrical Dark: No (USB2E7196)
Strobe/Lamp Enabled: No (USB2E7196)
Correct for Detector Non-linearity: No (USB2E7196)
Correct for Stray Light: No (USB2E7196)
Number of Pixels in Processed Spectrum: 2048
>>>>>Begin Processed Spectral Data<<<<<
339.09	0.00
339.48	215.21
339.86	216.73
340.24	218.02
340.63	219.20
341.01	222.24
341.39	222.21
341.78	223.55
342.16	225.33
342.54	225.43
342.93	213.52
343.31	224.31
343.69	224.87
344.07	225.34
344.46	225.75
344.84	226.18
345.22	226.42
345.60	226.68
345.99	226.87
346.37	226.95
346.75	227.04
347.13	227.11
347.52	227.17
347.90	227.27
348.28	227.29
348.66	227.34
349.05	227.34
349.43	227.39
349.81	227.41
350.19	227.44
350.57	227.47
350.96	227.55
351.34	227.60
351.72	227.65
352.10	227.74
352.48	227.83
352.87	227.84
353.25	227.91
353.63	227.94
354.01	227.99
354.39	228.11
354.77	228.20
355.15	228.31
355.54	228.37
355.92	228.37
356.30	228.46
356.68	228.54
357.06	228.64
357.44	228.68
357.82	228.77
358.20	228.84
358.58	228.92
358.97	228.95
359.35	229.01
359.73	229.06
360.11	229.09
360.49	229.14
360.87	229.16
361.25	229.19
361.63	229.24
362.01	229.26
362.39	229.25
362.77	229.29
363.15	229.30
363.53	229.34
363.91	229.39
364.29	229.38
364.67	229.32
365.05	229.33
365.43	229.31
365.81	229.34
366.19	229.37
366.57	229.43
366.95	229.43
367.33	229.42
367.71	229.44
368.09	229.45
368.47	229.42
368.85	229.41
369.23	229.42
369.61	229.37
369.99	229.36
370.37	229.32
370.75	229.31
371.13	229.22
371.51	229.15
371.89	229.07
372.27	229.04
372.65	228.98
373.03	228.87
373.41	228.83
373.78	228.73
374.16	228.64
374.54	228.51
374.92	228.45
375.30	228.40
375.68	228.31
376.06	228.25
376.44	228.18
376.82	228.14
377.19	228.05
377.57	228.02
377.95	227.95
378.33	227.90
378.71	227.77
379.09	227.76
379.47	227.67
379.84	227.62
380.22	227.54
380.60	227.48
380.98	227.46
381.36	227.37
381.73	227.32
382.11	227.26
382.49	227.21
382.87	227.14
383.25	227.06
383.62	227.10
384.00	227.00
384.38	226.93
384.76	226.88
385.13	226.85
385.51	226.78
385.89	226.70
386.27	226.65
386.64	226.60
387.02	226.54
387.40	226.55
387.78	226.51
388.15	226.46
388.53	226.43
388.91	226.39
389.29	226.39
389.66	226.37
390.04	226.34
390.42	226.35
390.79	226.33
391.17	226.32
391.55	226.21
391.92	226.20
392.30	226.23
392.68	226.23
393.05	226.25
393.43	226.26
393.81	226.28
394.18	226.27
394.56	226.29
394.94	226.35
395.31	226.34
395.69	226.38
396.06	226.42
396.44	226.46
396.82	226.48
397.19	226.55
397.57	226.58
397.95	226.65
398.32	226.68
398.70	226.74
399.07	226.84
399.45	226.88
399.82	226.97
400.20	226.99
400.58	227.09
400.95	227.13
401.33	227.23
401.70	227.41
402.08	227.54
402.45	227.66
402.83	227.79
403.20	227.92
403.58	228.03
403.95	228.19
404.33	228.34
404.71	228.51
405.08	228.69
405.46	228.88
405.83	229.02
406.21	229.18
406.58	229.37
406.96	229.53
407.33	229.74
407.70	229.92
408.08	230.24
408.45	230.45
408.83	230.70
409.20	230.92
409.58	231.10
409.95	231.37
410.33	231.64
410.70	231.90
411.08	232.20
411.45	232.53
411.82	232.82
412.20	233.16
412.57	233.55
412.95	233.84
413.32	234.22
413.69	234.65
414.07	235.09
414.44	235.53
414.82	236.01
415.19	236.56
415.56	237.11
415.94	237.65
416.31	238.30
416.68	238.91
417.06	239.59
417.43	240.27
417.81	241.06
418.18	241.85
418.55	242.65
418.93	243.51
419.30	244.41
419.67	245.37
420.04	246.33
420.42	247.32
420.79	248.51
421.16	249.66
421.54	250.84
421.91	252.07
422.28	253.36
422.66	254.72
423.03	256.05
423.40	257.39
423.77	258.80
424.15	260.20
424.52	261.70
424.89	263.31
425.26	264.87
425.64	266.29
426.01	267.88
426.38	269.51
426.75	271.17
427.13	272.87
427.50	274.65
427.87	276.55
428.24	278.42
428.61	280.18
428.99	282.14
429.36	284.22
429.73	286.28
430.10	288.28
430.47	290.31
430.85	292.40
431.22	294.66
431.59	297.05
431.96	299.31
432.33	301.82
432.70	304.22
433.08	307.02
433.45	309.68
433.82	312.28
434.19	315.22
434.56	318.05
434.93	320.72
435.30	323.33
435.68	326.19
436.05	329.04
436.42	331.83
436.79	334.32
437.16	337.01
437.53	339.88
437.90	342.73
438.27	345.51
438.64	348.36
439.01	350.93
439.38	353.13
439.75	355.30
440.13	357.78
440.50	360.14
440.87	361.97
441.24	363.91
441.61	366.12
441.98	367.57
442.35	369.40
442.72	371.29
443.09	373.12
443.46	374.13
443.83	374.67
444.20	375.19
444.57	376.06
444.94	376.42
445.31	376.70
445.68	377.01
446.05	377.03
446.42	376.67
446.79	376.28
447.16	375.86
447.53	375.56
447.90	374.40
448.27	373.21
448.64	371.62
449.01	370.46
449.37	368.43
449.74	366.56
450.11	364.28
450.48	361.79
450.85	359.21
451.22	357.07
451.59	355.06
451.96	353.10
452.33	350.46
452.70	348.05
453.07	345.24
453.43	342.35
453.80	339.60
454.17	336.90
454.54	334.31
454.91	331.58
455.28	328.90
455.65	326.38
456.02	323.91
456.38	321.78
456.75	319.07
457.12	316.81
457.49	314.55
457.86	312.37
458.23	310.49
458.59	308.45
458.96	306.33
459.33	304.49
459.70	302.62
460.07	301.09
460.43	299.36
460.80	297.74
461.17	296.28
461.54	294.75
461.91	293.33
462.27	291.90
462.64	290.64
463.01	289.25
463.38	287.99
463.74	286.62
464.11	285.43
464.48	284.44
464.85	283.36
465.21	282.55
465.58	281.61
465.95	280.53
466.32	279.62
466.68	278.70
467.05	277.83
467.42	276.94
467.78	276.05
468.15	275.19
468.52	274.53
468.88	273.68
469.25	272.93
469.62	272.29
469.98	271.62
470.35	270.98
470.72	270.39
471.08	269.73
471.45	269.17
471.82	268.64
472.18	268.05
472.55	267.62
472.92	267.08
473.28	266.61
473.65	266.15
474.02	265.75
474.38	265.42
474.75	265.09
475.11	264.74
475.48	264.43
475.85	264.20
476.21	263.95
476.58	263.76
476.94	263.63
477.31	263.45
477.67	263.29
478.04	263.16
478.41	263.11
478.77	263.14
479.14	263.07
479.50	263.10
479.87	263.19
480.23	263.28
480.60	263.36
480.96	263.45
481.33	263.62
481.69	263.80
482.06	263.97
482.42	264.14
482.79	264.44
483.15	264.76
483.52	265.12
483.88	265.47
484.25	265.84
484.61	266.24
484.98	266.69
485.34	267.25
485.71	267.84
486.07	268.46
486.44	269.06
486.80	269.81
487.17	270.53
487.53	271.33
487.90	272.13
488.26	273.08
488.62	274.08
488.99	275.10
489.35	276.15
489.72	277.28
490.08	278.48
490.44	279.68
490.81	281.04
491.17	282.40
491.54	283.90
491.90	285.49
492.26	287.16
492.63	288.88
492.99	290.62
493.36	292.52
493.72	294.51
494.08	296.60
494.45	298.81
494.81	301.15
495.17	303.60
495.54	306.17
495.90	308.81
496.26	311.58
496.63	314.51
496.99	317.61
497.35	320.86
497.72	324.28
498.08	327.80
498.44	331.47
498.80	335.35
499.17	339.39
499.53	343.54
499.89	347.88
500.26	352.44
500.62	357.12
500.98	362.11
501.34	367.20
501.71	372.54
502.07	377.98
502.43	383.59
502.79	389.39
503.16	395.48
503.52	401.73
503.88	408.20
504.24	414.85
504.60	421.73
504.97	428.87
505.33	436.18
505.69	443.93
506.05	451.73
506.41	459.63
506.78	467.84
507.14	476.27
507.50	485.04
507.86	494.08
508.22	503.29
508.59	512.49
508.95	522.15
509.31	531.88
509.67	542.01
510.03	552.33
510.39	562.88
510.75	573.73
511.12	584.75
511.48	595.97
511.84	607.49
512.20	619.07
512.56	631.00
512.92	643.16
513.28	655.46
513.64	667.96
514.00	680.75
514.37	693.58
514.73	706.60
515.09	719.65
515.45	733.00
515.81	746.63
516.17	760.68
516.53	774.76
516.89	788.98
517.25	803.23
517.61	817.62
517.97	832.21
518.33	846.65
518.69	861.48
519.05	876.51
519.41	891.67
519.77	907.25
520.13	922.80
520.49	938.22
520.85	953.68
521.21	969.40
521.57	985.65
521.93	1001.65
522.29	1018.11
522.65	1034.38
523.01	1050.72
523.37	1066.82
523.73	1083.02
524.09	1099.19
524.45	1115.68
524.81	1132.33
525.17	1149.21
525.53	1166.10
525.89	1182.98
526.25	1199.73
526.61	1216.20
526.97	1233.06
527.33	1249.61
527.68	1266.22
528.04	1282.88
528.40	1299.58
528.76	1316.75
529.12	1333.36
529.48	1350.22
529.84	1366.28
530.20	1382.97
530.56	1399.97
530.91	1417.40
531.27	1434.18
531.63	1450.73
531.99	1467.27
532.35	1483.41
532.71	1499.51
533.07	1515.77
533.42	1531.72
533.78	1547.84
534.14	1564.11
534.50	1579.43
534.86	1595.31
535.21	1610.52
535.57	1626.33
535.93	1641.86
536.29	1656.62
536.65	1671.76
537.00	1686.60
537.36	1702.04
537.72	1716.62
538.08	1730.97
538.44	1744.84
538.79	1758.84
539.15	1772.48
539.51	1786.47
539.87	1800.72
540.22	1814.39
540.58	1828.32
540.94	1841.88
541.29	1854.95
541.65	1867.89
542.01	1881.30
542.37	1893.66
542.72	1906.26
543.08	1918.12
543.44	1930.57
543.79	1941.93
544.15	1953.02
544.51	1964.61
544.87	1975.60
545.22	1986.46
545.58	1996.69
545.94	2006.48
546.29	2016.30
546.65	2026.16
547.01	2035.33
547.36	2044.16
547.72	2052.64
548.07	2060.49
548.43	2068.60
548.79	2076.72
549.14	2084.20
549.50	2091.49
549.86	2099.31
550.21	2106.53
550.57	2113.78
550.92	2120.43
551.28	2127.50
551.64	2134.56
551.99	2141.03
552.35	2147.06
552.70	2153.18
553.06	2159.21
553.41	2165.60
553.77	2171.68
554.13	2177.98
554.48	2184.06
554.84	2189.51
555.19	2194.92
555.55	2200.08
555.90	2204.59
556.26	2209.28
556.61	2214.06
556.97	2218.32
557.32	2222.30
557.68	2226.45
558.03	2230.58
558.39	2234.26
558.74	2238.94
559.10	2242.80
559.45	2246.45
559.81	2250.91
560.16	2254.84
560.52	2258.07
560.87	2261.42
561.23	2264.05
561.58	2266.94
561.94	2269.35
562.29	2271.70
562.64	2274.32
563.00	2276.89
563.35	2280.42
563.71	2283.73
564.06	2286.73
564.42	2289.58
564.77	2292.25
565.12	2294.51
565.48	2296.58
565.83	2298.28
566.19	2299.52
566.54	2300.44
566.89	2301.75
567.25	2302.32
567.60	2303.54
567.96	2305.21
568.31	2306.05
568.66	2307.22
569.02	2307.62
569.37	2307.98
569.72	2308.81
570.08	2308.92
570.43	2308.84
570.78	2308.28
571.14	2306.48
571.49	2305.25
571.84	2304.83
572.20	2303.38
572.55	2302.42
572.90	2300.82
573.26	2299.48
573.61	2297.78
573.96	2295.87
574.31	2292.73
574.67	2289.56
575.02	2285.74
575.37	2282.21
575.72	2278.31
576.08	2274.89
576.43	2271.67
576.78	2267.94
577.13	2264.78
577.49	2261.58
577.84	2258.14
578.19	2254.19
578.54	2250.54
578.90	2246.06
579.25	2240.52
579.60	2235.60
579.95	2230.50
580.30	2225.40
580.66	2220.33
581.01	2215.34
581.36	2210.40
581.71	2206.05
582.06	2201.64
582.42	2197.21
582.77	2191.91
583.12	2187.32
583.47	2182.31
583.82	2177.11
584.17	2171.83
584.53	2166.17
584.88	2160.53
585.23	2154.55
585.58	2149.01
585.93	2143.47
586.28	2138.84
586.63	2133.50
586.98	2128.55
587.34	2123.76
587.69	2118.93
588.04	2113.41
588.39	2107.56
588.74	2101.07
589.09	2094.90
589.44	2087.96
589.79	2082.02
590.14	2076.44
590.49	2069.89
590.84	2063.51
591.19	2057.51
591.54	2050.89
591.89	2043.41
592.25	2036.48
592.60	2029.31
592.95	2021.66
593.30	2014.24
593.65	2006.42
594.00	1999.55
594.35	1992.17
594.70	1984.07
595.05	1976.60
595.40	1969.32
595.75	1961.67
596.10	1955.21
596.45	1948.44
596.80	1942.20
597.15	1935.41
597.50	1928.11
597.85	1921.53
598.19	1914.89
598.54	1907.74
598.89	1901.12
599.24	1895.17
599.59	1888.38
599.94	1882.21
600.29	1875.86
600.64	1869.31
600.99	1861.89
601.34	1855.01
601.69	1847.96
602.04	1840.84
602.39	1833.54
602.74	1826.74
603.08	1820.21
603.43	1813.58
603.78	1806.28
604.13	1799.11
604.48	1791.77
604.83	1784.93
605.18	1777.88
605.53	1769.81
605.87	1761.74
606.22	1754.56
606.57	1746.51
606.92	1739.23
607.27	1731.87
607.62	1724.89
607.96	1717.51
608.31	1710.85
608.66	1703.00
609.01	1695.39
609.36	1687.91
609.70	1679.74
610.05	1671.51
610.40	1663.57
610.75	1655.29
611.10	1647.58
611.44	1639.25
611.79	1631.22
612.14	1622.60
612.49	1613.44
612.83	1605.10
613.18	1597.08
613.53	1588.90
613.88	1580.45
614.22	1572.22
614.57	1563.69
614.92	1555.58
615.27	1548.00
615.61	1539.65
615.96	1531.69
616.31	1523.98
616.65	1516.62
617.00	1509.19
617.35	1501.57
617.70	1493.26
618.04	1484.65
618.39	1476.38
618.74	1468.71
619.08	1460.54
619.43	1452.98
619.78	1446.14
620.12	1438.92
620.47	1431.26
620.82	1423.01
621.16	1415.55
621.51	1407.85
621.85	1400.27
622.20	1391.84
622.55	1383.59
622.89	1375.80
623.24	1368.19
623.59	1360.80
623.93	1353.32
624.28	1346.03
624.62	1338.53
624.97	1331.42
625.32	1324.74
625.66	1317.70
626.01	1310.46
626.35	1302.90
626.70	1295.12
627.04	1287.37
627.39	1279.58
627.73	1272.07
628.08	1265.16
628.43	1257.88
628.77	1250.52
629.12	1242.88
629.46	1235.60
629.81	1228.12
630.15	1220.90
630.50	1213.57
630.84	1205.44
631.19	1197.53
631.53	1189.95
631.88	1182.47
632.22	1174.79
632.57	1167.55
632.91	1160.04
633.26	1152.58
633.60	1145.16
633.95	1138.04
634.29	1131.00
634.64	1124.39
634.98	1117.11
635.32	1110.05
635.67	1103.50
636.01	1096.84
636.36	1090.07
636.70	1083.64
637.05	1077.06
637.39	1070.57
637.73	1064.03
638.08	1058.15
638.42	1052.13
638.77	1045.72
639.11	1039.03
639.45	1032.66
639.80	1025.88
640.14	1019.41
640.49	1012.91
640.83	1006.66
641.17	1000.43
641.52	994.14
641.86	987.73
642.20	981.93
642.55	975.61
642.89	969.07
643.23	962.50
643.58	956.69
643.92	950.43
644.26	944.38
644.61	938.41
644.95	932.43
645.29	925.75
645.64	919.04
645.98	912.75
646.32	906.86
646.66	900.87
647.01	895.17
647.35	889.49
647.69	883.68
648.04	878.18
648.38	872.38
648.72	866.28
649.06	860.14
649.41	854.25
649.75	848.21
650.09	842.25
650.43	836.48
650.78	830.33
651.12	824.35
651.46	818.54
651.80	812.74
652.14	807.29
652.49	801.99
652.83	796.79
653.17	791.07
653.51	785.33
653.85	779.88
654.20	774.11
654.54	768.09
654.88	762.31
655.22	756.32
655.56	750.60
655.90	745.20
656.25	739.92
656.59	734.56
656.93	729.55
657.27	724.44
657.61	719.05
657.95	713.98
658.29	708.86
658.64	703.62
658.98	698.31
659.32	692.80
659.66	687.61
660.00	682.25
660.34	677.29
660.68	672.42
661.02	667.36
661.36	662.67
661.70	658.18
662.05	653.90
662.39	649.65
662.73	645.28
663.07	640.82
663.41	636.38
663.75	631.90
664.09	627.31
664.43	622.90
664.77	618.80
665.11	614.48
665.45	610.44
665.79	606.43
666.13	602.32
666.47	598.26
666.81	594.10
667.15	590.05
667.49	586.13
667.83	582.28
668.17	578.40
668.51	574.36
668.85	570.38
669.19	566.48
669.53	562.60
669.87	558.72
670.21	555.07
670.55	551.45
670.89	548.01
671.23	544.53
671.57	540.99
671.91	537.40
672.25	533.97
672.58	530.47
672.92	527.08
673.26	523.91
673.60	520.73
673.94	517.59
674.28	514.68
674.62	511.75
674.96	508.61
675.30	505.68
675.64	502.76
675.97	500.01
676.31	497.17
676.65	494.24
676.99	491.54
677.33	488.68
677.67	485.80
678.01	482.76
678.34	479.85
678.68	477.00
679.02	474.22
679.36	471.41
679.70	468.65
680.04	465.92
680.37	463.00
680.71	460.23
681.05	457.68
681.39	454.95
681.73	452.32
682.06	449.89
682.40	447.35
682.74	444.83
683.08	442.23
683.42	439.62
683.75	437.14
684.09	434.58
684.43	432.13
684.77	429.72
685.10	427.39
685.44	425.09
685.78	422.80
686.12	420.53
686.45	418.29
686.79	415.97
687.13	413.78
687.46	411.68
687.80	409.59
688.14	407.34
688.48	405.30
688.81	403.02
689.15	400.87
689.49	398.79
689.82	396.69
690.16	394.62
690.50	392.70
690.83	390.79
691.17	388.80
691.51	386.86
691.84	385.01
692.18	383.10
692.52	381.07
692.85	379.18
693.19	377.32
693.52	375.51
693.86	373.76
694.20	371.96
694.53	370.14
694.87	368.24
695.21	366.47
695.54	364.64
695.88	362.93
696.21	361.20
696.55	359.49
696.88	357.78
697.22	356.11
697.56	354.42
697.89	352.74
698.23	351.19
698.56	349.63
698.90	348.04
699.23	346.39
699.57	344.88
699.90	343.32
700.24	341.81
700.58	340.22
700.91	338.72
701.25	337.24
701.58	335.87
701.92	334.54
702.25	333.15
702.59	331.80
702.92	330.50
703.26	329.17
703.59	327.87
703.93	326.74
704.26	325.53
704.60	324.25
704.93	323.00
705.26	321.74
705.60	320.52
705.93	319.39
706.27	318.32
706.60	317.23
706.94	316.16
707.27	315.01
707.61	313.97
707.94	312.94
708.27	311.87
708.61	310.82
708.94	309.78
709.28	308.79
709.61	307.83
709.94	306.86
710.28	305.88
710.61	304.91
710.95	303.81
711.28	302.88
711.61	301.95
711.95	301.06
712.28	300.07
712.61	299.10
712.95	298.14
713.28	297.24
713.61	296.40
713.95	295.50
714.28	294.61
714.61	293.77
714.95	292.92
715.28	292.08
715.61	291.18
715.95	290.34
716.28	289.49
716.61	288.66
716.95	287.86
717.28	287.11
717.61	286.33
717.94	285.59
718.28	284.79
718.61	284.06
718.94	283.32
719.27	282.71
719.61	282.07
719.94	281.43
720.27	280.77
720.60	280.09
720.94	279.43
721.27	278.87
721.60	278.30
721.93	277.73
722.27	277.20
722.60	276.65
722.93	276.07
723.26	275.53
723.59	274.94
723.93	274.38
724.26	273.84
724.59	273.29
724.92	272.79
725.25	272.27
725.59	271.77
725.92	271.26
726.25	270.74
726.58	270.26
726.91	269.79
727.24	269.30
727.57	268.85
727.91	268.37
728.24	267.92
728.57	267.42
728.90	266.92
729.23	266.40
729.56	266.02
729.89	265.56
730.22	265.11
730.55	264.67
730.89	264.23
731.22	263.78
731.55	263.35
731.88	262.95
732.21	262.53
732.54	262.11
732.87	261.71
733.20	261.30
733.53	260.87
733.86	260.51
734.19	260.11
734.52	259.70
734.85	259.40
735.18	258.98
735.51	258.61
735.84	258.23
736.17	257.88
736.50	257.45
736.83	257.19
737.16	256.87
737.49	256.53
737.82	256.18
738.15	255.82
738.48	255.47
738.81	255.14
739.14	254.83
739.47	254.50
739.80	254.19
740.13	253.87
740.46	253.56
740.79	253.20
741.12	252.87
741.45	252.57
741.78	252.22
742.11	251.92
742.44	251.58
742.77	251.28
743.10	250.98
743.43	250.64
743.75	250.30
744.08	250.10
744.41	249.81
744.74	249.55
745.07	249.23
745.40	249.02
745.73	248.78
746.06	248.51
746.39	248.27
746.71	247.98
747.04	247.72
747.37	247.47
747.70	247.23
748.03	246.97
748.36	246.74
748.68	246.49
749.01	246.25
749.34	246.06
749.67	245.84
750.00	245.60
750.33	245.49
750.65	245.25
750.98	244.91
751.31	244.70
751.64	244.48
751.97	244.37
752.29	244.11
752.62	243.85
752.95	243.63
753.28	243.39
753.60	243.20
753.93	243.02
754.26	242.83
754.59	242.60
754.91	242.44
755.24	242.27
755.57	242.08
755.90	241.91
756.22	241.72
756.55	241.55
756.88	241.37
757.20	241.14
757.53	240.95
757.86	240.80
758.19	240.65
758.51	240.50
758.84	240.31
759.17	240.14
759.49	239.98
759.82	239.89
760.15	239.75
760.47	239.60
760.80	239.45
761.13	239.33
761.45	239.16
761.78	239.00
762.11	238.85
762.43	238.72
762.76	238.59
763.08	238.43
763.41	238.31
763.74	238.18
764.06	238.07
764.39	237.99
764.71	237.87
765.04	237.74
765.37	237.61
765.69	237.48
766.02	237.38
766.34	237.28
766.67	237.11
767.00	237.01
767.32	236.93
767.65	236.87
767.97	236.74
768.30	236.63
768.62	236.50
768.95	236.36
769.27	236.24
769.60	236.14
769.92	236.03
770.25	235.89
770.57	235.80
770.90	235.67
771.22	235.54
771.55	235.46
771.87	235.37
772.20	235.24
772.52	235.24
772.85	235.23
773.17	235.10
773.50	235.00
773.82	234.90
774.15	234.74
774.47	234.57
774.80	234.46
775.12	234.36
775.45	234.28
775.77	234.20
776.09	234.10
776.42	234.01
776.74	233.94
777.07	233.89
777.39	233.81
777.72	233.73
778.04	233.65
778.36	233.54
778.69	233.44
779.01	233.39
779.33	233.22
779.66	233.04
779.98	232.95
780.31	232.88
780.63	232.84
780.95	232.82
781.28	232.77
781.60	232.69
781.92	232.67
782.25	232.62
782.57	232.55
782.89	232.48
783.22	232.41
783.54	232.31
783.86	232.26
784.19	232.16
784.51	232.11
784.83	232.03
785.16	231.98
785.48	231.92
785.80	231.86
786.12	231.82
786.45	231.78
786.77	231.78
787.09	231.73
787.42	231.65
787.74	231.62
788.06	231.56
788.38	231.55
788.71	231.49
789.03	231.44
789.35	231.42
789.67	231.38
789.99	231.34
790.32	231.31
790.64	231.25
790.96	231.29
791.28	231.25
791.61	231.23
791.93	231.18
792.25	231.15
792.57	231.16
792.89	231.10
793.21	231.06
793.54	230.99
793.86	230.94
794.18	230.93
794.50	230.86
794.82	230.87
795.14	230.87
795.47	230.86
795.79	230.82
796.11	230.79
796.43	230.78
796.75	230.79
797.07	230.78
797.39	230.76
797.71	230.69
798.04	230.64
798.36	230.64
798.68	230.61
799.00	230.59
799.32	230.55
799.64	230.55
799.96	230.55
800.28	230.55
800.60	230.54
800.92	230.52
801.24	230.51
801.56	230.48
801.89	230.41
802.21	230.40
802.53	230.40
802.85	230.36
803.17	230.37
803.49	230.28
803.81	230.23
804.13	230.21
804.45	230.16
804.77	230.14
805.09	230.05
805.41	230.02
805.73	229.99
806.05	229.91
806.37	229.85
806.69	229.82
807.01	229.80
807.33	229.77
807.65	229.71
807.97	229.71
808.28	229.69
808.60	229.68
808.92	229.62
809.24	229.64
809.56	229.63
809.88	229.58
810.20	229.61
810.52	229.59
810.84	229.54
811.16	229.52
811.48	229.49
811.80	229.51
812.12	229.48
812.43	229.47
812.75	229.45
813.07	229.43
813.39	229.37
813.71	229.34
814.03	229.31
814.35	229.29
814.67	229.23
814.98	229.18
815.30	229.16
815.62	229.13
815.94	229.02
816.26	229.01
816.58	228.98
816.89	228.94
817.21	228.93
817.53	228.92
817.85	228.91
818.17	228.91
818.48	228.86
818.80	228.87
819.12	228.81
819.44	228.81
819.76	228.76
820.07	228.76
820.39	228.73
820.71	228.71
821.03	228.65
821.34	228.65
821.66	228.61
821.98	228.58
822.30	228.54
822.61	228.57
822.93	228.51
823.25	228.47
823.57	228.42
823.88	228.39
824.20	228.34
824.52	228.31
824.83	228.28
825.15	228.23
825.47	228.20
825.79	228.20
826.10	228.15
826.42	228.13
826.74	228.14
827.05	228.12
827.37	228.08
827.69	228.07
828.00	228.06
828.32	228.08
828.64	228.04
828.95	228.08
829.27	228.05
829.58	228.01
829.90	228.02
830.22	228.04
830.53	228.01
830.85	228.03
831.17	228.00
831.48	227.99
831.80	227.99
832.11	227.99
832.43	227.98
832.75	227.96
833.06	228.01
833.38	227.96
833.69	227.98
834.01	228.00
834.32	228.02
834.64	227.97
834.96	227.95
835.27	227.98
835.59	227.95
835.90	227.92
836.22	227.92
836.53	227.90
836.85	227.89
837.16	227.97
837.48	227.97
837.79	227.98
838.11	228.00
838.42	228.05
838.74	228.02
839.05	228.01
839.37	228.00
839.68	227.97
840.00	227.96
840.31	227.98
840.63	227.97
840.94	227.93
841.26	227.93
841.57	227.92
841.88	227.91
842.20	227.90
842.51	227.91
842.83	227.92
843.14	227.99
843.46	227.99
843.77	227.94
844.08	227.93
844.40	227.93
844.71	227.91
845.03	227.88
845.34	227.87
845.65	227.85
845.97	227.91
846.28	227.88
846.60	227.94
846.91	227.90
847.22	227.89
847.54	227.91
847.85	227.93
848.16	227.94
848.48	227.93
848.79	227.99
849.10	227.99
849.42	227.98
849.73	227.89
850.04	227.88
850.36	227.85
850.67	227.85
850.98	227.82
851.30	227.80
851.61	227.79
851.92	227.80
852.23	227.84
852.55	227.82
852.86	227.83
853.17	227.81
853.49	227.79
853.80	227.80
854.11	227.80
854.42	227.81
854.74	227.78
855.05	227.79
855.36	227.72
855.67	227.72
855.99	227.70
856.30	227.85
856.61	227.85
856.92	227.82
857.23	227.78
857.55	227.79
857.86	227.79
858.17	227.79
858.48	227.77
858.79	227.70
859.11	227.67
859.42	227.63
859.73	227.57
860.04	227.56
860.35	227.51
860.66	227.47
860.98	227.45
861.29	227.45
861.60	227.40
861.91	227.42
862.22	227.41
862.53	227.41
862.84	227.26
863.16	227.24
863.47	227.25
863.78	227.27
864.09	227.24
864.40	227.24
864.71	227.24
865.02	227.25
865.33	227.30
865.64	227.29
865.95	227.32
866.27	227.40
866.58	227.38
866.89	227.39
867.20	227.40
867.51	227.36
867.82	227.33
868.13	227.37
868.44	227.33
868.75	227.34
869.06	227.32
869.37	227.36
869.68	227.31
869.99	227.35
870.30	227.34
870.61	227.37
870.92	227.36
871.23	227.30
871.54	227.31
871.85	227.33
872.16	227.36
872.47	227.36
872.78	227.31
873.09	227.33
873.40	227.35
873.71	227.33
874.02	227.34
874.33	227.37
874.64	227.34
874.95	227.37
875.26	227.33
875.56	227.33
875.87	227.31
876.18	227.34
876.49	227.40
876.80	227.40
877.11	227.38
877.42	227.40
877.73	227.44
878.04	227.40
878.35	227.39
878.66	227.39
878.96	227.40
879.27	227.40
879.58	227.40
879.89	227.39
880.20	227.45
880.51	227.49
880.82	227.51
881.12	227.52
881.43	227.48
881.74	227.49
882.05	227.50
882.36	227.50
882.67	227.52
882.97	227.46
883.28	227.43
883.59	227.44
883.90	227.43
884.21	227.47
884.51	227.49
884.82	227.47
885.13	227.49
885.44	227.48
885.74	227.50
886.05	227.50
886.36	227.50
886.67	227.46
886.98	227.51
887.28	227.53
887.59	227.51
887.90	227.54
888.20	227.56
888.51	227.59
888.82	227.57
889.13	227.56
889.43	227.62
889.74	227.64
890.05	227.64
890.35	227.65
890.66	227.62
890.97	227.59
891.28	227.57
891.58	227.53
891.89	227.53
892.20	227.50
892.50	227.49
892.81	227.50
893.12	227.48
893.42	227.41
893.73	227.42
894.04	227.44
894.34	227.42
894.65	227.38
894.95	227.35
895.26	227.35
895.57	227.39
895.87	227.30
896.18	227.32
896.48	227.33
896.79	227.30
897.10	227.31
897.40	227.32
897.71	227.34
898.01	227.32
898.32	227.30
898.63	227.28
898.93	227.26
899.24	227.25
899.54	227.24
899.85	227.27
900.15	227.19
900.46	227.16
900.76	227.19
901.07	227.20
901.38	227.20
901.68	227.20
901.99	227.14
902.29	227.13
902.60	227.10
902.90	227.08
903.21	227.07
903.51	227.05
903.82	227.08
904.12	227.07
904.43	227.07
904.73	227.07
905.03	227.09
905.34	227.17
905.64	227.17
905.95	227.18
906.25	227.15
906.56	227.14
906.86	227.13
907.17	227.12
907.47	227.11
907.77	227.10
908.08	227.08
908.38	227.03
908.69	227.03
908.99	227.05
909.30	227.07
909.60	227.06
909.90	227.05
910.21	227.01
910.51	226.97
910.81	226.97
911.12	226.96
911.42	226.98
911.73	226.88
912.03	226.86
912.33	226.88
912.64	226.88
912.94	226.91
913.24	226.94
913.55	226.92
913.85	226.90
914.15	226.90
914.46	226.94
914.76	226.94
915.06	226.96
915.37	226.93
915.67	226.92
915.97	226.94
916.27	226.93
916.58	226.93
916.88	226.98
917.18	226.99
917.49	227.07
917.79	227.02
918.09	227.03
918.39	227.06
918.70	227.04
919.00	227.04
919.30	227.08
919.60	227.09
919.91	227.07
920.21	227.09
920.51	227.09
920.81	227.07
921.12	227.07
921.42	227.07
921.72	227.08
922.02	227.09
922.32	227.12
922.63	227.12
922.93	227.17
923.23	227.17
923.53	227.16
923.83	227.11
924.13	227.15
924.44	227.15
924.74	227.17
925.04	227.19
925.34	227.18
925.64	227.13
925.94	227.09
926.24	227.16
926.55	227.15
926.85	227.18
927.15	227.16
927.45	227.18
927.75	227.20
928.05	227.20
928.35	227.18
928.65	227.17
928.95	227.18
929.26	227.14
929.56	227.14
929.86	227.17
930.16	227.17
930.46	227.12
930.76	227.12
931.06	227.07
931.36	227.06
931.66	227.08
931.96	227.08
932.26	227.09
932.56	227.03
932.86	227.04
933.16	227.00
933.46	226.99
933.76	226.97
934.06	226.97
934.36	227.01
934.66	227.00
934.96	227.00
935.26	227.03
935.56	227.00
935.86	226.96
936.16	226.91
936.46	226.92
936.76	226.93
937.06	226.92
937.36	226.93
937.66	226.90
937.96	226.87
938.26	226.86
938.56	226.84
938.86	226.86
939.16	226.87
939.46	226.92
939.76	226.96
940.06	226.99
940.35	226.97
940.65	226.93
940.95	226.94
941.25	226.89
941.55	226.86
941.85	226.90
942.15	226.94
942.45	226.98
942.75	226.94
943.04	226.95
943.34	226.98
943.64	226.96
943.94	226.99
944.24	227.01
944.54	227.05
944.84	227.08
945.13	227.04
945.43	227.01
945.73	227.00
946.03	226.99
946.33	226.99
946.62	226.96
946.92	226.94
947.22	226.93
947.52	226.95
947.82	226.96
948.11	226.93
948.41	226.91
948.71	226.87
949.01	226.90
949.31	226.89
949.60	226.88
949.90	226.92
950.20	226.89
950.50	226.89
950.79	226.84
951.09	226.84
951.39	226.87
951.69	226.84
951.98	226.86
952.28	226.85
952.58	226.84
952.87	226.86
953.17	226.89
953.47	226.88
953.76	226.89
954.06	226.85
954.36	226.83
954.66	226.85
954.95	226.86
955.25	226.88
955.55	226.88
955.84	226.87
956.14	226.88
956.44	226.88
956.73	226.88
957.03	226.88
957.32	226.90
957.62	226.85
957.92	226.92
958.21	226.91
958.51	227.01
958.81	227.01
959.10	227.00
959.40	227.03
959.69	227.03
959.99	227.02
960.29	227.03
960.58	227.06
960.88	227.09
961.17	227.10
961.47	227.07
961.76	227.08
962.06	227.06
962.36	227.03
962.65	227.02
962.95	227.03
963.24	227.03
963.54	227.01
963.83	227.05
964.13	227.04
964.42	226.99
964.72	226.94
965.01	226.92
965.31	226.93
965.60	226.89
965.90	226.98
966.19	226.94
966.49	226.99
966.78	226.98
967.08	226.98
967.37	226.96
967.67	226.98
967.96	227.00
968.26	227.05
968.55	227.03
968.85	227.05
969.14	227.05
969.43	227.04
969.73	227.03
970.02	227.00
970.32	227.00
970.61	226.98
970.91	226.93
971.20	226.94
971.49	226.94
971.79	226.96
972.08	226.86
972.38	226.92
972.67	226.91
972.96	226.93
973.26	226.87
973.55	226.91
973.85	226.92
974.14	226.88
974.43	226.86
974.73	226.85
975.02	226.86
975.31	226.83
975.61	226.83
975.90	226.83
976.19	226.83
976.49	226.84
976.78	226.86
977.07	226.83
977.37	226.84
977.66	226.84
977.95	226.84
978.24	226.84
978.54	226.83
978.83	226.77
979.12	226.76
979.42	226.80
979.71	226.75
980.00	226.75
980.29	226.76
980.59	226.75
980.88	226.80
981.17	226.75
981.46	226.80
981.76	226.79
982.05	226.84
982.34	226.86
982.63	226.88
982.93	226.90
983.22	226.94
983.51	226.91
983.80	226.93
984.09	226.95
984.39	226.97
984.68	226.99
984.97	227.01
985.26	226.99
985.55	226.99
985.85	226.98
986.14	227.01
986.43	227.03
986.72	227.04
987.01	226.98
987.30	226.99
987.59	226.98
987.89	227.00
988.18	226.97
988.47	226.97
988.76	226.95
989.05	226.92
989.34	226.93
989.63	226.97
989.92	226.96
990.22	226.96
990.51	226.91
990.80	226.89
991.09	226.91
991.38	226.94
991.67	226.97
991.96	226.94
992.25	226.90
992.54	226.87
992.83	226.86
993.12	226.88
993.41	226.93
993.70	226.95
993.99	226.99
994.28	226.99
994.58	227.01
994.87	226.99
995.16	227.00
995.45	227.00
995.74	226.98
996.03	227.00
996.32	227.04
996.61	227.07
996.90	227.08
997.19	227.09
997.48	227.10
997.77	227.07
998.06	227.12
998.34	227.11
998.63	227.11
998.92	227.12
999.21	227.13
999.50	227.12
999.79	227.10
1000.08	227.08
1000.37	227.09
1000.66	227.07
1000.95	227.11
1001.24	227.11
1001.53	227.13
1001.82	227.13
1002.11	227.07
1002.40	227.02
1002.68	227.03
1002.97	227.08
1003.26	227.07
1003.55	227.05
1003.84	227.05
1004.13	227.07
1004.42	227.11
1004.71	227.14
1004.99	227.14
1005.28	227.18
1005.57	227.16
1005.86	227.14
1006.15	227.11
1006.44	227.11
1006.72	227.12
1007.01	227.07
1007.30	227.05
1007.59	227.05
1007.88	227.04
1008.17	227.09
1008.45	227.08
1008.74	227.09
1009.03	227.02
1009.32	227.02
1009.60	227.01
1009.89	226.97
1010.18	226.93
1010.47	226.92
1010.76	226.91
1011.04	226.91
1011.33	227.00
1011.62	227.02
1011.91	227.03
1012.19	227.06
1012.48	227.04
1012.77	227.06
1013.05	227.11
1013.34	227.14
1013.63	227.14
1013.92	227.13
1014.20	227.09
1014.49	227.11
1014.78	227.09
1015.06	227.08
1015.35	227.06
1015.64	227.07
1015.92	227.10
1016.21	227.10
1016.50	227.11
1016.78	227.08
1017.07	227.10
1017.36	226.98
1017.64	227.00
1017.93	227.01
1018.22	227.00
1018.50	227.00
1018.79	226.99
1019.08	226.95
1019.36	226.96
1019.65	226.95
1019.93	226.99
1020.22	227.01
1020.51	227.04
1020.79	227.06
1021.08	227.15
1021.36	226.86
1021.65	226.95
1021.94	226.92
1022.22	227.36
1022.51	226.75
1022.79	227.66
1023.08	227.02
1023.36	227.96
1023.65	227.11
>>>>>End Processed Spectral Data<<<<<
