SpectraSuite Data File
++++++++++++++++++++++++++++++++++++
Date: Fri Feb 01 14:58:07 EST 2013
User: group
Dark Spectrum Present: No
Reference Spectrum Present: No
Number of Sampled Component Spectra: 1
Spectrometers: USB2E7196
Integration Time (usec): 35000 (USB2E7196)
Spectra Averaged: 100 (USB2E7196)
Boxcar Smoothing: 10 (USB2E7196)
Correct for Electrical Dark: No (USB2E7196)
Strobe/Lamp Enabled: No (USB2E7196)
Correct for Detector Non-linearity: No (USB2E7196)
Correct for Stray Light: No (USB2E7196)
Number of Pixels in Processed Spectrum: 2048
>>>>>Begin Processed Spectral Data<<<<<
339.09	0.00
339.48	214.94
339.86	216.41
340.24	217.36
340.63	218.88
341.01	222.16
341.39	221.85
341.78	223.48
342.16	224.69
342.54	224.91
342.93	213.33
343.31	224.13
343.69	224.68
344.07	225.15
344.46	225.60
344.84	226.01
345.22	226.24
345.60	226.51
345.99	226.71
346.37	226.82
346.75	226.94
347.13	227.01
347.52	227.07
347.90	227.17
348.28	227.21
348.66	227.30
349.05	227.31
349.43	227.36
349.81	227.38
350.19	227.46
350.57	227.53
350.96	227.57
351.34	227.65
351.72	227.73
352.10	227.83
352.48	227.91
352.87	227.97
353.25	228.04
353.63	228.09
354.01	228.16
354.39	228.25
354.77	228.33
355.15	228.44
355.54	228.50
355.92	228.54
356.30	228.59
356.68	228.71
357.06	228.79
357.44	228.86
357.82	228.93
358.20	228.99
358.58	229.02
358.97	229.12
359.35	229.20
359.73	229.25
360.11	229.31
360.49	229.36
360.87	229.39
361.25	229.43
361.63	229.48
362.01	229.51
362.39	229.56
362.77	229.58
363.15	229.62
363.53	229.66
363.91	229.66
364.29	229.71
364.67	229.63
365.05	229.61
365.43	229.57
365.81	229.57
366.19	229.62
366.57	229.64
366.95	229.62
367.33	229.55
367.71	229.52
368.09	229.48
368.47	229.45
368.85	229.44
369.23	229.43
369.61	229.38
369.99	229.38
370.37	229.31
370.75	229.33
371.13	229.22
371.51	229.15
371.89	229.10
372.27	229.05
372.65	228.99
373.03	228.94
373.41	228.89
373.78	228.82
374.16	228.68
374.54	228.60
374.92	228.52
375.30	228.45
375.68	228.40
376.06	228.39
376.44	228.31
376.82	228.23
377.19	228.16
377.57	228.08
377.95	227.96
378.33	227.90
378.71	227.78
379.09	227.70
379.47	227.65
379.84	227.61
380.22	227.53
380.60	227.46
380.98	227.36
381.36	227.28
381.73	227.19
382.11	227.13
382.49	227.08
382.87	226.99
383.25	226.95
383.62	226.98
384.00	226.87
384.38	226.79
384.76	226.79
385.13	226.77
385.51	226.71
385.89	226.66
386.27	226.65
386.64	226.59
387.02	226.53
387.40	226.47
387.78	226.42
388.15	226.38
388.53	226.37
388.91	226.36
389.29	226.33
389.66	226.34
390.04	226.33
390.42	226.33
390.79	226.32
391.17	226.33
391.55	226.25
391.92	226.29
392.30	226.33
392.68	226.27
393.05	226.24
393.43	226.31
393.81	226.34
394.18	226.34
394.56	226.38
394.94	226.51
395.31	226.55
395.69	226.63
396.06	226.70
396.44	226.74
396.82	226.78
397.19	226.91
397.57	226.97
397.95	227.06
398.32	227.10
398.70	227.19
399.07	227.27
399.45	227.33
399.82	227.38
400.20	227.45
400.58	227.57
400.95	227.66
401.33	227.78
401.70	227.91
402.08	228.01
402.45	228.08
402.83	228.17
403.20	228.31
403.58	228.40
403.95	228.54
404.33	228.64
404.71	228.82
405.08	228.99
405.46	229.10
405.83	229.25
406.21	229.41
406.58	229.60
406.96	229.75
407.33	229.92
407.70	230.13
408.08	230.41
408.45	230.63
408.83	230.87
409.20	231.05
409.58	231.26
409.95	231.51
410.33	231.79
410.70	232.04
411.08	232.32
411.45	232.63
411.82	232.93
412.20	233.32
412.57	233.71
412.95	234.02
413.32	234.44
413.69	234.85
414.07	235.29
414.44	235.74
414.82	236.21
415.19	236.77
415.56	237.30
415.94	237.80
416.31	238.42
416.68	239.02
417.06	239.74
417.43	240.39
417.81	241.18
418.18	241.96
418.55	242.80
418.93	243.65
419.30	244.58
419.67	245.47
420.04	246.41
420.42	247.36
420.79	248.52
421.16	249.68
421.54	250.85
421.91	252.04
422.28	253.28
422.66	254.58
423.03	255.89
423.40	257.21
423.77	258.66
424.15	260.05
424.52	261.54
424.89	263.13
425.26	264.69
425.64	266.14
426.01	267.73
426.38	269.38
426.75	271.03
427.13	272.72
427.50	274.55
427.87	276.41
428.24	278.30
428.61	279.99
428.99	281.94
429.36	284.07
429.73	286.16
430.10	288.21
430.47	290.32
430.85	292.43
431.22	294.69
431.59	297.10
431.96	299.36
432.33	301.86
432.70	304.24
433.08	307.07
433.45	309.68
433.82	312.31
434.19	315.16
434.56	318.03
434.93	320.68
435.30	323.31
435.68	326.23
436.05	329.10
436.42	331.96
436.79	334.50
437.16	337.19
437.53	340.07
437.90	342.87
438.27	345.58
438.64	348.49
439.01	351.12
439.38	353.34
439.75	355.56
440.13	358.07
440.50	360.41
440.87	362.27
441.24	364.27
441.61	366.44
441.98	367.96
442.35	369.71
442.72	371.63
443.09	373.45
443.46	374.43
443.83	374.99
444.20	375.50
444.57	376.32
444.94	376.65
445.31	376.96
445.68	377.34
446.05	377.43
446.42	376.99
446.79	376.58
447.16	376.15
447.53	375.81
447.90	374.62
448.27	373.44
448.64	371.87
449.01	370.68
449.37	368.74
449.74	366.85
450.11	364.63
450.48	362.12
450.85	359.60
451.22	357.49
451.59	355.46
451.96	353.46
452.33	350.88
452.70	348.48
453.07	345.66
453.43	342.75
453.80	339.98
454.17	337.34
454.54	334.78
454.91	332.02
455.28	329.40
455.65	326.95
456.02	324.56
456.38	322.41
456.75	319.75
457.12	317.47
457.49	315.27
457.86	313.07
458.23	311.22
458.59	309.15
458.96	307.02
459.33	305.16
459.70	303.29
460.07	301.77
460.43	300.03
460.80	298.40
461.17	296.93
461.54	295.41
461.91	293.89
462.27	292.41
462.64	291.15
463.01	289.74
463.38	288.43
463.74	287.01
464.11	285.81
464.48	284.78
464.85	283.64
465.21	282.73
465.58	281.86
465.95	280.70
466.32	279.78
466.68	278.89
467.05	277.93
467.42	277.07
467.78	276.11
468.15	275.23
468.52	274.53
468.88	273.67
469.25	272.89
469.62	272.29
469.98	271.61
470.35	270.98
470.72	270.36
471.08	269.62
471.45	269.06
471.82	268.52
472.18	267.90
472.55	267.47
472.92	266.94
473.28	266.44
473.65	266.02
474.02	265.53
474.38	265.13
474.75	264.85
475.11	264.48
475.48	264.19
475.85	263.99
476.21	263.76
476.58	263.54
476.94	263.39
477.31	263.19
477.67	263.04
478.04	262.88
478.41	262.79
478.77	262.87
479.14	262.80
479.50	262.80
479.87	262.86
480.23	262.95
480.60	263.00
480.96	263.06
481.33	263.23
481.69	263.47
482.06	263.64
482.42	263.83
482.79	264.08
483.15	264.42
483.52	264.76
483.88	265.08
484.25	265.46
484.61	265.87
484.98	266.37
485.34	266.90
485.71	267.50
486.07	268.12
486.44	268.68
486.80	269.40
487.17	270.11
487.53	270.93
487.90	271.75
488.26	272.68
488.62	273.69
488.99	274.70
489.35	275.73
489.72	276.88
490.08	278.10
490.44	279.34
490.81	280.63
491.17	281.99
491.54	283.47
491.90	285.02
492.26	286.68
492.63	288.38
492.99	290.15
493.36	292.01
493.72	294.06
494.08	296.16
494.45	298.37
494.81	300.73
495.17	303.14
495.54	305.70
495.90	308.36
496.26	311.10
496.63	314.03
496.99	317.11
497.35	320.34
497.72	323.71
498.08	327.27
498.44	330.94
498.80	334.86
499.17	338.92
499.53	343.07
499.89	347.39
500.26	351.89
500.62	356.55
500.98	361.54
501.34	366.59
501.71	371.88
502.07	377.28
502.43	382.88
502.79	388.69
503.16	394.74
503.52	401.03
503.88	407.49
504.24	414.12
504.60	421.01
504.97	428.11
505.33	435.38
505.69	443.03
506.05	450.74
506.41	458.57
506.78	466.70
507.14	475.12
507.50	483.87
507.86	492.81
508.22	501.94
508.59	511.07
508.95	520.66
509.31	530.37
509.67	540.48
510.03	550.71
510.39	561.22
510.75	571.97
511.12	582.83
511.48	594.11
511.84	605.53
512.20	616.95
512.56	628.88
512.92	641.07
513.28	653.39
513.64	665.87
514.00	678.62
514.37	691.53
514.73	704.59
515.09	717.65
515.45	730.99
515.81	744.58
516.17	758.64
516.53	772.75
516.89	786.97
517.25	801.18
517.61	815.65
517.97	830.15
518.33	844.56
518.69	859.47
519.05	874.48
519.41	889.71
519.77	905.30
520.13	920.82
520.49	936.23
520.85	951.69
521.21	967.47
521.57	983.69
521.93	999.48
522.29	1015.93
522.65	1032.20
523.01	1048.39
523.37	1064.50
523.73	1080.62
524.09	1096.79
524.45	1113.22
524.81	1129.91
525.17	1146.76
525.53	1163.67
525.89	1180.61
526.25	1197.38
526.61	1213.88
526.97	1230.69
527.33	1247.19
527.68	1263.78
528.04	1280.37
528.40	1297.02
528.76	1314.18
529.12	1330.87
529.48	1347.86
529.84	1363.95
530.20	1380.60
530.56	1397.80
530.91	1415.31
531.27	1432.29
531.63	1448.84
531.99	1465.47
532.35	1481.56
532.71	1497.39
533.07	1513.84
533.42	1529.79
533.78	1545.88
534.14	1562.16
534.50	1577.56
534.86	1593.59
535.21	1608.83
535.57	1624.92
535.93	1640.49
536.29	1655.37
536.65	1670.70
537.00	1685.66
537.36	1700.99
537.72	1715.66
538.08	1730.16
538.44	1744.10
538.79	1758.09
539.15	1771.89
539.51	1785.81
539.87	1800.32
540.22	1814.26
540.58	1828.13
540.94	1841.64
541.29	1854.76
541.65	1867.56
542.01	1880.93
542.37	1893.39
542.72	1905.89
543.08	1917.64
543.44	1930.26
543.79	1941.57
544.15	1952.52
544.51	1963.92
544.87	1975.10
545.22	1985.82
545.58	1996.06
545.94	2005.83
546.29	2015.64
546.65	2025.48
547.01	2034.66
547.36	2043.38
547.72	2051.87
548.07	2059.74
548.43	2067.89
548.79	2075.83
549.14	2083.35
549.50	2090.69
549.86	2098.44
550.21	2105.77
550.57	2113.01
550.92	2119.44
551.28	2126.39
551.64	2133.48
551.99	2140.25
552.35	2146.28
552.70	2152.49
553.06	2158.38
553.41	2164.71
553.77	2170.79
554.13	2176.79
554.48	2182.83
554.84	2188.16
555.19	2193.58
555.55	2198.64
555.90	2203.14
556.26	2207.98
556.61	2212.59
556.97	2216.71
557.32	2220.72
557.68	2224.86
558.03	2229.07
558.39	2232.82
558.74	2237.62
559.10	2241.28
559.45	2244.63
559.81	2248.87
560.16	2252.67
560.52	2255.84
560.87	2259.08
561.23	2261.70
561.58	2264.64
561.94	2267.13
562.29	2269.60
562.64	2272.10
563.00	2274.65
563.35	2278.15
563.71	2281.18
564.06	2284.48
564.42	2287.33
564.77	2289.72
565.12	2291.80
565.48	2293.61
565.83	2295.15
566.19	2296.20
566.54	2297.17
566.89	2298.14
567.25	2298.65
567.60	2299.92
567.96	2301.64
568.31	2302.47
568.66	2303.29
569.02	2303.56
569.37	2303.73
569.72	2304.33
570.08	2304.16
570.43	2304.00
570.78	2302.94
571.14	2301.32
571.49	2299.63
571.84	2299.12
572.20	2297.72
572.55	2296.49
572.90	2294.58
573.26	2293.11
573.61	2291.29
573.96	2289.17
574.31	2286.20
574.67	2282.95
575.02	2279.06
575.37	2275.38
575.72	2271.39
576.08	2268.05
576.43	2264.71
576.78	2260.81
577.13	2257.42
577.49	2254.34
577.84	2250.76
578.19	2247.09
578.54	2243.13
578.90	2238.82
579.25	2233.02
579.60	2227.97
579.95	2222.81
580.30	2217.82
580.66	2212.64
581.01	2207.56
581.36	2202.63
581.71	2198.22
582.06	2193.75
582.42	2189.12
582.77	2183.78
583.12	2179.10
583.47	2174.13
583.82	2168.91
584.17	2163.73
584.53	2158.10
584.88	2152.28
585.23	2146.18
585.58	2140.52
585.93	2135.04
586.28	2130.17
586.63	2125.13
586.98	2119.98
587.34	2115.27
587.69	2110.25
588.04	2104.72
588.39	2098.79
588.74	2092.23
589.09	2085.97
589.44	2078.96
589.79	2072.94
590.14	2067.16
590.49	2060.24
590.84	2053.64
591.19	2047.52
591.54	2040.89
591.89	2033.27
592.25	2026.35
592.60	2019.08
592.95	2011.40
593.30	2004.01
593.65	1996.23
594.00	1988.98
594.35	1981.63
594.70	1973.44
595.05	1965.97
595.40	1958.53
595.75	1951.06
596.10	1944.53
596.45	1937.67
596.80	1931.47
597.15	1924.60
597.50	1917.36
597.85	1911.05
598.19	1904.32
598.54	1897.12
598.89	1890.41
599.24	1884.53
599.59	1877.79
599.94	1871.51
600.29	1865.12
600.64	1858.47
600.99	1850.91
601.34	1844.05
601.69	1837.05
602.04	1830.04
602.39	1822.71
602.74	1816.00
603.08	1809.22
603.43	1802.50
603.78	1795.32
604.13	1788.05
604.48	1780.67
604.83	1773.85
605.18	1766.88
605.53	1758.95
605.87	1751.00
606.22	1743.81
606.57	1735.99
606.92	1728.67
607.27	1721.50
607.62	1714.53
607.96	1707.22
608.31	1700.67
608.66	1693.07
609.01	1685.57
609.36	1678.11
609.70	1670.18
610.05	1662.15
610.40	1654.49
610.75	1646.18
611.10	1638.46
611.44	1630.14
611.79	1622.33
612.14	1613.71
612.49	1604.53
612.83	1596.11
613.18	1588.04
613.53	1579.93
613.88	1571.34
614.22	1563.07
614.57	1554.61
614.92	1546.63
615.27	1539.11
615.61	1530.89
615.96	1522.87
616.31	1515.33
616.65	1507.98
617.00	1500.46
617.35	1492.79
617.70	1484.28
618.04	1475.86
618.39	1467.72
618.74	1460.12
619.08	1451.85
619.43	1444.35
619.78	1437.48
620.12	1430.40
620.47	1422.90
620.82	1414.75
621.16	1407.40
621.51	1399.82
621.85	1392.38
622.20	1383.92
622.55	1375.59
622.89	1367.76
623.24	1360.27
623.59	1353.00
623.93	1345.49
624.28	1338.28
624.62	1330.73
624.97	1323.76
625.32	1317.03
625.66	1310.02
626.01	1302.85
626.35	1295.33
626.70	1287.54
627.04	1279.81
627.39	1271.98
627.73	1264.62
628.08	1257.76
628.43	1250.49
628.77	1243.21
629.12	1235.50
629.46	1228.35
629.81	1221.10
630.15	1213.87
630.50	1206.46
630.84	1198.22
631.19	1190.39
631.53	1183.01
631.88	1175.68
632.22	1168.09
632.57	1160.85
632.91	1153.43
633.26	1146.09
633.60	1138.95
633.95	1131.96
634.29	1125.03
634.64	1118.53
634.98	1111.23
635.32	1104.16
635.67	1097.61
636.01	1090.96
636.36	1084.25
636.70	1077.84
637.05	1071.27
637.39	1064.95
637.73	1058.47
638.08	1052.68
638.42	1046.69
638.77	1040.17
639.11	1033.59
639.45	1027.31
639.80	1020.76
640.14	1014.28
640.49	1007.84
640.83	1001.52
641.17	995.34
641.52	989.07
641.86	982.71
642.20	976.93
642.55	970.65
642.89	964.25
643.23	957.90
643.58	952.13
643.92	945.88
644.26	939.93
644.61	933.99
644.95	928.02
645.29	921.36
645.64	914.76
645.98	908.48
646.32	902.62
646.66	896.64
647.01	890.84
647.35	885.24
647.69	879.48
648.04	873.98
648.38	868.18
648.72	862.23
649.06	856.18
649.41	850.24
649.75	844.31
650.09	838.35
650.43	832.57
650.78	826.38
651.12	820.57
651.46	814.73
651.80	808.88
652.14	803.48
652.49	798.09
652.83	792.89
653.17	787.28
653.51	781.63
653.85	776.28
654.20	770.66
654.54	764.64
654.88	758.93
655.22	753.07
655.56	747.44
655.90	742.03
656.25	736.78
656.59	731.50
656.93	726.36
657.27	721.28
657.61	715.86
657.95	710.89
658.29	705.83
658.64	700.69
658.98	695.49
659.32	690.05
659.66	684.90
660.00	679.62
660.34	674.71
660.68	669.80
661.02	664.72
661.36	660.05
661.70	655.62
662.05	651.25
662.39	646.91
662.73	642.52
663.07	638.16
663.41	633.79
663.75	629.35
664.09	624.85
664.43	620.48
664.77	616.35
665.11	612.12
665.45	607.96
665.79	603.92
666.13	599.81
666.47	595.78
666.81	591.72
667.15	587.63
667.49	583.76
667.83	579.99
668.17	576.13
668.51	572.11
668.85	568.10
669.19	564.30
669.53	560.49
669.87	556.63
670.21	552.95
670.55	549.30
670.89	545.84
671.23	542.46
671.57	538.97
671.91	535.50
672.25	532.06
672.58	528.60
672.92	525.25
673.26	522.16
673.60	519.00
673.94	515.88
674.28	513.06
674.62	510.15
674.96	507.03
675.30	504.12
675.64	501.20
675.97	498.49
676.31	495.63
676.65	492.74
676.99	490.01
677.33	487.18
677.67	484.38
678.01	481.37
678.34	478.38
678.68	475.54
679.02	472.76
679.36	470.03
679.70	467.36
680.04	464.59
680.37	461.66
680.71	458.95
681.05	456.39
681.39	453.62
681.73	451.00
682.06	448.49
682.40	445.97
682.74	443.46
683.08	440.94
683.42	438.38
683.75	435.90
684.09	433.40
684.43	430.95
684.77	428.53
685.10	426.26
685.44	424.01
685.78	421.71
686.12	419.45
686.45	417.15
686.79	414.88
687.13	412.73
687.46	410.62
687.80	408.45
688.14	406.22
688.48	404.27
688.81	402.03
689.15	399.90
689.49	397.81
689.82	395.75
690.16	393.61
690.50	391.64
690.83	389.76
691.17	387.82
691.51	385.95
691.84	384.11
692.18	382.20
692.52	380.23
692.85	378.33
693.19	376.45
693.52	374.66
693.86	372.87
694.20	371.08
694.53	369.26
694.87	367.42
695.21	365.68
695.54	363.84
695.88	362.14
696.21	360.41
696.55	358.74
696.88	357.08
697.22	355.54
697.56	353.94
697.89	352.25
698.23	350.66
698.56	349.10
698.90	347.54
699.23	345.91
699.57	344.38
699.90	342.83
700.24	341.33
700.58	339.79
700.91	338.28
701.25	336.84
701.58	335.49
701.92	334.18
702.25	332.76
702.59	331.38
702.92	330.03
703.26	328.76
703.59	327.45
703.93	326.26
704.26	324.98
704.60	323.70
704.93	322.45
705.26	321.18
705.60	319.99
705.93	318.80
706.27	317.74
706.60	316.70
706.94	315.67
707.27	314.49
707.61	313.46
707.94	312.44
708.27	311.32
708.61	310.27
708.94	309.24
709.28	308.34
709.61	307.44
709.94	306.49
710.28	305.47
710.61	304.52
710.95	303.46
711.28	302.56
711.61	301.60
711.95	300.69
712.28	299.72
712.61	298.73
712.95	297.81
713.28	296.95
713.61	296.04
713.95	295.18
714.28	294.40
714.61	293.55
714.95	292.70
715.28	291.89
715.61	291.01
715.95	290.19
716.28	289.30
716.61	288.46
716.95	287.66
717.28	286.93
717.61	286.18
717.94	285.43
718.28	284.60
718.61	283.90
718.94	283.20
719.27	282.56
719.61	281.95
719.94	281.33
720.27	280.59
720.60	279.92
720.94	279.27
721.27	278.69
721.60	278.11
721.93	277.55
722.27	277.02
722.60	276.45
722.93	275.89
723.26	275.34
723.59	274.79
723.93	274.27
724.26	273.72
724.59	273.15
724.92	272.63
725.25	272.16
725.59	271.66
725.92	271.18
726.25	270.72
726.58	270.20
726.91	269.71
727.24	269.29
727.57	268.83
727.91	268.33
728.24	267.85
728.57	267.38
728.90	266.91
729.23	266.41
729.56	266.01
729.89	265.52
730.22	265.05
730.55	264.59
730.89	264.14
731.22	263.70
731.55	263.24
731.88	262.85
732.21	262.41
732.54	261.96
732.87	261.52
733.20	261.10
733.53	260.71
733.86	260.32
734.19	259.90
734.52	259.52
734.85	259.24
735.18	258.81
735.51	258.44
735.84	258.08
736.17	257.73
736.50	257.34
736.83	257.16
737.16	256.83
737.49	256.46
737.82	256.10
738.15	255.78
738.48	255.50
738.81	255.17
739.14	254.84
739.47	254.54
739.80	254.24
740.13	253.93
740.46	253.61
740.79	253.30
741.12	253.01
741.45	252.67
741.78	252.32
742.11	252.07
742.44	251.74
742.77	251.48
743.10	251.19
743.43	250.84
743.75	250.42
744.08	250.29
744.41	250.02
744.74	249.77
745.07	249.50
745.40	249.24
745.73	249.02
746.06	248.70
746.39	248.46
746.71	248.20
747.04	247.92
747.37	247.65
747.70	247.43
748.03	247.15
748.36	246.95
748.68	246.71
749.01	246.43
749.34	246.21
749.67	245.94
750.00	245.69
750.33	245.60
750.65	245.38
750.98	244.99
751.31	244.78
751.64	244.56
751.97	244.38
752.29	244.15
752.62	243.87
752.95	243.72
753.28	243.48
753.60	243.26
753.93	243.08
754.26	242.90
754.59	242.66
754.91	242.48
755.24	242.26
755.57	242.07
755.90	241.90
756.22	241.70
756.55	241.52
756.88	241.35
757.20	241.10
757.53	240.92
757.86	240.77
758.19	240.62
758.51	240.46
758.84	240.23
759.17	240.07
759.49	239.92
759.82	239.80
760.15	239.68
760.47	239.55
760.80	239.39
761.13	239.26
761.45	239.13
761.78	238.98
762.11	238.86
762.43	238.71
762.76	238.59
763.08	238.49
763.41	238.38
763.74	238.25
764.06	238.12
764.39	237.97
764.71	237.86
765.04	237.72
765.37	237.60
765.69	237.49
766.02	237.37
766.34	237.26
766.67	237.09
767.00	236.97
767.32	236.92
767.65	236.89
767.97	236.76
768.30	236.64
768.62	236.54
768.95	236.42
769.27	236.36
769.60	236.25
769.92	236.15
770.25	236.03
770.57	235.90
770.90	235.79
771.22	235.69
771.55	235.57
771.87	235.50
772.20	235.38
772.52	235.38
772.85	235.42
773.17	235.34
773.50	235.26
773.82	235.18
774.15	235.04
774.47	234.85
774.80	234.74
775.12	234.65
775.45	234.57
775.77	234.49
776.09	234.39
776.42	234.29
776.74	234.23
777.07	234.13
777.39	234.08
777.72	233.98
778.04	233.94
778.36	233.86
778.69	233.78
779.01	233.72
779.33	233.55
779.66	233.37
779.98	233.27
780.31	233.21
780.63	233.15
780.95	233.12
781.28	233.05
781.60	233.00
781.92	232.92
782.25	232.83
782.57	232.74
782.89	232.67
783.22	232.63
783.54	232.52
783.86	232.49
784.19	232.42
784.51	232.42
784.83	232.35
785.16	232.30
785.48	232.24
785.80	232.20
786.12	232.16
786.45	232.09
786.77	232.06
787.09	232.04
787.42	231.95
787.74	231.86
788.06	231.84
788.38	231.77
788.71	231.73
789.03	231.71
789.35	231.69
789.67	231.63
789.99	231.57
790.32	231.51
790.64	231.46
790.96	231.49
791.28	231.39
791.61	231.36
791.93	231.32
792.25	231.28
792.57	231.28
792.89	231.21
793.21	231.19
793.54	231.13
793.86	231.04
794.18	231.01
794.50	231.02
794.82	230.96
795.14	230.96
795.47	230.93
795.79	230.89
796.11	230.84
796.43	230.81
796.75	230.79
797.07	230.79
797.39	230.76
797.71	230.69
798.04	230.68
798.36	230.63
798.68	230.60
799.00	230.56
799.32	230.51
799.64	230.54
799.96	230.50
800.28	230.53
800.60	230.50
800.92	230.47
801.24	230.42
801.56	230.43
801.89	230.39
802.21	230.37
802.53	230.34
802.85	230.35
803.17	230.38
803.49	230.31
803.81	230.27
804.13	230.23
804.45	230.19
804.77	230.19
805.09	230.17
805.41	230.18
805.73	230.13
806.05	230.08
806.37	230.02
806.69	229.98
807.01	229.94
807.33	229.91
807.65	229.89
807.97	229.90
808.28	229.83
808.60	229.80
808.92	229.78
809.24	229.82
809.56	229.79
809.88	229.75
810.20	229.79
810.52	229.82
810.84	229.77
811.16	229.73
811.48	229.68
811.80	229.73
812.12	229.67
812.43	229.73
812.75	229.71
813.07	229.68
813.39	229.66
813.71	229.61
814.03	229.57
814.35	229.54
814.67	229.46
814.98	229.43
815.30	229.43
815.62	229.40
815.94	229.29
816.26	229.30
816.58	229.25
816.89	229.19
817.21	229.10
817.53	229.10
817.85	229.07
818.17	229.05
818.48	228.96
818.80	228.93
819.12	228.85
819.44	228.80
819.76	228.75
820.07	228.78
820.39	228.76
820.71	228.75
821.03	228.73
821.34	228.72
821.66	228.72
821.98	228.70
822.30	228.67
822.61	228.72
822.93	228.66
823.25	228.65
823.57	228.63
823.88	228.67
824.20	228.67
824.52	228.66
824.83	228.65
825.15	228.63
825.47	228.64
825.79	228.67
826.10	228.67
826.42	228.67
826.74	228.61
827.05	228.60
827.37	228.61
827.69	228.59
828.00	228.61
828.32	228.60
828.64	228.57
828.95	228.62
829.27	228.58
829.58	228.57
829.90	228.55
830.22	228.57
830.53	228.52
830.85	228.50
831.17	228.48
831.48	228.48
831.80	228.46
832.11	228.44
832.43	228.41
832.75	228.39
833.06	228.43
833.38	228.41
833.69	228.40
834.01	228.38
834.32	228.36
834.64	228.30
834.96	228.30
835.27	228.29
835.59	228.25
835.90	228.21
836.22	228.18
836.53	228.16
836.85	228.12
837.16	228.19
837.48	228.18
837.79	228.21
838.11	228.18
838.42	228.20
838.74	228.21
839.05	228.19
839.37	228.17
839.68	228.14
840.00	228.10
840.31	228.08
840.63	228.08
840.94	228.09
841.26	228.10
841.57	228.08
841.88	228.10
842.20	228.06
842.51	228.06
842.83	228.05
843.14	228.11
843.46	228.12
843.77	228.04
844.08	228.04
844.40	227.98
844.71	227.96
845.03	227.91
845.34	227.88
845.65	227.88
845.97	227.88
846.28	227.87
846.60	227.91
846.91	227.93
847.22	227.93
847.54	227.94
847.85	227.95
848.16	227.96
848.48	227.95
848.79	228.01
849.10	228.04
849.42	228.02
849.73	227.94
850.04	227.93
850.36	227.90
850.67	227.91
850.98	227.92
851.30	227.93
851.61	227.92
851.92	227.91
852.23	227.94
852.55	227.95
852.86	227.96
853.17	227.94
853.49	227.99
853.80	228.01
854.11	228.02
854.42	228.03
854.74	228.01
855.05	227.96
855.36	227.91
855.67	227.89
855.99	227.92
856.30	228.04
856.61	228.03
856.92	228.04
857.23	228.04
857.55	228.00
857.86	227.98
858.17	228.01
858.48	227.99
858.79	227.95
859.11	227.96
859.42	227.93
859.73	227.91
860.04	227.85
860.35	227.79
860.66	227.76
860.98	227.73
861.29	227.76
861.60	227.74
861.91	227.75
862.22	227.71
862.53	227.66
862.84	227.57
863.16	227.56
863.47	227.52
863.78	227.47
864.09	227.51
864.40	227.50
864.71	227.48
865.02	227.47
865.33	227.45
865.64	227.43
865.95	227.41
866.27	227.44
866.58	227.42
866.89	227.41
867.20	227.38
867.51	227.38
867.82	227.34
868.13	227.39
868.44	227.37
868.75	227.41
869.06	227.43
869.37	227.41
869.68	227.40
869.99	227.44
870.30	227.46
870.61	227.46
870.92	227.45
871.23	227.45
871.54	227.51
871.85	227.53
872.16	227.54
872.47	227.54
872.78	227.50
873.09	227.55
873.40	227.55
873.71	227.57
874.02	227.55
874.33	227.53
874.64	227.49
874.95	227.49
875.26	227.48
875.56	227.48
875.87	227.46
876.18	227.47
876.49	227.55
876.80	227.57
877.11	227.55
877.42	227.54
877.73	227.53
878.04	227.48
878.35	227.50
878.66	227.48
878.96	227.49
879.27	227.51
879.58	227.47
879.89	227.47
880.20	227.51
880.51	227.53
880.82	227.57
881.12	227.56
881.43	227.56
881.74	227.51
882.05	227.48
882.36	227.48
882.67	227.47
882.97	227.38
883.28	227.33
883.59	227.33
883.90	227.37
884.21	227.41
884.51	227.44
884.82	227.40
885.13	227.40
885.44	227.38
885.74	227.37
886.05	227.38
886.36	227.39
886.67	227.33
886.98	227.36
887.28	227.38
887.59	227.40
887.90	227.40
888.20	227.45
888.51	227.47
888.82	227.49
889.13	227.52
889.43	227.57
889.74	227.59
890.05	227.60
890.35	227.60
890.66	227.61
890.97	227.58
891.28	227.58
891.58	227.59
891.89	227.63
892.20	227.63
892.50	227.62
892.81	227.61
893.12	227.61
893.42	227.58
893.73	227.59
894.04	227.59
894.34	227.61
894.65	227.59
894.95	227.61
895.26	227.59
895.57	227.62
895.87	227.55
896.18	227.55
896.48	227.54
896.79	227.51
897.10	227.50
897.40	227.48
897.71	227.46
898.01	227.48
898.32	227.45
898.63	227.42
898.93	227.40
899.24	227.40
899.54	227.39
899.85	227.33
900.15	227.30
900.46	227.31
900.76	227.28
901.07	227.27
901.38	227.23
901.68	227.24
901.99	227.17
902.29	227.15
902.60	227.15
902.90	227.13
903.21	227.14
903.51	227.13
903.82	227.16
904.12	227.19
904.43	227.18
904.73	227.14
905.03	227.19
905.34	227.27
905.64	227.27
905.95	227.27
906.25	227.29
906.56	227.25
906.86	227.22
907.17	227.19
907.47	227.20
907.77	227.20
908.08	227.19
908.38	227.22
908.69	227.23
908.99	227.22
909.30	227.22
909.60	227.22
909.90	227.19
910.21	227.17
910.51	227.16
910.81	227.13
911.12	227.16
911.42	227.15
911.73	227.05
912.03	227.06
912.33	227.04
912.64	227.04
912.94	227.06
913.24	227.07
913.55	227.08
913.85	227.08
914.15	227.09
914.46	227.09
914.76	227.09
915.06	227.07
915.37	227.07
915.67	227.07
915.97	227.05
916.27	227.06
916.58	227.07
916.88	227.06
917.18	227.06
917.49	227.10
917.79	227.09
918.09	227.14
918.39	227.15
918.70	227.20
919.00	227.19
919.30	227.23
919.60	227.23
919.91	227.25
920.21	227.23
920.51	227.24
920.81	227.23
921.12	227.25
921.42	227.26
921.72	227.29
922.02	227.30
922.32	227.34
922.63	227.33
922.93	227.37
923.23	227.38
923.53	227.35
923.83	227.30
924.13	227.28
924.44	227.24
924.74	227.24
925.04	227.26
925.34	227.29
925.64	227.22
925.94	227.21
926.24	227.23
926.55	227.26
926.85	227.25
927.15	227.26
927.45	227.22
927.75	227.22
928.05	227.21
928.35	227.21
928.65	227.20
928.95	227.21
929.26	227.18
929.56	227.16
929.86	227.18
930.16	227.17
930.46	227.18
930.76	227.20
931.06	227.13
931.36	227.08
931.66	227.09
931.96	227.16
932.26	227.16
932.56	227.15
932.86	227.13
933.16	227.12
933.46	227.12
933.76	227.14
934.06	227.15
934.36	227.13
934.66	227.12
934.96	227.14
935.26	227.13
935.56	227.18
935.86	227.18
936.16	227.17
936.46	227.17
936.76	227.17
937.06	227.18
937.36	227.23
937.66	227.23
937.96	227.24
938.26	227.22
938.56	227.21
938.86	227.21
939.16	227.25
939.46	227.30
939.76	227.28
940.06	227.29
940.35	227.28
940.65	227.27
940.95	227.28
941.25	227.22
941.55	227.22
941.85	227.18
942.15	227.21
942.45	227.25
942.75	227.26
943.04	227.24
943.34	227.26
943.64	227.25
943.94	227.26
944.24	227.26
944.54	227.26
944.84	227.29
945.13	227.27
945.43	227.26
945.73	227.23
946.03	227.24
946.33	227.23
946.62	227.23
946.92	227.25
947.22	227.27
947.52	227.32
947.82	227.34
948.11	227.31
948.41	227.29
948.71	227.29
949.01	227.30
949.31	227.31
949.60	227.30
949.90	227.32
950.20	227.30
950.50	227.32
950.79	227.30
951.09	227.30
951.39	227.30
951.69	227.29
951.98	227.31
952.28	227.28
952.58	227.31
952.87	227.35
953.17	227.35
953.47	227.35
953.76	227.34
954.06	227.31
954.36	227.33
954.66	227.33
954.95	227.35
955.25	227.34
955.55	227.36
955.84	227.35
956.14	227.32
956.44	227.33
956.73	227.29
957.03	227.29
957.32	227.28
957.62	227.25
957.92	227.25
958.21	227.24
958.51	227.31
958.81	227.30
959.10	227.26
959.40	227.28
959.69	227.26
959.99	227.26
960.29	227.27
960.58	227.25
960.88	227.28
961.17	227.27
961.47	227.27
961.76	227.28
962.06	227.31
962.36	227.31
962.65	227.32
962.95	227.34
963.24	227.33
963.54	227.34
963.83	227.38
964.13	227.36
964.42	227.32
964.72	227.29
965.01	227.30
965.31	227.29
965.60	227.25
965.90	227.29
966.19	227.28
966.49	227.26
966.78	227.25
967.08	227.25
967.37	227.26
967.67	227.25
967.96	227.26
968.26	227.23
968.55	227.23
968.85	227.26
969.14	227.22
969.43	227.24
969.73	227.20
970.02	227.17
970.32	227.18
970.61	227.20
970.91	227.18
971.20	227.15
971.49	227.17
971.79	227.19
972.08	227.14
972.38	227.13
972.67	227.14
972.96	227.15
973.26	227.11
973.55	227.13
973.85	227.12
974.14	227.07
974.43	227.08
974.73	227.09
975.02	227.04
975.31	227.03
975.61	227.01
975.90	227.03
976.19	227.00
976.49	227.00
976.78	227.00
977.07	226.96
977.37	226.96
977.66	226.99
977.95	226.97
978.24	226.96
978.54	226.98
978.83	226.95
979.12	226.94
979.42	226.91
979.71	226.88
980.00	226.87
980.29	226.88
980.59	226.85
980.88	226.83
981.17	226.85
981.46	226.87
981.76	226.87
982.05	226.90
982.34	226.95
982.63	226.96
982.93	226.98
983.22	227.03
983.51	227.04
983.80	227.04
984.09	227.06
984.39	227.06
984.68	227.02
984.97	227.06
985.26	227.05
985.55	227.11
985.85	227.11
986.14	227.14
986.43	227.18
986.72	227.19
987.01	227.18
987.30	227.19
987.59	227.19
987.89	227.20
988.18	227.18
988.47	227.14
988.76	227.15
989.05	227.12
989.34	227.07
989.63	227.10
989.92	227.08
990.22	227.07
990.51	227.08
990.80	227.09
991.09	227.10
991.38	227.12
991.67	227.11
991.96	227.09
992.25	227.09
992.54	227.07
992.83	227.09
993.12	227.08
993.41	227.07
993.70	227.11
993.99	227.15
994.28	227.12
994.58	227.16
994.87	227.14
995.16	227.13
995.45	227.15
995.74	227.13
996.03	227.15
996.32	227.18
996.61	227.18
996.90	227.20
997.19	227.21
997.48	227.22
997.77	227.20
998.06	227.21
998.34	227.21
998.63	227.19
998.92	227.20
999.21	227.21
999.50	227.22
999.79	227.18
1000.08	227.18
1000.37	227.21
1000.66	227.18
1000.95	227.23
1001.24	227.26
1001.53	227.28
1001.82	227.27
1002.11	227.23
1002.40	227.24
1002.68	227.26
1002.97	227.33
1003.26	227.32
1003.55	227.30
1003.84	227.31
1004.13	227.37
1004.42	227.35
1004.71	227.38
1004.99	227.38
1005.28	227.43
1005.57	227.45
1005.86	227.41
1006.15	227.41
1006.44	227.40
1006.72	227.40
1007.01	227.39
1007.30	227.39
1007.59	227.37
1007.88	227.35
1008.17	227.35
1008.45	227.31
1008.74	227.28
1009.03	227.21
1009.32	227.19
1009.60	227.18
1009.89	227.16
1010.18	227.12
1010.47	227.12
1010.76	227.09
1011.04	227.07
1011.33	227.06
1011.62	227.04
1011.91	227.08
1012.19	227.06
1012.48	227.06
1012.77	227.07
1013.05	227.07
1013.34	227.07
1013.63	227.08
1013.92	227.10
1014.20	227.13
1014.49	227.14
1014.78	227.17
1015.06	227.15
1015.35	227.16
1015.64	227.16
1015.92	227.19
1016.21	227.17
1016.50	227.18
1016.78	227.24
1017.07	227.24
1017.36	227.22
1017.64	227.20
1017.93	227.22
1018.22	227.20
1018.50	227.19
1018.79	227.20
1019.08	227.18
1019.36	227.17
1019.65	227.15
1019.93	227.18
1020.22	227.15
1020.51	227.23
1020.79	227.19
1021.08	226.89
1021.36	226.96
1021.65	227.22
1021.94	227.46
1022.22	226.93
1022.51	226.78
1022.79	227.72
1023.08	227.09
1023.36	228.69
1023.65	226.86
>>>>>End Processed Spectral Data<<<<<
