SpectraSuite Data File
++++++++++++++++++++++++++++++++++++
Date: Fri Feb 01 17:44:22 EST 2013
User: group
Dark Spectrum Present: No
Reference Spectrum Present: No
Number of Sampled Component Spectra: 1
Spectrometers: USB2E7196
Integration Time (usec): 35000 (USB2E7196)
Spectra Averaged: 100 (USB2E7196)
Boxcar Smoothing: 10 (USB2E7196)
Correct for Electrical Dark: No (USB2E7196)
Strobe/Lamp Enabled: No (USB2E7196)
Correct for Detector Non-linearity: No (USB2E7196)
Correct for Stray Light: No (USB2E7196)
Number of Pixels in Processed Spectrum: 2048
>>>>>Begin Processed Spectral Data<<<<<
339.09	0.00
339.48	212.18
339.86	213.61
340.24	215.03
340.63	216.73
341.01	219.99
341.39	219.20
341.78	220.28
342.16	221.64
342.54	222.13
342.93	210.67
343.31	221.32
343.69	221.85
344.07	222.35
344.46	222.78
344.84	223.15
345.22	223.33
345.60	223.54
345.99	223.73
346.37	223.88
346.75	224.00
347.13	224.06
347.52	224.12
347.90	224.22
348.28	224.27
348.66	224.30
349.05	224.33
349.43	224.35
349.81	224.40
350.19	224.44
350.57	224.51
350.96	224.61
351.34	224.69
351.72	224.77
352.10	224.85
352.48	224.91
352.87	224.96
353.25	225.09
353.63	225.20
354.01	225.26
354.39	225.33
354.77	225.41
355.15	225.53
355.54	225.61
355.92	225.65
356.30	225.71
356.68	225.91
357.06	226.00
357.44	226.07
357.82	226.13
358.20	226.22
358.58	226.29
358.97	226.32
359.35	226.45
359.73	226.57
360.11	226.63
360.49	226.73
360.87	226.81
361.25	226.86
361.63	226.98
362.01	227.05
362.39	227.13
362.77	227.17
363.15	227.20
363.53	227.26
363.91	227.28
364.29	227.33
364.67	227.23
365.05	227.25
365.43	227.30
365.81	227.35
366.19	227.44
366.57	227.49
366.95	227.52
367.33	227.47
367.71	227.44
368.09	227.47
368.47	227.46
368.85	227.43
369.23	227.43
369.61	227.40
369.99	227.44
370.37	227.41
370.75	227.42
371.13	227.40
371.51	227.34
371.89	227.35
372.27	227.34
372.65	227.31
373.03	227.27
373.41	227.23
373.78	227.17
374.16	227.03
374.54	226.95
374.92	226.89
375.30	226.84
375.68	226.78
376.06	226.73
376.44	226.66
376.82	226.63
377.19	226.57
377.57	226.43
377.95	226.33
378.33	226.26
378.71	226.14
379.09	226.08
379.47	226.03
379.84	225.92
380.22	225.84
380.60	225.76
380.98	225.70
381.36	225.61
381.73	225.54
382.11	225.52
382.49	225.45
382.87	225.35
383.25	225.32
383.62	225.37
384.00	225.30
384.38	225.25
384.76	225.19
385.13	225.19
385.51	225.16
385.89	225.08
386.27	225.07
386.64	225.06
387.02	225.00
387.40	224.96
387.78	224.93
388.15	224.88
388.53	224.87
388.91	224.80
389.29	224.77
389.66	224.74
390.04	224.70
390.42	224.70
390.79	224.70
391.17	224.67
391.55	224.53
391.92	224.50
392.30	224.50
392.68	224.48
393.05	224.40
393.43	224.41
393.81	224.40
394.18	224.35
394.56	224.34
394.94	224.38
395.31	224.41
395.69	224.46
396.06	224.48
396.44	224.46
396.82	224.49
397.19	224.57
397.57	224.62
397.95	224.68
398.32	224.69
398.70	224.73
399.07	224.81
399.45	224.87
399.82	224.95
400.20	224.98
400.58	225.04
400.95	225.11
401.33	225.18
401.70	225.34
402.08	225.44
402.45	225.51
402.83	225.60
403.20	225.72
403.58	225.77
403.95	225.94
404.33	226.09
404.71	226.24
405.08	226.42
405.46	226.53
405.83	226.68
406.21	226.84
406.58	227.05
406.96	227.20
407.33	227.42
407.70	227.63
408.08	227.91
408.45	228.17
408.83	228.43
409.20	228.66
409.58	228.90
409.95	229.23
410.33	229.56
410.70	229.85
411.08	230.21
411.45	230.61
411.82	230.97
412.20	231.38
412.57	231.87
412.95	232.23
413.32	232.73
413.69	233.23
414.07	233.75
414.44	234.33
414.82	234.91
415.19	235.57
415.56	236.23
415.94	236.93
416.31	237.67
416.68	238.43
417.06	239.32
417.43	240.17
417.81	241.10
418.18	242.02
418.55	243.08
418.93	244.14
419.30	245.23
419.67	246.36
420.04	247.54
420.42	248.78
420.79	250.23
421.16	251.67
421.54	253.15
421.91	254.68
422.28	256.18
422.66	257.84
423.03	259.45
423.40	261.10
423.77	262.86
424.15	264.70
424.52	266.54
424.89	268.56
425.26	270.48
425.64	272.30
426.01	274.30
426.38	276.36
426.75	278.42
427.13	280.56
427.50	282.83
427.87	285.12
428.24	287.43
428.61	289.60
428.99	291.95
429.36	294.55
429.73	297.11
430.10	299.66
430.47	302.18
430.85	304.80
431.22	307.59
431.59	310.48
431.96	313.20
432.33	316.28
432.70	319.17
433.08	322.63
433.45	325.84
433.82	329.07
434.19	332.58
434.56	336.02
434.93	339.31
435.30	342.49
435.68	346.04
436.05	349.55
436.42	352.99
436.79	356.13
437.16	359.43
437.53	362.86
437.90	366.30
438.27	369.70
438.64	373.16
439.01	376.32
439.38	379.10
439.75	381.77
440.13	384.78
440.50	387.66
440.87	389.91
441.24	392.32
441.61	394.99
441.98	396.87
442.35	399.13
442.72	401.41
443.09	403.69
443.46	404.94
443.83	405.63
444.20	406.28
444.57	407.32
444.94	407.74
445.31	408.20
445.68	408.62
446.05	408.73
446.42	408.26
446.79	407.69
447.16	407.18
447.53	406.84
447.90	405.47
448.27	404.02
448.64	402.10
449.01	400.71
449.37	398.27
449.74	395.92
450.11	393.12
450.48	390.11
450.85	387.00
451.22	384.37
451.59	381.87
451.96	379.50
452.33	376.29
452.70	373.35
453.07	369.87
453.43	366.33
453.80	362.95
454.17	359.70
454.54	356.64
454.91	353.25
455.28	349.94
455.65	346.91
456.02	343.88
456.38	341.23
456.75	337.92
457.12	335.16
457.49	332.43
457.86	329.78
458.23	327.43
458.59	324.89
458.96	322.34
459.33	320.05
459.70	317.66
460.07	315.76
460.43	313.62
460.80	311.60
461.17	309.78
461.54	307.89
461.91	306.11
462.27	304.32
462.64	302.77
463.01	301.06
463.38	299.42
463.74	297.74
464.11	296.27
464.48	295.02
464.85	293.63
465.21	292.52
465.58	291.38
465.95	290.03
466.32	288.88
466.68	287.75
467.05	286.65
467.42	285.59
467.78	284.44
468.15	283.36
468.52	282.53
468.88	281.48
469.25	280.55
469.62	279.75
469.98	278.90
470.35	278.13
470.72	277.41
471.08	276.60
471.45	275.97
471.82	275.33
472.18	274.57
472.55	273.99
472.92	273.38
473.28	272.77
473.65	272.21
474.02	271.70
474.38	271.23
474.75	270.80
475.11	270.38
475.48	270.05
475.85	269.76
476.21	269.48
476.58	269.22
476.94	269.00
477.31	268.79
477.67	268.58
478.04	268.42
478.41	268.30
478.77	268.27
479.14	268.15
479.50	268.12
479.87	268.16
480.23	268.23
480.60	268.22
480.96	268.31
481.33	268.51
481.69	268.65
482.06	268.84
482.42	268.98
482.79	269.16
483.15	269.45
483.52	269.78
483.88	270.10
484.25	270.48
484.61	270.87
484.98	271.28
485.34	271.84
485.71	272.42
486.07	273.01
486.44	273.61
486.80	274.30
487.17	275.01
487.53	275.83
487.90	276.69
488.26	277.65
488.62	278.64
488.99	279.61
489.35	280.69
489.72	281.80
490.08	283.03
490.44	284.30
490.81	285.70
491.17	287.09
491.54	288.56
491.90	290.12
492.26	291.80
492.63	293.56
492.99	295.35
493.36	297.26
493.72	299.38
494.08	301.51
494.45	303.81
494.81	306.25
495.17	308.72
495.54	311.36
495.90	314.14
496.26	317.00
496.63	320.03
496.99	323.21
497.35	326.52
497.72	330.05
498.08	333.67
498.44	337.38
498.80	341.46
499.17	345.63
499.53	349.94
499.89	354.45
500.26	359.10
500.62	363.95
500.98	369.05
501.34	374.27
501.71	379.74
502.07	385.34
502.43	391.13
502.79	397.13
503.16	403.41
503.52	409.91
503.88	416.52
504.24	423.36
504.60	430.46
504.97	437.93
505.33	445.44
505.69	453.44
506.05	461.47
506.41	469.51
506.78	477.98
507.14	486.77
507.50	495.78
507.86	505.14
508.22	514.63
508.59	524.19
508.95	534.14
509.31	544.35
509.67	554.82
510.03	565.46
510.39	576.43
510.75	587.60
511.12	598.86
511.48	610.53
511.84	622.40
512.20	634.31
512.56	646.65
512.92	659.33
513.28	672.12
513.64	685.12
514.00	698.47
514.37	711.99
514.73	725.54
515.09	739.08
515.45	752.89
515.81	767.03
516.17	781.64
516.53	796.33
516.89	811.15
517.25	825.97
517.61	841.00
517.97	856.12
518.33	871.26
518.69	886.69
519.05	902.41
519.41	918.28
519.77	934.58
520.13	950.68
520.49	966.82
520.85	982.99
521.21	999.44
521.57	1016.40
521.93	1032.89
522.29	1050.06
522.65	1067.23
523.01	1084.30
523.37	1101.17
523.73	1118.16
524.09	1135.11
524.45	1152.14
524.81	1169.72
525.17	1187.38
525.53	1205.18
525.89	1222.93
526.25	1240.83
526.61	1258.19
526.97	1275.83
527.33	1293.29
527.68	1311.02
528.04	1328.57
528.40	1346.07
528.76	1364.27
529.12	1381.89
529.48	1399.98
529.84	1417.08
530.20	1434.78
530.56	1452.90
530.91	1471.49
531.27	1489.48
531.63	1507.16
531.99	1525.01
532.35	1542.09
532.71	1559.27
533.07	1576.78
533.42	1593.93
533.78	1611.34
534.14	1628.81
534.50	1645.52
534.86	1662.72
535.21	1679.08
535.57	1696.16
535.93	1713.02
536.29	1728.90
536.65	1745.33
537.00	1761.24
537.36	1777.89
537.72	1793.66
538.08	1809.47
538.44	1824.51
538.79	1839.67
539.15	1854.48
539.51	1869.55
539.87	1885.44
540.22	1900.47
540.58	1915.44
540.94	1930.07
541.29	1943.99
541.65	1957.99
542.01	1972.51
542.37	1986.21
542.72	1999.99
543.08	2013.27
543.44	2027.05
543.79	2039.96
544.15	2052.22
544.51	2065.21
544.87	2077.50
545.22	2089.93
545.58	2101.45
545.94	2112.65
546.29	2123.96
546.65	2135.25
547.01	2146.01
547.36	2156.04
547.72	2166.00
548.07	2175.52
548.43	2185.02
548.79	2194.27
549.14	2203.24
549.50	2211.96
549.86	2220.91
550.21	2229.58
550.57	2238.10
550.92	2246.14
551.28	2254.40
551.64	2262.80
551.99	2270.69
552.35	2278.26
552.70	2285.48
553.06	2292.78
553.41	2300.45
553.77	2307.54
554.13	2315.00
554.48	2322.43
554.84	2329.31
555.19	2335.64
555.55	2341.94
555.90	2347.73
556.26	2354.26
556.61	2360.25
556.97	2365.95
557.32	2371.35
557.68	2376.71
558.03	2382.03
558.39	2386.65
558.74	2392.48
559.10	2397.59
559.45	2402.28
559.81	2407.60
560.16	2412.68
560.52	2417.03
560.87	2421.51
561.23	2425.29
561.58	2429.16
561.94	2432.69
562.29	2435.76
562.64	2439.63
563.00	2443.12
563.35	2447.69
563.71	2451.69
564.06	2455.81
564.42	2459.61
564.77	2463.22
565.12	2466.77
565.48	2469.83
565.83	2472.84
566.19	2475.12
566.54	2476.77
566.89	2478.87
567.25	2480.30
567.60	2482.23
567.96	2484.85
568.31	2486.46
568.66	2488.49
569.02	2489.78
569.37	2490.71
569.72	2492.29
570.08	2493.18
570.43	2493.84
570.78	2493.84
571.14	2492.87
571.49	2492.04
571.84	2492.07
572.20	2491.23
572.55	2490.43
572.90	2489.14
573.26	2488.28
573.61	2486.76
573.96	2485.78
574.31	2483.16
574.67	2480.52
575.02	2477.17
575.37	2473.88
575.72	2470.38
576.08	2467.03
576.43	2463.96
576.78	2460.69
577.13	2457.64
577.49	2454.51
577.84	2451.25
578.19	2447.58
578.54	2444.21
578.90	2440.18
579.25	2434.59
579.60	2429.95
579.95	2424.99
580.30	2419.95
580.66	2414.66
581.01	2409.66
581.36	2404.28
581.71	2400.10
582.06	2395.70
582.42	2391.25
582.77	2385.86
583.12	2381.18
583.47	2376.67
583.82	2371.53
584.17	2366.04
584.53	2360.39
584.88	2354.76
585.23	2348.79
585.58	2342.98
585.93	2337.03
586.28	2331.70
586.63	2326.56
586.98	2320.99
587.34	2315.81
587.69	2310.50
588.04	2305.08
588.39	2299.11
588.74	2292.24
589.09	2285.52
589.44	2278.41
589.79	2271.85
590.14	2265.91
590.49	2258.84
590.84	2251.66
591.19	2245.21
591.54	2238.22
591.89	2230.54
592.25	2223.38
592.60	2215.63
592.95	2207.74
593.30	2199.95
593.65	2192.10
594.00	2184.47
594.35	2176.64
594.70	2167.94
595.05	2160.50
595.40	2152.50
595.75	2144.44
596.10	2137.87
596.45	2130.82
596.80	2124.04
597.15	2116.95
597.50	2109.60
597.85	2102.51
598.19	2095.41
598.54	2087.96
598.89	2080.81
599.24	2074.26
599.59	2067.08
599.94	2060.25
600.29	2053.18
600.64	2045.90
600.99	2037.82
601.34	2030.35
601.69	2022.57
602.04	2015.23
602.39	2007.12
602.74	1999.60
603.08	1992.36
603.43	1984.84
603.78	1976.71
604.13	1968.75
604.48	1960.95
604.83	1953.29
605.18	1946.00
605.53	1937.43
605.87	1928.48
606.22	1920.34
606.57	1911.50
606.92	1902.95
607.27	1895.10
607.62	1887.54
607.96	1879.64
608.31	1872.42
608.66	1864.10
609.01	1855.97
609.36	1847.68
609.70	1838.74
610.05	1829.88
610.40	1821.30
610.75	1812.24
611.10	1803.79
611.44	1794.33
611.79	1785.31
612.14	1775.59
612.49	1765.34
612.83	1755.89
613.18	1746.78
613.53	1737.85
613.88	1728.55
614.22	1719.40
614.57	1709.68
614.92	1700.78
615.27	1692.50
615.61	1683.23
615.96	1674.17
616.31	1665.53
616.65	1657.12
617.00	1648.81
617.35	1640.25
617.70	1630.99
618.04	1621.45
618.39	1612.18
618.74	1603.99
619.08	1594.72
619.43	1586.26
619.78	1578.46
620.12	1570.53
620.47	1562.23
620.82	1552.98
621.16	1544.50
621.51	1535.99
621.85	1527.62
622.20	1518.03
622.55	1508.55
622.89	1499.75
623.24	1491.16
623.59	1482.79
623.93	1474.46
624.28	1466.25
624.62	1457.79
624.97	1449.65
625.32	1441.79
625.66	1433.72
626.01	1425.53
626.35	1417.37
626.70	1408.61
627.04	1400.04
627.39	1391.24
627.73	1382.79
628.08	1375.18
628.43	1367.12
628.77	1359.06
629.12	1350.52
629.46	1342.43
629.81	1333.94
630.15	1325.64
630.50	1317.43
630.84	1308.44
631.19	1299.43
631.53	1290.88
631.88	1282.35
632.22	1273.91
632.57	1265.86
632.91	1257.65
633.26	1249.41
633.60	1240.99
633.95	1232.98
634.29	1224.90
634.64	1217.40
634.98	1209.33
635.32	1201.32
635.67	1193.93
636.01	1186.44
636.36	1178.99
636.70	1171.73
637.05	1164.51
637.39	1157.37
637.73	1150.20
638.08	1143.55
638.42	1136.98
638.77	1129.94
639.11	1122.77
639.45	1115.70
639.80	1108.37
640.14	1101.28
640.49	1093.99
640.83	1086.97
641.17	1080.08
641.52	1073.09
641.86	1065.99
642.20	1059.54
642.55	1052.47
642.89	1045.29
643.23	1037.94
643.58	1031.47
643.92	1024.65
644.26	1018.00
644.61	1011.27
644.95	1004.58
645.29	997.38
645.64	989.93
645.98	982.83
646.32	976.20
646.66	969.43
647.01	963.04
647.35	956.79
647.69	950.40
648.04	944.36
648.38	938.02
648.72	931.53
649.06	924.83
649.41	918.14
649.75	911.68
650.09	905.14
650.43	898.79
650.78	892.02
651.12	885.48
651.46	879.13
651.80	872.91
652.14	866.92
652.49	861.05
652.83	855.40
653.17	849.29
653.51	843.15
653.85	837.17
654.20	830.95
654.54	824.29
654.88	817.83
655.22	811.29
655.56	804.96
655.90	798.91
656.25	793.18
656.59	787.45
656.93	781.80
657.27	776.08
657.61	770.11
657.95	764.41
658.29	758.76
658.64	752.86
658.98	746.96
659.32	740.90
659.66	735.08
660.00	729.23
660.34	723.79
660.68	718.32
661.02	712.83
661.36	707.69
661.70	702.77
662.05	697.95
662.39	693.24
662.73	688.41
663.07	683.54
663.41	678.64
663.75	673.59
664.09	668.55
664.43	663.71
664.77	659.26
665.11	654.65
665.45	650.06
665.79	645.66
666.13	641.14
666.47	636.66
666.81	632.09
667.15	627.56
667.49	623.17
667.83	618.90
668.17	614.49
668.51	610.07
668.85	605.57
669.19	601.36
669.53	597.10
669.87	592.79
670.21	588.68
670.55	584.55
670.89	580.77
671.23	576.98
671.57	573.11
671.91	569.17
672.25	565.28
672.58	561.46
672.92	557.67
673.26	554.18
673.60	550.70
673.94	547.32
674.28	544.08
674.62	540.85
674.96	537.46
675.30	534.29
675.64	530.99
675.97	527.92
676.31	524.74
676.65	521.52
676.99	518.45
677.33	515.27
677.67	512.16
678.01	508.82
678.34	505.59
678.68	502.36
679.02	499.20
679.36	496.11
679.70	493.05
680.04	490.01
680.37	486.88
680.71	483.84
681.05	480.91
681.39	477.92
681.73	474.96
682.06	472.16
682.40	469.37
682.74	466.60
683.08	463.76
683.42	460.91
683.75	458.13
684.09	455.30
684.43	452.57
684.77	449.86
685.10	447.27
685.44	444.67
685.78	442.17
686.12	439.70
686.45	437.18
686.79	434.70
687.13	432.27
687.46	429.78
687.80	427.31
688.14	424.80
688.48	422.49
688.81	420.06
689.15	417.69
689.49	415.25
689.82	412.89
690.16	410.53
690.50	408.29
690.83	406.18
691.17	404.02
691.51	401.94
691.84	399.94
692.18	397.80
692.52	395.70
692.85	393.55
693.19	391.50
693.52	389.45
693.86	387.34
694.20	385.37
694.53	383.46
694.87	381.45
695.21	379.50
695.54	377.50
695.88	375.55
696.21	373.64
696.55	371.83
696.88	370.01
697.22	368.20
697.56	366.39
697.89	364.57
698.23	362.82
698.56	361.04
698.90	359.26
699.23	357.46
699.57	355.71
699.90	353.99
700.24	352.25
700.58	350.62
700.91	349.05
701.25	347.48
701.58	345.93
701.92	344.43
702.25	342.94
702.59	341.39
702.92	339.98
703.26	338.51
703.59	337.16
703.93	335.84
704.26	334.50
704.60	333.12
704.93	331.72
705.26	330.34
705.60	329.01
705.93	327.72
706.27	326.59
706.60	325.42
706.94	324.20
707.27	322.96
707.61	321.74
707.94	320.55
708.27	319.29
708.61	318.08
708.94	316.96
709.28	315.84
709.61	314.78
709.94	313.69
710.28	312.54
710.61	311.37
710.95	310.18
711.28	309.15
711.61	308.11
711.95	307.10
712.28	306.01
712.61	304.94
712.95	303.92
713.28	302.89
713.61	301.86
713.95	300.91
714.28	300.00
714.61	299.04
714.95	298.12
715.28	297.21
715.61	296.27
715.95	295.33
716.28	294.41
716.61	293.46
716.95	292.52
717.28	291.71
717.61	290.83
717.94	290.03
718.28	289.13
718.61	288.28
718.94	287.47
719.27	286.74
719.61	286.06
719.94	285.31
720.27	284.51
720.60	283.79
720.94	283.06
721.27	282.37
721.60	281.71
721.93	281.06
722.27	280.42
722.60	279.77
722.93	279.12
723.26	278.51
723.59	277.90
723.93	277.27
724.26	276.65
724.59	276.05
724.92	275.44
725.25	274.86
725.59	274.30
725.92	273.76
726.25	273.19
726.58	272.62
726.91	272.05
727.24	271.56
727.57	271.02
727.91	270.46
728.24	269.97
728.57	269.44
728.90	268.91
729.23	268.39
729.56	267.90
729.89	267.38
730.22	266.82
730.55	266.28
730.89	265.81
731.22	265.32
731.55	264.87
731.88	264.40
732.21	263.91
732.54	263.40
732.87	262.93
733.20	262.47
733.53	262.02
733.86	261.58
734.19	261.12
734.52	260.73
734.85	260.37
735.18	259.89
735.51	259.48
735.84	259.06
736.17	258.63
736.50	258.19
736.83	257.95
737.16	257.57
737.49	257.22
737.82	256.82
738.15	256.48
738.48	256.09
738.81	255.73
739.14	255.42
739.47	255.11
739.80	254.77
740.13	254.46
740.46	254.09
740.79	253.75
741.12	253.44
741.45	253.08
741.78	252.73
742.11	252.44
742.44	252.12
742.77	251.80
743.10	251.51
743.43	251.17
743.75	250.74
744.08	250.58
744.41	250.33
744.74	250.09
745.07	249.75
745.40	249.47
745.73	249.19
746.06	248.88
746.39	248.58
746.71	248.28
747.04	247.95
747.37	247.67
747.70	247.39
748.03	247.10
748.36	246.86
748.68	246.59
749.01	246.29
749.34	246.02
749.67	245.77
750.00	245.51
750.33	245.38
750.65	245.14
750.98	244.76
751.31	244.48
751.64	244.23
751.97	244.06
752.29	243.82
752.62	243.54
752.95	243.29
753.28	243.06
753.60	242.84
753.93	242.65
754.26	242.44
754.59	242.21
754.91	241.98
755.24	241.74
755.57	241.52
755.90	241.26
756.22	241.07
756.55	240.84
756.88	240.60
757.20	240.34
757.53	240.11
757.86	239.91
758.19	239.73
758.51	239.52
758.84	239.27
759.17	239.03
759.49	238.85
759.82	238.72
760.15	238.51
760.47	238.35
760.80	238.16
761.13	238.02
761.45	237.85
761.78	237.64
762.11	237.48
762.43	237.30
762.76	237.16
763.08	236.98
763.41	236.84
763.74	236.69
764.06	236.51
764.39	236.34
764.71	236.17
765.04	236.01
765.37	235.83
765.69	235.68
766.02	235.56
766.34	235.40
766.67	235.22
767.00	235.11
767.32	234.97
767.65	234.89
767.97	234.72
768.30	234.63
768.62	234.54
768.95	234.40
769.27	234.28
769.60	234.21
769.92	234.09
770.25	233.90
770.57	233.78
770.90	233.66
771.22	233.56
771.55	233.44
771.87	233.31
772.20	233.24
772.52	233.18
772.85	233.22
773.17	233.12
773.50	233.01
773.82	232.86
774.15	232.73
774.47	232.57
774.80	232.46
775.12	232.34
775.45	232.23
775.77	232.13
776.09	232.07
776.42	231.93
776.74	231.85
777.07	231.82
777.39	231.75
777.72	231.66
778.04	231.57
778.36	231.51
778.69	231.46
779.01	231.42
779.33	231.30
779.66	231.07
779.98	231.00
780.31	230.93
780.63	230.94
780.95	230.91
781.28	230.84
781.60	230.79
781.92	230.72
782.25	230.63
782.57	230.58
782.89	230.52
783.22	230.49
783.54	230.44
783.86	230.37
784.19	230.30
784.51	230.30
784.83	230.25
785.16	230.18
785.48	230.14
785.80	230.06
786.12	230.00
786.45	229.99
786.77	229.98
787.09	229.93
787.42	229.84
787.74	229.78
788.06	229.78
788.38	229.73
788.71	229.67
789.03	229.67
789.35	229.62
789.67	229.55
789.99	229.52
790.32	229.44
790.64	229.44
790.96	229.48
791.28	229.39
791.61	229.34
791.93	229.33
792.25	229.31
792.57	229.35
792.89	229.30
793.21	229.25
793.54	229.19
793.86	229.14
794.18	229.10
794.50	229.08
794.82	229.03
795.14	229.02
795.47	229.01
795.79	228.96
796.11	228.92
796.43	228.88
796.75	228.83
797.07	228.79
797.39	228.71
797.71	228.60
798.04	228.58
798.36	228.57
798.68	228.50
799.00	228.46
799.32	228.36
799.64	228.34
799.96	228.28
800.28	228.27
800.60	228.25
800.92	228.25
801.24	228.18
801.56	228.13
801.89	228.07
802.21	228.02
802.53	227.97
802.85	227.97
803.17	228.00
803.49	227.95
803.81	227.88
804.13	227.87
804.45	227.82
804.77	227.77
805.09	227.71
805.41	227.68
805.73	227.61
806.05	227.53
806.37	227.45
806.69	227.43
807.01	227.39
807.33	227.34
807.65	227.24
807.97	227.26
808.28	227.19
808.60	227.16
808.92	227.12
809.24	227.15
809.56	227.09
809.88	227.00
810.20	226.98
810.52	226.99
810.84	226.92
811.16	226.86
811.48	226.82
811.80	226.83
812.12	226.76
812.43	226.75
812.75	226.73
813.07	226.70
813.39	226.71
813.71	226.64
814.03	226.59
814.35	226.56
814.67	226.50
814.98	226.48
815.30	226.43
815.62	226.39
815.94	226.30
816.26	226.34
816.58	226.31
816.89	226.29
817.21	226.28
817.53	226.26
817.85	226.27
818.17	226.27
818.48	226.22
818.80	226.24
819.12	226.21
819.44	226.23
819.76	226.26
820.07	226.23
820.39	226.21
820.71	226.24
821.03	226.25
821.34	226.22
821.66	226.22
821.98	226.25
822.30	226.23
822.61	226.29
822.93	226.23
823.25	226.21
823.57	226.15
823.88	226.16
824.20	226.17
824.52	226.21
824.83	226.20
825.15	226.20
825.47	226.19
825.79	226.23
826.10	226.22
826.42	226.18
826.74	226.20
827.05	226.21
827.37	226.18
827.69	226.12
828.00	226.13
828.32	226.14
828.64	226.14
828.95	226.19
829.27	226.14
829.58	226.13
829.90	226.17
830.22	226.19
830.53	226.16
830.85	226.15
831.17	226.07
831.48	226.07
831.80	226.06
832.11	226.04
832.43	225.99
832.75	225.95
833.06	226.00
833.38	225.96
833.69	225.97
834.01	226.00
834.32	226.09
834.64	226.11
834.96	226.10
835.27	226.07
835.59	226.04
835.90	226.02
836.22	225.98
836.53	225.94
836.85	225.95
837.16	226.03
837.48	226.02
837.79	226.11
838.11	226.09
838.42	226.08
838.74	226.11
839.05	226.12
839.37	226.13
839.68	226.06
840.00	226.05
840.31	226.05
840.63	225.98
840.94	225.93
841.26	225.87
841.57	225.84
841.88	225.83
842.20	225.80
842.51	225.78
842.83	225.78
843.14	225.86
843.46	225.83
843.77	225.77
844.08	225.75
844.40	225.67
844.71	225.64
845.03	225.61
845.34	225.58
845.65	225.55
845.97	225.54
846.28	225.54
846.60	225.54
846.91	225.49
847.22	225.52
847.54	225.56
847.85	225.56
848.16	225.53
848.48	225.54
848.79	225.57
849.10	225.58
849.42	225.58
849.73	225.47
850.04	225.47
850.36	225.41
850.67	225.39
850.98	225.36
851.30	225.38
851.61	225.36
851.92	225.32
852.23	225.36
852.55	225.36
852.86	225.37
853.17	225.35
853.49	225.38
853.80	225.37
854.11	225.33
854.42	225.34
854.74	225.36
855.05	225.32
855.36	225.26
855.67	225.28
855.99	225.28
856.30	225.37
856.61	225.37
856.92	225.40
857.23	225.41
857.55	225.42
857.86	225.43
858.17	225.46
858.48	225.45
858.79	225.43
859.11	225.45
859.42	225.46
859.73	225.45
860.04	225.42
860.35	225.39
860.66	225.35
860.98	225.35
861.29	225.37
861.60	225.39
861.91	225.41
862.22	225.38
862.53	225.35
862.84	225.23
863.16	225.26
863.47	225.24
863.78	225.24
864.09	225.26
864.40	225.25
864.71	225.25
865.02	225.27
865.33	225.26
865.64	225.24
865.95	225.20
866.27	225.24
866.58	225.28
866.89	225.29
867.20	225.31
867.51	225.31
867.82	225.30
868.13	225.32
868.44	225.29
868.75	225.29
869.06	225.33
869.37	225.37
869.68	225.37
869.99	225.35
870.30	225.37
870.61	225.36
870.92	225.35
871.23	225.34
871.54	225.34
871.85	225.36
872.16	225.37
872.47	225.37
872.78	225.34
873.09	225.31
873.40	225.30
873.71	225.29
874.02	225.29
874.33	225.27
874.64	225.23
874.95	225.24
875.26	225.24
875.56	225.21
875.87	225.20
876.18	225.14
876.49	225.24
876.80	225.23
877.11	225.21
877.42	225.24
877.73	225.24
878.04	225.21
878.35	225.20
878.66	225.21
878.96	225.23
879.27	225.22
879.58	225.24
879.89	225.25
880.20	225.31
880.51	225.33
880.82	225.33
881.12	225.35
881.43	225.34
881.74	225.30
882.05	225.28
882.36	225.28
882.67	225.29
882.97	225.19
883.28	225.17
883.59	225.17
883.90	225.14
884.21	225.16
884.51	225.17
884.82	225.14
885.13	225.12
885.44	225.10
885.74	225.10
886.05	225.06
886.36	225.05
886.67	224.99
886.98	225.01
887.28	225.02
887.59	225.02
887.90	225.00
888.20	225.01
888.51	225.04
888.82	225.03
889.13	225.05
889.43	225.13
889.74	225.09
890.05	225.08
890.35	225.07
890.66	225.05
890.97	225.02
891.28	224.98
891.58	224.98
891.89	224.96
892.20	224.96
892.50	224.94
892.81	224.92
893.12	224.93
893.42	224.88
893.73	224.87
894.04	224.89
894.34	224.92
894.65	224.95
894.95	224.96
895.26	224.95
895.57	224.98
895.87	224.88
896.18	224.92
896.48	224.93
896.79	224.95
897.10	224.97
897.40	224.99
897.71	225.01
898.01	224.99
898.32	225.03
898.63	225.01
898.93	225.02
899.24	225.04
899.54	225.02
899.85	225.02
900.15	225.02
900.46	224.97
900.76	224.99
901.07	224.97
901.38	224.95
901.68	224.98
901.99	224.91
902.29	224.93
902.60	224.92
902.90	224.92
903.21	224.88
903.51	224.87
903.82	224.88
904.12	224.90
904.43	224.93
904.73	224.89
905.03	224.89
905.34	224.99
905.64	224.97
905.95	225.00
906.25	224.98
906.56	225.00
906.86	225.01
907.17	224.97
907.47	224.97
907.77	224.96
908.08	224.93
908.38	224.95
908.69	224.96
908.99	224.96
909.30	224.98
909.60	224.99
909.90	225.01
910.21	225.01
910.51	224.97
910.81	224.95
911.12	224.94
911.42	224.95
911.73	224.82
912.03	224.82
912.33	224.83
912.64	224.83
912.94	224.81
913.24	224.80
913.55	224.79
913.85	224.78
914.15	224.80
914.46	224.83
914.76	224.81
915.06	224.79
915.37	224.77
915.67	224.72
915.97	224.72
916.27	224.63
916.58	224.59
916.88	224.61
917.18	224.60
917.49	224.70
917.79	224.70
918.09	224.74
918.39	224.77
918.70	224.77
919.00	224.75
919.30	224.80
919.60	224.79
919.91	224.77
920.21	224.76
920.51	224.74
920.81	224.71
921.12	224.74
921.42	224.76
921.72	224.76
922.02	224.79
922.32	224.81
922.63	224.83
922.93	224.90
923.23	224.89
923.53	224.91
923.83	224.80
924.13	224.79
924.44	224.78
924.74	224.77
925.04	224.77
925.34	224.77
925.64	224.73
925.94	224.74
926.24	224.80
926.55	224.82
926.85	224.84
927.15	224.84
927.45	224.82
927.75	224.79
928.05	224.83
928.35	224.82
928.65	224.83
928.95	224.84
929.26	224.78
929.56	224.83
929.86	224.81
930.16	224.80
930.46	224.81
930.76	224.84
931.06	224.80
931.36	224.77
931.66	224.80
931.96	224.81
932.26	224.81
932.56	224.74
932.86	224.77
933.16	224.78
933.46	224.77
933.76	224.78
934.06	224.78
934.36	224.82
934.66	224.82
934.96	224.81
935.26	224.83
935.56	224.86
935.86	224.81
936.16	224.80
936.46	224.83
936.76	224.83
937.06	224.80
937.36	224.82
937.66	224.81
937.96	224.80
938.26	224.79
938.56	224.79
938.86	224.84
939.16	224.86
939.46	224.86
939.76	224.88
940.06	224.87
940.35	224.88
940.65	224.79
940.95	224.79
941.25	224.76
941.55	224.73
941.85	224.69
942.15	224.74
942.45	224.79
942.75	224.75
943.04	224.72
943.34	224.74
943.64	224.75
943.94	224.72
944.24	224.70
944.54	224.70
944.84	224.70
945.13	224.65
945.43	224.59
945.73	224.56
946.03	224.53
946.33	224.52
946.62	224.52
946.92	224.52
947.22	224.51
947.52	224.55
947.82	224.56
948.11	224.57
948.41	224.50
948.71	224.47
949.01	224.50
949.31	224.50
949.60	224.46
949.90	224.44
950.20	224.44
950.50	224.44
950.79	224.43
951.09	224.39
951.39	224.40
951.69	224.38
951.98	224.41
952.28	224.42
952.58	224.41
952.87	224.39
953.17	224.39
953.47	224.36
953.76	224.33
954.06	224.32
954.36	224.31
954.66	224.32
954.95	224.35
955.25	224.32
955.55	224.32
955.84	224.33
956.14	224.34
956.44	224.36
956.73	224.36
957.03	224.37
957.32	224.39
957.62	224.39
957.92	224.46
958.21	224.43
958.51	224.52
958.81	224.54
959.10	224.56
959.40	224.60
959.69	224.64
959.99	224.64
960.29	224.61
960.58	224.65
960.88	224.68
961.17	224.66
961.47	224.69
961.76	224.69
962.06	224.68
962.36	224.69
962.65	224.70
962.95	224.72
963.24	224.70
963.54	224.72
963.83	224.71
964.13	224.64
964.42	224.60
964.72	224.53
965.01	224.54
965.31	224.52
965.60	224.50
965.90	224.51
966.19	224.53
966.49	224.54
966.78	224.52
967.08	224.51
967.37	224.51
967.67	224.50
967.96	224.52
968.26	224.58
968.55	224.59
968.85	224.61
969.14	224.60
969.43	224.61
969.73	224.57
970.02	224.62
970.32	224.65
970.61	224.66
970.91	224.62
971.20	224.62
971.49	224.63
971.79	224.66
972.08	224.61
972.38	224.63
972.67	224.64
972.96	224.64
973.26	224.64
973.55	224.67
973.85	224.68
974.14	224.69
974.43	224.67
974.73	224.65
975.02	224.65
975.31	224.65
975.61	224.70
975.90	224.68
976.19	224.65
976.49	224.62
976.78	224.66
977.07	224.71
977.37	224.74
977.66	224.74
977.95	224.73
978.24	224.78
978.54	224.76
978.83	224.73
979.12	224.73
979.42	224.74
979.71	224.69
980.00	224.68
980.29	224.65
980.59	224.60
980.88	224.62
981.17	224.60
981.46	224.60
981.76	224.54
982.05	224.62
982.34	224.63
982.63	224.64
982.93	224.66
983.22	224.65
983.51	224.64
983.80	224.68
984.09	224.67
984.39	224.65
984.68	224.65
984.97	224.67
985.26	224.68
985.55	224.68
985.85	224.68
986.14	224.67
986.43	224.68
986.72	224.69
987.01	224.66
987.30	224.67
987.59	224.62
987.89	224.65
988.18	224.59
988.47	224.57
988.76	224.57
989.05	224.51
989.34	224.51
989.63	224.51
989.92	224.48
990.22	224.46
990.51	224.46
990.80	224.45
991.09	224.47
991.38	224.48
991.67	224.46
991.96	224.47
992.25	224.48
992.54	224.44
992.83	224.45
993.12	224.44
993.41	224.42
993.70	224.47
993.99	224.47
994.28	224.52
994.58	224.52
994.87	224.50
995.16	224.51
995.45	224.46
995.74	224.41
996.03	224.41
996.32	224.40
996.61	224.41
996.90	224.41
997.19	224.38
997.48	224.37
997.77	224.36
998.06	224.31
998.34	224.33
998.63	224.35
998.92	224.35
999.21	224.40
999.50	224.41
999.79	224.37
1000.08	224.36
1000.37	224.33
1000.66	224.31
1000.95	224.39
1001.24	224.37
1001.53	224.41
1001.82	224.41
1002.11	224.41
1002.40	224.46
1002.68	224.49
1002.97	224.52
1003.26	224.54
1003.55	224.50
1003.84	224.49
1004.13	224.59
1004.42	224.55
1004.71	224.57
1004.99	224.58
1005.28	224.57
1005.57	224.56
1005.86	224.57
1006.15	224.59
1006.44	224.56
1006.72	224.56
1007.01	224.51
1007.30	224.54
1007.59	224.52
1007.88	224.52
1008.17	224.54
1008.45	224.48
1008.74	224.46
1009.03	224.43
1009.32	224.41
1009.60	224.43
1009.89	224.42
1010.18	224.38
1010.47	224.38
1010.76	224.35
1011.04	224.35
1011.33	224.34
1011.62	224.37
1011.91	224.40
1012.19	224.38
1012.48	224.42
1012.77	224.44
1013.05	224.51
1013.34	224.50
1013.63	224.51
1013.92	224.51
1014.20	224.52
1014.49	224.54
1014.78	224.53
1015.06	224.50
1015.35	224.51
1015.64	224.55
1015.92	224.56
1016.21	224.58
1016.50	224.58
1016.78	224.62
1017.07	224.64
1017.36	224.61
1017.64	224.61
1017.93	224.61
1018.22	224.61
1018.50	224.59
1018.79	224.58
1019.08	224.52
1019.36	224.54
1019.65	224.52
1019.93	224.57
1020.22	224.56
1020.51	224.63
1020.79	224.62
1021.08	224.08
1021.36	224.19
1021.65	224.64
1021.94	224.51
1022.22	224.78
1022.51	223.96
1022.79	225.15
1023.08	224.95
1023.36	225.96
1023.65	224.22
>>>>>End Processed Spectral Data<<<<<
