SpectraSuite Data File
++++++++++++++++++++++++++++++++++++
Date: Fri Feb 01 16:29:10 EST 2013
User: group
Dark Spectrum Present: No
Reference Spectrum Present: No
Number of Sampled Component Spectra: 1
Spectrometers: USB2E7196
Integration Time (usec): 35000 (USB2E7196)
Spectra Averaged: 100 (USB2E7196)
Boxcar Smoothing: 10 (USB2E7196)
Correct for Electrical Dark: No (USB2E7196)
Strobe/Lamp Enabled: No (USB2E7196)
Correct for Detector Non-linearity: No (USB2E7196)
Correct for Stray Light: No (USB2E7196)
Number of Pixels in Processed Spectrum: 2048
>>>>>Begin Processed Spectral Data<<<<<
339.09	0.00
339.48	213.59
339.86	215.33
340.24	216.39
340.63	217.99
341.01	220.60
341.39	221.07
341.78	221.60
342.16	223.68
342.54	223.46
342.93	212.13
343.31	222.83
343.69	223.40
344.07	223.88
344.46	224.32
344.84	224.72
345.22	225.00
345.60	225.23
345.99	225.47
346.37	225.59
346.75	225.73
347.13	225.79
347.52	225.86
347.90	225.96
348.28	226.02
348.66	226.06
349.05	226.08
349.43	226.15
349.81	226.20
350.19	226.26
350.57	226.31
350.96	226.38
351.34	226.48
351.72	226.56
352.10	226.66
352.48	226.75
352.87	226.80
353.25	226.86
353.63	226.96
354.01	227.02
354.39	227.11
354.77	227.19
355.15	227.30
355.54	227.37
355.92	227.39
356.30	227.51
356.68	227.66
357.06	227.73
357.44	227.76
357.82	227.79
358.20	227.92
358.58	228.01
358.97	228.11
359.35	228.21
359.73	228.26
360.11	228.32
360.49	228.34
360.87	228.40
361.25	228.45
361.63	228.51
362.01	228.57
362.39	228.59
362.77	228.62
363.15	228.64
363.53	228.67
363.91	228.71
364.29	228.69
364.67	228.61
365.05	228.63
365.43	228.68
365.81	228.73
366.19	228.76
366.57	228.82
366.95	228.81
367.33	228.78
367.71	228.79
368.09	228.81
368.47	228.86
368.85	228.85
369.23	228.83
369.61	228.76
369.99	228.74
370.37	228.67
370.75	228.71
371.13	228.65
371.51	228.58
371.89	228.55
372.27	228.52
372.65	228.45
373.03	228.43
373.41	228.36
373.78	228.29
374.16	228.15
374.54	228.05
374.92	227.95
375.30	227.89
375.68	227.80
376.06	227.72
376.44	227.63
376.82	227.55
377.19	227.49
377.57	227.42
377.95	227.33
378.33	227.29
378.71	227.13
379.09	227.07
379.47	226.99
379.84	226.92
380.22	226.81
380.60	226.76
380.98	226.63
381.36	226.56
381.73	226.46
382.11	226.41
382.49	226.34
382.87	226.24
383.25	226.21
383.62	226.25
384.00	226.19
384.38	226.10
384.76	226.08
385.13	226.05
385.51	226.00
385.89	225.94
386.27	225.86
386.64	225.84
387.02	225.80
387.40	225.80
387.78	225.78
388.15	225.76
388.53	225.69
388.91	225.70
389.29	225.66
389.66	225.67
390.04	225.64
390.42	225.65
390.79	225.67
391.17	225.61
391.55	225.50
391.92	225.47
392.30	225.46
392.68	225.41
393.05	225.39
393.43	225.38
393.81	225.43
394.18	225.46
394.56	225.48
394.94	225.50
395.31	225.48
395.69	225.51
396.06	225.59
396.44	225.64
396.82	225.63
397.19	225.74
397.57	225.76
397.95	225.79
398.32	225.78
398.70	225.82
399.07	225.88
399.45	225.96
399.82	226.05
400.20	226.11
400.58	226.19
400.95	226.23
401.33	226.33
401.70	226.42
402.08	226.51
402.45	226.59
402.83	226.71
403.20	226.80
403.58	226.90
403.95	227.02
404.33	227.13
404.71	227.27
405.08	227.42
405.46	227.54
405.83	227.72
406.21	227.90
406.58	228.07
406.96	228.26
407.33	228.39
407.70	228.58
408.08	228.87
408.45	229.09
408.83	229.33
409.20	229.52
409.58	229.71
409.95	229.98
410.33	230.26
410.70	230.48
411.08	230.80
411.45	231.10
411.82	231.39
412.20	231.74
412.57	232.18
412.95	232.45
413.32	232.87
413.69	233.26
414.07	233.70
414.44	234.15
414.82	234.60
415.19	235.18
415.56	235.72
415.94	236.21
416.31	236.83
416.68	237.44
417.06	238.19
417.43	238.87
417.81	239.64
418.18	240.40
418.55	241.24
418.93	242.10
419.30	242.97
419.67	243.88
420.04	244.83
420.42	245.81
420.79	247.03
421.16	248.15
421.54	249.34
421.91	250.55
422.28	251.78
422.66	253.10
423.03	254.41
423.40	255.71
423.77	257.13
424.15	258.58
424.52	260.06
424.89	261.63
425.26	263.16
425.64	264.57
426.01	266.14
426.38	267.78
426.75	269.45
427.13	271.19
427.50	272.96
427.87	274.82
428.24	276.63
428.61	278.32
428.99	280.26
429.36	282.34
429.73	284.36
430.10	286.35
430.47	288.41
430.85	290.50
431.22	292.73
431.59	295.08
431.96	297.28
432.33	299.76
432.70	302.10
433.08	304.93
433.45	307.53
433.82	310.12
434.19	313.00
434.56	315.80
434.93	318.42
435.30	321.06
435.68	323.92
436.05	326.80
436.42	329.58
436.79	332.11
437.16	334.78
437.53	337.60
437.90	340.40
438.27	343.14
438.64	345.94
439.01	348.55
439.38	350.83
439.75	352.97
440.13	355.41
440.50	357.75
440.87	359.61
441.24	361.58
441.61	363.76
441.98	365.29
442.35	367.06
442.72	368.89
443.09	370.67
443.46	371.68
443.83	372.25
444.20	372.77
444.57	373.57
444.94	373.90
445.31	374.24
445.68	374.63
446.05	374.69
446.42	374.31
446.79	373.88
447.16	373.43
447.53	373.10
447.90	371.98
448.27	370.80
448.64	369.21
449.01	368.04
449.37	366.04
449.74	364.08
450.11	361.86
450.48	359.38
450.85	356.87
451.22	354.73
451.59	352.67
451.96	350.75
452.33	348.18
452.70	345.75
453.07	342.94
453.43	340.05
453.80	337.32
454.17	334.69
454.54	332.12
454.91	329.39
455.28	326.78
455.65	324.31
456.02	321.90
456.38	319.74
456.75	317.13
457.12	314.89
457.49	312.71
457.86	310.58
458.23	308.75
458.59	306.71
458.96	304.69
459.33	302.85
459.70	301.00
460.07	299.47
460.43	297.80
460.80	296.21
461.17	294.74
461.54	293.23
461.91	291.79
462.27	290.40
462.64	289.15
463.01	287.85
463.38	286.58
463.74	285.23
464.11	284.09
464.48	283.04
464.85	282.01
465.21	281.17
465.58	280.22
465.95	279.14
466.32	278.25
466.68	277.32
467.05	276.47
467.42	275.61
467.78	274.73
468.15	273.92
468.52	273.26
468.88	272.48
469.25	271.76
469.62	271.15
469.98	270.49
470.35	269.90
470.72	269.27
471.08	268.63
471.45	268.10
471.82	267.57
472.18	267.04
472.55	266.57
472.92	266.07
473.28	265.65
473.65	265.24
474.02	264.83
474.38	264.49
474.75	264.19
475.11	263.85
475.48	263.59
475.85	263.37
476.21	263.18
476.58	263.01
476.94	262.87
477.31	262.73
477.67	262.61
478.04	262.47
478.41	262.45
478.77	262.48
479.14	262.46
479.50	262.47
479.87	262.54
480.23	262.63
480.60	262.68
480.96	262.80
481.33	263.00
481.69	263.20
482.06	263.42
482.42	263.62
482.79	263.87
483.15	264.18
483.52	264.58
483.88	264.93
484.25	265.30
484.61	265.74
484.98	266.18
485.34	266.71
485.71	267.31
486.07	267.90
486.44	268.45
486.80	269.14
487.17	269.88
487.53	270.72
487.90	271.54
488.26	272.50
488.62	273.45
488.99	274.47
489.35	275.52
489.72	276.62
490.08	277.88
490.44	279.09
490.81	280.44
491.17	281.76
491.54	283.21
491.90	284.76
492.26	286.43
492.63	288.18
492.99	289.97
493.36	291.89
493.72	293.93
494.08	296.07
494.45	298.32
494.81	300.67
495.17	303.06
495.54	305.69
495.90	308.36
496.26	311.21
496.63	314.13
496.99	317.23
497.35	320.49
497.72	323.86
498.08	327.42
498.44	331.10
498.80	335.03
499.17	339.10
499.53	343.29
499.89	347.67
500.26	352.16
500.62	356.79
500.98	361.74
501.34	366.87
501.71	372.18
502.07	377.62
502.43	383.28
502.79	389.18
503.16	395.22
503.52	401.50
503.88	407.94
504.24	414.60
504.60	421.49
504.97	428.61
505.33	435.96
505.69	443.65
506.05	451.38
506.41	459.28
506.78	467.43
507.14	475.89
507.50	484.58
507.86	493.66
508.22	502.95
508.59	512.18
508.95	521.77
509.31	531.65
509.67	541.73
510.03	552.07
510.39	562.61
510.75	573.36
511.12	584.28
511.48	595.51
511.84	606.92
512.20	618.48
512.56	630.46
512.92	642.61
513.28	654.97
513.64	667.52
514.00	680.17
514.37	693.08
514.73	706.12
515.09	719.17
515.45	732.47
515.81	746.02
516.17	759.93
516.53	773.94
516.89	788.08
517.25	802.24
517.61	816.58
517.97	831.03
518.33	845.51
518.69	860.23
519.05	875.11
519.41	890.26
519.77	905.77
520.13	921.16
520.49	936.46
520.85	951.89
521.21	967.61
521.57	983.78
521.93	999.43
522.29	1015.69
522.65	1031.84
523.01	1047.84
523.37	1063.72
523.73	1079.82
524.09	1095.92
524.45	1112.11
524.81	1128.67
525.17	1145.41
525.53	1162.17
525.89	1178.93
526.25	1195.69
526.61	1212.08
526.97	1228.81
527.33	1245.14
527.68	1261.56
528.04	1277.85
528.40	1294.25
528.76	1311.13
529.12	1327.65
529.48	1344.51
529.84	1360.48
530.20	1377.01
530.56	1394.00
530.91	1411.32
531.27	1428.10
531.63	1444.45
531.99	1460.95
532.35	1476.86
532.71	1492.61
533.07	1508.70
533.42	1524.42
533.78	1540.36
534.14	1556.57
534.50	1571.72
534.86	1587.58
535.21	1602.77
535.57	1618.78
535.93	1634.16
536.29	1648.88
536.65	1663.84
537.00	1678.48
537.36	1693.60
537.72	1708.11
538.08	1722.52
538.44	1736.17
538.79	1749.85
539.15	1763.40
539.51	1777.07
539.87	1791.17
540.22	1804.81
540.58	1818.52
540.94	1831.85
541.29	1844.61
541.65	1857.16
542.01	1870.27
542.37	1882.44
542.72	1894.70
543.08	1906.33
543.44	1918.67
543.79	1929.88
544.15	1940.75
544.51	1952.40
544.87	1963.41
545.22	1974.15
545.58	1984.27
545.94	1994.05
546.29	2003.90
546.65	2013.90
547.01	2023.09
547.36	2031.84
547.72	2040.25
548.07	2048.08
548.43	2056.21
548.79	2064.26
549.14	2071.76
549.50	2079.07
549.86	2086.62
550.21	2094.03
550.57	2101.15
550.92	2107.68
551.28	2114.69
551.64	2121.74
551.99	2128.19
552.35	2134.31
552.70	2140.30
553.06	2146.22
553.41	2152.59
553.77	2158.56
554.13	2164.40
554.48	2170.40
554.84	2175.92
555.19	2181.23
555.55	2186.35
555.90	2190.74
556.26	2195.68
556.61	2200.57
556.97	2204.82
557.32	2208.98
557.68	2213.06
558.03	2217.42
558.39	2221.12
558.74	2225.68
559.10	2229.57
559.45	2233.26
559.81	2237.63
560.16	2241.58
560.52	2244.69
560.87	2247.98
561.23	2250.74
561.58	2253.69
561.94	2256.23
562.29	2258.60
562.64	2261.26
563.00	2263.78
563.35	2267.26
563.71	2270.39
564.06	2273.42
564.42	2276.33
564.77	2278.91
565.12	2281.14
565.48	2282.94
565.83	2285.07
566.19	2286.37
566.54	2287.25
566.89	2288.31
567.25	2288.73
567.60	2290.02
567.96	2291.91
568.31	2292.92
568.66	2293.92
569.02	2294.45
569.37	2294.86
569.72	2295.69
570.08	2295.88
570.43	2296.14
570.78	2295.90
571.14	2294.36
571.49	2293.15
571.84	2293.00
572.20	2291.97
572.55	2291.07
572.90	2289.61
573.26	2288.01
573.61	2286.41
573.96	2284.82
574.31	2281.92
574.67	2279.07
575.02	2275.57
575.37	2272.12
575.72	2268.31
576.08	2265.09
576.43	2261.87
576.78	2258.28
577.13	2255.22
577.49	2252.18
577.84	2248.65
578.19	2244.82
578.54	2241.29
578.90	2237.03
579.25	2231.42
579.60	2226.37
579.95	2221.35
580.30	2216.50
580.66	2211.43
581.01	2206.55
581.36	2201.68
581.71	2197.52
582.06	2193.12
582.42	2188.67
582.77	2183.59
583.12	2179.12
583.47	2174.49
583.82	2169.68
584.17	2164.51
584.53	2159.07
584.88	2153.48
585.23	2147.83
585.58	2142.50
585.93	2137.23
586.28	2132.50
586.63	2127.57
586.98	2122.72
587.34	2118.00
587.69	2113.05
588.04	2107.78
588.39	2102.22
588.74	2095.84
589.09	2089.80
589.44	2083.13
589.79	2077.24
590.14	2071.72
590.49	2065.25
590.84	2058.98
591.19	2052.87
591.54	2046.60
591.89	2039.33
592.25	2032.63
592.60	2025.48
592.95	2017.83
593.30	2010.31
593.65	2002.83
594.00	1995.96
594.35	1988.72
594.70	1980.90
595.05	1973.86
595.40	1966.81
595.75	1959.30
596.10	1953.12
596.45	1946.45
596.80	1940.29
597.15	1933.67
597.50	1926.66
597.85	1920.27
598.19	1913.58
598.54	1906.52
598.89	1899.77
599.24	1893.91
599.59	1887.30
599.94	1881.02
600.29	1874.83
600.64	1868.28
600.99	1860.84
601.34	1854.04
601.69	1847.05
602.04	1840.19
602.39	1832.86
602.74	1825.97
603.08	1819.31
603.43	1812.57
603.78	1805.28
604.13	1798.14
604.48	1790.88
604.83	1783.87
605.18	1776.77
605.53	1768.86
605.87	1761.02
606.22	1753.84
606.57	1745.76
606.92	1738.52
607.27	1731.46
607.62	1724.50
607.96	1717.27
608.31	1710.77
608.66	1703.03
609.01	1695.47
609.36	1687.89
609.70	1679.85
610.05	1671.83
610.40	1664.17
610.75	1655.89
611.10	1648.19
611.44	1639.67
611.79	1631.66
612.14	1623.12
612.49	1614.15
612.83	1605.79
613.18	1597.64
613.53	1589.46
613.88	1581.03
614.22	1572.58
614.57	1564.08
614.92	1555.98
615.27	1548.42
615.61	1540.13
615.96	1532.14
616.31	1524.56
616.65	1517.21
617.00	1509.70
617.35	1502.13
617.70	1493.74
618.04	1485.20
618.39	1477.01
618.74	1469.49
619.08	1461.17
619.43	1453.48
619.78	1446.47
620.12	1439.20
620.47	1431.74
620.82	1423.71
621.16	1416.29
621.51	1408.79
621.85	1401.15
622.20	1392.67
622.55	1384.32
622.89	1376.43
623.24	1368.68
623.59	1361.26
623.93	1353.64
624.28	1346.41
624.62	1338.77
624.97	1331.58
625.32	1324.88
625.66	1317.91
626.01	1310.70
626.35	1303.25
626.70	1295.68
627.04	1287.89
627.39	1280.10
627.73	1272.59
628.08	1265.54
628.43	1258.25
628.77	1250.91
629.12	1243.23
629.46	1236.13
629.81	1228.68
630.15	1221.39
630.50	1214.06
630.84	1205.94
631.19	1198.14
631.53	1190.52
631.88	1182.99
632.22	1175.42
632.57	1168.03
632.91	1160.43
633.26	1152.88
633.60	1145.54
633.95	1138.26
634.29	1131.34
634.64	1124.70
634.98	1117.40
635.32	1110.24
635.67	1103.60
636.01	1096.85
636.36	1090.07
636.70	1083.50
637.05	1076.93
637.39	1070.58
637.73	1064.04
638.08	1058.11
638.42	1052.08
638.77	1045.73
639.11	1039.07
639.45	1032.62
639.80	1025.98
640.14	1019.58
640.49	1013.18
640.83	1006.81
641.17	1000.49
641.52	994.08
641.86	987.68
642.20	981.84
642.55	975.55
642.89	969.06
643.23	962.58
643.58	956.84
643.92	950.58
644.26	944.54
644.61	938.35
644.95	932.28
645.29	925.63
645.64	918.79
645.98	912.51
646.32	906.69
646.66	900.60
647.01	894.76
647.35	889.03
647.69	883.22
648.04	877.75
648.38	872.08
648.72	866.08
649.06	859.97
649.41	854.07
649.75	848.08
650.09	842.21
650.43	836.39
650.78	830.16
651.12	824.23
651.46	818.48
651.80	812.76
652.14	807.39
652.49	802.11
652.83	797.03
653.17	791.22
653.51	785.51
653.85	780.22
654.20	774.61
654.54	768.55
654.88	762.79
655.22	756.89
655.56	751.22
655.90	745.79
656.25	740.53
656.59	735.13
656.93	730.14
657.27	724.92
657.61	719.49
657.95	714.41
658.29	709.33
658.64	704.10
658.98	698.80
659.32	693.38
659.66	688.15
660.00	682.82
660.34	677.91
660.68	672.93
661.02	667.85
661.36	663.18
661.70	658.72
662.05	654.37
662.39	649.99
662.73	645.47
663.07	641.10
663.41	636.65
663.75	632.16
664.09	627.56
664.43	623.20
664.77	619.06
665.11	614.85
665.45	610.68
665.79	606.62
666.13	602.54
666.47	598.40
666.81	594.22
667.15	590.11
667.49	586.16
667.83	582.39
668.17	578.44
668.51	574.27
668.85	570.23
669.19	566.37
669.53	562.52
669.87	558.59
670.21	554.88
670.55	551.22
670.89	547.74
671.23	544.24
671.57	540.64
671.91	537.07
672.25	533.54
672.58	530.02
672.92	526.59
673.26	523.32
673.60	520.15
673.94	516.95
674.28	513.99
674.62	511.04
674.96	507.87
675.30	504.93
675.64	502.07
675.97	499.32
676.31	496.46
676.65	493.57
676.99	490.92
677.33	488.01
677.67	485.23
678.01	482.23
678.34	479.29
678.68	476.50
679.02	473.74
679.36	470.97
679.70	468.32
680.04	465.57
680.37	462.77
680.71	460.04
681.05	457.47
681.39	454.76
681.73	452.12
682.06	449.63
682.40	447.06
682.74	444.55
683.08	441.97
683.42	439.39
683.75	436.88
684.09	434.33
684.43	431.85
684.77	429.33
685.10	427.01
685.44	424.70
685.78	422.40
686.12	420.14
686.45	417.80
686.79	415.46
687.13	413.25
687.46	411.11
687.80	408.95
688.14	406.79
688.48	404.73
688.81	402.47
689.15	400.33
689.49	398.23
689.82	396.13
690.16	394.05
690.50	392.07
690.83	390.12
691.17	388.10
691.51	386.24
691.84	384.43
692.18	382.49
692.52	380.50
692.85	378.56
693.19	376.61
693.52	374.86
693.86	373.03
694.20	371.22
694.53	369.41
694.87	367.57
695.21	365.81
695.54	363.98
695.88	362.23
696.21	360.53
696.55	358.83
696.88	357.17
697.22	355.55
697.56	353.96
697.89	352.28
698.23	350.71
698.56	349.12
698.90	347.52
699.23	345.87
699.57	344.36
699.90	342.83
700.24	341.34
700.58	339.78
700.91	338.33
701.25	336.90
701.58	335.49
701.92	334.12
702.25	332.71
702.59	331.34
702.92	330.08
703.26	328.78
703.59	327.50
703.93	326.31
704.26	325.01
704.60	323.68
704.93	322.41
705.26	321.16
705.60	319.97
705.93	318.80
706.27	317.76
706.60	316.68
706.94	315.63
707.27	314.52
707.61	313.47
707.94	312.44
708.27	311.34
708.61	310.31
708.94	309.28
709.28	308.29
709.61	307.36
709.94	306.41
710.28	305.37
710.61	304.39
710.95	303.27
711.28	302.41
711.61	301.45
711.95	300.52
712.28	299.58
712.61	298.60
712.95	297.67
713.28	296.79
713.61	295.87
713.95	294.93
714.28	294.07
714.61	293.18
714.95	292.33
715.28	291.49
715.61	290.54
715.95	289.70
716.28	288.83
716.61	287.95
716.95	287.10
717.28	286.35
717.61	285.60
717.94	284.88
718.28	284.03
718.61	283.33
718.94	282.67
719.27	282.00
719.61	281.36
719.94	280.72
720.27	280.03
720.60	279.36
720.94	278.74
721.27	278.13
721.60	277.56
721.93	276.97
722.27	276.40
722.60	275.90
722.93	275.28
723.26	274.72
723.59	274.21
723.93	273.68
724.26	273.08
724.59	272.50
724.92	271.98
725.25	271.50
725.59	270.97
725.92	270.48
726.25	269.94
726.58	269.45
726.91	268.92
727.24	268.44
727.57	267.96
727.91	267.44
728.24	266.99
728.57	266.53
728.90	266.05
729.23	265.56
729.56	265.12
729.89	264.64
730.22	264.16
730.55	263.66
730.89	263.15
731.22	262.73
731.55	262.30
731.88	261.86
732.21	261.44
732.54	260.99
732.87	260.57
733.20	260.19
733.53	259.82
733.86	259.43
734.19	258.99
734.52	258.63
734.85	258.36
735.18	257.96
735.51	257.56
735.84	257.19
736.17	256.87
736.50	256.45
736.83	256.25
737.16	255.93
737.49	255.63
737.82	255.31
738.15	254.97
738.48	254.65
738.81	254.31
739.14	253.98
739.47	253.67
739.80	253.31
740.13	252.98
740.46	252.63
740.79	252.30
741.12	252.00
741.45	251.70
741.78	251.34
742.11	251.05
742.44	250.76
742.77	250.47
743.10	250.16
743.43	249.90
743.75	249.50
744.08	249.36
744.41	249.08
744.74	248.83
745.07	248.56
745.40	248.35
745.73	248.13
746.06	247.85
746.39	247.61
746.71	247.37
747.04	247.12
747.37	246.84
747.70	246.63
748.03	246.41
748.36	246.18
748.68	245.98
749.01	245.69
749.34	245.42
749.67	245.21
750.00	244.98
750.33	244.84
750.65	244.65
750.98	244.32
751.31	244.08
751.64	243.88
751.97	243.70
752.29	243.47
752.62	243.23
752.95	243.04
753.28	242.81
753.60	242.61
753.93	242.44
754.26	242.27
754.59	242.00
754.91	241.76
755.24	241.55
755.57	241.31
755.90	241.13
756.22	240.98
756.55	240.75
756.88	240.56
757.20	240.29
757.53	240.05
757.86	239.86
758.19	239.69
758.51	239.51
758.84	239.28
759.17	239.10
759.49	238.92
759.82	238.82
760.15	238.68
760.47	238.54
760.80	238.35
761.13	238.23
761.45	238.12
761.78	237.98
762.11	237.86
762.43	237.71
762.76	237.57
763.08	237.40
763.41	237.28
763.74	237.16
764.06	237.00
764.39	236.92
764.71	236.78
765.04	236.65
765.37	236.53
765.69	236.42
766.02	236.31
766.34	236.20
766.67	236.02
767.00	235.92
767.32	235.80
767.65	235.75
767.97	235.60
768.30	235.49
768.62	235.38
768.95	235.20
769.27	235.10
769.60	235.02
769.92	234.91
770.25	234.78
770.57	234.61
770.90	234.51
771.22	234.38
771.55	234.30
771.87	234.20
772.20	234.09
772.52	234.05
772.85	234.05
773.17	233.95
773.50	233.85
773.82	233.75
774.15	233.64
774.47	233.48
774.80	233.42
775.12	233.34
775.45	233.26
775.77	233.23
776.09	233.15
776.42	233.07
776.74	233.04
777.07	232.98
777.39	232.97
777.72	232.85
778.04	232.77
778.36	232.68
778.69	232.63
779.01	232.55
779.33	232.44
779.66	232.27
779.98	232.19
780.31	232.15
780.63	232.10
780.95	232.06
781.28	232.01
781.60	231.91
781.92	231.83
782.25	231.79
782.57	231.72
782.89	231.67
783.22	231.60
783.54	231.53
783.86	231.44
784.19	231.39
784.51	231.41
784.83	231.37
785.16	231.32
785.48	231.27
785.80	231.24
786.12	231.17
786.45	231.11
786.77	231.11
787.09	231.03
787.42	230.96
787.74	230.88
788.06	230.83
788.38	230.81
788.71	230.76
789.03	230.70
789.35	230.66
789.67	230.61
789.99	230.59
790.32	230.53
790.64	230.50
790.96	230.51
791.28	230.42
791.61	230.35
791.93	230.31
792.25	230.27
792.57	230.30
792.89	230.26
793.21	230.22
793.54	230.16
793.86	230.11
794.18	230.08
794.50	230.02
794.82	230.00
795.14	229.96
795.47	229.95
795.79	229.92
796.11	229.87
796.43	229.80
796.75	229.75
797.07	229.70
797.39	229.68
797.71	229.58
798.04	229.55
798.36	229.53
798.68	229.48
799.00	229.45
799.32	229.36
799.64	229.34
799.96	229.30
800.28	229.26
800.60	229.23
800.92	229.18
801.24	229.18
801.56	229.13
801.89	229.07
802.21	229.04
802.53	228.98
802.85	228.96
803.17	228.99
803.49	228.93
803.81	228.89
804.13	228.83
804.45	228.78
804.77	228.75
805.09	228.72
805.41	228.69
805.73	228.63
806.05	228.55
806.37	228.51
806.69	228.45
807.01	228.41
807.33	228.41
807.65	228.35
807.97	228.37
808.28	228.33
808.60	228.32
808.92	228.28
809.24	228.30
809.56	228.28
809.88	228.21
810.20	228.23
810.52	228.24
810.84	228.22
811.16	228.20
811.48	228.21
811.80	228.21
812.12	228.16
812.43	228.13
812.75	228.14
813.07	228.11
813.39	228.09
813.71	228.04
814.03	227.97
814.35	227.98
814.67	227.89
814.98	227.84
815.30	227.83
815.62	227.79
815.94	227.76
816.26	227.75
816.58	227.72
816.89	227.67
817.21	227.62
817.53	227.60
817.85	227.61
818.17	227.59
818.48	227.56
818.80	227.63
819.12	227.62
819.44	227.61
819.76	227.63
820.07	227.63
820.39	227.64
820.71	227.70
821.03	227.70
821.34	227.68
821.66	227.72
821.98	227.70
822.30	227.71
822.61	227.75
822.93	227.71
823.25	227.69
823.57	227.71
823.88	227.75
824.20	227.72
824.52	227.74
824.83	227.74
825.15	227.74
825.47	227.72
825.79	227.72
826.10	227.67
826.42	227.65
826.74	227.62
827.05	227.61
827.37	227.58
827.69	227.57
828.00	227.60
828.32	227.58
828.64	227.57
828.95	227.59
829.27	227.53
829.58	227.56
829.90	227.58
830.22	227.53
830.53	227.49
830.85	227.48
831.17	227.41
831.48	227.39
831.80	227.37
832.11	227.33
832.43	227.31
832.75	227.34
833.06	227.39
833.38	227.39
833.69	227.36
834.01	227.36
834.32	227.35
834.64	227.30
834.96	227.28
835.27	227.23
835.59	227.21
835.90	227.18
836.22	227.13
836.53	227.10
836.85	227.10
837.16	227.17
837.48	227.18
837.79	227.21
838.11	227.22
838.42	227.19
838.74	227.18
839.05	227.18
839.37	227.14
839.68	227.06
840.00	227.05
840.31	227.04
840.63	226.99
840.94	226.95
841.26	226.97
841.57	226.93
841.88	226.96
842.20	226.94
842.51	226.92
842.83	226.91
843.14	226.99
843.46	226.98
843.77	226.89
844.08	226.86
844.40	226.85
844.71	226.82
845.03	226.80
845.34	226.79
845.65	226.79
845.97	226.78
846.28	226.76
846.60	226.75
846.91	226.73
847.22	226.74
847.54	226.76
847.85	226.73
848.16	226.76
848.48	226.70
848.79	226.71
849.10	226.72
849.42	226.74
849.73	226.61
850.04	226.62
850.36	226.61
850.67	226.61
850.98	226.60
851.30	226.61
851.61	226.62
851.92	226.59
852.23	226.61
852.55	226.59
852.86	226.63
853.17	226.63
853.49	226.65
853.80	226.65
854.11	226.66
854.42	226.67
854.74	226.64
855.05	226.65
855.36	226.58
855.67	226.57
855.99	226.54
856.30	226.67
856.61	226.65
856.92	226.62
857.23	226.61
857.55	226.56
857.86	226.53
858.17	226.54
858.48	226.51
858.79	226.47
859.11	226.46
859.42	226.42
859.73	226.42
860.04	226.41
860.35	226.38
860.66	226.33
860.98	226.34
861.29	226.39
861.60	226.39
861.91	226.43
862.22	226.40
862.53	226.41
862.84	226.30
863.16	226.32
863.47	226.32
863.78	226.33
864.09	226.37
864.40	226.39
864.71	226.38
865.02	226.46
865.33	226.47
865.64	226.49
865.95	226.51
866.27	226.55
866.58	226.54
866.89	226.55
867.20	226.55
867.51	226.51
867.82	226.46
868.13	226.51
868.44	226.48
868.75	226.52
869.06	226.54
869.37	226.52
869.68	226.51
869.99	226.51
870.30	226.54
870.61	226.54
870.92	226.52
871.23	226.53
871.54	226.50
871.85	226.51
872.16	226.51
872.47	226.50
872.78	226.46
873.09	226.50
873.40	226.50
873.71	226.52
874.02	226.54
874.33	226.56
874.64	226.54
874.95	226.59
875.26	226.56
875.56	226.55
875.87	226.56
876.18	226.55
876.49	226.69
876.80	226.66
877.11	226.65
877.42	226.65
877.73	226.63
878.04	226.63
878.35	226.63
878.66	226.63
878.96	226.63
879.27	226.64
879.58	226.63
879.89	226.62
880.20	226.63
880.51	226.63
880.82	226.65
881.12	226.63
881.43	226.61
881.74	226.60
882.05	226.59
882.36	226.62
882.67	226.62
882.97	226.51
883.28	226.49
883.59	226.49
883.90	226.50
884.21	226.54
884.51	226.50
884.82	226.49
885.13	226.48
885.44	226.48
885.74	226.47
886.05	226.46
886.36	226.48
886.67	226.47
886.98	226.54
887.28	226.50
887.59	226.50
887.90	226.49
888.20	226.52
888.51	226.53
888.82	226.52
889.13	226.51
889.43	226.56
889.74	226.57
890.05	226.56
890.35	226.52
890.66	226.50
890.97	226.55
891.28	226.51
891.58	226.51
891.89	226.52
892.20	226.50
892.50	226.48
892.81	226.48
893.12	226.44
893.42	226.36
893.73	226.37
894.04	226.38
894.34	226.36
894.65	226.31
894.95	226.26
895.26	226.23
895.57	226.30
895.87	226.17
896.18	226.18
896.48	226.20
896.79	226.22
897.10	226.20
897.40	226.15
897.71	226.18
898.01	226.17
898.32	226.17
898.63	226.17
898.93	226.15
899.24	226.11
899.54	226.08
899.85	226.06
900.15	226.07
900.46	226.04
900.76	226.03
901.07	226.02
901.38	226.02
901.68	226.05
901.99	226.00
902.29	226.04
902.60	226.03
902.90	226.01
903.21	225.99
903.51	225.96
903.82	225.97
904.12	225.99
904.43	225.99
904.73	225.98
905.03	225.96
905.34	226.04
905.64	226.08
905.95	226.09
906.25	226.07
906.56	226.07
906.86	226.09
907.17	226.11
907.47	226.14
907.77	226.15
908.08	226.10
908.38	226.08
908.69	226.09
908.99	226.08
909.30	226.07
909.60	226.05
909.90	226.07
910.21	226.08
910.51	226.04
910.81	226.03
911.12	226.02
911.42	226.04
911.73	225.96
912.03	225.96
912.33	226.02
912.64	226.07
912.94	226.06
913.24	226.00
913.55	226.02
913.85	226.00
914.15	226.02
914.46	226.06
914.76	226.04
915.06	226.04
915.37	226.01
915.67	226.04
915.97	226.09
916.27	226.09
916.58	226.11
916.88	226.11
917.18	226.11
917.49	226.18
917.79	226.20
918.09	226.23
918.39	226.24
918.70	226.24
919.00	226.21
919.30	226.30
919.60	226.36
919.91	226.33
920.21	226.36
920.51	226.33
920.81	226.33
921.12	226.33
921.42	226.34
921.72	226.38
922.02	226.40
922.32	226.38
922.63	226.39
922.93	226.46
923.23	226.47
923.53	226.50
923.83	226.45
924.13	226.41
924.44	226.43
924.74	226.43
925.04	226.43
925.34	226.45
925.64	226.41
925.94	226.40
926.24	226.48
926.55	226.46
926.85	226.45
927.15	226.49
927.45	226.51
927.75	226.52
928.05	226.53
928.35	226.50
928.65	226.50
928.95	226.52
929.26	226.45
929.56	226.46
929.86	226.45
930.16	226.44
930.46	226.49
930.76	226.46
931.06	226.43
931.36	226.42
931.66	226.42
931.96	226.41
932.26	226.41
932.56	226.34
932.86	226.36
933.16	226.33
933.46	226.30
933.76	226.28
934.06	226.31
934.36	226.34
934.66	226.35
934.96	226.36
935.26	226.35
935.56	226.36
935.86	226.34
936.16	226.33
936.46	226.31
936.76	226.28
937.06	226.29
937.36	226.28
937.66	226.28
937.96	226.26
938.26	226.23
938.56	226.20
938.86	226.18
939.16	226.17
939.46	226.21
939.76	226.18
940.06	226.20
940.35	226.14
940.65	226.06
940.95	226.04
941.25	226.01
941.55	225.99
941.85	225.97
942.15	225.97
942.45	225.97
942.75	225.95
943.04	225.92
943.34	225.92
943.64	225.89
943.94	225.83
944.24	225.83
944.54	225.82
944.84	225.81
945.13	225.79
945.43	225.79
945.73	225.77
946.03	225.76
946.33	225.74
946.62	225.70
946.92	225.69
947.22	225.70
947.52	225.70
947.82	225.69
948.11	225.69
948.41	225.68
948.71	225.66
949.01	225.66
949.31	225.67
949.60	225.65
949.90	225.69
950.20	225.72
950.50	225.71
950.79	225.72
951.09	225.72
951.39	225.74
951.69	225.71
951.98	225.75
952.28	225.77
952.58	225.77
952.87	225.83
953.17	225.86
953.47	225.83
953.76	225.81
954.06	225.82
954.36	225.80
954.66	225.79
954.95	225.82
955.25	225.82
955.55	225.83
955.84	225.83
956.14	225.84
956.44	225.84
956.73	225.82
957.03	225.85
957.32	225.87
957.62	225.89
957.92	225.92
958.21	225.90
958.51	225.99
958.81	225.97
959.10	225.95
959.40	225.94
959.69	225.98
959.99	226.02
960.29	226.02
960.58	226.04
960.88	226.09
961.17	226.06
961.47	226.08
961.76	226.07
962.06	226.04
962.36	226.06
962.65	226.06
962.95	226.11
963.24	226.11
963.54	226.15
963.83	226.12
964.13	226.13
964.42	226.13
964.72	226.08
965.01	226.13
965.31	226.14
965.60	226.09
965.90	226.16
966.19	226.15
966.49	226.16
966.78	226.15
967.08	226.16
967.37	226.17
967.67	226.17
967.96	226.20
968.26	226.24
968.55	226.20
968.85	226.20
969.14	226.22
969.43	226.21
969.73	226.17
970.02	226.18
970.32	226.17
970.61	226.14
970.91	226.10
971.20	226.05
971.49	226.07
971.79	226.13
972.08	226.07
972.38	226.06
972.67	226.05
972.96	226.07
973.26	226.07
973.55	226.15
973.85	226.15
974.14	226.12
974.43	226.09
974.73	226.10
975.02	226.10
975.31	226.06
975.61	226.05
975.90	226.06
976.19	226.05
976.49	226.03
976.78	226.04
977.07	226.03
977.37	226.07
977.66	226.04
977.95	226.02
978.24	226.02
978.54	226.00
978.83	225.98
979.12	225.98
979.42	225.94
979.71	225.87
980.00	225.85
980.29	225.87
980.59	225.88
980.88	225.89
981.17	225.89
981.46	225.88
981.76	225.86
982.05	225.85
982.34	225.86
982.63	225.88
982.93	225.88
983.22	225.88
983.51	225.86
983.80	225.83
984.09	225.85
984.39	225.83
984.68	225.83
984.97	225.84
985.26	225.83
985.55	225.80
985.85	225.76
986.14	225.75
986.43	225.75
986.72	225.74
987.01	225.70
987.30	225.68
987.59	225.68
987.89	225.68
988.18	225.70
988.47	225.71
988.76	225.69
989.05	225.65
989.34	225.67
989.63	225.69
989.92	225.70
990.22	225.67
990.51	225.67
990.80	225.65
991.09	225.67
991.38	225.66
991.67	225.66
991.96	225.65
992.25	225.66
992.54	225.61
992.83	225.60
993.12	225.60
993.41	225.63
993.70	225.64
993.99	225.68
994.28	225.65
994.58	225.65
994.87	225.67
995.16	225.69
995.45	225.70
995.74	225.64
996.03	225.70
996.32	225.70
996.61	225.74
996.90	225.74
997.19	225.73
997.48	225.74
997.77	225.76
998.06	225.79
998.34	225.83
998.63	225.84
998.92	225.89
999.21	225.91
999.50	225.92
999.79	225.92
1000.08	225.90
1000.37	225.92
1000.66	225.89
1000.95	225.88
1001.24	225.90
1001.53	225.92
1001.82	225.97
1002.11	225.94
1002.40	225.98
1002.68	226.02
1002.97	226.09
1003.26	226.08
1003.55	226.09
1003.84	226.09
1004.13	226.12
1004.42	226.10
1004.71	226.15
1004.99	226.13
1005.28	226.15
1005.57	226.15
1005.86	226.15
1006.15	226.18
1006.44	226.17
1006.72	226.19
1007.01	226.21
1007.30	226.23
1007.59	226.23
1007.88	226.22
1008.17	226.22
1008.45	226.19
1008.74	226.13
1009.03	226.10
1009.32	226.14
1009.60	226.17
1009.89	226.18
1010.18	226.14
1010.47	226.15
1010.76	226.14
1011.04	226.15
1011.33	226.18
1011.62	226.18
1011.91	226.18
1012.19	226.16
1012.48	226.17
1012.77	226.17
1013.05	226.21
1013.34	226.21
1013.63	226.18
1013.92	226.17
1014.20	226.17
1014.49	226.16
1014.78	226.14
1015.06	226.13
1015.35	226.11
1015.64	226.09
1015.92	226.11
1016.21	226.11
1016.50	226.12
1016.78	226.09
1017.07	226.13
1017.36	226.03
1017.64	226.02
1017.93	226.02
1018.22	225.98
1018.50	225.98
1018.79	225.98
1019.08	225.93
1019.36	225.92
1019.65	225.91
1019.93	225.93
1020.22	225.94
1020.51	226.02
1020.79	226.04
1021.08	225.00
1021.36	225.92
1021.65	226.08
1021.94	225.99
1022.22	226.33
1022.51	225.45
1022.79	226.14
1023.08	226.42
1023.36	227.34
1023.65	226.07
>>>>>End Processed Spectral Data<<<<<
