SpectraSuite Data File
++++++++++++++++++++++++++++++++++++
Date: Fri Feb 01 17:01:11 EST 2013
User: group
Dark Spectrum Present: No
Reference Spectrum Present: No
Number of Sampled Component Spectra: 1
Spectrometers: USB2E7196
Integration Time (usec): 35000 (USB2E7196)
Spectra Averaged: 100 (USB2E7196)
Boxcar Smoothing: 10 (USB2E7196)
Correct for Electrical Dark: No (USB2E7196)
Strobe/Lamp Enabled: No (USB2E7196)
Correct for Detector Non-linearity: No (USB2E7196)
Correct for Stray Light: No (USB2E7196)
Number of Pixels in Processed Spectrum: 2048
>>>>>Begin Processed Spectral Data<<<<<
339.09	0.00
339.48	213.29
339.86	214.99
340.24	216.22
340.63	217.22
341.01	220.71
341.39	220.18
341.78	222.05
342.16	222.53
342.54	223.57
342.93	211.83
343.31	222.56
343.69	223.11
344.07	223.56
344.46	224.00
344.84	224.38
345.22	224.60
345.60	224.87
345.99	225.03
346.37	225.16
346.75	225.22
347.13	225.29
347.52	225.38
347.90	225.42
348.28	225.46
348.66	225.49
349.05	225.50
349.43	225.52
349.81	225.58
350.19	225.61
350.57	225.62
350.96	225.67
351.34	225.72
351.72	225.79
352.10	225.87
352.48	225.92
352.87	226.00
353.25	226.03
353.63	226.08
354.01	226.18
354.39	226.27
354.77	226.34
355.15	226.43
355.54	226.46
355.92	226.52
356.30	226.59
356.68	226.72
357.06	226.78
357.44	226.81
357.82	226.88
358.20	226.95
358.58	227.04
358.97	227.10
359.35	227.20
359.73	227.27
360.11	227.32
360.49	227.35
360.87	227.38
361.25	227.47
361.63	227.56
362.01	227.57
362.39	227.58
362.77	227.65
363.15	227.68
363.53	227.72
363.91	227.72
364.29	227.74
364.67	227.64
365.05	227.66
365.43	227.73
365.81	227.73
366.19	227.77
366.57	227.79
366.95	227.78
367.33	227.72
367.71	227.71
368.09	227.76
368.47	227.74
368.85	227.72
369.23	227.69
369.61	227.61
369.99	227.59
370.37	227.61
370.75	227.63
371.13	227.55
371.51	227.49
371.89	227.45
372.27	227.42
372.65	227.39
373.03	227.32
373.41	227.24
373.78	227.19
374.16	227.08
374.54	227.00
374.92	226.97
375.30	226.92
375.68	226.83
376.06	226.73
376.44	226.68
376.82	226.61
377.19	226.58
377.57	226.51
377.95	226.43
378.33	226.32
378.71	226.20
379.09	226.16
379.47	226.14
379.84	226.08
380.22	225.99
380.60	225.93
380.98	225.89
381.36	225.84
381.73	225.76
382.11	225.71
382.49	225.66
382.87	225.58
383.25	225.50
383.62	225.57
384.00	225.50
384.38	225.44
384.76	225.43
385.13	225.42
385.51	225.38
385.89	225.32
386.27	225.31
386.64	225.28
387.02	225.21
387.40	225.16
387.78	225.12
388.15	225.12
388.53	225.11
388.91	225.07
389.29	225.04
389.66	225.03
390.04	225.01
390.42	225.02
390.79	224.99
391.17	224.98
391.55	224.86
391.92	224.87
392.30	224.88
392.68	224.85
393.05	224.81
393.43	224.80
393.81	224.84
394.18	224.81
394.56	224.83
394.94	224.88
395.31	224.86
395.69	224.93
396.06	224.95
396.44	224.96
396.82	224.98
397.19	225.02
397.57	225.03
397.95	225.05
398.32	225.03
398.70	225.08
399.07	225.15
399.45	225.17
399.82	225.18
400.20	225.22
400.58	225.31
400.95	225.34
401.33	225.41
401.70	225.51
402.08	225.61
402.45	225.69
402.83	225.76
403.20	225.86
403.58	225.93
403.95	226.02
404.33	226.13
404.71	226.24
405.08	226.44
405.46	226.62
405.83	226.75
406.21	226.89
406.58	227.03
406.96	227.18
407.33	227.36
407.70	227.58
408.08	227.85
408.45	228.02
408.83	228.24
409.20	228.47
409.58	228.64
409.95	228.86
410.33	229.08
410.70	229.33
411.08	229.61
411.45	229.89
411.82	230.18
412.20	230.54
412.57	230.97
412.95	231.24
413.32	231.59
413.69	232.03
414.07	232.45
414.44	232.94
414.82	233.44
415.19	234.00
415.56	234.52
415.94	235.04
416.31	235.70
416.68	236.32
417.06	237.03
417.43	237.75
417.81	238.52
418.18	239.32
418.55	240.15
418.93	241.03
419.30	241.96
419.67	242.92
420.04	243.85
420.42	244.84
420.79	246.00
421.16	247.15
421.54	248.33
421.91	249.58
422.28	250.79
422.66	252.10
423.03	253.38
423.40	254.75
423.77	256.17
424.15	257.55
424.52	259.06
424.89	260.69
425.26	262.22
425.64	263.66
426.01	265.25
426.38	266.94
426.75	268.61
427.13	270.30
427.50	272.08
427.87	273.98
428.24	275.81
428.61	277.56
428.99	279.49
429.36	281.59
429.73	283.64
430.10	285.68
430.47	287.74
430.85	289.88
431.22	292.07
431.59	294.43
431.96	296.64
432.33	299.06
432.70	301.39
433.08	304.22
433.45	306.83
433.82	309.41
434.19	312.21
434.56	314.98
434.93	317.64
435.30	320.24
435.68	323.04
436.05	325.87
436.42	328.60
436.79	331.09
437.16	333.75
437.53	336.56
437.90	339.35
438.27	342.05
438.64	344.85
439.01	347.46
439.38	349.69
439.75	351.88
440.13	354.35
440.50	356.61
440.87	358.40
441.24	360.35
441.61	362.50
441.98	363.99
442.35	365.76
442.72	367.61
443.09	369.38
443.46	370.40
443.83	370.96
444.20	371.52
444.57	372.39
444.94	372.70
445.31	373.04
445.68	373.36
446.05	373.49
446.42	373.14
446.79	372.74
447.16	372.31
447.53	371.98
447.90	370.87
448.27	369.72
448.64	368.17
449.01	367.06
449.37	365.13
449.74	363.30
450.11	361.11
450.48	358.68
450.85	356.22
451.22	354.15
451.59	352.19
451.96	350.27
452.33	347.68
452.70	345.35
453.07	342.54
453.43	339.76
453.80	337.00
454.17	334.31
454.54	331.76
454.91	329.05
455.28	326.45
455.65	323.99
456.02	321.60
456.38	319.45
456.75	316.80
457.12	314.54
457.49	312.32
457.86	310.16
458.23	308.29
458.59	306.25
458.96	304.13
459.33	302.27
459.70	300.45
460.07	298.95
460.43	297.25
460.80	295.67
461.17	294.16
461.54	292.66
461.91	291.24
462.27	289.83
462.64	288.60
463.01	287.25
463.38	285.96
463.74	284.62
464.11	283.49
464.48	282.45
464.85	281.39
465.21	280.54
465.58	279.62
465.95	278.51
466.32	277.65
466.68	276.80
467.05	275.89
467.42	274.98
467.78	274.08
468.15	273.16
468.52	272.48
468.88	271.66
469.25	270.93
469.62	270.33
469.98	269.63
470.35	268.97
470.72	268.38
471.08	267.76
471.45	267.26
471.82	266.73
472.18	266.13
472.55	265.67
472.92	265.17
473.28	264.73
473.65	264.31
474.02	263.87
474.38	263.52
474.75	263.22
475.11	262.91
475.48	262.63
475.85	262.47
476.21	262.23
476.58	262.05
476.94	261.90
477.31	261.75
477.67	261.61
478.04	261.54
478.41	261.48
478.77	261.50
479.14	261.44
479.50	261.45
479.87	261.54
480.23	261.65
480.60	261.72
480.96	261.82
481.33	262.04
481.69	262.22
482.06	262.42
482.42	262.65
482.79	262.91
483.15	263.26
483.52	263.68
483.88	264.07
484.25	264.50
484.61	264.93
484.98	265.34
485.34	265.93
485.71	266.52
486.07	267.18
486.44	267.72
486.80	268.42
487.17	269.16
487.53	269.99
487.90	270.85
488.26	271.82
488.62	272.81
488.99	273.79
489.35	274.85
489.72	276.00
490.08	277.19
490.44	278.47
490.81	279.77
491.17	281.08
491.54	282.54
491.90	284.07
492.26	285.72
492.63	287.46
492.99	289.25
493.36	291.14
493.72	293.12
494.08	295.27
494.45	297.55
494.81	299.88
495.17	302.33
495.54	304.86
495.90	307.53
496.26	310.34
496.63	313.30
496.99	316.41
497.35	319.61
497.72	323.00
498.08	326.41
498.44	330.11
498.80	334.01
499.17	338.04
499.53	342.22
499.89	346.57
500.26	351.07
500.62	355.70
500.98	360.64
501.34	365.69
501.71	370.97
502.07	376.36
502.43	381.90
502.79	387.66
503.16	393.70
503.52	399.95
503.88	406.27
504.24	412.82
504.60	419.61
504.97	426.66
505.33	433.92
505.69	441.61
506.05	449.30
506.41	457.09
506.78	465.18
507.14	473.46
507.50	482.00
507.86	490.95
508.22	500.02
508.59	509.10
508.95	518.55
509.31	528.23
509.67	538.17
510.03	548.41
510.39	558.86
510.75	569.49
511.12	580.21
511.48	591.33
511.84	602.61
512.20	613.92
512.56	625.73
512.92	637.70
513.28	649.93
513.64	662.20
514.00	674.70
514.37	687.44
514.73	700.27
515.09	713.17
515.45	726.25
515.81	739.65
516.17	753.48
516.53	767.48
516.89	781.50
517.25	795.45
517.61	809.59
517.97	823.82
518.33	838.00
518.69	852.55
519.05	867.29
519.41	882.16
519.77	897.47
520.13	912.67
520.49	927.84
520.85	942.86
521.21	958.36
521.57	974.33
521.93	989.74
522.29	1005.88
522.65	1021.84
523.01	1037.78
523.37	1053.54
523.73	1069.36
524.09	1085.10
524.45	1100.99
524.81	1117.34
525.17	1133.77
525.53	1150.26
525.89	1166.70
526.25	1183.17
526.61	1199.31
526.97	1215.76
527.33	1231.92
527.68	1248.11
528.04	1264.21
528.40	1280.45
528.76	1297.04
529.12	1313.28
529.48	1329.97
529.84	1345.59
530.20	1361.82
530.56	1378.37
530.91	1395.37
531.27	1411.82
531.63	1428.01
531.99	1444.29
532.35	1459.91
532.71	1475.53
533.07	1491.50
533.42	1507.29
533.78	1523.02
534.14	1538.90
534.50	1553.99
534.86	1569.60
535.21	1584.44
535.57	1599.96
535.93	1615.17
536.29	1629.68
536.65	1644.50
537.00	1658.80
537.36	1673.84
537.72	1688.18
538.08	1702.40
538.44	1715.95
538.79	1729.51
539.15	1742.73
539.51	1756.05
539.87	1770.12
540.22	1783.59
540.58	1797.00
540.94	1809.93
541.29	1822.46
541.65	1834.79
542.01	1847.57
542.37	1859.59
542.72	1871.74
543.08	1883.34
543.44	1895.52
543.79	1906.52
544.15	1917.13
544.51	1928.56
544.87	1939.35
545.22	1949.94
545.58	1959.93
545.94	1969.51
546.29	1979.34
546.65	1989.14
547.01	1998.28
547.36	2006.73
547.72	2015.07
548.07	2022.96
548.43	2030.90
548.79	2038.79
549.14	2046.36
549.50	2053.63
549.86	2061.24
550.21	2068.51
550.57	2075.67
550.92	2082.09
551.28	2088.99
551.64	2096.06
551.99	2102.36
552.35	2108.45
552.70	2114.50
553.06	2120.41
553.41	2126.67
553.77	2132.49
554.13	2138.43
554.48	2144.59
554.84	2150.18
555.19	2155.27
555.55	2160.47
555.90	2165.01
556.26	2169.94
556.61	2174.46
556.97	2179.00
557.32	2183.07
557.68	2187.14
558.03	2191.37
558.39	2195.17
558.74	2199.90
559.10	2203.70
559.45	2207.49
559.81	2211.76
560.16	2215.64
560.52	2218.97
560.87	2222.36
561.23	2225.10
561.58	2228.09
561.94	2230.73
562.29	2233.03
562.64	2235.95
563.00	2238.35
563.35	2241.98
563.71	2245.20
564.06	2248.56
564.42	2251.38
564.77	2254.00
565.12	2256.69
565.48	2258.91
565.83	2260.92
566.19	2262.49
566.54	2263.45
566.89	2264.74
567.25	2265.57
567.60	2267.00
567.96	2268.96
568.31	2269.98
568.66	2271.33
569.02	2272.18
569.37	2272.71
569.72	2273.99
570.08	2274.24
570.43	2274.61
570.78	2274.23
571.14	2272.83
571.49	2271.72
571.84	2271.47
572.20	2270.65
572.55	2269.63
572.90	2267.97
573.26	2266.81
573.61	2265.22
573.96	2263.81
574.31	2260.97
574.67	2258.25
575.02	2254.73
575.37	2251.50
575.72	2248.11
576.08	2244.77
576.43	2241.55
576.78	2238.06
577.13	2234.85
577.49	2232.00
577.84	2228.74
578.19	2225.12
578.54	2221.87
578.90	2217.98
579.25	2212.74
579.60	2207.91
579.95	2203.13
580.30	2198.38
580.66	2193.35
581.01	2188.64
581.36	2184.02
581.71	2180.18
582.06	2175.91
582.42	2171.77
582.77	2166.76
583.12	2162.40
583.47	2158.07
583.82	2153.33
584.17	2148.29
584.53	2143.03
584.88	2137.59
585.23	2132.06
585.58	2126.85
585.93	2121.59
586.28	2116.94
586.63	2112.08
586.98	2107.26
587.34	2102.75
587.69	2098.05
588.04	2093.03
588.39	2087.43
588.74	2081.14
589.09	2075.17
589.44	2068.69
589.79	2062.83
590.14	2057.31
590.49	2050.80
590.84	2044.44
591.19	2038.59
591.54	2032.23
591.89	2025.21
592.25	2018.82
592.60	2011.73
592.95	2004.43
593.30	1997.30
593.65	1989.80
594.00	1982.99
594.35	1975.90
594.70	1968.05
595.05	1961.10
595.40	1953.93
595.75	1946.72
596.10	1940.72
596.45	1934.09
596.80	1928.02
597.15	1921.58
597.50	1914.74
597.85	1908.38
598.19	1901.84
598.54	1895.05
598.89	1888.67
599.24	1882.80
599.59	1876.24
599.94	1870.19
600.29	1863.84
600.64	1857.42
600.99	1850.22
601.34	1843.48
601.69	1836.56
602.04	1829.89
602.39	1822.73
602.74	1816.15
603.08	1809.46
603.43	1802.81
603.78	1795.72
604.13	1788.51
604.48	1781.39
604.83	1774.53
605.18	1767.87
605.53	1760.12
605.87	1752.08
606.22	1744.85
606.57	1736.93
606.92	1729.52
607.27	1722.58
607.62	1715.92
607.96	1708.85
608.31	1702.38
608.66	1694.94
609.01	1687.62
609.36	1680.10
609.70	1672.13
610.05	1664.03
610.40	1656.48
610.75	1648.21
611.10	1640.77
611.44	1632.42
611.79	1624.53
612.14	1616.11
612.49	1606.81
612.83	1598.49
613.18	1590.40
613.53	1582.43
613.88	1574.06
614.22	1565.83
614.57	1557.26
614.92	1549.25
615.27	1541.67
615.61	1533.43
615.96	1525.42
616.31	1517.80
616.65	1510.44
617.00	1502.97
617.35	1495.45
617.70	1487.29
618.04	1478.83
618.39	1470.47
618.74	1462.96
619.08	1454.59
619.43	1446.92
619.78	1440.16
620.12	1433.08
620.47	1425.81
620.82	1417.59
621.16	1410.23
621.51	1402.72
621.85	1395.16
622.20	1386.71
622.55	1378.31
622.89	1370.47
623.24	1362.82
623.59	1355.29
623.93	1347.76
624.28	1340.50
624.62	1332.93
624.97	1325.72
625.32	1319.10
625.66	1312.11
626.01	1305.00
626.35	1297.68
626.70	1289.95
627.04	1282.24
627.39	1274.44
627.73	1266.93
628.08	1260.16
628.43	1252.93
628.77	1245.64
629.12	1238.16
629.46	1231.09
629.81	1223.63
630.15	1216.40
630.50	1209.10
630.84	1201.04
631.19	1193.09
631.53	1185.62
631.88	1178.18
632.22	1170.71
632.57	1163.28
632.91	1155.78
633.26	1148.35
633.60	1140.91
633.95	1133.77
634.29	1126.77
634.64	1120.06
634.98	1112.77
635.32	1105.62
635.67	1098.94
636.01	1092.30
636.36	1085.36
636.70	1078.72
637.05	1072.30
637.39	1065.86
637.73	1059.33
638.08	1053.46
638.42	1047.55
638.77	1041.17
639.11	1034.66
639.45	1028.18
639.80	1021.63
640.14	1015.39
640.49	1008.90
640.83	1002.71
641.17	996.56
641.52	990.30
641.86	983.89
642.20	978.08
642.55	971.69
642.89	965.32
643.23	958.75
643.58	953.10
643.92	946.97
644.26	940.92
644.61	934.86
644.95	928.93
645.29	922.50
645.64	915.81
645.98	909.53
646.32	903.60
646.66	897.60
647.01	891.76
647.35	885.99
647.69	880.15
648.04	874.67
648.38	868.94
648.72	862.93
649.06	856.96
649.41	850.96
649.75	845.13
650.09	839.21
650.43	833.41
650.78	827.21
651.12	821.31
651.46	815.54
651.80	809.95
652.14	804.53
652.49	799.07
652.83	793.96
653.17	788.35
653.51	782.70
653.85	777.36
654.20	771.80
654.54	765.82
654.88	760.09
655.22	754.11
655.56	748.35
655.90	742.92
656.25	737.68
656.59	732.41
656.93	727.33
657.27	722.22
657.61	716.92
657.95	711.85
658.29	706.77
658.64	701.54
658.98	696.19
659.32	690.74
659.66	685.65
660.00	680.35
660.34	675.32
660.68	670.38
661.02	665.32
661.36	660.63
661.70	656.13
662.05	651.82
662.39	647.63
662.73	643.27
663.07	638.90
663.41	634.51
663.75	630.04
664.09	625.51
664.43	621.10
664.77	616.98
665.11	612.71
665.45	608.50
665.79	604.54
666.13	600.43
666.47	596.33
666.81	592.17
667.15	588.09
667.49	584.22
667.83	580.45
668.17	576.57
668.51	572.50
668.85	568.45
669.19	564.65
669.53	560.81
669.87	556.95
670.21	553.27
670.55	549.65
670.89	546.27
671.23	542.87
671.57	539.37
671.91	535.83
672.25	532.39
672.58	528.98
672.92	525.51
673.26	522.36
673.60	519.24
673.94	516.10
674.28	513.15
674.62	510.27
674.96	507.13
675.30	504.23
675.64	501.33
675.97	498.54
676.31	495.63
676.65	492.68
676.99	489.99
677.33	487.12
677.67	484.31
678.01	481.24
678.34	478.25
678.68	475.43
679.02	472.64
679.36	469.88
679.70	467.15
680.04	464.37
680.37	461.52
680.71	458.73
681.05	456.13
681.39	453.45
681.73	450.78
682.06	448.30
682.40	445.73
682.74	443.26
683.08	440.69
683.42	438.06
683.75	435.58
684.09	433.00
684.43	430.53
684.77	428.05
685.10	425.71
685.44	423.38
685.78	421.07
686.12	418.79
686.45	416.51
686.79	414.16
687.13	412.01
687.46	409.80
687.80	407.66
688.14	405.41
688.48	403.34
688.81	401.08
689.15	398.90
689.49	396.76
689.82	394.66
690.16	392.65
690.50	390.76
690.83	388.84
691.17	386.87
691.51	385.02
691.84	383.22
692.18	381.26
692.52	379.32
692.85	377.36
693.19	375.49
693.52	373.62
693.86	371.80
694.20	370.07
694.53	368.31
694.87	366.43
695.21	364.67
695.54	362.84
695.88	361.14
696.21	359.43
696.55	357.73
696.88	356.05
697.22	354.34
697.56	352.73
697.89	351.09
698.23	349.51
698.56	347.89
698.90	346.30
699.23	344.69
699.57	343.18
699.90	341.68
700.24	340.14
700.58	338.65
700.91	337.21
701.25	335.70
701.58	334.36
701.92	333.04
702.25	331.66
702.59	330.30
702.92	328.98
703.26	327.69
703.59	326.41
703.93	325.23
704.26	324.03
704.60	322.72
704.93	321.45
705.26	320.18
705.60	318.98
705.93	317.82
706.27	316.80
706.60	315.72
706.94	314.62
707.27	313.46
707.61	312.40
707.94	311.35
708.27	310.29
708.61	309.18
708.94	308.16
709.28	307.17
709.61	306.22
709.94	305.22
710.28	304.20
710.61	303.25
710.95	302.13
711.28	301.24
711.61	300.28
711.95	299.36
712.28	298.42
712.61	297.45
712.95	296.52
713.28	295.65
713.61	294.75
713.95	293.91
714.28	293.08
714.61	292.19
714.95	291.33
715.28	290.45
715.61	289.57
715.95	288.71
716.28	287.88
716.61	287.00
716.95	286.18
717.28	285.42
717.61	284.62
717.94	283.90
718.28	283.06
718.61	282.33
718.94	281.60
719.27	280.89
719.61	280.24
719.94	279.56
720.27	278.85
720.60	278.16
720.94	277.50
721.27	276.91
721.60	276.36
721.93	275.80
722.27	275.25
722.60	274.70
722.93	274.14
723.26	273.60
723.59	273.06
723.93	272.54
724.26	271.98
724.59	271.40
724.92	270.90
725.25	270.44
725.59	269.91
725.92	269.42
726.25	268.94
726.58	268.44
726.91	267.92
727.24	267.43
727.57	266.98
727.91	266.46
728.24	266.00
728.57	265.51
728.90	265.02
729.23	264.52
729.56	264.06
729.89	263.58
730.22	263.07
730.55	262.63
730.89	262.20
731.22	261.75
731.55	261.36
731.88	260.89
732.21	260.44
732.54	260.04
732.87	259.61
733.20	259.23
733.53	258.84
733.86	258.46
734.19	258.07
734.52	257.65
734.85	257.32
735.18	256.87
735.51	256.50
735.84	256.13
736.17	255.80
736.50	255.44
736.83	255.22
737.16	254.90
737.49	254.56
737.82	254.23
738.15	253.91
738.48	253.60
738.81	253.31
739.14	253.01
739.47	252.69
739.80	252.34
740.13	252.03
740.46	251.72
740.79	251.44
741.12	251.13
741.45	250.85
741.78	250.54
742.11	250.29
742.44	249.98
742.77	249.72
743.10	249.41
743.43	249.13
743.75	248.77
744.08	248.65
744.41	248.39
744.74	248.15
745.07	247.89
745.40	247.67
745.73	247.45
746.06	247.18
746.39	246.91
746.71	246.71
747.04	246.44
747.37	246.22
747.70	245.96
748.03	245.73
748.36	245.51
748.68	245.27
749.01	245.02
749.34	244.80
749.67	244.56
750.00	244.39
750.33	244.22
750.65	243.96
750.98	243.60
751.31	243.40
751.64	243.17
751.97	243.00
752.29	242.76
752.62	242.49
752.95	242.28
753.28	242.08
753.60	241.83
753.93	241.66
754.26	241.46
754.59	241.22
754.91	240.99
755.24	240.80
755.57	240.60
755.90	240.42
756.22	240.25
756.55	240.04
756.88	239.80
757.20	239.54
757.53	239.36
757.86	239.17
758.19	238.99
758.51	238.80
758.84	238.56
759.17	238.34
759.49	238.16
759.82	238.03
760.15	237.85
760.47	237.70
760.80	237.52
761.13	237.34
761.45	237.17
761.78	237.01
762.11	236.85
762.43	236.67
762.76	236.50
763.08	236.35
763.41	236.21
763.74	236.08
764.06	235.92
764.39	235.78
764.71	235.60
765.04	235.43
765.37	235.29
765.69	235.15
766.02	235.01
766.34	234.87
766.67	234.70
767.00	234.59
767.32	234.53
767.65	234.46
767.97	234.35
768.30	234.25
768.62	234.13
768.95	234.02
769.27	233.91
769.60	233.83
769.92	233.70
770.25	233.59
770.57	233.46
770.90	233.38
771.22	233.27
771.55	233.23
771.87	233.14
772.20	233.01
772.52	233.02
772.85	233.07
773.17	232.97
773.50	232.86
773.82	232.79
774.15	232.67
774.47	232.53
774.80	232.44
775.12	232.36
775.45	232.29
775.77	232.20
776.09	232.14
776.42	232.07
776.74	232.01
777.07	231.93
777.39	231.83
777.72	231.76
778.04	231.69
778.36	231.63
778.69	231.57
779.01	231.53
779.33	231.39
779.66	231.22
779.98	231.16
780.31	231.12
780.63	231.10
780.95	231.03
781.28	230.96
781.60	230.89
781.92	230.86
782.25	230.81
782.57	230.76
782.89	230.64
783.22	230.58
783.54	230.51
783.86	230.48
784.19	230.48
784.51	230.43
784.83	230.38
785.16	230.34
785.48	230.27
785.80	230.25
786.12	230.21
786.45	230.12
786.77	230.12
787.09	230.09
787.42	230.03
787.74	230.00
788.06	229.97
788.38	229.95
788.71	229.86
789.03	229.83
789.35	229.82
789.67	229.83
789.99	229.77
790.32	229.73
790.64	229.69
790.96	229.72
791.28	229.63
791.61	229.60
791.93	229.53
792.25	229.52
792.57	229.56
792.89	229.50
793.21	229.49
793.54	229.42
793.86	229.36
794.18	229.33
794.50	229.28
794.82	229.23
795.14	229.19
795.47	229.21
795.79	229.16
796.11	229.07
796.43	229.01
796.75	228.98
797.07	228.96
797.39	228.90
797.71	228.81
798.04	228.81
798.36	228.79
798.68	228.75
799.00	228.73
799.32	228.62
799.64	228.61
799.96	228.57
800.28	228.53
800.60	228.49
800.92	228.44
801.24	228.39
801.56	228.35
801.89	228.32
802.21	228.27
802.53	228.21
802.85	228.23
803.17	228.25
803.49	228.18
803.81	228.12
804.13	228.07
804.45	228.02
804.77	227.98
805.09	227.93
805.41	227.89
805.73	227.83
806.05	227.76
806.37	227.74
806.69	227.67
807.01	227.66
807.33	227.64
807.65	227.59
807.97	227.60
808.28	227.57
808.60	227.51
808.92	227.48
809.24	227.55
809.56	227.50
809.88	227.44
810.20	227.44
810.52	227.48
810.84	227.46
811.16	227.40
811.48	227.37
811.80	227.38
812.12	227.37
812.43	227.37
812.75	227.37
813.07	227.29
813.39	227.32
813.71	227.26
814.03	227.21
814.35	227.17
814.67	227.09
814.98	227.09
815.30	227.08
815.62	227.03
815.94	226.95
816.26	226.99
816.58	226.95
816.89	226.96
817.21	226.89
817.53	226.90
817.85	226.91
818.17	226.91
818.48	226.90
818.80	226.86
819.12	226.81
819.44	226.78
819.76	226.78
820.07	226.75
820.39	226.74
820.71	226.76
821.03	226.77
821.34	226.77
821.66	226.75
821.98	226.77
822.30	226.75
822.61	226.78
822.93	226.71
823.25	226.69
823.57	226.63
823.88	226.64
824.20	226.63
824.52	226.64
824.83	226.63
825.15	226.57
825.47	226.61
825.79	226.64
826.10	226.63
826.42	226.62
826.74	226.60
827.05	226.61
827.37	226.58
827.69	226.57
828.00	226.55
828.32	226.49
828.64	226.46
828.95	226.56
829.27	226.53
829.58	226.51
829.90	226.53
830.22	226.54
830.53	226.51
830.85	226.47
831.17	226.46
831.48	226.45
831.80	226.47
832.11	226.44
832.43	226.41
832.75	226.40
833.06	226.48
833.38	226.47
833.69	226.47
834.01	226.50
834.32	226.49
834.64	226.50
834.96	226.56
835.27	226.54
835.59	226.46
835.90	226.44
836.22	226.42
836.53	226.41
836.85	226.42
837.16	226.54
837.48	226.53
837.79	226.54
838.11	226.52
838.42	226.49
838.74	226.51
839.05	226.50
839.37	226.48
839.68	226.39
840.00	226.38
840.31	226.39
840.63	226.37
840.94	226.38
841.26	226.38
841.57	226.32
841.88	226.32
842.20	226.34
842.51	226.33
842.83	226.34
843.14	226.45
843.46	226.45
843.77	226.36
844.08	226.35
844.40	226.33
844.71	226.31
845.03	226.30
845.34	226.26
845.65	226.27
845.97	226.26
846.28	226.25
846.60	226.26
846.91	226.19
847.22	226.18
847.54	226.17
847.85	226.15
848.16	226.16
848.48	226.12
848.79	226.13
849.10	226.11
849.42	226.09
849.73	225.95
850.04	225.93
850.36	225.91
850.67	225.92
850.98	225.92
851.30	225.93
851.61	225.88
851.92	225.87
852.23	225.89
852.55	225.88
852.86	225.90
853.17	225.85
853.49	225.88
853.80	225.87
854.11	225.87
854.42	225.87
854.74	225.86
855.05	225.87
855.36	225.81
855.67	225.81
855.99	225.85
856.30	225.96
856.61	225.94
856.92	225.95
857.23	225.95
857.55	225.92
857.86	225.90
858.17	225.97
858.48	225.94
858.79	225.88
859.11	225.87
859.42	225.82
859.73	225.84
860.04	225.84
860.35	225.82
860.66	225.79
860.98	225.78
861.29	225.78
861.60	225.79
861.91	225.81
862.22	225.78
862.53	225.75
862.84	225.60
863.16	225.60
863.47	225.58
863.78	225.56
864.09	225.59
864.40	225.59
864.71	225.59
865.02	225.62
865.33	225.65
865.64	225.64
865.95	225.67
866.27	225.75
866.58	225.74
866.89	225.75
867.20	225.77
867.51	225.76
867.82	225.75
868.13	225.77
868.44	225.75
868.75	225.76
869.06	225.77
869.37	225.80
869.68	225.80
869.99	225.80
870.30	225.81
870.61	225.81
870.92	225.81
871.23	225.78
871.54	225.78
871.85	225.78
872.16	225.79
872.47	225.79
872.78	225.71
873.09	225.75
873.40	225.74
873.71	225.73
874.02	225.72
874.33	225.69
874.64	225.67
874.95	225.69
875.26	225.67
875.56	225.62
875.87	225.59
876.18	225.59
876.49	225.68
876.80	225.65
877.11	225.62
877.42	225.61
877.73	225.62
878.04	225.58
878.35	225.56
878.66	225.58
878.96	225.54
879.27	225.52
879.58	225.48
879.89	225.47
880.20	225.48
880.51	225.47
880.82	225.51
881.12	225.54
881.43	225.49
881.74	225.50
882.05	225.51
882.36	225.51
882.67	225.51
882.97	225.39
883.28	225.40
883.59	225.40
883.90	225.42
884.21	225.42
884.51	225.45
884.82	225.44
885.13	225.42
885.44	225.44
885.74	225.46
886.05	225.42
886.36	225.42
886.67	225.38
886.98	225.44
887.28	225.44
887.59	225.41
887.90	225.45
888.20	225.44
888.51	225.46
888.82	225.46
889.13	225.44
889.43	225.52
889.74	225.51
890.05	225.48
890.35	225.43
890.66	225.39
890.97	225.36
891.28	225.33
891.58	225.30
891.89	225.32
892.20	225.30
892.50	225.28
892.81	225.27
893.12	225.27
893.42	225.23
893.73	225.17
894.04	225.16
894.34	225.14
894.65	225.14
894.95	225.11
895.26	225.10
895.57	225.17
895.87	225.05
896.18	225.06
896.48	225.09
896.79	225.12
897.10	225.14
897.40	225.16
897.71	225.22
898.01	225.23
898.32	225.22
898.63	225.19
898.93	225.23
899.24	225.25
899.54	225.23
899.85	225.23
900.15	225.29
900.46	225.31
900.76	225.30
901.07	225.29
901.38	225.29
901.68	225.35
901.99	225.32
902.29	225.35
902.60	225.33
902.90	225.33
903.21	225.32
903.51	225.32
903.82	225.34
904.12	225.33
904.43	225.35
904.73	225.34
905.03	225.37
905.34	225.46
905.64	225.43
905.95	225.46
906.25	225.47
906.56	225.46
906.86	225.46
907.17	225.47
907.47	225.49
907.77	225.49
908.08	225.46
908.38	225.44
908.69	225.45
908.99	225.51
909.30	225.49
909.60	225.51
909.90	225.51
910.21	225.50
910.51	225.48
910.81	225.49
911.12	225.51
911.42	225.52
911.73	225.42
912.03	225.49
912.33	225.49
912.64	225.48
912.94	225.48
913.24	225.45
913.55	225.47
913.85	225.49
914.15	225.53
914.46	225.53
914.76	225.54
915.06	225.55
915.37	225.50
915.67	225.53
915.97	225.53
916.27	225.53
916.58	225.53
916.88	225.51
917.18	225.51
917.49	225.54
917.79	225.54
918.09	225.57
918.39	225.57
918.70	225.58
919.00	225.57
919.30	225.61
919.60	225.58
919.91	225.53
920.21	225.48
920.51	225.46
920.81	225.44
921.12	225.44
921.42	225.45
921.72	225.46
922.02	225.43
922.32	225.46
922.63	225.48
922.93	225.51
923.23	225.52
923.53	225.49
923.83	225.45
924.13	225.45
924.44	225.44
924.74	225.42
925.04	225.45
925.34	225.43
925.64	225.38
925.94	225.40
926.24	225.48
926.55	225.49
926.85	225.46
927.15	225.48
927.45	225.47
927.75	225.43
928.05	225.41
928.35	225.41
928.65	225.38
928.95	225.35
929.26	225.29
929.56	225.31
929.86	225.32
930.16	225.31
930.46	225.27
930.76	225.26
931.06	225.21
931.36	225.18
931.66	225.20
931.96	225.19
932.26	225.19
932.56	225.11
932.86	225.12
933.16	225.11
933.46	225.09
933.76	225.06
934.06	225.07
934.36	225.07
934.66	225.06
934.96	225.05
935.26	225.05
935.56	225.08
935.86	225.02
936.16	225.03
936.46	225.00
936.76	225.01
937.06	224.99
937.36	225.00
937.66	224.99
937.96	224.96
938.26	224.98
938.56	224.95
938.86	224.97
939.16	224.97
939.46	224.99
939.76	225.00
940.06	225.02
940.35	225.00
940.65	225.00
940.95	225.03
941.25	225.00
941.55	224.99
941.85	224.98
942.15	225.04
942.45	225.03
942.75	225.06
943.04	225.08
943.34	225.10
943.64	225.07
943.94	225.06
944.24	225.08
944.54	225.06
944.84	225.09
945.13	225.08
945.43	225.07
945.73	225.11
946.03	225.09
946.33	225.09
946.62	225.12
946.92	225.15
947.22	225.12
947.52	225.18
947.82	225.20
948.11	225.19
948.41	225.16
948.71	225.17
949.01	225.15
949.31	225.15
949.60	225.17
949.90	225.24
950.20	225.23
950.50	225.24
950.79	225.23
951.09	225.28
951.39	225.30
951.69	225.31
951.98	225.31
952.28	225.34
952.58	225.34
952.87	225.34
953.17	225.35
953.47	225.38
953.76	225.36
954.06	225.36
954.36	225.36
954.66	225.41
954.95	225.44
955.25	225.43
955.55	225.45
955.84	225.45
956.14	225.45
956.44	225.48
956.73	225.44
957.03	225.46
957.32	225.44
957.62	225.42
957.92	225.45
958.21	225.43
958.51	225.52
958.81	225.52
959.10	225.53
959.40	225.52
959.69	225.52
959.99	225.53
960.29	225.51
960.58	225.51
960.88	225.52
961.17	225.50
961.47	225.55
961.76	225.53
962.06	225.53
962.36	225.50
962.65	225.49
962.95	225.47
963.24	225.48
963.54	225.48
963.83	225.49
964.13	225.48
964.42	225.42
964.72	225.39
965.01	225.39
965.31	225.37
965.60	225.34
965.90	225.39
966.19	225.35
966.49	225.35
966.78	225.32
967.08	225.30
967.37	225.30
967.67	225.25
967.96	225.24
968.26	225.23
968.55	225.24
968.85	225.24
969.14	225.24
969.43	225.21
969.73	225.22
970.02	225.19
970.32	225.16
970.61	225.17
970.91	225.10
971.20	225.07
971.49	225.06
971.79	225.07
972.08	225.01
972.38	225.03
972.67	225.02
972.96	225.03
973.26	225.00
973.55	225.02
973.85	225.03
974.14	225.04
974.43	225.03
974.73	225.02
975.02	225.00
975.31	225.03
975.61	225.04
975.90	225.01
976.19	225.00
976.49	225.02
976.78	225.02
977.07	225.02
977.37	225.04
977.66	225.04
977.95	225.03
978.24	225.01
978.54	225.04
978.83	225.04
979.12	225.06
979.42	225.05
979.71	225.03
980.00	225.06
980.29	225.04
980.59	225.02
980.88	225.09
981.17	225.13
981.46	225.11
981.76	225.13
982.05	225.15
982.34	225.15
982.63	225.15
982.93	225.18
983.22	225.20
983.51	225.19
983.80	225.21
984.09	225.20
984.39	225.21
984.68	225.21
984.97	225.22
985.26	225.19
985.55	225.21
985.85	225.17
986.14	225.14
986.43	225.15
986.72	225.15
987.01	225.08
987.30	225.04
987.59	225.03
987.89	225.03
988.18	225.01
988.47	225.00
988.76	225.00
989.05	224.98
989.34	224.98
989.63	225.06
989.92	225.01
990.22	225.01
990.51	225.02
990.80	224.98
991.09	224.98
991.38	225.02
991.67	225.02
991.96	225.01
992.25	225.00
992.54	224.99
992.83	224.99
993.12	224.98
993.41	225.00
993.70	225.04
993.99	225.04
994.28	225.04
994.58	225.05
994.87	225.04
995.16	225.06
995.45	225.03
995.74	224.95
996.03	224.99
996.32	225.03
996.61	225.04
996.90	225.04
997.19	225.02
997.48	225.01
997.77	224.99
998.06	225.00
998.34	225.00
998.63	225.01
998.92	225.02
999.21	225.02
999.50	225.01
999.79	224.97
1000.08	224.98
1000.37	224.99
1000.66	225.00
1000.95	225.00
1001.24	225.00
1001.53	225.01
1001.82	225.01
1002.11	224.99
1002.40	224.95
1002.68	224.98
1002.97	225.03
1003.26	225.02
1003.55	225.00
1003.84	225.04
1004.13	225.09
1004.42	225.10
1004.71	225.08
1004.99	225.09
1005.28	225.14
1005.57	225.13
1005.86	225.15
1006.15	225.13
1006.44	225.11
1006.72	225.11
1007.01	225.12
1007.30	225.09
1007.59	225.08
1007.88	225.06
1008.17	225.05
1008.45	225.04
1008.74	224.97
1009.03	224.92
1009.32	224.94
1009.60	224.93
1009.89	224.90
1010.18	224.86
1010.47	224.85
1010.76	224.85
1011.04	224.80
1011.33	224.84
1011.62	224.84
1011.91	224.83
1012.19	224.84
1012.48	224.81
1012.77	224.82
1013.05	224.85
1013.34	224.85
1013.63	224.84
1013.92	224.83
1014.20	224.84
1014.49	224.88
1014.78	224.89
1015.06	224.85
1015.35	224.85
1015.64	224.85
1015.92	224.86
1016.21	224.86
1016.50	224.87
1016.78	224.88
1017.07	224.91
1017.36	224.86
1017.64	224.88
1017.93	224.89
1018.22	224.88
1018.50	224.88
1018.79	224.90
1019.08	224.89
1019.36	224.89
1019.65	224.91
1019.93	225.00
1020.22	225.04
1020.51	225.03
1020.79	225.04
1021.08	224.80
1021.36	224.12
1021.65	225.61
1021.94	225.53
1022.22	224.88
1022.51	225.03
1022.79	225.88
1023.08	225.46
1023.36	225.59
1023.65	224.87
>>>>>End Processed Spectral Data<<<<<
