SpectraSuite Data File
++++++++++++++++++++++++++++++++++++
Date: Fri Feb 01 17:25:02 EST 2013
User: group
Dark Spectrum Present: No
Reference Spectrum Present: No
Number of Sampled Component Spectra: 1
Spectrometers: USB2E7196
Integration Time (usec): 35000 (USB2E7196)
Spectra Averaged: 100 (USB2E7196)
Boxcar Smoothing: 10 (USB2E7196)
Correct for Electrical Dark: No (USB2E7196)
Strobe/Lamp Enabled: No (USB2E7196)
Correct for Detector Non-linearity: No (USB2E7196)
Correct for Stray Light: No (USB2E7196)
Number of Pixels in Processed Spectrum: 2048
>>>>>Begin Processed Spectral Data<<<<<
339.09	0.00
339.48	212.65
339.86	213.94
340.24	216.37
340.63	217.53
341.01	219.90
341.39	220.04
341.78	221.10
342.16	222.47
342.54	223.18
342.93	211.39
343.31	222.08
343.69	222.62
344.07	223.07
344.46	223.45
344.84	223.79
345.22	224.01
345.60	224.24
345.99	224.41
346.37	224.52
346.75	224.59
347.13	224.66
347.52	224.71
347.90	224.76
348.28	224.79
348.66	224.84
349.05	224.84
349.43	224.87
349.81	224.90
350.19	224.91
350.57	224.95
350.96	225.00
351.34	225.05
351.72	225.12
352.10	225.27
352.48	225.36
352.87	225.43
353.25	225.51
353.63	225.55
354.01	225.63
354.39	225.68
354.77	225.76
355.15	225.87
355.54	225.91
355.92	225.95
356.30	226.02
356.68	226.16
357.06	226.24
357.44	226.29
357.82	226.34
358.20	226.43
358.58	226.46
358.97	226.52
359.35	226.61
359.73	226.70
360.11	226.73
360.49	226.75
360.87	226.78
361.25	226.85
361.63	226.96
362.01	227.00
362.39	227.04
362.77	227.11
363.15	227.13
363.53	227.19
363.91	227.23
364.29	227.23
364.67	227.12
365.05	227.12
365.43	227.15
365.81	227.20
366.19	227.27
366.57	227.37
366.95	227.38
367.33	227.35
367.71	227.33
368.09	227.35
368.47	227.37
368.85	227.37
369.23	227.38
369.61	227.34
369.99	227.34
370.37	227.36
370.75	227.35
371.13	227.30
371.51	227.23
371.89	227.20
372.27	227.18
372.65	227.18
373.03	227.15
373.41	227.11
373.78	227.06
374.16	226.95
374.54	226.85
374.92	226.78
375.30	226.74
375.68	226.70
376.06	226.64
376.44	226.56
376.82	226.54
377.19	226.49
377.57	226.41
377.95	226.33
378.33	226.23
378.71	226.12
379.09	226.08
379.47	226.06
379.84	225.99
380.22	225.95
380.60	225.88
380.98	225.82
381.36	225.77
381.73	225.71
382.11	225.65
382.49	225.60
382.87	225.56
383.25	225.54
383.62	225.59
384.00	225.52
384.38	225.47
384.76	225.44
385.13	225.39
385.51	225.31
385.89	225.25
386.27	225.22
386.64	225.21
387.02	225.14
387.40	225.09
387.78	225.07
388.15	225.02
388.53	225.00
388.91	224.96
389.29	224.92
389.66	224.87
390.04	224.83
390.42	224.83
390.79	224.82
391.17	224.76
391.55	224.63
391.92	224.62
392.30	224.62
392.68	224.56
393.05	224.54
393.43	224.55
393.81	224.55
394.18	224.55
394.56	224.55
394.94	224.59
395.31	224.58
395.69	224.63
396.06	224.65
396.44	224.67
396.82	224.68
397.19	224.73
397.57	224.77
397.95	224.82
398.32	224.81
398.70	224.85
399.07	224.94
399.45	224.97
399.82	225.01
400.20	225.06
400.58	225.13
400.95	225.18
401.33	225.29
401.70	225.47
402.08	225.56
402.45	225.63
402.83	225.74
403.20	225.83
403.58	225.90
403.95	226.01
404.33	226.11
404.71	226.22
405.08	226.37
405.46	226.49
405.83	226.63
406.21	226.76
406.58	226.88
406.96	226.99
407.33	227.17
407.70	227.36
408.08	227.60
408.45	227.82
408.83	228.06
409.20	228.26
409.58	228.39
409.95	228.63
410.33	228.93
410.70	229.18
411.08	229.48
411.45	229.79
411.82	230.13
412.20	230.53
412.57	230.95
412.95	231.28
413.32	231.70
413.69	232.12
414.07	232.58
414.44	233.09
414.82	233.63
415.19	234.22
415.56	234.80
415.94	235.37
416.31	236.02
416.68	236.67
417.06	237.42
417.43	238.12
417.81	238.90
418.18	239.67
418.55	240.54
418.93	241.45
419.30	242.43
419.67	243.36
420.04	244.34
420.42	245.39
420.79	246.63
421.16	247.85
421.54	249.11
421.91	250.37
422.28	251.65
422.66	253.03
423.03	254.35
423.40	255.74
423.77	257.20
424.15	258.67
424.52	260.22
424.89	261.87
425.26	263.50
425.64	265.02
426.01	266.70
426.38	268.41
426.75	270.15
427.13	271.93
427.50	273.84
427.87	275.78
428.24	277.72
428.61	279.53
428.99	281.55
429.36	283.67
429.73	285.89
430.10	288.02
430.47	290.17
430.85	292.39
431.22	294.70
431.59	297.19
431.96	299.55
432.33	302.08
432.70	304.58
433.08	307.51
433.45	310.25
433.82	312.94
434.19	315.96
434.56	318.87
434.93	321.58
435.30	324.29
435.68	327.29
436.05	330.25
436.42	333.11
436.79	335.69
437.16	338.50
437.53	341.39
437.90	344.30
438.27	347.13
438.64	350.04
439.01	352.73
439.38	355.08
439.75	357.31
440.13	359.93
440.50	362.37
440.87	364.25
441.24	366.32
441.61	368.52
441.98	370.10
442.35	371.99
442.72	373.95
443.09	375.84
443.46	376.87
443.83	377.46
444.20	378.03
444.57	378.93
444.94	379.31
445.31	379.72
445.68	380.11
446.05	380.21
446.42	379.85
446.79	379.46
447.16	379.00
447.53	378.70
447.90	377.52
448.27	376.29
448.64	374.69
449.01	373.47
449.37	371.50
449.74	369.50
450.11	367.20
450.48	364.70
450.85	362.08
451.22	359.92
451.59	357.84
451.96	355.86
452.33	353.16
452.70	350.70
453.07	347.75
453.43	344.74
453.80	341.93
454.17	339.12
454.54	336.48
454.91	333.63
455.28	330.83
455.65	328.26
456.02	325.74
456.38	323.52
456.75	320.77
457.12	318.43
457.49	316.14
457.86	313.89
458.23	311.89
458.59	309.75
458.96	307.57
459.33	305.66
459.70	303.69
460.07	302.13
460.43	300.32
460.80	298.65
461.17	297.16
461.54	295.57
461.91	294.11
462.27	292.58
462.64	291.32
463.01	289.89
463.38	288.54
463.74	287.15
464.11	285.91
464.48	284.86
464.85	283.68
465.21	282.79
465.58	281.82
465.95	280.70
466.32	279.77
466.68	278.83
467.05	277.87
467.42	276.97
467.78	275.98
468.15	275.10
468.52	274.40
468.88	273.50
469.25	272.67
469.62	272.01
469.98	271.36
470.35	270.68
470.72	270.11
471.08	269.44
471.45	268.88
471.82	268.37
472.18	267.74
472.55	267.29
472.92	266.71
473.28	266.24
473.65	265.79
474.02	265.33
474.38	264.93
474.75	264.61
475.11	264.25
475.48	264.03
475.85	263.80
476.21	263.56
476.58	263.40
476.94	263.28
477.31	263.14
477.67	262.93
478.04	262.84
478.41	262.82
478.77	262.88
479.14	262.79
479.50	262.80
479.87	262.86
480.23	262.98
480.60	263.09
480.96	263.17
481.33	263.40
481.69	263.59
482.06	263.75
482.42	263.94
482.79	264.22
483.15	264.51
483.52	264.84
483.88	265.21
484.25	265.57
484.61	265.98
484.98	266.41
485.34	266.99
485.71	267.59
486.07	268.15
486.44	268.73
486.80	269.44
487.17	270.15
487.53	271.00
487.90	271.87
488.26	272.79
488.62	273.78
488.99	274.75
489.35	275.84
489.72	277.02
490.08	278.25
490.44	279.48
490.81	280.82
491.17	282.20
491.54	283.64
491.90	285.13
492.26	286.78
492.63	288.49
492.99	290.23
493.36	292.06
493.72	294.06
494.08	296.15
494.45	298.31
494.81	300.63
495.17	303.02
495.54	305.52
495.90	308.19
496.26	310.91
496.63	313.84
496.99	316.89
497.35	320.10
497.72	323.44
498.08	326.92
498.44	330.54
498.80	334.42
499.17	338.40
499.53	342.55
499.89	346.86
500.26	351.32
500.62	355.99
500.98	360.85
501.34	365.93
501.71	371.18
502.07	376.60
502.43	382.15
502.79	387.87
503.16	393.85
503.52	400.03
503.88	406.38
504.24	412.90
504.60	419.67
504.97	426.71
505.33	433.90
505.69	441.48
506.05	449.21
506.41	456.97
506.78	464.99
507.14	473.33
507.50	481.94
507.86	490.80
508.22	499.88
508.59	509.00
508.95	518.39
509.31	528.03
509.67	537.97
510.03	548.06
510.39	558.45
510.75	569.07
511.12	579.73
511.48	590.79
511.84	602.05
512.20	613.31
512.56	624.97
512.92	636.89
513.28	649.05
513.64	661.17
514.00	673.59
514.37	686.33
514.73	699.10
515.09	711.87
515.45	724.89
515.81	738.09
516.17	751.69
516.53	765.47
516.89	779.29
517.25	793.03
517.61	807.14
517.97	821.29
518.33	835.39
518.69	849.88
519.05	864.51
519.41	879.28
519.77	894.43
520.13	909.48
520.49	924.45
520.85	939.38
521.21	954.70
521.57	970.55
521.93	985.86
522.29	1001.76
522.65	1017.54
523.01	1033.27
523.37	1048.90
523.73	1064.60
524.09	1080.32
524.45	1096.17
524.81	1112.51
525.17	1128.87
525.53	1145.21
525.89	1161.58
526.25	1177.97
526.61	1193.93
526.97	1210.28
527.33	1226.41
527.68	1242.60
528.04	1258.71
528.40	1274.78
528.76	1291.42
529.12	1307.60
529.48	1324.11
529.84	1339.69
530.20	1355.93
530.56	1372.45
530.91	1389.50
531.27	1405.87
531.63	1422.00
531.99	1438.28
532.35	1453.87
532.71	1469.46
533.07	1485.46
533.42	1501.07
533.78	1516.74
534.14	1532.71
534.50	1547.70
534.86	1563.19
535.21	1578.13
535.57	1593.69
535.93	1609.01
536.29	1623.46
536.65	1638.16
537.00	1652.50
537.36	1667.56
537.72	1681.71
538.08	1695.99
538.44	1709.39
538.79	1723.07
539.15	1736.29
539.51	1749.76
539.87	1763.91
540.22	1777.31
540.58	1790.69
540.94	1803.75
541.29	1816.30
541.65	1828.70
542.01	1841.74
542.37	1853.92
542.72	1866.08
543.08	1877.87
543.44	1890.05
543.79	1901.29
544.15	1912.23
544.51	1923.80
544.87	1934.76
545.22	1945.76
545.58	1956.12
545.94	1966.04
546.29	1976.11
546.65	1986.24
547.01	1995.71
547.36	2004.43
547.72	2013.06
548.07	2021.45
548.43	2029.60
548.79	2037.70
549.14	2045.57
549.50	2052.97
549.86	2060.76
550.21	2068.41
550.57	2075.77
550.92	2082.64
551.28	2089.97
551.64	2097.21
551.99	2103.92
552.35	2110.29
552.70	2116.66
553.06	2122.84
553.41	2129.33
553.77	2135.46
554.13	2141.64
554.48	2147.94
554.84	2153.83
555.19	2159.35
555.55	2164.62
555.90	2169.64
556.26	2175.13
556.61	2179.99
556.97	2184.96
557.32	2189.49
557.68	2193.95
558.03	2198.50
558.39	2202.43
558.74	2207.29
559.10	2211.69
559.45	2215.67
559.81	2220.22
560.16	2224.23
560.52	2227.71
560.87	2231.61
561.23	2234.55
561.58	2237.77
561.94	2240.57
562.29	2243.12
562.64	2246.40
563.00	2249.12
563.35	2252.80
563.71	2256.17
564.06	2259.64
564.42	2262.68
564.77	2265.68
565.12	2268.46
565.48	2270.92
565.83	2273.29
566.19	2275.18
566.54	2276.32
566.89	2277.98
567.25	2279.20
567.60	2280.86
567.96	2282.98
568.31	2283.97
568.66	2285.65
569.02	2286.79
569.37	2287.59
569.72	2289.05
570.08	2289.45
570.43	2289.97
570.78	2289.98
571.14	2288.95
571.49	2288.07
571.84	2288.02
572.20	2287.19
572.55	2286.49
572.90	2285.01
573.26	2283.95
573.61	2282.29
573.96	2281.05
574.31	2278.44
574.67	2275.71
575.02	2272.36
575.37	2269.30
575.72	2266.21
576.08	2263.05
576.43	2259.92
576.78	2256.77
577.13	2253.66
577.49	2250.73
577.84	2247.68
578.19	2244.08
578.54	2240.85
578.90	2237.17
579.25	2232.03
579.60	2227.55
579.95	2222.78
580.30	2218.12
580.66	2213.28
581.01	2208.75
581.36	2203.93
581.71	2200.13
582.06	2196.00
582.42	2192.11
582.77	2187.31
583.12	2182.97
583.47	2178.70
583.82	2174.16
584.17	2169.12
584.53	2163.98
584.88	2158.80
585.23	2153.36
585.58	2148.16
585.93	2142.87
586.28	2138.17
586.63	2133.38
586.98	2128.48
587.34	2123.97
587.69	2119.26
588.04	2114.41
588.39	2109.04
588.74	2102.96
589.09	2096.93
589.44	2090.47
589.79	2084.46
590.14	2078.91
590.49	2072.60
590.84	2066.26
591.19	2060.39
591.54	2054.14
591.89	2047.08
592.25	2040.61
592.60	2033.59
592.95	2026.41
593.30	2019.31
593.65	2011.84
594.00	2004.92
594.35	1997.73
594.70	1989.72
595.05	1983.02
595.40	1975.80
595.75	1968.30
596.10	1962.33
596.45	1955.88
596.80	1949.91
597.15	1943.61
597.50	1936.86
597.85	1930.38
598.19	1923.97
598.54	1917.09
598.89	1910.52
599.24	1904.74
599.59	1898.17
599.94	1891.92
600.29	1885.70
600.64	1879.10
600.99	1871.99
601.34	1865.37
601.69	1858.51
602.04	1851.97
602.39	1844.55
602.74	1837.83
603.08	1831.34
603.43	1824.44
603.78	1817.12
604.13	1809.83
604.48	1802.55
604.83	1795.59
605.18	1788.88
605.53	1780.98
605.87	1772.99
606.22	1765.74
606.57	1757.74
606.92	1750.25
607.27	1743.33
607.62	1736.30
607.96	1729.13
608.31	1722.66
608.66	1715.00
609.01	1707.62
609.36	1700.10
609.70	1692.07
610.05	1684.02
610.40	1676.25
610.75	1668.05
611.10	1660.36
611.44	1651.90
611.79	1643.81
612.14	1635.21
612.49	1625.88
612.83	1617.39
613.18	1609.14
613.53	1601.03
613.88	1592.45
614.22	1584.08
614.57	1575.13
614.92	1567.04
615.27	1559.52
615.61	1551.04
615.96	1542.88
616.31	1534.96
616.65	1527.30
617.00	1519.65
617.35	1511.81
617.70	1503.55
618.04	1495.08
618.39	1486.64
618.74	1479.06
619.08	1470.66
619.43	1462.97
619.78	1455.99
620.12	1448.81
620.47	1441.26
620.82	1432.90
621.16	1425.32
621.51	1417.55
621.85	1409.94
622.20	1401.39
622.55	1392.83
622.89	1384.77
623.24	1377.04
623.59	1369.58
623.93	1362.09
624.28	1354.77
624.62	1347.29
624.97	1339.98
625.32	1332.94
625.66	1325.83
626.01	1318.48
626.35	1311.15
626.70	1303.23
627.04	1295.50
627.39	1287.57
627.73	1280.06
628.08	1273.13
628.43	1265.88
628.77	1258.60
629.12	1251.00
629.46	1243.74
629.81	1236.06
630.15	1228.75
630.50	1221.29
630.84	1213.13
631.19	1205.06
631.53	1197.36
631.88	1189.61
632.22	1181.90
632.57	1174.45
632.91	1166.88
633.26	1159.48
633.60	1151.89
633.95	1144.65
634.29	1137.36
634.64	1130.57
634.98	1123.09
635.32	1115.96
635.67	1109.24
636.01	1102.47
636.36	1095.69
636.70	1088.98
637.05	1082.40
637.39	1075.92
637.73	1069.37
638.08	1063.39
638.42	1057.31
638.77	1050.88
639.11	1044.39
639.45	1037.99
639.80	1031.41
640.14	1024.98
640.49	1018.39
640.83	1012.04
641.17	1005.81
641.52	999.50
641.86	992.99
642.20	987.17
642.55	980.54
642.89	974.03
643.23	967.39
643.58	961.55
643.92	955.45
644.26	949.51
644.61	943.40
644.95	937.35
645.29	930.70
645.64	923.97
645.98	917.60
646.32	911.54
646.66	905.47
647.01	899.58
647.35	893.91
647.69	887.93
648.04	882.31
648.38	876.52
648.72	870.51
649.06	864.50
649.41	858.52
649.75	852.66
650.09	846.65
650.43	840.91
650.78	834.75
651.12	828.69
651.46	822.80
651.80	817.15
652.14	811.75
652.49	806.41
652.83	801.22
653.17	795.61
653.51	789.96
653.85	784.40
654.20	778.80
654.54	772.73
654.88	767.01
655.22	761.10
655.56	755.29
655.90	749.73
656.25	744.48
656.59	739.11
656.93	734.03
657.27	728.93
657.61	723.42
657.95	718.24
658.29	713.23
658.64	707.99
658.98	702.52
659.32	696.98
659.66	691.75
660.00	686.41
660.34	681.44
660.68	676.49
661.02	671.51
661.36	666.78
661.70	662.28
662.05	657.91
662.39	653.57
662.73	649.11
663.07	644.76
663.41	640.21
663.75	635.73
664.09	631.12
664.43	626.65
664.77	622.54
665.11	618.27
665.45	614.03
665.79	609.98
666.13	605.80
666.47	601.64
666.81	597.43
667.15	593.21
667.49	589.22
667.83	585.31
668.17	581.34
668.51	577.25
668.85	573.16
669.19	569.21
669.53	565.44
669.87	561.59
670.21	557.87
670.55	554.24
670.89	550.76
671.23	547.25
671.57	543.78
671.91	540.28
672.25	536.69
672.58	533.19
672.92	529.73
673.26	526.59
673.60	523.47
673.94	520.38
674.28	517.51
674.62	514.57
674.96	511.47
675.30	508.57
675.64	505.64
675.97	502.86
676.31	500.06
676.65	497.05
676.99	494.36
677.33	491.42
677.67	488.55
678.01	485.51
678.34	482.55
678.68	479.60
679.02	476.76
679.36	473.99
679.70	471.23
680.04	468.47
680.37	465.54
680.71	462.71
681.05	460.02
681.39	457.24
681.73	454.51
682.06	451.94
682.40	449.36
682.74	446.75
683.08	444.13
683.42	441.49
683.75	439.01
684.09	436.34
684.43	433.93
684.77	431.49
685.10	429.10
685.44	426.76
685.78	424.45
686.12	422.15
686.45	419.88
686.79	417.57
687.13	415.31
687.46	413.14
687.80	410.98
688.14	408.73
688.48	406.67
688.81	404.47
689.15	402.29
689.49	400.07
689.82	397.98
690.16	395.88
690.50	393.92
690.83	391.95
691.17	389.97
691.51	388.01
691.84	386.14
692.18	384.20
692.52	382.20
692.85	380.27
693.19	378.36
693.52	376.48
693.86	374.62
694.20	372.82
694.53	371.02
694.87	369.16
695.21	367.34
695.54	365.43
695.88	363.64
696.21	361.91
696.55	360.24
696.88	358.54
697.22	356.86
697.56	355.14
697.89	353.41
698.23	351.78
698.56	350.10
698.90	348.48
699.23	346.82
699.57	345.28
699.90	343.66
700.24	342.06
700.58	340.55
700.91	339.07
701.25	337.59
701.58	336.18
701.92	334.76
702.25	333.35
702.59	332.02
702.92	330.68
703.26	329.34
703.59	328.01
703.93	326.82
704.26	325.54
704.60	324.23
704.93	322.95
705.26	321.68
705.60	320.48
705.93	319.27
706.27	318.20
706.60	317.11
706.94	316.02
707.27	314.86
707.61	313.72
707.94	312.61
708.27	311.47
708.61	310.37
708.94	309.33
709.28	308.37
709.61	307.38
709.94	306.39
710.28	305.37
710.61	304.39
710.95	303.25
711.28	302.32
711.61	301.38
711.95	300.47
712.28	299.50
712.61	298.50
712.95	297.52
713.28	296.57
713.61	295.64
713.95	294.76
714.28	293.95
714.61	293.08
714.95	292.24
715.28	291.41
715.61	290.50
715.95	289.60
716.28	288.71
716.61	287.83
716.95	286.97
717.28	286.20
717.61	285.46
717.94	284.71
718.28	283.87
718.61	283.07
718.94	282.34
719.27	281.70
719.61	281.06
719.94	280.43
720.27	279.76
720.60	279.08
720.94	278.41
721.27	277.76
721.60	277.20
721.93	276.61
722.27	276.05
722.60	275.48
722.93	274.93
723.26	274.38
723.59	273.86
723.93	273.31
724.26	272.74
724.59	272.11
724.92	271.56
725.25	271.03
725.59	270.54
725.92	270.05
726.25	269.47
726.58	268.92
726.91	268.40
727.24	267.92
727.57	267.46
727.91	266.94
728.24	266.47
728.57	265.99
728.90	265.52
729.23	264.99
729.56	264.58
729.89	264.11
730.22	263.65
730.55	263.16
730.89	262.72
731.22	262.28
731.55	261.82
731.88	261.40
732.21	260.99
732.54	260.57
732.87	260.10
733.20	259.72
733.53	259.39
733.86	258.98
734.19	258.56
734.52	258.18
734.85	257.87
735.18	257.43
735.51	257.06
735.84	256.69
736.17	256.37
736.50	255.93
736.83	255.68
737.16	255.34
737.49	255.01
737.82	254.66
738.15	254.34
738.48	254.00
738.81	253.67
739.14	253.35
739.47	252.99
739.80	252.67
740.13	252.36
740.46	252.00
740.79	251.71
741.12	251.40
741.45	251.05
741.78	250.72
742.11	250.45
742.44	250.09
742.77	249.78
743.10	249.46
743.43	249.16
743.75	248.75
744.08	248.59
744.41	248.26
744.74	248.02
745.07	247.73
745.40	247.48
745.73	247.27
746.06	246.99
746.39	246.76
746.71	246.52
747.04	246.24
747.37	246.01
747.70	245.73
748.03	245.47
748.36	245.24
748.68	245.00
749.01	244.73
749.34	244.50
749.67	244.28
750.00	244.07
750.33	243.93
750.65	243.72
750.98	243.33
751.31	243.11
751.64	242.84
751.97	242.64
752.29	242.42
752.62	242.14
752.95	241.91
753.28	241.71
753.60	241.51
753.93	241.34
754.26	241.13
754.59	240.93
754.91	240.71
755.24	240.51
755.57	240.29
755.90	240.13
756.22	239.92
756.55	239.69
756.88	239.46
757.20	239.19
757.53	238.98
757.86	238.82
758.19	238.67
758.51	238.51
758.84	238.33
759.17	238.18
759.49	238.05
759.82	237.92
760.15	237.72
760.47	237.55
760.80	237.36
761.13	237.20
761.45	237.02
761.78	236.83
762.11	236.68
762.43	236.54
762.76	236.35
763.08	236.24
763.41	236.10
763.74	236.00
764.06	235.84
764.39	235.71
764.71	235.57
765.04	235.44
765.37	235.32
765.69	235.13
766.02	234.97
766.34	234.85
766.67	234.67
767.00	234.59
767.32	234.53
767.65	234.44
767.97	234.31
768.30	234.18
768.62	234.10
768.95	233.96
769.27	233.85
769.60	233.78
769.92	233.65
770.25	233.52
770.57	233.42
770.90	233.35
771.22	233.27
771.55	233.18
771.87	233.08
772.20	232.95
772.52	232.97
772.85	233.01
773.17	232.87
773.50	232.83
773.82	232.71
774.15	232.57
774.47	232.48
774.80	232.42
775.12	232.35
775.45	232.27
775.77	232.21
776.09	232.13
776.42	232.05
776.74	232.00
777.07	231.97
777.39	231.90
777.72	231.84
778.04	231.80
778.36	231.72
778.69	231.67
779.01	231.68
779.33	231.51
779.66	231.35
779.98	231.28
780.31	231.22
780.63	231.22
780.95	231.17
781.28	231.08
781.60	230.99
781.92	230.93
782.25	230.90
782.57	230.84
782.89	230.79
783.22	230.73
783.54	230.65
783.86	230.59
784.19	230.49
784.51	230.44
784.83	230.35
785.16	230.29
785.48	230.25
785.80	230.18
786.12	230.14
786.45	230.09
786.77	230.10
787.09	230.02
787.42	229.90
787.74	229.87
788.06	229.84
788.38	229.80
788.71	229.73
789.03	229.66
789.35	229.64
789.67	229.58
789.99	229.55
790.32	229.50
790.64	229.43
790.96	229.52
791.28	229.45
791.61	229.40
791.93	229.37
792.25	229.29
792.57	229.31
792.89	229.27
793.21	229.21
793.54	229.14
793.86	229.10
794.18	229.09
794.50	229.02
794.82	228.95
795.14	228.93
795.47	228.95
795.79	228.92
796.11	228.86
796.43	228.84
796.75	228.77
797.07	228.75
797.39	228.69
797.71	228.55
798.04	228.51
798.36	228.51
798.68	228.46
799.00	228.46
799.32	228.34
799.64	228.31
799.96	228.25
800.28	228.24
800.60	228.21
800.92	228.17
801.24	228.17
801.56	228.14
801.89	228.11
802.21	228.06
802.53	228.01
802.85	227.97
803.17	227.96
803.49	227.93
803.81	227.89
804.13	227.89
804.45	227.87
804.77	227.86
805.09	227.82
805.41	227.78
805.73	227.71
806.05	227.65
806.37	227.62
806.69	227.61
807.01	227.57
807.33	227.53
807.65	227.45
807.97	227.41
808.28	227.38
808.60	227.33
808.92	227.28
809.24	227.30
809.56	227.29
809.88	227.26
810.20	227.24
810.52	227.24
810.84	227.20
811.16	227.14
811.48	227.09
811.80	227.10
812.12	227.05
812.43	227.04
812.75	227.03
813.07	226.97
813.39	226.94
813.71	226.85
814.03	226.82
814.35	226.83
814.67	226.81
814.98	226.77
815.30	226.76
815.62	226.75
815.94	226.66
816.26	226.68
816.58	226.60
816.89	226.60
817.21	226.53
817.53	226.50
817.85	226.49
818.17	226.48
818.48	226.41
818.80	226.43
819.12	226.38
819.44	226.39
819.76	226.37
820.07	226.37
820.39	226.40
820.71	226.37
821.03	226.37
821.34	226.34
821.66	226.35
821.98	226.34
822.30	226.33
822.61	226.39
822.93	226.33
823.25	226.37
823.57	226.36
823.88	226.38
824.20	226.39
824.52	226.35
824.83	226.34
825.15	226.35
825.47	226.36
825.79	226.37
826.10	226.32
826.42	226.33
826.74	226.30
827.05	226.27
827.37	226.30
827.69	226.30
828.00	226.31
828.32	226.31
828.64	226.30
828.95	226.32
829.27	226.29
829.58	226.27
829.90	226.26
830.22	226.24
830.53	226.21
830.85	226.21
831.17	226.20
831.48	226.23
831.80	226.20
832.11	226.17
832.43	226.20
832.75	226.20
833.06	226.26
833.38	226.24
833.69	226.26
834.01	226.26
834.32	226.25
834.64	226.19
834.96	226.17
835.27	226.15
835.59	226.10
835.90	226.07
836.22	226.05
836.53	226.01
836.85	226.02
837.16	226.12
837.48	226.10
837.79	226.12
838.11	226.10
838.42	226.11
838.74	226.13
839.05	226.10
839.37	226.10
839.68	226.01
840.00	225.98
840.31	225.98
840.63	225.96
840.94	225.94
841.26	225.93
841.57	225.92
841.88	225.93
842.20	225.91
842.51	225.92
842.83	225.91
843.14	225.99
843.46	225.95
843.77	225.90
844.08	225.89
844.40	225.85
844.71	225.83
845.03	225.79
845.34	225.76
845.65	225.74
845.97	225.72
846.28	225.70
846.60	225.72
846.91	225.71
847.22	225.68
847.54	225.71
847.85	225.70
848.16	225.68
848.48	225.66
848.79	225.69
849.10	225.66
849.42	225.66
849.73	225.57
850.04	225.58
850.36	225.52
850.67	225.51
850.98	225.47
851.30	225.46
851.61	225.46
851.92	225.47
852.23	225.49
852.55	225.49
852.86	225.50
853.17	225.48
853.49	225.50
853.80	225.50
854.11	225.46
854.42	225.48
854.74	225.47
855.05	225.44
855.36	225.40
855.67	225.43
855.99	225.45
856.30	225.54
856.61	225.51
856.92	225.49
857.23	225.48
857.55	225.50
857.86	225.47
858.17	225.47
858.48	225.44
858.79	225.39
859.11	225.38
859.42	225.37
859.73	225.38
860.04	225.37
860.35	225.34
860.66	225.32
860.98	225.30
861.29	225.34
861.60	225.37
861.91	225.39
862.22	225.38
862.53	225.33
862.84	225.22
863.16	225.27
863.47	225.27
863.78	225.27
864.09	225.29
864.40	225.27
864.71	225.28
865.02	225.29
865.33	225.30
865.64	225.30
865.95	225.33
866.27	225.39
866.58	225.37
866.89	225.38
867.20	225.40
867.51	225.39
867.82	225.35
868.13	225.36
868.44	225.35
868.75	225.30
869.06	225.32
869.37	225.33
869.68	225.32
869.99	225.35
870.30	225.35
870.61	225.31
870.92	225.31
871.23	225.31
871.54	225.33
871.85	225.37
872.16	225.40
872.47	225.39
872.78	225.33
873.09	225.33
873.40	225.33
873.71	225.34
874.02	225.36
874.33	225.35
874.64	225.33
874.95	225.32
875.26	225.34
875.56	225.36
875.87	225.34
876.18	225.33
876.49	225.41
876.80	225.38
877.11	225.39
877.42	225.45
877.73	225.44
878.04	225.41
878.35	225.35
878.66	225.33
878.96	225.33
879.27	225.33
879.58	225.33
879.89	225.34
880.20	225.32
880.51	225.31
880.82	225.29
881.12	225.28
881.43	225.25
881.74	225.25
882.05	225.20
882.36	225.23
882.67	225.22
882.97	225.08
883.28	225.09
883.59	225.07
883.90	225.04
884.21	225.03
884.51	225.01
884.82	225.02
885.13	225.02
885.44	224.99
885.74	224.97
886.05	224.96
886.36	224.95
886.67	224.94
886.98	224.96
887.28	224.98
887.59	224.98
887.90	224.99
888.20	224.99
888.51	225.03
888.82	224.99
889.13	225.01
889.43	225.14
889.74	225.12
890.05	225.12
890.35	225.12
890.66	225.11
890.97	225.11
891.28	225.11
891.58	225.09
891.89	225.10
892.20	225.09
892.50	225.07
892.81	225.06
893.12	225.05
893.42	225.04
893.73	225.05
894.04	225.05
894.34	225.06
894.65	225.05
894.95	225.06
895.26	225.06
895.57	225.08
895.87	224.97
896.18	225.02
896.48	225.07
896.79	225.06
897.10	225.09
897.40	225.09
897.71	225.12
898.01	225.09
898.32	225.08
898.63	225.04
898.93	225.05
899.24	225.07
899.54	225.05
899.85	225.02
900.15	225.01
900.46	225.00
900.76	225.02
901.07	225.03
901.38	224.98
901.68	225.00
901.99	224.95
902.29	224.93
902.60	224.89
902.90	224.87
903.21	224.86
903.51	224.86
903.82	224.88
904.12	224.88
904.43	224.92
904.73	224.94
905.03	224.95
905.34	225.03
905.64	225.03
905.95	225.03
906.25	225.02
906.56	225.03
906.86	225.05
907.17	225.03
907.47	225.05
907.77	225.05
908.08	225.04
908.38	225.03
908.69	225.08
908.99	225.12
909.30	225.12
909.60	225.13
909.90	225.11
910.21	225.09
910.51	225.09
910.81	225.05
911.12	225.07
911.42	225.09
911.73	225.00
912.03	225.01
912.33	225.02
912.64	225.01
912.94	225.00
913.24	224.97
913.55	224.97
913.85	224.95
914.15	224.99
914.46	225.00
914.76	225.02
915.06	225.00
915.37	224.97
915.67	224.96
915.97	224.96
916.27	224.93
916.58	224.91
916.88	224.88
917.18	224.88
917.49	224.93
917.79	224.93
918.09	224.95
918.39	224.96
918.70	224.96
919.00	224.99
919.30	225.02
919.60	225.03
919.91	225.03
920.21	225.01
920.51	224.97
920.81	224.95
921.12	224.95
921.42	224.92
921.72	224.94
922.02	224.93
922.32	224.98
922.63	224.99
922.93	225.04
923.23	225.05
923.53	225.08
923.83	225.00
924.13	225.03
924.44	225.00
924.74	225.01
925.04	225.03
925.34	225.00
925.64	224.94
925.94	224.96
926.24	224.97
926.55	224.99
926.85	225.01
927.15	225.00
927.45	225.00
927.75	224.99
928.05	224.98
928.35	224.99
928.65	224.98
928.95	224.98
929.26	224.96
929.56	225.00
929.86	225.00
930.16	225.01
930.46	224.97
930.76	224.99
931.06	224.94
931.36	224.96
931.66	224.98
931.96	225.01
932.26	224.97
932.56	224.97
932.86	224.95
933.16	224.93
933.46	224.96
933.76	224.93
934.06	224.96
934.36	225.00
934.66	225.01
934.96	224.99
935.26	224.99
935.56	224.98
935.86	224.95
936.16	224.93
936.46	224.92
936.76	224.92
937.06	224.91
937.36	224.96
937.66	224.92
937.96	224.92
938.26	224.89
938.56	224.90
938.86	224.89
939.16	224.92
939.46	224.94
939.76	224.96
940.06	224.96
940.35	224.91
940.65	224.88
940.95	224.87
941.25	224.83
941.55	224.83
941.85	224.84
942.15	224.88
942.45	224.92
942.75	224.89
943.04	224.88
943.34	224.91
943.64	224.88
943.94	224.90
944.24	224.89
944.54	224.92
944.84	224.92
945.13	224.91
945.43	224.92
945.73	224.91
946.03	224.90
946.33	224.90
946.62	224.91
946.92	224.88
947.22	224.88
947.52	224.91
947.82	224.89
948.11	224.88
948.41	224.83
948.71	224.78
949.01	224.80
949.31	224.83
949.60	224.78
949.90	224.77
950.20	224.75
950.50	224.73
950.79	224.70
951.09	224.71
951.39	224.69
951.69	224.63
951.98	224.67
952.28	224.67
952.58	224.65
952.87	224.63
953.17	224.64
953.47	224.62
953.76	224.59
954.06	224.58
954.36	224.55
954.66	224.54
954.95	224.54
955.25	224.55
955.55	224.54
955.84	224.53
956.14	224.55
956.44	224.58
956.73	224.57
957.03	224.60
957.32	224.58
957.62	224.59
957.92	224.59
958.21	224.57
958.51	224.67
958.81	224.68
959.10	224.74
959.40	224.76
959.69	224.73
959.99	224.76
960.29	224.78
960.58	224.79
960.88	224.83
961.17	224.84
961.47	224.80
961.76	224.80
962.06	224.85
962.36	224.85
962.65	224.83
962.95	224.85
963.24	224.84
963.54	224.87
963.83	224.91
964.13	224.91
964.42	224.85
964.72	224.76
965.01	224.78
965.31	224.75
965.60	224.73
965.90	224.82
966.19	224.79
966.49	224.78
966.78	224.74
967.08	224.73
967.37	224.70
967.67	224.69
967.96	224.69
968.26	224.66
968.55	224.66
968.85	224.65
969.14	224.64
969.43	224.64
969.73	224.65
970.02	224.62
970.32	224.61
970.61	224.63
970.91	224.58
971.20	224.55
971.49	224.54
971.79	224.56
972.08	224.49
972.38	224.52
972.67	224.56
972.96	224.62
973.26	224.61
973.55	224.69
973.85	224.71
974.14	224.73
974.43	224.75
974.73	224.76
975.02	224.75
975.31	224.76
975.61	224.77
975.90	224.73
976.19	224.75
976.49	224.77
976.78	224.81
977.07	224.85
977.37	224.88
977.66	224.91
977.95	224.87
978.24	224.88
978.54	224.89
978.83	224.85
979.12	224.84
979.42	224.85
979.71	224.83
980.00	224.85
980.29	224.84
980.59	224.80
980.88	224.80
981.17	224.77
981.46	224.78
981.76	224.74
982.05	224.77
982.34	224.76
982.63	224.75
982.93	224.72
983.22	224.74
983.51	224.75
983.80	224.73
984.09	224.76
984.39	224.78
984.68	224.76
984.97	224.78
985.26	224.75
985.55	224.77
985.85	224.75
986.14	224.77
986.43	224.79
986.72	224.80
987.01	224.78
987.30	224.79
987.59	224.78
987.89	224.77
988.18	224.73
988.47	224.69
988.76	224.72
989.05	224.71
989.34	224.67
989.63	224.68
989.92	224.67
990.22	224.65
990.51	224.63
990.80	224.63
991.09	224.63
991.38	224.66
991.67	224.67
991.96	224.65
992.25	224.62
992.54	224.57
992.83	224.56
993.12	224.54
993.41	224.55
993.70	224.56
993.99	224.60
994.28	224.61
994.58	224.63
994.87	224.59
995.16	224.56
995.45	224.55
995.74	224.51
996.03	224.52
996.32	224.56
996.61	224.57
996.90	224.56
997.19	224.53
997.48	224.51
997.77	224.47
998.06	224.49
998.34	224.48
998.63	224.49
998.92	224.52
999.21	224.56
999.50	224.55
999.79	224.56
1000.08	224.57
1000.37	224.58
1000.66	224.60
1000.95	224.65
1001.24	224.68
1001.53	224.71
1001.82	224.73
1002.11	224.73
1002.40	224.72
1002.68	224.75
1002.97	224.84
1003.26	224.86
1003.55	224.88
1003.84	224.90
1004.13	224.89
1004.42	224.91
1004.71	224.90
1004.99	224.89
1005.28	224.90
1005.57	224.96
1005.86	224.96
1006.15	224.96
1006.44	224.99
1006.72	225.03
1007.01	225.01
1007.30	225.00
1007.59	225.00
1007.88	225.01
1008.17	225.02
1008.45	225.06
1008.74	224.98
1009.03	224.94
1009.32	224.96
1009.60	224.94
1009.89	224.97
1010.18	224.98
1010.47	224.97
1010.76	224.99
1011.04	224.98
1011.33	224.98
1011.62	224.97
1011.91	224.97
1012.19	224.97
1012.48	224.94
1012.77	224.91
1013.05	224.95
1013.34	224.98
1013.63	225.00
1013.92	224.96
1014.20	224.98
1014.49	224.96
1014.78	225.02
1015.06	224.97
1015.35	225.00
1015.64	225.03
1015.92	225.02
1016.21	225.04
1016.50	225.05
1016.78	225.08
1017.07	225.08
1017.36	225.08
1017.64	225.08
1017.93	225.06
1018.22	225.03
1018.50	225.03
1018.79	225.06
1019.08	225.03
1019.36	225.04
1019.65	225.01
1019.93	225.07
1020.22	225.07
1020.51	225.09
1020.79	225.05
1021.08	224.55
1021.36	224.85
1021.65	225.05
1021.94	225.17
1022.22	225.46
1022.51	224.66
1022.79	225.59
1023.08	225.08
1023.36	225.73
1023.65	224.16
>>>>>End Processed Spectral Data<<<<<
