SpectraSuite Data File
++++++++++++++++++++++++++++++++++++
Date: Fri Feb 01 14:58:32 EST 2013
User: group
Dark Spectrum Present: No
Reference Spectrum Present: No
Number of Sampled Component Spectra: 1
Spectrometers: USB2E7196
Integration Time (usec): 35000 (USB2E7196)
Spectra Averaged: 100 (USB2E7196)
Boxcar Smoothing: 10 (USB2E7196)
Correct for Electrical Dark: No (USB2E7196)
Strobe/Lamp Enabled: No (USB2E7196)
Correct for Detector Non-linearity: No (USB2E7196)
Correct for Stray Light: No (USB2E7196)
Number of Pixels in Processed Spectrum: 2048
>>>>>Begin Processed Spectral Data<<<<<
339.09	0.00
339.48	215.14
339.86	217.12
340.24	217.87
340.63	219.62
341.01	222.17
341.39	222.07
341.78	223.29
342.16	224.77
342.54	225.02
342.93	213.45
343.31	224.26
343.69	224.80
344.07	225.23
344.46	225.66
344.84	226.02
345.22	226.25
345.60	226.53
345.99	226.71
346.37	226.84
346.75	226.95
347.13	227.03
347.52	227.09
347.90	227.14
348.28	227.19
348.66	227.28
349.05	227.30
349.43	227.35
349.81	227.41
350.19	227.48
350.57	227.55
350.96	227.62
351.34	227.66
351.72	227.73
352.10	227.84
352.48	227.93
352.87	227.97
353.25	228.02
353.63	228.05
354.01	228.12
354.39	228.18
354.77	228.27
355.15	228.37
355.54	228.44
355.92	228.47
356.30	228.53
356.68	228.61
357.06	228.66
357.44	228.69
357.82	228.72
358.20	228.79
358.58	228.84
358.97	228.91
359.35	229.01
359.73	229.10
360.11	229.14
360.49	229.18
360.87	229.19
361.25	229.26
361.63	229.34
362.01	229.41
362.39	229.44
362.77	229.43
363.15	229.48
363.53	229.47
363.91	229.51
364.29	229.52
364.67	229.46
365.05	229.50
365.43	229.51
365.81	229.52
366.19	229.54
366.57	229.58
366.95	229.57
367.33	229.55
367.71	229.54
368.09	229.54
368.47	229.56
368.85	229.57
369.23	229.55
369.61	229.51
369.99	229.52
370.37	229.51
370.75	229.52
371.13	229.48
371.51	229.43
371.89	229.34
372.27	229.30
372.65	229.27
373.03	229.20
373.41	229.17
373.78	229.09
374.16	228.97
374.54	228.86
374.92	228.78
375.30	228.71
375.68	228.61
376.06	228.52
376.44	228.38
376.82	228.33
377.19	228.29
377.57	228.17
377.95	228.03
378.33	227.95
378.71	227.82
379.09	227.71
379.47	227.66
379.84	227.55
380.22	227.48
380.60	227.36
380.98	227.28
381.36	227.21
381.73	227.13
382.11	227.09
382.49	227.02
382.87	226.93
383.25	226.83
383.62	226.88
384.00	226.79
384.38	226.77
384.76	226.71
385.13	226.66
385.51	226.58
385.89	226.52
386.27	226.46
386.64	226.48
387.02	226.44
387.40	226.37
387.78	226.40
388.15	226.36
388.53	226.36
388.91	226.32
389.29	226.27
389.66	226.26
390.04	226.29
390.42	226.30
390.79	226.28
391.17	226.31
391.55	226.19
391.92	226.22
392.30	226.21
392.68	226.21
393.05	226.23
393.43	226.26
393.81	226.32
394.18	226.33
394.56	226.31
394.94	226.37
395.31	226.39
395.69	226.47
396.06	226.52
396.44	226.58
396.82	226.59
397.19	226.76
397.57	226.83
397.95	226.86
398.32	226.90
398.70	227.04
399.07	227.15
399.45	227.24
399.82	227.32
400.20	227.41
400.58	227.54
400.95	227.57
401.33	227.73
401.70	227.89
402.08	228.00
402.45	228.10
402.83	228.24
403.20	228.37
403.58	228.48
403.95	228.62
404.33	228.76
404.71	228.95
405.08	229.09
405.46	229.22
405.83	229.40
406.21	229.56
406.58	229.74
406.96	229.90
407.33	230.09
407.70	230.28
408.08	230.55
408.45	230.75
408.83	231.01
409.20	231.22
409.58	231.40
409.95	231.71
410.33	231.98
410.70	232.21
411.08	232.51
411.45	232.82
411.82	233.11
412.20	233.42
412.57	233.84
412.95	234.12
413.32	234.57
413.69	234.96
414.07	235.40
414.44	235.83
414.82	236.32
415.19	236.87
415.56	237.45
415.94	238.00
416.31	238.63
416.68	239.23
417.06	239.91
417.43	240.57
417.81	241.29
418.18	242.07
418.55	242.93
418.93	243.78
419.30	244.65
419.67	245.61
420.04	246.60
420.42	247.57
420.79	248.77
421.16	249.89
421.54	251.05
421.91	252.24
422.28	253.48
422.66	254.76
423.03	256.04
423.40	257.33
423.77	258.72
424.15	260.16
424.52	261.66
424.89	263.28
425.26	264.83
425.64	266.28
426.01	267.88
426.38	269.47
426.75	271.13
427.13	272.87
427.50	274.65
427.87	276.50
428.24	278.35
428.61	280.09
428.99	282.02
429.36	284.10
429.73	286.21
430.10	288.27
430.47	290.36
430.85	292.47
431.22	294.76
431.59	297.13
431.96	299.39
432.33	301.88
432.70	304.24
433.08	307.07
433.45	309.69
433.82	312.25
434.19	315.19
434.56	318.04
434.93	320.74
435.30	323.35
435.68	326.19
436.05	329.05
436.42	331.85
436.79	334.37
437.16	337.10
437.53	339.90
437.90	342.65
438.27	345.41
438.64	348.23
439.01	350.82
439.38	353.09
439.75	355.20
440.13	357.71
440.50	360.04
440.87	361.89
441.24	363.89
441.61	366.14
441.98	367.62
442.35	369.45
442.72	371.31
443.09	373.14
443.46	374.21
443.83	374.74
444.20	375.27
444.57	376.11
444.94	376.43
445.31	376.82
445.68	377.22
446.05	377.28
446.42	376.92
446.79	376.45
447.16	375.94
447.53	375.68
447.90	374.50
448.27	373.42
448.64	371.77
449.01	370.58
449.37	368.61
449.74	366.70
450.11	364.39
450.48	361.89
450.85	359.38
451.22	357.24
451.59	355.26
451.96	353.29
452.33	350.68
452.70	348.31
453.07	345.41
453.43	342.48
453.80	339.70
454.17	337.04
454.54	334.53
454.91	331.88
455.28	329.21
455.65	326.72
456.02	324.22
456.38	322.12
456.75	319.48
457.12	317.19
457.49	314.98
457.86	312.83
458.23	310.93
458.59	308.88
458.96	306.81
459.33	304.96
459.70	303.08
460.07	301.60
460.43	299.87
460.80	298.25
461.17	296.81
461.54	295.31
461.91	293.86
462.27	292.40
462.64	291.12
463.01	289.71
463.38	288.40
463.74	287.04
464.11	285.85
464.48	284.82
464.85	283.70
465.21	282.80
465.58	281.83
465.95	280.75
466.32	279.80
466.68	278.88
467.05	277.97
467.42	277.07
467.78	276.11
468.15	275.21
468.52	274.53
468.88	273.71
469.25	272.94
469.62	272.31
469.98	271.63
470.35	270.98
470.72	270.43
471.08	269.74
471.45	269.17
471.82	268.66
472.18	268.07
472.55	267.63
472.92	267.12
473.28	266.68
473.65	266.20
474.02	265.79
474.38	265.36
474.75	265.03
475.11	264.65
475.48	264.39
475.85	264.19
476.21	263.96
476.58	263.75
476.94	263.59
477.31	263.37
477.67	263.21
478.04	263.10
478.41	263.00
478.77	263.08
479.14	263.01
479.50	263.00
479.87	263.03
480.23	263.09
480.60	263.14
480.96	263.20
481.33	263.42
481.69	263.58
482.06	263.79
482.42	263.97
482.79	264.21
483.15	264.50
483.52	264.86
483.88	265.21
484.25	265.57
484.61	265.98
484.98	266.43
485.34	266.99
485.71	267.56
486.07	268.12
486.44	268.70
486.80	269.43
487.17	270.13
487.53	270.92
487.90	271.78
488.26	272.72
488.62	273.74
488.99	274.67
489.35	275.71
489.72	276.81
490.08	277.98
490.44	279.24
490.81	280.56
491.17	281.87
491.54	283.31
491.90	284.86
492.26	286.50
492.63	288.23
492.99	289.98
493.36	291.85
493.72	293.93
494.08	295.97
494.45	298.19
494.81	300.54
495.17	302.99
495.54	305.57
495.90	308.19
496.26	310.96
496.63	313.95
496.99	316.99
497.35	320.25
497.72	323.65
498.08	327.17
498.44	330.79
498.80	334.72
499.17	338.77
499.53	342.92
499.89	347.28
500.26	351.81
500.62	356.41
500.98	361.36
501.34	366.40
501.71	371.70
502.07	377.10
502.43	382.64
502.79	388.42
503.16	394.41
503.52	400.70
503.88	407.03
504.24	413.69
504.60	420.55
504.97	427.63
505.33	434.89
505.69	442.57
506.05	450.29
506.41	458.15
506.78	466.26
507.14	474.68
507.50	483.33
507.86	492.34
508.22	501.60
508.59	510.77
508.95	520.30
509.31	530.11
509.67	540.18
510.03	550.49
510.39	561.05
510.75	571.83
511.12	582.72
511.48	594.12
511.84	605.50
512.20	617.06
512.56	629.07
512.92	641.25
513.28	653.54
513.64	666.12
514.00	678.83
514.37	691.80
514.73	704.77
515.09	717.87
515.45	731.15
515.81	744.69
516.17	758.66
516.53	772.70
516.89	786.88
517.25	801.13
517.61	815.57
517.97	829.99
518.33	844.47
518.69	859.32
519.05	874.26
519.41	889.46
519.77	905.04
520.13	920.56
520.49	935.97
520.85	951.57
521.21	967.31
521.57	983.61
521.93	999.46
522.29	1015.97
522.65	1032.24
523.01	1048.50
523.37	1064.69
523.73	1080.94
524.09	1097.28
524.45	1113.64
524.81	1130.31
525.17	1147.18
525.53	1164.21
525.89	1181.17
526.25	1198.11
526.61	1214.57
526.97	1231.26
527.33	1247.76
527.68	1264.49
528.04	1281.19
528.40	1297.85
528.76	1314.97
529.12	1331.55
529.48	1348.52
529.84	1364.69
530.20	1381.45
530.56	1398.64
530.91	1415.93
531.27	1432.80
531.63	1449.28
531.99	1465.97
532.35	1481.98
532.71	1497.87
533.07	1514.16
533.42	1530.16
533.78	1546.15
534.14	1562.46
534.50	1578.01
534.86	1594.00
535.21	1608.97
535.57	1625.02
535.93	1640.45
536.29	1655.28
536.65	1670.55
537.00	1685.37
537.36	1700.68
537.72	1715.30
538.08	1729.68
538.44	1743.71
538.79	1757.70
539.15	1771.55
539.51	1785.43
539.87	1799.94
540.22	1813.86
540.58	1827.78
540.94	1841.21
541.29	1854.34
541.65	1867.17
542.01	1880.52
542.37	1892.87
542.72	1905.48
543.08	1917.25
543.44	1929.84
543.79	1941.23
544.15	1952.14
544.51	1963.57
544.87	1974.61
545.22	1985.48
545.58	1995.71
545.94	2005.38
546.29	2015.32
546.65	2025.05
547.01	2034.20
547.36	2042.89
547.72	2051.32
548.07	2059.11
548.43	2067.17
548.79	2075.18
549.14	2082.67
549.50	2090.05
549.86	2097.88
550.21	2105.26
550.57	2112.32
550.92	2118.80
551.28	2125.91
551.64	2132.93
551.99	2139.58
552.35	2145.66
552.70	2151.70
553.06	2157.58
553.41	2163.94
553.77	2169.86
554.13	2176.09
554.48	2182.17
554.84	2187.62
555.19	2192.98
555.55	2198.05
555.90	2202.53
556.26	2207.31
556.61	2212.10
556.97	2216.12
557.32	2220.23
557.68	2224.37
558.03	2228.75
558.39	2232.50
558.74	2236.93
559.10	2240.75
559.45	2244.26
559.81	2248.53
560.16	2252.29
560.52	2255.56
560.87	2259.06
561.23	2261.66
561.58	2264.59
561.94	2267.14
562.29	2269.52
562.64	2271.97
563.00	2274.60
563.35	2278.18
563.71	2281.29
564.06	2284.25
564.42	2287.11
564.77	2289.35
565.12	2291.31
565.48	2292.95
565.83	2294.60
566.19	2295.70
566.54	2296.73
566.89	2297.81
567.25	2298.29
567.60	2299.66
567.96	2301.17
568.31	2301.75
568.66	2302.73
569.02	2302.96
569.37	2303.16
569.72	2303.75
570.08	2303.76
570.43	2303.61
570.78	2302.70
571.14	2300.93
571.49	2299.54
571.84	2299.06
572.20	2297.69
572.55	2296.47
572.90	2294.85
573.26	2293.27
573.61	2291.62
573.96	2289.54
574.31	2286.50
574.67	2283.30
575.02	2279.30
575.37	2275.84
575.72	2271.92
576.08	2268.29
576.43	2264.88
576.78	2261.04
577.13	2257.91
577.49	2254.71
577.84	2251.03
578.19	2247.22
578.54	2243.33
578.90	2239.06
579.25	2233.37
579.60	2228.45
579.95	2223.51
580.30	2218.18
580.66	2212.94
581.01	2207.76
581.36	2202.78
581.71	2198.34
582.06	2193.74
582.42	2189.17
582.77	2183.73
583.12	2178.91
583.47	2174.16
583.82	2168.94
584.17	2163.44
584.53	2157.65
584.88	2151.88
585.23	2145.97
585.58	2140.35
585.93	2134.88
586.28	2129.88
586.63	2124.77
586.98	2119.49
587.34	2114.60
587.69	2109.74
588.04	2104.33
588.39	2098.52
588.74	2091.82
589.09	2085.56
589.44	2078.68
589.79	2072.60
590.14	2066.91
590.49	2060.31
590.84	2053.82
591.19	2047.70
591.54	2041.14
591.89	2033.54
592.25	2026.61
592.60	2019.36
592.95	2011.60
593.30	2004.13
593.65	1996.38
594.00	1989.14
594.35	1981.75
594.70	1973.54
595.05	1966.22
595.40	1958.78
595.75	1951.12
596.10	1944.94
596.45	1938.10
596.80	1931.84
597.15	1925.17
597.50	1917.94
597.85	1911.47
598.19	1904.61
598.54	1897.47
598.89	1890.72
599.24	1884.82
599.59	1878.12
599.94	1871.91
600.29	1865.62
600.64	1859.05
600.99	1851.44
601.34	1844.64
601.69	1837.63
602.04	1830.68
602.39	1823.36
602.74	1816.61
603.08	1809.98
603.43	1803.09
603.78	1795.78
604.13	1788.57
604.48	1781.17
604.83	1774.44
605.18	1767.37
605.53	1759.50
605.87	1751.43
606.22	1744.38
606.57	1736.48
606.92	1729.11
607.27	1721.87
607.62	1714.88
607.96	1707.62
608.31	1701.11
608.66	1693.44
609.01	1685.99
609.36	1678.53
609.70	1670.51
610.05	1662.35
610.40	1654.63
610.75	1646.37
611.10	1638.80
611.44	1630.48
611.79	1622.46
612.14	1613.62
612.49	1604.61
612.83	1596.31
613.18	1588.30
613.53	1580.19
613.88	1571.76
614.22	1563.63
614.57	1555.09
614.92	1547.01
615.27	1539.26
615.61	1530.96
615.96	1523.01
616.31	1515.34
616.65	1508.05
617.00	1500.52
617.35	1492.99
617.70	1484.67
618.04	1476.22
618.39	1467.95
618.74	1460.35
619.08	1452.16
619.43	1444.73
619.78	1437.87
620.12	1430.73
620.47	1423.25
620.82	1415.13
621.16	1407.76
621.51	1400.25
621.85	1392.66
622.20	1384.27
622.55	1376.09
622.89	1368.35
623.24	1360.81
623.59	1353.57
623.93	1346.05
624.28	1338.89
624.62	1331.41
624.97	1324.25
625.32	1317.52
625.66	1310.64
626.01	1303.48
626.35	1296.09
626.70	1288.44
627.04	1280.70
627.39	1272.97
627.73	1265.60
628.08	1258.67
628.43	1251.32
628.77	1243.79
629.12	1236.19
629.46	1229.04
629.81	1221.72
630.15	1214.50
630.50	1207.16
630.84	1198.93
631.19	1191.05
631.53	1183.46
631.88	1175.96
632.22	1168.44
632.57	1161.17
632.91	1153.70
633.26	1146.38
633.60	1139.06
633.95	1132.00
634.29	1125.05
634.64	1118.38
634.98	1111.09
635.32	1104.04
635.67	1097.51
636.01	1091.05
636.36	1084.29
636.70	1077.93
637.05	1071.39
637.39	1065.05
637.73	1058.53
638.08	1052.75
638.42	1046.78
638.77	1040.48
639.11	1033.89
639.45	1027.56
639.80	1020.92
640.14	1014.44
640.49	1007.94
640.83	1001.68
641.17	995.40
641.52	989.10
641.86	982.69
642.20	976.87
642.55	970.66
642.89	964.16
643.23	957.56
643.58	951.88
643.92	945.64
644.26	939.55
644.61	933.60
644.95	927.55
645.29	920.95
645.64	914.29
645.98	907.96
646.32	902.25
646.66	896.27
647.01	890.52
647.35	884.89
647.69	879.10
648.04	873.67
648.38	867.93
648.72	861.95
649.06	855.95
649.41	850.05
649.75	844.03
650.09	838.12
650.43	832.36
650.78	826.21
651.12	820.28
651.46	814.61
651.80	808.79
652.14	803.47
652.49	798.21
652.83	792.96
653.17	787.34
653.51	781.52
653.85	776.11
654.20	770.54
654.54	764.50
654.88	758.79
655.22	752.93
655.56	747.26
655.90	741.84
656.25	736.65
656.59	731.33
656.93	726.23
657.27	721.16
657.61	715.84
657.95	710.82
658.29	705.76
658.64	700.57
658.98	695.36
659.32	689.96
659.66	684.74
660.00	679.46
660.34	674.49
660.68	669.64
661.02	664.70
661.36	660.00
661.70	655.68
662.05	651.34
662.39	647.04
662.73	642.67
663.07	638.33
663.41	633.83
663.75	629.36
664.09	624.91
664.43	620.59
664.77	616.42
665.11	612.26
665.45	608.21
665.79	604.15
666.13	600.04
666.47	595.95
666.81	591.78
667.15	587.79
667.49	584.00
667.83	580.24
668.17	576.28
668.51	572.26
668.85	568.12
669.19	564.37
669.53	560.54
669.87	556.66
670.21	553.01
670.55	549.46
670.89	546.04
671.23	542.62
671.57	539.10
671.91	535.64
672.25	532.17
672.58	528.75
672.92	525.43
673.26	522.30
673.60	519.21
673.94	516.16
674.28	513.29
674.62	510.36
674.96	507.29
675.30	504.43
675.64	501.51
675.97	498.82
676.31	495.96
676.65	493.05
676.99	490.37
677.33	487.50
677.67	484.66
678.01	481.66
678.34	478.65
678.68	475.83
679.02	473.04
679.36	470.21
679.70	467.47
680.04	464.67
680.37	461.77
680.71	458.97
681.05	456.39
681.39	453.66
681.73	450.98
682.06	448.48
682.40	445.99
682.74	443.49
683.08	440.99
683.42	438.40
683.75	435.91
684.09	433.38
684.43	430.96
684.77	428.56
685.10	426.30
685.44	424.07
685.78	421.81
686.12	419.59
686.45	417.37
686.79	415.07
687.13	412.92
687.46	410.78
687.80	408.64
688.14	406.44
688.48	404.44
688.81	402.22
689.15	400.06
689.49	397.93
689.82	395.86
690.16	393.79
690.50	391.82
690.83	389.84
691.17	387.87
691.51	385.97
691.84	384.13
692.18	382.13
692.52	380.16
692.85	378.26
693.19	376.38
693.52	374.56
693.86	372.76
694.20	371.00
694.53	369.21
694.87	367.42
695.21	365.65
695.54	363.84
695.88	362.11
696.21	360.40
696.55	358.72
696.88	357.03
697.22	355.39
697.56	353.77
697.89	352.15
698.23	350.56
698.56	348.95
698.90	347.37
699.23	345.77
699.57	344.24
699.90	342.72
700.24	341.16
700.58	339.67
700.91	338.15
701.25	336.74
701.58	335.39
701.92	334.04
702.25	332.67
702.59	331.29
702.92	330.01
703.26	328.72
703.59	327.45
703.93	326.32
704.26	325.12
704.60	323.84
704.93	322.59
705.26	321.39
705.60	320.25
705.93	319.12
706.27	318.12
706.60	317.09
706.94	316.03
707.27	314.99
707.61	313.96
707.94	312.99
708.27	311.92
708.61	310.87
708.94	309.83
709.28	308.82
709.61	307.92
709.94	306.95
710.28	305.95
710.61	304.99
710.95	303.89
711.28	302.95
711.61	302.04
711.95	301.13
712.28	300.16
712.61	299.16
712.95	298.25
713.28	297.30
713.61	296.41
713.95	295.49
714.28	294.61
714.61	293.72
714.95	292.87
715.28	292.01
715.61	291.13
715.95	290.30
716.28	289.47
716.61	288.61
716.95	287.80
717.28	287.07
717.61	286.29
717.94	285.55
718.28	284.75
718.61	284.02
718.94	283.32
719.27	282.66
719.61	282.03
719.94	281.34
720.27	280.70
720.60	280.01
720.94	279.35
721.27	278.77
721.60	278.18
721.93	277.59
722.27	277.01
722.60	276.43
722.93	275.87
723.26	275.35
723.59	274.80
723.93	274.24
724.26	273.73
724.59	273.18
724.92	272.65
725.25	272.18
725.59	271.62
725.92	271.13
726.25	270.63
726.58	270.14
726.91	269.65
727.24	269.16
727.57	268.68
727.91	268.22
728.24	267.77
728.57	267.28
728.90	266.84
729.23	266.36
729.56	265.99
729.89	265.54
730.22	265.05
730.55	264.61
730.89	264.18
731.22	263.70
731.55	263.28
731.88	262.87
732.21	262.40
732.54	261.98
732.87	261.53
733.20	261.15
733.53	260.77
733.86	260.38
734.19	259.98
734.52	259.62
734.85	259.32
735.18	258.88
735.51	258.52
735.84	258.11
736.17	257.74
736.50	257.30
736.83	257.07
737.16	256.76
737.49	256.40
737.82	256.04
738.15	255.72
738.48	255.38
738.81	255.01
739.14	254.73
739.47	254.43
739.80	254.15
740.13	253.81
740.46	253.46
740.79	253.11
741.12	252.79
741.45	252.46
741.78	252.09
742.11	251.83
742.44	251.46
742.77	251.21
743.10	250.90
743.43	250.61
743.75	250.21
744.08	250.05
744.41	249.77
744.74	249.52
745.07	249.21
745.40	248.91
745.73	248.72
746.06	248.44
746.39	248.22
746.71	247.92
747.04	247.63
747.37	247.39
747.70	247.16
748.03	246.95
748.36	246.76
748.68	246.51
749.01	246.22
749.34	246.06
749.67	245.82
750.00	245.62
750.33	245.47
750.65	245.28
750.98	244.95
751.31	244.75
751.64	244.56
751.97	244.43
752.29	244.23
752.62	244.01
752.95	243.78
753.28	243.54
753.60	243.38
753.93	243.25
754.26	243.07
754.59	242.85
754.91	242.61
755.24	242.39
755.57	242.23
755.90	242.09
756.22	241.87
756.55	241.68
756.88	241.47
757.20	241.23
757.53	241.03
757.86	240.83
758.19	240.66
758.51	240.50
758.84	240.27
759.17	240.15
759.49	239.97
759.82	239.83
760.15	239.68
760.47	239.51
760.80	239.32
761.13	239.17
761.45	239.04
761.78	238.93
762.11	238.80
762.43	238.66
762.76	238.49
763.08	238.38
763.41	238.27
763.74	238.16
764.06	238.04
764.39	237.91
764.71	237.79
765.04	237.69
765.37	237.57
765.69	237.48
766.02	237.32
766.34	237.20
766.67	237.08
767.00	236.98
767.32	236.92
767.65	236.86
767.97	236.75
768.30	236.64
768.62	236.53
768.95	236.40
769.27	236.27
769.60	236.18
769.92	236.07
770.25	235.95
770.57	235.82
770.90	235.71
771.22	235.60
771.55	235.50
771.87	235.37
772.20	235.22
772.52	235.17
772.85	235.20
773.17	235.12
773.50	234.99
773.82	234.90
774.15	234.75
774.47	234.59
774.80	234.47
775.12	234.38
775.45	234.29
775.77	234.22
776.09	234.16
776.42	234.06
776.74	233.97
777.07	233.88
777.39	233.81
777.72	233.71
778.04	233.66
778.36	233.58
778.69	233.51
779.01	233.50
779.33	233.37
779.66	233.19
779.98	233.12
780.31	233.07
780.63	233.05
780.95	233.02
781.28	232.99
781.60	232.95
781.92	232.87
782.25	232.81
782.57	232.74
782.89	232.65
783.22	232.61
783.54	232.54
783.86	232.48
784.19	232.40
784.51	232.41
784.83	232.36
785.16	232.31
785.48	232.29
785.80	232.19
786.12	232.15
786.45	232.09
786.77	232.05
787.09	231.99
787.42	231.91
787.74	231.86
788.06	231.81
788.38	231.76
788.71	231.72
789.03	231.69
789.35	231.64
789.67	231.61
789.99	231.56
790.32	231.52
790.64	231.49
790.96	231.57
791.28	231.50
791.61	231.44
791.93	231.38
792.25	231.29
792.57	231.35
792.89	231.30
793.21	231.30
793.54	231.27
793.86	231.24
794.18	231.22
794.50	231.16
794.82	231.10
795.14	231.07
795.47	231.08
795.79	231.06
796.11	231.06
796.43	231.04
796.75	231.02
797.07	231.00
797.39	230.98
797.71	230.88
798.04	230.85
798.36	230.86
798.68	230.83
799.00	230.85
799.32	230.75
799.64	230.74
799.96	230.70
800.28	230.68
800.60	230.65
800.92	230.58
801.24	230.53
801.56	230.51
801.89	230.47
802.21	230.39
802.53	230.34
802.85	230.32
803.17	230.31
803.49	230.29
803.81	230.23
804.13	230.17
804.45	230.14
804.77	230.09
805.09	230.05
805.41	230.02
805.73	229.94
806.05	229.89
806.37	229.86
806.69	229.84
807.01	229.78
807.33	229.76
807.65	229.74
807.97	229.79
808.28	229.77
808.60	229.73
808.92	229.72
809.24	229.77
809.56	229.74
809.88	229.70
810.20	229.65
810.52	229.67
810.84	229.67
811.16	229.61
811.48	229.60
811.80	229.58
812.12	229.60
812.43	229.62
812.75	229.61
813.07	229.56
813.39	229.54
813.71	229.51
814.03	229.48
814.35	229.43
814.67	229.36
814.98	229.32
815.30	229.33
815.62	229.29
815.94	229.19
816.26	229.17
816.58	229.13
816.89	229.16
817.21	229.15
817.53	229.14
817.85	229.10
818.17	229.06
818.48	229.00
818.80	228.96
819.12	228.90
819.44	228.85
819.76	228.82
820.07	228.78
820.39	228.77
820.71	228.72
821.03	228.69
821.34	228.66
821.66	228.65
821.98	228.62
822.30	228.58
822.61	228.62
822.93	228.57
823.25	228.53
823.57	228.46
823.88	228.43
824.20	228.40
824.52	228.42
824.83	228.40
825.15	228.37
825.47	228.35
825.79	228.35
826.10	228.35
826.42	228.34
826.74	228.34
827.05	228.32
827.37	228.32
827.69	228.34
828.00	228.32
828.32	228.32
828.64	228.27
828.95	228.34
829.27	228.25
829.58	228.23
829.90	228.26
830.22	228.27
830.53	228.23
830.85	228.23
831.17	228.19
831.48	228.22
831.80	228.21
832.11	228.22
832.43	228.19
832.75	228.19
833.06	228.25
833.38	228.18
833.69	228.19
834.01	228.21
834.32	228.21
834.64	228.19
834.96	228.17
835.27	228.16
835.59	228.09
835.90	228.14
836.22	228.12
836.53	228.08
836.85	228.06
837.16	228.15
837.48	228.14
837.79	228.15
838.11	228.12
838.42	228.15
838.74	228.17
839.05	228.16
839.37	228.13
839.68	228.04
840.00	228.05
840.31	228.04
840.63	228.05
840.94	228.04
841.26	228.02
841.57	228.02
841.88	228.07
842.20	228.07
842.51	228.03
842.83	228.07
843.14	228.14
843.46	228.13
843.77	228.06
844.08	228.06
844.40	228.02
844.71	228.05
845.03	228.00
845.34	227.97
845.65	227.98
845.97	227.99
846.28	228.00
846.60	228.03
846.91	228.02
847.22	228.00
847.54	228.03
847.85	228.07
848.16	228.08
848.48	228.04
848.79	228.09
849.10	228.09
849.42	228.07
849.73	228.00
850.04	227.99
850.36	228.00
850.67	227.97
850.98	227.98
851.30	228.00
851.61	228.00
851.92	227.97
852.23	228.00
852.55	228.02
852.86	228.02
853.17	228.02
853.49	228.04
853.80	228.03
854.11	228.00
854.42	227.99
854.74	227.96
855.05	227.96
855.36	227.92
855.67	227.95
855.99	227.95
856.30	228.06
856.61	228.07
856.92	228.05
857.23	228.06
857.55	228.02
857.86	227.97
858.17	228.01
858.48	228.00
858.79	227.99
859.11	227.97
859.42	227.94
859.73	227.94
860.04	227.94
860.35	227.90
860.66	227.87
860.98	227.87
861.29	227.86
861.60	227.86
861.91	227.85
862.22	227.83
862.53	227.81
862.84	227.67
863.16	227.64
863.47	227.61
863.78	227.64
864.09	227.67
864.40	227.68
864.71	227.63
865.02	227.63
865.33	227.59
865.64	227.54
865.95	227.57
866.27	227.61
866.58	227.59
866.89	227.62
867.20	227.61
867.51	227.56
867.82	227.56
868.13	227.59
868.44	227.57
868.75	227.58
869.06	227.54
869.37	227.57
869.68	227.56
869.99	227.57
870.30	227.54
870.61	227.54
870.92	227.53
871.23	227.56
871.54	227.59
871.85	227.62
872.16	227.68
872.47	227.66
872.78	227.61
873.09	227.62
873.40	227.60
873.71	227.60
874.02	227.65
874.33	227.61
874.64	227.60
874.95	227.61
875.26	227.60
875.56	227.60
875.87	227.60
876.18	227.58
876.49	227.69
876.80	227.71
877.11	227.70
877.42	227.67
877.73	227.65
878.04	227.64
878.35	227.70
878.66	227.70
878.96	227.71
879.27	227.68
879.58	227.66
879.89	227.66
880.20	227.69
880.51	227.69
880.82	227.74
881.12	227.74
881.43	227.73
881.74	227.72
882.05	227.75
882.36	227.75
882.67	227.76
882.97	227.66
883.28	227.63
883.59	227.62
883.90	227.67
884.21	227.70
884.51	227.66
884.82	227.59
885.13	227.56
885.44	227.59
885.74	227.57
886.05	227.56
886.36	227.57
886.67	227.54
886.98	227.60
887.28	227.59
887.59	227.57
887.90	227.54
888.20	227.51
888.51	227.50
888.82	227.51
889.13	227.52
889.43	227.60
889.74	227.61
890.05	227.59
890.35	227.55
890.66	227.53
890.97	227.53
891.28	227.54
891.58	227.52
891.89	227.47
892.20	227.48
892.50	227.45
892.81	227.42
893.12	227.43
893.42	227.33
893.73	227.31
894.04	227.32
894.34	227.34
894.65	227.35
894.95	227.34
895.26	227.31
895.57	227.36
895.87	227.23
896.18	227.21
896.48	227.23
896.79	227.25
897.10	227.28
897.40	227.27
897.71	227.26
898.01	227.27
898.32	227.31
898.63	227.32
898.93	227.38
899.24	227.39
899.54	227.37
899.85	227.38
900.15	227.39
900.46	227.35
900.76	227.33
901.07	227.36
901.38	227.34
901.68	227.36
901.99	227.33
902.29	227.37
902.60	227.37
902.90	227.36
903.21	227.31
903.51	227.31
903.82	227.33
904.12	227.33
904.43	227.33
904.73	227.31
905.03	227.34
905.34	227.39
905.64	227.37
905.95	227.38
906.25	227.38
906.56	227.39
906.86	227.43
907.17	227.47
907.47	227.45
907.77	227.45
908.08	227.42
908.38	227.40
908.69	227.38
908.99	227.41
909.30	227.44
909.60	227.45
909.90	227.43
910.21	227.42
910.51	227.41
910.81	227.40
911.12	227.39
911.42	227.35
911.73	227.24
912.03	227.28
912.33	227.26
912.64	227.28
912.94	227.27
913.24	227.26
913.55	227.24
913.85	227.24
914.15	227.27
914.46	227.30
914.76	227.30
915.06	227.30
915.37	227.26
915.67	227.24
915.97	227.27
916.27	227.23
916.58	227.19
916.88	227.19
917.18	227.20
917.49	227.27
917.79	227.28
918.09	227.32
918.39	227.30
918.70	227.34
919.00	227.31
919.30	227.35
919.60	227.33
919.91	227.34
920.21	227.34
920.51	227.31
920.81	227.31
921.12	227.30
921.42	227.26
921.72	227.30
922.02	227.29
922.32	227.29
922.63	227.29
922.93	227.35
923.23	227.36
923.53	227.35
923.83	227.30
924.13	227.29
924.44	227.29
924.74	227.34
925.04	227.33
925.34	227.32
925.64	227.26
925.94	227.25
926.24	227.31
926.55	227.29
926.85	227.31
927.15	227.28
927.45	227.29
927.75	227.33
928.05	227.33
928.35	227.32
928.65	227.32
928.95	227.34
929.26	227.33
929.56	227.37
929.86	227.34
930.16	227.35
930.46	227.35
930.76	227.36
931.06	227.29
931.36	227.28
931.66	227.31
931.96	227.30
932.26	227.28
932.56	227.22
932.86	227.20
933.16	227.19
933.46	227.20
933.76	227.21
934.06	227.21
934.36	227.22
934.66	227.19
934.96	227.16
935.26	227.18
935.56	227.15
935.86	227.09
936.16	227.09
936.46	227.06
936.76	227.03
937.06	227.02
937.36	227.05
937.66	227.06
937.96	227.04
938.26	227.02
938.56	227.06
938.86	227.03
939.16	227.07
939.46	227.07
939.76	227.08
940.06	227.07
940.35	227.05
940.65	227.00
940.95	227.03
941.25	227.03
941.55	226.99
941.85	226.98
942.15	226.98
942.45	227.03
942.75	227.03
943.04	227.06
943.34	227.08
943.64	227.06
943.94	227.05
944.24	227.03
944.54	227.09
944.84	227.09
945.13	227.11
945.43	227.10
945.73	227.11
946.03	227.08
946.33	227.06
946.62	227.09
946.92	227.11
947.22	227.10
947.52	227.12
947.82	227.15
948.11	227.17
948.41	227.17
948.71	227.13
949.01	227.17
949.31	227.17
949.60	227.17
949.90	227.19
950.20	227.20
950.50	227.24
950.79	227.21
951.09	227.23
951.39	227.21
951.69	227.20
951.98	227.22
952.28	227.23
952.58	227.23
952.87	227.20
953.17	227.21
953.47	227.25
953.76	227.25
954.06	227.23
954.36	227.23
954.66	227.22
954.95	227.26
955.25	227.25
955.55	227.27
955.84	227.25
956.14	227.22
956.44	227.24
956.73	227.22
957.03	227.23
957.32	227.23
957.62	227.26
957.92	227.29
958.21	227.29
958.51	227.39
958.81	227.41
959.10	227.43
959.40	227.47
959.69	227.43
959.99	227.45
960.29	227.48
960.58	227.48
960.88	227.54
961.17	227.52
961.47	227.53
961.76	227.51
962.06	227.49
962.36	227.51
962.65	227.50
962.95	227.48
963.24	227.45
963.54	227.44
963.83	227.42
964.13	227.40
964.42	227.35
964.72	227.24
965.01	227.24
965.31	227.26
965.60	227.20
965.90	227.26
966.19	227.22
966.49	227.21
966.78	227.19
967.08	227.18
967.37	227.17
967.67	227.15
967.96	227.14
968.26	227.13
968.55	227.12
968.85	227.11
969.14	227.13
969.43	227.15
969.73	227.13
970.02	227.13
970.32	227.13
970.61	227.12
970.91	227.11
971.20	227.08
971.49	227.05
971.79	227.10
972.08	227.04
972.38	227.05
972.67	227.02
972.96	227.02
973.26	226.98
973.55	227.02
973.85	227.02
974.14	227.01
974.43	227.03
974.73	227.02
975.02	226.98
975.31	226.97
975.61	226.96
975.90	226.95
976.19	226.90
976.49	226.91
976.78	226.94
977.07	226.95
977.37	226.94
977.66	226.94
977.95	226.91
978.24	226.90
978.54	226.91
978.83	226.92
979.12	226.92
979.42	226.92
979.71	226.87
980.00	226.85
980.29	226.87
980.59	226.81
980.88	226.84
981.17	226.90
981.46	226.89
981.76	226.87
982.05	226.90
982.34	226.95
982.63	226.95
982.93	226.94
983.22	226.95
983.51	227.00
983.80	227.02
984.09	227.05
984.39	227.05
984.68	227.06
984.97	227.09
985.26	227.07
985.55	227.11
985.85	227.10
986.14	227.15
986.43	227.14
986.72	227.18
987.01	227.17
987.30	227.12
987.59	227.13
987.89	227.14
988.18	227.12
988.47	227.09
988.76	227.11
989.05	227.12
989.34	227.14
989.63	227.16
989.92	227.15
990.22	227.12
990.51	227.15
990.80	227.11
991.09	227.10
991.38	227.14
991.67	227.10
991.96	227.07
992.25	227.06
992.54	227.06
992.83	227.09
993.12	227.09
993.41	227.15
993.70	227.21
993.99	227.23
994.28	227.24
994.58	227.30
994.87	227.31
995.16	227.31
995.45	227.30
995.74	227.27
996.03	227.31
996.32	227.34
996.61	227.34
996.90	227.37
997.19	227.39
997.48	227.34
997.77	227.35
998.06	227.37
998.34	227.35
998.63	227.37
998.92	227.34
999.21	227.34
999.50	227.33
999.79	227.29
1000.08	227.30
1000.37	227.31
1000.66	227.28
1000.95	227.29
1001.24	227.29
1001.53	227.29
1001.82	227.31
1002.11	227.24
1002.40	227.23
1002.68	227.27
1002.97	227.32
1003.26	227.29
1003.55	227.32
1003.84	227.31
1004.13	227.37
1004.42	227.35
1004.71	227.33
1004.99	227.33
1005.28	227.34
1005.57	227.32
1005.86	227.32
1006.15	227.28
1006.44	227.26
1006.72	227.26
1007.01	227.21
1007.30	227.18
1007.59	227.17
1007.88	227.15
1008.17	227.17
1008.45	227.16
1008.74	227.10
1009.03	227.05
1009.32	227.01
1009.60	227.02
1009.89	227.03
1010.18	226.98
1010.47	226.98
1010.76	226.96
1011.04	226.95
1011.33	226.95
1011.62	226.93
1011.91	226.93
1012.19	226.93
1012.48	226.90
1012.77	226.90
1013.05	226.96
1013.34	226.96
1013.63	226.94
1013.92	226.94
1014.20	226.94
1014.49	226.91
1014.78	226.94
1015.06	226.88
1015.35	226.88
1015.64	226.88
1015.92	226.89
1016.21	226.90
1016.50	226.89
1016.78	226.90
1017.07	226.88
1017.36	226.84
1017.64	226.87
1017.93	226.86
1018.22	226.87
1018.50	226.89
1018.79	226.89
1019.08	226.86
1019.36	226.85
1019.65	226.82
1019.93	226.86
1020.22	226.83
1020.51	226.90
1020.79	226.87
1021.08	226.96
1021.36	227.01
1021.65	227.17
1021.94	227.09
1022.22	226.56
1022.51	226.27
1022.79	227.76
1023.08	226.65
1023.36	228.16
1023.65	226.66
>>>>>End Processed Spectral Data<<<<<
