SpectraSuite Data File
++++++++++++++++++++++++++++++++++++
Date: Fri Feb 01 15:40:10 EST 2013
User: group
Dark Spectrum Present: No
Reference Spectrum Present: No
Number of Sampled Component Spectra: 1
Spectrometers: USB2E7196
Integration Time (usec): 35000 (USB2E7196)
Spectra Averaged: 100 (USB2E7196)
Boxcar Smoothing: 10 (USB2E7196)
Correct for Electrical Dark: No (USB2E7196)
Strobe/Lamp Enabled: No (USB2E7196)
Correct for Detector Non-linearity: No (USB2E7196)
Correct for Stray Light: No (USB2E7196)
Number of Pixels in Processed Spectrum: 2048
>>>>>Begin Processed Spectral Data<<<<<
339.09	0.00
339.48	214.59
339.86	216.39
340.24	217.86
340.63	218.25
341.01	222.35
341.39	221.99
341.78	222.76
342.16	224.00
342.54	224.41
342.93	213.17
343.31	223.92
343.69	224.49
344.07	224.98
344.46	225.43
344.84	225.84
345.22	226.05
345.60	226.29
345.99	226.49
346.37	226.65
346.75	226.76
347.13	226.85
347.52	226.86
347.90	226.91
348.28	226.97
348.66	227.02
349.05	227.02
349.43	227.09
349.81	227.15
350.19	227.16
350.57	227.24
350.96	227.28
351.34	227.40
351.72	227.50
352.10	227.59
352.48	227.65
352.87	227.71
353.25	227.78
353.63	227.86
354.01	227.94
354.39	228.01
354.77	228.13
355.15	228.28
355.54	228.35
355.92	228.42
356.30	228.48
356.68	228.64
357.06	228.73
357.44	228.74
357.82	228.82
358.20	228.92
358.58	228.99
358.97	229.07
359.35	229.13
359.73	229.20
360.11	229.25
360.49	229.29
360.87	229.31
361.25	229.40
361.63	229.46
362.01	229.48
362.39	229.50
362.77	229.52
363.15	229.52
363.53	229.57
363.91	229.59
364.29	229.59
364.67	229.50
365.05	229.51
365.43	229.54
365.81	229.53
366.19	229.57
366.57	229.59
366.95	229.57
367.33	229.57
367.71	229.56
368.09	229.55
368.47	229.50
368.85	229.50
369.23	229.51
369.61	229.47
369.99	229.48
370.37	229.47
370.75	229.47
371.13	229.45
371.51	229.38
371.89	229.32
372.27	229.27
372.65	229.22
373.03	229.18
373.41	229.11
373.78	229.04
374.16	228.88
374.54	228.81
374.92	228.74
375.30	228.65
375.68	228.55
376.06	228.45
376.44	228.39
376.82	228.33
377.19	228.19
377.57	228.11
377.95	227.98
378.33	227.88
378.71	227.75
379.09	227.65
379.47	227.60
379.84	227.50
380.22	227.41
380.60	227.30
380.98	227.25
381.36	227.20
381.73	227.13
382.11	227.11
382.49	227.01
382.87	226.92
383.25	226.84
383.62	226.90
384.00	226.84
384.38	226.79
384.76	226.73
385.13	226.71
385.51	226.63
385.89	226.58
386.27	226.55
386.64	226.50
387.02	226.43
387.40	226.38
387.78	226.35
388.15	226.34
388.53	226.32
388.91	226.24
389.29	226.15
389.66	226.15
390.04	226.10
390.42	226.10
390.79	226.12
391.17	226.07
391.55	225.95
391.92	225.96
392.30	225.98
392.68	225.95
393.05	225.97
393.43	226.01
393.81	226.05
394.18	226.05
394.56	226.07
394.94	226.13
395.31	226.15
395.69	226.25
396.06	226.32
396.44	226.36
396.82	226.39
397.19	226.56
397.57	226.57
397.95	226.67
398.32	226.68
398.70	226.75
399.07	226.88
399.45	226.95
399.82	227.01
400.20	227.05
400.58	227.19
400.95	227.26
401.33	227.34
401.70	227.51
402.08	227.61
402.45	227.72
402.83	227.82
403.20	227.94
403.58	227.99
403.95	228.10
404.33	228.27
404.71	228.38
405.08	228.56
405.46	228.74
405.83	228.88
406.21	229.05
406.58	229.22
406.96	229.37
407.33	229.57
407.70	229.75
408.08	230.06
408.45	230.26
408.83	230.46
409.20	230.69
409.58	230.88
409.95	231.14
410.33	231.41
410.70	231.68
411.08	231.94
411.45	232.31
411.82	232.63
412.20	232.94
412.57	233.40
412.95	233.69
413.32	234.09
413.69	234.50
414.07	234.93
414.44	235.41
414.82	235.89
415.19	236.43
415.56	237.02
415.94	237.50
416.31	238.12
416.68	238.78
417.06	239.48
417.43	240.15
417.81	240.89
418.18	241.66
418.55	242.50
418.93	243.39
419.30	244.24
419.67	245.15
420.04	246.12
420.42	247.09
420.79	248.24
421.16	249.36
421.54	250.53
421.91	251.76
422.28	253.00
422.66	254.28
423.03	255.56
423.40	256.89
423.77	258.29
424.15	259.71
424.52	261.18
424.89	262.75
425.26	264.28
425.64	265.75
426.01	267.33
426.38	268.97
426.75	270.63
427.13	272.39
427.50	274.22
427.87	276.07
428.24	277.93
428.61	279.68
428.99	281.65
429.36	283.76
429.73	285.81
430.10	287.80
430.47	289.88
430.85	291.98
431.22	294.22
431.59	296.60
431.96	298.83
432.33	301.32
432.70	303.73
433.08	306.58
433.45	309.21
433.82	311.80
434.19	314.69
434.56	317.50
434.93	320.10
435.30	322.71
435.68	325.63
436.05	328.49
436.42	331.31
436.79	333.84
437.16	336.52
437.53	339.35
437.90	342.17
438.27	344.94
438.64	347.78
439.01	350.33
439.38	352.58
439.75	354.75
440.13	357.20
440.50	359.55
440.87	361.38
441.24	363.29
441.61	365.51
441.98	367.00
442.35	368.79
442.72	370.67
443.09	372.49
443.46	373.52
443.83	374.08
444.20	374.56
444.57	375.40
444.94	375.69
445.31	376.06
445.68	376.45
446.05	376.49
446.42	376.12
446.79	375.73
447.16	375.29
447.53	375.03
447.90	373.91
448.27	372.76
448.64	371.20
449.01	370.05
449.37	368.04
449.74	366.15
450.11	363.94
450.48	361.49
450.85	358.95
451.22	356.77
451.59	354.76
451.96	352.84
452.33	350.26
452.70	347.93
453.07	345.09
453.43	342.18
453.80	339.44
454.17	336.79
454.54	334.25
454.91	331.54
455.28	328.83
455.65	326.35
456.02	323.85
456.38	321.68
456.75	319.06
457.12	316.80
457.49	314.57
457.86	312.42
458.23	310.54
458.59	308.53
458.96	306.42
459.33	304.57
459.70	302.67
460.07	301.14
460.43	299.39
460.80	297.75
461.17	296.29
461.54	294.78
461.91	293.33
462.27	291.90
462.64	290.66
463.01	289.33
463.38	288.03
463.74	286.68
464.11	285.54
464.48	284.49
464.85	283.37
465.21	282.50
465.58	281.56
465.95	280.44
466.32	279.50
466.68	278.63
467.05	277.71
467.42	276.85
467.78	275.89
468.15	275.05
468.52	274.38
468.88	273.52
469.25	272.76
469.62	272.12
469.98	271.42
470.35	270.79
470.72	270.15
471.08	269.50
471.45	268.95
471.82	268.38
472.18	267.75
472.55	267.33
472.92	266.79
473.28	266.33
473.65	265.93
474.02	265.46
474.38	265.07
474.75	264.74
475.11	264.37
475.48	264.09
475.85	263.80
476.21	263.55
476.58	263.40
476.94	263.23
477.31	263.05
477.67	262.91
478.04	262.76
478.41	262.71
478.77	262.71
479.14	262.64
479.50	262.65
479.87	262.79
480.23	262.85
480.60	262.93
480.96	263.03
481.33	263.23
481.69	263.45
482.06	263.65
482.42	263.87
482.79	264.12
483.15	264.48
483.52	264.89
483.88	265.24
484.25	265.58
484.61	266.00
484.98	266.47
485.34	267.00
485.71	267.62
486.07	268.24
486.44	268.82
486.80	269.52
487.17	270.26
487.53	271.06
487.90	271.93
488.26	272.84
488.62	273.85
488.99	274.80
489.35	275.85
489.72	276.99
490.08	278.21
490.44	279.48
490.81	280.80
491.17	282.15
491.54	283.64
491.90	285.23
492.26	286.90
492.63	288.65
492.99	290.49
493.36	292.39
493.72	294.42
494.08	296.59
494.45	298.80
494.81	301.13
495.17	303.57
495.54	306.17
495.90	308.89
496.26	311.66
496.63	314.61
496.99	317.73
497.35	321.02
497.72	324.43
498.08	327.96
498.44	331.64
498.80	335.57
499.17	339.64
499.53	343.81
499.89	348.20
500.26	352.70
500.62	357.37
500.98	362.34
501.34	367.47
501.71	372.73
502.07	378.22
502.43	383.88
502.79	389.72
503.16	395.82
503.52	402.12
503.88	408.53
504.24	415.12
504.60	421.97
504.97	429.09
505.33	436.34
505.69	444.02
506.05	451.80
506.41	459.69
506.78	467.82
507.14	476.27
507.50	485.01
507.86	494.06
508.22	503.33
508.59	512.51
508.95	522.11
509.31	531.92
509.67	542.07
510.03	552.31
510.39	562.89
510.75	573.68
511.12	584.52
511.48	595.87
511.84	607.44
512.20	618.95
512.56	630.86
512.92	643.08
513.28	655.42
513.64	667.89
514.00	680.53
514.37	693.44
514.73	706.53
515.09	719.55
515.45	732.82
515.81	746.26
516.17	760.17
516.53	774.29
516.89	788.48
517.25	802.55
517.61	817.01
517.97	831.48
518.33	845.85
518.69	860.69
519.05	875.63
519.41	890.79
519.77	906.34
520.13	921.81
520.49	937.21
520.85	952.63
521.21	968.40
521.57	984.63
521.93	1000.51
522.29	1016.98
522.65	1033.19
523.01	1049.44
523.37	1065.51
523.73	1081.75
524.09	1097.84
524.45	1114.27
524.81	1131.00
525.17	1147.86
525.53	1164.74
525.89	1181.61
526.25	1198.46
526.61	1214.87
526.97	1231.54
527.33	1248.01
527.68	1264.76
528.04	1281.36
528.40	1298.00
528.76	1315.01
529.12	1331.70
529.48	1348.59
529.84	1364.53
530.20	1381.23
530.56	1398.23
530.91	1415.73
531.27	1432.56
531.63	1449.09
531.99	1465.60
532.35	1481.62
532.71	1497.57
533.07	1513.70
533.42	1529.72
533.78	1545.79
534.14	1562.11
534.50	1577.58
534.86	1593.52
535.21	1608.60
535.57	1624.48
535.93	1640.03
536.29	1654.82
536.65	1669.94
537.00	1684.70
537.36	1699.94
537.72	1714.34
538.08	1728.75
538.44	1742.43
538.79	1756.33
539.15	1770.02
539.51	1783.70
539.87	1798.00
540.22	1811.75
540.58	1825.62
540.94	1838.95
541.29	1851.96
541.65	1864.64
542.01	1877.84
542.37	1890.13
542.72	1902.66
543.08	1914.39
543.44	1926.79
543.79	1938.00
544.15	1949.00
544.51	1960.53
544.87	1971.49
545.22	1982.39
545.58	1992.63
545.94	2002.56
546.29	2012.42
546.65	2022.13
547.01	2031.34
547.36	2040.05
547.72	2048.48
548.07	2056.48
548.43	2064.70
548.79	2072.67
549.14	2080.18
549.50	2087.61
549.86	2095.31
550.21	2102.59
550.57	2109.82
550.92	2116.35
551.28	2123.55
551.64	2130.49
551.99	2137.10
552.35	2143.37
552.70	2149.54
553.06	2155.54
553.41	2161.68
553.77	2167.69
554.13	2173.78
554.48	2180.01
554.84	2185.46
555.19	2190.66
555.55	2195.70
555.90	2199.95
556.26	2204.75
556.61	2209.57
556.97	2213.65
557.32	2217.81
557.68	2221.95
558.03	2226.27
558.39	2230.04
558.74	2234.65
559.10	2238.53
559.45	2242.06
559.81	2246.38
560.16	2250.21
560.52	2253.54
560.87	2257.02
561.23	2259.68
561.58	2262.76
561.94	2265.34
562.29	2267.70
562.64	2270.47
563.00	2273.08
563.35	2276.74
563.71	2279.88
564.06	2283.04
564.42	2286.00
564.77	2288.56
565.12	2290.75
565.48	2292.51
565.83	2294.30
566.19	2295.46
566.54	2296.37
566.89	2297.45
567.25	2297.90
567.60	2299.30
567.96	2300.82
568.31	2301.71
568.66	2302.76
569.02	2303.24
569.37	2303.53
569.72	2304.47
570.08	2304.48
570.43	2304.53
570.78	2303.86
571.14	2302.27
571.49	2300.98
571.84	2300.55
572.20	2299.24
572.55	2298.14
572.90	2296.61
573.26	2295.20
573.61	2293.57
573.96	2291.89
574.31	2289.11
574.67	2286.14
575.02	2282.36
575.37	2279.13
575.72	2275.34
576.08	2272.08
576.43	2268.75
576.78	2264.93
577.13	2261.74
577.49	2258.66
577.84	2255.01
578.19	2251.31
578.54	2247.67
578.90	2243.38
579.25	2237.86
579.60	2232.79
579.95	2227.72
580.30	2222.64
580.66	2217.40
581.01	2212.45
581.36	2207.42
581.71	2203.03
582.06	2198.47
582.42	2194.03
582.77	2188.57
583.12	2183.94
583.47	2179.10
583.82	2173.97
584.17	2168.80
584.53	2163.19
584.88	2157.55
585.23	2151.75
585.58	2146.18
585.93	2140.65
586.28	2135.85
586.63	2130.69
586.98	2125.70
587.34	2121.02
587.69	2116.18
588.04	2110.87
588.39	2105.02
588.74	2098.50
589.09	2092.39
589.44	2085.59
589.79	2079.45
590.14	2073.87
590.49	2067.33
590.84	2060.91
591.19	2054.89
591.54	2048.36
591.89	2040.84
592.25	2034.06
592.60	2026.83
592.95	2019.33
593.30	2011.97
593.65	2004.32
594.00	1997.39
594.35	1990.22
594.70	1982.13
595.05	1974.74
595.40	1967.61
595.75	1960.14
596.10	1953.90
596.45	1947.12
596.80	1941.06
597.15	1934.51
597.50	1927.34
597.85	1920.88
598.19	1914.28
598.54	1907.20
598.89	1900.46
599.24	1894.70
599.59	1887.93
599.94	1881.73
600.29	1875.37
600.64	1868.77
600.99	1861.21
601.34	1854.29
601.69	1847.30
602.04	1840.41
602.39	1833.17
602.74	1826.28
603.08	1819.70
603.43	1812.94
603.78	1805.64
604.13	1798.43
604.48	1790.94
604.83	1784.04
605.18	1776.93
605.53	1768.78
605.87	1760.66
606.22	1753.45
606.57	1745.47
606.92	1738.22
607.27	1730.94
607.62	1723.97
607.96	1716.63
608.31	1709.98
608.66	1702.24
609.01	1694.54
609.36	1686.97
609.70	1678.93
610.05	1670.73
610.40	1662.88
610.75	1654.57
611.10	1646.82
611.44	1638.44
611.79	1630.69
612.14	1622.01
612.49	1612.84
612.83	1604.60
613.18	1596.50
613.53	1588.37
613.88	1579.85
614.22	1571.49
614.57	1562.98
614.92	1554.93
615.27	1547.42
615.61	1539.04
615.96	1531.15
616.31	1523.71
616.65	1516.25
617.00	1508.68
617.35	1501.15
617.70	1492.72
618.04	1484.09
618.39	1475.88
618.74	1468.19
619.08	1459.79
619.43	1452.22
619.78	1445.24
620.12	1437.96
620.47	1430.47
620.82	1422.33
621.16	1414.91
621.51	1407.51
621.85	1399.88
622.20	1391.25
622.55	1382.82
622.89	1375.08
623.24	1367.41
623.59	1359.96
623.93	1352.56
624.28	1345.27
624.62	1337.58
624.97	1330.45
625.32	1323.90
625.66	1316.96
626.01	1309.75
626.35	1302.28
626.70	1294.62
627.04	1286.97
627.39	1279.22
627.73	1271.82
628.08	1265.05
628.43	1257.65
628.77	1250.08
629.12	1242.59
629.46	1235.49
629.81	1228.21
630.15	1221.08
630.50	1213.64
630.84	1205.38
631.19	1197.46
631.53	1189.99
631.88	1182.51
632.22	1175.01
632.57	1167.52
632.91	1159.96
633.26	1152.43
633.60	1145.12
633.95	1137.99
634.29	1130.97
634.64	1124.39
634.98	1117.03
635.32	1109.81
635.67	1103.23
636.01	1096.55
636.36	1089.60
636.70	1083.15
637.05	1076.54
637.39	1070.04
637.73	1063.49
638.08	1057.58
638.42	1051.58
638.77	1045.16
639.11	1038.49
639.45	1032.02
639.80	1025.46
640.14	1018.96
640.49	1012.51
640.83	1006.14
641.17	999.86
641.52	993.49
641.86	986.90
642.20	981.02
642.55	974.78
642.89	968.32
643.23	961.84
643.58	956.15
643.92	950.00
644.26	943.89
644.61	937.91
644.95	931.96
645.29	925.39
645.64	918.61
645.98	912.32
646.32	906.63
646.66	900.59
647.01	894.73
647.35	889.09
647.69	883.29
648.04	877.74
648.38	871.96
648.72	865.99
649.06	860.02
649.41	854.18
649.75	848.15
650.09	842.21
650.43	836.37
650.78	830.22
651.12	824.12
651.46	818.32
651.80	812.57
652.14	807.13
652.49	801.72
652.83	796.64
653.17	790.88
653.51	785.10
653.85	779.70
654.20	774.13
654.54	768.08
654.88	762.34
655.22	756.51
655.56	750.88
655.90	745.37
656.25	740.02
656.59	734.66
656.93	729.57
657.27	724.41
657.61	719.01
657.95	713.94
658.29	708.92
658.64	703.66
658.98	698.27
659.32	692.77
659.66	687.61
660.00	682.15
660.34	677.15
660.68	672.20
661.02	667.27
661.36	662.49
661.70	657.98
662.05	653.62
662.39	649.23
662.73	644.75
663.07	640.41
663.41	636.03
663.75	631.49
664.09	626.91
664.43	622.47
664.77	618.36
665.11	614.05
665.45	609.88
665.79	605.88
666.13	601.78
666.47	597.72
666.81	593.53
667.15	589.50
667.49	585.70
667.83	581.90
668.17	577.95
668.51	573.90
668.85	569.83
669.19	565.99
669.53	562.19
669.87	558.32
670.21	554.63
670.55	550.96
670.89	547.60
671.23	544.24
671.57	540.75
671.91	537.20
672.25	533.70
672.58	530.20
672.92	526.81
673.26	523.67
673.60	520.59
673.94	517.55
674.28	514.62
674.62	511.65
674.96	508.59
675.30	505.67
675.64	502.74
675.97	500.06
676.31	497.18
676.65	494.26
676.99	491.49
677.33	488.64
677.67	485.86
678.01	482.84
678.34	479.84
678.68	476.97
679.02	474.13
679.36	471.39
679.70	468.71
680.04	465.91
680.37	463.02
680.71	460.18
681.05	457.53
681.39	454.86
681.73	452.20
682.06	449.65
682.40	447.09
682.74	444.66
683.08	442.11
683.42	439.55
683.75	437.07
684.09	434.61
684.43	432.08
684.77	429.68
685.10	427.33
685.44	425.01
685.78	422.81
686.12	420.63
686.45	418.37
686.79	416.06
687.13	413.97
687.46	411.82
687.80	409.70
688.14	407.48
688.48	405.38
688.81	403.11
689.15	400.94
689.49	398.78
689.82	396.63
690.16	394.52
690.50	392.60
690.83	390.65
691.17	388.62
691.51	386.79
691.84	384.94
692.18	382.99
692.52	381.00
692.85	379.03
693.19	377.13
693.52	375.33
693.86	373.54
694.20	371.71
694.53	369.92
694.87	368.05
695.21	366.31
695.54	364.47
695.88	362.82
696.21	361.14
696.55	359.46
696.88	357.78
697.22	356.16
697.56	354.54
697.89	352.91
698.23	351.35
698.56	349.73
698.90	348.07
699.23	346.45
699.57	344.95
699.90	343.41
700.24	341.87
700.58	340.30
700.91	338.79
701.25	337.34
701.58	336.00
701.92	334.65
702.25	333.25
702.59	331.89
702.92	330.51
703.26	329.20
703.59	327.95
703.93	326.77
704.26	325.52
704.60	324.20
704.93	322.88
705.26	321.65
705.60	320.51
705.93	319.37
706.27	318.32
706.60	317.25
706.94	316.15
707.27	315.00
707.61	313.96
707.94	312.94
708.27	311.82
708.61	310.73
708.94	309.76
709.28	308.79
709.61	307.83
709.94	306.90
710.28	305.84
710.61	304.91
710.95	303.84
711.28	302.91
711.61	301.95
711.95	301.05
712.28	300.06
712.61	299.03
712.95	298.10
713.28	297.18
713.61	296.26
713.95	295.38
714.28	294.56
714.61	293.67
714.95	292.85
715.28	292.00
715.61	291.12
715.95	290.24
716.28	289.41
716.61	288.61
716.95	287.79
717.28	287.11
717.61	286.30
717.94	285.61
718.28	284.78
718.61	284.05
718.94	283.33
719.27	282.72
719.61	282.09
719.94	281.44
720.27	280.74
720.60	280.06
720.94	279.43
721.27	278.83
721.60	278.25
721.93	277.66
722.27	277.10
722.60	276.52
722.93	275.95
723.26	275.38
723.59	274.83
723.93	274.32
724.26	273.76
724.59	273.21
724.92	272.63
725.25	272.16
725.59	271.66
725.92	271.15
726.25	270.60
726.58	270.13
726.91	269.63
727.24	269.14
727.57	268.72
727.91	268.21
728.24	267.74
728.57	267.29
728.90	266.83
729.23	266.37
729.56	265.93
729.89	265.47
730.22	265.00
730.55	264.53
730.89	264.04
731.22	263.56
731.55	263.11
731.88	262.72
732.21	262.28
732.54	261.84
732.87	261.43
733.20	261.04
733.53	260.63
733.86	260.25
734.19	259.86
734.52	259.45
734.85	259.15
735.18	258.69
735.51	258.33
735.84	257.95
736.17	257.59
736.50	257.21
736.83	256.96
737.16	256.61
737.49	256.29
737.82	255.93
738.15	255.62
738.48	255.29
738.81	254.96
739.14	254.65
739.47	254.36
739.80	254.03
740.13	253.75
740.46	253.40
740.79	253.06
741.12	252.76
741.45	252.47
741.78	252.10
742.11	251.87
742.44	251.54
742.77	251.25
743.10	250.95
743.43	250.67
743.75	250.31
744.08	250.16
744.41	249.84
744.74	249.61
745.07	249.33
745.40	249.11
745.73	248.86
746.06	248.58
746.39	248.30
746.71	248.06
747.04	247.76
747.37	247.51
747.70	247.30
748.03	247.07
748.36	246.85
748.68	246.63
749.01	246.36
749.34	246.13
749.67	245.90
750.00	245.70
750.33	245.53
750.65	245.31
750.98	244.97
751.31	244.77
751.64	244.53
751.97	244.36
752.29	244.11
752.62	243.85
752.95	243.67
753.28	243.45
753.60	243.22
753.93	243.08
754.26	242.88
754.59	242.65
754.91	242.43
755.24	242.22
755.57	242.02
755.90	241.88
756.22	241.66
756.55	241.46
756.88	241.23
757.20	241.03
757.53	240.83
757.86	240.68
758.19	240.54
758.51	240.36
758.84	240.14
759.17	239.98
759.49	239.86
759.82	239.74
760.15	239.57
760.47	239.46
760.80	239.26
761.13	239.14
761.45	238.97
761.78	238.85
762.11	238.69
762.43	238.55
762.76	238.37
763.08	238.25
763.41	238.13
763.74	237.97
764.06	237.83
764.39	237.71
764.71	237.54
765.04	237.35
765.37	237.25
765.69	237.09
766.02	236.92
766.34	236.75
766.67	236.61
767.00	236.55
767.32	236.46
767.65	236.42
767.97	236.27
768.30	236.18
768.62	236.08
768.95	235.99
769.27	235.86
769.60	235.76
769.92	235.64
770.25	235.51
770.57	235.42
770.90	235.31
771.22	235.18
771.55	235.11
771.87	235.06
772.20	234.95
772.52	234.98
772.85	235.03
773.17	234.95
773.50	234.82
773.82	234.69
774.15	234.53
774.47	234.34
774.80	234.24
775.12	234.12
775.45	234.02
775.77	233.92
776.09	233.85
776.42	233.77
776.74	233.75
777.07	233.67
777.39	233.61
777.72	233.49
778.04	233.44
778.36	233.36
778.69	233.28
779.01	233.21
779.33	233.05
779.66	232.87
779.98	232.83
780.31	232.75
780.63	232.72
780.95	232.66
781.28	232.62
781.60	232.58
781.92	232.53
782.25	232.45
782.57	232.40
782.89	232.35
783.22	232.25
783.54	232.17
783.86	232.13
784.19	232.06
784.51	232.06
784.83	231.99
785.16	231.92
785.48	231.90
785.80	231.85
786.12	231.83
786.45	231.79
786.77	231.73
787.09	231.70
787.42	231.64
787.74	231.61
788.06	231.57
788.38	231.52
788.71	231.48
789.03	231.45
789.35	231.45
789.67	231.39
789.99	231.39
790.32	231.32
790.64	231.31
790.96	231.34
791.28	231.27
791.61	231.26
791.93	231.25
792.25	231.18
792.57	231.24
792.89	231.19
793.21	231.16
793.54	231.12
793.86	231.06
794.18	231.03
794.50	230.99
794.82	230.96
795.14	230.94
795.47	230.88
795.79	230.89
796.11	230.79
796.43	230.75
796.75	230.71
797.07	230.68
797.39	230.62
797.71	230.54
798.04	230.51
798.36	230.47
798.68	230.42
799.00	230.39
799.32	230.30
799.64	230.27
799.96	230.23
800.28	230.21
800.60	230.19
800.92	230.18
801.24	230.14
801.56	230.13
801.89	230.08
802.21	230.06
802.53	230.00
802.85	230.00
803.17	230.01
803.49	229.95
803.81	229.92
804.13	229.90
804.45	229.84
804.77	229.84
805.09	229.80
805.41	229.78
805.73	229.75
806.05	229.69
806.37	229.67
806.69	229.62
807.01	229.56
807.33	229.54
807.65	229.46
807.97	229.49
808.28	229.43
808.60	229.39
808.92	229.37
809.24	229.38
809.56	229.36
809.88	229.29
810.20	229.28
810.52	229.28
810.84	229.23
811.16	229.18
811.48	229.14
811.80	229.16
812.12	229.11
812.43	229.11
812.75	229.11
813.07	229.05
813.39	229.03
813.71	229.04
814.03	228.99
814.35	228.97
814.67	228.93
814.98	228.92
815.30	228.90
815.62	228.87
815.94	228.81
816.26	228.82
816.58	228.78
816.89	228.74
817.21	228.70
817.53	228.69
817.85	228.67
818.17	228.66
818.48	228.59
818.80	228.58
819.12	228.55
819.44	228.53
819.76	228.51
820.07	228.52
820.39	228.50
820.71	228.51
821.03	228.50
821.34	228.45
821.66	228.45
821.98	228.45
822.30	228.44
822.61	228.46
822.93	228.41
823.25	228.46
823.57	228.47
823.88	228.50
824.20	228.50
824.52	228.54
824.83	228.51
825.15	228.50
825.47	228.49
825.79	228.47
826.10	228.44
826.42	228.44
826.74	228.42
827.05	228.37
827.37	228.38
827.69	228.35
828.00	228.35
828.32	228.35
828.64	228.33
828.95	228.37
829.27	228.34
829.58	228.29
829.90	228.28
830.22	228.27
830.53	228.22
830.85	228.16
831.17	228.11
831.48	228.10
831.80	228.06
832.11	228.05
832.43	228.02
832.75	228.04
833.06	228.08
833.38	228.06
833.69	228.05
834.01	227.99
834.32	228.01
834.64	227.98
834.96	227.95
835.27	227.98
835.59	227.96
835.90	227.93
836.22	227.93
836.53	227.87
836.85	227.85
837.16	227.93
837.48	227.95
837.79	227.95
838.11	227.95
838.42	227.97
838.74	227.97
839.05	227.97
839.37	227.93
839.68	227.85
840.00	227.83
840.31	227.85
840.63	227.87
840.94	227.81
841.26	227.78
841.57	227.78
841.88	227.74
842.20	227.64
842.51	227.66
842.83	227.65
843.14	227.76
843.46	227.76
843.77	227.69
844.08	227.67
844.40	227.63
844.71	227.62
845.03	227.61
845.34	227.59
845.65	227.56
845.97	227.56
846.28	227.56
846.60	227.54
846.91	227.50
847.22	227.48
847.54	227.53
847.85	227.54
848.16	227.51
848.48	227.46
848.79	227.53
849.10	227.49
849.42	227.49
849.73	227.38
850.04	227.35
850.36	227.30
850.67	227.29
850.98	227.30
851.30	227.30
851.61	227.30
851.92	227.28
852.23	227.30
852.55	227.27
852.86	227.27
853.17	227.27
853.49	227.29
853.80	227.29
854.11	227.28
854.42	227.27
854.74	227.25
855.05	227.26
855.36	227.21
855.67	227.22
855.99	227.21
856.30	227.27
856.61	227.28
856.92	227.30
857.23	227.31
857.55	227.29
857.86	227.26
858.17	227.28
858.48	227.29
858.79	227.26
859.11	227.30
859.42	227.29
859.73	227.28
860.04	227.27
860.35	227.23
860.66	227.22
860.98	227.21
861.29	227.25
861.60	227.24
861.91	227.29
862.22	227.30
862.53	227.29
862.84	227.22
863.16	227.23
863.47	227.19
863.78	227.16
864.09	227.17
864.40	227.21
864.71	227.18
865.02	227.20
865.33	227.18
865.64	227.20
865.95	227.22
866.27	227.25
866.58	227.25
866.89	227.30
867.20	227.28
867.51	227.25
867.82	227.23
868.13	227.25
868.44	227.22
868.75	227.23
869.06	227.22
869.37	227.25
869.68	227.25
869.99	227.28
870.30	227.33
870.61	227.35
870.92	227.32
871.23	227.32
871.54	227.33
871.85	227.38
872.16	227.36
872.47	227.31
872.78	227.30
873.09	227.26
873.40	227.23
873.71	227.25
874.02	227.30
874.33	227.27
874.64	227.28
874.95	227.31
875.26	227.26
875.56	227.27
875.87	227.24
876.18	227.21
876.49	227.32
876.80	227.29
877.11	227.27
877.42	227.27
877.73	227.26
878.04	227.25
878.35	227.23
878.66	227.22
878.96	227.25
879.27	227.21
879.58	227.22
879.89	227.20
880.20	227.24
880.51	227.21
880.82	227.24
881.12	227.25
881.43	227.24
881.74	227.25
882.05	227.24
882.36	227.27
882.67	227.31
882.97	227.22
883.28	227.19
883.59	227.21
883.90	227.21
884.21	227.23
884.51	227.18
884.82	227.14
885.13	227.15
885.44	227.16
885.74	227.16
886.05	227.16
886.36	227.19
886.67	227.15
886.98	227.20
887.28	227.22
887.59	227.19
887.90	227.16
888.20	227.15
888.51	227.20
888.82	227.17
889.13	227.14
889.43	227.18
889.74	227.21
890.05	227.19
890.35	227.17
890.66	227.13
890.97	227.15
891.28	227.16
891.58	227.14
891.89	227.11
892.20	227.13
892.50	227.13
892.81	227.11
893.12	227.10
893.42	227.04
893.73	227.02
894.04	227.02
894.34	227.04
894.65	227.04
894.95	227.01
895.26	227.02
895.57	227.07
895.87	227.01
896.18	227.02
896.48	227.01
896.79	227.00
897.10	227.04
897.40	227.06
897.71	227.08
898.01	227.09
898.32	227.11
898.63	227.11
898.93	227.12
899.24	227.15
899.54	227.15
899.85	227.16
900.15	227.16
900.46	227.16
900.76	227.16
901.07	227.18
901.38	227.18
901.68	227.19
901.99	227.12
902.29	227.13
902.60	227.11
902.90	227.13
903.21	227.13
903.51	227.10
903.82	227.11
904.12	227.12
904.43	227.11
904.73	227.10
905.03	227.07
905.34	227.17
905.64	227.13
905.95	227.14
906.25	227.14
906.56	227.13
906.86	227.12
907.17	227.11
907.47	227.10
907.77	227.07
908.08	227.06
908.38	227.06
908.69	227.02
908.99	227.04
909.30	227.06
909.60	227.07
909.90	227.08
910.21	227.04
910.51	227.01
910.81	227.02
911.12	227.01
911.42	227.03
911.73	226.89
912.03	226.90
912.33	226.94
912.64	226.92
912.94	226.91
913.24	226.89
913.55	226.90
913.85	226.87
914.15	226.87
914.46	226.84
914.76	226.84
915.06	226.84
915.37	226.82
915.67	226.79
915.97	226.78
916.27	226.72
916.58	226.75
916.88	226.77
917.18	226.73
917.49	226.79
917.79	226.80
918.09	226.85
918.39	226.86
918.70	226.84
919.00	226.87
919.30	226.94
919.60	226.94
919.91	226.91
920.21	226.94
920.51	226.93
920.81	226.97
921.12	227.00
921.42	226.99
921.72	226.97
922.02	226.99
922.32	227.01
922.63	227.05
922.93	227.11
923.23	227.10
923.53	227.12
923.83	227.07
924.13	227.03
924.44	227.04
924.74	227.07
925.04	227.11
925.34	227.08
925.64	227.04
925.94	227.02
926.24	227.06
926.55	227.05
926.85	227.07
927.15	227.05
927.45	227.05
927.75	227.05
928.05	227.05
928.35	227.06
928.65	227.08
928.95	227.10
929.26	227.06
929.56	227.09
929.86	227.10
930.16	227.09
930.46	227.10
930.76	227.11
931.06	227.07
931.36	227.01
931.66	227.04
931.96	227.02
932.26	227.07
932.56	227.07
932.86	227.10
933.16	227.09
933.46	227.08
933.76	227.08
934.06	227.13
934.36	227.17
934.66	227.15
934.96	227.13
935.26	227.14
935.56	227.16
935.86	227.12
936.16	227.09
936.46	227.10
936.76	227.08
937.06	227.05
937.36	227.08
937.66	227.08
937.96	227.04
938.26	227.01
938.56	226.98
938.86	226.98
939.16	227.00
939.46	227.03
939.76	227.03
940.06	227.01
940.35	227.00
940.65	226.97
940.95	226.99
941.25	226.98
941.55	226.95
941.85	226.92
942.15	226.92
942.45	226.96
942.75	226.95
943.04	226.94
943.34	226.96
943.64	226.93
943.94	226.92
944.24	226.92
944.54	226.93
944.84	226.93
945.13	226.91
945.43	226.85
945.73	226.80
946.03	226.80
946.33	226.80
946.62	226.78
946.92	226.74
947.22	226.77
947.52	226.75
947.82	226.75
948.11	226.73
948.41	226.75
948.71	226.72
949.01	226.73
949.31	226.74
949.60	226.71
949.90	226.72
950.20	226.73
950.50	226.74
950.79	226.75
951.09	226.76
951.39	226.76
951.69	226.73
951.98	226.75
952.28	226.75
952.58	226.73
952.87	226.73
953.17	226.77
953.47	226.75
953.76	226.77
954.06	226.76
954.36	226.75
954.66	226.75
954.95	226.79
955.25	226.76
955.55	226.78
955.84	226.79
956.14	226.80
956.44	226.80
956.73	226.80
957.03	226.81
957.32	226.80
957.62	226.80
957.92	226.85
958.21	226.87
958.51	226.98
958.81	227.00
959.10	227.03
959.40	227.08
959.69	227.09
959.99	227.09
960.29	227.10
960.58	227.10
960.88	227.17
961.17	227.15
961.47	227.21
961.76	227.18
962.06	227.22
962.36	227.21
962.65	227.21
962.95	227.24
963.24	227.24
963.54	227.28
963.83	227.29
964.13	227.30
964.42	227.27
964.72	227.21
965.01	227.22
965.31	227.21
965.60	227.15
965.90	227.20
966.19	227.17
966.49	227.15
966.78	227.14
967.08	227.09
967.37	227.12
967.67	227.10
967.96	227.12
968.26	227.08
968.55	227.11
968.85	227.12
969.14	227.10
969.43	227.10
969.73	227.11
970.02	227.07
970.32	227.06
970.61	227.04
970.91	227.02
971.20	227.00
971.49	226.97
971.79	226.98
972.08	226.91
972.38	226.92
972.67	226.93
972.96	226.94
973.26	226.91
973.55	226.93
973.85	226.91
974.14	226.88
974.43	226.88
974.73	226.86
975.02	226.87
975.31	226.84
975.61	226.84
975.90	226.78
976.19	226.84
976.49	226.86
976.78	226.88
977.07	226.84
977.37	226.80
977.66	226.80
977.95	226.77
978.24	226.79
978.54	226.82
978.83	226.81
979.12	226.79
979.42	226.78
979.71	226.73
980.00	226.71
980.29	226.76
980.59	226.74
980.88	226.73
981.17	226.71
981.46	226.70
981.76	226.71
982.05	226.72
982.34	226.70
982.63	226.67
982.93	226.67
983.22	226.68
983.51	226.71
983.80	226.73
984.09	226.75
984.39	226.76
984.68	226.74
984.97	226.74
985.26	226.75
985.55	226.79
985.85	226.76
986.14	226.80
986.43	226.81
986.72	226.80
987.01	226.76
987.30	226.77
987.59	226.79
987.89	226.77
988.18	226.75
988.47	226.73
988.76	226.74
989.05	226.72
989.34	226.72
989.63	226.76
989.92	226.76
990.22	226.76
990.51	226.72
990.80	226.68
991.09	226.69
991.38	226.72
991.67	226.70
991.96	226.70
992.25	226.72
992.54	226.69
992.83	226.70
993.12	226.73
993.41	226.75
993.70	226.76
993.99	226.80
994.28	226.80
994.58	226.84
994.87	226.85
995.16	226.86
995.45	226.85
995.74	226.80
996.03	226.81
996.32	226.83
996.61	226.86
996.90	226.85
997.19	226.86
997.48	226.83
997.77	226.84
998.06	226.85
998.34	226.81
998.63	226.83
998.92	226.83
999.21	226.84
999.50	226.84
999.79	226.82
1000.08	226.81
1000.37	226.84
1000.66	226.83
1000.95	226.86
1001.24	226.89
1001.53	226.89
1001.82	226.88
1002.11	226.88
1002.40	226.90
1002.68	226.91
1002.97	227.00
1003.26	227.00
1003.55	227.00
1003.84	226.97
1004.13	227.00
1004.42	226.99
1004.71	227.00
1004.99	226.99
1005.28	227.01
1005.57	226.99
1005.86	226.98
1006.15	226.96
1006.44	226.95
1006.72	226.95
1007.01	226.91
1007.30	226.87
1007.59	226.84
1007.88	226.85
1008.17	226.82
1008.45	226.81
1008.74	226.77
1009.03	226.69
1009.32	226.66
1009.60	226.69
1009.89	226.68
1010.18	226.63
1010.47	226.62
1010.76	226.58
1011.04	226.57
1011.33	226.54
1011.62	226.54
1011.91	226.55
1012.19	226.52
1012.48	226.50
1012.77	226.52
1013.05	226.59
1013.34	226.61
1013.63	226.63
1013.92	226.67
1014.20	226.66
1014.49	226.65
1014.78	226.68
1015.06	226.66
1015.35	226.68
1015.64	226.67
1015.92	226.71
1016.21	226.73
1016.50	226.73
1016.78	226.76
1017.07	226.79
1017.36	226.80
1017.64	226.80
1017.93	226.82
1018.22	226.83
1018.50	226.83
1018.79	226.81
1019.08	226.78
1019.36	226.78
1019.65	226.73
1019.93	226.71
1020.22	226.74
1020.51	226.80
1020.79	226.76
1021.08	226.42
1021.36	226.37
1021.65	226.94
1021.94	227.36
1022.22	226.80
1022.51	225.95
1022.79	226.65
1023.08	226.95
1023.36	228.00
1023.65	226.29
>>>>>End Processed Spectral Data<<<<<
