SpectraSuite Data File
++++++++++++++++++++++++++++++++++++
Date: Fri Feb 01 17:54:27 EST 2013
User: group
Dark Spectrum Present: No
Reference Spectrum Present: No
Number of Sampled Component Spectra: 1
Spectrometers: USB2E7196
Integration Time (usec): 35000 (USB2E7196)
Spectra Averaged: 100 (USB2E7196)
Boxcar Smoothing: 10 (USB2E7196)
Correct for Electrical Dark: No (USB2E7196)
Strobe/Lamp Enabled: No (USB2E7196)
Correct for Detector Non-linearity: No (USB2E7196)
Correct for Stray Light: No (USB2E7196)
Number of Pixels in Processed Spectrum: 2048
>>>>>Begin Processed Spectral Data<<<<<
339.09	0.00
339.48	212.62
339.86	214.11
340.24	215.92
340.63	216.86
341.01	220.22
341.39	219.59
341.78	221.36
342.16	222.60
342.54	222.80
342.93	211.40
343.31	222.07
343.69	222.60
344.07	223.05
344.46	223.44
344.84	223.82
345.22	224.00
345.60	224.26
345.99	224.41
346.37	224.51
346.75	224.61
347.13	224.67
347.52	224.71
347.90	224.78
348.28	224.79
348.66	224.85
349.05	224.78
349.43	224.81
349.81	224.81
350.19	224.78
350.57	224.84
350.96	224.90
351.34	224.99
351.72	225.07
352.10	225.18
352.48	225.26
352.87	225.33
353.25	225.43
353.63	225.47
354.01	225.54
354.39	225.63
354.77	225.69
355.15	225.83
355.54	225.91
355.92	225.91
356.30	225.99
356.68	226.13
357.06	226.21
357.44	226.25
357.82	226.29
358.20	226.41
358.58	226.45
358.97	226.52
359.35	226.59
359.73	226.67
360.11	226.74
360.49	226.80
360.87	226.84
361.25	226.87
361.63	226.99
362.01	227.03
362.39	227.08
362.77	227.12
363.15	227.14
363.53	227.16
363.91	227.23
364.29	227.24
364.67	227.15
365.05	227.21
365.43	227.28
365.81	227.35
366.19	227.40
366.57	227.46
366.95	227.42
367.33	227.42
367.71	227.39
368.09	227.38
368.47	227.38
368.85	227.37
369.23	227.42
369.61	227.36
369.99	227.40
370.37	227.40
370.75	227.42
371.13	227.38
371.51	227.32
371.89	227.32
372.27	227.30
372.65	227.27
373.03	227.21
373.41	227.13
373.78	227.06
374.16	226.95
374.54	226.85
374.92	226.85
375.30	226.79
375.68	226.73
376.06	226.70
376.44	226.65
376.82	226.59
377.19	226.53
377.57	226.46
377.95	226.37
378.33	226.30
378.71	226.17
379.09	226.14
379.47	226.11
379.84	226.02
380.22	225.93
380.60	225.87
380.98	225.83
381.36	225.78
381.73	225.74
382.11	225.69
382.49	225.63
382.87	225.56
383.25	225.51
383.62	225.62
384.00	225.55
384.38	225.48
384.76	225.45
385.13	225.42
385.51	225.37
385.89	225.34
386.27	225.27
386.64	225.25
387.02	225.20
387.40	225.13
387.78	225.10
388.15	225.08
388.53	225.05
388.91	225.01
389.29	224.97
389.66	224.91
390.04	224.86
390.42	224.86
390.79	224.84
391.17	224.82
391.55	224.68
391.92	224.64
392.30	224.65
392.68	224.62
393.05	224.61
393.43	224.60
393.81	224.56
394.18	224.54
394.56	224.54
394.94	224.57
395.31	224.60
395.69	224.63
396.06	224.67
396.44	224.70
396.82	224.70
397.19	224.78
397.57	224.82
397.95	224.89
398.32	224.88
398.70	224.92
399.07	224.99
399.45	225.03
399.82	225.08
400.20	225.18
400.58	225.22
400.95	225.24
401.33	225.35
401.70	225.51
402.08	225.64
402.45	225.75
402.83	225.86
403.20	225.95
403.58	226.05
403.95	226.19
404.33	226.33
404.71	226.48
405.08	226.73
405.46	226.88
405.83	227.02
406.21	227.20
406.58	227.40
406.96	227.59
407.33	227.79
407.70	228.03
408.08	228.30
408.45	228.58
408.83	228.88
409.20	229.12
409.58	229.34
409.95	229.63
410.33	229.97
410.70	230.28
411.08	230.64
411.45	231.05
411.82	231.43
412.20	231.86
412.57	232.39
412.95	232.75
413.32	233.29
413.69	233.88
414.07	234.47
414.44	235.09
414.82	235.67
415.19	236.37
415.56	237.08
415.94	237.80
416.31	238.64
416.68	239.46
417.06	240.45
417.43	241.34
417.81	242.39
418.18	243.43
418.55	244.50
418.93	245.67
419.30	246.81
419.67	248.02
420.04	249.30
420.42	250.63
420.79	252.15
421.16	253.67
421.54	255.23
421.91	256.84
422.28	258.48
422.66	260.28
423.03	262.02
423.40	263.79
423.77	265.70
424.15	267.61
424.52	269.57
424.89	271.69
425.26	273.78
425.64	275.69
426.01	277.81
426.38	280.04
426.75	282.27
427.13	284.61
427.50	287.06
427.87	289.54
428.24	291.97
428.61	294.32
428.99	296.92
429.36	299.71
429.73	302.45
430.10	305.14
430.47	307.91
430.85	310.76
431.22	313.73
431.59	316.83
431.96	319.83
432.33	323.17
432.70	326.32
433.08	330.08
433.45	333.59
433.82	337.06
434.19	340.89
434.56	344.63
434.93	348.14
435.30	351.60
435.68	355.45
436.05	359.21
436.42	362.92
436.79	366.27
437.16	369.86
437.53	373.61
437.90	377.33
438.27	381.00
438.64	384.72
439.01	388.23
439.38	391.18
439.75	394.08
440.13	397.36
440.50	400.50
440.87	402.94
441.24	405.54
441.61	408.41
441.98	410.37
442.35	412.78
442.72	415.27
443.09	417.73
443.46	419.06
443.83	419.84
444.20	420.57
444.57	421.67
444.94	422.08
445.31	422.57
445.68	423.08
446.05	423.10
446.42	422.63
446.79	422.08
447.16	421.54
447.53	421.09
447.90	419.61
448.27	418.06
448.64	415.95
449.01	414.42
449.37	411.79
449.74	409.36
450.11	406.36
450.48	403.09
450.85	399.75
451.22	396.91
451.59	394.27
451.96	391.70
452.33	388.29
452.70	385.13
453.07	381.36
453.43	377.49
453.80	373.90
454.17	370.36
454.54	366.96
454.91	363.38
455.28	359.82
455.65	356.47
456.02	353.15
456.38	350.30
456.75	346.76
457.12	343.77
457.49	340.76
457.86	337.86
458.23	335.34
458.59	332.52
458.96	329.72
459.33	327.24
459.70	324.69
460.07	322.62
460.43	320.31
460.80	318.14
461.17	316.20
461.54	314.17
461.91	312.25
462.27	310.30
462.64	308.61
463.01	306.81
463.38	305.05
463.74	303.30
464.11	301.74
464.48	300.36
464.85	298.85
465.21	297.66
465.58	296.42
465.95	294.94
466.32	293.74
466.68	292.56
467.05	291.38
467.42	290.20
467.78	288.95
468.15	287.77
468.52	286.85
468.88	285.70
469.25	284.70
469.62	283.83
469.98	282.90
470.35	281.99
470.72	281.16
471.08	280.32
471.45	279.56
471.82	278.81
472.18	278.00
472.55	277.42
472.92	276.70
473.28	276.08
473.65	275.50
474.02	274.88
474.38	274.34
474.75	273.84
475.11	273.36
475.48	273.01
475.85	272.69
476.21	272.38
476.58	272.10
476.94	271.81
477.31	271.57
477.67	271.32
478.04	271.14
478.41	271.00
478.77	270.91
479.14	270.76
479.50	270.71
479.87	270.74
480.23	270.77
480.60	270.83
480.96	270.87
481.33	271.04
481.69	271.18
482.06	271.29
482.42	271.43
482.79	271.63
483.15	271.92
483.52	272.27
483.88	272.51
484.25	272.88
484.61	273.29
484.98	273.68
485.34	274.26
485.71	274.85
486.07	275.47
486.44	276.00
486.80	276.70
487.17	277.41
487.53	278.23
487.90	279.06
488.26	279.98
488.62	280.98
488.99	281.97
489.35	283.07
489.72	284.29
490.08	285.55
490.44	286.82
490.81	288.23
491.17	289.56
491.54	291.16
491.90	292.70
492.26	294.43
492.63	296.24
492.99	298.06
493.36	300.04
493.72	302.19
494.08	304.43
494.45	306.80
494.81	309.26
495.17	311.79
495.54	314.48
495.90	317.29
496.26	320.23
496.63	323.38
496.99	326.63
497.35	330.08
497.72	333.67
498.08	337.40
498.44	341.24
498.80	345.42
499.17	349.69
499.53	354.12
499.89	358.72
500.26	363.48
500.62	368.42
500.98	373.64
501.34	378.97
501.71	384.56
502.07	390.28
502.43	396.25
502.79	402.44
503.16	408.82
503.52	415.41
503.88	422.16
504.24	429.15
504.60	436.39
504.97	443.88
505.33	451.61
505.69	459.80
506.05	468.05
506.41	476.38
506.78	485.01
507.14	493.99
507.50	503.24
507.86	512.77
508.22	522.49
508.59	532.26
508.95	542.49
509.31	553.01
509.67	563.78
510.03	574.75
510.39	585.90
510.75	597.40
511.12	609.08
511.48	621.17
511.84	633.40
512.20	645.80
512.56	658.61
512.92	671.63
513.28	684.88
513.64	698.23
514.00	711.83
514.37	725.78
514.73	739.82
515.09	753.78
515.45	768.06
515.81	782.70
516.17	797.71
516.53	812.93
516.89	828.15
517.25	843.39
517.61	858.91
517.97	874.61
518.33	890.22
518.69	906.19
519.05	922.35
519.41	938.69
519.77	955.44
520.13	972.13
520.49	988.81
520.85	1005.42
521.21	1022.41
521.57	1040.00
521.93	1057.08
522.29	1074.85
522.65	1092.61
523.01	1110.20
523.37	1127.72
523.73	1145.49
524.09	1162.98
524.45	1180.79
524.81	1199.09
525.17	1217.39
525.53	1235.79
525.89	1254.32
526.25	1272.80
526.61	1290.84
526.97	1309.33
527.33	1327.50
527.68	1345.86
528.04	1364.07
528.40	1382.34
528.76	1401.37
529.12	1419.80
529.48	1438.52
529.84	1456.30
530.20	1474.62
530.56	1493.43
530.91	1512.62
531.27	1531.20
531.63	1549.58
531.99	1568.08
532.35	1586.09
532.71	1603.95
533.07	1622.20
533.42	1640.07
533.78	1658.21
534.14	1676.38
534.50	1693.68
534.86	1711.46
535.21	1728.52
535.57	1746.39
535.93	1764.06
536.29	1780.56
536.65	1797.54
537.00	1814.16
537.36	1831.58
537.72	1848.21
538.08	1864.82
538.44	1880.77
538.79	1896.80
539.15	1912.31
539.51	1928.00
539.87	1944.31
540.22	1960.03
540.58	1975.88
540.94	1991.11
541.29	2005.83
541.65	2020.67
542.01	2035.91
542.37	2050.47
542.72	2065.10
543.08	2079.06
543.44	2093.55
543.79	2107.09
544.15	2120.24
544.51	2133.99
544.87	2147.06
545.22	2159.95
545.58	2172.25
545.94	2184.04
546.29	2195.96
546.65	2208.16
547.01	2219.60
547.36	2230.35
547.72	2240.89
548.07	2250.82
548.43	2261.11
548.79	2271.03
549.14	2280.57
549.50	2289.66
549.86	2299.04
550.21	2308.12
550.57	2317.22
550.92	2325.74
551.28	2334.65
551.64	2343.65
551.99	2352.01
552.35	2359.95
552.70	2367.90
553.06	2375.67
553.41	2383.79
553.77	2391.34
554.13	2399.11
554.48	2406.95
554.84	2414.20
555.19	2421.01
555.55	2427.96
555.90	2433.98
556.26	2440.74
556.61	2447.02
556.97	2453.39
557.32	2459.34
557.68	2465.20
558.03	2471.03
558.39	2476.05
558.74	2482.17
559.10	2487.59
559.45	2492.93
559.81	2498.56
560.16	2503.85
560.52	2508.63
560.87	2513.48
561.23	2517.60
561.58	2521.77
561.94	2525.58
562.29	2528.96
562.64	2533.31
563.00	2536.88
563.35	2541.77
563.71	2546.21
564.06	2550.55
564.42	2554.60
564.77	2558.31
565.12	2561.79
565.48	2564.97
565.83	2568.04
566.19	2570.73
566.54	2572.28
566.89	2574.48
567.25	2576.28
567.60	2578.44
567.96	2581.29
568.31	2583.08
568.66	2585.25
569.02	2586.84
569.37	2588.07
569.72	2590.03
570.08	2590.93
570.43	2591.77
570.78	2592.16
571.14	2591.27
571.49	2590.54
571.84	2590.62
572.20	2590.09
572.55	2589.58
572.90	2588.18
573.26	2587.45
573.61	2585.75
573.96	2584.80
574.31	2582.04
574.67	2579.21
575.02	2575.82
575.37	2572.23
575.72	2568.68
576.08	2565.22
576.43	2561.90
576.78	2558.56
577.13	2555.18
577.49	2551.88
577.84	2548.61
578.19	2544.56
578.54	2540.84
578.90	2536.79
579.25	2531.15
579.60	2525.98
579.95	2520.74
580.30	2515.46
580.66	2509.95
581.01	2504.79
581.36	2499.43
581.71	2495.03
582.06	2490.45
582.42	2485.85
582.77	2480.46
583.12	2475.52
583.47	2470.81
583.82	2465.59
584.17	2459.78
584.53	2454.04
584.88	2448.01
585.23	2441.83
585.58	2435.88
585.93	2429.90
586.28	2424.43
586.63	2418.91
586.98	2413.28
587.34	2408.08
587.69	2402.78
588.04	2397.23
588.39	2391.06
588.74	2383.93
589.09	2377.07
589.44	2369.65
589.79	2362.79
590.14	2356.46
590.49	2349.11
590.84	2341.81
591.19	2335.06
591.54	2327.95
591.89	2319.82
592.25	2312.45
592.60	2304.35
592.95	2296.07
593.30	2287.89
593.65	2279.40
594.00	2271.40
594.35	2263.39
594.70	2254.03
595.05	2246.18
595.40	2237.65
595.75	2229.19
596.10	2222.31
596.45	2214.74
596.80	2207.56
597.15	2200.16
597.50	2192.36
597.85	2184.93
598.19	2177.47
598.54	2169.63
598.89	2161.93
599.24	2155.12
599.59	2147.59
599.94	2140.24
600.29	2132.89
600.64	2125.15
600.99	2116.68
601.34	2109.03
601.69	2100.79
602.04	2093.27
602.39	2084.64
602.74	2076.76
603.08	2069.03
603.43	2061.08
603.78	2052.63
604.13	2044.28
604.48	2036.07
604.83	2028.08
605.18	2020.30
605.53	2011.09
605.87	2001.83
606.22	1993.36
606.57	1984.15
606.92	1975.28
607.27	1967.26
607.62	1959.29
607.96	1951.14
608.31	1943.75
608.66	1934.98
609.01	1926.37
609.36	1917.63
609.70	1908.41
610.05	1899.13
610.40	1890.27
610.75	1880.83
611.10	1871.97
611.44	1862.20
611.79	1852.72
612.14	1842.64
612.49	1831.82
612.83	1822.00
613.18	1812.29
613.53	1802.89
613.88	1793.09
614.22	1783.58
614.57	1773.36
614.92	1763.83
615.27	1755.10
615.61	1745.31
615.96	1735.75
616.31	1726.84
616.65	1718.09
617.00	1709.22
617.35	1700.23
617.70	1690.67
618.04	1680.65
618.39	1670.95
618.74	1662.13
619.08	1652.50
619.43	1643.49
619.78	1635.30
620.12	1626.99
620.47	1618.28
620.82	1608.76
621.16	1599.81
621.51	1590.91
621.85	1581.88
622.20	1572.09
622.55	1562.17
622.89	1552.92
623.24	1543.93
623.59	1535.06
623.93	1526.32
624.28	1517.82
624.62	1509.06
624.97	1500.36
625.32	1492.37
625.66	1484.11
626.01	1475.80
626.35	1467.26
626.70	1458.20
627.04	1449.30
627.39	1440.19
627.73	1431.41
628.08	1423.23
628.43	1414.93
628.77	1406.46
629.12	1397.80
629.46	1389.46
629.81	1380.64
630.15	1372.14
630.50	1363.55
630.84	1354.10
631.19	1344.69
631.53	1335.99
631.88	1327.10
632.22	1318.31
632.57	1309.72
632.91	1300.91
633.26	1292.11
633.60	1283.28
633.95	1274.87
634.29	1266.50
634.64	1258.67
634.98	1250.22
635.32	1241.91
635.67	1234.05
636.01	1226.15
636.36	1218.31
636.70	1210.59
637.05	1203.09
637.39	1195.48
637.73	1188.02
638.08	1181.15
638.42	1174.27
638.77	1166.77
639.11	1159.29
639.45	1151.82
639.80	1144.12
640.14	1136.87
640.49	1129.43
640.83	1122.20
641.17	1115.16
641.52	1107.96
641.86	1100.44
642.20	1093.62
642.55	1086.24
642.89	1078.92
643.23	1071.34
643.58	1064.57
643.92	1057.50
644.26	1050.59
644.61	1043.72
644.95	1036.67
645.29	1029.24
645.64	1021.53
645.98	1014.17
646.32	1007.14
646.66	1000.25
647.01	993.58
647.35	986.95
647.69	980.07
648.04	973.71
648.38	967.06
648.72	960.24
649.06	953.29
649.41	946.46
649.75	939.78
650.09	932.91
650.43	926.32
650.78	919.27
651.12	912.45
651.46	905.67
651.80	899.14
652.14	892.88
652.49	886.72
652.83	880.77
653.17	874.30
653.51	867.93
653.85	861.69
654.20	855.27
654.54	848.38
654.88	841.90
655.22	835.11
655.56	828.47
655.90	822.08
656.25	816.10
656.59	809.95
656.93	803.96
657.27	798.09
657.61	791.78
657.95	785.92
658.29	780.02
658.64	773.99
658.98	767.77
659.32	761.47
659.66	755.46
660.00	749.37
660.34	743.64
660.68	737.95
661.02	732.14
661.36	726.75
661.70	721.59
662.05	716.52
662.39	711.65
662.73	706.51
663.07	701.51
663.41	696.30
663.75	691.22
664.09	686.00
664.43	680.82
664.77	676.14
665.11	671.33
665.45	666.54
665.79	661.95
666.13	657.22
666.47	652.54
666.81	647.81
667.15	643.12
667.49	638.70
667.83	634.28
668.17	629.82
668.51	625.18
668.85	620.51
669.19	616.06
669.53	611.65
669.87	607.29
670.21	603.00
670.55	598.87
670.89	594.89
671.23	591.01
671.57	587.00
671.91	582.98
672.25	578.87
672.58	574.87
672.92	570.92
673.26	567.26
673.60	563.70
673.94	560.12
674.28	556.70
674.62	553.26
674.96	549.74
675.30	546.43
675.64	543.07
675.97	539.91
676.31	536.62
676.65	533.22
676.99	530.12
677.33	526.84
677.67	523.64
678.01	520.19
678.34	516.78
678.68	513.51
679.02	510.33
679.36	507.12
679.70	503.98
680.04	500.83
680.37	497.63
680.71	494.42
681.05	491.32
681.39	488.19
681.73	485.13
682.06	482.27
682.40	479.35
682.74	476.42
683.08	473.44
683.42	470.49
683.75	467.62
684.09	464.61
684.43	461.81
684.77	458.96
685.10	456.28
685.44	453.63
685.78	451.01
686.12	448.34
686.45	445.75
686.79	443.14
687.13	440.62
687.46	438.11
687.80	435.59
688.14	433.05
688.48	430.73
688.81	428.25
689.15	425.77
689.49	423.26
689.82	420.88
690.16	418.44
690.50	416.13
690.83	413.89
691.17	411.62
691.51	409.41
691.84	407.33
692.18	405.10
692.52	402.90
692.85	400.60
693.19	398.43
693.52	396.32
693.86	394.18
694.20	392.10
694.53	390.06
694.87	387.91
695.21	385.86
695.54	383.74
695.88	381.66
696.21	379.62
696.55	377.71
696.88	375.75
697.22	373.84
697.56	371.91
697.89	369.97
698.23	368.16
698.56	366.32
698.90	364.48
699.23	362.67
699.57	360.83
699.90	359.11
700.24	357.36
700.58	355.59
700.91	353.93
701.25	352.24
701.58	350.63
701.92	349.10
702.25	347.55
702.59	345.98
702.92	344.50
703.26	342.99
703.59	341.47
703.93	340.11
704.26	338.73
704.60	337.35
704.93	335.94
705.26	334.51
705.60	333.10
705.93	331.73
706.27	330.45
706.60	329.24
706.94	327.96
707.27	326.62
707.61	325.35
707.94	324.15
708.27	322.92
708.61	321.68
708.94	320.51
709.28	319.39
709.61	318.28
709.94	317.17
710.28	316.04
710.61	314.86
710.95	313.60
711.28	312.50
711.61	311.40
711.95	310.36
712.28	309.23
712.61	308.17
712.95	307.07
713.28	306.04
713.61	304.97
713.95	303.97
714.28	303.04
714.61	302.06
714.95	301.05
715.28	300.06
715.61	299.07
715.95	298.10
716.28	297.08
716.61	296.08
716.95	295.11
717.28	294.24
717.61	293.39
717.94	292.53
718.28	291.63
718.61	290.77
718.94	289.91
719.27	289.20
719.61	288.41
719.94	287.65
720.27	286.79
720.60	286.02
720.94	285.27
721.27	284.58
721.60	283.92
721.93	283.23
722.27	282.57
722.60	281.91
722.93	281.23
723.26	280.63
723.59	279.99
723.93	279.35
724.26	278.65
724.59	277.99
724.92	277.39
725.25	276.76
725.59	276.17
725.92	275.62
726.25	274.97
726.58	274.41
726.91	273.84
727.24	273.31
727.57	272.76
727.91	272.15
728.24	271.57
728.57	270.99
728.90	270.46
729.23	269.90
729.56	269.41
729.89	268.90
730.22	268.31
730.55	267.78
730.89	267.25
731.22	266.77
731.55	266.29
731.88	265.77
732.21	265.31
732.54	264.81
732.87	264.28
733.20	263.81
733.53	263.34
733.86	262.90
734.19	262.45
734.52	262.04
734.85	261.65
735.18	261.19
735.51	260.77
735.84	260.36
736.17	259.94
736.50	259.45
736.83	259.16
737.16	258.80
737.49	258.41
737.82	258.01
738.15	257.65
738.48	257.22
738.81	256.83
739.14	256.45
739.47	256.11
739.80	255.74
740.13	255.39
740.46	255.02
740.79	254.64
741.12	254.31
741.45	253.93
741.78	253.60
742.11	253.29
742.44	252.92
742.77	252.61
743.10	252.26
743.43	251.94
743.75	251.53
744.08	251.33
744.41	251.02
744.74	250.71
745.07	250.40
745.40	250.16
745.73	249.92
746.06	249.60
746.39	249.27
746.71	249.02
747.04	248.72
747.37	248.43
747.70	248.17
748.03	247.90
748.36	247.68
748.68	247.38
749.01	247.08
749.34	246.86
749.67	246.56
750.00	246.35
750.33	246.16
750.65	245.92
750.98	245.53
751.31	245.26
751.64	245.05
751.97	244.83
752.29	244.57
752.62	244.27
752.95	244.06
753.28	243.80
753.60	243.55
753.93	243.36
754.26	243.11
754.59	242.88
754.91	242.63
755.24	242.37
755.57	242.15
755.90	241.95
756.22	241.70
756.55	241.47
756.88	241.22
757.20	240.96
757.53	240.73
757.86	240.53
758.19	240.37
758.51	240.18
758.84	239.96
759.17	239.78
759.49	239.60
759.82	239.47
760.15	239.30
760.47	239.13
760.80	238.93
761.13	238.82
761.45	238.61
761.78	238.43
762.11	238.26
762.43	238.12
762.76	237.93
763.08	237.79
763.41	237.64
763.74	237.50
764.06	237.34
764.39	237.14
764.71	236.96
765.04	236.77
765.37	236.58
765.69	236.43
766.02	236.28
766.34	236.17
766.67	235.98
767.00	235.86
767.32	235.79
767.65	235.72
767.97	235.56
768.30	235.40
768.62	235.30
768.95	235.12
769.27	234.98
769.60	234.87
769.92	234.72
770.25	234.60
770.57	234.47
770.90	234.35
771.22	234.24
771.55	234.17
771.87	234.08
772.20	233.97
772.52	233.94
772.85	233.94
773.17	233.82
773.50	233.70
773.82	233.57
774.15	233.39
774.47	233.23
774.80	233.12
775.12	233.04
775.45	232.92
775.77	232.87
776.09	232.74
776.42	232.66
776.74	232.63
777.07	232.52
777.39	232.44
777.72	232.33
778.04	232.27
778.36	232.17
778.69	232.09
779.01	232.05
779.33	231.89
779.66	231.69
779.98	231.60
780.31	231.52
780.63	231.51
780.95	231.48
781.28	231.39
781.60	231.35
781.92	231.34
782.25	231.28
782.57	231.21
782.89	231.16
783.22	231.09
783.54	230.97
783.86	230.91
784.19	230.86
784.51	230.79
784.83	230.70
785.16	230.63
785.48	230.60
785.80	230.51
786.12	230.45
786.45	230.38
786.77	230.36
787.09	230.31
787.42	230.20
787.74	230.14
788.06	230.07
788.38	229.96
788.71	229.87
789.03	229.85
789.35	229.82
789.67	229.77
789.99	229.72
790.32	229.69
790.64	229.67
790.96	229.68
791.28	229.63
791.61	229.60
791.93	229.58
792.25	229.50
792.57	229.49
792.89	229.43
793.21	229.40
793.54	229.34
793.86	229.27
794.18	229.23
794.50	229.15
794.82	229.09
795.14	229.11
795.47	229.04
795.79	228.97
796.11	228.88
796.43	228.83
796.75	228.81
797.07	228.78
797.39	228.74
797.71	228.64
798.04	228.58
798.36	228.57
798.68	228.50
799.00	228.47
799.32	228.37
799.64	228.34
799.96	228.28
800.28	228.23
800.60	228.24
800.92	228.22
801.24	228.17
801.56	228.15
801.89	228.08
802.21	228.06
802.53	228.02
802.85	228.01
803.17	228.01
803.49	227.95
803.81	227.87
804.13	227.82
804.45	227.77
804.77	227.77
805.09	227.73
805.41	227.68
805.73	227.61
806.05	227.61
806.37	227.59
806.69	227.57
807.01	227.49
807.33	227.43
807.65	227.35
807.97	227.36
808.28	227.34
808.60	227.31
808.92	227.25
809.24	227.28
809.56	227.26
809.88	227.20
810.20	227.15
810.52	227.15
810.84	227.10
811.16	227.04
811.48	227.00
811.80	226.98
812.12	226.94
812.43	226.95
812.75	226.87
813.07	226.84
813.39	226.82
813.71	226.86
814.03	226.85
814.35	226.82
814.67	226.78
814.98	226.74
815.30	226.70
815.62	226.66
815.94	226.59
816.26	226.58
816.58	226.58
816.89	226.58
817.21	226.52
817.53	226.52
817.85	226.54
818.17	226.55
818.48	226.49
818.80	226.50
819.12	226.48
819.44	226.48
819.76	226.45
820.07	226.46
820.39	226.43
820.71	226.42
821.03	226.45
821.34	226.40
821.66	226.42
821.98	226.43
822.30	226.48
822.61	226.49
822.93	226.44
823.25	226.41
823.57	226.39
823.88	226.43
824.20	226.43
824.52	226.43
824.83	226.39
825.15	226.39
825.47	226.36
825.79	226.35
826.10	226.34
826.42	226.34
826.74	226.32
827.05	226.29
827.37	226.27
827.69	226.25
828.00	226.27
828.32	226.24
828.64	226.21
828.95	226.22
829.27	226.22
829.58	226.20
829.90	226.17
830.22	226.14
830.53	226.10
830.85	226.08
831.17	226.05
831.48	226.02
831.80	226.04
832.11	226.02
832.43	226.01
832.75	226.00
833.06	226.07
833.38	225.99
833.69	226.01
834.01	226.00
834.32	225.95
834.64	225.93
834.96	225.91
835.27	225.91
835.59	225.82
835.90	225.75
836.22	225.74
836.53	225.75
836.85	225.75
837.16	225.83
837.48	225.81
837.79	225.79
838.11	225.78
838.42	225.76
838.74	225.78
839.05	225.75
839.37	225.72
839.68	225.61
840.00	225.62
840.31	225.61
840.63	225.59
840.94	225.62
841.26	225.61
841.57	225.59
841.88	225.58
842.20	225.55
842.51	225.53
842.83	225.54
843.14	225.61
843.46	225.60
843.77	225.56
844.08	225.54
844.40	225.50
844.71	225.46
845.03	225.43
845.34	225.42
845.65	225.41
845.97	225.38
846.28	225.40
846.60	225.36
846.91	225.30
847.22	225.30
847.54	225.31
847.85	225.29
848.16	225.27
848.48	225.25
848.79	225.32
849.10	225.34
849.42	225.32
849.73	225.22
850.04	225.20
850.36	225.12
850.67	225.13
850.98	225.15
851.30	225.15
851.61	225.15
851.92	225.14
852.23	225.18
852.55	225.18
852.86	225.16
853.17	225.20
853.49	225.26
853.80	225.28
854.11	225.27
854.42	225.30
854.74	225.33
855.05	225.32
855.36	225.24
855.67	225.23
855.99	225.27
856.30	225.39
856.61	225.38
856.92	225.40
857.23	225.41
857.55	225.40
857.86	225.42
858.17	225.43
858.48	225.41
858.79	225.43
859.11	225.47
859.42	225.48
859.73	225.48
860.04	225.43
860.35	225.41
860.66	225.42
860.98	225.41
861.29	225.40
861.60	225.43
861.91	225.49
862.22	225.50
862.53	225.46
862.84	225.34
863.16	225.40
863.47	225.39
863.78	225.38
864.09	225.42
864.40	225.45
864.71	225.44
865.02	225.48
865.33	225.46
865.64	225.43
865.95	225.42
866.27	225.52
866.58	225.55
866.89	225.57
867.20	225.57
867.51	225.56
867.82	225.56
868.13	225.58
868.44	225.55
868.75	225.59
869.06	225.59
869.37	225.62
869.68	225.54
869.99	225.54
870.30	225.55
870.61	225.52
870.92	225.51
871.23	225.52
871.54	225.51
871.85	225.50
872.16	225.50
872.47	225.48
872.78	225.36
873.09	225.35
873.40	225.30
873.71	225.28
874.02	225.25
874.33	225.24
874.64	225.21
874.95	225.20
875.26	225.15
875.56	225.15
875.87	225.12
876.18	225.15
876.49	225.26
876.80	225.24
877.11	225.23
877.42	225.19
877.73	225.16
878.04	225.14
878.35	225.13
878.66	225.18
878.96	225.19
879.27	225.17
879.58	225.17
879.89	225.17
880.20	225.16
880.51	225.19
880.82	225.17
881.12	225.17
881.43	225.16
881.74	225.17
882.05	225.13
882.36	225.11
882.67	225.13
882.97	225.01
883.28	224.97
883.59	224.93
883.90	224.92
884.21	224.95
884.51	224.93
884.82	224.90
885.13	224.84
885.44	224.87
885.74	224.87
886.05	224.84
886.36	224.83
886.67	224.83
886.98	224.88
887.28	224.87
887.59	224.85
887.90	224.84
888.20	224.84
888.51	224.89
888.82	224.89
889.13	224.90
889.43	224.99
889.74	225.03
890.05	225.06
890.35	225.07
890.66	225.08
890.97	225.08
891.28	225.10
891.58	225.13
891.89	225.14
892.20	225.13
892.50	225.12
892.81	225.13
893.12	225.15
893.42	225.08
893.73	225.10
894.04	225.09
894.34	225.12
894.65	225.10
894.95	225.08
895.26	225.09
895.57	225.11
895.87	225.00
896.18	225.03
896.48	225.05
896.79	225.05
897.10	225.04
897.40	225.04
897.71	225.04
898.01	225.02
898.32	225.00
898.63	225.04
898.93	225.08
899.24	225.05
899.54	225.08
899.85	225.07
900.15	225.08
900.46	225.13
900.76	225.13
901.07	225.13
901.38	225.15
901.68	225.19
901.99	225.15
902.29	225.18
902.60	225.17
902.90	225.15
903.21	225.17
903.51	225.17
903.82	225.21
904.12	225.22
904.43	225.24
904.73	225.24
905.03	225.26
905.34	225.36
905.64	225.39
905.95	225.33
906.25	225.37
906.56	225.37
906.86	225.32
907.17	225.31
907.47	225.32
907.77	225.30
908.08	225.25
908.38	225.24
908.69	225.22
908.99	225.22
909.30	225.23
909.60	225.22
909.90	225.21
910.21	225.16
910.51	225.13
910.81	225.13
911.12	225.11
911.42	225.05
911.73	224.95
912.03	224.95
912.33	224.99
912.64	224.99
912.94	224.94
913.24	224.92
913.55	224.91
913.85	224.91
914.15	224.92
914.46	224.95
914.76	224.95
915.06	224.98
915.37	224.91
915.67	224.87
915.97	224.86
916.27	224.86
916.58	224.88
916.88	224.87
917.18	224.84
917.49	224.89
917.79	224.89
918.09	224.88
918.39	224.87
918.70	224.84
919.00	224.79
919.30	224.82
919.60	224.84
919.91	224.80
920.21	224.80
920.51	224.76
920.81	224.73
921.12	224.71
921.42	224.68
921.72	224.71
922.02	224.72
922.32	224.73
922.63	224.73
922.93	224.73
923.23	224.74
923.53	224.72
923.83	224.69
924.13	224.69
924.44	224.70
924.74	224.72
925.04	224.74
925.34	224.73
925.64	224.72
925.94	224.69
926.24	224.75
926.55	224.73
926.85	224.75
927.15	224.75
927.45	224.74
927.75	224.73
928.05	224.75
928.35	224.75
928.65	224.77
928.95	224.77
929.26	224.73
929.56	224.74
929.86	224.74
930.16	224.72
930.46	224.72
930.76	224.72
931.06	224.67
931.36	224.66
931.66	224.68
931.96	224.66
932.26	224.66
932.56	224.62
932.86	224.64
933.16	224.64
933.46	224.63
933.76	224.61
934.06	224.65
934.36	224.67
934.66	224.65
934.96	224.64
935.26	224.63
935.56	224.67
935.86	224.63
936.16	224.63
936.46	224.60
936.76	224.59
937.06	224.58
937.36	224.57
937.66	224.61
937.96	224.62
938.26	224.63
938.56	224.65
938.86	224.66
939.16	224.68
939.46	224.72
939.76	224.74
940.06	224.76
940.35	224.73
940.65	224.70
940.95	224.73
941.25	224.71
941.55	224.70
941.85	224.70
942.15	224.73
942.45	224.77
942.75	224.77
943.04	224.77
943.34	224.78
943.64	224.81
943.94	224.79
944.24	224.77
944.54	224.77
944.84	224.79
945.13	224.74
945.43	224.70
945.73	224.65
946.03	224.63
946.33	224.59
946.62	224.59
946.92	224.59
947.22	224.58
947.52	224.59
947.82	224.60
948.11	224.55
948.41	224.54
948.71	224.55
949.01	224.58
949.31	224.62
949.60	224.63
949.90	224.64
950.20	224.61
950.50	224.63
950.79	224.62
951.09	224.64
951.39	224.67
951.69	224.67
951.98	224.70
952.28	224.73
952.58	224.76
952.87	224.75
953.17	224.76
953.47	224.76
953.76	224.76
954.06	224.75
954.36	224.76
954.66	224.75
954.95	224.75
955.25	224.75
955.55	224.69
955.84	224.68
956.14	224.69
956.44	224.68
956.73	224.66
957.03	224.69
957.32	224.70
957.62	224.64
957.92	224.68
958.21	224.66
958.51	224.75
958.81	224.76
959.10	224.75
959.40	224.75
959.69	224.75
959.99	224.74
960.29	224.75
960.58	224.73
960.88	224.79
961.17	224.79
961.47	224.80
961.76	224.82
962.06	224.82
962.36	224.77
962.65	224.80
962.95	224.80
963.24	224.76
963.54	224.78
963.83	224.82
964.13	224.81
964.42	224.85
964.72	224.79
965.01	224.79
965.31	224.80
965.60	224.78
965.90	224.86
966.19	224.86
966.49	224.83
966.78	224.85
967.08	224.83
967.37	224.85
967.67	224.83
967.96	224.86
968.26	224.85
968.55	224.87
968.85	224.87
969.14	224.90
969.43	224.89
969.73	224.83
970.02	224.84
970.32	224.82
970.61	224.79
970.91	224.75
971.20	224.72
971.49	224.71
971.79	224.72
972.08	224.63
972.38	224.63
972.67	224.64
972.96	224.66
973.26	224.67
973.55	224.67
973.85	224.67
974.14	224.67
974.43	224.68
974.73	224.66
975.02	224.65
975.31	224.65
975.61	224.66
975.90	224.70
976.19	224.67
976.49	224.71
976.78	224.72
977.07	224.72
977.37	224.73
977.66	224.77
977.95	224.76
978.24	224.78
978.54	224.81
978.83	224.80
979.12	224.79
979.42	224.76
979.71	224.73
980.00	224.76
980.29	224.76
980.59	224.75
980.88	224.78
981.17	224.77
981.46	224.78
981.76	224.78
982.05	224.77
982.34	224.81
982.63	224.79
982.93	224.82
983.22	224.83
983.51	224.85
983.80	224.86
984.09	224.86
984.39	224.85
984.68	224.85
984.97	224.86
985.26	224.85
985.55	224.86
985.85	224.84
986.14	224.83
986.43	224.83
986.72	224.83
987.01	224.79
987.30	224.77
987.59	224.78
987.89	224.79
988.18	224.77
988.47	224.76
988.76	224.73
989.05	224.70
989.34	224.70
989.63	224.73
989.92	224.72
990.22	224.72
990.51	224.70
990.80	224.66
991.09	224.66
991.38	224.65
991.67	224.67
991.96	224.65
992.25	224.66
992.54	224.67
992.83	224.63
993.12	224.63
993.41	224.66
993.70	224.68
993.99	224.67
994.28	224.71
994.58	224.70
994.87	224.68
995.16	224.67
995.45	224.67
995.74	224.62
996.03	224.63
996.32	224.68
996.61	224.72
996.90	224.76
997.19	224.77
997.48	224.77
997.77	224.74
998.06	224.76
998.34	224.75
998.63	224.72
998.92	224.75
999.21	224.76
999.50	224.76
999.79	224.71
1000.08	224.73
1000.37	224.74
1000.66	224.72
1000.95	224.78
1001.24	224.76
1001.53	224.76
1001.82	224.76
1002.11	224.73
1002.40	224.72
1002.68	224.72
1002.97	224.77
1003.26	224.76
1003.55	224.75
1003.84	224.78
1004.13	224.79
1004.42	224.78
1004.71	224.78
1004.99	224.75
1005.28	224.74
1005.57	224.76
1005.86	224.74
1006.15	224.75
1006.44	224.68
1006.72	224.71
1007.01	224.69
1007.30	224.70
1007.59	224.70
1007.88	224.70
1008.17	224.71
1008.45	224.69
1008.74	224.65
1009.03	224.57
1009.32	224.55
1009.60	224.55
1009.89	224.50
1010.18	224.48
1010.47	224.47
1010.76	224.47
1011.04	224.49
1011.33	224.51
1011.62	224.45
1011.91	224.45
1012.19	224.43
1012.48	224.45
1012.77	224.45
1013.05	224.49
1013.34	224.49
1013.63	224.46
1013.92	224.50
1014.20	224.47
1014.49	224.47
1014.78	224.47
1015.06	224.45
1015.35	224.47
1015.64	224.51
1015.92	224.53
1016.21	224.54
1016.50	224.55
1016.78	224.56
1017.07	224.54
1017.36	224.53
1017.64	224.50
1017.93	224.53
1018.22	224.51
1018.50	224.50
1018.79	224.48
1019.08	224.45
1019.36	224.46
1019.65	224.45
1019.93	224.46
1020.22	224.47
1020.51	224.51
1020.79	224.50
1021.08	224.28
1021.36	223.94
1021.65	224.43
1021.94	224.95
1022.22	224.45
1022.51	224.08
1022.79	225.43
1023.08	224.40
1023.36	225.75
1023.65	224.11
>>>>>End Processed Spectral Data<<<<<
