SpectraSuite Data File
++++++++++++++++++++++++++++++++++++
Date: Fri Feb 01 15:17:03 EST 2013
User: group
Dark Spectrum Present: No
Reference Spectrum Present: No
Number of Sampled Component Spectra: 1
Spectrometers: USB2E7196
Integration Time (usec): 35000 (USB2E7196)
Spectra Averaged: 100 (USB2E7196)
Boxcar Smoothing: 10 (USB2E7196)
Correct for Electrical Dark: No (USB2E7196)
Strobe/Lamp Enabled: No (USB2E7196)
Correct for Detector Non-linearity: No (USB2E7196)
Correct for Stray Light: No (USB2E7196)
Number of Pixels in Processed Spectrum: 2048
>>>>>Begin Processed Spectral Data<<<<<
339.09	0.00
339.48	214.90
339.86	216.26
340.24	218.18
340.63	219.14
341.01	222.15
341.39	222.57
341.78	223.79
342.16	224.79
342.54	225.59
342.93	213.55
343.31	224.35
343.69	224.91
344.07	225.39
344.46	225.79
344.84	226.18
345.22	226.45
345.60	226.64
345.99	226.81
346.37	226.93
346.75	227.01
347.13	227.06
347.52	227.14
347.90	227.23
348.28	227.25
348.66	227.28
349.05	227.24
349.43	227.31
349.81	227.32
350.19	227.35
350.57	227.39
350.96	227.49
351.34	227.55
351.72	227.62
352.10	227.73
352.48	227.81
352.87	227.84
353.25	227.90
353.63	227.98
354.01	228.03
354.39	228.08
354.77	228.15
355.15	228.26
355.54	228.26
355.92	228.27
356.30	228.32
356.68	228.43
357.06	228.49
357.44	228.51
357.82	228.56
358.20	228.65
358.58	228.70
358.97	228.75
359.35	228.81
359.73	228.87
360.11	228.89
360.49	228.93
360.87	228.99
361.25	229.04
361.63	229.11
362.01	229.15
362.39	229.19
362.77	229.20
363.15	229.22
363.53	229.28
363.91	229.28
364.29	229.30
364.67	229.23
365.05	229.24
365.43	229.26
365.81	229.28
366.19	229.30
366.57	229.33
366.95	229.32
367.33	229.30
367.71	229.29
368.09	229.30
368.47	229.30
368.85	229.25
369.23	229.23
369.61	229.14
369.99	229.15
370.37	229.13
370.75	229.17
371.13	229.08
371.51	229.02
371.89	229.03
372.27	228.98
372.65	228.95
373.03	228.89
373.41	228.82
373.78	228.76
374.16	228.64
374.54	228.54
374.92	228.47
375.30	228.37
375.68	228.27
376.06	228.20
376.44	228.15
376.82	228.12
377.19	228.04
377.57	227.98
377.95	227.88
378.33	227.77
378.71	227.65
379.09	227.60
379.47	227.54
379.84	227.43
380.22	227.36
380.60	227.30
380.98	227.24
381.36	227.21
381.73	227.16
382.11	227.14
382.49	227.10
382.87	227.02
383.25	226.99
383.62	227.04
384.00	226.97
384.38	226.90
384.76	226.88
385.13	226.86
385.51	226.85
385.89	226.77
386.27	226.74
386.64	226.73
387.02	226.70
387.40	226.67
387.78	226.68
388.15	226.64
388.53	226.58
388.91	226.53
389.29	226.47
389.66	226.47
390.04	226.45
390.42	226.44
390.79	226.44
391.17	226.42
391.55	226.36
391.92	226.33
392.30	226.36
392.68	226.33
393.05	226.31
393.43	226.33
393.81	226.37
394.18	226.37
394.56	226.38
394.94	226.39
395.31	226.41
395.69	226.49
396.06	226.55
396.44	226.64
396.82	226.67
397.19	226.77
397.57	226.80
397.95	226.85
398.32	226.88
398.70	226.96
399.07	227.05
399.45	227.05
399.82	227.15
400.20	227.19
400.58	227.28
400.95	227.34
401.33	227.43
401.70	227.59
402.08	227.71
402.45	227.79
402.83	227.95
403.20	228.07
403.58	228.14
403.95	228.26
404.33	228.35
404.71	228.52
405.08	228.69
405.46	228.84
405.83	228.99
406.21	229.15
406.58	229.31
406.96	229.46
407.33	229.70
407.70	229.87
408.08	230.13
408.45	230.31
408.83	230.54
409.20	230.73
409.58	230.90
409.95	231.14
410.33	231.42
410.70	231.66
411.08	231.94
411.45	232.26
411.82	232.56
412.20	232.91
412.57	233.30
412.95	233.56
413.32	233.99
413.69	234.36
414.07	234.79
414.44	235.25
414.82	235.72
415.19	236.25
415.56	236.80
415.94	237.34
416.31	237.99
416.68	238.59
417.06	239.31
417.43	239.99
417.81	240.77
418.18	241.54
418.55	242.34
418.93	243.21
419.30	244.07
419.67	245.05
420.04	246.01
420.42	247.00
420.79	248.17
421.16	249.30
421.54	250.51
421.91	251.74
422.28	253.01
422.66	254.34
423.03	255.65
423.40	256.97
423.77	258.38
424.15	259.80
424.52	261.31
424.89	262.93
425.26	264.50
425.64	265.93
426.01	267.55
426.38	269.24
426.75	270.92
427.13	272.63
427.50	274.40
427.87	276.30
428.24	278.20
428.61	280.01
428.99	281.98
429.36	284.07
429.73	286.15
430.10	288.20
430.47	290.28
430.85	292.40
431.22	294.71
431.59	297.08
431.96	299.36
432.33	301.87
432.70	304.30
433.08	307.10
433.45	309.75
433.82	312.32
434.19	315.23
434.56	318.03
434.93	320.73
435.30	323.37
435.68	326.25
436.05	329.10
436.42	331.87
436.79	334.40
437.16	337.15
437.53	340.00
437.90	342.84
438.27	345.59
438.64	348.44
439.01	350.98
439.38	353.25
439.75	355.44
440.13	357.90
440.50	360.19
440.87	362.09
441.24	364.09
441.61	366.31
441.98	367.81
442.35	369.60
442.72	371.49
443.09	373.32
443.46	374.31
443.83	374.89
444.20	375.39
444.57	376.17
444.94	376.42
445.31	376.73
445.68	377.08
446.05	377.15
446.42	376.76
446.79	376.42
447.16	375.95
447.53	375.60
447.90	374.45
448.27	373.28
448.64	371.69
449.01	370.51
449.37	368.50
449.74	366.60
450.11	364.38
450.48	361.87
450.85	359.33
451.22	357.20
451.59	355.19
451.96	353.28
452.33	350.71
452.70	348.37
453.07	345.56
453.43	342.62
453.80	339.87
454.17	337.18
454.54	334.58
454.91	331.84
455.28	329.18
455.65	326.67
456.02	324.26
456.38	322.07
456.75	319.37
457.12	317.09
457.49	314.85
457.86	312.64
458.23	310.75
458.59	308.70
458.96	306.61
459.33	304.69
459.70	302.81
460.07	301.28
460.43	299.55
460.80	297.91
461.17	296.43
461.54	294.87
461.91	293.44
462.27	291.98
462.64	290.72
463.01	289.35
463.38	288.05
463.74	286.65
464.11	285.47
464.48	284.44
464.85	283.34
465.21	282.45
465.58	281.54
465.95	280.46
466.32	279.55
466.68	278.61
467.05	277.71
467.42	276.78
467.78	275.83
468.15	274.93
468.52	274.25
468.88	273.42
469.25	272.65
469.62	272.02
469.98	271.34
470.35	270.69
470.72	270.11
471.08	269.44
471.45	268.87
471.82	268.34
472.18	267.77
472.55	267.35
472.92	266.80
473.28	266.36
473.65	265.89
474.02	265.42
474.38	265.07
474.75	264.73
475.11	264.40
475.48	264.14
475.85	263.91
476.21	263.66
476.58	263.47
476.94	263.33
477.31	263.17
477.67	263.04
478.04	262.95
478.41	262.87
478.77	262.92
479.14	262.87
479.50	262.90
479.87	262.96
480.23	263.03
480.60	263.09
480.96	263.19
481.33	263.43
481.69	263.65
482.06	263.85
482.42	264.07
482.79	264.34
483.15	264.66
483.52	265.02
483.88	265.37
484.25	265.80
484.61	266.23
484.98	266.68
485.34	267.23
485.71	267.82
486.07	268.44
486.44	269.01
486.80	269.75
487.17	270.47
487.53	271.27
487.90	272.11
488.26	273.06
488.62	274.01
488.99	274.99
489.35	276.03
489.72	277.17
490.08	278.33
490.44	279.57
490.81	280.89
491.17	282.26
491.54	283.77
491.90	285.28
492.26	286.95
492.63	288.67
492.99	290.43
493.36	292.30
493.72	294.31
494.08	296.40
494.45	298.62
494.81	300.99
495.17	303.44
495.54	305.98
495.90	308.66
496.26	311.44
496.63	314.40
496.99	317.48
497.35	320.71
497.72	324.14
498.08	327.66
498.44	331.28
498.80	335.22
499.17	339.27
499.53	343.42
499.89	347.75
500.26	352.24
500.62	356.95
500.98	361.93
501.34	366.98
501.71	372.31
502.07	377.75
502.43	383.32
502.79	389.13
503.16	395.20
503.52	401.45
503.88	407.87
504.24	414.46
504.60	421.30
504.97	428.45
505.33	435.80
505.69	443.45
506.05	451.29
506.41	459.15
506.78	467.24
507.14	475.67
507.50	484.34
507.86	493.35
508.22	502.47
508.59	511.63
508.95	521.26
509.31	531.02
509.67	541.12
510.03	551.39
510.39	561.87
510.75	572.72
511.12	583.57
511.48	594.86
511.84	606.33
512.20	617.83
512.56	629.76
512.92	641.89
513.28	654.24
513.64	666.69
514.00	679.40
514.37	692.35
514.73	705.44
515.09	718.52
515.45	731.87
515.81	745.48
516.17	759.50
516.53	773.58
516.89	787.83
517.25	802.08
517.61	816.59
517.97	831.19
518.33	845.64
518.69	860.49
519.05	875.46
519.41	890.72
519.77	906.34
520.13	921.82
520.49	937.26
520.85	952.77
521.21	968.48
521.57	984.79
521.93	1000.70
522.29	1017.22
522.65	1033.49
523.01	1049.80
523.37	1065.84
523.73	1082.07
524.09	1098.20
524.45	1114.52
524.81	1131.15
525.17	1147.99
525.53	1164.95
525.89	1181.98
526.25	1198.86
526.61	1215.38
526.97	1232.15
527.33	1248.66
527.68	1265.35
528.04	1281.89
528.40	1298.57
528.76	1315.87
529.12	1332.52
529.48	1349.38
529.84	1365.37
530.20	1382.18
530.56	1399.20
530.91	1416.83
531.27	1433.65
531.63	1450.22
531.99	1466.97
532.35	1483.03
532.71	1499.05
533.07	1515.39
533.42	1531.16
533.78	1547.22
534.14	1563.49
534.50	1578.87
534.86	1594.86
535.21	1610.15
535.57	1626.26
535.93	1641.77
536.29	1656.56
536.65	1671.88
537.00	1686.88
537.36	1702.22
537.72	1716.70
538.08	1731.25
538.44	1745.00
538.79	1758.95
539.15	1772.83
539.51	1786.54
539.87	1800.95
540.22	1814.77
540.58	1828.64
540.94	1842.21
541.29	1855.44
541.65	1868.31
542.01	1881.67
542.37	1894.04
542.72	1906.39
543.08	1918.11
543.44	1930.60
543.79	1941.80
544.15	1952.71
544.51	1964.19
544.87	1975.28
545.22	1986.20
545.58	1996.46
545.94	2006.25
546.29	2016.22
546.65	2026.00
547.01	2035.29
547.36	2044.01
547.72	2052.44
548.07	2060.21
548.43	2068.39
548.79	2076.31
549.14	2083.78
549.50	2091.12
549.86	2098.80
550.21	2106.20
550.57	2113.41
550.92	2120.03
551.28	2127.25
551.64	2134.34
551.99	2140.85
552.35	2146.99
552.70	2153.11
553.06	2158.97
553.41	2165.45
553.77	2171.42
554.13	2177.40
554.48	2183.38
554.84	2188.81
555.19	2194.21
555.55	2199.31
555.90	2203.81
556.26	2208.66
556.61	2213.40
556.97	2217.62
557.32	2221.69
557.68	2225.89
558.03	2230.25
558.39	2233.84
558.74	2238.30
559.10	2242.06
559.45	2245.89
559.81	2250.32
560.16	2254.09
560.52	2257.35
560.87	2260.83
561.23	2263.39
561.58	2266.42
561.94	2269.01
562.29	2271.48
562.64	2274.05
563.00	2276.69
563.35	2280.08
563.71	2283.21
564.06	2286.51
564.42	2289.42
564.77	2291.87
565.12	2293.97
565.48	2295.67
565.83	2297.54
566.19	2298.83
566.54	2299.86
566.89	2300.75
567.25	2301.15
567.60	2302.53
567.96	2304.09
568.31	2304.71
568.66	2305.72
569.02	2306.22
569.37	2306.57
569.72	2307.30
570.08	2307.16
570.43	2307.18
570.78	2306.40
571.14	2304.80
571.49	2303.34
571.84	2302.92
572.20	2301.76
572.55	2300.71
572.90	2299.15
573.26	2297.74
573.61	2296.02
573.96	2293.97
574.31	2290.96
574.67	2287.89
575.02	2284.10
575.37	2280.61
575.72	2276.59
576.08	2273.39
576.43	2270.03
576.78	2266.21
577.13	2263.01
577.49	2260.03
577.84	2256.46
578.19	2252.78
578.54	2249.00
578.90	2244.66
579.25	2238.99
579.60	2233.94
579.95	2228.95
580.30	2223.78
580.66	2218.39
581.01	2213.33
581.36	2208.34
581.71	2204.16
582.06	2199.56
582.42	2194.98
582.77	2189.86
583.12	2185.27
583.47	2180.33
583.82	2175.07
584.17	2169.70
584.53	2163.91
584.88	2158.02
585.23	2152.11
585.58	2146.56
585.93	2141.03
586.28	2136.17
586.63	2130.94
586.98	2125.85
587.34	2120.95
587.69	2116.16
588.04	2110.78
588.39	2104.98
588.74	2098.48
589.09	2092.14
589.44	2085.26
589.79	2079.27
590.14	2073.47
590.49	2066.74
590.84	2060.23
591.19	2054.22
591.54	2047.78
591.89	2040.27
592.25	2033.61
592.60	2026.32
592.95	2018.58
593.30	2011.12
593.65	2003.30
594.00	1996.24
594.35	1988.84
594.70	1980.79
595.05	1973.35
595.40	1966.10
595.75	1958.49
596.10	1952.02
596.45	1945.15
596.80	1938.96
597.15	1932.12
597.50	1924.85
597.85	1918.44
598.19	1911.67
598.54	1904.53
598.89	1897.90
599.24	1892.15
599.59	1885.23
599.94	1878.96
600.29	1872.61
600.64	1865.98
600.99	1858.57
601.34	1851.71
601.69	1844.78
602.04	1837.61
602.39	1830.24
602.74	1823.41
603.08	1816.68
603.43	1810.05
603.78	1802.72
604.13	1795.44
604.48	1788.06
604.83	1781.37
605.18	1774.29
605.53	1766.22
605.87	1758.14
606.22	1750.79
606.57	1742.83
606.92	1735.56
607.27	1728.26
607.62	1721.38
607.96	1714.16
608.31	1707.48
608.66	1699.73
609.01	1692.12
609.36	1684.75
609.70	1676.74
610.05	1668.54
610.40	1660.82
610.75	1652.52
611.10	1644.89
611.44	1636.59
611.79	1628.79
612.14	1620.04
612.49	1611.02
612.83	1602.82
613.18	1594.70
613.53	1586.62
613.88	1578.09
614.22	1569.75
614.57	1561.24
614.92	1553.14
615.27	1545.53
615.61	1537.21
615.96	1529.26
616.31	1521.62
616.65	1514.09
617.00	1506.56
617.35	1499.03
617.70	1490.63
618.04	1482.13
618.39	1473.92
618.74	1466.31
619.08	1457.97
619.43	1450.39
619.78	1443.41
620.12	1436.20
620.47	1428.78
620.82	1420.58
621.16	1413.11
621.51	1405.55
621.85	1397.96
622.20	1389.44
622.55	1381.13
622.89	1373.48
623.24	1365.97
623.59	1358.67
623.93	1351.26
624.28	1344.02
624.62	1336.49
624.97	1329.51
625.32	1322.75
625.66	1315.68
626.01	1308.44
626.35	1300.96
626.70	1293.15
627.04	1285.49
627.39	1277.77
627.73	1270.28
628.08	1263.39
628.43	1256.09
628.77	1248.70
629.12	1241.09
629.46	1234.07
629.81	1226.59
630.15	1219.19
630.50	1211.75
630.84	1203.53
631.19	1195.62
631.53	1188.13
631.88	1180.63
632.22	1172.92
632.57	1165.69
632.91	1158.13
633.26	1150.80
633.60	1143.45
633.95	1136.41
634.29	1129.42
634.64	1122.71
634.98	1115.49
635.32	1108.46
635.67	1101.94
636.01	1095.38
636.36	1088.67
636.70	1082.08
637.05	1075.58
637.39	1069.18
637.73	1062.67
638.08	1056.96
638.42	1051.04
638.77	1044.55
639.11	1037.85
639.45	1031.47
639.80	1024.76
640.14	1018.42
640.49	1011.86
640.83	1005.57
641.17	999.31
641.52	992.97
641.86	986.60
642.20	980.74
642.55	974.38
642.89	967.84
643.23	961.26
643.58	955.41
643.92	949.23
644.26	943.11
644.61	937.10
644.95	931.08
645.29	924.30
645.64	917.50
645.98	911.13
646.32	905.40
646.66	899.43
647.01	893.67
647.35	887.91
647.69	882.08
648.04	876.59
648.38	870.85
648.72	864.81
649.06	858.74
649.41	852.79
649.75	846.75
650.09	840.84
650.43	835.05
650.78	828.92
651.12	822.97
651.46	817.26
651.80	811.52
652.14	806.17
652.49	800.95
652.83	795.82
653.17	790.17
653.51	784.47
653.85	779.02
654.20	773.43
654.54	767.54
654.88	761.81
655.22	755.92
655.56	750.30
655.90	744.87
656.25	739.59
656.59	734.30
656.93	729.25
657.27	724.11
657.61	718.70
657.95	713.63
658.29	708.50
658.64	703.29
658.98	698.03
659.32	692.55
659.66	687.23
660.00	681.88
660.34	676.96
660.68	672.04
661.02	667.02
661.36	662.25
661.70	657.74
662.05	653.34
662.39	649.00
662.73	644.56
663.07	640.21
663.41	635.78
663.75	631.24
664.09	626.72
664.43	622.33
664.77	618.24
665.11	613.97
665.45	609.91
665.79	605.78
666.13	601.61
666.47	597.44
666.81	593.31
667.15	589.23
667.49	585.37
667.83	581.53
668.17	577.64
668.51	573.61
668.85	569.59
669.19	565.77
669.53	562.00
669.87	558.01
670.21	554.30
670.55	550.70
670.89	547.30
671.23	543.87
671.57	540.31
671.91	536.79
672.25	533.36
672.58	529.85
672.92	526.54
673.26	523.43
673.60	520.33
673.94	517.24
674.28	514.31
674.62	511.29
674.96	508.17
675.30	505.25
675.64	502.30
675.97	499.53
676.31	496.72
676.65	493.69
676.99	490.99
677.33	488.14
677.67	485.29
678.01	482.26
678.34	479.26
678.68	476.45
679.02	473.63
679.36	470.86
679.70	468.15
680.04	465.34
680.37	462.39
680.71	459.67
681.05	457.07
681.39	454.38
681.73	451.78
682.06	449.31
682.40	446.77
682.74	444.23
683.08	441.67
683.42	439.06
683.75	436.64
684.09	434.12
684.43	431.69
684.77	429.25
685.10	426.93
685.44	424.66
685.78	422.36
686.12	420.12
686.45	417.86
686.79	415.56
687.13	413.38
687.46	411.24
687.80	409.07
688.14	406.84
688.48	404.80
688.81	402.56
689.15	400.41
689.49	398.28
689.82	396.24
690.16	394.21
690.50	392.26
690.83	390.26
691.17	388.32
691.51	386.44
691.84	384.59
692.18	382.65
692.52	380.69
692.85	378.79
693.19	376.93
693.52	375.11
693.86	373.29
694.20	371.51
694.53	369.75
694.87	367.94
695.21	366.21
695.54	364.42
695.88	362.71
696.21	360.94
696.55	359.26
696.88	357.56
697.22	355.89
697.56	354.28
697.89	352.70
698.23	351.12
698.56	349.48
698.90	347.88
699.23	346.22
699.57	344.70
699.90	343.20
700.24	341.69
700.58	340.16
700.91	338.68
701.25	337.26
701.58	335.86
701.92	334.54
702.25	333.13
702.59	331.76
702.92	330.47
703.26	329.22
703.59	327.97
703.93	326.83
704.26	325.59
704.60	324.31
704.93	323.05
705.26	321.80
705.60	320.64
705.93	319.49
706.27	318.48
706.60	317.46
706.94	316.38
707.27	315.24
707.61	314.16
707.94	313.14
708.27	312.06
708.61	310.99
708.94	309.94
709.28	308.97
709.61	308.00
709.94	307.01
710.28	305.99
710.61	305.00
710.95	303.89
711.28	303.01
711.61	302.05
711.95	301.12
712.28	300.17
712.61	299.18
712.95	298.26
713.28	297.39
713.61	296.45
713.95	295.53
714.28	294.67
714.61	293.78
714.95	292.95
715.28	292.08
715.61	291.18
715.95	290.33
716.28	289.50
716.61	288.67
716.95	287.85
717.28	287.11
717.61	286.33
717.94	285.63
718.28	284.79
718.61	284.11
718.94	283.38
719.27	282.75
719.61	282.12
719.94	281.44
720.27	280.70
720.60	280.05
720.94	279.44
721.27	278.84
721.60	278.28
721.93	277.66
722.27	277.14
722.60	276.65
722.93	276.07
723.26	275.51
723.59	274.96
723.93	274.43
724.26	273.88
724.59	273.33
724.92	272.79
725.25	272.29
725.59	271.72
725.92	271.23
726.25	270.68
726.58	270.14
726.91	269.66
727.24	269.19
727.57	268.75
727.91	268.26
728.24	267.82
728.57	267.36
728.90	266.91
729.23	266.37
729.56	265.92
729.89	265.46
730.22	264.94
730.55	264.47
730.89	264.03
731.22	263.57
731.55	263.15
731.88	262.75
732.21	262.30
732.54	261.88
732.87	261.47
733.20	261.10
733.53	260.75
733.86	260.37
734.19	259.99
734.52	259.57
734.85	259.24
735.18	258.82
735.51	258.47
735.84	258.08
736.17	257.77
736.50	257.38
736.83	257.18
737.16	256.90
737.49	256.57
737.82	256.23
738.15	255.91
738.48	255.59
738.81	255.20
739.14	254.90
739.47	254.58
739.80	254.28
740.13	253.95
740.46	253.62
740.79	253.30
741.12	253.02
741.45	252.70
741.78	252.38
742.11	252.09
742.44	251.74
742.77	251.49
743.10	251.18
743.43	250.87
743.75	250.45
744.08	250.30
744.41	250.01
744.74	249.75
745.07	249.47
745.40	249.22
745.73	249.02
746.06	248.76
746.39	248.51
746.71	248.20
747.04	247.89
747.37	247.62
747.70	247.35
748.03	247.09
748.36	246.88
748.68	246.63
749.01	246.39
749.34	246.16
749.67	245.93
750.00	245.68
750.33	245.56
750.65	245.39
750.98	245.06
751.31	244.86
751.64	244.64
751.97	244.48
752.29	244.24
752.62	244.00
752.95	243.76
753.28	243.54
753.60	243.37
753.93	243.20
754.26	243.04
754.59	242.82
754.91	242.57
755.24	242.35
755.57	242.14
755.90	241.99
756.22	241.82
756.55	241.63
756.88	241.45
757.20	241.22
757.53	240.99
757.86	240.82
758.19	240.68
758.51	240.55
758.84	240.35
759.17	240.17
759.49	239.97
759.82	239.88
760.15	239.78
760.47	239.60
760.80	239.44
761.13	239.27
761.45	239.16
761.78	239.05
762.11	238.93
762.43	238.79
762.76	238.61
763.08	238.47
763.41	238.33
763.74	238.21
764.06	238.03
764.39	237.89
764.71	237.73
765.04	237.59
765.37	237.41
765.69	237.29
766.02	237.17
766.34	237.06
766.67	236.92
767.00	236.78
767.32	236.75
767.65	236.70
767.97	236.58
768.30	236.46
768.62	236.35
768.95	236.21
769.27	236.10
769.60	236.01
769.92	235.88
770.25	235.76
770.57	235.63
770.90	235.53
771.22	235.42
771.55	235.28
771.87	235.14
772.20	235.05
772.52	235.01
772.85	235.06
773.17	234.97
773.50	234.83
773.82	234.76
774.15	234.62
774.47	234.43
774.80	234.38
775.12	234.28
775.45	234.19
775.77	234.12
776.09	234.02
776.42	233.94
776.74	233.91
777.07	233.84
777.39	233.79
777.72	233.73
778.04	233.69
778.36	233.65
778.69	233.58
779.01	233.52
779.33	233.36
779.66	233.19
779.98	233.09
780.31	233.06
780.63	232.99
780.95	232.95
781.28	232.92
781.60	232.84
781.92	232.78
782.25	232.72
782.57	232.68
782.89	232.63
783.22	232.57
783.54	232.46
783.86	232.41
784.19	232.34
784.51	232.30
784.83	232.27
785.16	232.25
785.48	232.24
785.80	232.18
786.12	232.17
786.45	232.09
786.77	232.12
787.09	232.08
787.42	232.00
787.74	231.97
788.06	231.95
788.38	231.91
788.71	231.88
789.03	231.86
789.35	231.81
789.67	231.76
789.99	231.72
790.32	231.69
790.64	231.66
790.96	231.71
791.28	231.68
791.61	231.61
791.93	231.56
792.25	231.53
792.57	231.56
792.89	231.53
793.21	231.48
793.54	231.43
793.86	231.38
794.18	231.37
794.50	231.30
794.82	231.25
795.14	231.22
795.47	231.21
795.79	231.16
796.11	231.12
796.43	231.10
796.75	231.09
797.07	231.08
797.39	231.01
797.71	230.93
798.04	230.87
798.36	230.84
798.68	230.79
799.00	230.74
799.32	230.65
799.64	230.62
799.96	230.62
800.28	230.63
800.60	230.58
800.92	230.56
801.24	230.53
801.56	230.46
801.89	230.44
802.21	230.37
802.53	230.32
802.85	230.28
803.17	230.29
803.49	230.22
803.81	230.15
804.13	230.16
804.45	230.09
804.77	230.06
805.09	230.04
805.41	230.01
805.73	230.00
806.05	229.94
806.37	229.89
806.69	229.81
807.01	229.75
807.33	229.74
807.65	229.65
807.97	229.66
808.28	229.66
808.60	229.63
808.92	229.55
809.24	229.58
809.56	229.54
809.88	229.48
810.20	229.47
810.52	229.50
810.84	229.42
811.16	229.36
811.48	229.33
811.80	229.31
812.12	229.25
812.43	229.20
812.75	229.19
813.07	229.19
813.39	229.19
813.71	229.14
814.03	229.08
814.35	229.08
814.67	229.04
814.98	229.01
815.30	228.97
815.62	228.99
815.94	228.91
816.26	228.90
816.58	228.84
816.89	228.82
817.21	228.76
817.53	228.76
817.85	228.76
818.17	228.69
818.48	228.64
818.80	228.67
819.12	228.63
819.44	228.57
819.76	228.52
820.07	228.49
820.39	228.49
820.71	228.51
821.03	228.47
821.34	228.45
821.66	228.44
821.98	228.43
822.30	228.44
822.61	228.49
822.93	228.48
823.25	228.48
823.57	228.49
823.88	228.49
824.20	228.48
824.52	228.52
824.83	228.56
825.15	228.55
825.47	228.50
825.79	228.53
826.10	228.51
826.42	228.51
826.74	228.51
827.05	228.45
827.37	228.43
827.69	228.45
828.00	228.42
828.32	228.43
828.64	228.43
828.95	228.44
829.27	228.41
829.58	228.40
829.90	228.40
830.22	228.37
830.53	228.35
830.85	228.34
831.17	228.28
831.48	228.27
831.80	228.29
832.11	228.31
832.43	228.30
832.75	228.31
833.06	228.36
833.38	228.32
833.69	228.36
834.01	228.39
834.32	228.38
834.64	228.39
834.96	228.35
835.27	228.32
835.59	228.29
835.90	228.27
836.22	228.27
836.53	228.26
836.85	228.26
837.16	228.35
837.48	228.36
837.79	228.42
838.11	228.43
838.42	228.40
838.74	228.43
839.05	228.43
839.37	228.43
839.68	228.38
840.00	228.38
840.31	228.38
840.63	228.34
840.94	228.32
841.26	228.32
841.57	228.30
841.88	228.32
842.20	228.31
842.51	228.30
842.83	228.28
843.14	228.34
843.46	228.32
843.77	228.25
844.08	228.23
844.40	228.13
844.71	228.09
845.03	228.09
845.34	228.05
845.65	227.99
845.97	227.96
846.28	227.96
846.60	227.94
846.91	227.91
847.22	227.89
847.54	227.89
847.85	227.87
848.16	227.87
848.48	227.83
848.79	227.83
849.10	227.82
849.42	227.82
849.73	227.71
850.04	227.69
850.36	227.65
850.67	227.65
850.98	227.66
851.30	227.65
851.61	227.66
851.92	227.63
852.23	227.70
852.55	227.72
852.86	227.67
853.17	227.70
853.49	227.69
853.80	227.72
854.11	227.75
854.42	227.76
854.74	227.73
855.05	227.75
855.36	227.72
855.67	227.73
855.99	227.72
856.30	227.85
856.61	227.84
856.92	227.83
857.23	227.78
857.55	227.79
857.86	227.79
858.17	227.78
858.48	227.74
858.79	227.68
859.11	227.67
859.42	227.65
859.73	227.59
860.04	227.64
860.35	227.58
860.66	227.52
860.98	227.51
861.29	227.50
861.60	227.47
861.91	227.47
862.22	227.45
862.53	227.43
862.84	227.33
863.16	227.37
863.47	227.36
863.78	227.37
864.09	227.37
864.40	227.38
864.71	227.38
865.02	227.42
865.33	227.42
865.64	227.40
865.95	227.41
866.27	227.49
866.58	227.46
866.89	227.47
867.20	227.50
867.51	227.48
867.82	227.48
868.13	227.52
868.44	227.53
868.75	227.52
869.06	227.56
869.37	227.56
869.68	227.49
869.99	227.51
870.30	227.52
870.61	227.53
870.92	227.52
871.23	227.52
871.54	227.53
871.85	227.57
872.16	227.60
872.47	227.62
872.78	227.60
873.09	227.60
873.40	227.59
873.71	227.59
874.02	227.61
874.33	227.62
874.64	227.62
874.95	227.63
875.26	227.64
875.56	227.60
875.87	227.57
876.18	227.61
876.49	227.72
876.80	227.67
877.11	227.64
877.42	227.63
877.73	227.63
878.04	227.61
878.35	227.59
878.66	227.60
878.96	227.60
879.27	227.58
879.58	227.56
879.89	227.58
880.20	227.56
880.51	227.54
880.82	227.57
881.12	227.56
881.43	227.51
881.74	227.49
882.05	227.49
882.36	227.51
882.67	227.51
882.97	227.39
883.28	227.43
883.59	227.43
883.90	227.45
884.21	227.46
884.51	227.45
884.82	227.42
885.13	227.39
885.44	227.41
885.74	227.39
886.05	227.41
886.36	227.38
886.67	227.35
886.98	227.39
887.28	227.36
887.59	227.35
887.90	227.37
888.20	227.36
888.51	227.37
888.82	227.32
889.13	227.31
889.43	227.39
889.74	227.38
890.05	227.39
890.35	227.36
890.66	227.31
890.97	227.29
891.28	227.33
891.58	227.28
891.89	227.24
892.20	227.24
892.50	227.21
892.81	227.21
893.12	227.19
893.42	227.15
893.73	227.14
894.04	227.13
894.34	227.14
894.65	227.13
894.95	227.10
895.26	227.16
895.57	227.18
895.87	227.08
896.18	227.06
896.48	227.05
896.79	227.05
897.10	227.07
897.40	227.07
897.71	227.04
898.01	227.06
898.32	227.07
898.63	227.07
898.93	227.06
899.24	227.06
899.54	227.07
899.85	227.07
900.15	227.04
900.46	227.05
900.76	227.03
901.07	227.05
901.38	227.07
901.68	227.04
901.99	227.06
902.29	227.08
902.60	227.06
902.90	227.05
903.21	227.04
903.51	227.03
903.82	227.06
904.12	227.09
904.43	227.13
904.73	227.10
905.03	227.09
905.34	227.18
905.64	227.17
905.95	227.17
906.25	227.15
906.56	227.14
906.86	227.14
907.17	227.15
907.47	227.15
907.77	227.14
908.08	227.12
908.38	227.11
908.69	227.10
908.99	227.16
909.30	227.18
909.60	227.18
909.90	227.21
910.21	227.19
910.51	227.17
910.81	227.18
911.12	227.22
911.42	227.25
911.73	227.16
912.03	227.20
912.33	227.24
912.64	227.27
912.94	227.28
913.24	227.29
913.55	227.30
913.85	227.29
914.15	227.30
914.46	227.33
914.76	227.31
915.06	227.30
915.37	227.28
915.67	227.30
915.97	227.30
916.27	227.29
916.58	227.32
916.88	227.29
917.18	227.29
917.49	227.36
917.79	227.34
918.09	227.35
918.39	227.38
918.70	227.36
919.00	227.39
919.30	227.45
919.60	227.46
919.91	227.43
920.21	227.45
920.51	227.46
920.81	227.45
921.12	227.47
921.42	227.46
921.72	227.46
922.02	227.42
922.32	227.42
922.63	227.42
922.93	227.44
923.23	227.44
923.53	227.43
923.83	227.35
924.13	227.36
924.44	227.34
924.74	227.33
925.04	227.34
925.34	227.30
925.64	227.24
925.94	227.21
926.24	227.26
926.55	227.21
926.85	227.19
927.15	227.17
927.45	227.20
927.75	227.21
928.05	227.19
928.35	227.20
928.65	227.23
928.95	227.24
929.26	227.19
929.56	227.18
929.86	227.16
930.16	227.13
930.46	227.09
930.76	227.11
931.06	227.04
931.36	227.01
931.66	227.00
931.96	227.03
932.26	227.03
932.56	226.96
932.86	226.94
933.16	226.91
933.46	226.92
933.76	226.85
934.06	226.86
934.36	226.89
934.66	226.85
934.96	226.82
935.26	226.82
935.56	226.84
935.86	226.86
936.16	226.84
936.46	226.81
936.76	226.80
937.06	226.79
937.36	226.80
937.66	226.80
937.96	226.81
938.26	226.78
938.56	226.79
938.86	226.84
939.16	226.88
939.46	226.93
939.76	226.94
940.06	226.94
940.35	226.95
940.65	226.90
940.95	226.94
941.25	226.91
941.55	226.88
941.85	226.87
942.15	226.85
942.45	226.92
942.75	226.96
943.04	226.96
943.34	226.97
943.64	226.98
943.94	226.98
944.24	227.01
944.54	227.02
944.84	227.01
945.13	226.96
945.43	226.97
945.73	226.97
946.03	226.93
946.33	226.97
946.62	226.95
946.92	226.95
947.22	226.97
947.52	227.04
947.82	227.04
948.11	227.05
948.41	227.04
948.71	227.00
949.01	227.02
949.31	227.04
949.60	227.06
949.90	227.07
950.20	227.07
950.50	227.04
950.79	227.04
951.09	227.05
951.39	227.09
951.69	227.08
951.98	227.07
952.28	227.10
952.58	227.06
952.87	227.09
953.17	227.12
953.47	227.12
953.76	227.11
954.06	227.12
954.36	227.10
954.66	227.14
954.95	227.17
955.25	227.16
955.55	227.15
955.84	227.15
956.14	227.15
956.44	227.15
956.73	227.18
957.03	227.18
957.32	227.15
957.62	227.15
957.92	227.15
958.21	227.17
958.51	227.25
958.81	227.26
959.10	227.27
959.40	227.25
959.69	227.22
959.99	227.22
960.29	227.20
960.58	227.19
960.88	227.22
961.17	227.20
961.47	227.23
961.76	227.23
962.06	227.21
962.36	227.20
962.65	227.22
962.95	227.21
963.24	227.19
963.54	227.21
963.83	227.18
964.13	227.19
964.42	227.17
964.72	227.13
965.01	227.14
965.31	227.15
965.60	227.14
965.90	227.21
966.19	227.17
966.49	227.17
966.78	227.14
967.08	227.10
967.37	227.09
967.67	227.05
967.96	227.08
968.26	227.08
968.55	227.10
968.85	227.10
969.14	227.06
969.43	227.07
969.73	227.07
970.02	227.06
970.32	227.07
970.61	227.06
970.91	227.01
971.20	226.99
971.49	226.96
971.79	227.01
972.08	226.95
972.38	226.96
972.67	226.96
972.96	226.98
973.26	226.98
973.55	226.99
973.85	226.97
974.14	226.93
974.43	226.94
974.73	226.89
975.02	226.87
975.31	226.89
975.61	226.87
975.90	226.88
976.19	226.87
976.49	226.85
976.78	226.88
977.07	226.86
977.37	226.85
977.66	226.88
977.95	226.83
978.24	226.82
978.54	226.85
978.83	226.86
979.12	226.85
979.42	226.88
979.71	226.90
980.00	226.90
980.29	226.94
980.59	226.94
980.88	226.99
981.17	226.99
981.46	227.03
981.76	227.05
982.05	227.05
982.34	227.08
982.63	227.08
982.93	227.05
983.22	227.08
983.51	227.11
983.80	227.11
984.09	227.14
984.39	227.13
984.68	227.13
984.97	227.11
985.26	227.16
985.55	227.14
985.85	227.11
986.14	227.15
986.43	227.17
986.72	227.15
987.01	227.11
987.30	227.16
987.59	227.12
987.89	227.14
988.18	227.13
988.47	227.14
988.76	227.14
989.05	227.13
989.34	227.16
989.63	227.17
989.92	227.15
990.22	227.15
990.51	227.18
990.80	227.17
991.09	227.18
991.38	227.15
991.67	227.16
991.96	227.18
992.25	227.16
992.54	227.12
992.83	227.15
993.12	227.16
993.41	227.15
993.70	227.19
993.99	227.20
994.28	227.23
994.58	227.23
994.87	227.21
995.16	227.22
995.45	227.20
995.74	227.15
996.03	227.18
996.32	227.18
996.61	227.18
996.90	227.18
997.19	227.20
997.48	227.19
997.77	227.19
998.06	227.18
998.34	227.19
998.63	227.16
998.92	227.18
999.21	227.17
999.50	227.16
999.79	227.10
1000.08	227.09
1000.37	227.06
1000.66	227.07
1000.95	227.10
1001.24	227.09
1001.53	227.11
1001.82	227.10
1002.11	227.04
1002.40	227.04
1002.68	227.06
1002.97	227.15
1003.26	227.13
1003.55	227.13
1003.84	227.09
1004.13	227.11
1004.42	227.10
1004.71	227.12
1004.99	227.09
1005.28	227.14
1005.57	227.11
1005.86	227.11
1006.15	227.08
1006.44	227.05
1006.72	227.06
1007.01	227.06
1007.30	227.08
1007.59	227.06
1007.88	227.09
1008.17	227.10
1008.45	227.08
1008.74	227.06
1009.03	226.98
1009.32	226.97
1009.60	226.97
1009.89	226.98
1010.18	226.96
1010.47	226.94
1010.76	226.92
1011.04	226.92
1011.33	226.91
1011.62	226.91
1011.91	226.93
1012.19	226.97
1012.48	226.96
1012.77	226.95
1013.05	226.99
1013.34	226.97
1013.63	226.98
1013.92	226.93
1014.20	226.93
1014.49	226.92
1014.78	226.93
1015.06	226.90
1015.35	226.92
1015.64	226.88
1015.92	226.89
1016.21	226.92
1016.50	226.93
1016.78	226.99
1017.07	227.04
1017.36	226.98
1017.64	226.98
1017.93	226.98
1018.22	227.00
1018.50	227.02
1018.79	227.02
1019.08	226.93
1019.36	226.96
1019.65	226.94
1019.93	226.98
1020.22	227.03
1020.51	227.09
1020.79	227.09
1021.08	227.30
1021.36	226.89
1021.65	227.08
1021.94	226.43
1022.22	227.30
1022.51	226.83
1022.79	227.22
1023.08	227.60
1023.36	227.95
1023.65	227.26
>>>>>End Processed Spectral Data<<<<<
