SpectraSuite Data File
++++++++++++++++++++++++++++++++++++
Date: Fri Feb 01 16:09:25 EST 2013
User: group
Dark Spectrum Present: No
Reference Spectrum Present: No
Number of Sampled Component Spectra: 1
Spectrometers: USB2E7196
Integration Time (usec): 35000 (USB2E7196)
Spectra Averaged: 100 (USB2E7196)
Boxcar Smoothing: 10 (USB2E7196)
Correct for Electrical Dark: No (USB2E7196)
Strobe/Lamp Enabled: No (USB2E7196)
Correct for Detector Non-linearity: No (USB2E7196)
Correct for Stray Light: No (USB2E7196)
Number of Pixels in Processed Spectrum: 2048
>>>>>Begin Processed Spectral Data<<<<<
339.09	0.00
339.48	213.98
339.86	216.21
340.24	217.69
340.63	218.86
341.01	221.43
341.39	221.79
341.78	222.62
342.16	223.82
342.54	224.64
342.93	212.89
343.31	223.63
343.69	224.22
344.07	224.67
344.46	225.06
344.84	225.44
345.22	225.70
345.60	225.93
345.99	226.14
346.37	226.27
346.75	226.35
347.13	226.41
347.52	226.46
347.90	226.54
348.28	226.60
348.66	226.69
349.05	226.69
349.43	226.73
349.81	226.76
350.19	226.78
350.57	226.84
350.96	226.93
351.34	227.02
351.72	227.08
352.10	227.19
352.48	227.29
352.87	227.32
353.25	227.34
353.63	227.39
354.01	227.45
354.39	227.53
354.77	227.63
355.15	227.71
355.54	227.75
355.92	227.74
356.30	227.83
356.68	227.91
357.06	227.98
357.44	228.00
357.82	228.03
358.20	228.10
358.58	228.18
358.97	228.25
359.35	228.34
359.73	228.41
360.11	228.45
360.49	228.47
360.87	228.52
361.25	228.58
361.63	228.64
362.01	228.66
362.39	228.67
362.77	228.72
363.15	228.73
363.53	228.76
363.91	228.78
364.29	228.76
364.67	228.68
365.05	228.71
365.43	228.76
365.81	228.80
366.19	228.84
366.57	228.86
366.95	228.84
367.33	228.79
367.71	228.76
368.09	228.77
368.47	228.76
368.85	228.75
369.23	228.74
369.61	228.69
369.99	228.73
370.37	228.74
370.75	228.73
371.13	228.70
371.51	228.65
371.89	228.65
372.27	228.60
372.65	228.59
373.03	228.52
373.41	228.45
373.78	228.41
374.16	228.30
374.54	228.22
374.92	228.14
375.30	228.09
375.68	228.02
376.06	227.97
376.44	227.89
376.82	227.83
377.19	227.77
377.57	227.70
377.95	227.61
378.33	227.55
378.71	227.40
379.09	227.36
379.47	227.31
379.84	227.22
380.22	227.16
380.60	227.07
380.98	227.01
381.36	226.93
381.73	226.87
382.11	226.86
382.49	226.78
382.87	226.69
383.25	226.65
383.62	226.73
384.00	226.62
384.38	226.59
384.76	226.56
385.13	226.55
385.51	226.52
385.89	226.46
386.27	226.39
386.64	226.38
387.02	226.29
387.40	226.23
387.78	226.22
388.15	226.20
388.53	226.17
388.91	226.16
389.29	226.16
389.66	226.13
390.04	226.08
390.42	226.10
390.79	226.13
391.17	226.12
391.55	226.00
391.92	226.03
392.30	226.00
392.68	225.96
393.05	225.95
393.43	225.93
393.81	225.90
394.18	225.90
394.56	225.93
394.94	226.00
395.31	226.02
395.69	226.03
396.06	226.07
396.44	226.10
396.82	226.12
397.19	226.18
397.57	226.21
397.95	226.26
398.32	226.26
398.70	226.31
399.07	226.35
399.45	226.41
399.82	226.47
400.20	226.55
400.58	226.65
400.95	226.67
401.33	226.74
401.70	226.89
402.08	226.98
402.45	227.06
402.83	227.15
403.20	227.27
403.58	227.35
403.95	227.49
404.33	227.60
404.71	227.72
405.08	227.89
405.46	228.03
405.83	228.17
406.21	228.34
406.58	228.51
406.96	228.68
407.33	228.82
407.70	229.03
408.08	229.32
408.45	229.55
408.83	229.82
409.20	230.06
409.58	230.24
409.95	230.47
410.33	230.74
410.70	231.00
411.08	231.29
411.45	231.60
411.82	231.88
412.20	232.26
412.57	232.69
412.95	233.00
413.32	233.39
413.69	233.81
414.07	234.20
414.44	234.69
414.82	235.15
415.19	235.72
415.56	236.26
415.94	236.76
416.31	237.42
416.68	238.03
417.06	238.74
417.43	239.44
417.81	240.28
418.18	241.07
418.55	241.95
418.93	242.83
419.30	243.74
419.67	244.73
420.04	245.69
420.42	246.64
420.79	247.83
421.16	249.00
421.54	250.21
421.91	251.45
422.28	252.69
422.66	254.06
423.03	255.36
423.40	256.71
423.77	258.16
424.15	259.60
424.52	261.12
424.89	262.75
425.26	264.31
425.64	265.76
426.01	267.34
426.38	269.00
426.75	270.69
427.13	272.41
427.50	274.22
427.87	276.09
428.24	277.99
428.61	279.71
428.99	281.64
429.36	283.74
429.73	285.80
430.10	287.81
430.47	289.86
430.85	291.96
431.22	294.15
431.59	296.46
431.96	298.66
432.33	301.11
432.70	303.47
433.08	306.27
433.45	308.92
433.82	311.50
434.19	314.35
434.56	317.14
434.93	319.80
435.30	322.39
435.68	325.30
436.05	328.16
436.42	330.90
436.79	333.44
437.16	336.13
437.53	338.93
437.90	341.74
438.27	344.49
438.64	347.35
439.01	350.00
439.38	352.27
439.75	354.46
440.13	356.94
440.50	359.27
440.87	361.10
441.24	363.02
441.61	365.18
441.98	366.66
442.35	368.46
442.72	370.32
443.09	372.08
443.46	373.02
443.83	373.57
444.20	374.14
444.57	374.91
444.94	375.21
445.31	375.54
445.68	375.91
446.05	375.94
446.42	375.52
446.79	375.04
447.16	374.57
447.53	374.21
447.90	373.05
448.27	371.88
448.64	370.30
449.01	369.13
449.37	367.15
449.74	365.25
450.11	363.00
450.48	360.50
450.85	358.01
451.22	355.88
451.59	353.84
451.96	351.89
452.33	349.29
452.70	346.89
453.07	344.05
453.43	341.14
453.80	338.38
454.17	335.75
454.54	333.19
454.91	330.49
455.28	327.83
455.65	325.35
456.02	322.91
456.38	320.75
456.75	318.07
457.12	315.83
457.49	313.61
457.86	311.46
458.23	309.64
458.59	307.61
458.96	305.51
459.33	303.66
459.70	301.78
460.07	300.30
460.43	298.62
460.80	297.00
461.17	295.55
461.54	294.07
461.91	292.66
462.27	291.26
462.64	289.98
463.01	288.63
463.38	287.32
463.74	285.94
464.11	284.81
464.48	283.82
464.85	282.71
465.21	281.81
465.58	280.90
465.95	279.80
466.32	278.89
466.68	278.04
467.05	277.14
467.42	276.26
467.78	275.40
468.15	274.52
468.52	273.93
468.88	273.15
469.25	272.39
469.62	271.75
469.98	271.09
470.35	270.47
470.72	269.91
471.08	269.29
471.45	268.78
471.82	268.26
472.18	267.66
472.55	267.25
472.92	266.79
473.28	266.34
473.65	265.90
474.02	265.46
474.38	265.10
474.75	264.83
475.11	264.54
475.48	264.26
475.85	264.03
476.21	263.80
476.58	263.59
476.94	263.46
477.31	263.32
477.67	263.15
478.04	263.06
478.41	262.99
478.77	263.02
479.14	262.97
479.50	263.01
479.87	263.08
480.23	263.17
480.60	263.23
480.96	263.34
481.33	263.56
481.69	263.77
482.06	263.97
482.42	264.13
482.79	264.39
483.15	264.68
483.52	265.07
483.88	265.40
484.25	265.77
484.61	266.17
484.98	266.60
485.34	267.18
485.71	267.74
486.07	268.36
486.44	268.90
486.80	269.59
487.17	270.28
487.53	271.07
487.90	271.88
488.26	272.81
488.62	273.74
488.99	274.71
489.35	275.73
489.72	276.82
490.08	278.03
490.44	279.23
490.81	280.55
491.17	281.91
491.54	283.36
491.90	284.90
492.26	286.56
492.63	288.25
492.99	290.01
493.36	291.89
493.72	293.89
494.08	296.04
494.45	298.26
494.81	300.59
495.17	303.04
495.54	305.61
495.90	308.29
496.26	311.11
496.63	314.05
496.99	317.14
497.35	320.41
497.72	323.77
498.08	327.30
498.44	330.98
498.80	334.87
499.17	338.92
499.53	343.06
499.89	347.43
500.26	351.94
500.62	356.58
500.98	361.60
501.34	366.72
501.71	372.05
502.07	377.52
502.43	383.19
502.79	389.00
503.16	395.08
503.52	401.39
503.88	407.80
504.24	414.44
504.60	421.38
504.97	428.54
505.33	435.89
505.69	443.58
506.05	451.37
506.41	459.25
506.78	467.47
507.14	475.92
507.50	484.62
507.86	493.68
508.22	502.95
508.59	512.18
508.95	521.80
509.31	531.66
509.67	541.78
510.03	552.08
510.39	562.63
510.75	573.41
511.12	584.29
511.48	595.57
511.84	607.06
512.20	618.54
512.56	630.55
512.92	642.65
513.28	655.06
513.64	667.58
514.00	680.27
514.37	693.21
514.73	706.26
515.09	719.39
515.45	732.75
515.81	746.29
516.17	760.27
516.53	774.38
516.89	788.55
517.25	802.73
517.61	817.21
517.97	831.70
518.33	846.19
518.69	860.99
519.05	876.07
519.41	891.23
519.77	906.82
520.13	922.20
520.49	937.64
520.85	952.97
521.21	968.67
521.57	984.94
521.93	1000.68
522.29	1017.14
522.65	1033.29
523.01	1049.34
523.37	1065.41
523.73	1081.59
524.09	1097.71
524.45	1113.95
524.81	1130.60
525.17	1147.29
525.53	1164.16
525.89	1180.96
526.25	1197.74
526.61	1214.02
526.97	1230.70
527.33	1247.14
527.68	1263.65
528.04	1280.13
528.40	1296.75
528.76	1313.78
529.12	1330.31
529.48	1347.08
529.84	1362.94
530.20	1379.58
530.56	1396.55
530.91	1413.88
531.27	1430.55
531.63	1446.93
531.99	1463.35
532.35	1479.27
532.71	1495.16
533.07	1511.39
533.42	1527.27
533.78	1543.33
534.14	1559.62
534.50	1574.92
534.86	1590.70
535.21	1605.87
535.57	1621.68
535.93	1636.94
536.29	1651.62
536.65	1666.57
537.00	1681.29
537.36	1696.63
537.72	1711.01
538.08	1725.35
538.44	1738.93
538.79	1752.73
539.15	1766.33
539.51	1780.13
539.87	1794.30
540.22	1807.86
540.58	1821.43
540.94	1834.53
541.29	1847.19
541.65	1859.65
542.01	1872.71
542.37	1884.94
542.72	1897.23
543.08	1908.92
543.44	1921.30
543.79	1932.44
544.15	1943.35
544.51	1954.84
544.87	1965.65
545.22	1976.46
545.58	1986.72
545.94	1996.56
546.29	2006.32
546.65	2015.98
547.01	2025.25
547.36	2033.91
547.72	2042.30
548.07	2050.19
548.43	2058.44
548.79	2066.48
549.14	2074.04
549.50	2081.40
549.86	2089.02
550.21	2096.41
550.57	2103.75
550.92	2110.35
551.28	2117.47
551.64	2124.56
551.99	2131.15
552.35	2137.34
552.70	2143.48
553.06	2149.49
553.41	2155.93
553.77	2161.92
554.13	2168.01
554.48	2174.23
554.84	2179.70
555.19	2184.89
555.55	2190.01
555.90	2194.53
556.26	2199.58
556.61	2204.30
556.97	2208.59
557.32	2212.75
557.68	2216.92
558.03	2221.14
558.39	2224.98
558.74	2229.65
559.10	2233.51
559.45	2237.07
559.81	2241.33
560.16	2245.16
560.52	2248.42
560.87	2251.74
561.23	2254.53
561.58	2257.50
561.94	2259.75
562.29	2262.14
562.64	2264.99
563.00	2267.47
563.35	2270.93
563.71	2273.89
564.06	2277.22
564.42	2280.24
564.77	2282.83
565.12	2285.18
565.48	2287.08
565.83	2288.96
566.19	2290.40
566.54	2291.38
566.89	2292.60
567.25	2293.31
567.60	2294.64
567.96	2296.21
568.31	2297.02
568.66	2298.15
569.02	2298.87
569.37	2299.29
569.72	2300.17
570.08	2300.39
570.43	2300.59
570.78	2300.12
571.14	2298.70
571.49	2297.23
571.84	2296.95
572.20	2295.87
572.55	2294.61
572.90	2292.82
573.26	2291.36
573.61	2289.46
573.96	2287.65
574.31	2284.68
574.67	2281.70
575.02	2278.09
575.37	2274.86
575.72	2271.11
576.08	2267.79
576.43	2264.31
576.78	2260.67
577.13	2257.56
577.49	2254.31
577.84	2250.88
578.19	2247.12
578.54	2243.57
578.90	2239.49
579.25	2233.88
579.60	2228.93
579.95	2224.13
580.30	2219.28
580.66	2214.09
581.01	2209.13
581.36	2204.25
581.71	2200.10
582.06	2195.70
582.42	2191.28
582.77	2185.98
583.12	2181.40
583.47	2176.70
583.82	2171.97
584.17	2166.71
584.53	2161.01
584.88	2155.53
585.23	2149.79
585.58	2144.27
585.93	2138.71
586.28	2133.98
586.63	2128.88
586.98	2123.85
587.34	2119.06
587.69	2114.19
588.04	2109.05
588.39	2103.39
588.74	2097.03
589.09	2091.03
589.44	2084.26
589.79	2078.07
590.14	2072.43
590.49	2065.81
590.84	2059.35
591.19	2053.26
591.54	2046.96
591.89	2039.98
592.25	2033.34
592.60	2026.23
592.95	2018.82
593.30	2011.52
593.65	2003.86
594.00	1996.80
594.35	1989.45
594.70	1981.33
595.05	1974.23
595.40	1966.87
595.75	1959.36
596.10	1953.15
596.45	1946.40
596.80	1940.23
597.15	1933.82
597.50	1926.81
597.85	1920.39
598.19	1913.83
598.54	1906.72
598.89	1899.92
599.24	1893.92
599.59	1887.18
599.94	1880.93
600.29	1874.56
600.64	1867.96
600.99	1860.51
601.34	1853.75
601.69	1846.86
602.04	1840.17
602.39	1832.83
602.74	1826.07
603.08	1819.47
603.43	1812.69
603.78	1805.33
604.13	1797.97
604.48	1790.65
604.83	1783.80
605.18	1777.13
605.53	1769.08
605.87	1761.09
606.22	1753.82
606.57	1745.75
606.92	1738.31
607.27	1731.11
607.62	1724.13
607.96	1716.79
608.31	1710.27
608.66	1702.70
609.01	1695.16
609.36	1687.48
609.70	1679.45
610.05	1671.43
610.40	1663.70
610.75	1655.40
611.10	1647.78
611.44	1639.55
611.79	1631.46
612.14	1622.78
612.49	1613.42
612.83	1605.14
613.18	1596.99
613.53	1589.12
613.88	1580.77
614.22	1572.52
614.57	1563.81
614.92	1555.85
615.27	1548.36
615.61	1540.04
615.96	1531.84
616.31	1524.16
616.65	1516.86
617.00	1509.25
617.35	1501.51
617.70	1493.20
618.04	1484.74
618.39	1476.53
618.74	1468.83
619.08	1460.55
619.43	1452.97
619.78	1446.13
620.12	1438.91
620.47	1431.43
620.82	1423.17
621.16	1415.71
621.51	1408.06
621.85	1400.55
622.20	1391.99
622.55	1383.73
622.89	1375.79
623.24	1368.36
623.59	1360.87
623.93	1353.34
624.28	1346.28
624.62	1338.81
624.97	1331.64
625.32	1324.79
625.66	1317.67
626.01	1310.65
626.35	1303.26
626.70	1295.43
627.04	1287.69
627.39	1279.83
627.73	1272.33
628.08	1265.39
628.43	1258.18
628.77	1250.95
629.12	1243.33
629.46	1236.21
629.81	1228.70
630.15	1221.63
630.50	1214.19
630.84	1206.12
631.19	1198.15
631.53	1190.47
631.88	1182.81
632.22	1175.18
632.57	1167.85
632.91	1160.39
633.26	1152.90
633.60	1145.49
633.95	1138.39
634.29	1131.35
634.64	1124.77
634.98	1117.46
635.32	1110.31
635.67	1103.62
636.01	1096.93
636.36	1090.14
636.70	1083.54
637.05	1077.03
637.39	1070.47
637.73	1063.97
638.08	1058.02
638.42	1052.03
638.77	1045.73
639.11	1039.28
639.45	1032.88
639.80	1026.30
640.14	1019.85
640.49	1013.35
640.83	1007.07
641.17	1000.95
641.52	994.53
641.86	988.01
642.20	982.19
642.55	975.87
642.89	969.37
643.23	962.87
643.58	957.14
643.92	951.00
644.26	945.00
644.61	938.97
644.95	932.91
645.29	926.45
645.64	919.75
645.98	913.31
646.32	907.36
646.66	901.40
647.01	895.61
647.35	889.89
647.69	883.97
648.04	878.40
648.38	872.50
648.72	866.60
649.06	860.59
649.41	854.64
649.75	848.76
650.09	842.80
650.43	836.95
650.78	830.78
651.12	824.84
651.46	819.04
651.80	813.32
652.14	807.97
652.49	802.56
652.83	797.40
653.17	791.73
653.51	786.06
653.85	780.59
654.20	775.03
654.54	769.08
654.88	763.35
655.22	757.51
655.56	751.92
655.90	746.47
656.25	741.23
656.59	735.80
656.93	730.68
657.27	725.50
657.61	720.06
657.95	714.95
658.29	709.78
658.64	704.50
658.98	699.17
659.32	693.63
659.66	688.46
660.00	683.13
660.34	678.20
660.68	673.25
661.02	668.24
661.36	663.45
661.70	658.93
662.05	654.52
662.39	650.14
662.73	645.62
663.07	641.20
663.41	636.76
663.75	632.38
664.09	627.73
664.43	623.32
664.77	619.18
665.11	614.88
665.45	610.82
665.79	606.71
666.13	602.62
666.47	598.61
666.81	594.42
667.15	590.28
667.49	586.29
667.83	582.47
668.17	578.53
668.51	574.47
668.85	570.40
669.19	566.59
669.53	562.79
669.87	558.91
670.21	555.20
670.55	551.53
670.89	548.09
671.23	544.68
671.57	541.21
671.91	537.69
672.25	534.19
672.58	530.67
672.92	527.23
673.26	523.99
673.60	520.74
673.94	517.56
674.28	514.63
674.62	511.67
674.96	508.53
675.30	505.60
675.64	502.69
675.97	499.95
676.31	497.03
676.65	494.10
676.99	491.46
677.33	488.56
677.67	485.78
678.01	482.72
678.34	479.81
678.68	477.01
679.02	474.22
679.36	471.47
679.70	468.76
680.04	466.03
680.37	463.15
680.71	460.36
681.05	457.76
681.39	455.02
681.73	452.43
682.06	450.00
682.40	447.43
682.74	444.82
683.08	442.22
683.42	439.63
683.75	437.16
684.09	434.57
684.43	432.12
684.77	429.62
685.10	427.26
685.44	424.86
685.78	422.51
686.12	420.22
686.45	417.95
686.79	415.64
687.13	413.47
687.46	411.34
687.80	409.21
688.14	407.02
688.48	404.97
688.81	402.69
689.15	400.47
689.49	398.33
689.82	396.27
690.16	394.21
690.50	392.28
690.83	390.29
691.17	388.33
691.51	386.45
691.84	384.61
692.18	382.71
692.52	380.73
692.85	378.78
693.19	376.90
693.52	375.06
693.86	373.24
694.20	371.44
694.53	369.63
694.87	367.74
695.21	365.95
695.54	364.16
695.88	362.49
696.21	360.85
696.55	359.16
696.88	357.45
697.22	355.81
697.56	354.16
697.89	352.50
698.23	350.88
698.56	349.25
698.90	347.69
699.23	346.03
699.57	344.55
699.90	343.02
700.24	341.53
700.58	340.04
700.91	338.56
701.25	337.11
701.58	335.72
701.92	334.39
702.25	333.00
702.59	331.63
702.92	330.32
703.26	328.97
703.59	327.71
703.93	326.52
704.26	325.28
704.60	323.95
704.93	322.70
705.26	321.43
705.60	320.23
705.93	319.04
706.27	318.01
706.60	316.90
706.94	315.82
707.27	314.63
707.61	313.51
707.94	312.47
708.27	311.35
708.61	310.26
708.94	309.24
709.28	308.27
709.61	307.31
709.94	306.28
710.28	305.23
710.61	304.26
710.95	303.21
711.28	302.28
711.61	301.37
711.95	300.46
712.28	299.52
712.61	298.57
712.95	297.62
713.28	296.70
713.61	295.80
713.95	294.91
714.28	294.08
714.61	293.21
714.95	292.35
715.28	291.49
715.61	290.65
715.95	289.81
716.28	288.93
716.61	288.10
716.95	287.33
717.28	286.62
717.61	285.85
717.94	285.12
718.28	284.31
718.61	283.58
718.94	282.90
719.27	282.23
719.61	281.60
719.94	280.93
720.27	280.25
720.60	279.63
720.94	278.99
721.27	278.38
721.60	277.80
721.93	277.18
722.27	276.64
722.60	276.07
722.93	275.50
723.26	274.97
723.59	274.44
723.93	273.88
724.26	273.30
724.59	272.72
724.92	272.15
725.25	271.67
725.59	271.15
725.92	270.62
726.25	270.11
726.58	269.60
726.91	269.13
727.24	268.68
727.57	268.17
727.91	267.68
728.24	267.24
728.57	266.76
728.90	266.35
729.23	265.84
729.56	265.39
729.89	264.91
730.22	264.41
730.55	263.93
730.89	263.48
731.22	263.09
731.55	262.63
731.88	262.22
732.21	261.77
732.54	261.32
732.87	260.91
733.20	260.52
733.53	260.12
733.86	259.75
734.19	259.33
734.52	258.91
734.85	258.58
735.18	258.16
735.51	257.82
735.84	257.44
736.17	257.13
736.50	256.76
736.83	256.54
737.16	256.20
737.49	255.83
737.82	255.52
738.15	255.18
738.48	254.90
738.81	254.55
739.14	254.21
739.47	253.91
739.80	253.61
740.13	253.29
740.46	252.99
740.79	252.63
741.12	252.34
741.45	252.08
741.78	251.74
742.11	251.45
742.44	251.06
742.77	250.81
743.10	250.51
743.43	250.21
743.75	249.83
744.08	249.72
744.41	249.49
744.74	249.19
745.07	248.91
745.40	248.66
745.73	248.45
746.06	248.23
746.39	247.96
746.71	247.64
747.04	247.39
747.37	247.11
747.70	246.91
748.03	246.68
748.36	246.45
748.68	246.22
749.01	245.98
749.34	245.82
749.67	245.55
750.00	245.32
750.33	245.14
750.65	244.93
750.98	244.55
751.31	244.31
751.64	244.12
751.97	243.98
752.29	243.73
752.62	243.50
752.95	243.27
753.28	243.11
753.60	242.94
753.93	242.77
754.26	242.59
754.59	242.37
754.91	242.14
755.24	241.95
755.57	241.74
755.90	241.57
756.22	241.37
756.55	241.16
756.88	240.94
757.20	240.73
757.53	240.52
757.86	240.40
758.19	240.22
758.51	240.07
758.84	239.82
759.17	239.66
759.49	239.50
759.82	239.34
760.15	239.19
760.47	239.02
760.80	238.84
761.13	238.71
761.45	238.53
761.78	238.38
762.11	238.25
762.43	238.08
762.76	237.94
763.08	237.81
763.41	237.68
763.74	237.55
764.06	237.42
764.39	237.27
764.71	237.07
765.04	236.93
765.37	236.76
765.69	236.63
766.02	236.52
766.34	236.39
766.67	236.24
767.00	236.12
767.32	236.05
767.65	235.96
767.97	235.86
768.30	235.77
768.62	235.66
768.95	235.54
769.27	235.46
769.60	235.35
769.92	235.21
770.25	235.10
770.57	234.99
770.90	234.85
771.22	234.75
771.55	234.65
771.87	234.55
772.20	234.46
772.52	234.43
772.85	234.44
773.17	234.34
773.50	234.25
773.82	234.14
774.15	234.01
774.47	233.89
774.80	233.76
775.12	233.67
775.45	233.58
775.77	233.53
776.09	233.43
776.42	233.35
776.74	233.32
777.07	233.26
777.39	233.22
777.72	233.15
778.04	233.08
778.36	233.04
778.69	233.00
779.01	232.94
779.33	232.78
779.66	232.60
779.98	232.51
780.31	232.43
780.63	232.41
780.95	232.35
781.28	232.30
781.60	232.23
781.92	232.17
782.25	232.14
782.57	232.03
782.89	231.98
783.22	231.95
783.54	231.87
783.86	231.85
784.19	231.75
784.51	231.71
784.83	231.67
785.16	231.64
785.48	231.57
785.80	231.54
786.12	231.52
786.45	231.52
786.77	231.50
787.09	231.48
787.42	231.40
787.74	231.37
788.06	231.31
788.38	231.29
788.71	231.25
789.03	231.17
789.35	231.18
789.67	231.13
789.99	231.08
790.32	231.01
790.64	230.97
790.96	231.01
791.28	230.98
791.61	230.95
791.93	230.90
792.25	230.89
792.57	230.92
792.89	230.86
793.21	230.80
793.54	230.71
793.86	230.70
794.18	230.63
794.50	230.58
794.82	230.55
795.14	230.53
795.47	230.49
795.79	230.47
796.11	230.40
796.43	230.36
796.75	230.32
797.07	230.32
797.39	230.29
797.71	230.19
798.04	230.14
798.36	230.09
798.68	230.05
799.00	230.02
799.32	229.92
799.64	229.91
799.96	229.87
800.28	229.87
800.60	229.81
800.92	229.83
801.24	229.81
801.56	229.75
801.89	229.71
802.21	229.68
802.53	229.64
802.85	229.62
803.17	229.61
803.49	229.53
803.81	229.49
804.13	229.43
804.45	229.39
804.77	229.36
805.09	229.34
805.41	229.28
805.73	229.20
806.05	229.13
806.37	229.13
806.69	229.10
807.01	229.09
807.33	229.08
807.65	229.01
807.97	229.03
808.28	229.00
808.60	228.96
808.92	228.93
809.24	228.96
809.56	228.94
809.88	228.90
810.20	228.92
810.52	228.92
810.84	228.89
811.16	228.88
811.48	228.86
811.80	228.87
812.12	228.85
812.43	228.85
812.75	228.87
813.07	228.81
813.39	228.76
813.71	228.71
814.03	228.68
814.35	228.67
814.67	228.59
814.98	228.55
815.30	228.53
815.62	228.51
815.94	228.43
816.26	228.44
816.58	228.39
816.89	228.36
817.21	228.29
817.53	228.27
817.85	228.22
818.17	228.20
818.48	228.12
818.80	228.14
819.12	228.13
819.44	228.07
819.76	228.05
820.07	228.07
820.39	228.07
820.71	228.07
821.03	228.04
821.34	228.01
821.66	228.06
821.98	228.07
822.30	228.07
822.61	228.10
822.93	228.05
823.25	228.06
823.57	228.07
823.88	228.10
824.20	228.10
824.52	228.11
824.83	228.10
825.15	228.12
825.47	228.07
825.79	228.02
826.10	228.02
826.42	228.01
826.74	228.00
827.05	227.97
827.37	227.92
827.69	227.92
828.00	227.96
828.32	227.93
828.64	227.90
828.95	227.88
829.27	227.85
829.58	227.85
829.90	227.84
830.22	227.81
830.53	227.76
830.85	227.74
831.17	227.73
831.48	227.73
831.80	227.72
832.11	227.74
832.43	227.77
832.75	227.76
833.06	227.78
833.38	227.74
833.69	227.73
834.01	227.74
834.32	227.70
834.64	227.63
834.96	227.62
835.27	227.57
835.59	227.55
835.90	227.52
836.22	227.49
836.53	227.46
836.85	227.46
837.16	227.57
837.48	227.56
837.79	227.58
838.11	227.60
838.42	227.59
838.74	227.57
839.05	227.52
839.37	227.51
839.68	227.50
840.00	227.49
840.31	227.49
840.63	227.48
840.94	227.46
841.26	227.47
841.57	227.44
841.88	227.44
842.20	227.44
842.51	227.42
842.83	227.45
843.14	227.54
843.46	227.52
843.77	227.44
844.08	227.39
844.40	227.32
844.71	227.28
845.03	227.23
845.34	227.23
845.65	227.22
845.97	227.21
846.28	227.20
846.60	227.22
846.91	227.20
847.22	227.16
847.54	227.18
847.85	227.18
848.16	227.20
848.48	227.20
848.79	227.19
849.10	227.17
849.42	227.15
849.73	227.03
850.04	227.00
850.36	226.95
850.67	227.00
850.98	227.00
851.30	226.99
851.61	227.01
851.92	226.98
852.23	227.02
852.55	227.01
852.86	227.00
853.17	226.98
853.49	227.00
853.80	227.02
854.11	227.04
854.42	227.06
854.74	227.05
855.05	227.06
855.36	227.02
855.67	227.02
855.99	227.01
856.30	227.13
856.61	227.12
856.92	227.17
857.23	227.17
857.55	227.16
857.86	227.18
858.17	227.18
858.48	227.19
858.79	227.19
859.11	227.19
859.42	227.18
859.73	227.17
860.04	227.17
860.35	227.15
860.66	227.11
860.98	227.11
861.29	227.10
861.60	227.08
861.91	227.11
862.22	227.10
862.53	227.09
862.84	226.99
863.16	227.01
863.47	226.97
863.78	226.95
864.09	226.95
864.40	226.93
864.71	226.88
865.02	226.89
865.33	226.84
865.64	226.83
865.95	226.82
866.27	226.87
866.58	226.87
866.89	226.89
867.20	226.90
867.51	226.89
867.82	226.90
868.13	226.91
868.44	226.90
868.75	226.90
869.06	226.91
869.37	226.92
869.68	226.91
869.99	226.94
870.30	226.96
870.61	226.96
870.92	226.97
871.23	226.99
871.54	226.97
871.85	227.01
872.16	227.02
872.47	227.00
872.78	226.93
873.09	226.92
873.40	226.91
873.71	226.93
874.02	226.92
874.33	226.89
874.64	226.88
874.95	226.90
875.26	226.89
875.56	226.87
875.87	226.87
876.18	226.87
876.49	226.95
876.80	226.94
877.11	226.91
877.42	226.89
877.73	226.91
878.04	226.92
878.35	226.87
878.66	226.87
878.96	226.84
879.27	226.87
879.58	226.85
879.89	226.82
880.20	226.82
880.51	226.78
880.82	226.76
881.12	226.75
881.43	226.71
881.74	226.70
882.05	226.69
882.36	226.69
882.67	226.69
882.97	226.59
883.28	226.56
883.59	226.55
883.90	226.56
884.21	226.57
884.51	226.57
884.82	226.58
885.13	226.60
885.44	226.62
885.74	226.60
886.05	226.60
886.36	226.61
886.67	226.56
886.98	226.62
887.28	226.66
887.59	226.65
887.90	226.68
888.20	226.63
888.51	226.67
888.82	226.60
889.13	226.60
889.43	226.67
889.74	226.67
890.05	226.70
890.35	226.69
890.66	226.66
890.97	226.64
891.28	226.62
891.58	226.60
891.89	226.62
892.20	226.61
892.50	226.60
892.81	226.60
893.12	226.61
893.42	226.57
893.73	226.56
894.04	226.57
894.34	226.56
894.65	226.57
894.95	226.54
895.26	226.57
895.57	226.60
895.87	226.50
896.18	226.49
896.48	226.47
896.79	226.47
897.10	226.48
897.40	226.48
897.71	226.50
898.01	226.50
898.32	226.52
898.63	226.52
898.93	226.51
899.24	226.53
899.54	226.52
899.85	226.49
900.15	226.47
900.46	226.50
900.76	226.50
901.07	226.53
901.38	226.55
901.68	226.56
901.99	226.53
902.29	226.55
902.60	226.56
902.90	226.56
903.21	226.57
903.51	226.55
903.82	226.58
904.12	226.60
904.43	226.60
904.73	226.57
905.03	226.56
905.34	226.66
905.64	226.63
905.95	226.63
906.25	226.63
906.56	226.66
906.86	226.63
907.17	226.64
907.47	226.65
907.77	226.62
908.08	226.64
908.38	226.64
908.69	226.65
908.99	226.66
909.30	226.67
909.60	226.66
909.90	226.68
910.21	226.65
910.51	226.64
910.81	226.61
911.12	226.64
911.42	226.68
911.73	226.57
912.03	226.60
912.33	226.62
912.64	226.64
912.94	226.63
913.24	226.65
913.55	226.63
913.85	226.59
914.15	226.62
914.46	226.62
914.76	226.61
915.06	226.59
915.37	226.61
915.67	226.60
915.97	226.61
916.27	226.60
916.58	226.61
916.88	226.59
917.18	226.62
917.49	226.68
917.79	226.63
918.09	226.68
918.39	226.72
918.70	226.72
919.00	226.70
919.30	226.71
919.60	226.71
919.91	226.67
920.21	226.69
920.51	226.66
920.81	226.65
921.12	226.64
921.42	226.64
921.72	226.64
922.02	226.62
922.32	226.62
922.63	226.63
922.93	226.67
923.23	226.68
923.53	226.67
923.83	226.61
924.13	226.64
924.44	226.62
924.74	226.62
925.04	226.65
925.34	226.66
925.64	226.65
925.94	226.65
926.24	226.73
926.55	226.72
926.85	226.74
927.15	226.75
927.45	226.77
927.75	226.80
928.05	226.81
928.35	226.84
928.65	226.91
928.95	226.88
929.26	226.84
929.56	226.88
929.86	226.89
930.16	226.86
930.46	226.86
930.76	226.89
931.06	226.84
931.36	226.83
931.66	226.83
931.96	226.83
932.26	226.83
932.56	226.78
932.86	226.82
933.16	226.84
933.46	226.79
933.76	226.76
934.06	226.78
934.36	226.76
934.66	226.73
934.96	226.69
935.26	226.72
935.56	226.75
935.86	226.68
936.16	226.65
936.46	226.68
936.76	226.67
937.06	226.65
937.36	226.64
937.66	226.63
937.96	226.63
938.26	226.62
938.56	226.57
938.86	226.56
939.16	226.59
939.46	226.58
939.76	226.61
940.06	226.62
940.35	226.56
940.65	226.54
940.95	226.54
941.25	226.51
941.55	226.47
941.85	226.49
942.15	226.53
942.45	226.56
942.75	226.55
943.04	226.56
943.34	226.55
943.64	226.56
943.94	226.57
944.24	226.56
944.54	226.57
944.84	226.58
945.13	226.60
945.43	226.53
945.73	226.53
946.03	226.51
946.33	226.53
946.62	226.54
946.92	226.52
947.22	226.52
947.52	226.53
947.82	226.57
948.11	226.51
948.41	226.49
948.71	226.45
949.01	226.46
949.31	226.44
949.60	226.45
949.90	226.43
950.20	226.42
950.50	226.37
950.79	226.36
951.09	226.41
951.39	226.41
951.69	226.43
951.98	226.43
952.28	226.47
952.58	226.42
952.87	226.39
953.17	226.42
953.47	226.43
953.76	226.45
954.06	226.39
954.36	226.42
954.66	226.38
954.95	226.41
955.25	226.39
955.55	226.40
955.84	226.37
956.14	226.40
956.44	226.39
956.73	226.40
957.03	226.40
957.32	226.42
957.62	226.40
957.92	226.42
958.21	226.42
958.51	226.49
958.81	226.51
959.10	226.54
959.40	226.57
959.69	226.54
959.99	226.51
960.29	226.52
960.58	226.49
960.88	226.55
961.17	226.54
961.47	226.53
961.76	226.53
962.06	226.53
962.36	226.52
962.65	226.55
962.95	226.57
963.24	226.57
963.54	226.52
963.83	226.53
964.13	226.53
964.42	226.50
964.72	226.45
965.01	226.46
965.31	226.49
965.60	226.44
965.90	226.52
966.19	226.51
966.49	226.55
966.78	226.57
967.08	226.57
967.37	226.58
967.67	226.57
967.96	226.57
968.26	226.56
968.55	226.57
968.85	226.56
969.14	226.55
969.43	226.53
969.73	226.54
970.02	226.54
970.32	226.54
970.61	226.53
970.91	226.46
971.20	226.46
971.49	226.42
971.79	226.45
972.08	226.39
972.38	226.40
972.67	226.37
972.96	226.41
973.26	226.38
973.55	226.40
973.85	226.44
974.14	226.42
974.43	226.46
974.73	226.45
975.02	226.40
975.31	226.42
975.61	226.44
975.90	226.41
976.19	226.42
976.49	226.44
976.78	226.45
977.07	226.47
977.37	226.47
977.66	226.49
977.95	226.45
978.24	226.44
978.54	226.45
978.83	226.45
979.12	226.44
979.42	226.44
979.71	226.42
980.00	226.43
980.29	226.43
980.59	226.42
980.88	226.45
981.17	226.50
981.46	226.51
981.76	226.48
982.05	226.52
982.34	226.50
982.63	226.49
982.93	226.50
983.22	226.50
983.51	226.51
983.80	226.51
984.09	226.54
984.39	226.52
984.68	226.51
984.97	226.52
985.26	226.50
985.55	226.54
985.85	226.51
986.14	226.53
986.43	226.55
986.72	226.52
987.01	226.47
987.30	226.43
987.59	226.40
987.89	226.40
988.18	226.39
988.47	226.39
988.76	226.37
989.05	226.34
989.34	226.32
989.63	226.36
989.92	226.33
990.22	226.32
990.51	226.33
990.80	226.31
991.09	226.29
991.38	226.25
991.67	226.21
991.96	226.20
992.25	226.17
992.54	226.13
992.83	226.15
993.12	226.15
993.41	226.18
993.70	226.24
993.99	226.25
994.28	226.26
994.58	226.28
994.87	226.26
995.16	226.23
995.45	226.22
995.74	226.16
996.03	226.22
996.32	226.25
996.61	226.28
996.90	226.28
997.19	226.26
997.48	226.30
997.77	226.29
998.06	226.29
998.34	226.28
998.63	226.27
998.92	226.27
999.21	226.27
999.50	226.23
999.79	226.20
1000.08	226.19
1000.37	226.20
1000.66	226.16
1000.95	226.21
1001.24	226.26
1001.53	226.27
1001.82	226.28
1002.11	226.23
1002.40	226.22
1002.68	226.24
1002.97	226.29
1003.26	226.32
1003.55	226.30
1003.84	226.33
1004.13	226.34
1004.42	226.36
1004.71	226.36
1004.99	226.36
1005.28	226.39
1005.57	226.40
1005.86	226.38
1006.15	226.37
1006.44	226.32
1006.72	226.34
1007.01	226.33
1007.30	226.30
1007.59	226.31
1007.88	226.28
1008.17	226.25
1008.45	226.24
1008.74	226.17
1009.03	226.14
1009.32	226.14
1009.60	226.19
1009.89	226.16
1010.18	226.14
1010.47	226.11
1010.76	226.15
1011.04	226.14
1011.33	226.13
1011.62	226.13
1011.91	226.14
1012.19	226.14
1012.48	226.17
1012.77	226.17
1013.05	226.21
1013.34	226.26
1013.63	226.23
1013.92	226.26
1014.20	226.30
1014.49	226.30
1014.78	226.34
1015.06	226.35
1015.35	226.36
1015.64	226.31
1015.92	226.35
1016.21	226.35
1016.50	226.36
1016.78	226.33
1017.07	226.35
1017.36	226.33
1017.64	226.34
1017.93	226.34
1018.22	226.38
1018.50	226.36
1018.79	226.34
1019.08	226.27
1019.36	226.27
1019.65	226.27
1019.93	226.28
1020.22	226.30
1020.51	226.34
1020.79	226.32
1021.08	226.78
1021.36	225.99
1021.65	225.79
1021.94	225.89
1022.22	226.72
1022.51	225.80
1022.79	226.69
1023.08	226.78
1023.36	227.26
1023.65	226.20
>>>>>End Processed Spectral Data<<<<<
