SpectraSuite Data File
++++++++++++++++++++++++++++++++++++
Date: Fri Feb 01 15:23:58 EST 2013
User: group
Dark Spectrum Present: No
Reference Spectrum Present: No
Number of Sampled Component Spectra: 1
Spectrometers: USB2E7196
Integration Time (usec): 35000 (USB2E7196)
Spectra Averaged: 100 (USB2E7196)
Boxcar Smoothing: 10 (USB2E7196)
Correct for Electrical Dark: No (USB2E7196)
Strobe/Lamp Enabled: No (USB2E7196)
Correct for Detector Non-linearity: No (USB2E7196)
Correct for Stray Light: No (USB2E7196)
Number of Pixels in Processed Spectrum: 2048
>>>>>Begin Processed Spectral Data<<<<<
339.09	0.00
339.48	214.94
339.86	216.45
340.24	217.78
340.63	219.68
341.01	221.82
341.39	221.69
341.78	223.02
342.16	225.07
342.54	224.65
342.93	213.28
343.31	224.09
343.69	224.60
344.07	225.08
344.46	225.53
344.84	225.89
345.22	226.14
345.60	226.39
345.99	226.61
346.37	226.73
346.75	226.83
347.13	226.86
347.52	226.92
347.90	227.02
348.28	227.02
348.66	227.04
349.05	227.05
349.43	227.12
349.81	227.15
350.19	227.25
350.57	227.34
350.96	227.44
351.34	227.50
351.72	227.63
352.10	227.73
352.48	227.77
352.87	227.82
353.25	227.91
353.63	227.98
354.01	228.03
354.39	228.09
354.77	228.18
355.15	228.31
355.54	228.40
355.92	228.45
356.30	228.56
356.68	228.67
357.06	228.73
357.44	228.80
357.82	228.88
358.20	228.95
358.58	229.02
358.97	229.09
359.35	229.17
359.73	229.24
360.11	229.27
360.49	229.33
360.87	229.39
361.25	229.45
361.63	229.50
362.01	229.56
362.39	229.60
362.77	229.66
363.15	229.68
363.53	229.71
363.91	229.73
364.29	229.73
364.67	229.65
365.05	229.68
365.43	229.67
365.81	229.70
366.19	229.72
366.57	229.71
366.95	229.70
367.33	229.65
367.71	229.64
368.09	229.63
368.47	229.61
368.85	229.58
369.23	229.52
369.61	229.48
369.99	229.47
370.37	229.45
370.75	229.42
371.13	229.37
371.51	229.28
371.89	229.20
372.27	229.16
372.65	229.14
373.03	229.09
373.41	229.04
373.78	228.93
374.16	228.82
374.54	228.72
374.92	228.62
375.30	228.53
375.68	228.45
376.06	228.35
376.44	228.27
376.82	228.22
377.19	228.16
377.57	228.06
377.95	227.95
378.33	227.86
378.71	227.77
379.09	227.71
379.47	227.66
379.84	227.59
380.22	227.51
380.60	227.41
380.98	227.32
381.36	227.27
381.73	227.20
382.11	227.13
382.49	227.09
382.87	227.07
383.25	227.03
383.62	227.09
384.00	227.02
384.38	226.99
384.76	226.95
385.13	226.93
385.51	226.91
385.89	226.83
386.27	226.80
386.64	226.77
387.02	226.73
387.40	226.68
387.78	226.67
388.15	226.65
388.53	226.64
388.91	226.64
389.29	226.60
389.66	226.59
390.04	226.57
390.42	226.55
390.79	226.53
391.17	226.51
391.55	226.40
391.92	226.39
392.30	226.38
392.68	226.35
393.05	226.32
393.43	226.32
393.81	226.37
394.18	226.37
394.56	226.38
394.94	226.43
395.31	226.41
395.69	226.49
396.06	226.53
396.44	226.56
396.82	226.58
397.19	226.66
397.57	226.71
397.95	226.83
398.32	226.86
398.70	226.93
399.07	227.04
399.45	227.10
399.82	227.17
400.20	227.27
400.58	227.37
400.95	227.46
401.33	227.59
401.70	227.70
402.08	227.81
402.45	227.87
402.83	227.96
403.20	228.09
403.58	228.18
403.95	228.33
404.33	228.48
404.71	228.62
405.08	228.82
405.46	228.95
405.83	229.07
406.21	229.23
406.58	229.42
406.96	229.59
407.33	229.78
407.70	230.02
408.08	230.27
408.45	230.51
408.83	230.77
409.20	230.99
409.58	231.19
409.95	231.46
410.33	231.76
410.70	232.04
411.08	232.35
411.45	232.66
411.82	232.99
412.20	233.35
412.57	233.77
412.95	234.05
413.32	234.49
413.69	234.90
414.07	235.37
414.44	235.82
414.82	236.30
415.19	236.86
415.56	237.39
415.94	237.94
416.31	238.56
416.68	239.17
417.06	239.88
417.43	240.58
417.81	241.37
418.18	242.17
418.55	243.00
418.93	243.86
419.30	244.76
419.67	245.66
420.04	246.62
420.42	247.62
420.79	248.79
421.16	249.92
421.54	251.11
421.91	252.33
422.28	253.57
422.66	254.89
423.03	256.15
423.40	257.47
423.77	258.86
424.15	260.27
424.52	261.76
424.89	263.36
425.26	264.93
425.64	266.31
426.01	267.87
426.38	269.56
426.75	271.23
427.13	272.92
427.50	274.77
427.87	276.60
428.24	278.45
428.61	280.17
428.99	282.11
429.36	284.19
429.73	286.22
430.10	288.24
430.47	290.31
430.85	292.44
431.22	294.74
431.59	297.17
431.96	299.44
432.33	301.89
432.70	304.27
433.08	307.10
433.45	309.81
433.82	312.44
434.19	315.27
434.56	318.13
434.93	320.81
435.30	323.38
435.68	326.32
436.05	329.17
436.42	332.01
436.79	334.52
437.16	337.21
437.53	340.09
437.90	342.90
438.27	345.63
438.64	348.42
439.01	350.98
439.38	353.19
439.75	355.33
440.13	357.85
440.50	360.15
440.87	361.97
441.24	363.92
441.61	366.09
441.98	367.60
442.35	369.35
442.72	371.19
443.09	373.02
443.46	374.01
443.83	374.58
444.20	375.07
444.57	375.93
444.94	376.25
445.31	376.58
445.68	376.97
446.05	377.00
446.42	376.64
446.79	376.25
447.16	375.79
447.53	375.53
447.90	374.37
448.27	373.24
448.64	371.64
449.01	370.45
449.37	368.46
449.74	366.56
450.11	364.31
450.48	361.87
450.85	359.36
451.22	357.18
451.59	355.18
451.96	353.27
452.33	350.68
452.70	348.30
453.07	345.44
453.43	342.52
453.80	339.79
454.17	337.14
454.54	334.58
454.91	331.86
455.28	329.12
455.65	326.59
456.02	324.12
456.38	321.96
456.75	319.34
457.12	317.06
457.49	314.81
457.86	312.69
458.23	310.83
458.59	308.72
458.96	306.68
459.33	304.79
459.70	302.89
460.07	301.37
460.43	299.65
460.80	298.05
461.17	296.61
461.54	295.10
461.91	293.65
462.27	292.19
462.64	290.94
463.01	289.59
463.38	288.29
463.74	286.91
464.11	285.78
464.48	284.75
464.85	283.67
465.21	282.80
465.58	281.85
465.95	280.72
466.32	279.83
466.68	278.92
467.05	278.05
467.42	277.16
467.78	276.20
468.15	275.30
468.52	274.60
468.88	273.71
469.25	272.92
469.62	272.32
469.98	271.63
470.35	271.00
470.72	270.40
471.08	269.76
471.45	269.22
471.82	268.62
472.18	267.95
472.55	267.52
472.92	266.99
473.28	266.55
473.65	266.08
474.02	265.61
474.38	265.20
474.75	264.85
475.11	264.50
475.48	264.23
475.85	263.99
476.21	263.76
476.58	263.58
476.94	263.44
477.31	263.22
477.67	263.07
478.04	262.94
478.41	262.85
478.77	262.85
479.14	262.78
479.50	262.81
479.87	262.90
480.23	262.93
480.60	262.98
480.96	263.01
481.33	263.22
481.69	263.41
482.06	263.62
482.42	263.79
482.79	264.02
483.15	264.35
483.52	264.76
483.88	265.10
484.25	265.51
484.61	265.92
484.98	266.38
485.34	266.94
485.71	267.54
486.07	268.16
486.44	268.73
486.80	269.47
487.17	270.22
487.53	271.03
487.90	271.86
488.26	272.81
488.62	273.81
488.99	274.81
489.35	275.87
489.72	277.03
490.08	278.24
490.44	279.49
490.81	280.79
491.17	282.12
491.54	283.62
491.90	285.14
492.26	286.80
492.63	288.55
492.99	290.32
493.36	292.16
493.72	294.21
494.08	296.34
494.45	298.59
494.81	300.96
495.17	303.44
495.54	306.05
495.90	308.71
496.26	311.51
496.63	314.48
496.99	317.66
497.35	320.88
497.72	324.33
498.08	327.81
498.44	331.52
498.80	335.46
499.17	339.49
499.53	343.63
499.89	347.96
500.26	352.48
500.62	357.18
500.98	362.21
501.34	367.25
501.71	372.56
502.07	378.01
502.43	383.61
502.79	389.43
503.16	395.46
503.52	401.75
503.88	408.20
504.24	414.85
504.60	421.68
504.97	428.86
505.33	436.18
505.69	443.91
506.05	451.67
506.41	459.56
506.78	467.73
507.14	476.16
507.50	484.88
507.86	493.90
508.22	503.07
508.59	512.23
508.95	521.92
509.31	531.70
509.67	541.85
510.03	552.11
510.39	562.63
510.75	573.50
511.12	584.45
511.48	595.75
511.84	607.18
512.20	618.72
512.56	630.60
512.92	642.69
513.28	654.96
513.64	667.50
514.00	680.15
514.37	693.13
514.73	706.24
515.09	719.31
515.45	732.67
515.81	746.28
516.17	760.25
516.53	774.28
516.89	788.46
517.25	802.57
517.61	816.95
517.97	831.38
518.33	845.72
518.69	860.55
519.05	875.49
519.41	890.67
519.77	906.26
520.13	921.87
520.49	937.38
520.85	952.88
521.21	968.56
521.57	984.80
521.93	1000.64
522.29	1017.06
522.65	1033.43
523.01	1049.68
523.37	1065.81
523.73	1082.06
524.09	1098.22
524.45	1114.60
524.81	1131.22
525.17	1148.17
525.53	1165.28
525.89	1182.21
526.25	1199.06
526.61	1215.51
526.97	1232.30
527.33	1248.78
527.68	1265.44
528.04	1282.01
528.40	1298.69
528.76	1315.85
529.12	1332.53
529.48	1349.39
529.84	1365.44
530.20	1381.98
530.56	1399.02
530.91	1416.47
531.27	1433.23
531.63	1449.71
531.99	1466.35
532.35	1482.45
532.71	1498.36
533.07	1514.53
533.42	1530.51
533.78	1546.67
534.14	1563.05
534.50	1578.49
534.86	1594.38
535.21	1609.44
535.57	1625.44
535.93	1641.00
536.29	1655.74
536.65	1670.88
537.00	1685.76
537.36	1701.15
537.72	1715.84
538.08	1730.33
538.44	1744.16
538.79	1758.24
539.15	1772.21
539.51	1786.01
539.87	1800.50
540.22	1814.31
540.58	1828.15
540.94	1841.65
541.29	1854.57
541.65	1867.33
542.01	1880.67
542.37	1892.99
542.72	1905.49
543.08	1917.33
543.44	1929.80
543.79	1941.25
544.15	1952.41
544.51	1964.04
544.87	1975.04
545.22	1985.90
545.58	1996.13
545.94	2006.00
546.29	2015.90
546.65	2025.57
547.01	2034.84
547.36	2043.58
547.72	2052.07
548.07	2060.06
548.43	2068.25
548.79	2076.29
549.14	2083.96
549.50	2091.37
549.86	2099.31
550.21	2106.80
550.57	2114.12
550.92	2120.65
551.28	2127.65
551.64	2134.71
551.99	2141.26
552.35	2147.45
552.70	2153.50
553.06	2159.47
553.41	2165.64
553.77	2171.59
554.13	2177.75
554.48	2183.96
554.84	2189.26
555.19	2194.64
555.55	2199.62
555.90	2204.12
556.26	2208.90
556.61	2213.50
556.97	2217.57
557.32	2221.56
557.68	2225.63
558.03	2229.86
558.39	2233.53
558.74	2238.13
559.10	2241.90
559.45	2245.54
559.81	2249.91
560.16	2253.70
560.52	2256.97
560.87	2260.56
561.23	2263.28
561.58	2266.22
561.94	2268.63
562.29	2271.17
562.64	2273.82
563.00	2276.61
563.35	2280.04
563.71	2283.33
564.06	2286.50
564.42	2289.33
564.77	2291.80
565.12	2294.03
565.48	2295.70
565.83	2297.52
566.19	2298.79
566.54	2299.73
566.89	2300.65
567.25	2301.06
567.60	2302.54
567.96	2304.11
568.31	2304.77
568.66	2305.80
569.02	2306.27
569.37	2306.59
569.72	2307.23
570.08	2307.31
570.43	2307.07
570.78	2306.39
571.14	2304.66
571.49	2303.33
571.84	2302.90
572.20	2301.54
572.55	2300.41
572.90	2298.89
573.26	2297.50
573.61	2295.64
573.96	2293.83
574.31	2290.86
574.67	2287.85
575.02	2284.06
575.37	2280.62
575.72	2276.65
576.08	2273.17
576.43	2269.89
576.78	2266.19
577.13	2263.11
577.49	2260.02
577.84	2256.48
578.19	2252.76
578.54	2249.00
578.90	2244.66
579.25	2239.21
579.60	2234.28
579.95	2229.34
580.30	2224.12
580.66	2219.04
581.01	2214.21
581.36	2209.26
581.71	2205.10
582.06	2200.59
582.42	2196.05
582.77	2190.70
583.12	2186.18
583.47	2181.40
583.82	2176.17
584.17	2170.89
584.53	2165.30
584.88	2159.49
585.23	2153.69
585.58	2148.05
585.93	2142.47
586.28	2137.71
586.63	2132.47
586.98	2127.37
587.34	2122.51
587.69	2117.70
588.04	2112.15
588.39	2106.20
588.74	2099.60
589.09	2093.34
589.44	2086.52
589.79	2080.48
590.14	2074.90
590.49	2068.22
590.84	2061.91
591.19	2056.02
591.54	2049.51
591.89	2041.87
592.25	2035.10
592.60	2027.86
592.95	2020.24
593.30	2012.97
593.65	2005.29
594.00	1998.26
594.35	1991.04
594.70	1982.98
595.05	1975.56
595.40	1968.30
595.75	1960.90
596.10	1954.57
596.45	1947.74
596.80	1941.45
597.15	1934.65
597.50	1927.41
597.85	1921.00
598.19	1914.18
598.54	1906.94
598.89	1900.21
599.24	1894.44
599.59	1887.73
599.94	1881.55
600.29	1875.28
600.64	1868.67
600.99	1861.16
601.34	1854.20
601.69	1847.04
602.04	1840.00
602.39	1832.69
602.74	1825.82
603.08	1819.02
603.43	1812.26
603.78	1804.96
604.13	1797.70
604.48	1790.34
604.83	1783.58
605.18	1776.40
605.53	1768.30
605.87	1760.11
606.22	1752.73
606.57	1744.69
606.92	1737.20
607.27	1729.84
607.62	1722.83
607.96	1715.44
608.31	1708.72
608.66	1701.11
609.01	1693.62
609.36	1686.06
609.70	1678.03
610.05	1669.90
610.40	1662.21
610.75	1653.96
611.10	1646.22
611.44	1638.00
611.79	1630.07
612.14	1621.19
612.49	1612.22
612.83	1603.80
613.18	1595.74
613.53	1587.73
613.88	1579.20
614.22	1570.87
614.57	1562.29
614.92	1554.13
615.27	1546.49
615.61	1538.19
615.96	1530.18
616.31	1522.56
616.65	1515.13
617.00	1507.54
617.35	1499.97
617.70	1491.54
618.04	1482.92
618.39	1474.72
618.74	1466.95
619.08	1458.66
619.43	1451.16
619.78	1444.22
620.12	1437.08
620.47	1429.48
620.82	1421.28
621.16	1413.89
621.51	1406.31
621.85	1398.77
622.20	1390.29
622.55	1382.09
622.89	1374.25
623.24	1366.65
623.59	1359.24
623.93	1351.75
624.28	1344.51
624.62	1336.94
624.97	1329.79
625.32	1323.16
625.66	1316.11
626.01	1308.79
626.35	1301.33
626.70	1293.58
627.04	1285.77
627.39	1278.10
627.73	1270.70
628.08	1263.78
628.43	1256.40
628.77	1248.99
629.12	1241.39
629.46	1234.26
629.81	1226.75
630.15	1219.46
630.50	1212.02
630.84	1203.84
631.19	1195.92
631.53	1188.47
631.88	1180.97
632.22	1173.41
632.57	1166.03
632.91	1158.53
633.26	1151.22
633.60	1143.95
633.95	1136.82
634.29	1129.88
634.64	1123.14
634.98	1115.74
635.32	1108.63
635.67	1102.11
636.01	1095.58
636.36	1088.79
636.70	1082.33
637.05	1075.80
637.39	1069.41
637.73	1062.86
638.08	1056.97
638.42	1051.07
638.77	1044.68
639.11	1038.13
639.45	1031.79
639.80	1025.11
640.14	1018.70
640.49	1012.13
640.83	1005.72
641.17	999.61
641.52	993.29
641.86	986.98
642.20	981.34
642.55	975.09
642.89	968.60
643.23	962.00
643.58	956.23
643.92	949.97
644.26	943.90
644.61	937.90
644.95	931.87
645.29	925.32
645.64	918.55
645.98	912.08
646.32	906.15
646.66	900.06
647.01	894.25
647.35	888.59
647.69	882.82
648.04	877.33
648.38	871.51
648.72	865.46
649.06	859.36
649.41	853.36
649.75	847.36
650.09	841.35
650.43	835.58
650.78	829.44
651.12	823.50
651.46	817.72
651.80	811.97
652.14	806.64
652.49	801.23
652.83	796.05
653.17	790.43
653.51	784.67
653.85	779.28
654.20	773.63
654.54	767.56
654.88	761.85
655.22	756.00
655.56	750.28
655.90	744.85
656.25	739.50
656.59	734.11
656.93	728.99
657.27	723.86
657.61	718.49
657.95	713.42
658.29	708.38
658.64	703.21
658.98	697.86
659.32	692.37
659.66	687.20
660.00	681.88
660.34	676.92
660.68	672.00
661.02	666.97
661.36	662.33
661.70	657.88
662.05	653.51
662.39	649.21
662.73	644.81
663.07	640.42
663.41	636.00
663.75	631.59
664.09	627.06
664.43	622.67
664.77	618.51
665.11	614.20
665.45	610.06
665.79	606.01
666.13	601.91
666.47	597.85
666.81	593.65
667.15	589.51
667.49	585.67
667.83	581.96
668.17	578.04
668.51	573.96
668.85	569.91
669.19	566.10
669.53	562.20
669.87	558.26
670.21	554.54
670.55	550.95
670.89	547.49
671.23	544.09
671.57	540.59
671.91	537.10
672.25	533.61
672.58	530.10
672.92	526.74
673.26	523.61
673.60	520.52
673.94	517.48
674.28	514.63
674.62	511.63
674.96	508.46
675.30	505.58
675.64	502.65
675.97	499.93
676.31	497.03
676.65	494.12
676.99	491.49
677.33	488.74
677.67	485.92
678.01	482.91
678.34	479.92
678.68	477.13
679.02	474.27
679.36	471.60
679.70	468.93
680.04	466.11
680.37	463.25
680.71	460.44
681.05	457.82
681.39	455.10
681.73	452.50
682.06	450.03
682.40	447.45
682.74	444.94
683.08	442.38
683.42	439.83
683.75	437.33
684.09	434.79
684.43	432.27
684.77	429.78
685.10	427.52
685.44	425.23
685.78	422.93
686.12	420.69
686.45	418.34
686.79	416.05
687.13	413.89
687.46	411.72
687.80	409.56
688.14	407.31
688.48	405.25
688.81	402.96
689.15	400.76
689.49	398.63
689.82	396.55
690.16	394.48
690.50	392.49
690.83	390.57
691.17	388.59
691.51	386.72
691.84	384.88
692.18	382.87
692.52	380.83
692.85	378.88
693.19	377.03
693.52	375.27
693.86	373.42
694.20	371.66
694.53	369.87
694.87	368.05
695.21	366.25
695.54	364.44
695.88	362.77
696.21	361.11
696.55	359.48
696.88	357.79
697.22	356.17
697.56	354.55
697.89	352.88
698.23	351.29
698.56	349.66
698.90	348.10
699.23	346.45
699.57	344.93
699.90	343.44
700.24	341.89
700.58	340.36
700.91	338.88
701.25	337.43
701.58	336.05
701.92	334.74
702.25	333.36
702.59	331.96
702.92	330.61
703.26	329.29
703.59	327.98
703.93	326.79
704.26	325.56
704.60	324.29
704.93	323.03
705.26	321.76
705.60	320.59
705.93	319.42
706.27	318.40
706.60	317.36
706.94	316.26
707.27	315.13
707.61	314.07
707.94	313.04
708.27	311.93
708.61	310.84
708.94	309.77
709.28	308.81
709.61	307.85
709.94	306.88
710.28	305.89
710.61	304.91
710.95	303.80
711.28	302.86
711.61	301.88
711.95	300.95
712.28	299.98
712.61	298.97
712.95	298.03
713.28	297.16
713.61	296.29
713.95	295.39
714.28	294.58
714.61	293.70
714.95	292.85
715.28	292.00
715.61	291.15
715.95	290.30
716.28	289.46
716.61	288.65
716.95	287.86
717.28	287.13
717.61	286.35
717.94	285.64
718.28	284.86
718.61	284.15
718.94	283.45
719.27	282.83
719.61	282.19
719.94	281.57
720.27	280.85
720.60	280.19
720.94	279.59
721.27	278.97
721.60	278.41
721.93	277.80
722.27	277.28
722.60	276.72
722.93	276.19
723.26	275.63
723.59	275.08
723.93	274.52
724.26	273.94
724.59	273.39
724.92	272.88
725.25	272.37
725.59	271.86
725.92	271.35
726.25	270.86
726.58	270.38
726.91	269.88
727.24	269.43
727.57	268.92
727.91	268.37
728.24	267.91
728.57	267.42
728.90	267.00
729.23	266.47
729.56	266.07
729.89	265.60
730.22	265.13
730.55	264.68
730.89	264.26
731.22	263.81
731.55	263.40
731.88	262.98
732.21	262.57
732.54	262.14
732.87	261.72
733.20	261.32
733.53	260.94
733.86	260.57
734.19	260.16
734.52	259.82
734.85	259.53
735.18	259.12
735.51	258.72
735.84	258.31
736.17	257.99
736.50	257.57
736.83	257.35
737.16	257.01
737.49	256.68
737.82	256.35
738.15	256.00
738.48	255.65
738.81	255.30
739.14	254.94
739.47	254.62
739.80	254.30
740.13	253.98
740.46	253.62
740.79	253.27
741.12	252.95
741.45	252.62
741.78	252.26
742.11	251.99
742.44	251.69
742.77	251.43
743.10	251.11
743.43	250.78
743.75	250.37
744.08	250.18
744.41	249.88
744.74	249.63
745.07	249.37
745.40	249.11
745.73	248.88
746.06	248.59
746.39	248.32
746.71	248.03
747.04	247.77
747.37	247.53
747.70	247.29
748.03	247.02
748.36	246.79
748.68	246.59
749.01	246.34
749.34	246.08
749.67	245.84
750.00	245.62
750.33	245.50
750.65	245.28
750.98	244.95
751.31	244.74
751.64	244.46
751.97	244.27
752.29	244.05
752.62	243.79
752.95	243.63
753.28	243.43
753.60	243.22
753.93	243.05
754.26	242.83
754.59	242.62
754.91	242.47
755.24	242.21
755.57	242.03
755.90	241.82
756.22	241.63
756.55	241.45
756.88	241.25
757.20	241.04
757.53	240.85
757.86	240.71
758.19	240.57
758.51	240.41
758.84	240.19
759.17	240.01
759.49	239.89
759.82	239.78
760.15	239.65
760.47	239.52
760.80	239.33
761.13	239.20
761.45	239.03
761.78	238.88
762.11	238.78
762.43	238.61
762.76	238.50
763.08	238.38
763.41	238.26
763.74	238.10
764.06	237.95
764.39	237.81
764.71	237.65
765.04	237.47
765.37	237.38
765.69	237.28
766.02	237.14
766.34	236.99
766.67	236.82
767.00	236.70
767.32	236.65
767.65	236.61
767.97	236.51
768.30	236.41
768.62	236.31
768.95	236.19
769.27	236.08
769.60	235.97
769.92	235.86
770.25	235.75
770.57	235.69
770.90	235.57
771.22	235.48
771.55	235.41
771.87	235.34
772.20	235.21
772.52	235.21
772.85	235.26
773.17	235.15
773.50	235.07
773.82	234.95
774.15	234.80
774.47	234.65
774.80	234.54
775.12	234.47
775.45	234.37
775.77	234.29
776.09	234.24
776.42	234.17
776.74	234.07
777.07	233.97
777.39	233.87
777.72	233.85
778.04	233.79
778.36	233.72
778.69	233.69
779.01	233.66
779.33	233.50
779.66	233.30
779.98	233.25
780.31	233.21
780.63	233.17
780.95	233.15
781.28	233.08
781.60	233.01
781.92	232.92
782.25	232.86
782.57	232.79
782.89	232.70
783.22	232.64
783.54	232.57
783.86	232.53
784.19	232.47
784.51	232.41
784.83	232.34
785.16	232.32
785.48	232.24
785.80	232.17
786.12	232.11
786.45	232.09
786.77	232.03
787.09	231.95
787.42	231.90
787.74	231.82
788.06	231.82
788.38	231.78
788.71	231.75
789.03	231.71
789.35	231.69
789.67	231.66
789.99	231.60
790.32	231.57
790.64	231.51
790.96	231.56
791.28	231.52
791.61	231.45
791.93	231.36
792.25	231.32
792.57	231.36
792.89	231.32
793.21	231.30
793.54	231.28
793.86	231.22
794.18	231.19
794.50	231.14
794.82	231.09
795.14	231.07
795.47	231.05
795.79	231.00
796.11	230.92
796.43	230.87
796.75	230.85
797.07	230.80
797.39	230.77
797.71	230.64
798.04	230.58
798.36	230.56
798.68	230.57
799.00	230.53
799.32	230.46
799.64	230.44
799.96	230.38
800.28	230.38
800.60	230.37
800.92	230.36
801.24	230.32
801.56	230.30
801.89	230.26
802.21	230.26
802.53	230.22
802.85	230.23
803.17	230.26
803.49	230.20
803.81	230.21
804.13	230.17
804.45	230.17
804.77	230.17
805.09	230.13
805.41	230.08
805.73	230.03
806.05	229.95
806.37	229.93
806.69	229.92
807.01	229.87
807.33	229.85
807.65	229.78
807.97	229.80
808.28	229.75
808.60	229.69
808.92	229.60
809.24	229.65
809.56	229.62
809.88	229.56
810.20	229.53
810.52	229.52
810.84	229.47
811.16	229.46
811.48	229.38
811.80	229.40
812.12	229.37
812.43	229.39
812.75	229.38
813.07	229.35
813.39	229.31
813.71	229.29
814.03	229.22
814.35	229.22
814.67	229.15
814.98	229.12
815.30	229.10
815.62	229.09
815.94	229.02
816.26	229.02
816.58	229.00
816.89	228.99
817.21	228.93
817.53	228.96
817.85	228.93
818.17	228.94
818.48	228.89
818.80	228.89
819.12	228.85
819.44	228.82
819.76	228.78
820.07	228.80
820.39	228.76
820.71	228.75
821.03	228.73
821.34	228.71
821.66	228.72
821.98	228.72
822.30	228.69
822.61	228.71
822.93	228.63
823.25	228.64
823.57	228.59
823.88	228.63
824.20	228.57
824.52	228.57
824.83	228.59
825.15	228.57
825.47	228.55
825.79	228.56
826.10	228.54
826.42	228.53
826.74	228.50
827.05	228.48
827.37	228.48
827.69	228.47
828.00	228.46
828.32	228.45
828.64	228.43
828.95	228.49
829.27	228.43
829.58	228.44
829.90	228.41
830.22	228.43
830.53	228.38
830.85	228.37
831.17	228.32
831.48	228.27
831.80	228.25
832.11	228.23
832.43	228.21
832.75	228.19
833.06	228.22
833.38	228.21
833.69	228.19
834.01	228.16
834.32	228.15
834.64	228.14
834.96	228.13
835.27	228.12
835.59	228.07
835.90	228.05
836.22	228.02
836.53	228.00
836.85	227.96
837.16	228.04
837.48	228.04
837.79	228.09
838.11	228.09
838.42	228.12
838.74	228.13
839.05	228.09
839.37	228.09
839.68	228.02
840.00	228.01
840.31	228.06
840.63	228.05
840.94	228.05
841.26	228.03
841.57	228.02
841.88	228.02
842.20	227.99
842.51	227.96
842.83	228.00
843.14	228.03
843.46	228.07
843.77	227.97
844.08	227.98
844.40	227.96
844.71	227.94
845.03	227.88
845.34	227.86
845.65	227.86
845.97	227.86
846.28	227.91
846.60	227.91
846.91	227.87
847.22	227.85
847.54	227.86
847.85	227.88
848.16	227.86
848.48	227.86
848.79	227.92
849.10	227.95
849.42	227.92
849.73	227.86
850.04	227.85
850.36	227.85
850.67	227.85
850.98	227.83
851.30	227.84
851.61	227.87
851.92	227.86
852.23	227.87
852.55	227.90
852.86	227.89
853.17	227.88
853.49	227.87
853.80	227.90
854.11	227.89
854.42	227.88
854.74	227.90
855.05	227.93
855.36	227.86
855.67	227.85
855.99	227.88
856.30	228.01
856.61	228.01
856.92	228.01
857.23	228.00
857.55	227.98
857.86	227.98
858.17	227.97
858.48	227.96
858.79	227.97
859.11	227.94
859.42	227.93
859.73	227.93
860.04	227.95
860.35	227.95
860.66	227.93
860.98	227.89
861.29	227.88
861.60	227.83
861.91	227.87
862.22	227.87
862.53	227.85
862.84	227.72
863.16	227.73
863.47	227.70
863.78	227.71
864.09	227.73
864.40	227.72
864.71	227.74
865.02	227.73
865.33	227.70
865.64	227.69
865.95	227.69
866.27	227.71
866.58	227.68
866.89	227.69
867.20	227.69
867.51	227.69
867.82	227.71
868.13	227.77
868.44	227.75
868.75	227.74
869.06	227.73
869.37	227.75
869.68	227.70
869.99	227.70
870.30	227.69
870.61	227.68
870.92	227.68
871.23	227.65
871.54	227.68
871.85	227.73
872.16	227.75
872.47	227.72
872.78	227.66
873.09	227.67
873.40	227.64
873.71	227.66
874.02	227.68
874.33	227.65
874.64	227.60
874.95	227.61
875.26	227.60
875.56	227.60
875.87	227.57
876.18	227.57
876.49	227.68
876.80	227.69
877.11	227.66
877.42	227.68
877.73	227.71
878.04	227.72
878.35	227.67
878.66	227.64
878.96	227.63
879.27	227.64
879.58	227.63
879.89	227.61
880.20	227.62
880.51	227.60
880.82	227.57
881.12	227.61
881.43	227.56
881.74	227.55
882.05	227.54
882.36	227.54
882.67	227.55
882.97	227.44
883.28	227.45
883.59	227.43
883.90	227.45
884.21	227.42
884.51	227.38
884.82	227.40
885.13	227.41
885.44	227.47
885.74	227.46
886.05	227.44
886.36	227.43
886.67	227.40
886.98	227.45
887.28	227.50
887.59	227.47
887.90	227.49
888.20	227.47
888.51	227.51
888.82	227.51
889.13	227.52
889.43	227.61
889.74	227.60
890.05	227.63
890.35	227.60
890.66	227.58
890.97	227.59
891.28	227.56
891.58	227.55
891.89	227.54
892.20	227.51
892.50	227.54
892.81	227.59
893.12	227.55
893.42	227.53
893.73	227.50
894.04	227.50
894.34	227.51
894.65	227.53
894.95	227.51
895.26	227.52
895.57	227.56
895.87	227.48
896.18	227.45
896.48	227.46
896.79	227.43
897.10	227.46
897.40	227.44
897.71	227.47
898.01	227.45
898.32	227.47
898.63	227.50
898.93	227.51
899.24	227.45
899.54	227.46
899.85	227.43
900.15	227.42
900.46	227.42
900.76	227.41
901.07	227.40
901.38	227.40
901.68	227.42
901.99	227.36
902.29	227.37
902.60	227.38
902.90	227.34
903.21	227.37
903.51	227.34
903.82	227.32
904.12	227.28
904.43	227.27
904.73	227.21
905.03	227.19
905.34	227.30
905.64	227.29
905.95	227.30
906.25	227.28
906.56	227.29
906.86	227.28
907.17	227.27
907.47	227.27
907.77	227.27
908.08	227.24
908.38	227.22
908.69	227.22
908.99	227.23
909.30	227.22
909.60	227.21
909.90	227.22
910.21	227.20
910.51	227.21
910.81	227.22
911.12	227.24
911.42	227.25
911.73	227.09
912.03	227.12
912.33	227.12
912.64	227.11
912.94	227.10
913.24	227.07
913.55	227.05
913.85	227.04
914.15	227.02
914.46	226.98
914.76	226.96
915.06	226.93
915.37	226.91
915.67	226.92
915.97	226.92
916.27	226.86
916.58	226.88
916.88	226.87
917.18	226.89
917.49	226.96
917.79	226.93
918.09	226.97
918.39	226.96
918.70	226.97
919.00	226.97
919.30	227.01
919.60	226.99
919.91	227.00
920.21	227.01
920.51	227.00
920.81	227.03
921.12	227.06
921.42	227.08
921.72	227.06
922.02	227.05
922.32	227.04
922.63	227.07
922.93	227.13
923.23	227.14
923.53	227.11
923.83	227.02
924.13	227.04
924.44	227.04
924.74	227.10
925.04	227.14
925.34	227.14
925.64	227.12
925.94	227.16
926.24	227.21
926.55	227.19
926.85	227.20
927.15	227.18
927.45	227.24
927.75	227.25
928.05	227.26
928.35	227.31
928.65	227.35
928.95	227.36
929.26	227.33
929.56	227.38
929.86	227.38
930.16	227.39
930.46	227.39
930.76	227.41
931.06	227.35
931.36	227.30
931.66	227.34
931.96	227.38
932.26	227.39
932.56	227.39
932.86	227.45
933.16	227.44
933.46	227.47
933.76	227.41
934.06	227.43
934.36	227.49
934.66	227.50
934.96	227.49
935.26	227.52
935.56	227.53
935.86	227.48
936.16	227.54
936.46	227.56
936.76	227.58
937.06	227.54
937.36	227.58
937.66	227.59
937.96	227.59
938.26	227.54
938.56	227.54
938.86	227.51
939.16	227.49
939.46	227.49
939.76	227.50
940.06	227.50
940.35	227.46
940.65	227.39
940.95	227.37
941.25	227.35
941.55	227.29
941.85	227.29
942.15	227.32
942.45	227.29
942.75	227.28
943.04	227.28
943.34	227.30
943.64	227.24
943.94	227.22
944.24	227.19
944.54	227.21
944.84	227.21
945.13	227.21
945.43	227.18
945.73	227.18
946.03	227.16
946.33	227.14
946.62	227.12
946.92	227.08
947.22	227.06
947.52	227.03
947.82	227.08
948.11	227.03
948.41	226.99
948.71	226.95
949.01	226.94
949.31	226.93
949.60	226.93
949.90	226.95
950.20	226.95
950.50	226.98
950.79	226.97
951.09	226.96
951.39	226.96
951.69	226.94
951.98	226.97
952.28	226.95
952.58	226.98
952.87	227.01
953.17	227.07
953.47	227.06
953.76	227.08
954.06	227.09
954.36	227.08
954.66	227.06
954.95	227.07
955.25	227.09
955.55	227.09
955.84	227.03
956.14	227.06
956.44	227.06
956.73	227.04
957.03	227.04
957.32	227.02
957.62	227.01
957.92	227.03
958.21	227.02
958.51	227.14
958.81	227.16
959.10	227.17
959.40	227.18
959.69	227.21
959.99	227.20
960.29	227.18
960.58	227.19
960.88	227.24
961.17	227.23
961.47	227.24
961.76	227.25
962.06	227.29
962.36	227.27
962.65	227.30
962.95	227.28
963.24	227.28
963.54	227.27
963.83	227.28
964.13	227.26
964.42	227.21
964.72	227.14
965.01	227.13
965.31	227.11
965.60	227.07
965.90	227.15
966.19	227.14
966.49	227.15
966.78	227.18
967.08	227.15
967.37	227.17
967.67	227.15
967.96	227.13
968.26	227.12
968.55	227.14
968.85	227.11
969.14	227.11
969.43	227.10
969.73	227.12
970.02	227.10
970.32	227.09
970.61	227.12
970.91	227.09
971.20	227.06
971.49	227.03
971.79	227.02
972.08	226.93
972.38	226.97
972.67	226.95
972.96	226.94
973.26	226.93
973.55	226.94
973.85	226.92
974.14	226.90
974.43	226.91
974.73	226.88
975.02	226.89
975.31	226.89
975.61	226.89
975.90	226.89
976.19	226.89
976.49	226.93
976.78	226.92
977.07	226.92
977.37	226.92
977.66	226.95
977.95	226.94
978.24	226.94
978.54	226.90
978.83	226.90
979.12	226.90
979.42	226.90
979.71	226.89
980.00	226.89
980.29	226.93
980.59	226.92
980.88	226.97
981.17	226.99
981.46	226.99
981.76	227.00
982.05	227.01
982.34	227.02
982.63	226.98
982.93	226.98
983.22	227.03
983.51	227.04
983.80	227.06
984.09	227.09
984.39	227.08
984.68	227.11
984.97	227.13
985.26	227.09
985.55	227.10
985.85	227.08
986.14	227.09
986.43	227.10
986.72	227.09
987.01	227.06
987.30	227.03
987.59	227.03
987.89	227.03
988.18	227.00
988.47	226.99
988.76	227.00
989.05	227.02
989.34	227.01
989.63	227.02
989.92	227.00
990.22	227.00
990.51	227.00
990.80	227.00
991.09	226.99
991.38	227.03
991.67	227.02
991.96	227.01
992.25	227.03
992.54	227.01
992.83	227.03
993.12	227.02
993.41	227.04
993.70	227.09
993.99	227.12
994.28	227.13
994.58	227.16
994.87	227.14
995.16	227.13
995.45	227.12
995.74	227.10
996.03	227.11
996.32	227.10
996.61	227.13
996.90	227.13
997.19	227.13
997.48	227.12
997.77	227.10
998.06	227.14
998.34	227.12
998.63	227.06
998.92	227.06
999.21	227.06
999.50	227.04
999.79	227.00
1000.08	226.99
1000.37	226.99
1000.66	226.98
1000.95	227.02
1001.24	227.03
1001.53	227.02
1001.82	227.02
1002.11	227.00
1002.40	227.04
1002.68	227.07
1002.97	227.12
1003.26	227.09
1003.55	227.11
1003.84	227.13
1004.13	227.15
1004.42	227.14
1004.71	227.17
1004.99	227.14
1005.28	227.14
1005.57	227.15
1005.86	227.16
1006.15	227.16
1006.44	227.14
1006.72	227.13
1007.01	227.07
1007.30	227.06
1007.59	227.05
1007.88	227.04
1008.17	227.04
1008.45	227.00
1008.74	226.95
1009.03	226.90
1009.32	226.95
1009.60	226.91
1009.89	226.90
1010.18	226.87
1010.47	226.88
1010.76	226.91
1011.04	226.90
1011.33	226.90
1011.62	226.93
1011.91	226.91
1012.19	226.87
1012.48	226.90
1012.77	226.95
1013.05	227.00
1013.34	227.01
1013.63	227.03
1013.92	227.03
1014.20	227.05
1014.49	227.08
1014.78	227.08
1015.06	227.05
1015.35	227.05
1015.64	227.05
1015.92	227.10
1016.21	227.10
1016.50	227.12
1016.78	227.13
1017.07	227.14
1017.36	227.15
1017.64	227.10
1017.93	227.15
1018.22	227.16
1018.50	227.18
1018.79	227.13
1019.08	227.11
1019.36	227.12
1019.65	227.12
1019.93	227.14
1020.22	227.14
1020.51	227.18
1020.79	227.20
1021.08	227.08
1021.36	227.33
1021.65	226.68
1021.94	226.93
1022.22	227.35
1022.51	227.11
1022.79	227.30
1023.08	227.13
1023.36	228.56
1023.65	227.16
>>>>>End Processed Spectral Data<<<<<
