SpectraSuite Data File
++++++++++++++++++++++++++++++++++++
Date: Fri Feb 01 16:25:36 EST 2013
User: group
Dark Spectrum Present: No
Reference Spectrum Present: No
Number of Sampled Component Spectra: 1
Spectrometers: USB2E7196
Integration Time (usec): 35000 (USB2E7196)
Spectra Averaged: 100 (USB2E7196)
Boxcar Smoothing: 10 (USB2E7196)
Correct for Electrical Dark: No (USB2E7196)
Strobe/Lamp Enabled: No (USB2E7196)
Correct for Detector Non-linearity: No (USB2E7196)
Correct for Stray Light: No (USB2E7196)
Number of Pixels in Processed Spectrum: 2048
>>>>>Begin Processed Spectral Data<<<<<
339.09	0.00
339.48	214.35
339.86	216.11
340.24	216.87
340.63	218.96
341.01	220.81
341.39	221.04
341.78	222.24
342.16	224.13
342.54	224.03
342.93	212.55
343.31	223.29
343.69	223.81
344.07	224.23
344.46	224.64
344.84	225.02
345.22	225.28
345.60	225.53
345.99	225.75
346.37	225.86
346.75	225.95
347.13	226.03
347.52	226.11
347.90	226.19
348.28	226.24
348.66	226.28
349.05	226.26
349.43	226.29
349.81	226.34
350.19	226.38
350.57	226.44
350.96	226.49
351.34	226.58
351.72	226.70
352.10	226.82
352.48	226.91
352.87	226.95
353.25	227.01
353.63	227.05
354.01	227.06
354.39	227.16
354.77	227.22
355.15	227.29
355.54	227.36
355.92	227.38
356.30	227.42
356.68	227.56
357.06	227.65
357.44	227.70
357.82	227.74
358.20	227.84
358.58	227.90
358.97	227.96
359.35	228.02
359.73	228.04
360.11	228.05
360.49	228.09
360.87	228.12
361.25	228.18
361.63	228.27
362.01	228.33
362.39	228.30
362.77	228.34
363.15	228.38
363.53	228.39
363.91	228.42
364.29	228.47
364.67	228.37
365.05	228.37
365.43	228.41
365.81	228.45
366.19	228.45
366.57	228.46
366.95	228.46
367.33	228.44
367.71	228.48
368.09	228.51
368.47	228.50
368.85	228.46
369.23	228.47
369.61	228.40
369.99	228.42
370.37	228.43
370.75	228.50
371.13	228.43
371.51	228.39
371.89	228.35
372.27	228.29
372.65	228.26
373.03	228.22
373.41	228.16
373.78	228.09
374.16	227.99
374.54	227.92
374.92	227.85
375.30	227.80
375.68	227.68
376.06	227.62
376.44	227.55
376.82	227.52
377.19	227.43
377.57	227.35
377.95	227.21
378.33	227.11
378.71	226.96
379.09	226.93
379.47	226.89
379.84	226.79
380.22	226.74
380.60	226.65
380.98	226.60
381.36	226.50
381.73	226.43
382.11	226.36
382.49	226.31
382.87	226.22
383.25	226.15
383.62	226.20
384.00	226.10
384.38	226.02
384.76	225.99
385.13	225.98
385.51	225.97
385.89	225.94
386.27	225.89
386.64	225.86
387.02	225.77
387.40	225.70
387.78	225.69
388.15	225.63
388.53	225.60
388.91	225.57
389.29	225.56
389.66	225.54
390.04	225.52
390.42	225.50
390.79	225.50
391.17	225.45
391.55	225.35
391.92	225.36
392.30	225.38
392.68	225.34
393.05	225.30
393.43	225.27
393.81	225.27
394.18	225.28
394.56	225.31
394.94	225.38
395.31	225.40
395.69	225.43
396.06	225.50
396.44	225.52
396.82	225.52
397.19	225.56
397.57	225.60
397.95	225.64
398.32	225.64
398.70	225.67
399.07	225.78
399.45	225.83
399.82	225.91
400.20	225.94
400.58	226.02
400.95	226.08
401.33	226.19
401.70	226.34
402.08	226.44
402.45	226.48
402.83	226.58
403.20	226.68
403.58	226.80
403.95	226.94
404.33	227.07
404.71	227.20
405.08	227.44
405.46	227.56
405.83	227.71
406.21	227.91
406.58	228.10
406.96	228.23
407.33	228.42
407.70	228.61
408.08	228.89
408.45	229.13
408.83	229.38
409.20	229.59
409.58	229.76
409.95	230.01
410.33	230.32
410.70	230.59
411.08	230.91
411.45	231.17
411.82	231.45
412.20	231.80
412.57	232.24
412.95	232.51
413.32	232.92
413.69	233.36
414.07	233.82
414.44	234.28
414.82	234.78
415.19	235.33
415.56	235.90
415.94	236.47
416.31	237.10
416.68	237.72
417.06	238.46
417.43	239.17
417.81	239.93
418.18	240.66
418.55	241.49
418.93	242.37
419.30	243.29
419.67	244.23
420.04	245.20
420.42	246.19
420.79	247.34
421.16	248.48
421.54	249.64
421.91	250.84
422.28	252.10
422.66	253.43
423.03	254.70
423.40	256.02
423.77	257.38
424.15	258.76
424.52	260.24
424.89	261.82
425.26	263.34
425.64	264.83
426.01	266.44
426.38	268.10
426.75	269.77
427.13	271.50
427.50	273.31
427.87	275.17
428.24	276.97
428.61	278.69
428.99	280.62
429.36	282.70
429.73	284.73
430.10	286.74
430.47	288.77
430.85	290.86
431.22	293.06
431.59	295.44
431.96	297.70
432.33	300.15
432.70	302.53
433.08	305.33
433.45	307.95
433.82	310.53
434.19	313.36
434.56	316.14
434.93	318.77
435.30	321.36
435.68	324.22
436.05	327.08
436.42	329.89
436.79	332.40
437.16	335.08
437.53	337.90
437.90	340.69
438.27	343.42
438.64	346.23
439.01	348.84
439.38	351.05
439.75	353.20
440.13	355.67
440.50	357.96
440.87	359.79
441.24	361.70
441.61	363.85
441.98	365.33
442.35	367.10
442.72	368.95
443.09	370.76
443.46	371.73
443.83	372.28
444.20	372.79
444.57	373.63
444.94	373.92
445.31	374.25
445.68	374.59
446.05	374.66
446.42	374.30
446.79	373.88
447.16	373.43
447.53	373.12
447.90	372.00
448.27	370.83
448.64	369.25
449.01	368.12
449.37	366.17
449.74	364.30
450.11	362.06
450.48	359.57
450.85	357.00
451.22	354.90
451.59	352.92
451.96	351.01
452.33	348.41
452.70	346.07
453.07	343.30
453.43	340.40
453.80	337.63
454.17	334.96
454.54	332.38
454.91	329.67
455.28	327.01
455.65	324.53
456.02	322.14
456.38	320.04
456.75	317.41
457.12	315.16
457.49	312.95
457.86	310.81
458.23	309.01
458.59	307.01
458.96	304.94
459.33	303.08
459.70	301.23
460.07	299.76
460.43	298.05
460.80	296.42
461.17	295.03
461.54	293.54
461.91	292.16
462.27	290.79
462.64	289.55
463.01	288.20
463.38	286.91
463.74	285.51
464.11	284.35
464.48	283.36
464.85	282.27
465.21	281.45
465.58	280.50
465.95	279.38
466.32	278.52
466.68	277.61
467.05	276.72
467.42	275.81
467.78	274.88
468.15	274.06
468.52	273.43
468.88	272.60
469.25	271.85
469.62	271.24
469.98	270.56
470.35	270.01
470.72	269.44
471.08	268.82
471.45	268.28
471.82	267.74
472.18	267.12
472.55	266.73
472.92	266.20
473.28	265.79
473.65	265.35
474.02	264.88
474.38	264.55
474.75	264.26
475.11	263.91
475.48	263.65
475.85	263.40
476.21	263.19
476.58	262.99
476.94	262.87
477.31	262.68
477.67	262.55
478.04	262.38
478.41	262.32
478.77	262.37
479.14	262.34
479.50	262.37
479.87	262.46
480.23	262.53
480.60	262.61
480.96	262.70
481.33	262.96
481.69	263.16
482.06	263.39
482.42	263.58
482.79	263.83
483.15	264.17
483.52	264.56
483.88	264.91
484.25	265.29
484.61	265.74
484.98	266.21
485.34	266.80
485.71	267.42
486.07	268.01
486.44	268.56
486.80	269.29
487.17	270.01
487.53	270.86
487.90	271.69
488.26	272.60
488.62	273.59
488.99	274.58
489.35	275.65
489.72	276.74
490.08	277.98
490.44	279.24
490.81	280.59
491.17	281.94
491.54	283.41
491.90	284.95
492.26	286.57
492.63	288.30
492.99	290.06
493.36	291.92
493.72	293.98
494.08	296.10
494.45	298.30
494.81	300.66
495.17	303.09
495.54	305.68
495.90	308.37
496.26	311.12
496.63	314.04
496.99	317.13
497.35	320.38
497.72	323.76
498.08	327.27
498.44	330.95
498.80	334.85
499.17	338.85
499.53	343.07
499.89	347.42
500.26	351.94
500.62	356.62
500.98	361.65
501.34	366.74
501.71	372.03
502.07	377.50
502.43	383.13
502.79	388.94
503.16	395.00
503.52	401.35
503.88	407.79
504.24	414.43
504.60	421.28
504.97	428.41
505.33	435.72
505.69	443.48
506.05	451.23
506.41	459.13
506.78	467.33
507.14	475.77
507.50	484.51
507.86	493.57
508.22	502.78
508.59	511.95
508.95	521.53
509.31	531.39
509.67	541.48
510.03	551.77
510.39	562.32
510.75	573.14
511.12	583.96
511.48	595.32
511.84	606.78
512.20	618.31
512.56	630.29
512.92	642.47
513.28	654.79
513.64	667.23
514.00	679.94
514.37	692.84
514.73	705.91
515.09	718.93
515.45	732.14
515.81	745.63
516.17	759.63
516.53	773.68
516.89	787.78
517.25	801.87
517.61	816.20
517.97	830.56
518.33	844.90
518.69	859.65
519.05	874.56
519.41	889.68
519.77	905.18
520.13	920.59
520.49	935.97
520.85	951.37
521.21	967.00
521.57	983.17
521.93	998.89
522.29	1015.19
522.65	1031.41
523.01	1047.59
523.37	1063.67
523.73	1079.67
524.09	1095.73
524.45	1112.04
524.81	1128.61
525.17	1145.40
525.53	1162.37
525.89	1179.22
526.25	1196.09
526.61	1212.38
526.97	1229.17
527.33	1245.61
527.68	1262.20
528.04	1278.56
528.40	1294.98
528.76	1311.96
529.12	1328.40
529.48	1345.24
529.84	1361.19
530.20	1377.70
530.56	1394.65
530.91	1411.89
531.27	1428.70
531.63	1445.12
531.99	1461.51
532.35	1477.36
532.71	1493.20
533.07	1509.32
533.42	1525.08
533.78	1540.94
534.14	1557.16
534.50	1572.30
534.86	1588.09
535.21	1603.15
535.57	1619.11
535.93	1634.61
536.29	1649.41
536.65	1664.41
537.00	1679.06
537.36	1694.29
537.72	1708.80
538.08	1723.07
538.44	1736.85
538.79	1750.63
539.15	1764.13
539.51	1777.83
539.87	1792.23
540.22	1805.79
540.58	1819.34
540.94	1832.49
541.29	1845.27
541.65	1857.93
542.01	1871.00
542.37	1883.18
542.72	1895.40
543.08	1906.89
543.44	1919.10
543.79	1930.10
544.15	1941.11
544.51	1952.69
544.87	1963.51
545.22	1974.14
545.58	1984.46
545.94	1994.10
546.29	2003.86
546.65	2013.73
547.01	2023.03
547.36	2031.54
547.72	2040.06
548.07	2047.93
548.43	2056.20
548.79	2064.38
549.14	2071.76
549.50	2079.13
549.86	2086.68
550.21	2094.03
550.57	2101.29
550.92	2107.79
551.28	2114.92
551.64	2121.74
551.99	2128.15
552.35	2134.28
552.70	2140.46
553.06	2146.25
553.41	2152.63
553.77	2158.56
554.13	2164.63
554.48	2170.67
554.84	2176.22
555.19	2181.35
555.55	2186.61
555.90	2191.06
556.26	2195.81
556.61	2200.53
556.97	2204.64
557.32	2208.92
557.68	2212.97
558.03	2217.20
558.39	2220.95
558.74	2225.55
559.10	2229.54
559.45	2233.18
559.81	2237.41
560.16	2241.28
560.52	2244.60
560.87	2247.93
561.23	2250.59
561.58	2253.56
561.94	2256.12
562.29	2258.47
562.64	2261.18
563.00	2263.63
563.35	2267.07
563.71	2270.15
564.06	2273.50
564.42	2276.47
564.77	2279.05
565.12	2281.36
565.48	2283.29
565.83	2285.18
566.19	2286.50
566.54	2287.34
566.89	2288.42
567.25	2288.99
567.60	2290.25
567.96	2291.98
568.31	2292.90
568.66	2294.27
569.02	2294.76
569.37	2295.02
569.72	2295.95
570.08	2296.30
570.43	2296.47
570.78	2296.02
571.14	2294.57
571.49	2293.19
571.84	2292.94
572.20	2291.78
572.55	2290.90
572.90	2289.43
573.26	2288.08
573.61	2286.49
573.96	2284.93
574.31	2282.07
574.67	2279.38
575.02	2275.81
575.37	2272.48
575.72	2268.67
576.08	2265.14
576.43	2261.95
576.78	2258.38
577.13	2255.20
577.49	2252.04
577.84	2248.53
578.19	2244.84
578.54	2241.27
578.90	2237.23
579.25	2231.78
579.60	2226.84
579.95	2221.90
580.30	2217.04
580.66	2212.04
581.01	2207.09
581.36	2202.22
581.71	2198.16
582.06	2193.67
582.42	2189.28
582.77	2184.10
583.12	2179.69
583.47	2175.23
583.82	2170.40
584.17	2165.16
584.53	2159.89
584.88	2154.38
585.23	2148.63
585.58	2143.18
585.93	2137.72
586.28	2133.02
586.63	2128.03
586.98	2123.05
587.34	2118.36
587.69	2113.47
588.04	2108.32
588.39	2102.83
588.74	2096.46
589.09	2090.43
589.44	2083.77
589.79	2077.85
590.14	2072.26
590.49	2065.79
590.84	2059.40
591.19	2053.30
591.54	2046.98
591.89	2039.54
592.25	2032.89
592.60	2025.83
592.95	2018.31
593.30	2011.04
593.65	2003.32
594.00	1996.32
594.35	1989.12
594.70	1981.13
595.05	1973.81
595.40	1966.45
595.75	1958.83
596.10	1952.64
596.45	1945.92
596.80	1939.79
597.15	1933.18
597.50	1926.10
597.85	1919.66
598.19	1913.09
598.54	1905.98
598.89	1899.42
599.24	1893.64
599.59	1886.83
599.94	1880.69
600.29	1874.42
600.64	1867.93
600.99	1860.63
601.34	1853.93
601.69	1847.05
602.04	1840.21
602.39	1833.04
602.74	1826.22
603.08	1819.61
603.43	1812.78
603.78	1805.46
604.13	1798.23
604.48	1791.01
604.83	1784.21
605.18	1777.32
605.53	1769.24
605.87	1761.23
606.22	1754.02
606.57	1745.97
606.92	1738.73
607.27	1731.51
607.62	1724.64
607.96	1717.32
608.31	1710.78
608.66	1703.09
609.01	1695.54
609.36	1688.03
609.70	1680.01
610.05	1671.97
610.40	1664.32
610.75	1656.11
611.10	1648.51
611.44	1640.07
611.79	1631.99
612.14	1623.24
612.49	1613.97
612.83	1605.64
613.18	1597.53
613.53	1589.33
613.88	1580.81
614.22	1572.47
614.57	1563.90
614.92	1555.80
615.27	1548.27
615.61	1539.88
615.96	1531.75
616.31	1524.11
616.65	1516.71
617.00	1509.16
617.35	1501.49
617.70	1493.26
618.04	1484.64
618.39	1476.33
618.74	1468.76
619.08	1460.59
619.43	1453.12
619.78	1446.23
620.12	1438.98
620.47	1431.48
620.82	1423.36
621.16	1416.01
621.51	1408.51
621.85	1400.95
622.20	1392.47
622.55	1384.02
622.89	1376.08
623.24	1368.52
623.59	1361.15
623.93	1353.61
624.28	1346.31
624.62	1338.78
624.97	1331.46
625.32	1324.87
625.66	1317.89
626.01	1310.78
626.35	1303.29
626.70	1295.46
627.04	1287.75
627.39	1279.97
627.73	1272.60
628.08	1265.75
628.43	1258.32
628.77	1250.92
629.12	1243.33
629.46	1236.18
629.81	1228.86
630.15	1221.74
630.50	1214.42
630.84	1206.11
631.19	1198.20
631.53	1190.74
631.88	1183.14
632.22	1175.56
632.57	1168.20
632.91	1160.62
633.26	1153.15
633.60	1145.80
633.95	1138.71
634.29	1131.72
634.64	1125.08
634.98	1117.75
635.32	1110.57
635.67	1104.08
636.01	1097.39
636.36	1090.64
636.70	1084.08
637.05	1077.49
637.39	1070.94
637.73	1064.30
638.08	1058.46
638.42	1052.49
638.77	1046.02
639.11	1039.44
639.45	1033.01
639.80	1026.35
640.14	1019.96
640.49	1013.44
640.83	1007.05
641.17	1000.84
641.52	994.46
641.86	987.99
642.20	982.09
642.55	975.71
642.89	969.18
643.23	962.70
643.58	956.86
643.92	950.66
644.26	944.65
644.61	938.68
644.95	932.68
645.29	926.06
645.64	919.30
645.98	912.92
646.32	907.19
646.66	901.19
647.01	895.41
647.35	889.64
647.69	883.79
648.04	878.25
648.38	872.35
648.72	866.27
649.06	860.20
649.41	854.34
649.75	848.43
650.09	842.48
650.43	836.65
650.78	830.44
651.12	824.44
651.46	818.64
651.80	812.88
652.14	807.55
652.49	802.23
652.83	797.02
653.17	791.44
653.51	785.61
653.85	780.29
654.20	774.57
654.54	768.61
654.88	762.80
655.22	756.87
655.56	751.24
655.90	745.80
656.25	740.59
656.59	735.19
656.93	730.09
657.27	724.91
657.61	719.40
657.95	714.38
658.29	709.38
658.64	704.16
658.98	698.79
659.32	693.27
659.66	688.06
660.00	682.77
660.34	677.76
660.68	672.90
661.02	667.72
661.36	663.05
661.70	658.56
662.05	654.27
662.39	649.97
662.73	645.47
663.07	641.19
663.41	636.70
663.75	632.21
664.09	627.64
664.43	623.27
664.77	619.17
665.11	614.88
665.45	610.69
665.79	606.57
666.13	602.48
666.47	598.39
666.81	594.26
667.15	590.19
667.49	586.28
667.83	582.36
668.17	578.49
668.51	574.43
668.85	570.39
669.19	566.49
669.53	562.67
669.87	558.80
670.21	555.05
670.55	551.44
670.89	547.99
671.23	544.55
671.57	541.06
671.91	537.57
672.25	534.03
672.58	530.51
672.92	527.16
673.26	523.98
673.60	520.82
673.94	517.65
674.28	514.64
674.62	511.72
674.96	508.72
675.30	505.83
675.64	502.90
675.97	500.13
676.31	497.29
676.65	494.36
676.99	491.70
677.33	488.80
677.67	485.95
678.01	482.89
678.34	479.90
678.68	476.99
679.02	474.15
679.36	471.43
679.70	468.71
680.04	465.88
680.37	462.98
680.71	460.16
681.05	457.56
681.39	454.81
681.73	452.15
682.06	449.58
682.40	446.93
682.74	444.39
683.08	441.79
683.42	439.17
683.75	436.62
684.09	434.00
684.43	431.57
684.77	429.16
685.10	426.84
685.44	424.51
685.78	422.27
686.12	420.03
686.45	417.67
686.79	415.33
687.13	413.09
687.46	410.94
687.80	408.77
688.14	406.53
688.48	404.49
688.81	402.19
689.15	400.03
689.49	397.92
689.82	395.83
690.16	393.76
690.50	391.78
690.83	389.89
691.17	387.93
691.51	385.99
691.84	384.06
692.18	382.13
692.52	380.13
692.85	378.21
693.19	376.29
693.52	374.44
693.86	372.60
694.20	370.85
694.53	369.01
694.87	367.18
695.21	365.40
695.54	363.57
695.88	361.85
696.21	360.12
696.55	358.43
696.88	356.72
697.22	355.03
697.56	353.42
697.89	351.74
698.23	350.15
698.56	348.55
698.90	347.00
699.23	345.32
699.57	343.80
699.90	342.27
700.24	340.74
700.58	339.26
700.91	337.80
701.25	336.35
701.58	335.00
701.92	333.65
702.25	332.29
702.59	330.91
702.92	329.62
703.26	328.31
703.59	326.98
703.93	325.82
704.26	324.62
704.60	323.34
704.93	322.05
705.26	320.80
705.60	319.59
705.93	318.42
706.27	317.40
706.60	316.32
706.94	315.22
707.27	314.11
707.61	313.05
707.94	312.02
708.27	310.95
708.61	309.83
708.94	308.81
709.28	307.86
709.61	306.93
709.94	305.98
710.28	304.97
710.61	304.02
710.95	302.96
711.28	302.02
711.61	301.04
711.95	300.13
712.28	299.16
712.61	298.20
712.95	297.25
713.28	296.39
713.61	295.53
713.95	294.63
714.28	293.78
714.61	292.94
714.95	292.09
715.28	291.27
715.61	290.44
715.95	289.61
716.28	288.70
716.61	287.85
716.95	287.00
717.28	286.24
717.61	285.52
717.94	284.78
718.28	283.99
718.61	283.30
718.94	282.61
719.27	281.95
719.61	281.29
719.94	280.65
720.27	279.92
720.60	279.27
720.94	278.64
721.27	278.02
721.60	277.45
721.93	276.88
722.27	276.34
722.60	275.80
722.93	275.22
723.26	274.68
723.59	274.15
723.93	273.61
724.26	273.05
724.59	272.46
724.92	271.92
725.25	271.42
725.59	270.88
725.92	270.40
726.25	269.90
726.58	269.42
726.91	268.90
727.24	268.45
727.57	267.97
727.91	267.46
728.24	267.03
728.57	266.55
728.90	266.07
729.23	265.56
729.56	265.10
729.89	264.61
730.22	264.12
730.55	263.63
730.89	263.20
731.22	262.79
731.55	262.35
731.88	261.93
732.21	261.48
732.54	261.02
732.87	260.56
733.20	260.16
733.53	259.78
733.86	259.45
734.19	259.02
734.52	258.60
734.85	258.31
735.18	257.89
735.51	257.50
735.84	257.15
736.17	256.78
736.50	256.38
736.83	256.18
737.16	255.86
737.49	255.53
737.82	255.14
738.15	254.77
738.48	254.47
738.81	254.14
739.14	253.81
739.47	253.53
739.80	253.23
740.13	252.94
740.46	252.59
740.79	252.25
741.12	251.94
741.45	251.65
741.78	251.30
742.11	251.00
742.44	250.66
742.77	250.35
743.10	250.08
743.43	249.79
743.75	249.41
744.08	249.23
744.41	248.95
744.74	248.73
745.07	248.46
745.40	248.19
745.73	247.94
746.06	247.68
746.39	247.40
746.71	247.16
747.04	246.88
747.37	246.59
747.70	246.37
748.03	246.13
748.36	245.89
748.68	245.63
749.01	245.37
749.34	245.18
749.67	244.95
750.00	244.71
750.33	244.56
750.65	244.35
750.98	243.99
751.31	243.80
751.64	243.58
751.97	243.42
752.29	243.20
752.62	242.97
752.95	242.76
753.28	242.56
753.60	242.31
753.93	242.13
754.26	241.99
754.59	241.74
754.91	241.52
755.24	241.34
755.57	241.15
755.90	240.99
756.22	240.77
756.55	240.57
756.88	240.38
757.20	240.08
757.53	239.88
757.86	239.76
758.19	239.58
758.51	239.43
758.84	239.20
759.17	239.02
759.49	238.87
759.82	238.75
760.15	238.61
760.47	238.46
760.80	238.30
761.13	238.13
761.45	238.00
761.78	237.83
762.11	237.67
762.43	237.52
762.76	237.37
763.08	237.25
763.41	237.10
763.74	236.94
764.06	236.85
764.39	236.70
764.71	236.54
765.04	236.39
765.37	236.22
765.69	236.09
766.02	235.98
766.34	235.85
766.67	235.72
767.00	235.60
767.32	235.52
767.65	235.44
767.97	235.35
768.30	235.26
768.62	235.18
768.95	235.05
769.27	234.96
769.60	234.86
769.92	234.72
770.25	234.62
770.57	234.52
770.90	234.43
771.22	234.30
771.55	234.22
771.87	234.15
772.20	234.04
772.52	234.02
772.85	234.03
773.17	233.93
773.50	233.82
773.82	233.71
774.15	233.58
774.47	233.44
774.80	233.32
775.12	233.21
775.45	233.16
775.77	233.08
776.09	232.96
776.42	232.89
776.74	232.87
777.07	232.79
777.39	232.73
777.72	232.66
778.04	232.60
778.36	232.49
778.69	232.42
779.01	232.40
779.33	232.26
779.66	232.10
779.98	232.01
780.31	231.94
780.63	231.91
780.95	231.91
781.28	231.87
781.60	231.82
781.92	231.72
782.25	231.62
782.57	231.58
782.89	231.54
783.22	231.49
783.54	231.41
783.86	231.36
784.19	231.30
784.51	231.24
784.83	231.18
785.16	231.16
785.48	231.10
785.80	231.04
786.12	230.98
786.45	230.93
786.77	230.88
787.09	230.85
787.42	230.79
787.74	230.75
788.06	230.71
788.38	230.67
788.71	230.64
789.03	230.63
789.35	230.62
789.67	230.56
789.99	230.55
790.32	230.49
790.64	230.49
790.96	230.53
791.28	230.47
791.61	230.43
791.93	230.38
792.25	230.38
792.57	230.41
792.89	230.37
793.21	230.36
793.54	230.36
793.86	230.28
794.18	230.25
794.50	230.22
794.82	230.17
795.14	230.11
795.47	230.12
795.79	230.05
796.11	229.95
796.43	229.92
796.75	229.84
797.07	229.82
797.39	229.76
797.71	229.64
798.04	229.61
798.36	229.61
798.68	229.58
799.00	229.53
799.32	229.46
799.64	229.45
799.96	229.39
800.28	229.34
800.60	229.32
800.92	229.26
801.24	229.18
801.56	229.15
801.89	229.10
802.21	229.05
802.53	229.04
802.85	229.05
803.17	229.06
803.49	229.00
803.81	228.94
804.13	228.92
804.45	228.88
804.77	228.87
805.09	228.79
805.41	228.71
805.73	228.65
806.05	228.59
806.37	228.56
806.69	228.51
807.01	228.48
807.33	228.45
807.65	228.41
807.97	228.44
808.28	228.39
808.60	228.38
808.92	228.35
809.24	228.37
809.56	228.35
809.88	228.30
810.20	228.28
810.52	228.28
810.84	228.23
811.16	228.24
811.48	228.21
811.80	228.25
812.12	228.26
812.43	228.29
812.75	228.25
813.07	228.22
813.39	228.24
813.71	228.22
814.03	228.19
814.35	228.16
814.67	228.09
814.98	228.08
815.30	228.04
815.62	228.05
815.94	227.99
816.26	228.01
816.58	227.95
816.89	227.97
817.21	227.95
817.53	227.94
817.85	227.92
818.17	227.90
818.48	227.83
818.80	227.84
819.12	227.77
819.44	227.75
819.76	227.70
820.07	227.70
820.39	227.67
820.71	227.70
821.03	227.69
821.34	227.71
821.66	227.69
821.98	227.70
822.30	227.66
822.61	227.68
822.93	227.59
823.25	227.59
823.57	227.54
823.88	227.56
824.20	227.53
824.52	227.54
824.83	227.52
825.15	227.51
825.47	227.48
825.79	227.49
826.10	227.47
826.42	227.49
826.74	227.46
827.05	227.47
827.37	227.44
827.69	227.44
828.00	227.38
828.32	227.37
828.64	227.37
828.95	227.39
829.27	227.35
829.58	227.36
829.90	227.38
830.22	227.37
830.53	227.33
830.85	227.28
831.17	227.25
831.48	227.26
831.80	227.29
832.11	227.24
832.43	227.21
832.75	227.21
833.06	227.27
833.38	227.23
833.69	227.19
834.01	227.18
834.32	227.14
834.64	227.14
834.96	227.13
835.27	227.10
835.59	227.03
835.90	226.99
836.22	226.97
836.53	226.93
836.85	226.91
837.16	226.98
837.48	227.00
837.79	226.99
838.11	226.93
838.42	226.90
838.74	226.94
839.05	226.93
839.37	226.94
839.68	226.83
840.00	226.80
840.31	226.79
840.63	226.76
840.94	226.76
841.26	226.76
841.57	226.75
841.88	226.78
842.20	226.79
842.51	226.77
842.83	226.75
843.14	226.82
843.46	226.85
843.77	226.81
844.08	226.79
844.40	226.79
844.71	226.80
845.03	226.79
845.34	226.77
845.65	226.77
845.97	226.73
846.28	226.75
846.60	226.77
846.91	226.79
847.22	226.78
847.54	226.79
847.85	226.74
848.16	226.74
848.48	226.69
848.79	226.73
849.10	226.78
849.42	226.78
849.73	226.66
850.04	226.64
850.36	226.60
850.67	226.65
850.98	226.64
851.30	226.65
851.61	226.62
851.92	226.64
852.23	226.67
852.55	226.68
852.86	226.70
853.17	226.69
853.49	226.72
853.80	226.78
854.11	226.78
854.42	226.81
854.74	226.81
855.05	226.84
855.36	226.79
855.67	226.77
855.99	226.77
856.30	226.93
856.61	226.90
856.92	226.89
857.23	226.90
857.55	226.89
857.86	226.91
858.17	226.92
858.48	226.90
858.79	226.88
859.11	226.89
859.42	226.87
859.73	226.85
860.04	226.82
860.35	226.77
860.66	226.72
860.98	226.74
861.29	226.76
861.60	226.72
861.91	226.73
862.22	226.74
862.53	226.73
862.84	226.60
863.16	226.65
863.47	226.64
863.78	226.61
864.09	226.62
864.40	226.61
864.71	226.59
865.02	226.59
865.33	226.57
865.64	226.56
865.95	226.58
866.27	226.65
866.58	226.66
866.89	226.68
867.20	226.71
867.51	226.68
867.82	226.63
868.13	226.68
868.44	226.66
868.75	226.68
869.06	226.67
869.37	226.69
869.68	226.67
869.99	226.66
870.30	226.66
870.61	226.66
870.92	226.61
871.23	226.61
871.54	226.64
871.85	226.65
872.16	226.65
872.47	226.63
872.78	226.59
873.09	226.59
873.40	226.54
873.71	226.55
874.02	226.55
874.33	226.56
874.64	226.52
874.95	226.49
875.26	226.44
875.56	226.46
875.87	226.44
876.18	226.40
876.49	226.50
876.80	226.49
877.11	226.46
877.42	226.48
877.73	226.48
878.04	226.43
878.35	226.42
878.66	226.42
878.96	226.43
879.27	226.42
879.58	226.40
879.89	226.42
880.20	226.46
880.51	226.43
880.82	226.44
881.12	226.43
881.43	226.45
881.74	226.45
882.05	226.44
882.36	226.46
882.67	226.49
882.97	226.42
883.28	226.40
883.59	226.38
883.90	226.40
884.21	226.39
884.51	226.42
884.82	226.42
885.13	226.43
885.44	226.40
885.74	226.36
886.05	226.35
886.36	226.32
886.67	226.27
886.98	226.34
887.28	226.33
887.59	226.35
887.90	226.34
888.20	226.31
888.51	226.32
888.82	226.28
889.13	226.28
889.43	226.31
889.74	226.32
890.05	226.32
890.35	226.29
890.66	226.29
890.97	226.27
891.28	226.27
891.58	226.25
891.89	226.23
892.20	226.24
892.50	226.22
892.81	226.25
893.12	226.23
893.42	226.19
893.73	226.21
894.04	226.21
894.34	226.21
894.65	226.25
894.95	226.23
895.26	226.25
895.57	226.29
895.87	226.22
896.18	226.25
896.48	226.25
896.79	226.25
897.10	226.23
897.40	226.24
897.71	226.27
898.01	226.26
898.32	226.32
898.63	226.34
898.93	226.36
899.24	226.33
899.54	226.34
899.85	226.34
900.15	226.35
900.46	226.34
900.76	226.39
901.07	226.36
901.38	226.37
901.68	226.37
901.99	226.31
902.29	226.29
902.60	226.24
902.90	226.28
903.21	226.27
903.51	226.30
903.82	226.30
904.12	226.27
904.43	226.28
904.73	226.25
905.03	226.20
905.34	226.32
905.64	226.32
905.95	226.29
906.25	226.28
906.56	226.25
906.86	226.23
907.17	226.18
907.47	226.18
907.77	226.15
908.08	226.12
908.38	226.12
908.69	226.15
908.99	226.20
909.30	226.18
909.60	226.18
909.90	226.16
910.21	226.15
910.51	226.13
910.81	226.09
911.12	226.10
911.42	226.13
911.73	226.00
912.03	226.01
912.33	226.07
912.64	226.04
912.94	226.01
913.24	225.98
913.55	225.96
913.85	225.97
914.15	225.97
914.46	226.03
914.76	226.03
915.06	226.02
915.37	225.99
915.67	225.97
915.97	226.00
916.27	225.99
916.58	225.98
916.88	225.97
917.18	225.96
917.49	225.98
917.79	225.97
918.09	226.00
918.39	226.02
918.70	225.99
919.00	226.01
919.30	226.08
919.60	226.12
919.91	226.11
920.21	226.10
920.51	226.11
920.81	226.07
921.12	226.10
921.42	226.08
921.72	226.06
922.02	226.06
922.32	226.05
922.63	226.06
922.93	226.11
923.23	226.14
923.53	226.16
923.83	226.13
924.13	226.13
924.44	226.12
924.74	226.13
925.04	226.14
925.34	226.13
925.64	226.07
925.94	226.06
926.24	226.12
926.55	226.18
926.85	226.18
927.15	226.17
927.45	226.15
927.75	226.16
928.05	226.18
928.35	226.18
928.65	226.19
928.95	226.21
929.26	226.17
929.56	226.17
929.86	226.18
930.16	226.17
930.46	226.17
930.76	226.18
931.06	226.15
931.36	226.12
931.66	226.15
931.96	226.16
932.26	226.17
932.56	226.13
932.86	226.08
933.16	226.07
933.46	226.06
933.76	226.04
934.06	226.08
934.36	226.11
934.66	226.11
934.96	226.10
935.26	226.10
935.56	226.09
935.86	226.07
936.16	226.08
936.46	226.07
936.76	226.05
937.06	226.02
937.36	226.00
937.66	226.01
937.96	225.98
938.26	225.96
938.56	225.95
938.86	225.93
939.16	225.96
939.46	225.94
939.76	225.95
940.06	225.96
940.35	225.90
940.65	225.84
940.95	225.84
941.25	225.81
941.55	225.77
941.85	225.79
942.15	225.83
942.45	225.86
942.75	225.85
943.04	225.87
943.34	225.91
943.64	225.90
943.94	225.89
944.24	225.92
944.54	225.94
944.84	225.96
945.13	225.97
945.43	225.96
945.73	225.98
946.03	225.97
946.33	225.97
946.62	225.97
946.92	225.96
947.22	225.96
947.52	225.97
947.82	225.99
948.11	225.95
948.41	225.93
948.71	225.88
949.01	225.89
949.31	225.90
949.60	225.90
949.90	225.92
950.20	225.91
950.50	225.90
950.79	225.92
951.09	225.90
951.39	225.92
951.69	225.91
951.98	225.93
952.28	225.95
952.58	225.94
952.87	225.95
953.17	225.98
953.47	225.97
953.76	225.99
954.06	225.96
954.36	225.98
954.66	225.96
954.95	225.99
955.25	226.00
955.55	225.99
955.84	225.96
956.14	225.98
956.44	225.98
956.73	225.99
957.03	225.96
957.32	225.99
957.62	225.95
957.92	225.98
958.21	225.98
958.51	226.09
958.81	226.10
959.10	226.08
959.40	226.11
959.69	226.12
959.99	226.14
960.29	226.17
960.58	226.15
960.88	226.19
961.17	226.16
961.47	226.16
961.76	226.16
962.06	226.19
962.36	226.16
962.65	226.17
962.95	226.14
963.24	226.12
963.54	226.10
963.83	226.11
964.13	226.07
964.42	226.05
964.72	225.97
965.01	225.99
965.31	225.97
965.60	225.96
965.90	226.02
966.19	226.00
966.49	226.00
966.78	226.01
967.08	225.99
967.37	226.00
967.67	225.95
967.96	225.95
968.26	225.91
968.55	225.94
968.85	225.96
969.14	225.99
969.43	225.98
969.73	226.01
970.02	225.99
970.32	226.00
970.61	225.97
970.91	225.95
971.20	225.92
971.49	225.93
971.79	225.93
972.08	225.86
972.38	225.82
972.67	225.82
972.96	225.84
973.26	225.82
973.55	225.87
973.85	225.88
974.14	225.88
974.43	225.91
974.73	225.88
975.02	225.84
975.31	225.82
975.61	225.82
975.90	225.78
976.19	225.79
976.49	225.79
976.78	225.78
977.07	225.78
977.37	225.79
977.66	225.81
977.95	225.79
978.24	225.82
978.54	225.88
978.83	225.89
979.12	225.83
979.42	225.84
979.71	225.79
980.00	225.82
980.29	225.82
980.59	225.82
980.88	225.87
981.17	225.89
981.46	225.90
981.76	225.92
982.05	225.96
982.34	225.98
982.63	225.97
982.93	225.98
983.22	226.00
983.51	226.02
983.80	226.02
984.09	226.03
984.39	226.01
984.68	226.00
984.97	225.99
985.26	226.01
985.55	226.02
985.85	226.04
986.14	226.04
986.43	226.07
986.72	226.04
987.01	226.00
987.30	226.01
987.59	225.99
987.89	225.98
988.18	225.94
988.47	225.94
988.76	225.93
989.05	225.95
989.34	225.92
989.63	225.96
989.92	225.94
990.22	225.92
990.51	225.94
990.80	225.90
991.09	225.93
991.38	225.94
991.67	225.89
991.96	225.87
992.25	225.87
992.54	225.82
992.83	225.83
993.12	225.80
993.41	225.79
993.70	225.82
993.99	225.83
994.28	225.86
994.58	225.88
994.87	225.86
995.16	225.82
995.45	225.81
995.74	225.74
996.03	225.77
996.32	225.78
996.61	225.77
996.90	225.76
997.19	225.72
997.48	225.75
997.77	225.75
998.06	225.76
998.34	225.76
998.63	225.79
998.92	225.81
999.21	225.83
999.50	225.83
999.79	225.79
1000.08	225.77
1000.37	225.75
1000.66	225.70
1000.95	225.75
1001.24	225.80
1001.53	225.82
1001.82	225.83
1002.11	225.82
1002.40	225.85
1002.68	225.89
1002.97	225.98
1003.26	225.98
1003.55	225.97
1003.84	226.00
1004.13	226.00
1004.42	226.03
1004.71	226.01
1004.99	225.99
1005.28	226.03
1005.57	226.05
1005.86	226.05
1006.15	226.06
1006.44	226.04
1006.72	226.08
1007.01	226.04
1007.30	226.02
1007.59	225.98
1007.88	225.98
1008.17	225.99
1008.45	225.94
1008.74	225.90
1009.03	225.85
1009.32	225.85
1009.60	225.86
1009.89	225.88
1010.18	225.88
1010.47	225.82
1010.76	225.81
1011.04	225.81
1011.33	225.88
1011.62	225.88
1011.91	225.90
1012.19	225.91
1012.48	225.92
1012.77	225.94
1013.05	226.01
1013.34	226.03
1013.63	226.05
1013.92	226.04
1014.20	226.02
1014.49	226.06
1014.78	226.09
1015.06	226.04
1015.35	226.08
1015.64	226.09
1015.92	226.05
1016.21	226.08
1016.50	226.12
1016.78	226.15
1017.07	226.14
1017.36	226.02
1017.64	225.99
1017.93	226.01
1018.22	225.99
1018.50	226.00
1018.79	225.99
1019.08	225.93
1019.36	225.92
1019.65	225.91
1019.93	225.94
1020.22	225.97
1020.51	225.99
1020.79	225.95
1021.08	225.51
1021.36	225.88
1021.65	226.01
1021.94	225.94
1022.22	225.84
1022.51	225.74
1022.79	225.96
1023.08	226.02
1023.36	226.92
1023.65	225.58
>>>>>End Processed Spectral Data<<<<<
