SpectraSuite Data File
++++++++++++++++++++++++++++++++++++
Date: Fri Feb 01 16:15:45 EST 2013
User: group
Dark Spectrum Present: No
Reference Spectrum Present: No
Number of Sampled Component Spectra: 1
Spectrometers: USB2E7196
Integration Time (usec): 35000 (USB2E7196)
Spectra Averaged: 100 (USB2E7196)
Boxcar Smoothing: 10 (USB2E7196)
Correct for Electrical Dark: No (USB2E7196)
Strobe/Lamp Enabled: No (USB2E7196)
Correct for Detector Non-linearity: No (USB2E7196)
Correct for Stray Light: No (USB2E7196)
Number of Pixels in Processed Spectrum: 2048
>>>>>Begin Processed Spectral Data<<<<<
339.09	0.00
339.48	214.31
339.86	215.42
340.24	216.77
340.63	218.29
341.01	221.39
341.39	221.36
341.78	222.37
342.16	223.62
342.54	224.47
342.93	212.62
343.31	223.36
343.69	223.91
344.07	224.38
344.46	224.81
344.84	225.19
345.22	225.41
345.60	225.62
345.99	225.80
346.37	225.93
346.75	226.01
347.13	226.08
347.52	226.15
347.90	226.19
348.28	226.19
348.66	226.19
349.05	226.17
349.43	226.16
349.81	226.15
350.19	226.17
350.57	226.18
350.96	226.24
351.34	226.28
351.72	226.33
352.10	226.43
352.48	226.49
352.87	226.54
353.25	226.62
353.63	226.66
354.01	226.75
354.39	226.81
354.77	226.87
355.15	226.97
355.54	227.04
355.92	227.10
356.30	227.17
356.68	227.30
357.06	227.35
357.44	227.39
357.82	227.46
358.20	227.52
358.58	227.59
358.97	227.66
359.35	227.76
359.73	227.86
360.11	227.89
360.49	227.94
360.87	228.00
361.25	228.06
361.63	228.16
362.01	228.16
362.39	228.21
362.77	228.28
363.15	228.29
363.53	228.29
363.91	228.32
364.29	228.35
364.67	228.32
365.05	228.35
365.43	228.40
365.81	228.40
366.19	228.42
366.57	228.47
366.95	228.49
367.33	228.46
367.71	228.42
368.09	228.43
368.47	228.43
368.85	228.43
369.23	228.41
369.61	228.38
369.99	228.39
370.37	228.38
370.75	228.39
371.13	228.37
371.51	228.32
371.89	228.31
372.27	228.30
372.65	228.25
373.03	228.20
373.41	228.15
373.78	228.14
374.16	228.08
374.54	227.98
374.92	227.90
375.30	227.84
375.68	227.78
376.06	227.74
376.44	227.65
376.82	227.60
377.19	227.50
377.57	227.41
377.95	227.37
378.33	227.28
378.71	227.16
379.09	227.10
379.47	227.08
379.84	226.99
380.22	226.90
380.60	226.81
380.98	226.73
381.36	226.69
381.73	226.60
382.11	226.52
382.49	226.45
382.87	226.38
383.25	226.33
383.62	226.38
384.00	226.32
384.38	226.30
384.76	226.25
385.13	226.25
385.51	226.20
385.89	226.08
386.27	226.07
386.64	226.01
387.02	225.95
387.40	225.90
387.78	225.88
388.15	225.85
388.53	225.82
388.91	225.79
389.29	225.75
389.66	225.75
390.04	225.73
390.42	225.75
390.79	225.75
391.17	225.75
391.55	225.60
391.92	225.57
392.30	225.55
392.68	225.54
393.05	225.52
393.43	225.53
393.81	225.56
394.18	225.53
394.56	225.54
394.94	225.55
395.31	225.57
395.69	225.61
396.06	225.67
396.44	225.72
396.82	225.76
397.19	225.85
397.57	225.89
397.95	225.94
398.32	225.95
398.70	226.01
399.07	226.05
399.45	226.17
399.82	226.24
400.20	226.29
400.58	226.35
400.95	226.41
401.33	226.50
401.70	226.61
402.08	226.71
402.45	226.81
402.83	226.98
403.20	227.09
403.58	227.16
403.95	227.26
404.33	227.38
404.71	227.51
405.08	227.68
405.46	227.81
405.83	227.98
406.21	228.11
406.58	228.29
406.96	228.48
407.33	228.63
407.70	228.83
408.08	229.09
408.45	229.31
408.83	229.53
409.20	229.75
409.58	229.96
409.95	230.22
410.33	230.50
410.70	230.73
411.08	231.02
411.45	231.32
411.82	231.62
412.20	232.01
412.57	232.39
412.95	232.66
413.32	233.05
413.69	233.43
414.07	233.87
414.44	234.30
414.82	234.76
415.19	235.28
415.56	235.81
415.94	236.36
416.31	236.99
416.68	237.64
417.06	238.38
417.43	239.05
417.81	239.80
418.18	240.57
418.55	241.37
418.93	242.22
419.30	243.15
419.67	244.08
420.04	245.00
420.42	246.01
420.79	247.21
421.16	248.35
421.54	249.59
421.91	250.79
422.28	252.06
422.66	253.40
423.03	254.75
423.40	256.11
423.77	257.53
424.15	258.97
424.52	260.42
424.89	261.99
425.26	263.56
425.64	265.02
426.01	266.63
426.38	268.28
426.75	269.96
427.13	271.67
427.50	273.49
427.87	275.39
428.24	277.27
428.61	278.99
428.99	280.94
429.36	282.97
429.73	285.07
430.10	287.07
430.47	289.10
430.85	291.17
431.22	293.41
431.59	295.75
431.96	297.97
432.33	300.46
432.70	302.84
433.08	305.62
433.45	308.21
433.82	310.77
434.19	313.69
434.56	316.50
434.93	319.19
435.30	321.85
435.68	324.74
436.05	327.56
436.42	330.36
436.79	332.83
437.16	335.53
437.53	338.35
437.90	341.14
438.27	343.87
438.64	346.67
439.01	349.23
439.38	351.49
439.75	353.68
440.13	356.15
440.50	358.44
440.87	360.23
441.24	362.15
441.61	364.34
441.98	365.79
442.35	367.60
442.72	369.40
443.09	371.18
443.46	372.12
443.83	372.67
444.20	373.18
444.57	374.05
444.94	374.38
445.31	374.74
445.68	375.10
446.05	375.21
446.42	374.82
446.79	374.38
447.16	373.90
447.53	373.55
447.90	372.39
448.27	371.26
448.64	369.72
449.01	368.62
449.37	366.65
449.74	364.71
450.11	362.42
450.48	359.95
450.85	357.40
451.22	355.29
451.59	353.26
451.96	351.32
452.33	348.72
452.70	346.31
453.07	343.48
453.43	340.63
453.80	337.83
454.17	335.22
454.54	332.72
454.91	330.01
455.28	327.32
455.65	324.80
456.02	322.34
456.38	320.22
456.75	317.57
457.12	315.36
457.49	313.18
457.86	311.02
458.23	309.18
458.59	307.14
458.96	305.02
459.33	303.20
459.70	301.29
460.07	299.79
460.43	298.10
460.80	296.49
461.17	295.05
461.54	293.58
461.91	292.16
462.27	290.68
462.64	289.47
463.01	288.16
463.38	286.93
463.74	285.59
464.11	284.42
464.48	283.43
464.85	282.27
465.21	281.40
465.58	280.53
465.95	279.42
466.32	278.54
466.68	277.63
467.05	276.76
467.42	275.96
467.78	275.03
468.15	274.15
468.52	273.49
468.88	272.62
469.25	271.84
469.62	271.19
469.98	270.55
470.35	269.92
470.72	269.32
471.08	268.67
471.45	268.16
471.82	267.64
472.18	267.01
472.55	266.62
472.92	266.14
473.28	265.67
473.65	265.25
474.02	264.81
474.38	264.47
474.75	264.16
475.11	263.79
475.48	263.53
475.85	263.31
476.21	263.08
476.58	262.92
476.94	262.82
477.31	262.64
477.67	262.50
478.04	262.40
478.41	262.36
478.77	262.42
479.14	262.34
479.50	262.35
479.87	262.45
480.23	262.51
480.60	262.58
480.96	262.67
481.33	262.90
481.69	263.07
482.06	263.28
482.42	263.47
482.79	263.70
483.15	264.00
483.52	264.41
483.88	264.75
484.25	265.14
484.61	265.49
484.98	266.01
485.34	266.57
485.71	267.15
486.07	267.71
486.44	268.29
486.80	268.99
487.17	269.73
487.53	270.50
487.90	271.38
488.26	272.30
488.62	273.32
488.99	274.28
489.35	275.35
489.72	276.48
490.08	277.66
490.44	278.96
490.81	280.31
491.17	281.65
491.54	283.17
491.90	284.72
492.26	286.36
492.63	288.07
492.99	289.87
493.36	291.78
493.72	293.87
494.08	295.98
494.45	298.23
494.81	300.61
495.17	303.07
495.54	305.64
495.90	308.32
496.26	311.14
496.63	314.13
496.99	317.25
497.35	320.49
497.72	323.92
498.08	327.39
498.44	331.07
498.80	335.00
499.17	339.04
499.53	343.23
499.89	347.64
500.26	352.14
500.62	356.77
500.98	361.74
501.34	366.82
501.71	372.16
502.07	377.59
502.43	383.21
502.79	389.03
503.16	395.13
503.52	401.41
503.88	407.80
504.24	414.41
504.60	421.33
504.97	428.52
505.33	435.89
505.69	443.66
506.05	451.44
506.41	459.38
506.78	467.57
507.14	475.97
507.50	484.72
507.86	493.80
508.22	503.02
508.59	512.27
508.95	521.87
509.31	531.66
509.67	541.86
510.03	552.21
510.39	562.85
510.75	573.60
511.12	584.50
511.48	595.82
511.84	607.27
512.20	618.73
512.56	630.62
512.92	642.74
513.28	655.09
513.64	667.58
514.00	680.28
514.37	693.19
514.73	706.22
515.09	719.18
515.45	732.51
515.81	746.06
516.17	760.02
516.53	774.14
516.89	788.25
517.25	802.30
517.61	816.64
517.97	831.11
518.33	845.51
518.69	860.34
519.05	875.21
519.41	890.37
519.77	905.89
520.13	921.34
520.49	936.71
520.85	952.01
521.21	967.74
521.57	983.93
521.93	999.61
522.29	1016.03
522.65	1032.27
523.01	1048.36
523.37	1064.35
523.73	1080.52
524.09	1096.53
524.45	1112.86
524.81	1129.56
525.17	1146.32
525.53	1163.02
525.89	1179.91
526.25	1196.56
526.61	1213.01
526.97	1229.74
527.33	1246.17
527.68	1262.69
528.04	1279.13
528.40	1295.65
528.76	1312.60
529.12	1329.12
529.48	1345.92
529.84	1361.85
530.20	1378.47
530.56	1395.49
530.91	1412.90
531.27	1429.57
531.63	1445.90
531.99	1462.50
532.35	1478.37
532.71	1494.27
533.07	1510.55
533.42	1526.30
533.78	1542.41
534.14	1558.61
534.50	1573.82
534.86	1589.67
535.21	1604.74
535.57	1620.69
535.93	1636.18
536.29	1650.84
536.65	1665.78
537.00	1680.50
537.36	1695.72
537.72	1710.17
538.08	1724.47
538.44	1738.23
538.79	1752.01
539.15	1765.76
539.51	1779.26
539.87	1793.46
540.22	1806.99
540.58	1820.58
540.94	1833.84
541.29	1846.56
541.65	1859.14
542.01	1872.23
542.37	1884.60
542.72	1896.91
543.08	1908.54
543.44	1920.87
543.79	1932.12
544.15	1943.12
544.51	1954.65
544.87	1965.58
545.22	1976.19
545.58	1986.34
545.94	1996.08
546.29	2005.95
546.65	2015.75
547.01	2025.00
547.36	2033.71
547.72	2042.25
548.07	2050.17
548.43	2058.35
548.79	2066.33
549.14	2073.78
549.50	2081.11
549.86	2088.65
550.21	2096.07
550.57	2103.23
550.92	2109.77
551.28	2116.86
551.64	2123.89
551.99	2130.31
552.35	2136.47
552.70	2142.60
553.06	2148.63
553.41	2154.91
553.77	2160.86
554.13	2166.76
554.48	2172.94
554.84	2178.61
555.19	2183.85
555.55	2189.08
555.90	2193.57
556.26	2198.59
556.61	2203.34
556.97	2207.64
557.32	2211.60
557.68	2215.66
558.03	2219.90
558.39	2223.56
558.74	2228.20
559.10	2232.12
559.45	2235.89
559.81	2240.15
560.16	2244.11
560.52	2247.21
560.87	2250.62
561.23	2253.24
561.58	2256.15
561.94	2258.62
562.29	2260.79
562.64	2263.46
563.00	2266.00
563.35	2269.54
563.71	2272.55
564.06	2275.85
564.42	2278.79
564.77	2281.39
565.12	2283.76
565.48	2285.79
565.83	2287.80
566.19	2289.14
566.54	2289.91
566.89	2291.04
567.25	2291.61
567.60	2292.84
567.96	2294.76
568.31	2295.55
568.66	2296.69
569.02	2297.36
569.37	2297.81
569.72	2298.61
570.08	2298.89
570.43	2298.89
570.78	2298.33
571.14	2296.86
571.49	2295.48
571.84	2295.18
572.20	2294.17
572.55	2293.20
572.90	2291.52
573.26	2290.20
573.61	2288.42
573.96	2286.75
574.31	2283.81
574.67	2280.98
575.02	2277.53
575.37	2273.94
575.72	2270.20
576.08	2266.94
576.43	2263.64
576.78	2260.01
577.13	2256.92
577.49	2253.82
577.84	2250.32
578.19	2246.67
578.54	2243.18
578.90	2238.97
579.25	2233.49
579.60	2228.44
579.95	2223.44
580.30	2218.51
580.66	2213.23
581.01	2208.43
581.36	2203.65
581.71	2199.50
582.06	2195.07
582.42	2190.52
582.77	2185.52
583.12	2181.10
583.47	2176.38
583.82	2171.46
584.17	2166.19
584.53	2160.68
584.88	2155.03
585.23	2149.39
585.58	2143.92
585.93	2138.41
586.28	2133.67
586.63	2128.55
586.98	2123.70
587.34	2118.93
587.69	2114.08
588.04	2108.85
588.39	2103.26
588.74	2096.73
589.09	2090.61
589.44	2083.83
589.79	2077.98
590.14	2072.38
590.49	2065.73
590.84	2059.30
591.19	2053.49
591.54	2047.12
591.89	2039.95
592.25	2033.05
592.60	2025.92
592.95	2018.33
593.30	2011.05
593.65	2003.39
594.00	1996.33
594.35	1988.97
594.70	1980.92
595.05	1973.76
595.40	1966.54
595.75	1958.95
596.10	1952.75
596.45	1946.11
596.80	1939.95
597.15	1933.27
597.50	1926.15
597.85	1919.74
598.19	1913.28
598.54	1905.97
598.89	1899.26
599.24	1893.33
599.59	1886.85
599.94	1880.52
600.29	1874.26
600.64	1867.65
600.99	1860.28
601.34	1853.51
601.69	1846.67
602.04	1839.99
602.39	1832.67
602.74	1825.82
603.08	1819.15
603.43	1812.47
603.78	1805.08
604.13	1797.97
604.48	1790.82
604.83	1784.01
605.18	1777.06
605.53	1769.00
605.87	1761.07
606.22	1753.96
606.57	1746.00
606.92	1738.73
607.27	1731.68
607.62	1724.73
607.96	1717.59
608.31	1711.12
608.66	1703.62
609.01	1696.05
609.36	1688.34
609.70	1680.35
610.05	1672.29
610.40	1664.54
610.75	1656.37
611.10	1648.79
611.44	1640.34
611.79	1632.30
612.14	1623.52
612.49	1614.43
612.83	1606.06
613.18	1598.06
613.53	1589.93
613.88	1581.39
614.22	1573.05
614.57	1564.40
614.92	1556.43
615.27	1548.71
615.61	1540.30
615.96	1532.28
616.31	1524.66
616.65	1517.35
617.00	1509.73
617.35	1502.17
617.70	1493.84
618.04	1485.26
618.39	1477.02
618.74	1469.44
619.08	1461.17
619.43	1453.68
619.78	1446.79
620.12	1439.61
620.47	1431.99
620.82	1423.75
621.16	1416.40
621.51	1408.76
621.85	1401.11
622.20	1392.44
622.55	1384.03
622.89	1376.19
623.24	1368.55
623.59	1361.13
623.93	1353.65
624.28	1346.53
624.62	1338.88
624.97	1331.68
625.32	1324.87
625.66	1317.88
626.01	1310.66
626.35	1303.14
626.70	1295.37
627.04	1287.48
627.39	1279.68
627.73	1272.33
628.08	1265.40
628.43	1258.07
628.77	1250.71
629.12	1243.15
629.46	1236.08
629.81	1228.76
630.15	1221.62
630.50	1214.15
630.84	1205.98
631.19	1198.01
631.53	1190.42
631.88	1182.86
632.22	1175.25
632.57	1167.93
632.91	1160.30
633.26	1152.87
633.60	1145.44
633.95	1138.25
634.29	1131.33
634.64	1124.71
634.98	1117.28
635.32	1110.14
635.67	1103.58
636.01	1096.94
636.36	1090.09
636.70	1083.53
637.05	1077.00
637.39	1070.41
637.73	1063.91
638.08	1058.03
638.42	1051.96
638.77	1045.52
639.11	1039.07
639.45	1032.74
639.80	1026.03
640.14	1019.62
640.49	1013.17
640.83	1006.87
641.17	1000.64
641.52	994.26
641.86	987.68
642.20	981.82
642.55	975.51
642.89	968.97
643.23	962.42
643.58	956.72
643.92	950.55
644.26	944.38
644.61	938.41
644.95	932.34
645.29	925.76
645.64	919.04
645.98	912.69
646.32	906.79
646.66	900.68
647.01	894.95
647.35	889.26
647.69	883.33
648.04	877.82
648.38	872.06
648.72	866.11
649.06	860.09
649.41	854.26
649.75	848.30
650.09	842.46
650.43	836.64
650.78	830.51
651.12	824.50
651.46	818.80
651.80	813.04
652.14	807.69
652.49	802.35
652.83	797.20
653.17	791.55
653.51	785.73
653.85	780.32
654.20	774.64
654.54	768.64
654.88	762.86
655.22	757.01
655.56	751.31
655.90	745.81
656.25	740.59
656.59	735.20
656.93	730.08
657.27	724.87
657.61	719.48
657.95	714.38
658.29	709.39
658.64	704.17
658.98	698.86
659.32	693.37
659.66	688.10
660.00	682.83
660.34	677.92
660.68	673.08
661.02	668.10
661.36	663.44
661.70	658.99
662.05	654.69
662.39	650.34
662.73	645.85
663.07	641.51
663.41	637.05
663.75	632.52
664.09	627.99
664.43	623.60
664.77	619.43
665.11	615.09
665.45	610.85
665.79	606.74
666.13	602.60
666.47	598.55
666.81	594.40
667.15	590.24
667.49	586.29
667.83	582.49
668.17	578.51
668.51	574.39
668.85	570.33
669.19	566.45
669.53	562.57
669.87	558.65
670.21	554.99
670.55	551.37
670.89	547.95
671.23	544.55
671.57	540.95
671.91	537.42
672.25	533.91
672.58	530.46
672.92	527.02
673.26	523.83
673.60	520.62
673.94	517.56
674.28	514.67
674.62	511.70
674.96	508.54
675.30	505.66
675.64	502.71
675.97	499.90
676.31	497.05
676.65	494.14
676.99	491.47
677.33	488.54
677.67	485.67
678.01	482.62
678.34	479.56
678.68	476.72
679.02	473.92
679.36	471.24
679.70	468.51
680.04	465.74
680.37	462.89
680.71	460.10
681.05	457.43
681.39	454.69
681.73	451.98
682.06	449.47
682.40	446.85
682.74	444.30
683.08	441.78
683.42	439.13
683.75	436.65
684.09	434.12
684.43	431.67
684.77	429.24
685.10	426.88
685.44	424.59
685.78	422.29
686.12	420.01
686.45	417.69
686.79	415.38
687.13	413.23
687.46	411.06
687.80	408.93
688.14	406.71
688.48	404.67
688.81	402.47
689.15	400.32
689.49	398.20
689.82	396.21
690.16	394.12
690.50	392.19
690.83	390.20
691.17	388.20
691.51	386.30
691.84	384.43
692.18	382.53
692.52	380.60
692.85	378.66
693.19	376.74
693.52	374.90
693.86	373.11
694.20	371.34
694.53	369.55
694.87	367.65
695.21	365.89
695.54	364.06
695.88	362.33
696.21	360.59
696.55	358.91
696.88	357.17
697.22	355.50
697.56	353.87
697.89	352.22
698.23	350.60
698.56	348.98
698.90	347.41
699.23	345.74
699.57	344.17
699.90	342.64
700.24	341.14
700.58	339.61
700.91	338.13
701.25	336.68
701.58	335.29
701.92	333.99
702.25	332.61
702.59	331.23
702.92	329.87
703.26	328.55
703.59	327.32
703.93	326.16
704.26	324.94
704.60	323.66
704.93	322.42
705.26	321.17
705.60	319.99
705.93	318.85
706.27	317.83
706.60	316.74
706.94	315.66
707.27	314.50
707.61	313.40
707.94	312.37
708.27	311.24
708.61	310.19
708.94	309.16
709.28	308.21
709.61	307.24
709.94	306.32
710.28	305.35
710.61	304.33
710.95	303.25
711.28	302.33
711.61	301.35
711.95	300.42
712.28	299.51
712.61	298.49
712.95	297.53
713.28	296.63
713.61	295.76
713.95	294.86
714.28	294.03
714.61	293.18
714.95	292.31
715.28	291.43
715.61	290.55
715.95	289.67
716.28	288.75
716.61	287.86
716.95	287.03
717.28	286.26
717.61	285.49
717.94	284.72
718.28	283.86
718.61	283.18
718.94	282.50
719.27	281.83
719.61	281.21
719.94	280.56
720.27	279.86
720.60	279.21
720.94	278.61
721.27	278.03
721.60	277.47
721.93	276.88
722.27	276.37
722.60	275.79
722.93	275.25
723.26	274.73
723.59	274.19
723.93	273.65
724.26	273.13
724.59	272.54
724.92	272.05
725.25	271.59
725.59	271.02
725.92	270.47
726.25	269.93
726.58	269.46
726.91	268.95
727.24	268.45
727.57	267.96
727.91	267.43
728.24	266.94
728.57	266.44
728.90	265.97
729.23	265.45
729.56	265.07
729.89	264.56
730.22	264.04
730.55	263.61
730.89	263.15
731.22	262.67
731.55	262.26
731.88	261.79
732.21	261.38
732.54	260.94
732.87	260.52
733.20	260.11
733.53	259.67
733.86	259.30
734.19	258.89
734.52	258.51
734.85	258.22
735.18	257.80
735.51	257.44
735.84	257.07
736.17	256.74
736.50	256.31
736.83	256.10
737.16	255.78
737.49	255.42
737.82	255.10
738.15	254.80
738.48	254.48
738.81	254.21
739.14	253.85
739.47	253.56
739.80	253.29
740.13	253.01
740.46	252.71
740.79	252.37
741.12	252.06
741.45	251.78
741.78	251.42
742.11	251.15
742.44	250.82
742.77	250.53
743.10	250.22
743.43	249.90
743.75	249.52
744.08	249.41
744.41	249.15
744.74	248.84
745.07	248.52
745.40	248.26
745.73	248.01
746.06	247.75
746.39	247.47
746.71	247.19
747.04	246.92
747.37	246.63
747.70	246.41
748.03	246.19
748.36	245.96
748.68	245.69
749.01	245.45
749.34	245.25
749.67	245.00
750.00	244.80
750.33	244.65
750.65	244.41
750.98	244.03
751.31	243.81
751.64	243.64
751.97	243.50
752.29	243.30
752.62	243.02
752.95	242.78
753.28	242.58
753.60	242.38
753.93	242.18
754.26	241.99
754.59	241.74
754.91	241.52
755.24	241.30
755.57	241.09
755.90	240.88
756.22	240.65
756.55	240.47
756.88	240.23
757.20	240.02
757.53	239.84
757.86	239.67
758.19	239.51
758.51	239.33
758.84	239.11
759.17	238.93
759.49	238.80
759.82	238.70
760.15	238.54
760.47	238.37
760.80	238.19
761.13	238.09
761.45	237.95
761.78	237.82
762.11	237.66
762.43	237.53
762.76	237.42
763.08	237.30
763.41	237.16
763.74	237.06
764.06	236.92
764.39	236.80
764.71	236.62
765.04	236.45
765.37	236.31
765.69	236.17
766.02	235.99
766.34	235.86
766.67	235.71
767.00	235.58
767.32	235.51
767.65	235.48
767.97	235.37
768.30	235.29
768.62	235.17
768.95	235.05
769.27	234.94
769.60	234.85
769.92	234.74
770.25	234.64
770.57	234.51
770.90	234.40
771.22	234.29
771.55	234.24
771.87	234.20
772.20	234.12
772.52	234.14
772.85	234.20
773.17	234.11
773.50	234.01
773.82	233.95
774.15	233.81
774.47	233.64
774.80	233.52
775.12	233.40
775.45	233.33
775.77	233.28
776.09	233.21
776.42	233.14
776.74	233.11
777.07	233.03
777.39	233.00
777.72	232.94
778.04	232.91
778.36	232.83
778.69	232.75
779.01	232.68
779.33	232.53
779.66	232.36
779.98	232.29
780.31	232.26
780.63	232.24
780.95	232.20
781.28	232.17
781.60	232.14
781.92	232.09
782.25	232.04
782.57	231.99
782.89	231.95
783.22	231.86
783.54	231.76
783.86	231.72
784.19	231.66
784.51	231.62
784.83	231.51
785.16	231.45
785.48	231.40
785.80	231.36
786.12	231.31
786.45	231.26
786.77	231.22
787.09	231.15
787.42	231.05
787.74	231.01
788.06	230.95
788.38	230.89
788.71	230.82
789.03	230.78
789.35	230.76
789.67	230.71
789.99	230.67
790.32	230.61
790.64	230.59
790.96	230.61
791.28	230.53
791.61	230.50
791.93	230.48
792.25	230.42
792.57	230.45
792.89	230.38
793.21	230.36
793.54	230.30
793.86	230.23
794.18	230.21
794.50	230.18
794.82	230.16
795.14	230.14
795.47	230.13
795.79	230.07
796.11	229.97
796.43	229.92
796.75	229.88
797.07	229.88
797.39	229.79
797.71	229.72
798.04	229.68
798.36	229.66
798.68	229.61
799.00	229.59
799.32	229.50
799.64	229.47
799.96	229.41
800.28	229.42
800.60	229.41
800.92	229.39
801.24	229.34
801.56	229.30
801.89	229.23
802.21	229.17
802.53	229.15
802.85	229.17
803.17	229.20
803.49	229.15
803.81	229.08
804.13	229.06
804.45	228.99
804.77	228.97
805.09	228.96
805.41	228.92
805.73	228.87
806.05	228.82
806.37	228.82
806.69	228.80
807.01	228.74
807.33	228.71
807.65	228.64
807.97	228.66
808.28	228.65
808.60	228.61
808.92	228.59
809.24	228.61
809.56	228.54
809.88	228.48
810.20	228.46
810.52	228.46
810.84	228.44
811.16	228.40
811.48	228.40
811.80	228.38
812.12	228.39
812.43	228.38
812.75	228.34
813.07	228.30
813.39	228.27
813.71	228.27
814.03	228.22
814.35	228.20
814.67	228.12
814.98	228.05
815.30	228.06
815.62	228.01
815.94	227.91
816.26	227.96
816.58	227.93
816.89	227.94
817.21	227.91
817.53	227.91
817.85	227.90
818.17	227.89
818.48	227.84
818.80	227.85
819.12	227.82
819.44	227.81
819.76	227.78
820.07	227.80
820.39	227.77
820.71	227.82
821.03	227.82
821.34	227.82
821.66	227.85
821.98	227.87
822.30	227.88
822.61	227.94
822.93	227.88
823.25	227.83
823.57	227.80
823.88	227.83
824.20	227.78
824.52	227.82
824.83	227.78
825.15	227.75
825.47	227.70
825.79	227.70
826.10	227.67
826.42	227.65
826.74	227.63
827.05	227.60
827.37	227.55
827.69	227.53
828.00	227.53
828.32	227.51
828.64	227.46
828.95	227.50
829.27	227.50
829.58	227.47
829.90	227.48
830.22	227.49
830.53	227.41
830.85	227.43
831.17	227.40
831.48	227.40
831.80	227.40
832.11	227.39
832.43	227.36
832.75	227.38
833.06	227.43
833.38	227.39
833.69	227.40
834.01	227.41
834.32	227.38
834.64	227.35
834.96	227.34
835.27	227.33
835.59	227.27
835.90	227.21
836.22	227.21
836.53	227.18
836.85	227.14
837.16	227.27
837.48	227.23
837.79	227.23
838.11	227.20
838.42	227.19
838.74	227.19
839.05	227.17
839.37	227.16
839.68	227.08
840.00	227.07
840.31	227.04
840.63	226.98
840.94	226.97
841.26	226.95
841.57	226.92
841.88	226.91
842.20	226.91
842.51	226.88
842.83	226.83
843.14	226.91
843.46	226.92
843.77	226.83
844.08	226.83
844.40	226.76
844.71	226.77
845.03	226.73
845.34	226.70
845.65	226.67
845.97	226.65
846.28	226.62
846.60	226.61
846.91	226.62
847.22	226.60
847.54	226.61
847.85	226.63
848.16	226.62
848.48	226.60
848.79	226.66
849.10	226.67
849.42	226.67
849.73	226.61
850.04	226.60
850.36	226.59
850.67	226.60
850.98	226.63
851.30	226.62
851.61	226.66
851.92	226.67
852.23	226.73
852.55	226.72
852.86	226.76
853.17	226.76
853.49	226.76
853.80	226.79
854.11	226.82
854.42	226.84
854.74	226.83
855.05	226.85
855.36	226.77
855.67	226.79
855.99	226.84
856.30	226.95
856.61	226.95
856.92	226.96
857.23	226.96
857.55	226.96
857.86	226.99
858.17	227.00
858.48	226.99
858.79	226.99
859.11	227.03
859.42	227.03
859.73	227.03
860.04	227.05
860.35	227.06
860.66	227.03
860.98	227.01
861.29	227.03
861.60	227.03
861.91	227.08
862.22	227.07
862.53	227.02
862.84	226.94
863.16	226.96
863.47	226.91
863.78	226.92
864.09	226.93
864.40	226.90
864.71	226.89
865.02	226.91
865.33	226.88
865.64	226.85
865.95	226.86
866.27	226.95
866.58	226.94
866.89	226.94
867.20	226.94
867.51	226.93
867.82	226.95
868.13	226.97
868.44	226.97
868.75	226.96
869.06	226.96
869.37	226.95
869.68	226.93
869.99	226.95
870.30	226.95
870.61	226.94
870.92	226.91
871.23	226.92
871.54	226.91
871.85	226.96
872.16	226.97
872.47	226.97
872.78	226.90
873.09	226.88
873.40	226.85
873.71	226.83
874.02	226.81
874.33	226.77
874.64	226.77
874.95	226.75
875.26	226.71
875.56	226.68
875.87	226.64
876.18	226.62
876.49	226.68
876.80	226.68
877.11	226.65
877.42	226.64
877.73	226.61
878.04	226.55
878.35	226.52
878.66	226.50
878.96	226.47
879.27	226.47
879.58	226.46
879.89	226.45
880.20	226.47
880.51	226.44
880.82	226.45
881.12	226.43
881.43	226.37
881.74	226.37
882.05	226.38
882.36	226.41
882.67	226.42
882.97	226.31
883.28	226.29
883.59	226.30
883.90	226.29
884.21	226.32
884.51	226.31
884.82	226.27
885.13	226.28
885.44	226.28
885.74	226.24
886.05	226.24
886.36	226.25
886.67	226.23
886.98	226.33
887.28	226.32
887.59	226.33
887.90	226.35
888.20	226.35
888.51	226.38
888.82	226.38
889.13	226.37
889.43	226.44
889.74	226.45
890.05	226.43
890.35	226.45
890.66	226.40
890.97	226.44
891.28	226.44
891.58	226.43
891.89	226.42
892.20	226.42
892.50	226.41
892.81	226.43
893.12	226.43
893.42	226.38
893.73	226.37
894.04	226.38
894.34	226.40
894.65	226.41
894.95	226.36
895.26	226.38
895.57	226.46
895.87	226.38
896.18	226.40
896.48	226.44
896.79	226.46
897.10	226.50
897.40	226.51
897.71	226.52
898.01	226.51
898.32	226.52
898.63	226.51
898.93	226.54
899.24	226.50
899.54	226.52
899.85	226.48
900.15	226.49
900.46	226.46
900.76	226.46
901.07	226.46
901.38	226.48
901.68	226.46
901.99	226.39
902.29	226.42
902.60	226.37
902.90	226.34
903.21	226.32
903.51	226.29
903.82	226.28
904.12	226.28
904.43	226.27
904.73	226.28
905.03	226.29
905.34	226.39
905.64	226.39
905.95	226.34
906.25	226.38
906.56	226.38
906.86	226.41
907.17	226.41
907.47	226.43
907.77	226.42
908.08	226.39
908.38	226.40
908.69	226.38
908.99	226.41
909.30	226.41
909.60	226.36
909.90	226.40
910.21	226.39
910.51	226.37
910.81	226.37
911.12	226.36
911.42	226.34
911.73	226.24
912.03	226.25
912.33	226.28
912.64	226.22
912.94	226.18
913.24	226.16
913.55	226.17
913.85	226.13
914.15	226.13
914.46	226.14
914.76	226.12
915.06	226.13
915.37	226.11
915.67	226.10
915.97	226.14
916.27	226.07
916.58	226.07
916.88	226.10
917.18	226.09
917.49	226.16
917.79	226.16
918.09	226.17
918.39	226.20
918.70	226.17
919.00	226.22
919.30	226.29
919.60	226.27
919.91	226.24
920.21	226.24
920.51	226.25
920.81	226.23
921.12	226.26
921.42	226.21
921.72	226.24
922.02	226.24
922.32	226.24
922.63	226.27
922.93	226.31
923.23	226.25
923.53	226.23
923.83	226.15
924.13	226.16
924.44	226.14
924.74	226.14
925.04	226.17
925.34	226.14
925.64	226.09
925.94	226.09
926.24	226.14
926.55	226.16
926.85	226.17
927.15	226.18
927.45	226.16
927.75	226.20
928.05	226.18
928.35	226.17
928.65	226.17
928.95	226.18
929.26	226.14
929.56	226.20
929.86	226.23
930.16	226.22
930.46	226.20
930.76	226.20
931.06	226.17
931.36	226.13
931.66	226.17
931.96	226.18
932.26	226.19
932.56	226.16
932.86	226.14
933.16	226.13
933.46	226.10
933.76	226.08
934.06	226.10
934.36	226.16
934.66	226.17
934.96	226.18
935.26	226.17
935.56	226.17
935.86	226.13
936.16	226.14
936.46	226.16
936.76	226.20
937.06	226.16
937.36	226.19
937.66	226.17
937.96	226.13
938.26	226.12
938.56	226.13
938.86	226.13
939.16	226.18
939.46	226.18
939.76	226.20
940.06	226.21
940.35	226.20
940.65	226.11
940.95	226.14
941.25	226.09
941.55	226.08
941.85	226.08
942.15	226.09
942.45	226.08
942.75	226.07
943.04	226.05
943.34	226.06
943.64	226.05
943.94	226.07
944.24	226.10
944.54	226.09
944.84	226.05
945.13	226.03
945.43	225.99
945.73	225.96
946.03	225.96
946.33	225.94
946.62	225.91
946.92	225.92
947.22	225.92
947.52	225.95
947.82	225.98
948.11	225.96
948.41	225.96
948.71	225.93
949.01	225.94
949.31	225.90
949.60	225.88
949.90	225.89
950.20	225.89
950.50	225.83
950.79	225.80
951.09	225.84
951.39	225.84
951.69	225.84
951.98	225.90
952.28	225.89
952.58	225.92
952.87	225.92
953.17	225.94
953.47	225.92
953.76	225.90
954.06	225.88
954.36	225.88
954.66	225.88
954.95	225.91
955.25	225.91
955.55	225.93
955.84	225.94
956.14	225.94
956.44	225.93
956.73	225.96
957.03	225.97
957.32	225.95
957.62	225.94
957.92	225.97
958.21	225.94
958.51	226.08
958.81	226.11
959.10	226.11
959.40	226.14
959.69	226.13
959.99	226.16
960.29	226.16
960.58	226.18
960.88	226.20
961.17	226.18
961.47	226.19
961.76	226.18
962.06	226.20
962.36	226.20
962.65	226.22
962.95	226.24
963.24	226.24
963.54	226.29
963.83	226.30
964.13	226.29
964.42	226.25
964.72	226.15
965.01	226.09
965.31	226.12
965.60	226.09
965.90	226.15
966.19	226.13
966.49	226.16
966.78	226.13
967.08	226.14
967.37	226.15
967.67	226.12
967.96	226.17
968.26	226.18
968.55	226.20
968.85	226.21
969.14	226.21
969.43	226.21
969.73	226.14
970.02	226.15
970.32	226.16
970.61	226.17
970.91	226.14
971.20	226.14
971.49	226.12
971.79	226.13
972.08	226.07
972.38	226.06
972.67	226.05
972.96	226.09
973.26	226.05
973.55	226.08
973.85	226.07
974.14	226.06
974.43	226.07
974.73	226.06
975.02	226.06
975.31	226.06
975.61	226.09
975.90	226.12
976.19	226.11
976.49	226.09
976.78	226.11
977.07	226.14
977.37	226.15
977.66	226.14
977.95	226.13
978.24	226.11
978.54	226.14
978.83	226.16
979.12	226.15
979.42	226.15
979.71	226.13
980.00	226.15
980.29	226.15
980.59	226.10
980.88	226.08
981.17	226.07
981.46	226.07
981.76	226.04
982.05	226.04
982.34	226.06
982.63	226.06
982.93	226.04
983.22	226.06
983.51	226.07
983.80	226.08
984.09	226.10
984.39	226.10
984.68	226.09
984.97	226.07
985.26	226.05
985.55	226.08
985.85	226.04
986.14	226.03
986.43	226.03
986.72	226.04
987.01	226.05
987.30	226.02
987.59	225.96
987.89	225.99
988.18	225.95
988.47	225.89
988.76	225.89
989.05	225.85
989.34	225.86
989.63	225.86
989.92	225.85
990.22	225.79
990.51	225.80
990.80	225.76
991.09	225.76
991.38	225.76
991.67	225.76
991.96	225.74
992.25	225.74
992.54	225.70
992.83	225.70
993.12	225.65
993.41	225.67
993.70	225.71
993.99	225.71
994.28	225.72
994.58	225.76
994.87	225.73
995.16	225.76
995.45	225.71
995.74	225.68
996.03	225.72
996.32	225.78
996.61	225.78
996.90	225.81
997.19	225.83
997.48	225.82
997.77	225.81
998.06	225.84
998.34	225.82
998.63	225.85
998.92	225.88
999.21	225.88
999.50	225.91
999.79	225.92
1000.08	225.90
1000.37	225.94
1000.66	225.93
1000.95	225.98
1001.24	225.98
1001.53	226.03
1001.82	226.05
1002.11	226.03
1002.40	226.04
1002.68	226.11
1002.97	226.15
1003.26	226.14
1003.55	226.17
1003.84	226.16
1004.13	226.20
1004.42	226.22
1004.71	226.21
1004.99	226.21
1005.28	226.27
1005.57	226.25
1005.86	226.25
1006.15	226.28
1006.44	226.26
1006.72	226.28
1007.01	226.28
1007.30	226.30
1007.59	226.28
1007.88	226.26
1008.17	226.24
1008.45	226.23
1008.74	226.17
1009.03	226.14
1009.32	226.16
1009.60	226.15
1009.89	226.17
1010.18	226.14
1010.47	226.13
1010.76	226.14
1011.04	226.12
1011.33	226.13
1011.62	226.17
1011.91	226.15
1012.19	226.13
1012.48	226.14
1012.77	226.13
1013.05	226.16
1013.34	226.17
1013.63	226.16
1013.92	226.14
1014.20	226.15
1014.49	226.12
1014.78	226.12
1015.06	226.07
1015.35	226.06
1015.64	226.08
1015.92	226.04
1016.21	226.03
1016.50	226.03
1016.78	226.04
1017.07	226.02
1017.36	225.98
1017.64	225.96
1017.93	225.95
1018.22	225.93
1018.50	225.93
1018.79	225.91
1019.08	225.83
1019.36	225.82
1019.65	225.80
1019.93	225.86
1020.22	225.85
1020.51	225.89
1020.79	225.90
1021.08	225.35
1021.36	226.01
1021.65	225.68
1021.94	225.27
1022.22	226.09
1022.51	225.75
1022.79	226.46
1023.08	225.75
1023.36	226.99
1023.65	225.73
>>>>>End Processed Spectral Data<<<<<
