SpectraSuite Data File
++++++++++++++++++++++++++++++++++++
Date: Fri Feb 01 15:36:32 EST 2013
User: group
Dark Spectrum Present: No
Reference Spectrum Present: No
Number of Sampled Component Spectra: 1
Spectrometers: USB2E7196
Integration Time (usec): 35000 (USB2E7196)
Spectra Averaged: 100 (USB2E7196)
Boxcar Smoothing: 10 (USB2E7196)
Correct for Electrical Dark: No (USB2E7196)
Strobe/Lamp Enabled: No (USB2E7196)
Correct for Detector Non-linearity: No (USB2E7196)
Correct for Stray Light: No (USB2E7196)
Number of Pixels in Processed Spectrum: 2048
>>>>>Begin Processed Spectral Data<<<<<
339.09	0.00
339.48	214.57
339.86	216.27
340.24	218.34
340.63	218.99
341.01	221.37
341.39	221.09
341.78	222.56
342.16	223.86
342.54	224.55
342.93	212.97
343.31	223.75
343.69	224.32
344.07	224.79
344.46	225.17
344.84	225.54
345.22	225.82
345.60	226.08
345.99	226.25
346.37	226.43
346.75	226.53
347.13	226.63
347.52	226.71
347.90	226.80
348.28	226.81
348.66	226.87
349.05	226.88
349.43	226.95
349.81	227.00
350.19	227.05
350.57	227.17
350.96	227.27
351.34	227.35
351.72	227.44
352.10	227.53
352.48	227.62
352.87	227.67
353.25	227.72
353.63	227.84
354.01	227.96
354.39	228.04
354.77	228.13
355.15	228.21
355.54	228.27
355.92	228.30
356.30	228.36
356.68	228.51
357.06	228.57
357.44	228.59
357.82	228.67
358.20	228.75
358.58	228.81
358.97	228.86
359.35	228.93
359.73	228.99
360.11	229.06
360.49	229.08
360.87	229.15
361.25	229.22
361.63	229.28
362.01	229.32
362.39	229.32
362.77	229.36
363.15	229.40
363.53	229.42
363.91	229.45
364.29	229.52
364.67	229.43
365.05	229.47
365.43	229.49
365.81	229.51
366.19	229.52
366.57	229.52
366.95	229.53
367.33	229.50
367.71	229.49
368.09	229.46
368.47	229.48
368.85	229.44
369.23	229.44
369.61	229.38
369.99	229.38
370.37	229.35
370.75	229.38
371.13	229.28
371.51	229.22
371.89	229.19
372.27	229.10
372.65	229.07
373.03	229.00
373.41	228.93
373.78	228.82
374.16	228.72
374.54	228.64
374.92	228.59
375.30	228.52
375.68	228.44
376.06	228.39
376.44	228.28
376.82	228.22
377.19	228.10
377.57	228.02
377.95	227.91
378.33	227.82
378.71	227.67
379.09	227.63
379.47	227.56
379.84	227.46
380.22	227.36
380.60	227.25
380.98	227.17
381.36	227.13
381.73	227.05
382.11	227.02
382.49	226.94
382.87	226.85
383.25	226.80
383.62	226.84
384.00	226.75
384.38	226.70
384.76	226.65
385.13	226.62
385.51	226.57
385.89	226.50
386.27	226.47
386.64	226.45
387.02	226.41
387.40	226.36
387.78	226.32
388.15	226.30
388.53	226.25
388.91	226.24
389.29	226.21
389.66	226.23
390.04	226.19
390.42	226.18
390.79	226.16
391.17	226.17
391.55	226.07
391.92	226.08
392.30	226.10
392.68	226.09
393.05	226.07
393.43	226.08
393.81	226.10
394.18	226.10
394.56	226.14
394.94	226.16
395.31	226.21
395.69	226.25
396.06	226.34
396.44	226.44
396.82	226.45
397.19	226.55
397.57	226.58
397.95	226.69
398.32	226.71
398.70	226.79
399.07	226.84
399.45	226.88
399.82	226.94
400.20	227.03
400.58	227.13
400.95	227.21
401.33	227.35
401.70	227.49
402.08	227.61
402.45	227.71
402.83	227.84
403.20	227.98
403.58	228.12
403.95	228.24
404.33	228.37
404.71	228.52
405.08	228.71
405.46	228.82
405.83	228.92
406.21	229.10
406.58	229.27
406.96	229.49
407.33	229.69
407.70	229.93
408.08	230.18
408.45	230.40
408.83	230.64
409.20	230.83
409.58	231.07
409.95	231.33
410.33	231.58
410.70	231.85
411.08	232.15
411.45	232.45
411.82	232.76
412.20	233.13
412.57	233.53
412.95	233.83
413.32	234.28
413.69	234.71
414.07	235.16
414.44	235.60
414.82	236.02
415.19	236.56
415.56	237.09
415.94	237.64
416.31	238.27
416.68	238.88
417.06	239.57
417.43	240.18
417.81	240.90
418.18	241.71
418.55	242.53
418.93	243.41
419.30	244.28
419.67	245.20
420.04	246.11
420.42	247.11
420.79	248.27
421.16	249.44
421.54	250.61
421.91	251.81
422.28	253.06
422.66	254.43
423.03	255.75
423.40	257.05
423.77	258.45
424.15	259.89
424.52	261.41
424.89	263.03
425.26	264.62
425.64	266.11
426.01	267.68
426.38	269.30
426.75	270.92
427.13	272.64
427.50	274.46
427.87	276.33
428.24	278.16
428.61	279.83
428.99	281.74
429.36	283.84
429.73	285.91
430.10	287.95
430.47	289.96
430.85	292.06
431.22	294.34
431.59	296.72
431.96	298.94
432.33	301.38
432.70	303.78
433.08	306.61
433.45	309.22
433.82	311.83
434.19	314.73
434.56	317.56
434.93	320.21
435.30	322.82
435.68	325.73
436.05	328.58
436.42	331.44
436.79	333.99
437.16	336.72
437.53	339.55
437.90	342.35
438.27	345.12
438.64	347.92
439.01	350.46
439.38	352.68
439.75	354.83
440.13	357.36
440.50	359.66
440.87	361.44
441.24	363.42
441.61	365.56
441.98	367.02
442.35	368.83
442.72	370.72
443.09	372.52
443.46	373.50
443.83	374.07
444.20	374.58
444.57	375.38
444.94	375.64
445.31	376.03
445.68	376.39
446.05	376.42
446.42	376.10
446.79	375.73
447.16	375.32
447.53	375.01
447.90	373.87
448.27	372.71
448.64	371.12
449.01	369.94
449.37	367.96
449.74	366.06
450.11	363.79
450.48	361.29
450.85	358.76
451.22	356.65
451.59	354.64
451.96	352.68
452.33	350.04
452.70	347.67
453.07	344.81
453.43	341.92
453.80	339.19
454.17	336.51
454.54	333.93
454.91	331.19
455.28	328.48
455.65	325.98
456.02	323.51
456.38	321.39
456.75	318.74
457.12	316.51
457.49	314.31
457.86	312.13
458.23	310.31
458.59	308.25
458.96	306.12
459.33	304.28
459.70	302.41
460.07	300.91
460.43	299.20
460.80	297.57
461.17	296.12
461.54	294.60
461.91	293.11
462.27	291.66
462.64	290.41
463.01	289.09
463.38	287.77
463.74	286.39
464.11	285.23
464.48	284.17
464.85	283.06
465.21	282.18
465.58	281.22
465.95	280.12
466.32	279.23
466.68	278.35
467.05	277.44
467.42	276.51
467.78	275.59
468.15	274.71
468.52	274.02
468.88	273.16
469.25	272.40
469.62	271.79
469.98	271.13
470.35	270.49
470.72	269.87
471.08	269.20
471.45	268.67
471.82	268.09
472.18	267.51
472.55	267.10
472.92	266.60
473.28	266.18
473.65	265.70
474.02	265.23
474.38	264.88
474.75	264.53
475.11	264.23
475.48	263.97
475.85	263.73
476.21	263.53
476.58	263.34
476.94	263.17
477.31	263.01
477.67	262.84
478.04	262.71
478.41	262.61
478.77	262.68
479.14	262.60
479.50	262.65
479.87	262.74
480.23	262.84
480.60	262.91
480.96	263.00
481.33	263.24
481.69	263.42
482.06	263.62
482.42	263.82
482.79	264.07
483.15	264.39
483.52	264.78
483.88	265.12
484.25	265.53
484.61	265.97
484.98	266.44
485.34	267.06
485.71	267.66
486.07	268.33
486.44	268.89
486.80	269.65
487.17	270.39
487.53	271.18
487.90	272.03
488.26	272.95
488.62	273.93
488.99	274.89
489.35	275.95
489.72	277.05
490.08	278.28
490.44	279.54
490.81	280.92
491.17	282.27
491.54	283.71
491.90	285.27
492.26	286.90
492.63	288.66
492.99	290.40
493.36	292.29
493.72	294.25
494.08	296.37
494.45	298.62
494.81	300.98
495.17	303.37
495.54	305.93
495.90	308.62
496.26	311.44
496.63	314.42
496.99	317.49
497.35	320.73
497.72	324.11
498.08	327.62
498.44	331.29
498.80	335.20
499.17	339.26
499.53	343.40
499.89	347.76
500.26	352.23
500.62	356.91
500.98	361.87
501.34	366.96
501.71	372.28
502.07	377.74
502.43	383.32
502.79	389.22
503.16	395.25
503.52	401.53
503.88	407.94
504.24	414.60
504.60	421.51
504.97	428.62
505.33	435.98
505.69	443.67
506.05	451.38
506.41	459.27
506.78	467.45
507.14	475.91
507.50	484.67
507.86	493.65
508.22	502.83
508.59	512.06
508.95	521.73
509.31	531.54
509.67	541.62
510.03	551.89
510.39	562.44
510.75	573.32
511.12	584.23
511.48	595.53
511.84	606.94
512.20	618.50
512.56	630.48
512.92	642.64
513.28	654.98
513.64	667.51
514.00	680.21
514.37	693.14
514.73	706.18
515.09	719.24
515.45	732.60
515.81	746.27
516.17	760.26
516.53	774.32
516.89	788.46
517.25	802.68
517.61	817.16
517.97	831.65
518.33	846.01
518.69	860.75
519.05	875.74
519.41	890.94
519.77	906.56
520.13	922.03
520.49	937.47
520.85	952.87
521.21	968.60
521.57	984.86
521.93	1000.67
522.29	1017.07
522.65	1033.29
523.01	1049.47
523.37	1065.45
523.73	1081.65
524.09	1097.84
524.45	1114.32
524.81	1130.88
525.17	1147.80
525.53	1164.68
525.89	1181.56
526.25	1198.39
526.61	1214.72
526.97	1231.45
527.33	1247.81
527.68	1264.36
528.04	1280.84
528.40	1297.50
528.76	1314.66
529.12	1331.35
529.48	1348.20
529.84	1364.38
530.20	1381.01
530.56	1398.16
530.91	1415.61
531.27	1432.41
531.63	1448.81
531.99	1465.34
532.35	1481.43
532.71	1497.21
533.07	1513.49
533.42	1529.46
533.78	1545.58
534.14	1561.98
534.50	1577.43
534.86	1593.44
535.21	1608.73
535.57	1624.75
535.93	1640.39
536.29	1655.17
536.65	1670.24
537.00	1684.98
537.36	1700.25
537.72	1714.87
538.08	1729.17
538.44	1742.95
538.79	1756.79
539.15	1770.52
539.51	1784.37
539.87	1798.67
540.22	1812.44
540.58	1826.14
540.94	1839.51
541.29	1852.46
541.65	1865.20
542.01	1878.31
542.37	1890.55
542.72	1903.03
543.08	1914.77
543.44	1927.13
543.79	1938.44
544.15	1949.55
544.51	1961.20
544.87	1972.19
545.22	1983.05
545.58	1993.38
545.94	2003.15
546.29	2012.96
546.65	2022.76
547.01	2031.92
547.36	2040.66
547.72	2049.24
548.07	2057.24
548.43	2065.45
548.79	2073.51
549.14	2081.05
549.50	2088.55
549.86	2096.30
550.21	2103.55
550.57	2110.70
550.92	2117.20
551.28	2124.17
551.64	2131.16
551.99	2137.58
552.35	2143.81
552.70	2149.94
553.06	2155.93
553.41	2162.47
553.77	2168.75
554.13	2174.90
554.48	2181.10
554.84	2186.38
555.19	2191.64
555.55	2196.73
555.90	2201.11
556.26	2206.02
556.61	2210.73
556.97	2214.90
557.32	2219.14
557.68	2223.27
558.03	2227.58
558.39	2231.29
558.74	2235.93
559.10	2239.67
559.45	2243.45
559.81	2247.57
560.16	2251.30
560.52	2254.49
560.87	2257.76
561.23	2260.29
561.58	2263.25
561.94	2265.75
562.29	2268.26
562.64	2270.88
563.00	2273.53
563.35	2277.09
563.71	2280.09
564.06	2283.32
564.42	2286.23
564.77	2288.56
565.12	2290.87
565.48	2292.75
565.83	2294.56
566.19	2295.81
566.54	2296.85
566.89	2298.01
567.25	2298.61
567.60	2299.97
567.96	2301.64
568.31	2302.47
568.66	2303.53
569.02	2303.98
569.37	2304.20
569.72	2305.02
570.08	2305.20
570.43	2305.17
570.78	2304.61
571.14	2303.13
571.49	2301.71
571.84	2301.28
572.20	2300.13
572.55	2299.00
572.90	2297.47
573.26	2296.16
573.61	2294.43
573.96	2292.43
574.31	2289.40
574.67	2286.43
575.02	2282.74
575.37	2279.24
575.72	2275.50
576.08	2272.20
576.43	2268.86
576.78	2265.05
577.13	2261.98
577.49	2258.90
577.84	2255.46
578.19	2251.58
578.54	2247.82
578.90	2243.45
579.25	2238.00
579.60	2233.07
579.95	2228.05
580.30	2222.89
580.66	2217.67
581.01	2212.66
581.36	2207.82
581.71	2203.53
582.06	2198.93
582.42	2194.50
582.77	2189.23
583.12	2184.52
583.47	2179.74
583.82	2174.63
584.17	2169.37
584.53	2163.78
584.88	2158.02
585.23	2152.05
585.58	2146.51
585.93	2141.11
586.28	2136.45
586.63	2131.18
586.98	2126.11
587.34	2121.27
587.69	2116.38
588.04	2111.05
588.39	2105.27
588.74	2098.78
589.09	2092.73
589.44	2085.85
589.79	2079.68
590.14	2074.03
590.49	2067.38
590.84	2060.82
591.19	2054.86
591.54	2048.37
591.89	2040.78
592.25	2033.87
592.60	2026.70
592.95	2019.10
593.30	2011.62
593.65	2003.92
594.00	1996.90
594.35	1989.52
594.70	1981.49
595.05	1974.10
595.40	1966.82
595.75	1959.39
596.10	1953.05
596.45	1946.17
596.80	1939.98
597.15	1933.39
597.50	1926.21
597.85	1919.86
598.19	1913.23
598.54	1905.98
598.89	1899.45
599.24	1893.70
599.59	1886.99
599.94	1880.82
600.29	1874.43
600.64	1867.81
600.99	1860.26
601.34	1853.37
601.69	1846.41
602.04	1839.44
602.39	1832.15
602.74	1825.25
603.08	1818.44
603.43	1811.74
603.78	1804.42
604.13	1797.34
604.48	1789.95
604.83	1783.13
605.18	1776.07
605.53	1768.02
605.87	1760.04
606.22	1752.70
606.57	1744.74
606.92	1737.50
607.27	1730.15
607.62	1723.19
607.96	1715.89
608.31	1709.33
608.66	1701.79
609.01	1694.21
609.36	1686.80
609.70	1678.82
610.05	1670.76
610.40	1663.14
610.75	1654.74
611.10	1647.06
611.44	1638.64
611.79	1630.72
612.14	1621.95
612.49	1612.78
612.83	1604.45
613.18	1596.38
613.53	1588.31
613.88	1579.76
614.22	1571.35
614.57	1562.84
614.92	1554.88
615.27	1547.31
615.61	1538.92
615.96	1530.83
616.31	1523.18
616.65	1515.68
617.00	1508.14
617.35	1500.49
617.70	1492.10
618.04	1483.70
618.39	1475.48
618.74	1467.82
619.08	1459.49
619.43	1452.02
619.78	1445.09
620.12	1437.94
620.47	1430.42
620.82	1422.28
621.16	1414.83
621.51	1407.24
621.85	1399.62
622.20	1391.03
622.55	1382.75
622.89	1375.08
623.24	1367.49
623.59	1360.12
623.93	1352.71
624.28	1345.37
624.62	1337.87
624.97	1330.75
625.32	1323.95
625.66	1316.89
626.01	1309.61
626.35	1302.02
626.70	1294.30
627.04	1286.51
627.39	1278.86
627.73	1271.44
628.08	1264.47
628.43	1257.05
628.77	1249.73
629.12	1242.16
629.46	1235.03
629.81	1227.74
630.15	1220.36
630.50	1212.92
630.84	1204.74
631.19	1196.81
631.53	1189.38
631.88	1181.73
632.22	1174.12
632.57	1166.86
632.91	1159.40
633.26	1152.17
633.60	1144.95
633.95	1137.86
634.29	1130.84
634.64	1124.07
634.98	1116.63
635.32	1109.48
635.67	1103.06
636.01	1096.42
636.36	1089.61
636.70	1083.07
637.05	1076.37
637.39	1070.05
637.73	1063.54
638.08	1057.73
638.42	1051.69
638.77	1045.23
639.11	1038.59
639.45	1032.19
639.80	1025.45
640.14	1018.99
640.49	1012.25
640.83	1005.88
641.17	999.61
641.52	993.36
641.86	986.94
642.20	981.16
642.55	974.90
642.89	968.28
643.23	961.77
643.58	956.04
643.92	949.82
644.26	943.76
644.61	937.64
644.95	931.60
645.29	924.92
645.64	918.08
645.98	911.76
646.32	906.00
646.66	899.92
647.01	894.10
647.35	888.43
647.69	882.66
648.04	877.16
648.38	871.40
648.72	865.37
649.06	859.25
649.41	853.36
649.75	847.37
650.09	841.51
650.43	835.69
650.78	829.45
651.12	823.56
651.46	817.90
651.80	812.08
652.14	806.69
652.49	801.36
652.83	796.32
653.17	790.62
653.51	784.90
653.85	779.52
654.20	773.86
654.54	767.86
654.88	762.14
655.22	756.27
655.56	750.53
655.90	745.07
656.25	739.83
656.59	734.51
656.93	729.41
657.27	724.26
657.61	718.82
657.95	713.75
658.29	708.62
658.64	703.35
658.98	698.15
659.32	692.68
659.66	687.43
660.00	682.04
660.34	677.09
660.68	672.16
661.02	667.11
661.36	662.44
661.70	657.94
662.05	653.61
662.39	649.30
662.73	644.86
663.07	640.51
663.41	636.05
663.75	631.55
664.09	626.98
664.43	622.57
664.77	618.48
665.11	614.21
665.45	610.15
665.79	606.06
666.13	601.92
666.47	597.86
666.81	593.73
667.15	589.69
667.49	585.86
667.83	582.10
668.17	578.22
668.51	574.15
668.85	570.07
669.19	566.22
669.53	562.37
669.87	558.53
670.21	554.80
670.55	551.18
670.89	547.75
671.23	544.30
671.57	540.80
671.91	537.23
672.25	533.79
672.58	530.23
672.92	526.84
673.26	523.64
673.60	520.50
673.94	517.34
674.28	514.45
674.62	511.48
674.96	508.34
675.30	505.46
675.64	502.51
675.97	499.77
676.31	496.88
676.65	493.93
676.99	491.23
677.33	488.38
677.67	485.58
678.01	482.54
678.34	479.51
678.68	476.69
679.02	473.89
679.36	471.09
679.70	468.41
680.04	465.63
680.37	462.79
680.71	459.92
681.05	457.36
681.39	454.57
681.73	451.94
682.06	449.45
682.40	446.88
682.74	444.37
683.08	441.83
683.42	439.25
683.75	436.77
684.09	434.21
684.43	431.69
684.77	429.24
685.10	426.92
685.44	424.72
685.78	422.40
686.12	420.16
686.45	417.90
686.79	415.61
687.13	413.43
687.46	411.26
687.80	409.13
688.14	406.95
688.48	404.91
688.81	402.63
689.15	400.45
689.49	398.31
689.82	396.23
690.16	394.18
690.50	392.22
690.83	390.28
691.17	388.32
691.51	386.48
691.84	384.62
692.18	382.69
692.52	380.66
692.85	378.75
693.19	376.85
693.52	375.03
693.86	373.22
694.20	371.46
694.53	369.65
694.87	367.83
695.21	366.07
695.54	364.25
695.88	362.56
696.21	360.89
696.55	359.21
696.88	357.57
697.22	355.90
697.56	354.28
697.89	352.63
698.23	351.02
698.56	349.40
698.90	347.80
699.23	346.16
699.57	344.61
699.90	343.08
700.24	341.57
700.58	340.06
700.91	338.57
701.25	337.14
701.58	335.75
701.92	334.41
702.25	333.00
702.59	331.61
702.92	330.24
703.26	328.91
703.59	327.61
703.93	326.44
704.26	325.20
704.60	323.93
704.93	322.71
705.26	321.45
705.60	320.29
705.93	319.14
706.27	318.13
706.60	317.09
706.94	315.98
707.27	314.85
707.61	313.78
707.94	312.76
708.27	311.62
708.61	310.56
708.94	309.56
709.28	308.60
709.61	307.66
709.94	306.76
710.28	305.76
710.61	304.82
710.95	303.73
711.28	302.82
711.61	301.86
711.95	300.92
712.28	299.98
712.61	298.99
712.95	298.05
713.28	297.15
713.61	296.27
713.95	295.42
714.28	294.58
714.61	293.71
714.95	292.89
715.28	292.07
715.61	291.20
715.95	290.32
716.28	289.43
716.61	288.58
716.95	287.74
717.28	287.02
717.61	286.22
717.94	285.45
718.28	284.61
718.61	283.89
718.94	283.18
719.27	282.50
719.61	281.87
719.94	281.22
720.27	280.51
720.60	279.83
720.94	279.14
721.27	278.56
721.60	277.96
721.93	277.33
722.27	276.78
722.60	276.26
722.93	275.71
723.26	275.18
723.59	274.63
723.93	274.09
724.26	273.51
724.59	272.96
724.92	272.45
725.25	272.01
725.59	271.50
725.92	271.00
726.25	270.51
726.58	269.99
726.91	269.51
727.24	269.04
727.57	268.56
727.91	268.07
728.24	267.57
728.57	267.08
728.90	266.63
729.23	266.12
729.56	265.65
729.89	265.14
730.22	264.65
730.55	264.15
730.89	263.71
731.22	263.22
731.55	262.80
731.88	262.37
732.21	261.92
732.54	261.49
732.87	261.08
733.20	260.64
733.53	260.28
733.86	259.90
734.19	259.51
734.52	259.15
734.85	258.86
735.18	258.48
735.51	258.14
735.84	257.77
736.17	257.46
736.50	257.07
736.83	256.88
737.16	256.56
737.49	256.28
737.82	255.92
738.15	255.61
738.48	255.30
738.81	255.00
739.14	254.70
739.47	254.35
739.80	254.02
740.13	253.75
740.46	253.41
740.79	253.11
741.12	252.81
741.45	252.53
741.78	252.20
742.11	251.93
742.44	251.62
742.77	251.32
743.10	251.02
743.43	250.78
743.75	250.39
744.08	250.25
744.41	249.99
744.74	249.72
745.07	249.44
745.40	249.19
745.73	248.97
746.06	248.68
746.39	248.45
746.71	248.19
747.04	247.94
747.37	247.71
747.70	247.48
748.03	247.21
748.36	246.97
748.68	246.70
749.01	246.45
749.34	246.25
749.67	246.05
750.00	245.83
750.33	245.65
750.65	245.43
750.98	245.10
751.31	244.91
751.64	244.69
751.97	244.52
752.29	244.31
752.62	244.05
752.95	243.84
753.28	243.63
753.60	243.46
753.93	243.29
754.26	243.09
754.59	242.85
754.91	242.63
755.24	242.42
755.57	242.23
755.90	242.06
756.22	241.83
756.55	241.59
756.88	241.36
757.20	241.14
757.53	240.94
757.86	240.75
758.19	240.55
758.51	240.38
758.84	240.19
759.17	239.99
759.49	239.84
759.82	239.71
760.15	239.54
760.47	239.35
760.80	239.17
761.13	239.00
761.45	238.81
761.78	238.69
762.11	238.55
762.43	238.40
762.76	238.23
763.08	238.12
763.41	238.00
763.74	237.88
764.06	237.74
764.39	237.62
764.71	237.46
765.04	237.29
765.37	237.14
765.69	237.01
766.02	236.88
766.34	236.75
766.67	236.60
767.00	236.51
767.32	236.45
767.65	236.34
767.97	236.24
768.30	236.13
768.62	236.02
768.95	235.91
769.27	235.79
769.60	235.71
769.92	235.58
770.25	235.45
770.57	235.36
770.90	235.21
771.22	235.03
771.55	234.97
771.87	234.91
772.20	234.82
772.52	234.80
772.85	234.81
773.17	234.70
773.50	234.63
773.82	234.53
774.15	234.38
774.47	234.25
774.80	234.17
775.12	234.11
775.45	234.03
775.77	233.92
776.09	233.82
776.42	233.71
776.74	233.66
777.07	233.60
777.39	233.51
777.72	233.45
778.04	233.38
778.36	233.31
778.69	233.24
779.01	233.17
779.33	233.04
779.66	232.88
779.98	232.82
780.31	232.76
780.63	232.71
780.95	232.68
781.28	232.63
781.60	232.56
781.92	232.45
782.25	232.37
782.57	232.34
782.89	232.28
783.22	232.23
783.54	232.13
783.86	232.11
784.19	232.07
784.51	232.06
784.83	232.06
785.16	231.98
785.48	231.94
785.80	231.88
786.12	231.84
786.45	231.79
786.77	231.77
787.09	231.72
787.42	231.66
787.74	231.61
788.06	231.59
788.38	231.53
788.71	231.53
789.03	231.49
789.35	231.46
789.67	231.44
789.99	231.43
790.32	231.39
790.64	231.35
790.96	231.38
791.28	231.31
791.61	231.24
791.93	231.19
792.25	231.12
792.57	231.20
792.89	231.14
793.21	231.12
793.54	231.05
793.86	230.97
794.18	230.94
794.50	230.90
794.82	230.83
795.14	230.80
795.47	230.76
795.79	230.73
796.11	230.67
796.43	230.66
796.75	230.60
797.07	230.54
797.39	230.49
797.71	230.37
798.04	230.33
798.36	230.31
798.68	230.29
799.00	230.31
799.32	230.19
799.64	230.17
799.96	230.09
800.28	230.08
800.60	230.07
800.92	230.03
801.24	229.98
801.56	229.96
801.89	229.93
802.21	229.89
802.53	229.86
802.85	229.86
803.17	229.85
803.49	229.81
803.81	229.80
804.13	229.75
804.45	229.71
804.77	229.67
805.09	229.65
805.41	229.59
805.73	229.52
806.05	229.46
806.37	229.42
806.69	229.39
807.01	229.36
807.33	229.32
807.65	229.24
807.97	229.26
808.28	229.21
808.60	229.17
808.92	229.12
809.24	229.16
809.56	229.08
809.88	229.02
810.20	229.01
810.52	229.00
810.84	228.98
811.16	228.97
811.48	228.95
811.80	228.94
812.12	228.94
812.43	228.96
812.75	228.98
813.07	228.95
813.39	228.93
813.71	228.89
814.03	228.85
814.35	228.86
814.67	228.79
814.98	228.78
815.30	228.75
815.62	228.74
815.94	228.63
816.26	228.65
816.58	228.62
816.89	228.60
817.21	228.56
817.53	228.56
817.85	228.55
818.17	228.57
818.48	228.53
818.80	228.55
819.12	228.51
819.44	228.47
819.76	228.46
820.07	228.49
820.39	228.51
820.71	228.53
821.03	228.51
821.34	228.54
821.66	228.53
821.98	228.54
822.30	228.55
822.61	228.58
822.93	228.53
823.25	228.52
823.57	228.54
823.88	228.54
824.20	228.51
824.52	228.49
824.83	228.43
825.15	228.43
825.47	228.39
825.79	228.39
826.10	228.37
826.42	228.36
826.74	228.33
827.05	228.32
827.37	228.31
827.69	228.26
828.00	228.24
828.32	228.22
828.64	228.20
828.95	228.22
829.27	228.21
829.58	228.19
829.90	228.21
830.22	228.16
830.53	228.15
830.85	228.13
831.17	228.10
831.48	228.08
831.80	228.05
832.11	228.03
832.43	228.00
832.75	227.97
833.06	228.01
833.38	228.00
833.69	227.97
834.01	227.96
834.32	227.95
834.64	227.90
834.96	227.91
835.27	227.88
835.59	227.85
835.90	227.84
836.22	227.82
836.53	227.75
836.85	227.73
837.16	227.81
837.48	227.78
837.79	227.81
838.11	227.77
838.42	227.76
838.74	227.75
839.05	227.71
839.37	227.72
839.68	227.65
840.00	227.60
840.31	227.57
840.63	227.53
840.94	227.53
841.26	227.55
841.57	227.54
841.88	227.54
842.20	227.49
842.51	227.45
842.83	227.43
843.14	227.53
843.46	227.52
843.77	227.43
844.08	227.40
844.40	227.37
844.71	227.38
845.03	227.35
845.34	227.31
845.65	227.30
845.97	227.25
846.28	227.23
846.60	227.26
846.91	227.24
847.22	227.23
847.54	227.23
847.85	227.20
848.16	227.16
848.48	227.14
848.79	227.18
849.10	227.18
849.42	227.18
849.73	227.07
850.04	227.08
850.36	227.05
850.67	227.06
850.98	227.05
851.30	227.08
851.61	227.09
851.92	227.11
852.23	227.18
852.55	227.21
852.86	227.22
853.17	227.21
853.49	227.23
853.80	227.28
854.11	227.28
854.42	227.32
854.74	227.29
855.05	227.30
855.36	227.25
855.67	227.26
855.99	227.30
856.30	227.46
856.61	227.43
856.92	227.45
857.23	227.48
857.55	227.48
857.86	227.47
858.17	227.52
858.48	227.51
858.79	227.50
859.11	227.56
859.42	227.56
859.73	227.59
860.04	227.62
860.35	227.56
860.66	227.58
860.98	227.57
861.29	227.62
861.60	227.64
861.91	227.67
862.22	227.68
862.53	227.65
862.84	227.55
863.16	227.63
863.47	227.65
863.78	227.66
864.09	227.69
864.40	227.72
864.71	227.68
865.02	227.70
865.33	227.67
865.64	227.65
865.95	227.64
866.27	227.67
866.58	227.65
866.89	227.68
867.20	227.67
867.51	227.67
867.82	227.63
868.13	227.66
868.44	227.65
868.75	227.69
869.06	227.72
869.37	227.72
869.68	227.67
869.99	227.67
870.30	227.67
870.61	227.67
870.92	227.64
871.23	227.67
871.54	227.67
871.85	227.69
872.16	227.66
872.47	227.68
872.78	227.63
873.09	227.65
873.40	227.65
873.71	227.64
874.02	227.63
874.33	227.62
874.64	227.57
874.95	227.58
875.26	227.54
875.56	227.49
875.87	227.48
876.18	227.47
876.49	227.55
876.80	227.49
877.11	227.46
877.42	227.46
877.73	227.45
878.04	227.41
878.35	227.39
878.66	227.37
878.96	227.34
879.27	227.34
879.58	227.35
879.89	227.32
880.20	227.36
880.51	227.31
880.82	227.34
881.12	227.32
881.43	227.28
881.74	227.29
882.05	227.30
882.36	227.27
882.67	227.28
882.97	227.19
883.28	227.21
883.59	227.19
883.90	227.20
884.21	227.19
884.51	227.17
884.82	227.17
885.13	227.21
885.44	227.20
885.74	227.21
886.05	227.16
886.36	227.18
886.67	227.12
886.98	227.17
887.28	227.13
887.59	227.14
887.90	227.15
888.20	227.14
888.51	227.12
888.82	227.10
889.13	227.09
889.43	227.13
889.74	227.12
890.05	227.13
890.35	227.12
890.66	227.09
890.97	227.10
891.28	227.08
891.58	227.05
891.89	227.07
892.20	227.05
892.50	227.04
892.81	227.02
893.12	227.02
893.42	227.00
893.73	227.04
894.04	227.03
894.34	227.03
894.65	227.03
894.95	227.06
895.26	227.09
895.57	227.13
895.87	227.04
896.18	227.08
896.48	227.09
896.79	227.09
897.10	227.12
897.40	227.14
897.71	227.17
898.01	227.19
898.32	227.16
898.63	227.17
898.93	227.19
899.24	227.20
899.54	227.20
899.85	227.22
900.15	227.19
900.46	227.24
900.76	227.26
901.07	227.21
901.38	227.22
901.68	227.24
901.99	227.19
902.29	227.21
902.60	227.18
902.90	227.17
903.21	227.15
903.51	227.15
903.82	227.15
904.12	227.15
904.43	227.13
904.73	227.17
905.03	227.16
905.34	227.25
905.64	227.23
905.95	227.28
906.25	227.28
906.56	227.33
906.86	227.28
907.17	227.26
907.47	227.30
907.77	227.27
908.08	227.21
908.38	227.25
908.69	227.27
908.99	227.29
909.30	227.28
909.60	227.30
909.90	227.28
910.21	227.29
910.51	227.27
910.81	227.26
911.12	227.27
911.42	227.29
911.73	227.16
912.03	227.16
912.33	227.14
912.64	227.11
912.94	227.08
913.24	227.09
913.55	227.06
913.85	227.06
914.15	227.06
914.46	227.10
914.76	227.05
915.06	227.03
915.37	226.99
915.67	226.98
915.97	226.93
916.27	226.94
916.58	226.90
916.88	226.91
917.18	226.88
917.49	226.92
917.79	226.90
918.09	226.91
918.39	226.95
918.70	226.95
919.00	226.95
919.30	226.96
919.60	226.92
919.91	226.90
920.21	226.87
920.51	226.84
920.81	226.81
921.12	226.84
921.42	226.82
921.72	226.83
922.02	226.85
922.32	226.88
922.63	226.85
922.93	226.90
923.23	226.91
923.53	226.93
923.83	226.87
924.13	226.86
924.44	226.86
924.74	226.85
925.04	226.83
925.34	226.83
925.64	226.79
925.94	226.78
926.24	226.84
926.55	226.85
926.85	226.86
927.15	226.85
927.45	226.82
927.75	226.80
928.05	226.79
928.35	226.79
928.65	226.81
928.95	226.81
929.26	226.75
929.56	226.72
929.86	226.78
930.16	226.75
930.46	226.71
930.76	226.72
931.06	226.67
931.36	226.66
931.66	226.66
931.96	226.67
932.26	226.71
932.56	226.65
932.86	226.68
933.16	226.67
933.46	226.67
933.76	226.67
934.06	226.73
934.36	226.76
934.66	226.74
934.96	226.73
935.26	226.77
935.56	226.80
935.86	226.78
936.16	226.71
936.46	226.71
936.76	226.72
937.06	226.72
937.36	226.76
937.66	226.77
937.96	226.75
938.26	226.74
938.56	226.74
938.86	226.73
939.16	226.75
939.46	226.77
939.76	226.80
940.06	226.81
940.35	226.74
940.65	226.72
940.95	226.72
941.25	226.71
941.55	226.69
941.85	226.71
942.15	226.76
942.45	226.83
942.75	226.87
943.04	226.86
943.34	226.85
943.64	226.86
943.94	226.87
944.24	226.89
944.54	226.93
944.84	226.89
945.13	226.95
945.43	226.91
945.73	226.90
946.03	226.89
946.33	226.91
946.62	226.94
946.92	226.96
947.22	227.01
947.52	227.02
947.82	227.03
948.11	227.01
948.41	226.99
948.71	226.94
949.01	226.95
949.31	226.99
949.60	226.99
949.90	226.99
950.20	226.98
950.50	226.95
950.79	226.95
951.09	226.99
951.39	227.00
951.69	227.01
951.98	227.06
952.28	227.07
952.58	227.05
952.87	227.05
953.17	227.02
953.47	226.97
953.76	226.99
954.06	226.95
954.36	226.97
954.66	226.93
954.95	226.97
955.25	226.96
955.55	226.96
955.84	226.94
956.14	226.94
956.44	226.93
956.73	226.91
957.03	226.91
957.32	226.90
957.62	226.88
957.92	226.90
958.21	226.86
958.51	226.94
958.81	226.94
959.10	226.95
959.40	226.96
959.69	226.96
959.99	226.94
960.29	226.95
960.58	226.91
960.88	226.98
961.17	226.95
961.47	226.93
961.76	226.90
962.06	226.91
962.36	226.89
962.65	226.89
962.95	226.89
963.24	226.86
963.54	226.88
963.83	226.86
964.13	226.79
964.42	226.80
964.72	226.72
965.01	226.73
965.31	226.72
965.60	226.71
965.90	226.77
966.19	226.74
966.49	226.74
966.78	226.75
967.08	226.75
967.37	226.75
967.67	226.74
967.96	226.78
968.26	226.77
968.55	226.78
968.85	226.80
969.14	226.82
969.43	226.84
969.73	226.80
970.02	226.79
970.32	226.81
970.61	226.79
970.91	226.76
971.20	226.73
971.49	226.72
971.79	226.72
972.08	226.67
972.38	226.68
972.67	226.65
972.96	226.64
973.26	226.60
973.55	226.61
973.85	226.57
974.14	226.57
974.43	226.59
974.73	226.58
975.02	226.59
975.31	226.58
975.61	226.58
975.90	226.58
976.19	226.56
976.49	226.59
976.78	226.61
977.07	226.63
977.37	226.66
977.66	226.65
977.95	226.62
978.24	226.64
978.54	226.65
978.83	226.66
979.12	226.66
979.42	226.69
979.71	226.68
980.00	226.71
980.29	226.71
980.59	226.70
980.88	226.73
981.17	226.74
981.46	226.74
981.76	226.74
982.05	226.80
982.34	226.84
982.63	226.83
982.93	226.84
983.22	226.86
983.51	226.87
983.80	226.92
984.09	226.97
984.39	226.93
984.68	226.93
984.97	226.97
985.26	227.00
985.55	227.02
985.85	227.03
986.14	227.04
986.43	227.06
986.72	227.05
987.01	227.02
987.30	227.01
987.59	227.03
987.89	227.05
988.18	227.02
988.47	226.99
988.76	227.00
989.05	226.98
989.34	226.98
989.63	227.00
989.92	227.00
990.22	226.99
990.51	227.02
990.80	227.03
991.09	227.01
991.38	227.03
991.67	227.02
991.96	227.01
992.25	227.03
992.54	227.00
992.83	227.00
993.12	226.98
993.41	227.01
993.70	227.04
993.99	227.06
994.28	227.06
994.58	227.06
994.87	227.03
995.16	227.01
995.45	226.98
995.74	226.94
996.03	226.95
996.32	226.95
996.61	226.93
996.90	226.93
997.19	226.94
997.48	226.92
997.77	226.89
998.06	226.84
998.34	226.81
998.63	226.81
998.92	226.81
999.21	226.86
999.50	226.84
999.79	226.81
1000.08	226.79
1000.37	226.80
1000.66	226.81
1000.95	226.84
1001.24	226.88
1001.53	226.88
1001.82	226.90
1002.11	226.87
1002.40	226.84
1002.68	226.88
1002.97	226.92
1003.26	226.88
1003.55	226.87
1003.84	226.86
1004.13	226.92
1004.42	226.94
1004.71	226.95
1004.99	226.94
1005.28	226.96
1005.57	226.96
1005.86	226.93
1006.15	226.92
1006.44	226.90
1006.72	226.92
1007.01	226.91
1007.30	226.90
1007.59	226.88
1007.88	226.85
1008.17	226.83
1008.45	226.82
1008.74	226.77
1009.03	226.72
1009.32	226.73
1009.60	226.74
1009.89	226.75
1010.18	226.70
1010.47	226.68
1010.76	226.68
1011.04	226.65
1011.33	226.62
1011.62	226.60
1011.91	226.61
1012.19	226.60
1012.48	226.58
1012.77	226.55
1013.05	226.59
1013.34	226.60
1013.63	226.61
1013.92	226.63
1014.20	226.67
1014.49	226.70
1014.78	226.71
1015.06	226.67
1015.35	226.66
1015.64	226.66
1015.92	226.69
1016.21	226.68
1016.50	226.67
1016.78	226.69
1017.07	226.71
1017.36	226.72
1017.64	226.74
1017.93	226.77
1018.22	226.74
1018.50	226.75
1018.79	226.75
1019.08	226.71
1019.36	226.71
1019.65	226.72
1019.93	226.74
1020.22	226.75
1020.51	226.80
1020.79	226.82
1021.08	226.11
1021.36	226.72
1021.65	226.53
1021.94	226.98
1022.22	227.07
1022.51	227.01
1022.79	226.95
1023.08	227.29
1023.36	228.05
1023.65	227.02
>>>>>End Processed Spectral Data<<<<<
