SpectraSuite Data File
++++++++++++++++++++++++++++++++++++
Date: Fri Feb 01 15:10:22 EST 2013
User: group
Dark Spectrum Present: No
Reference Spectrum Present: No
Number of Sampled Component Spectra: 1
Spectrometers: USB2E7196
Integration Time (usec): 35000 (USB2E7196)
Spectra Averaged: 100 (USB2E7196)
Boxcar Smoothing: 10 (USB2E7196)
Correct for Electrical Dark: No (USB2E7196)
Strobe/Lamp Enabled: No (USB2E7196)
Correct for Detector Non-linearity: No (USB2E7196)
Correct for Stray Light: No (USB2E7196)
Number of Pixels in Processed Spectrum: 2048
>>>>>Begin Processed Spectral Data<<<<<
339.09	0.00
339.48	215.60
339.86	216.71
340.24	217.86
340.63	219.46
341.01	222.56
341.39	221.89
341.78	223.45
342.16	224.04
342.54	225.02
342.93	213.48
343.31	224.30
343.69	224.83
344.07	225.25
344.46	225.72
344.84	226.07
345.22	226.28
345.60	226.52
345.99	226.71
346.37	226.86
346.75	226.94
347.13	227.01
347.52	227.12
347.90	227.19
348.28	227.21
348.66	227.28
349.05	227.26
349.43	227.33
349.81	227.36
350.19	227.41
350.57	227.52
350.96	227.59
351.34	227.64
351.72	227.72
352.10	227.83
352.48	227.89
352.87	227.98
353.25	228.05
353.63	228.12
354.01	228.20
354.39	228.30
354.77	228.42
355.15	228.51
355.54	228.57
355.92	228.61
356.30	228.68
356.68	228.82
357.06	228.91
357.44	228.94
357.82	229.04
358.20	229.11
358.58	229.17
358.97	229.22
359.35	229.32
359.73	229.38
360.11	229.46
360.49	229.47
360.87	229.56
361.25	229.62
361.63	229.70
362.01	229.73
362.39	229.73
362.77	229.76
363.15	229.80
363.53	229.80
363.91	229.84
364.29	229.87
364.67	229.75
365.05	229.77
365.43	229.77
365.81	229.78
366.19	229.81
366.57	229.82
366.95	229.83
367.33	229.77
367.71	229.75
368.09	229.74
368.47	229.72
368.85	229.65
369.23	229.64
369.61	229.56
369.99	229.54
370.37	229.53
370.75	229.50
371.13	229.40
371.51	229.34
371.89	229.32
372.27	229.25
372.65	229.20
373.03	229.12
373.41	229.10
373.78	229.01
374.16	228.88
374.54	228.75
374.92	228.69
375.30	228.61
375.68	228.53
376.06	228.47
376.44	228.38
376.82	228.33
377.19	228.21
377.57	228.15
377.95	228.07
378.33	227.96
378.71	227.88
379.09	227.83
379.47	227.74
379.84	227.59
380.22	227.49
380.60	227.41
380.98	227.32
381.36	227.21
381.73	227.14
382.11	227.09
382.49	227.04
382.87	226.94
383.25	226.90
383.62	226.92
384.00	226.85
384.38	226.77
384.76	226.70
385.13	226.72
385.51	226.67
385.89	226.58
386.27	226.56
386.64	226.49
387.02	226.42
387.40	226.41
387.78	226.39
388.15	226.38
388.53	226.32
388.91	226.29
389.29	226.28
389.66	226.26
390.04	226.21
390.42	226.21
390.79	226.19
391.17	226.16
391.55	226.07
391.92	226.04
392.30	226.06
392.68	226.05
393.05	226.02
393.43	226.03
393.81	226.03
394.18	226.03
394.56	226.08
394.94	226.12
395.31	226.12
395.69	226.19
396.06	226.24
396.44	226.31
396.82	226.35
397.19	226.44
397.57	226.49
397.95	226.55
398.32	226.57
398.70	226.62
399.07	226.73
399.45	226.83
399.82	226.89
400.20	226.98
400.58	227.08
400.95	227.16
401.33	227.29
401.70	227.47
402.08	227.56
402.45	227.65
402.83	227.78
403.20	227.91
403.58	227.99
403.95	228.10
404.33	228.28
404.71	228.40
405.08	228.59
405.46	228.73
405.83	228.90
406.21	229.09
406.58	229.27
406.96	229.42
407.33	229.59
407.70	229.82
408.08	230.07
408.45	230.27
408.83	230.49
409.20	230.71
409.58	230.93
409.95	231.24
410.33	231.52
410.70	231.78
411.08	232.10
411.45	232.46
411.82	232.79
412.20	233.09
412.57	233.55
412.95	233.85
413.32	234.29
413.69	234.70
414.07	235.15
414.44	235.64
414.82	236.13
415.19	236.68
415.56	237.23
415.94	237.80
416.31	238.44
416.68	239.07
417.06	239.78
417.43	240.43
417.81	241.19
418.18	241.95
418.55	242.80
418.93	243.64
419.30	244.51
419.67	245.47
420.04	246.44
420.42	247.42
420.79	248.58
421.16	249.72
421.54	250.93
421.91	252.14
422.28	253.42
422.66	254.75
423.03	256.04
423.40	257.37
423.77	258.76
424.15	260.21
424.52	261.66
424.89	263.24
425.26	264.79
425.64	266.22
426.01	267.84
426.38	269.51
426.75	271.20
427.13	272.90
427.50	274.71
427.87	276.59
428.24	278.44
428.61	280.21
428.99	282.13
429.36	284.19
429.73	286.26
430.10	288.24
430.47	290.25
430.85	292.41
431.22	294.66
431.59	297.09
431.96	299.30
432.33	301.83
432.70	304.24
433.08	307.08
433.45	309.75
433.82	312.37
434.19	315.23
434.56	318.05
434.93	320.73
435.30	323.35
435.68	326.28
436.05	329.13
436.42	331.93
436.79	334.47
437.16	337.25
437.53	340.07
437.90	342.90
438.27	345.68
438.64	348.49
439.01	351.04
439.38	353.23
439.75	355.45
440.13	357.95
440.50	360.26
440.87	362.08
441.24	364.04
441.61	366.20
441.98	367.69
442.35	369.47
442.72	371.31
443.09	373.10
443.46	374.05
443.83	374.66
444.20	375.17
444.57	375.99
444.94	376.25
445.31	376.59
445.68	376.98
446.05	377.06
446.42	376.71
446.79	376.31
447.16	375.88
447.53	375.54
447.90	374.40
448.27	373.30
448.64	371.74
449.01	370.59
449.37	368.63
449.74	366.73
450.11	364.48
450.48	362.02
450.85	359.52
451.22	357.40
451.59	355.35
451.96	353.42
452.33	350.85
452.70	348.50
453.07	345.64
453.43	342.71
453.80	339.96
454.17	337.29
454.54	334.76
454.91	332.01
455.28	329.30
455.65	326.82
456.02	324.35
456.38	322.20
456.75	319.50
457.12	317.25
457.49	315.02
457.86	312.92
458.23	311.07
458.59	309.04
458.96	306.96
459.33	305.13
459.70	303.25
460.07	301.68
460.43	299.92
460.80	298.32
461.17	296.91
461.54	295.39
461.91	293.94
462.27	292.47
462.64	291.26
463.01	289.93
463.38	288.60
463.74	287.22
464.11	286.02
464.48	284.99
464.85	283.86
465.21	282.98
465.58	282.03
465.95	280.90
466.32	279.98
466.68	279.05
467.05	278.10
467.42	277.19
467.78	276.29
468.15	275.44
468.52	274.75
468.88	273.83
469.25	273.07
469.62	272.45
469.98	271.77
470.35	271.11
470.72	270.47
471.08	269.80
471.45	269.25
471.82	268.69
472.18	268.07
472.55	267.63
472.92	267.07
473.28	266.57
473.65	266.08
474.02	265.61
474.38	265.21
474.75	264.87
475.11	264.48
475.48	264.19
475.85	263.94
476.21	263.72
476.58	263.51
476.94	263.35
477.31	263.13
477.67	262.93
478.04	262.81
478.41	262.74
478.77	262.76
479.14	262.67
479.50	262.66
479.87	262.73
480.23	262.79
480.60	262.85
480.96	262.91
481.33	263.13
481.69	263.32
482.06	263.54
482.42	263.76
482.79	264.02
483.15	264.31
483.52	264.65
483.88	264.99
484.25	265.40
484.61	265.79
484.98	266.24
485.34	266.82
485.71	267.41
486.07	268.02
486.44	268.58
486.80	269.31
487.17	270.05
487.53	270.87
487.90	271.72
488.26	272.67
488.62	273.68
488.99	274.68
489.35	275.73
489.72	276.85
490.08	278.02
490.44	279.30
490.81	280.66
491.17	282.02
491.54	283.46
491.90	285.00
492.26	286.68
492.63	288.47
492.99	290.27
493.36	292.13
493.72	294.17
494.08	296.26
494.45	298.50
494.81	300.85
495.17	303.30
495.54	305.89
495.90	308.58
496.26	311.38
496.63	314.35
496.99	317.45
497.35	320.65
497.72	324.05
498.08	327.54
498.44	331.17
498.80	335.12
499.17	339.19
499.53	343.42
499.89	347.74
500.26	352.21
500.62	356.87
500.98	361.86
501.34	366.89
501.71	372.22
502.07	377.59
502.43	383.18
502.79	388.95
503.16	394.96
503.52	401.21
503.88	407.60
504.24	414.24
504.60	421.11
504.97	428.29
505.33	435.62
505.69	443.28
506.05	451.01
506.41	458.87
506.78	467.07
507.14	475.46
507.50	484.21
507.86	493.23
508.22	502.39
508.59	511.53
508.95	521.17
509.31	530.99
509.67	541.13
510.03	551.45
510.39	562.06
510.75	572.90
511.12	583.86
511.48	595.16
511.84	606.51
512.20	618.05
512.56	629.97
512.92	642.13
513.28	654.48
513.64	666.98
514.00	679.66
514.37	692.53
514.73	705.62
515.09	718.65
515.45	731.85
515.81	745.34
516.17	759.39
516.53	773.46
516.89	787.62
517.25	801.74
517.61	816.17
517.97	830.60
518.33	845.09
518.69	859.92
519.05	874.99
519.41	890.21
519.77	905.77
520.13	921.21
520.49	936.67
520.85	952.14
521.21	967.91
521.57	984.13
521.93	999.94
522.29	1016.39
522.65	1032.66
523.01	1049.06
523.37	1065.23
523.73	1081.36
524.09	1097.53
524.45	1113.82
524.81	1130.62
525.17	1147.49
525.53	1164.48
525.89	1181.28
526.25	1198.16
526.61	1214.59
526.97	1231.41
527.33	1247.92
527.68	1264.64
528.04	1281.13
528.40	1297.78
528.76	1314.89
529.12	1331.64
529.48	1348.50
529.84	1364.50
530.20	1381.17
530.56	1398.13
530.91	1415.72
531.27	1432.63
531.63	1449.22
531.99	1465.99
532.35	1481.94
532.71	1497.84
533.07	1514.14
533.42	1530.22
533.78	1546.38
534.14	1562.66
534.50	1578.01
534.86	1593.98
535.21	1609.24
535.57	1625.31
535.93	1640.95
536.29	1655.84
536.65	1671.05
537.00	1686.01
537.36	1701.58
537.72	1716.34
538.08	1730.91
538.44	1744.65
538.79	1758.70
539.15	1772.54
539.51	1786.36
539.87	1800.86
540.22	1814.80
540.58	1828.66
540.94	1842.11
541.29	1855.00
541.65	1867.86
542.01	1881.29
542.37	1893.69
542.72	1906.13
543.08	1917.88
543.44	1930.32
543.79	1941.75
544.15	1952.78
544.51	1964.39
544.87	1975.44
545.22	1986.20
545.58	1996.44
545.94	2006.31
546.29	2016.23
546.65	2025.94
547.01	2035.13
547.36	2043.98
547.72	2052.42
548.07	2060.28
548.43	2068.52
548.79	2076.60
549.14	2084.05
549.50	2091.44
549.86	2099.18
550.21	2106.63
550.57	2113.81
550.92	2120.28
551.28	2127.22
551.64	2134.29
551.99	2140.84
552.35	2146.84
552.70	2153.11
553.06	2159.12
553.41	2165.51
553.77	2171.49
554.13	2177.71
554.48	2183.88
554.84	2189.24
555.19	2194.54
555.55	2199.79
555.90	2204.18
556.26	2208.83
556.61	2213.69
556.97	2217.76
557.32	2221.79
557.68	2225.88
558.03	2230.25
558.39	2234.00
558.74	2238.57
559.10	2242.23
559.45	2245.83
559.81	2250.19
560.16	2253.82
560.52	2257.00
560.87	2260.29
561.23	2262.90
561.58	2265.70
561.94	2268.20
562.29	2270.55
562.64	2273.05
563.00	2275.59
563.35	2279.12
563.71	2282.29
564.06	2285.23
564.42	2288.15
564.77	2290.54
565.12	2292.62
565.48	2294.34
565.83	2296.06
566.19	2297.37
566.54	2298.40
566.89	2299.48
567.25	2299.82
567.60	2301.12
567.96	2302.86
568.31	2303.55
568.66	2304.50
569.02	2304.94
569.37	2305.22
569.72	2306.01
570.08	2306.15
570.43	2306.02
570.78	2305.13
571.14	2303.55
571.49	2302.26
571.84	2301.70
572.20	2300.42
572.55	2299.37
572.90	2297.77
573.26	2296.37
573.61	2294.58
573.96	2292.58
574.31	2289.59
574.67	2286.56
575.02	2282.85
575.37	2279.27
575.72	2275.39
576.08	2271.97
576.43	2268.67
576.78	2264.81
577.13	2261.52
577.49	2258.32
577.84	2254.71
578.19	2251.07
578.54	2247.22
578.90	2242.76
579.25	2237.21
579.60	2232.22
579.95	2227.09
580.30	2221.96
580.66	2216.64
581.01	2211.51
581.36	2206.53
581.71	2202.25
582.06	2197.63
582.42	2192.94
582.77	2187.50
583.12	2182.79
583.47	2177.84
583.82	2172.70
584.17	2167.30
584.53	2161.60
584.88	2155.83
585.23	2149.97
585.58	2144.39
585.93	2139.02
586.28	2134.21
586.63	2128.97
586.98	2123.97
587.34	2119.24
587.69	2114.30
588.04	2108.99
588.39	2103.14
588.74	2096.61
589.09	2090.21
589.44	2083.38
589.79	2077.30
590.14	2071.55
590.49	2064.94
590.84	2058.55
591.19	2052.30
591.54	2045.81
591.89	2038.30
592.25	2031.46
592.60	2024.09
592.95	2016.28
593.30	2008.89
593.65	2001.31
594.00	1994.31
594.35	1986.91
594.70	1978.77
595.05	1971.48
595.40	1964.07
595.75	1956.62
596.10	1950.31
596.45	1943.46
596.80	1937.25
597.15	1930.59
597.50	1923.44
597.85	1917.00
598.19	1910.30
598.54	1903.28
598.89	1896.61
599.24	1890.79
599.59	1883.95
599.94	1877.90
600.29	1871.49
600.64	1864.76
600.99	1857.30
601.34	1850.31
601.69	1843.32
602.04	1836.38
602.39	1828.96
602.74	1822.14
603.08	1815.40
603.43	1808.66
603.78	1801.35
604.13	1794.01
604.48	1786.65
604.83	1779.89
605.18	1772.79
605.53	1764.70
605.87	1756.64
606.22	1749.51
606.57	1741.57
606.92	1734.31
607.27	1727.02
607.62	1720.16
607.96	1712.69
608.31	1705.90
608.66	1698.27
609.01	1690.62
609.36	1683.07
609.70	1675.02
610.05	1666.86
610.40	1659.13
610.75	1650.75
611.10	1643.12
611.44	1634.81
611.79	1626.91
612.14	1618.10
612.49	1609.08
612.83	1600.73
613.18	1592.60
613.53	1584.49
613.88	1575.93
614.22	1567.63
614.57	1559.05
614.92	1550.96
615.27	1543.51
615.61	1535.17
615.96	1527.28
616.31	1519.57
616.65	1512.12
617.00	1504.61
617.35	1496.99
617.70	1488.67
618.04	1480.20
618.39	1471.94
618.74	1464.28
619.08	1455.92
619.43	1448.43
619.78	1441.48
620.12	1434.34
620.47	1426.85
620.82	1418.64
621.16	1411.18
621.51	1403.56
621.85	1395.98
622.20	1387.52
622.55	1379.27
622.89	1371.51
623.24	1363.96
623.59	1356.73
623.93	1349.30
624.28	1342.07
624.62	1334.56
624.97	1327.32
625.32	1320.66
625.66	1313.64
626.01	1306.44
626.35	1299.00
626.70	1291.31
627.04	1283.55
627.39	1275.81
627.73	1268.38
628.08	1261.42
628.43	1254.18
628.77	1246.80
629.12	1239.21
629.46	1231.98
629.81	1224.60
630.15	1217.49
630.50	1210.03
630.84	1201.85
631.19	1193.91
631.53	1186.39
631.88	1178.89
632.22	1171.34
632.57	1164.03
632.91	1156.55
633.26	1149.31
633.60	1142.01
633.95	1135.04
634.29	1128.04
634.64	1121.50
634.98	1114.26
635.32	1107.20
635.67	1100.64
636.01	1094.11
636.36	1087.31
636.70	1080.94
637.05	1074.40
637.39	1067.90
637.73	1061.45
638.08	1055.60
638.42	1049.66
638.77	1043.33
639.11	1036.70
639.45	1030.34
639.80	1023.72
640.14	1017.35
640.49	1010.74
640.83	1004.45
641.17	998.15
641.52	991.91
641.86	985.50
642.20	979.68
642.55	973.36
642.89	966.95
643.23	960.43
643.58	954.63
643.92	948.32
644.26	942.23
644.61	936.22
644.95	930.19
645.29	923.51
645.64	916.79
645.98	910.43
646.32	904.70
646.66	898.77
647.01	892.95
647.35	887.27
647.69	881.43
648.04	875.92
648.38	870.04
648.72	863.99
649.06	857.83
649.41	851.88
649.75	845.84
650.09	839.79
650.43	833.96
650.78	827.80
651.12	821.90
651.46	816.16
651.80	810.40
652.14	804.97
652.49	799.73
652.83	794.58
653.17	788.90
653.51	783.06
653.85	777.62
654.20	771.94
654.54	765.87
654.88	760.22
655.22	754.39
655.56	748.85
655.90	743.36
656.25	738.12
656.59	732.81
656.93	727.78
657.27	722.68
657.61	717.33
657.95	712.22
658.29	707.17
658.64	701.95
658.98	696.69
659.32	691.27
659.66	686.06
660.00	680.73
660.34	675.83
660.68	671.06
661.02	666.09
661.36	661.37
661.70	656.95
662.05	652.60
662.39	648.24
662.73	643.79
663.07	639.51
663.41	635.08
663.75	630.57
664.09	626.11
664.43	621.74
664.77	617.57
665.11	613.47
665.45	609.39
665.79	605.36
666.13	601.20
666.47	597.11
666.81	592.86
667.15	588.75
667.49	584.85
667.83	581.03
668.17	577.05
668.51	573.07
668.85	569.08
669.19	565.26
669.53	561.48
669.87	557.53
670.21	553.89
670.55	550.34
670.89	547.00
671.23	543.54
671.57	540.08
671.91	536.63
672.25	533.13
672.58	529.64
672.92	526.32
673.26	523.22
673.60	520.15
673.94	517.11
674.28	514.29
674.62	511.42
674.96	508.33
675.30	505.52
675.64	502.64
675.97	499.89
676.31	496.97
676.65	494.05
676.99	491.38
677.33	488.53
677.67	485.77
678.01	482.76
678.34	479.77
678.68	476.92
679.02	474.07
679.36	471.35
679.70	468.66
680.04	465.85
680.37	462.97
680.71	460.15
681.05	457.57
681.39	454.87
681.73	452.22
682.06	449.70
682.40	447.12
682.74	444.59
683.08	442.08
683.42	439.56
683.75	437.12
684.09	434.63
684.43	432.16
684.77	429.63
685.10	427.27
685.44	425.02
685.78	422.75
686.12	420.57
686.45	418.26
686.79	415.95
687.13	413.81
687.46	411.64
687.80	409.43
688.14	407.26
688.48	405.22
688.81	402.93
689.15	400.80
689.49	398.71
689.82	396.65
690.16	394.52
690.50	392.59
690.83	390.57
691.17	388.61
691.51	386.67
691.84	384.81
692.18	382.82
692.52	380.84
692.85	378.88
693.19	376.96
693.52	375.16
693.86	373.39
694.20	371.57
694.53	369.81
694.87	368.00
695.21	366.16
695.54	364.33
695.88	362.58
696.21	360.84
696.55	359.10
696.88	357.40
697.22	355.76
697.56	354.13
697.89	352.49
698.23	350.82
698.56	349.19
698.90	347.56
699.23	345.98
699.57	344.42
699.90	342.90
700.24	341.31
700.58	339.76
700.91	338.21
701.25	336.77
701.58	335.38
701.92	334.01
702.25	332.63
702.59	331.21
702.92	329.92
703.26	328.60
703.59	327.35
703.93	326.15
704.26	324.94
704.60	323.63
704.93	322.39
705.26	321.20
705.60	320.04
705.93	318.99
706.27	317.94
706.60	316.93
706.94	315.87
707.27	314.80
707.61	313.71
707.94	312.71
708.27	311.63
708.61	310.55
708.94	309.54
709.28	308.55
709.61	307.63
709.94	306.74
710.28	305.75
710.61	304.77
710.95	303.70
711.28	302.78
711.61	301.81
711.95	300.90
712.28	299.90
712.61	298.93
712.95	298.00
713.28	297.13
713.61	296.21
713.95	295.31
714.28	294.46
714.61	293.59
714.95	292.74
715.28	291.88
715.61	291.06
715.95	290.23
716.28	289.40
716.61	288.59
716.95	287.70
717.28	287.00
717.61	286.24
717.94	285.53
718.28	284.74
718.61	284.07
718.94	283.37
719.27	282.79
719.61	282.13
719.94	281.45
720.27	280.75
720.60	280.12
720.94	279.49
721.27	278.89
721.60	278.38
721.93	277.82
722.27	277.30
722.60	276.72
722.93	276.18
723.26	275.66
723.59	275.12
723.93	274.60
724.26	274.05
724.59	273.49
724.92	272.95
725.25	272.45
725.59	271.95
725.92	271.43
726.25	270.90
726.58	270.46
726.91	269.96
727.24	269.50
727.57	269.03
727.91	268.56
728.24	268.10
728.57	267.62
728.90	267.16
729.23	266.70
729.56	266.28
729.89	265.83
730.22	265.35
730.55	264.88
730.89	264.46
731.22	264.00
731.55	263.58
731.88	263.20
732.21	262.77
732.54	262.32
732.87	261.88
733.20	261.46
733.53	261.01
733.86	260.60
734.19	260.18
734.52	259.79
734.85	259.46
735.18	259.02
735.51	258.66
735.84	258.28
736.17	257.92
736.50	257.49
736.83	257.24
737.16	256.91
737.49	256.60
737.82	256.21
738.15	255.85
738.48	255.49
738.81	255.13
739.14	254.78
739.47	254.46
739.80	254.15
740.13	253.84
740.46	253.51
740.79	253.23
741.12	252.90
741.45	252.56
741.78	252.16
742.11	251.91
742.44	251.54
742.77	251.23
743.10	250.87
743.43	250.61
743.75	250.21
744.08	250.04
744.41	249.73
744.74	249.46
745.07	249.16
745.40	248.96
745.73	248.71
746.06	248.48
746.39	248.21
746.71	247.92
747.04	247.65
747.37	247.43
747.70	247.16
748.03	246.91
748.36	246.72
748.68	246.53
749.01	246.25
749.34	246.00
749.67	245.75
750.00	245.51
750.33	245.32
750.65	245.11
750.98	244.77
751.31	244.55
751.64	244.37
751.97	244.20
752.29	243.97
752.62	243.73
752.95	243.51
753.28	243.30
753.60	243.13
753.93	242.96
754.26	242.73
754.59	242.48
754.91	242.27
755.24	242.09
755.57	241.92
755.90	241.76
756.22	241.60
756.55	241.43
756.88	241.27
757.20	241.06
757.53	240.87
757.86	240.70
758.19	240.57
758.51	240.40
758.84	240.24
759.17	240.07
759.49	239.92
759.82	239.82
760.15	239.68
760.47	239.55
760.80	239.40
761.13	239.28
761.45	239.20
761.78	239.08
762.11	238.92
762.43	238.73
762.76	238.62
763.08	238.52
763.41	238.40
763.74	238.28
764.06	238.14
764.39	237.99
764.71	237.85
765.04	237.71
765.37	237.56
765.69	237.42
766.02	237.31
766.34	237.17
766.67	237.04
767.00	236.93
767.32	236.84
767.65	236.78
767.97	236.68
768.30	236.54
768.62	236.42
768.95	236.30
769.27	236.19
769.60	236.10
769.92	235.97
770.25	235.85
770.57	235.75
770.90	235.64
771.22	235.56
771.55	235.47
771.87	235.37
772.20	235.28
772.52	235.25
772.85	235.25
773.17	235.14
773.50	235.02
773.82	234.89
774.15	234.76
774.47	234.62
774.80	234.49
775.12	234.39
775.45	234.28
775.77	234.19
776.09	234.14
776.42	234.04
776.74	234.00
777.07	233.92
777.39	233.82
777.72	233.75
778.04	233.69
778.36	233.62
778.69	233.51
779.01	233.47
779.33	233.32
779.66	233.13
779.98	233.09
780.31	232.97
780.63	232.95
780.95	232.88
781.28	232.81
781.60	232.75
781.92	232.66
782.25	232.65
782.57	232.57
782.89	232.48
783.22	232.39
783.54	232.27
783.86	232.16
784.19	232.12
784.51	232.07
784.83	232.01
785.16	231.94
785.48	231.89
785.80	231.82
786.12	231.77
786.45	231.71
786.77	231.65
787.09	231.62
787.42	231.55
787.74	231.49
788.06	231.41
788.38	231.37
788.71	231.33
789.03	231.27
789.35	231.25
789.67	231.25
789.99	231.22
790.32	231.18
790.64	231.20
790.96	231.21
791.28	231.12
791.61	231.07
791.93	231.07
792.25	231.05
792.57	231.10
792.89	231.08
793.21	231.04
793.54	231.00
793.86	230.97
794.18	230.97
794.50	230.93
794.82	230.91
795.14	230.88
795.47	230.90
795.79	230.88
796.11	230.84
796.43	230.77
796.75	230.75
797.07	230.74
797.39	230.67
797.71	230.61
798.04	230.64
798.36	230.64
798.68	230.60
799.00	230.60
799.32	230.50
799.64	230.48
799.96	230.48
800.28	230.50
800.60	230.48
800.92	230.46
801.24	230.47
801.56	230.48
801.89	230.47
802.21	230.43
802.53	230.39
802.85	230.39
803.17	230.46
803.49	230.43
803.81	230.41
804.13	230.38
804.45	230.34
804.77	230.32
805.09	230.31
805.41	230.25
805.73	230.19
806.05	230.14
806.37	230.10
806.69	230.07
807.01	230.07
807.33	230.05
807.65	230.00
807.97	229.99
808.28	229.95
808.60	229.91
808.92	229.90
809.24	229.94
809.56	229.90
809.88	229.82
810.20	229.81
810.52	229.81
810.84	229.77
811.16	229.73
811.48	229.68
811.80	229.67
812.12	229.67
812.43	229.67
812.75	229.66
813.07	229.66
813.39	229.62
813.71	229.53
814.03	229.49
814.35	229.46
814.67	229.41
814.98	229.34
815.30	229.31
815.62	229.24
815.94	229.14
816.26	229.17
816.58	229.10
816.89	229.09
817.21	229.02
817.53	228.99
817.85	228.98
818.17	228.96
818.48	228.89
818.80	228.85
819.12	228.79
819.44	228.72
819.76	228.69
820.07	228.68
820.39	228.65
820.71	228.60
821.03	228.56
821.34	228.52
821.66	228.54
821.98	228.58
822.30	228.55
822.61	228.59
822.93	228.48
823.25	228.48
823.57	228.41
823.88	228.41
824.20	228.40
824.52	228.39
824.83	228.36
825.15	228.34
825.47	228.32
825.79	228.36
826.10	228.37
826.42	228.34
826.74	228.34
827.05	228.30
827.37	228.32
827.69	228.31
828.00	228.28
828.32	228.25
828.64	228.20
828.95	228.25
829.27	228.22
829.58	228.22
829.90	228.22
830.22	228.23
830.53	228.21
830.85	228.22
831.17	228.17
831.48	228.16
831.80	228.16
832.11	228.16
832.43	228.11
832.75	228.12
833.06	228.17
833.38	228.15
833.69	228.15
834.01	228.15
834.32	228.13
834.64	228.14
834.96	228.17
835.27	228.15
835.59	228.13
835.90	228.11
836.22	228.13
836.53	228.10
836.85	228.09
837.16	228.18
837.48	228.18
837.79	228.24
838.11	228.23
838.42	228.24
838.74	228.26
839.05	228.25
839.37	228.23
839.68	228.21
840.00	228.19
840.31	228.22
840.63	228.21
840.94	228.21
841.26	228.19
841.57	228.19
841.88	228.23
842.20	228.20
842.51	228.19
842.83	228.18
843.14	228.27
843.46	228.30
843.77	228.26
844.08	228.22
844.40	228.14
844.71	228.14
845.03	228.14
845.34	228.12
845.65	228.10
845.97	228.10
846.28	228.09
846.60	228.09
846.91	228.12
847.22	228.12
847.54	228.12
847.85	228.12
848.16	228.12
848.48	228.09
848.79	228.11
849.10	228.12
849.42	228.11
849.73	228.02
850.04	227.98
850.36	227.93
850.67	227.97
850.98	227.98
851.30	227.99
851.61	227.96
851.92	227.92
852.23	227.96
852.55	227.96
852.86	227.93
853.17	227.94
853.49	227.95
853.80	227.94
854.11	227.95
854.42	227.96
854.74	227.93
855.05	227.89
855.36	227.86
855.67	227.85
855.99	227.82
856.30	227.92
856.61	227.94
856.92	227.92
857.23	227.90
857.55	227.89
857.86	227.87
858.17	227.86
858.48	227.85
858.79	227.82
859.11	227.81
859.42	227.81
859.73	227.76
860.04	227.73
860.35	227.73
860.66	227.69
860.98	227.70
861.29	227.68
861.60	227.66
861.91	227.65
862.22	227.65
862.53	227.65
862.84	227.55
863.16	227.56
863.47	227.54
863.78	227.51
864.09	227.50
864.40	227.49
864.71	227.48
865.02	227.50
865.33	227.49
865.64	227.48
865.95	227.48
866.27	227.55
866.58	227.52
866.89	227.53
867.20	227.50
867.51	227.49
867.82	227.47
868.13	227.53
868.44	227.53
868.75	227.53
869.06	227.54
869.37	227.55
869.68	227.49
869.99	227.53
870.30	227.56
870.61	227.59
870.92	227.59
871.23	227.60
871.54	227.63
871.85	227.66
872.16	227.67
872.47	227.66
872.78	227.58
873.09	227.61
873.40	227.60
873.71	227.66
874.02	227.67
874.33	227.69
874.64	227.68
874.95	227.68
875.26	227.68
875.56	227.64
875.87	227.61
876.18	227.64
876.49	227.75
876.80	227.73
877.11	227.70
877.42	227.70
877.73	227.70
878.04	227.69
878.35	227.68
878.66	227.70
878.96	227.72
879.27	227.71
879.58	227.73
879.89	227.72
880.20	227.74
880.51	227.74
880.82	227.75
881.12	227.73
881.43	227.70
881.74	227.67
882.05	227.70
882.36	227.70
882.67	227.71
882.97	227.60
883.28	227.59
883.59	227.59
883.90	227.60
884.21	227.64
884.51	227.60
884.82	227.60
885.13	227.59
885.44	227.58
885.74	227.59
886.05	227.56
886.36	227.55
886.67	227.50
886.98	227.50
887.28	227.49
887.59	227.47
887.90	227.49
888.20	227.49
888.51	227.50
888.82	227.48
889.13	227.48
889.43	227.55
889.74	227.54
890.05	227.50
890.35	227.49
890.66	227.47
890.97	227.46
891.28	227.40
891.58	227.38
891.89	227.38
892.20	227.38
892.50	227.32
892.81	227.31
893.12	227.30
893.42	227.28
893.73	227.25
894.04	227.26
894.34	227.26
894.65	227.24
894.95	227.22
895.26	227.24
895.57	227.25
895.87	227.14
896.18	227.16
896.48	227.21
896.79	227.16
897.10	227.17
897.40	227.14
897.71	227.21
898.01	227.17
898.32	227.14
898.63	227.13
898.93	227.18
899.24	227.16
899.54	227.16
899.85	227.17
900.15	227.18
900.46	227.15
900.76	227.14
901.07	227.13
901.38	227.10
901.68	227.07
901.99	227.03
902.29	227.03
902.60	227.03
902.90	226.99
903.21	227.00
903.51	226.98
903.82	226.98
904.12	226.95
904.43	226.96
904.73	226.96
905.03	226.95
905.34	227.06
905.64	227.03
905.95	227.03
906.25	227.00
906.56	226.99
906.86	227.00
907.17	226.98
907.47	227.02
907.77	227.02
908.08	227.03
908.38	227.05
908.69	227.08
908.99	227.06
909.30	227.06
909.60	227.07
909.90	227.08
910.21	227.10
910.51	227.10
910.81	227.13
911.12	227.16
911.42	227.15
911.73	227.02
912.03	227.06
912.33	227.09
912.64	227.12
912.94	227.13
913.24	227.13
913.55	227.14
913.85	227.13
914.15	227.17
914.46	227.20
914.76	227.20
915.06	227.20
915.37	227.19
915.67	227.19
915.97	227.22
916.27	227.23
916.58	227.25
916.88	227.23
917.18	227.23
917.49	227.29
917.79	227.29
918.09	227.30
918.39	227.33
918.70	227.32
919.00	227.32
919.30	227.39
919.60	227.41
919.91	227.41
920.21	227.45
920.51	227.41
920.81	227.39
921.12	227.41
921.42	227.39
921.72	227.41
922.02	227.43
922.32	227.44
922.63	227.45
922.93	227.49
923.23	227.49
923.53	227.47
923.83	227.40
924.13	227.44
924.44	227.44
924.74	227.44
925.04	227.47
925.34	227.45
925.64	227.39
925.94	227.37
926.24	227.43
926.55	227.40
926.85	227.40
927.15	227.42
927.45	227.42
927.75	227.45
928.05	227.43
928.35	227.45
928.65	227.45
928.95	227.44
929.26	227.37
929.56	227.44
929.86	227.47
930.16	227.49
930.46	227.44
930.76	227.46
931.06	227.40
931.36	227.40
931.66	227.41
931.96	227.42
932.26	227.41
932.56	227.35
932.86	227.36
933.16	227.35
933.46	227.34
933.76	227.31
934.06	227.30
934.36	227.32
934.66	227.28
934.96	227.28
935.26	227.26
935.56	227.30
935.86	227.25
936.16	227.22
936.46	227.22
936.76	227.24
937.06	227.22
937.36	227.25
937.66	227.22
937.96	227.22
938.26	227.14
938.56	227.13
938.86	227.13
939.16	227.14
939.46	227.15
939.76	227.12
940.06	227.12
940.35	227.08
940.65	227.04
940.95	227.07
941.25	227.03
941.55	227.01
941.85	226.97
942.15	226.97
942.45	226.99
942.75	226.98
943.04	226.97
943.34	226.98
943.64	226.94
943.94	226.92
944.24	226.91
944.54	226.98
944.84	227.01
945.13	227.02
945.43	226.99
945.73	226.97
946.03	226.96
946.33	226.96
946.62	226.95
946.92	226.96
947.22	226.94
947.52	226.96
947.82	226.96
948.11	226.97
948.41	226.95
948.71	226.93
949.01	226.93
949.31	226.96
949.60	226.93
949.90	226.97
950.20	227.00
950.50	227.02
950.79	227.02
951.09	227.00
951.39	226.98
951.69	226.99
951.98	227.04
952.28	227.09
952.58	227.10
952.87	227.15
953.17	227.15
953.47	227.15
953.76	227.15
954.06	227.17
954.36	227.17
954.66	227.19
954.95	227.19
955.25	227.17
955.55	227.15
955.84	227.15
956.14	227.15
956.44	227.16
956.73	227.12
957.03	227.14
957.32	227.15
957.62	227.18
957.92	227.20
958.21	227.17
958.51	227.24
958.81	227.25
959.10	227.24
959.40	227.24
959.69	227.25
959.99	227.26
960.29	227.24
960.58	227.24
960.88	227.30
961.17	227.32
961.47	227.35
961.76	227.33
962.06	227.33
962.36	227.32
962.65	227.30
962.95	227.29
963.24	227.29
963.54	227.29
963.83	227.29
964.13	227.27
964.42	227.28
964.72	227.22
965.01	227.25
965.31	227.23
965.60	227.20
965.90	227.25
966.19	227.22
966.49	227.20
966.78	227.21
967.08	227.19
967.37	227.17
967.67	227.14
967.96	227.18
968.26	227.19
968.55	227.20
968.85	227.21
969.14	227.23
969.43	227.19
969.73	227.19
970.02	227.16
970.32	227.15
970.61	227.13
970.91	227.09
971.20	227.03
971.49	227.05
971.79	227.08
972.08	227.01
972.38	227.04
972.67	227.04
972.96	227.00
973.26	226.95
973.55	226.99
973.85	226.96
974.14	226.95
974.43	226.95
974.73	226.94
975.02	226.92
975.31	226.92
975.61	226.92
975.90	226.92
976.19	226.93
976.49	226.94
976.78	226.98
977.07	226.98
977.37	226.98
977.66	226.98
977.95	226.96
978.24	226.95
978.54	226.93
978.83	226.95
979.12	226.96
979.42	226.95
979.71	226.92
980.00	226.96
980.29	226.94
980.59	226.93
980.88	226.96
981.17	226.95
981.46	226.93
981.76	226.92
982.05	226.93
982.34	226.89
982.63	226.94
982.93	226.90
983.22	226.92
983.51	226.93
983.80	226.96
984.09	226.98
984.39	227.00
984.68	226.99
984.97	226.95
985.26	226.96
985.55	226.98
985.85	226.99
986.14	226.99
986.43	227.00
986.72	227.03
987.01	227.00
987.30	226.99
987.59	226.98
987.89	227.02
988.18	226.97
988.47	226.99
988.76	226.94
989.05	226.94
989.34	226.94
989.63	226.95
989.92	226.91
990.22	226.90
990.51	226.90
990.80	226.90
991.09	226.94
991.38	226.94
991.67	226.93
991.96	226.91
992.25	226.90
992.54	226.89
992.83	226.87
993.12	226.86
993.41	226.88
993.70	226.92
993.99	226.93
994.28	226.98
994.58	226.96
994.87	226.94
995.16	226.94
995.45	226.94
995.74	226.93
996.03	226.96
996.32	226.99
996.61	226.96
996.90	226.96
997.19	226.98
997.48	227.01
997.77	227.01
998.06	227.04
998.34	227.05
998.63	227.08
998.92	227.10
999.21	227.13
999.50	227.14
999.79	227.14
1000.08	227.16
1000.37	227.14
1000.66	227.16
1000.95	227.18
1001.24	227.22
1001.53	227.23
1001.82	227.24
1002.11	227.23
1002.40	227.23
1002.68	227.28
1002.97	227.34
1003.26	227.31
1003.55	227.27
1003.84	227.28
1004.13	227.29
1004.42	227.30
1004.71	227.31
1004.99	227.28
1005.28	227.28
1005.57	227.29
1005.86	227.24
1006.15	227.22
1006.44	227.22
1006.72	227.20
1007.01	227.25
1007.30	227.24
1007.59	227.25
1007.88	227.23
1008.17	227.22
1008.45	227.20
1008.74	227.17
1009.03	227.14
1009.32	227.11
1009.60	227.08
1009.89	227.08
1010.18	227.05
1010.47	227.04
1010.76	227.00
1011.04	226.99
1011.33	227.01
1011.62	227.01
1011.91	227.04
1012.19	227.04
1012.48	227.02
1012.77	227.05
1013.05	227.05
1013.34	227.04
1013.63	227.03
1013.92	227.01
1014.20	227.02
1014.49	227.02
1014.78	227.02
1015.06	226.99
1015.35	227.02
1015.64	227.05
1015.92	227.03
1016.21	227.03
1016.50	227.02
1016.78	227.03
1017.07	227.04
1017.36	227.01
1017.64	227.00
1017.93	227.00
1018.22	226.99
1018.50	227.00
1018.79	226.99
1019.08	226.94
1019.36	226.91
1019.65	226.91
1019.93	226.96
1020.22	226.95
1020.51	227.01
1020.79	226.97
1021.08	227.04
1021.36	226.87
1021.65	226.97
1021.94	226.80
1022.22	226.71
1022.51	227.12
1022.79	227.62
1023.08	226.73
1023.36	228.56
1023.65	226.27
>>>>>End Processed Spectral Data<<<<<
