SpectraSuite Data File
++++++++++++++++++++++++++++++++++++
Date: Fri Feb 01 17:30:41 EST 2013
User: group
Dark Spectrum Present: No
Reference Spectrum Present: No
Number of Sampled Component Spectra: 1
Spectrometers: USB2E7196
Integration Time (usec): 35000 (USB2E7196)
Spectra Averaged: 100 (USB2E7196)
Boxcar Smoothing: 10 (USB2E7196)
Correct for Electrical Dark: No (USB2E7196)
Strobe/Lamp Enabled: No (USB2E7196)
Correct for Detector Non-linearity: No (USB2E7196)
Correct for Stray Light: No (USB2E7196)
Number of Pixels in Processed Spectrum: 2048
>>>>>Begin Processed Spectral Data<<<<<
339.09	0.00
339.48	212.76
339.86	214.46
340.24	215.83
340.63	217.08
341.01	220.46
341.39	219.20
341.78	220.40
342.16	222.31
342.54	223.26
342.93	211.25
343.31	221.92
343.69	222.44
344.07	222.89
344.46	223.32
344.84	223.69
345.22	223.87
345.60	224.16
345.99	224.34
346.37	224.44
346.75	224.49
347.13	224.55
347.52	224.58
347.90	224.66
348.28	224.67
348.66	224.73
349.05	224.69
349.43	224.70
349.81	224.73
350.19	224.77
350.57	224.82
350.96	224.89
351.34	224.97
351.72	225.05
352.10	225.14
352.48	225.16
352.87	225.24
353.25	225.33
353.63	225.38
354.01	225.47
354.39	225.59
354.77	225.72
355.15	225.84
355.54	225.92
355.92	225.95
356.30	226.04
356.68	226.19
357.06	226.27
357.44	226.32
357.82	226.40
358.20	226.50
358.58	226.55
358.97	226.61
359.35	226.69
359.73	226.78
360.11	226.83
360.49	226.92
360.87	226.97
361.25	227.02
361.63	227.08
362.01	227.14
362.39	227.18
362.77	227.20
363.15	227.22
363.53	227.25
363.91	227.30
364.29	227.36
364.67	227.27
365.05	227.29
365.43	227.33
365.81	227.37
366.19	227.42
366.57	227.49
366.95	227.48
367.33	227.48
367.71	227.48
368.09	227.53
368.47	227.54
368.85	227.52
369.23	227.54
369.61	227.52
369.99	227.54
370.37	227.53
370.75	227.56
371.13	227.53
371.51	227.47
371.89	227.45
372.27	227.39
372.65	227.37
373.03	227.38
373.41	227.33
373.78	227.22
374.16	227.13
374.54	227.05
374.92	227.00
375.30	226.95
375.68	226.86
376.06	226.79
376.44	226.70
376.82	226.67
377.19	226.60
377.57	226.56
377.95	226.43
378.33	226.34
378.71	226.22
379.09	226.17
379.47	226.12
379.84	226.06
380.22	226.00
380.60	225.88
380.98	225.80
381.36	225.75
381.73	225.72
382.11	225.66
382.49	225.60
382.87	225.54
383.25	225.48
383.62	225.56
384.00	225.50
384.38	225.46
384.76	225.41
385.13	225.39
385.51	225.30
385.89	225.28
386.27	225.25
386.64	225.19
387.02	225.11
387.40	225.08
387.78	225.03
388.15	224.96
388.53	224.96
388.91	224.90
389.29	224.84
389.66	224.83
390.04	224.80
390.42	224.78
390.79	224.78
391.17	224.73
391.55	224.57
391.92	224.52
392.30	224.48
392.68	224.43
393.05	224.40
393.43	224.38
393.81	224.38
394.18	224.33
394.56	224.34
394.94	224.37
395.31	224.34
395.69	224.39
396.06	224.46
396.44	224.44
396.82	224.47
397.19	224.53
397.57	224.52
397.95	224.57
398.32	224.60
398.70	224.64
399.07	224.72
399.45	224.82
399.82	224.87
400.20	224.95
400.58	225.04
400.95	225.09
401.33	225.21
401.70	225.37
402.08	225.44
402.45	225.56
402.83	225.67
403.20	225.80
403.58	225.87
403.95	225.95
404.33	226.12
404.71	226.26
405.08	226.43
405.46	226.60
405.83	226.75
406.21	226.87
406.58	227.03
406.96	227.17
407.33	227.32
407.70	227.51
408.08	227.81
408.45	228.03
408.83	228.28
409.20	228.49
409.58	228.66
409.95	228.95
410.33	229.22
410.70	229.48
411.08	229.78
411.45	230.13
411.82	230.46
412.20	230.83
412.57	231.28
412.95	231.60
413.32	232.00
413.69	232.42
414.07	232.90
414.44	233.38
414.82	233.91
415.19	234.49
415.56	235.09
415.94	235.66
416.31	236.32
416.68	236.97
417.06	237.73
417.43	238.45
417.81	239.28
418.18	240.07
418.55	240.95
418.93	241.92
419.30	242.85
419.67	243.83
420.04	244.80
420.42	245.81
420.79	247.04
421.16	248.26
421.54	249.51
421.91	250.78
422.28	252.10
422.66	253.47
423.03	254.81
423.40	256.19
423.77	257.63
424.15	259.12
424.52	260.67
424.89	262.32
425.26	263.92
425.64	265.41
426.01	267.13
426.38	268.90
426.75	270.56
427.13	272.34
427.50	274.22
427.87	276.20
428.24	278.14
428.61	279.97
428.99	281.97
429.36	284.14
429.73	286.26
430.10	288.38
430.47	290.46
430.85	292.69
431.22	294.99
431.59	297.46
431.96	299.78
432.33	302.34
432.70	304.79
433.08	307.74
433.45	310.48
433.82	313.12
434.19	316.06
434.56	319.01
434.93	321.76
435.30	324.45
435.68	327.45
436.05	330.38
436.42	333.27
436.79	335.89
437.16	338.70
437.53	341.63
437.90	344.61
438.27	347.48
438.64	350.44
439.01	353.17
439.38	355.47
439.75	357.73
440.13	360.29
440.50	362.72
440.87	364.61
441.24	366.62
441.61	368.93
441.98	370.49
442.35	372.37
442.72	374.29
443.09	376.19
443.46	377.23
443.83	377.83
444.20	378.40
444.57	379.27
444.94	379.59
445.31	379.95
445.68	380.31
446.05	380.43
446.42	380.02
446.79	379.59
447.16	379.21
447.53	378.90
447.90	377.73
448.27	376.56
448.64	374.93
449.01	373.76
449.37	371.69
449.74	369.72
450.11	367.42
450.48	364.87
450.85	362.24
451.22	360.04
451.59	357.95
451.96	355.92
452.33	353.24
452.70	350.80
453.07	347.90
453.43	344.85
453.80	341.99
454.17	339.21
454.54	336.57
454.91	333.70
455.28	330.93
455.65	328.37
456.02	325.84
456.38	323.63
456.75	320.86
457.12	318.52
457.49	316.25
457.86	313.96
458.23	312.03
458.59	309.90
458.96	307.71
459.33	305.79
459.70	303.89
460.07	302.33
460.43	300.56
460.80	298.87
461.17	297.39
461.54	295.81
461.91	294.34
462.27	292.85
462.64	291.57
463.01	290.17
463.38	288.82
463.74	287.38
464.11	286.15
464.48	285.12
464.85	283.97
465.21	283.05
465.58	282.12
465.95	281.00
466.32	280.09
466.68	279.13
467.05	278.21
467.42	277.28
467.78	276.31
468.15	275.36
468.52	274.65
468.88	273.72
469.25	272.93
469.62	272.29
469.98	271.56
470.35	270.91
470.72	270.25
471.08	269.59
471.45	269.01
471.82	268.48
472.18	267.84
472.55	267.36
472.92	266.82
473.28	266.29
473.65	265.84
474.02	265.40
474.38	265.05
474.75	264.72
475.11	264.33
475.48	264.06
475.85	263.86
476.21	263.62
476.58	263.49
476.94	263.38
477.31	263.17
477.67	263.05
478.04	262.92
478.41	262.86
478.77	262.86
479.14	262.84
479.50	262.82
479.87	262.91
480.23	263.01
480.60	263.05
480.96	263.16
481.33	263.35
481.69	263.51
482.06	263.69
482.42	263.89
482.79	264.18
483.15	264.49
483.52	264.86
483.88	265.22
484.25	265.55
484.61	265.96
484.98	266.42
485.34	266.97
485.71	267.53
486.07	268.13
486.44	268.68
486.80	269.35
487.17	270.09
487.53	270.87
487.90	271.69
488.26	272.62
488.62	273.61
488.99	274.57
489.35	275.60
489.72	276.72
490.08	277.89
490.44	279.09
490.81	280.40
491.17	281.73
491.54	283.18
491.90	284.72
492.26	286.34
492.63	288.04
492.99	289.80
493.36	291.71
493.72	293.76
494.08	295.87
494.45	298.11
494.81	300.44
495.17	302.83
495.54	305.41
495.90	308.09
496.26	310.89
496.63	313.84
496.99	316.96
497.35	320.15
497.72	323.53
498.08	327.02
498.44	330.65
498.80	334.54
499.17	338.51
499.53	342.67
499.89	347.02
500.26	351.46
500.62	356.06
500.98	360.95
501.34	365.93
501.71	371.17
502.07	376.54
502.43	382.07
502.79	387.81
503.16	393.79
503.52	399.94
503.88	406.23
504.24	412.76
504.60	419.52
504.97	426.59
505.33	433.77
505.69	441.41
506.05	449.02
506.41	456.76
506.78	464.79
507.14	473.09
507.50	481.64
507.86	490.52
508.22	499.54
508.59	508.61
508.95	517.98
509.31	527.66
509.67	537.56
510.03	547.64
510.39	558.03
510.75	568.51
511.12	579.22
511.48	590.25
511.84	601.44
512.20	612.67
512.56	624.26
512.92	636.12
513.28	648.16
513.64	660.38
514.00	672.80
514.37	685.41
514.73	698.04
515.09	710.69
515.45	723.59
515.81	736.80
516.17	750.37
516.53	764.16
516.89	777.91
517.25	791.73
517.61	805.70
517.97	819.74
518.33	833.81
518.69	848.18
519.05	862.72
519.41	877.40
519.77	892.48
520.13	907.52
520.49	922.51
520.85	937.34
521.21	952.49
521.57	968.09
521.93	983.42
522.29	999.41
522.65	1015.13
523.01	1030.86
523.37	1046.44
523.73	1062.11
524.09	1077.70
524.45	1093.38
524.81	1109.54
525.17	1125.82
525.53	1142.11
525.89	1158.51
526.25	1174.88
526.61	1190.69
526.97	1206.98
527.33	1223.00
527.68	1239.17
528.04	1255.07
528.40	1271.23
528.76	1287.78
529.12	1303.96
529.48	1320.37
529.84	1335.82
530.20	1352.06
530.56	1368.55
530.91	1385.39
531.27	1401.80
531.63	1417.74
531.99	1433.95
532.35	1449.60
532.71	1465.13
533.07	1481.01
533.42	1496.51
533.78	1512.14
534.14	1528.05
534.50	1543.04
534.86	1558.42
535.21	1573.27
535.57	1588.89
535.93	1604.04
536.29	1618.67
536.65	1633.27
537.00	1647.68
537.36	1662.75
537.72	1676.95
538.08	1691.27
538.44	1704.90
538.79	1718.44
539.15	1731.80
539.51	1745.31
539.87	1759.36
540.22	1772.78
540.58	1786.50
540.94	1799.55
541.29	1812.13
541.65	1824.78
542.01	1837.90
542.37	1850.14
542.72	1862.30
543.08	1874.04
543.44	1886.40
543.79	1897.53
544.15	1908.65
544.51	1920.28
544.87	1931.22
545.22	1942.01
545.58	1952.16
545.94	1962.02
546.29	1971.88
546.65	1981.91
547.01	1991.39
547.36	2000.19
547.72	2008.93
548.07	2016.99
548.43	2025.34
548.79	2033.45
549.14	2041.07
549.50	2048.40
549.86	2056.23
550.21	2063.74
550.57	2071.12
550.92	2077.79
551.28	2085.07
551.64	2092.40
551.99	2099.06
552.35	2105.48
552.70	2111.92
553.06	2118.21
553.41	2124.68
553.77	2130.95
554.13	2137.31
554.48	2143.54
554.84	2149.31
555.19	2154.67
555.55	2160.05
555.90	2164.90
556.26	2170.27
556.61	2175.27
556.97	2180.17
557.32	2184.70
557.68	2189.32
558.03	2193.65
558.39	2197.59
558.74	2202.46
559.10	2206.56
559.45	2210.55
559.81	2215.10
560.16	2219.28
560.52	2222.77
560.87	2226.52
561.23	2229.62
561.58	2232.85
561.94	2235.74
562.29	2238.33
562.64	2241.59
563.00	2244.33
563.35	2248.09
563.71	2251.57
564.06	2255.08
564.42	2258.31
564.77	2261.27
565.12	2264.01
565.48	2266.63
565.83	2269.17
566.19	2271.01
566.54	2272.39
566.89	2274.06
567.25	2275.25
567.60	2276.79
567.96	2279.00
568.31	2280.36
568.66	2281.98
569.02	2283.03
569.37	2283.87
569.72	2285.27
570.08	2285.98
570.43	2286.52
570.78	2286.43
571.14	2285.31
571.49	2284.51
571.84	2284.36
572.20	2283.82
572.55	2283.08
572.90	2281.71
573.26	2280.58
573.61	2279.20
573.96	2278.00
574.31	2275.42
574.67	2272.74
575.02	2269.54
575.37	2266.52
575.72	2263.17
576.08	2260.04
576.43	2257.00
576.78	2253.92
577.13	2250.88
577.49	2247.80
577.84	2244.85
578.19	2241.39
578.54	2238.16
578.90	2234.28
579.25	2229.29
579.60	2224.68
579.95	2220.03
580.30	2215.40
580.66	2210.70
581.01	2206.13
581.36	2201.51
581.71	2197.79
582.06	2193.80
582.42	2189.96
582.77	2185.01
583.12	2180.71
583.47	2176.44
583.82	2171.91
584.17	2166.88
584.53	2161.91
584.88	2156.71
585.23	2151.27
585.58	2146.11
585.93	2140.86
586.28	2136.32
586.63	2131.50
586.98	2126.60
587.34	2122.15
587.69	2117.58
588.04	2112.72
588.39	2107.34
588.74	2100.96
589.09	2094.97
589.44	2088.35
589.79	2082.27
590.14	2076.88
590.49	2070.50
590.84	2064.35
591.19	2058.61
591.54	2052.31
591.89	2045.21
592.25	2038.77
592.60	2031.71
592.95	2024.49
593.30	2017.61
593.65	2010.10
594.00	2003.13
594.35	1996.06
594.70	1988.07
595.05	1981.21
595.40	1973.98
595.75	1966.48
596.10	1960.64
596.45	1954.10
596.80	1948.06
597.15	1941.82
597.50	1935.04
597.85	1928.72
598.19	1922.23
598.54	1915.36
598.89	1908.89
599.24	1903.06
599.59	1896.63
599.94	1890.40
600.29	1884.11
600.64	1877.30
600.99	1870.18
601.34	1863.58
601.69	1856.54
602.04	1849.94
602.39	1842.58
602.74	1835.90
603.08	1829.42
603.43	1822.59
603.78	1815.25
604.13	1808.07
604.48	1800.92
604.83	1793.99
605.18	1787.37
605.53	1779.55
605.87	1771.53
606.22	1764.27
606.57	1756.21
606.92	1748.64
607.27	1741.81
607.62	1735.01
607.96	1727.97
608.31	1721.55
608.66	1713.95
609.01	1706.49
609.36	1699.00
609.70	1691.02
610.05	1682.97
610.40	1675.33
610.75	1667.02
611.10	1659.42
611.44	1650.97
611.79	1642.73
612.14	1634.05
612.49	1624.70
612.83	1616.11
613.18	1607.87
613.53	1599.86
613.88	1591.47
614.22	1583.23
614.57	1574.28
614.92	1566.16
615.27	1558.74
615.61	1550.21
615.96	1542.08
616.31	1534.40
616.65	1526.90
617.00	1519.27
617.35	1511.44
617.70	1502.98
618.04	1494.43
618.39	1486.09
618.74	1478.54
619.08	1470.27
619.43	1462.63
619.78	1455.61
620.12	1448.42
620.47	1440.82
620.82	1432.50
621.16	1424.82
621.51	1417.02
621.85	1409.39
622.20	1400.79
622.55	1392.09
622.89	1384.23
623.24	1376.47
623.59	1368.97
623.93	1361.28
624.28	1353.95
624.62	1346.38
624.97	1339.17
625.32	1332.22
625.66	1325.02
626.01	1317.81
626.35	1310.27
626.70	1302.43
627.04	1294.64
627.39	1286.77
627.73	1279.25
628.08	1272.25
628.43	1265.10
628.77	1257.79
629.12	1250.16
629.46	1242.91
629.81	1235.42
630.15	1228.02
630.50	1220.57
630.84	1212.37
631.19	1204.25
631.53	1196.58
631.88	1188.93
632.22	1181.21
632.57	1173.88
632.91	1166.37
633.26	1158.81
633.60	1151.33
633.95	1144.03
634.29	1136.83
634.64	1130.02
634.98	1122.56
635.32	1115.30
635.67	1108.50
636.01	1101.68
636.36	1094.84
636.70	1088.27
637.05	1081.57
637.39	1075.09
637.73	1068.58
638.08	1062.55
638.42	1056.65
638.77	1050.28
639.11	1043.72
639.45	1037.34
639.80	1030.72
640.14	1024.29
640.49	1017.74
640.83	1011.45
641.17	1005.26
641.52	998.99
641.86	992.37
642.20	986.56
642.55	980.14
642.89	973.63
643.23	967.02
643.58	961.19
643.92	954.94
644.26	949.03
644.61	942.85
644.95	936.85
645.29	930.29
645.64	923.48
645.98	917.00
646.32	910.98
646.66	904.92
647.01	899.04
647.35	893.20
647.69	887.24
648.04	881.62
648.38	875.84
648.72	869.82
649.06	863.89
649.41	857.87
649.75	851.96
650.09	846.01
650.43	840.28
650.78	834.08
651.12	828.09
651.46	822.23
651.80	816.57
652.14	811.08
652.49	805.69
652.83	800.51
653.17	794.98
653.51	789.32
653.85	783.78
654.20	778.16
654.54	772.23
654.88	766.46
655.22	760.50
655.56	754.77
655.90	749.21
656.25	743.94
656.59	738.62
656.93	733.48
657.27	728.35
657.61	722.90
657.95	717.86
658.29	712.78
658.64	707.51
658.98	702.06
659.32	696.53
659.66	691.29
660.00	685.97
660.34	680.96
660.68	675.97
661.02	670.94
661.36	666.20
661.70	661.61
662.05	657.29
662.39	653.01
662.73	648.47
663.07	644.02
663.41	639.52
663.75	634.99
664.09	630.40
664.43	625.98
664.77	621.82
665.11	617.53
665.45	613.36
665.79	609.28
666.13	605.23
666.47	601.19
666.81	597.00
667.15	592.86
667.49	588.88
667.83	585.04
668.17	581.06
668.51	576.99
668.85	573.01
669.19	569.10
669.53	565.27
669.87	561.47
670.21	557.79
670.55	554.18
670.89	550.77
671.23	547.33
671.57	543.76
671.91	540.24
672.25	536.67
672.58	533.13
672.92	529.68
673.26	526.45
673.60	523.21
673.94	520.15
674.28	517.18
674.62	514.19
674.96	511.10
675.30	508.21
675.64	505.25
675.97	502.36
676.31	499.47
676.65	496.51
676.99	493.81
677.33	490.95
677.67	488.17
678.01	485.13
678.34	482.15
678.68	479.28
679.02	476.48
679.36	473.69
679.70	470.93
680.04	468.14
680.37	465.31
680.71	462.51
681.05	459.86
681.39	457.17
681.73	454.51
682.06	451.98
682.40	449.42
682.74	446.89
683.08	444.35
683.42	441.74
683.75	439.23
684.09	436.59
684.43	434.08
684.77	431.56
685.10	429.17
685.44	426.82
685.78	424.49
686.12	422.14
686.45	419.80
686.79	417.46
687.13	415.23
687.46	413.02
687.80	410.84
688.14	408.59
688.48	406.54
688.81	404.32
689.15	402.13
689.49	399.94
689.82	397.78
690.16	395.62
690.50	393.61
690.83	391.62
691.17	389.63
691.51	387.72
691.84	385.82
692.18	383.87
692.52	381.92
692.85	379.94
693.19	378.06
693.52	376.22
693.86	374.40
694.20	372.62
694.53	370.82
694.87	368.95
695.21	367.11
695.54	365.18
695.88	363.43
696.21	361.69
696.55	359.98
696.88	358.29
697.22	356.62
697.56	354.99
697.89	353.34
698.23	351.70
698.56	350.04
698.90	348.49
699.23	346.83
699.57	345.24
699.90	343.66
700.24	342.13
700.58	340.58
700.91	339.07
701.25	337.63
701.58	336.24
701.92	334.88
702.25	333.52
702.59	332.19
702.92	330.84
703.26	329.45
703.59	328.17
703.93	326.95
704.26	325.74
704.60	324.41
704.93	323.12
705.26	321.85
705.60	320.63
705.93	319.40
706.27	318.37
706.60	317.28
706.94	316.22
707.27	315.07
707.61	313.97
707.94	312.89
708.27	311.77
708.61	310.71
708.94	309.66
709.28	308.67
709.61	307.62
709.94	306.62
710.28	305.63
710.61	304.60
710.95	303.51
711.28	302.55
711.61	301.62
711.95	300.70
712.28	299.74
712.61	298.81
712.95	297.85
713.28	296.95
713.61	296.02
713.95	295.11
714.28	294.26
714.61	293.43
714.95	292.60
715.28	291.74
715.61	290.80
715.95	289.92
716.28	289.03
716.61	288.21
716.95	287.40
717.28	286.60
717.61	285.84
717.94	285.10
718.28	284.29
718.61	283.56
718.94	282.85
719.27	282.20
719.61	281.48
719.94	280.79
720.27	280.05
720.60	279.41
720.94	278.75
721.27	278.14
721.60	277.48
721.93	276.87
722.27	276.29
722.60	275.71
722.93	275.14
723.26	274.64
723.59	274.11
723.93	273.56
724.26	273.01
724.59	272.45
724.92	271.94
725.25	271.42
725.59	270.84
725.92	270.32
726.25	269.78
726.58	269.28
726.91	268.76
727.24	268.26
727.57	267.74
727.91	267.21
728.24	266.73
728.57	266.23
728.90	265.76
729.23	265.25
729.56	264.84
729.89	264.33
730.22	263.78
730.55	263.27
730.89	262.81
731.22	262.36
731.55	261.91
731.88	261.48
732.21	261.04
732.54	260.62
732.87	260.18
733.20	259.75
733.53	259.38
733.86	259.01
734.19	258.61
734.52	258.19
734.85	257.86
735.18	257.41
735.51	257.06
735.84	256.66
736.17	256.29
736.50	255.87
736.83	255.66
737.16	255.30
737.49	254.96
737.82	254.57
738.15	254.19
738.48	253.80
738.81	253.43
739.14	253.09
739.47	252.76
739.80	252.41
740.13	252.10
740.46	251.73
740.79	251.38
741.12	251.09
741.45	250.78
741.78	250.42
742.11	250.15
742.44	249.84
742.77	249.54
743.10	249.21
743.43	248.87
743.75	248.47
744.08	248.35
744.41	248.07
744.74	247.81
745.07	247.56
745.40	247.33
745.73	247.09
746.06	246.82
746.39	246.55
746.71	246.30
747.04	246.02
747.37	245.76
747.70	245.54
748.03	245.30
748.36	245.09
748.68	244.85
749.01	244.58
749.34	244.31
749.67	244.09
750.00	243.91
750.33	243.78
750.65	243.55
750.98	243.19
751.31	242.98
751.64	242.76
751.97	242.59
752.29	242.39
752.62	242.11
752.95	241.88
753.28	241.70
753.60	241.47
753.93	241.33
754.26	241.16
754.59	240.93
754.91	240.70
755.24	240.48
755.57	240.30
755.90	240.09
756.22	239.92
756.55	239.69
756.88	239.47
757.20	239.24
757.53	239.02
757.86	238.85
758.19	238.69
758.51	238.50
758.84	238.27
759.17	238.09
759.49	237.96
759.82	237.86
760.15	237.68
760.47	237.55
760.80	237.34
761.13	237.20
761.45	237.02
761.78	236.89
762.11	236.73
762.43	236.57
762.76	236.46
763.08	236.33
763.41	236.22
763.74	236.07
764.06	235.96
764.39	235.82
764.71	235.67
765.04	235.53
765.37	235.40
765.69	235.26
766.02	235.12
766.34	235.01
766.67	234.80
767.00	234.71
767.32	234.63
767.65	234.56
767.97	234.40
768.30	234.32
768.62	234.21
768.95	234.09
769.27	233.98
769.60	233.90
769.92	233.81
770.25	233.71
770.57	233.61
770.90	233.50
771.22	233.41
771.55	233.34
771.87	233.26
772.20	233.16
772.52	233.18
772.85	233.21
773.17	233.09
773.50	233.03
773.82	232.95
774.15	232.82
774.47	232.69
774.80	232.61
775.12	232.51
775.45	232.42
775.77	232.36
776.09	232.33
776.42	232.24
776.74	232.17
777.07	232.10
777.39	232.03
777.72	231.94
778.04	231.87
778.36	231.78
778.69	231.75
779.01	231.70
779.33	231.52
779.66	231.39
779.98	231.35
780.31	231.30
780.63	231.28
780.95	231.20
781.28	231.15
781.60	231.11
781.92	231.07
782.25	231.01
782.57	230.95
782.89	230.86
783.22	230.79
783.54	230.73
783.86	230.67
784.19	230.59
784.51	230.55
784.83	230.51
785.16	230.48
785.48	230.40
785.80	230.35
786.12	230.32
786.45	230.24
786.77	230.20
787.09	230.16
787.42	230.08
787.74	230.06
788.06	230.02
788.38	229.95
788.71	229.90
789.03	229.86
789.35	229.83
789.67	229.79
789.99	229.74
790.32	229.69
790.64	229.68
790.96	229.71
791.28	229.68
791.61	229.62
791.93	229.57
792.25	229.52
792.57	229.54
792.89	229.46
793.21	229.43
793.54	229.37
793.86	229.30
794.18	229.24
794.50	229.23
794.82	229.14
795.14	229.13
795.47	229.12
795.79	229.07
796.11	229.02
796.43	228.99
796.75	228.96
797.07	228.93
797.39	228.88
797.71	228.79
798.04	228.74
798.36	228.71
798.68	228.64
799.00	228.63
799.32	228.54
799.64	228.54
799.96	228.47
800.28	228.45
800.60	228.44
800.92	228.37
801.24	228.29
801.56	228.30
801.89	228.26
802.21	228.19
802.53	228.16
802.85	228.12
803.17	228.11
803.49	228.02
803.81	227.98
804.13	227.92
804.45	227.88
804.77	227.84
805.09	227.80
805.41	227.75
805.73	227.65
806.05	227.60
806.37	227.57
806.69	227.53
807.01	227.49
807.33	227.40
807.65	227.34
807.97	227.35
808.28	227.31
808.60	227.27
808.92	227.25
809.24	227.25
809.56	227.20
809.88	227.16
810.20	227.15
810.52	227.13
810.84	227.08
811.16	227.03
811.48	227.00
811.80	227.03
812.12	227.00
812.43	227.01
812.75	226.98
813.07	226.91
813.39	226.87
813.71	226.83
814.03	226.86
814.35	226.84
814.67	226.77
814.98	226.70
815.30	226.70
815.62	226.67
815.94	226.62
816.26	226.63
816.58	226.58
816.89	226.57
817.21	226.54
817.53	226.57
817.85	226.53
818.17	226.49
818.48	226.41
818.80	226.46
819.12	226.42
819.44	226.41
819.76	226.41
820.07	226.41
820.39	226.40
820.71	226.36
821.03	226.37
821.34	226.37
821.66	226.41
821.98	226.40
822.30	226.38
822.61	226.42
822.93	226.39
823.25	226.37
823.57	226.35
823.88	226.36
824.20	226.32
824.52	226.36
824.83	226.36
825.15	226.39
825.47	226.37
825.79	226.38
826.10	226.35
826.42	226.34
826.74	226.37
827.05	226.36
827.37	226.38
827.69	226.36
828.00	226.37
828.32	226.33
828.64	226.30
828.95	226.32
829.27	226.28
829.58	226.25
829.90	226.27
830.22	226.29
830.53	226.25
830.85	226.23
831.17	226.19
831.48	226.18
831.80	226.17
832.11	226.11
832.43	226.11
832.75	226.10
833.06	226.12
833.38	226.09
833.69	226.05
834.01	226.04
834.32	226.04
834.64	226.00
834.96	225.99
835.27	225.98
835.59	225.97
835.90	225.95
836.22	225.95
836.53	225.93
836.85	225.88
837.16	225.99
837.48	225.98
837.79	226.02
838.11	226.01
838.42	225.98
838.74	226.01
839.05	225.95
839.37	225.96
839.68	225.93
840.00	225.94
840.31	225.93
840.63	225.94
840.94	225.92
841.26	225.92
841.57	225.92
841.88	225.93
842.20	225.90
842.51	225.88
842.83	225.85
843.14	225.92
843.46	225.90
843.77	225.82
844.08	225.80
844.40	225.73
844.71	225.69
845.03	225.69
845.34	225.63
845.65	225.62
845.97	225.58
846.28	225.55
846.60	225.51
846.91	225.47
847.22	225.46
847.54	225.46
847.85	225.47
848.16	225.46
848.48	225.44
848.79	225.47
849.10	225.48
849.42	225.49
849.73	225.37
850.04	225.37
850.36	225.35
850.67	225.36
850.98	225.36
851.30	225.39
851.61	225.39
851.92	225.40
852.23	225.47
852.55	225.50
852.86	225.49
853.17	225.51
853.49	225.58
853.80	225.57
854.11	225.55
854.42	225.52
854.74	225.51
855.05	225.48
855.36	225.45
855.67	225.44
855.99	225.45
856.30	225.59
856.61	225.59
856.92	225.61
857.23	225.63
857.55	225.62
857.86	225.61
858.17	225.62
858.48	225.65
858.79	225.64
859.11	225.63
859.42	225.65
859.73	225.65
860.04	225.66
860.35	225.63
860.66	225.63
860.98	225.65
861.29	225.68
861.60	225.70
861.91	225.72
862.22	225.69
862.53	225.66
862.84	225.54
863.16	225.57
863.47	225.53
863.78	225.50
864.09	225.54
864.40	225.55
864.71	225.52
865.02	225.55
865.33	225.53
865.64	225.55
865.95	225.54
866.27	225.62
866.58	225.58
866.89	225.61
867.20	225.61
867.51	225.60
867.82	225.57
868.13	225.60
868.44	225.57
868.75	225.60
869.06	225.62
869.37	225.63
869.68	225.61
869.99	225.63
870.30	225.65
870.61	225.66
870.92	225.65
871.23	225.66
871.54	225.61
871.85	225.61
872.16	225.58
872.47	225.58
872.78	225.48
873.09	225.49
873.40	225.47
873.71	225.49
874.02	225.48
874.33	225.44
874.64	225.40
874.95	225.42
875.26	225.40
875.56	225.38
875.87	225.35
876.18	225.34
876.49	225.45
876.80	225.42
877.11	225.37
877.42	225.38
877.73	225.38
878.04	225.37
878.35	225.37
878.66	225.34
878.96	225.32
879.27	225.31
879.58	225.28
879.89	225.25
880.20	225.24
880.51	225.25
880.82	225.27
881.12	225.27
881.43	225.24
881.74	225.22
882.05	225.21
882.36	225.22
882.67	225.21
882.97	225.06
883.28	225.06
883.59	225.06
883.90	225.03
884.21	225.00
884.51	224.99
884.82	224.97
885.13	225.00
885.44	224.99
885.74	224.98
886.05	224.98
886.36	224.96
886.67	224.94
886.98	224.98
887.28	225.02
887.59	224.96
887.90	224.94
888.20	224.95
888.51	224.98
888.82	224.96
889.13	224.95
889.43	225.01
889.74	225.00
890.05	224.98
890.35	224.96
890.66	224.97
890.97	224.97
891.28	224.96
891.58	224.95
891.89	224.95
892.20	224.93
892.50	224.92
892.81	224.94
893.12	224.95
893.42	224.86
893.73	224.85
894.04	224.90
894.34	224.92
894.65	224.89
894.95	224.85
895.26	224.85
895.57	224.89
895.87	224.83
896.18	224.87
896.48	224.89
896.79	224.91
897.10	224.92
897.40	224.93
897.71	224.95
898.01	224.96
898.32	224.98
898.63	224.98
898.93	224.99
899.24	225.00
899.54	224.98
899.85	225.02
900.15	224.99
900.46	224.99
900.76	224.98
901.07	224.98
901.38	225.00
901.68	225.04
901.99	225.01
902.29	225.01
902.60	225.03
902.90	225.02
903.21	225.03
903.51	225.02
903.82	225.03
904.12	225.03
904.43	225.02
904.73	225.00
905.03	225.03
905.34	225.13
905.64	225.15
905.95	225.14
906.25	225.15
906.56	225.14
906.86	225.14
907.17	225.16
907.47	225.17
907.77	225.16
908.08	225.13
908.38	225.13
908.69	225.15
908.99	225.13
909.30	225.15
909.60	225.11
909.90	225.12
910.21	225.09
910.51	225.08
910.81	225.12
911.12	225.18
911.42	225.19
911.73	225.08
912.03	225.09
912.33	225.14
912.64	225.13
912.94	225.13
913.24	225.12
913.55	225.15
913.85	225.17
914.15	225.20
914.46	225.18
914.76	225.18
915.06	225.17
915.37	225.16
915.67	225.13
915.97	225.16
916.27	225.12
916.58	225.15
916.88	225.13
917.18	225.09
917.49	225.13
917.79	225.14
918.09	225.18
918.39	225.18
918.70	225.16
919.00	225.13
919.30	225.21
919.60	225.20
919.91	225.16
920.21	225.13
920.51	225.11
920.81	225.12
921.12	225.12
921.42	225.09
921.72	225.08
922.02	225.11
922.32	225.10
922.63	225.11
922.93	225.13
923.23	225.16
923.53	225.14
923.83	225.06
924.13	225.06
924.44	225.03
924.74	225.05
925.04	225.04
925.34	225.06
925.64	225.00
925.94	225.02
926.24	225.08
926.55	225.06
926.85	225.06
927.15	225.05
927.45	225.05
927.75	225.08
928.05	225.08
928.35	225.05
928.65	225.07
928.95	225.09
929.26	225.05
929.56	225.05
929.86	225.07
930.16	225.04
930.46	225.00
930.76	224.99
931.06	224.95
931.36	224.94
931.66	224.91
931.96	224.90
932.26	224.86
932.56	224.80
932.86	224.81
933.16	224.80
933.46	224.80
933.76	224.80
934.06	224.77
934.36	224.79
934.66	224.78
934.96	224.75
935.26	224.74
935.56	224.77
935.86	224.74
936.16	224.73
936.46	224.73
936.76	224.73
937.06	224.71
937.36	224.67
937.66	224.68
937.96	224.68
938.26	224.69
938.56	224.70
938.86	224.71
939.16	224.71
939.46	224.71
939.76	224.70
940.06	224.70
940.35	224.72
940.65	224.70
940.95	224.73
941.25	224.71
941.55	224.71
941.85	224.68
942.15	224.69
942.45	224.70
942.75	224.68
943.04	224.70
943.34	224.73
943.64	224.73
943.94	224.73
944.24	224.73
944.54	224.74
944.84	224.73
945.13	224.70
945.43	224.69
945.73	224.71
946.03	224.76
946.33	224.74
946.62	224.69
946.92	224.66
947.22	224.65
947.52	224.68
947.82	224.70
948.11	224.73
948.41	224.74
948.71	224.71
949.01	224.74
949.31	224.72
949.60	224.71
949.90	224.75
950.20	224.70
950.50	224.72
950.79	224.71
951.09	224.73
951.39	224.74
951.69	224.73
951.98	224.76
952.28	224.73
952.58	224.73
952.87	224.78
953.17	224.80
953.47	224.78
953.76	224.79
954.06	224.76
954.36	224.72
954.66	224.70
954.95	224.75
955.25	224.74
955.55	224.76
955.84	224.77
956.14	224.76
956.44	224.78
956.73	224.77
957.03	224.76
957.32	224.78
957.62	224.79
957.92	224.82
958.21	224.79
958.51	224.90
958.81	224.93
959.10	224.94
959.40	224.97
959.69	224.99
959.99	225.01
960.29	225.02
960.58	225.05
960.88	225.12
961.17	225.10
961.47	225.11
961.76	225.10
962.06	225.12
962.36	225.11
962.65	225.12
962.95	225.12
963.24	225.09
963.54	225.10
963.83	225.09
964.13	225.06
964.42	225.05
964.72	224.99
965.01	224.97
965.31	224.94
965.60	224.91
965.90	224.97
966.19	224.95
966.49	224.95
966.78	224.92
967.08	224.88
967.37	224.88
967.67	224.85
967.96	224.90
968.26	224.90
968.55	224.88
968.85	224.91
969.14	224.90
969.43	224.94
969.73	224.91
970.02	224.91
970.32	224.90
970.61	224.89
970.91	224.82
971.20	224.82
971.49	224.82
971.79	224.85
972.08	224.78
972.38	224.77
972.67	224.76
972.96	224.80
973.26	224.75
973.55	224.76
973.85	224.76
974.14	224.74
974.43	224.77
974.73	224.77
975.02	224.72
975.31	224.74
975.61	224.73
975.90	224.73
976.19	224.72
976.49	224.74
976.78	224.74
977.07	224.75
977.37	224.75
977.66	224.78
977.95	224.74
978.24	224.73
978.54	224.74
978.83	224.75
979.12	224.71
979.42	224.74
979.71	224.75
980.00	224.79
980.29	224.81
980.59	224.76
980.88	224.80
981.17	224.81
981.46	224.81
981.76	224.80
982.05	224.84
982.34	224.85
982.63	224.84
982.93	224.85
983.22	224.89
983.51	224.91
983.80	224.94
984.09	224.99
984.39	225.01
984.68	225.03
984.97	225.02
985.26	225.03
985.55	225.04
985.85	225.05
986.14	225.04
986.43	225.05
986.72	225.06
987.01	224.99
987.30	225.01
987.59	224.97
987.89	224.97
988.18	224.93
988.47	224.94
988.76	224.96
989.05	224.96
989.34	224.92
989.63	224.95
989.92	224.92
990.22	224.89
990.51	224.88
990.80	224.91
991.09	224.93
991.38	224.97
991.67	224.96
991.96	224.94
992.25	224.93
992.54	224.89
992.83	224.88
993.12	224.90
993.41	224.94
993.70	224.99
993.99	225.04
994.28	225.07
994.58	225.07
994.87	225.06
995.16	225.05
995.45	225.06
995.74	225.02
996.03	225.02
996.32	225.02
996.61	225.05
996.90	225.04
997.19	225.00
997.48	224.98
997.77	224.97
998.06	224.96
998.34	224.95
998.63	224.95
998.92	224.95
999.21	224.95
999.50	224.97
999.79	224.94
1000.08	224.92
1000.37	224.92
1000.66	224.92
1000.95	224.94
1001.24	224.90
1001.53	224.96
1001.82	224.97
1002.11	224.95
1002.40	224.96
1002.68	224.96
1002.97	225.00
1003.26	224.99
1003.55	224.97
1003.84	224.99
1004.13	225.03
1004.42	225.04
1004.71	225.04
1004.99	225.04
1005.28	225.10
1005.57	225.05
1005.86	225.07
1006.15	225.07
1006.44	225.07
1006.72	225.09
1007.01	225.05
1007.30	225.11
1007.59	225.08
1007.88	225.07
1008.17	225.06
1008.45	225.05
1008.74	225.01
1009.03	224.93
1009.32	224.94
1009.60	224.93
1009.89	224.90
1010.18	224.85
1010.47	224.82
1010.76	224.82
1011.04	224.81
1011.33	224.80
1011.62	224.81
1011.91	224.79
1012.19	224.77
1012.48	224.76
1012.77	224.75
1013.05	224.80
1013.34	224.77
1013.63	224.74
1013.92	224.77
1014.20	224.76
1014.49	224.75
1014.78	224.77
1015.06	224.76
1015.35	224.74
1015.64	224.77
1015.92	224.79
1016.21	224.84
1016.50	224.81
1016.78	224.82
1017.07	224.82
1017.36	224.79
1017.64	224.79
1017.93	224.82
1018.22	224.82
1018.50	224.79
1018.79	224.78
1019.08	224.76
1019.36	224.76
1019.65	224.75
1019.93	224.77
1020.22	224.77
1020.51	224.84
1020.79	224.82
1021.08	224.63
1021.36	224.19
1021.65	224.69
1021.94	225.24
1022.22	224.79
1022.51	224.37
1022.79	225.26
1023.08	224.70
1023.36	226.39
1023.65	224.45
>>>>>End Processed Spectral Data<<<<<
