SpectraSuite Data File
++++++++++++++++++++++++++++++++++++
Date: Fri Feb 01 16:38:43 EST 2013
User: group
Dark Spectrum Present: No
Reference Spectrum Present: No
Number of Sampled Component Spectra: 1
Spectrometers: USB2E7196
Integration Time (usec): 35000 (USB2E7196)
Spectra Averaged: 100 (USB2E7196)
Boxcar Smoothing: 10 (USB2E7196)
Correct for Electrical Dark: No (USB2E7196)
Strobe/Lamp Enabled: No (USB2E7196)
Correct for Detector Non-linearity: No (USB2E7196)
Correct for Stray Light: No (USB2E7196)
Number of Pixels in Processed Spectrum: 2048
>>>>>Begin Processed Spectral Data<<<<<
339.09	0.00
339.48	213.45
339.86	214.96
340.24	216.67
340.63	217.87
341.01	220.68
341.39	220.79
341.78	221.90
342.16	222.59
342.54	224.21
342.93	212.17
343.31	222.91
343.69	223.45
344.07	223.92
344.46	224.36
344.84	224.75
345.22	224.99
345.60	225.24
345.99	225.41
346.37	225.57
346.75	225.63
347.13	225.73
347.52	225.77
347.90	225.84
348.28	225.87
348.66	225.88
349.05	225.85
349.43	225.87
349.81	225.89
350.19	225.94
350.57	226.03
350.96	226.13
351.34	226.20
351.72	226.28
352.10	226.38
352.48	226.46
352.87	226.52
353.25	226.58
353.63	226.63
354.01	226.72
354.39	226.79
354.77	226.90
355.15	226.96
355.54	227.05
355.92	227.06
356.30	227.14
356.68	227.27
357.06	227.36
357.44	227.47
357.82	227.53
358.20	227.59
358.58	227.62
358.97	227.68
359.35	227.75
359.73	227.84
360.11	227.87
360.49	227.92
360.87	227.95
361.25	228.02
361.63	228.07
362.01	228.08
362.39	228.13
362.77	228.15
363.15	228.21
363.53	228.25
363.91	228.31
364.29	228.32
364.67	228.20
365.05	228.22
365.43	228.23
365.81	228.27
366.19	228.33
366.57	228.35
366.95	228.34
367.33	228.32
367.71	228.32
368.09	228.37
368.47	228.36
368.85	228.34
369.23	228.34
369.61	228.29
369.99	228.34
370.37	228.30
370.75	228.29
371.13	228.23
371.51	228.15
371.89	228.10
372.27	228.09
372.65	228.12
373.03	228.04
373.41	227.96
373.78	227.89
374.16	227.78
374.54	227.71
374.92	227.63
375.30	227.58
375.68	227.51
376.06	227.43
376.44	227.33
376.82	227.30
377.19	227.22
377.57	227.16
377.95	227.04
378.33	226.99
378.71	226.92
379.09	226.87
379.47	226.80
379.84	226.73
380.22	226.64
380.60	226.53
380.98	226.52
381.36	226.44
381.73	226.40
382.11	226.36
382.49	226.31
382.87	226.26
383.25	226.21
383.62	226.27
384.00	226.17
384.38	226.14
384.76	226.09
385.13	226.09
385.51	226.05
385.89	226.01
386.27	225.98
386.64	225.95
387.02	225.90
387.40	225.91
387.78	225.88
388.15	225.85
388.53	225.83
388.91	225.76
389.29	225.74
389.66	225.74
390.04	225.68
390.42	225.65
390.79	225.61
391.17	225.58
391.55	225.44
391.92	225.44
392.30	225.43
392.68	225.40
393.05	225.40
393.43	225.42
393.81	225.40
394.18	225.35
394.56	225.35
394.94	225.33
395.31	225.30
395.69	225.33
396.06	225.38
396.44	225.43
396.82	225.45
397.19	225.56
397.57	225.55
397.95	225.61
398.32	225.65
398.70	225.70
399.07	225.78
399.45	225.84
399.82	225.91
400.20	225.97
400.58	225.99
400.95	226.02
401.33	226.06
401.70	226.22
402.08	226.33
402.45	226.38
402.83	226.50
403.20	226.60
403.58	226.69
403.95	226.78
404.33	226.86
404.71	226.98
405.08	227.11
405.46	227.22
405.83	227.30
406.21	227.43
406.58	227.56
406.96	227.71
407.33	227.88
407.70	228.05
408.08	228.25
408.45	228.50
408.83	228.71
409.20	228.92
409.58	229.04
409.95	229.28
410.33	229.53
410.70	229.81
411.08	230.09
411.45	230.35
411.82	230.63
412.20	231.01
412.57	231.41
412.95	231.68
413.32	232.11
413.69	232.57
414.07	233.01
414.44	233.50
414.82	233.93
415.19	234.50
415.56	235.02
415.94	235.61
416.31	236.22
416.68	236.88
417.06	237.61
417.43	238.31
417.81	239.09
418.18	239.87
418.55	240.69
418.93	241.61
419.30	242.53
419.67	243.48
420.04	244.43
420.42	245.42
420.79	246.61
421.16	247.73
421.54	248.87
421.91	250.07
422.28	251.35
422.66	252.69
423.03	253.97
423.40	255.34
423.77	256.74
424.15	258.18
424.52	259.64
424.89	261.24
425.26	262.81
425.64	264.27
426.01	265.89
426.38	267.53
426.75	269.16
427.13	270.88
427.50	272.69
427.87	274.53
428.24	276.43
428.61	278.15
428.99	280.13
429.36	282.23
429.73	284.29
430.10	286.29
430.47	288.38
430.85	290.50
431.22	292.70
431.59	295.10
431.96	297.29
432.33	299.77
432.70	302.11
433.08	304.90
433.45	307.50
433.82	310.06
434.19	312.94
434.56	315.74
434.93	318.36
435.30	320.96
435.68	323.85
436.05	326.63
436.42	329.37
436.79	331.85
437.16	334.55
437.53	337.37
437.90	340.11
438.27	342.79
438.64	345.63
439.01	348.16
439.38	350.37
439.75	352.55
440.13	354.97
440.50	357.30
440.87	359.13
441.24	361.07
441.61	363.24
441.98	364.70
442.35	366.48
442.72	368.30
443.09	370.13
443.46	371.12
443.83	371.67
444.20	372.20
444.57	373.00
444.94	373.23
445.31	373.58
445.68	373.92
446.05	374.01
446.42	373.56
446.79	373.16
447.16	372.71
447.53	372.44
447.90	371.31
448.27	370.14
448.64	368.58
449.01	367.45
449.37	365.49
449.74	363.64
450.11	361.43
450.48	359.00
450.85	356.48
451.22	354.33
451.59	352.38
451.96	350.47
452.33	347.92
452.70	345.63
453.07	342.82
453.43	339.98
453.80	337.23
454.17	334.58
454.54	332.04
454.91	329.34
455.28	326.63
455.65	324.16
456.02	321.76
456.38	319.61
456.75	316.98
457.12	314.72
457.49	312.44
457.86	310.28
458.23	308.41
458.59	306.37
458.96	304.30
459.33	302.46
459.70	300.63
460.07	299.14
460.43	297.43
460.80	295.79
461.17	294.40
461.54	292.91
461.91	291.50
462.27	290.10
462.64	288.90
463.01	287.54
463.38	286.27
463.74	284.91
464.11	283.76
464.48	282.74
464.85	281.67
465.21	280.86
465.58	279.97
465.95	278.92
466.32	278.01
466.68	277.14
467.05	276.23
467.42	275.34
467.78	274.45
468.15	273.57
468.52	272.96
468.88	272.09
469.25	271.36
469.62	270.79
469.98	270.16
470.35	269.50
470.72	268.94
471.08	268.27
471.45	267.76
471.82	267.25
472.18	266.68
472.55	266.29
472.92	265.80
473.28	265.32
473.65	264.92
474.02	264.52
474.38	264.18
474.75	263.88
475.11	263.55
475.48	263.30
475.85	263.10
476.21	262.87
476.58	262.72
476.94	262.59
477.31	262.43
477.67	262.28
478.04	262.24
478.41	262.17
478.77	262.25
479.14	262.18
479.50	262.18
479.87	262.25
480.23	262.31
480.60	262.35
480.96	262.46
481.33	262.65
481.69	262.84
482.06	263.02
482.42	263.18
482.79	263.45
483.15	263.72
483.52	264.07
483.88	264.44
484.25	264.80
484.61	265.20
484.98	265.61
485.34	266.14
485.71	266.66
486.07	267.28
486.44	267.86
486.80	268.55
487.17	269.28
487.53	270.13
487.90	270.97
488.26	271.92
488.62	272.90
488.99	273.85
489.35	274.90
489.72	276.03
490.08	277.25
490.44	278.47
490.81	279.79
491.17	281.17
491.54	282.65
491.90	284.19
492.26	285.83
492.63	287.58
492.99	289.37
493.36	291.28
493.72	293.36
494.08	295.47
494.45	297.75
494.81	300.12
495.17	302.52
495.54	305.06
495.90	307.77
496.26	310.58
496.63	313.55
496.99	316.68
497.35	319.96
497.72	323.40
498.08	326.90
498.44	330.58
498.80	334.55
499.17	338.62
499.53	342.79
499.89	347.21
500.26	351.75
500.62	356.43
500.98	361.43
501.34	366.48
501.71	371.78
502.07	377.25
502.43	382.86
502.79	388.70
503.16	394.82
503.52	401.11
503.88	407.51
504.24	414.18
504.60	421.10
504.97	428.22
505.33	435.51
505.69	443.28
506.05	451.05
506.41	458.87
506.78	467.01
507.14	475.49
507.50	484.16
507.86	493.13
508.22	502.38
508.59	511.55
508.95	521.11
509.31	530.96
509.67	541.03
510.03	551.31
510.39	561.90
510.75	572.68
511.12	583.56
511.48	594.83
511.84	606.27
512.20	617.76
512.56	629.72
512.92	641.85
513.28	654.17
513.64	666.65
514.00	679.34
514.37	692.29
514.73	705.26
515.09	718.22
515.45	731.55
515.81	745.07
516.17	759.05
516.53	773.10
516.89	787.24
517.25	801.32
517.61	815.73
517.97	830.12
518.33	844.45
518.69	859.16
519.05	874.11
519.41	889.19
519.77	904.57
520.13	919.93
520.49	935.35
520.85	950.59
521.21	966.17
521.57	982.33
521.93	997.91
522.29	1014.21
522.65	1030.51
523.01	1046.61
523.37	1062.44
523.73	1078.51
524.09	1094.53
524.45	1110.77
524.81	1127.36
525.17	1143.99
525.53	1160.60
525.89	1177.40
526.25	1194.20
526.61	1210.48
526.97	1227.11
527.33	1243.63
527.68	1260.00
528.04	1276.26
528.40	1292.83
528.76	1309.72
529.12	1326.25
529.48	1343.18
529.84	1359.01
530.20	1375.61
530.56	1392.37
530.91	1409.71
531.27	1426.34
531.63	1442.71
531.99	1459.08
532.35	1474.86
532.71	1490.57
533.07	1506.75
533.42	1522.66
533.78	1538.65
534.14	1554.70
534.50	1569.93
534.86	1585.50
535.21	1600.66
535.57	1616.45
535.93	1631.67
536.29	1646.30
536.65	1661.13
537.00	1675.64
537.36	1690.92
537.72	1705.15
538.08	1719.54
538.44	1733.15
538.79	1746.85
539.15	1760.18
539.51	1773.73
539.87	1787.96
540.22	1801.47
540.58	1814.96
540.94	1827.83
541.29	1840.26
541.65	1852.74
542.01	1865.72
542.37	1877.94
542.72	1890.16
543.08	1901.88
543.44	1914.19
543.79	1925.37
544.15	1936.20
544.51	1947.55
544.87	1958.31
545.22	1969.12
545.58	1979.18
545.94	1988.83
546.29	1998.65
546.65	2008.67
547.01	2017.83
547.36	2026.48
547.72	2034.92
548.07	2042.98
548.43	2051.20
548.79	2059.11
549.14	2066.87
549.50	2074.07
549.86	2081.57
550.21	2088.81
550.57	2095.91
550.92	2102.58
551.28	2109.63
551.64	2116.65
551.99	2123.13
552.35	2129.31
552.70	2135.32
553.06	2141.33
553.41	2147.81
553.77	2153.77
554.13	2159.65
554.48	2165.74
554.84	2171.21
555.19	2176.37
555.55	2181.45
555.90	2185.91
556.26	2190.96
556.61	2195.52
556.97	2199.96
557.32	2204.20
557.68	2208.28
558.03	2212.41
558.39	2216.04
558.74	2220.54
559.10	2224.42
559.45	2228.14
559.81	2232.43
560.16	2236.28
560.52	2239.52
560.87	2242.75
561.23	2245.50
561.58	2248.30
561.94	2250.97
562.29	2253.26
562.64	2256.28
563.00	2258.75
563.35	2262.37
563.71	2265.58
564.06	2268.70
564.42	2271.72
564.77	2274.38
565.12	2276.96
565.48	2279.00
565.83	2280.93
566.19	2282.50
566.54	2283.32
566.89	2284.57
567.25	2285.22
567.60	2286.29
567.96	2287.96
568.31	2288.91
568.66	2289.95
569.02	2290.65
569.37	2290.94
569.72	2291.96
570.08	2292.11
570.43	2292.30
570.78	2291.81
571.14	2290.17
571.49	2288.93
571.84	2288.45
572.20	2287.29
572.55	2286.11
572.90	2284.55
573.26	2283.17
573.61	2281.38
573.96	2280.00
574.31	2277.00
574.67	2274.03
575.02	2270.61
575.37	2267.26
575.72	2263.57
576.08	2260.17
576.43	2256.89
576.78	2253.33
577.13	2250.03
577.49	2246.75
577.84	2243.36
578.19	2239.42
578.54	2236.03
578.90	2231.95
579.25	2226.58
579.60	2221.91
579.95	2217.16
580.30	2212.27
580.66	2207.07
581.01	2202.10
581.36	2197.09
581.71	2193.07
582.06	2188.79
582.42	2184.43
582.77	2179.38
583.12	2174.92
583.47	2170.51
583.82	2165.70
584.17	2160.67
584.53	2155.28
584.88	2149.89
585.23	2144.21
585.58	2138.89
585.93	2133.57
586.28	2128.77
586.63	2123.84
586.98	2118.57
587.34	2113.76
587.69	2108.77
588.04	2103.76
588.39	2098.25
588.74	2091.83
589.09	2085.79
589.44	2079.09
589.79	2073.05
590.14	2067.35
590.49	2060.75
590.84	2054.21
591.19	2048.37
591.54	2041.87
591.89	2034.79
592.25	2028.24
592.60	2021.02
592.95	2013.71
593.30	2006.31
593.65	1998.69
594.00	1991.60
594.35	1984.45
594.70	1976.34
595.05	1969.51
595.40	1962.27
595.75	1954.94
596.10	1949.01
596.45	1942.35
596.80	1936.22
597.15	1929.82
597.50	1923.04
597.85	1916.67
598.19	1910.31
598.54	1903.34
598.89	1896.83
599.24	1890.87
599.59	1884.26
599.94	1878.09
600.29	1871.61
600.64	1865.05
600.99	1857.93
601.34	1851.18
601.69	1844.25
602.04	1837.58
602.39	1830.21
602.74	1823.54
603.08	1816.77
603.43	1809.89
603.78	1802.65
604.13	1795.47
604.48	1788.38
604.83	1781.56
605.18	1774.88
605.53	1766.89
605.87	1758.85
606.22	1751.52
606.57	1743.51
606.92	1735.85
607.27	1728.92
607.62	1722.14
607.96	1715.02
608.31	1708.63
608.66	1701.20
609.01	1693.76
609.36	1686.24
609.70	1678.21
610.05	1670.17
610.40	1662.46
610.75	1654.32
611.10	1646.70
611.44	1638.27
611.79	1630.05
612.14	1621.28
612.49	1611.86
612.83	1603.49
613.18	1595.32
613.53	1587.33
613.88	1578.91
614.22	1570.74
614.57	1562.03
614.92	1554.02
615.27	1546.56
615.61	1538.06
615.96	1529.89
616.31	1522.12
616.65	1514.80
617.00	1507.31
617.35	1499.61
617.70	1491.49
618.04	1482.91
618.39	1474.55
618.74	1467.19
619.08	1458.90
619.43	1451.40
619.78	1444.56
620.12	1437.52
620.47	1429.98
620.82	1421.68
621.16	1414.29
621.51	1406.71
621.85	1399.07
622.20	1390.62
622.55	1382.17
622.89	1374.29
623.24	1366.68
623.59	1359.35
623.93	1351.78
624.28	1344.62
624.62	1337.15
624.97	1329.89
625.32	1323.06
625.66	1316.01
626.01	1308.64
626.35	1301.41
626.70	1293.55
627.04	1285.84
627.39	1277.92
627.73	1270.56
628.08	1263.76
628.43	1256.58
628.77	1249.38
629.12	1241.86
629.46	1234.69
629.81	1227.21
630.15	1219.97
630.50	1212.56
630.84	1204.47
631.19	1196.55
631.53	1188.87
631.88	1181.14
632.22	1173.49
632.57	1166.27
632.91	1158.81
633.26	1151.48
633.60	1144.04
633.95	1136.89
634.29	1129.83
634.64	1123.17
634.98	1115.87
635.32	1108.69
635.67	1101.96
636.01	1095.21
636.36	1088.49
636.70	1081.92
637.05	1075.48
637.39	1069.02
637.73	1062.66
638.08	1056.72
638.42	1050.78
638.77	1044.43
639.11	1038.05
639.45	1031.69
639.80	1025.00
640.14	1018.64
640.49	1012.13
640.83	1005.76
641.17	999.73
641.52	993.51
641.86	987.04
642.20	981.21
642.55	974.81
642.89	968.42
643.23	961.88
643.58	956.05
643.92	949.99
644.26	943.98
644.61	937.97
644.95	931.90
645.29	925.31
645.64	918.52
645.98	912.14
646.32	906.16
646.66	900.19
647.01	894.39
647.35	888.68
647.69	882.85
648.04	877.29
648.38	871.44
648.72	865.46
649.06	859.46
649.41	853.54
649.75	847.66
650.09	841.68
650.43	836.00
650.78	829.86
651.12	823.89
651.46	818.09
651.80	812.40
652.14	807.01
652.49	801.77
652.83	796.64
653.17	791.13
653.51	785.46
653.85	779.99
654.20	774.40
654.54	768.40
654.88	762.65
655.22	756.80
655.56	751.04
655.90	745.53
656.25	740.25
656.59	734.92
656.93	729.87
657.27	724.76
657.61	719.25
657.95	714.17
658.29	709.01
658.64	703.67
658.98	698.25
659.32	692.72
659.66	687.42
660.00	682.15
660.34	677.19
660.68	672.34
661.02	667.36
661.36	662.64
661.70	658.16
662.05	653.75
662.39	649.46
662.73	645.00
663.07	640.61
663.41	636.21
663.75	631.75
664.09	627.14
664.43	622.73
664.77	618.67
665.11	614.41
665.45	610.24
665.79	606.23
666.13	602.15
666.47	598.08
666.81	593.95
667.15	589.82
667.49	585.80
667.83	581.88
668.17	577.93
668.51	573.85
668.85	569.81
669.19	565.95
669.53	562.10
669.87	558.29
670.21	554.60
670.55	550.92
670.89	547.44
671.23	544.06
671.57	540.55
671.91	537.04
672.25	533.52
672.58	530.06
672.92	526.68
673.26	523.49
673.60	520.27
673.94	517.20
674.28	514.24
674.62	511.32
674.96	508.24
675.30	505.31
675.64	502.43
675.97	499.58
676.31	496.67
676.65	493.76
676.99	491.05
677.33	488.18
677.67	485.40
678.01	482.37
678.34	479.39
678.68	476.51
679.02	473.67
679.36	470.91
679.70	468.16
680.04	465.38
680.37	462.59
680.71	459.86
681.05	457.20
681.39	454.52
681.73	451.78
682.06	449.33
682.40	446.82
682.74	444.33
683.08	441.81
683.42	439.24
683.75	436.74
684.09	434.12
684.43	431.68
684.77	429.19
685.10	426.86
685.44	424.47
685.78	422.16
686.12	419.92
686.45	417.61
686.79	415.32
687.13	413.12
687.46	410.92
687.80	408.74
688.14	406.52
688.48	404.46
688.81	402.32
689.15	400.13
689.49	397.91
689.82	395.79
690.16	393.69
690.50	391.74
690.83	389.81
691.17	387.85
691.51	385.92
691.84	384.05
692.18	382.15
692.52	380.25
692.85	378.29
693.19	376.38
693.52	374.58
693.86	372.73
694.20	370.96
694.53	369.18
694.87	367.32
695.21	365.51
695.54	363.63
695.88	361.86
696.21	360.11
696.55	358.43
696.88	356.72
697.22	355.03
697.56	353.36
697.89	351.70
698.23	350.14
698.56	348.49
698.90	347.01
699.23	345.35
699.57	343.83
699.90	342.32
700.24	340.79
700.58	339.24
700.91	337.77
701.25	336.30
701.58	334.92
701.92	333.56
702.25	332.21
702.59	330.89
702.92	329.57
703.26	328.27
703.59	327.02
703.93	325.84
704.26	324.64
704.60	323.37
704.93	322.08
705.26	320.80
705.60	319.60
705.93	318.35
706.27	317.29
706.60	316.23
706.94	315.12
707.27	313.97
707.61	312.86
707.94	311.81
708.27	310.70
708.61	309.64
708.94	308.69
709.28	307.69
709.61	306.70
709.94	305.73
710.28	304.70
710.61	303.69
710.95	302.58
711.28	301.68
711.61	300.73
711.95	299.86
712.28	298.93
712.61	297.96
712.95	297.05
713.28	296.15
713.61	295.21
713.95	294.33
714.28	293.50
714.61	292.67
714.95	291.81
715.28	290.98
715.61	290.09
715.95	289.16
716.28	288.30
716.61	287.45
716.95	286.64
717.28	285.92
717.61	285.12
717.94	284.42
718.28	283.60
718.61	282.87
718.94	282.15
719.27	281.49
719.61	280.90
719.94	280.23
720.27	279.50
720.60	278.82
720.94	278.21
721.27	277.61
721.60	277.04
721.93	276.43
722.27	275.90
722.60	275.35
722.93	274.79
723.26	274.25
723.59	273.73
723.93	273.17
724.26	272.63
724.59	272.08
724.92	271.55
725.25	271.05
725.59	270.55
725.92	270.04
726.25	269.54
726.58	268.99
726.91	268.51
727.24	268.05
727.57	267.58
727.91	267.08
728.24	266.62
728.57	266.11
728.90	265.67
729.23	265.15
729.56	264.71
729.89	264.27
730.22	263.78
730.55	263.28
730.89	262.78
731.22	262.30
731.55	261.87
731.88	261.45
732.21	260.99
732.54	260.55
732.87	260.14
733.20	259.70
733.53	259.30
733.86	258.91
734.19	258.53
734.52	258.18
734.85	257.86
735.18	257.42
735.51	257.09
735.84	256.69
736.17	256.34
736.50	255.92
736.83	255.68
737.16	255.38
737.49	255.08
737.82	254.79
738.15	254.51
738.48	254.18
738.81	253.86
739.14	253.52
739.47	253.20
739.80	252.86
740.13	252.54
740.46	252.25
740.79	251.94
741.12	251.62
741.45	251.29
741.78	250.96
742.11	250.70
742.44	250.37
742.77	250.09
743.10	249.80
743.43	249.54
743.75	249.16
744.08	248.97
744.41	248.71
744.74	248.43
745.07	248.16
745.40	247.94
745.73	247.71
746.06	247.48
746.39	247.24
746.71	246.99
747.04	246.75
747.37	246.50
747.70	246.25
748.03	245.99
748.36	245.78
748.68	245.53
749.01	245.27
749.34	245.06
749.67	244.87
750.00	244.67
750.33	244.47
750.65	244.25
750.98	243.93
751.31	243.72
751.64	243.51
751.97	243.31
752.29	243.07
752.62	242.82
752.95	242.61
753.28	242.41
753.60	242.22
753.93	242.04
754.26	241.86
754.59	241.63
754.91	241.45
755.24	241.24
755.57	241.03
755.90	240.85
756.22	240.66
756.55	240.46
756.88	240.23
757.20	240.01
757.53	239.83
757.86	239.65
758.19	239.48
758.51	239.29
758.84	239.11
759.17	238.92
759.49	238.77
759.82	238.67
760.15	238.53
760.47	238.36
760.80	238.20
761.13	238.03
761.45	237.88
761.78	237.73
762.11	237.59
762.43	237.46
762.76	237.33
763.08	237.20
763.41	237.06
763.74	236.95
764.06	236.81
764.39	236.66
764.71	236.53
765.04	236.38
765.37	236.23
765.69	236.07
766.02	235.95
766.34	235.81
766.67	235.63
767.00	235.49
767.32	235.41
767.65	235.35
767.97	235.21
768.30	235.11
768.62	235.01
768.95	234.87
769.27	234.75
769.60	234.63
769.92	234.48
770.25	234.32
770.57	234.18
770.90	234.07
771.22	233.95
771.55	233.83
771.87	233.74
772.20	233.66
772.52	233.68
772.85	233.69
773.17	233.58
773.50	233.50
773.82	233.39
774.15	233.25
774.47	233.08
774.80	232.98
775.12	232.89
775.45	232.78
775.77	232.70
776.09	232.60
776.42	232.57
776.74	232.53
777.07	232.45
777.39	232.42
777.72	232.35
778.04	232.31
778.36	232.25
778.69	232.18
779.01	232.13
779.33	231.94
779.66	231.78
779.98	231.70
780.31	231.64
780.63	231.61
780.95	231.59
781.28	231.54
781.60	231.47
781.92	231.43
782.25	231.38
782.57	231.32
782.89	231.30
783.22	231.15
783.54	231.06
783.86	231.05
784.19	230.95
784.51	230.94
784.83	230.89
785.16	230.84
785.48	230.81
785.80	230.75
786.12	230.74
786.45	230.70
786.77	230.68
787.09	230.63
787.42	230.54
787.74	230.49
788.06	230.47
788.38	230.46
788.71	230.41
789.03	230.40
789.35	230.37
789.67	230.30
789.99	230.29
790.32	230.28
790.64	230.25
790.96	230.32
791.28	230.25
791.61	230.20
791.93	230.17
792.25	230.15
792.57	230.20
792.89	230.12
793.21	230.08
793.54	230.04
793.86	230.01
794.18	230.00
794.50	229.95
794.82	229.88
795.14	229.84
795.47	229.81
795.79	229.74
796.11	229.70
796.43	229.66
796.75	229.63
797.07	229.58
797.39	229.51
797.71	229.39
798.04	229.37
798.36	229.34
798.68	229.29
799.00	229.25
799.32	229.14
799.64	229.14
799.96	229.10
800.28	229.07
800.60	229.01
800.92	228.98
801.24	228.93
801.56	228.92
801.89	228.83
802.21	228.78
802.53	228.75
802.85	228.73
803.17	228.76
803.49	228.72
803.81	228.72
804.13	228.70
804.45	228.66
804.77	228.64
805.09	228.57
805.41	228.54
805.73	228.48
806.05	228.43
806.37	228.40
806.69	228.35
807.01	228.31
807.33	228.31
807.65	228.25
807.97	228.28
808.28	228.23
808.60	228.25
808.92	228.25
809.24	228.32
809.56	228.27
809.88	228.17
810.20	228.18
810.52	228.14
810.84	228.08
811.16	228.06
811.48	227.98
811.80	228.01
812.12	227.95
812.43	227.95
812.75	227.94
813.07	227.90
813.39	227.90
813.71	227.87
814.03	227.82
814.35	227.80
814.67	227.75
814.98	227.76
815.30	227.70
815.62	227.65
815.94	227.51
816.26	227.55
816.58	227.53
816.89	227.50
817.21	227.48
817.53	227.51
817.85	227.50
818.17	227.52
818.48	227.45
818.80	227.49
819.12	227.46
819.44	227.44
819.76	227.43
820.07	227.40
820.39	227.38
820.71	227.37
821.03	227.39
821.34	227.35
821.66	227.33
821.98	227.35
822.30	227.35
822.61	227.43
822.93	227.36
823.25	227.37
823.57	227.35
823.88	227.38
824.20	227.35
824.52	227.37
824.83	227.38
825.15	227.37
825.47	227.36
825.79	227.36
826.10	227.34
826.42	227.33
826.74	227.35
827.05	227.35
827.37	227.32
827.69	227.28
828.00	227.27
828.32	227.25
828.64	227.27
828.95	227.29
829.27	227.27
829.58	227.26
829.90	227.28
830.22	227.28
830.53	227.20
830.85	227.17
831.17	227.14
831.48	227.12
831.80	227.12
832.11	227.09
832.43	227.06
832.75	227.06
833.06	227.11
833.38	227.06
833.69	227.05
834.01	227.08
834.32	227.09
834.64	227.09
834.96	227.10
835.27	227.05
835.59	227.03
835.90	226.99
836.22	226.95
836.53	226.93
836.85	226.92
837.16	227.03
837.48	227.05
837.79	227.08
838.11	227.05
838.42	227.07
838.74	227.09
839.05	227.10
839.37	227.08
839.68	227.04
840.00	227.05
840.31	227.07
840.63	227.03
840.94	227.02
841.26	226.98
841.57	226.93
841.88	226.94
842.20	226.90
842.51	226.89
842.83	226.90
843.14	226.94
843.46	226.96
843.77	226.87
844.08	226.85
844.40	226.79
844.71	226.77
845.03	226.72
845.34	226.69
845.65	226.61
845.97	226.58
846.28	226.55
846.60	226.52
846.91	226.49
847.22	226.46
847.54	226.45
847.85	226.47
848.16	226.46
848.48	226.40
848.79	226.40
849.10	226.38
849.42	226.39
849.73	226.30
850.04	226.26
850.36	226.22
850.67	226.21
850.98	226.21
851.30	226.23
851.61	226.21
851.92	226.18
852.23	226.23
852.55	226.23
852.86	226.23
853.17	226.23
853.49	226.24
853.80	226.26
854.11	226.22
854.42	226.21
854.74	226.21
855.05	226.22
855.36	226.19
855.67	226.24
855.99	226.24
856.30	226.35
856.61	226.32
856.92	226.30
857.23	226.28
857.55	226.25
857.86	226.24
858.17	226.26
858.48	226.26
858.79	226.24
859.11	226.25
859.42	226.25
859.73	226.22
860.04	226.21
860.35	226.21
860.66	226.22
860.98	226.24
861.29	226.22
861.60	226.22
861.91	226.24
862.22	226.19
862.53	226.15
862.84	226.04
863.16	226.06
863.47	226.07
863.78	226.06
864.09	226.10
864.40	226.10
864.71	226.10
865.02	226.10
865.33	226.08
865.64	226.06
865.95	226.04
866.27	226.13
866.58	226.11
866.89	226.10
867.20	226.09
867.51	226.11
867.82	226.13
868.13	226.19
868.44	226.20
868.75	226.21
869.06	226.26
869.37	226.27
869.68	226.27
869.99	226.27
870.30	226.32
870.61	226.34
870.92	226.32
871.23	226.30
871.54	226.35
871.85	226.40
872.16	226.43
872.47	226.44
872.78	226.39
873.09	226.43
873.40	226.40
873.71	226.41
874.02	226.39
874.33	226.41
874.64	226.37
874.95	226.37
875.26	226.35
875.56	226.34
875.87	226.34
876.18	226.32
876.49	226.42
876.80	226.39
877.11	226.35
877.42	226.36
877.73	226.35
878.04	226.33
878.35	226.29
878.66	226.29
878.96	226.26
879.27	226.25
879.58	226.23
879.89	226.25
880.20	226.27
880.51	226.26
880.82	226.22
881.12	226.21
881.43	226.17
881.74	226.15
882.05	226.13
882.36	226.11
882.67	226.11
882.97	226.00
883.28	225.97
883.59	225.98
883.90	225.99
884.21	226.03
884.51	226.01
884.82	226.00
885.13	226.00
885.44	226.00
885.74	225.98
886.05	225.95
886.36	225.92
886.67	225.87
886.98	225.91
887.28	225.91
887.59	225.90
887.90	225.94
888.20	225.95
888.51	225.94
888.82	225.95
889.13	225.97
889.43	226.03
889.74	225.98
890.05	225.96
890.35	225.92
890.66	225.89
890.97	225.87
891.28	225.85
891.58	225.83
891.89	225.82
892.20	225.82
892.50	225.80
892.81	225.83
893.12	225.84
893.42	225.78
893.73	225.79
894.04	225.79
894.34	225.76
894.65	225.72
894.95	225.74
895.26	225.75
895.57	225.80
895.87	225.72
896.18	225.77
896.48	225.77
896.79	225.79
897.10	225.78
897.40	225.76
897.71	225.79
898.01	225.78
898.32	225.82
898.63	225.82
898.93	225.80
899.24	225.81
899.54	225.82
899.85	225.81
900.15	225.80
900.46	225.81
900.76	225.80
901.07	225.85
901.38	225.84
901.68	225.85
901.99	225.77
902.29	225.79
902.60	225.81
902.90	225.82
903.21	225.81
903.51	225.82
903.82	225.86
904.12	225.81
904.43	225.84
904.73	225.82
905.03	225.83
905.34	225.98
905.64	225.98
905.95	225.96
906.25	225.97
906.56	225.99
906.86	226.00
907.17	226.00
907.47	226.02
907.77	226.02
908.08	226.00
908.38	226.03
908.69	226.03
908.99	226.03
909.30	226.02
909.60	226.04
909.90	226.04
910.21	226.03
910.51	226.06
910.81	226.04
911.12	226.04
911.42	226.08
911.73	225.98
912.03	225.99
912.33	226.02
912.64	226.05
912.94	226.02
913.24	226.01
913.55	226.04
913.85	226.00
914.15	226.03
914.46	226.04
914.76	226.01
915.06	226.02
915.37	226.02
915.67	226.02
915.97	226.03
916.27	225.99
916.58	225.99
916.88	225.96
917.18	225.98
917.49	226.07
917.79	226.01
918.09	226.03
918.39	226.04
918.70	226.03
919.00	225.98
919.30	226.04
919.60	226.04
919.91	226.00
920.21	226.03
920.51	225.96
920.81	225.95
921.12	225.98
921.42	225.96
921.72	225.95
922.02	225.97
922.32	225.95
922.63	225.99
922.93	226.02
923.23	226.05
923.53	226.04
923.83	225.92
924.13	225.94
924.44	225.91
924.74	225.90
925.04	225.91
925.34	225.93
925.64	225.87
925.94	225.87
926.24	225.90
926.55	225.88
926.85	225.92
927.15	225.91
927.45	225.87
927.75	225.92
928.05	225.91
928.35	225.88
928.65	225.90
928.95	225.89
929.26	225.85
929.56	225.89
929.86	225.91
930.16	225.94
930.46	225.93
930.76	225.92
931.06	225.88
931.36	225.84
931.66	225.87
931.96	225.90
932.26	225.88
932.56	225.88
932.86	225.87
933.16	225.86
933.46	225.86
933.76	225.88
934.06	225.88
934.36	225.91
934.66	225.90
934.96	225.88
935.26	225.93
935.56	225.96
935.86	225.91
936.16	225.87
936.46	225.83
936.76	225.83
937.06	225.82
937.36	225.83
937.66	225.85
937.96	225.86
938.26	225.82
938.56	225.82
938.86	225.79
939.16	225.85
939.46	225.83
939.76	225.86
940.06	225.88
940.35	225.85
940.65	225.84
940.95	225.89
941.25	225.89
941.55	225.85
941.85	225.84
942.15	225.86
942.45	225.92
942.75	225.94
943.04	225.96
943.34	225.98
943.64	226.01
943.94	226.00
944.24	226.02
944.54	226.03
944.84	226.03
945.13	226.02
945.43	225.97
945.73	225.96
946.03	225.95
946.33	225.92
946.62	225.91
946.92	225.86
947.22	225.84
947.52	225.84
947.82	225.85
948.11	225.84
948.41	225.83
948.71	225.79
949.01	225.80
949.31	225.79
949.60	225.80
949.90	225.81
950.20	225.79
950.50	225.75
950.79	225.74
951.09	225.78
951.39	225.77
951.69	225.80
951.98	225.85
952.28	225.86
952.58	225.83
952.87	225.82
953.17	225.87
953.47	225.84
953.76	225.85
954.06	225.82
954.36	225.80
954.66	225.78
954.95	225.79
955.25	225.79
955.55	225.79
955.84	225.75
956.14	225.74
956.44	225.72
956.73	225.72
957.03	225.73
957.32	225.73
957.62	225.74
957.92	225.75
958.21	225.74
958.51	225.81
958.81	225.83
959.10	225.83
959.40	225.84
959.69	225.88
959.99	225.88
960.29	225.87
960.58	225.87
960.88	225.92
961.17	225.94
961.47	225.93
961.76	225.88
962.06	225.90
962.36	225.88
962.65	225.88
962.95	225.85
963.24	225.84
963.54	225.81
963.83	225.81
964.13	225.75
964.42	225.70
964.72	225.63
965.01	225.65
965.31	225.67
965.60	225.61
965.90	225.65
966.19	225.65
966.49	225.65
966.78	225.64
967.08	225.63
967.37	225.57
967.67	225.55
967.96	225.59
968.26	225.54
968.55	225.55
968.85	225.60
969.14	225.59
969.43	225.59
969.73	225.58
970.02	225.58
970.32	225.59
970.61	225.59
970.91	225.53
971.20	225.49
971.49	225.49
971.79	225.50
972.08	225.41
972.38	225.39
972.67	225.42
972.96	225.43
973.26	225.42
973.55	225.46
973.85	225.45
974.14	225.43
974.43	225.49
974.73	225.48
975.02	225.44
975.31	225.44
975.61	225.45
975.90	225.47
976.19	225.44
976.49	225.44
976.78	225.47
977.07	225.51
977.37	225.55
977.66	225.53
977.95	225.53
978.24	225.59
978.54	225.61
978.83	225.59
979.12	225.62
979.42	225.62
979.71	225.61
980.00	225.62
980.29	225.66
980.59	225.63
980.88	225.67
981.17	225.66
981.46	225.68
981.76	225.69
982.05	225.75
982.34	225.78
982.63	225.82
982.93	225.81
983.22	225.84
983.51	225.82
983.80	225.87
984.09	225.88
984.39	225.88
984.68	225.86
984.97	225.86
985.26	225.82
985.55	225.84
985.85	225.84
986.14	225.89
986.43	225.87
986.72	225.87
987.01	225.86
987.30	225.93
987.59	225.93
987.89	225.97
988.18	225.93
988.47	225.89
988.76	225.89
989.05	225.88
989.34	225.87
989.63	225.93
989.92	225.90
990.22	225.89
990.51	225.87
990.80	225.88
991.09	225.87
991.38	225.90
991.67	225.88
991.96	225.83
992.25	225.81
992.54	225.80
992.83	225.82
993.12	225.81
993.41	225.78
993.70	225.81
993.99	225.81
994.28	225.80
994.58	225.86
994.87	225.84
995.16	225.85
995.45	225.86
995.74	225.81
996.03	225.82
996.32	225.86
996.61	225.87
996.90	225.86
997.19	225.86
997.48	225.86
997.77	225.83
998.06	225.86
998.34	225.85
998.63	225.84
998.92	225.84
999.21	225.84
999.50	225.84
999.79	225.78
1000.08	225.77
1000.37	225.77
1000.66	225.72
1000.95	225.75
1001.24	225.78
1001.53	225.75
1001.82	225.73
1002.11	225.70
1002.40	225.68
1002.68	225.68
1002.97	225.75
1003.26	225.77
1003.55	225.72
1003.84	225.73
1004.13	225.76
1004.42	225.74
1004.71	225.72
1004.99	225.70
1005.28	225.72
1005.57	225.69
1005.86	225.69
1006.15	225.70
1006.44	225.72
1006.72	225.72
1007.01	225.67
1007.30	225.64
1007.59	225.65
1007.88	225.66
1008.17	225.68
1008.45	225.66
1008.74	225.64
1009.03	225.61
1009.32	225.58
1009.60	225.62
1009.89	225.62
1010.18	225.56
1010.47	225.56
1010.76	225.55
1011.04	225.54
1011.33	225.53
1011.62	225.55
1011.91	225.56
1012.19	225.54
1012.48	225.52
1012.77	225.53
1013.05	225.59
1013.34	225.58
1013.63	225.56
1013.92	225.55
1014.20	225.53
1014.49	225.55
1014.78	225.55
1015.06	225.52
1015.35	225.49
1015.64	225.48
1015.92	225.49
1016.21	225.52
1016.50	225.53
1016.78	225.55
1017.07	225.55
1017.36	225.56
1017.64	225.54
1017.93	225.55
1018.22	225.53
1018.50	225.54
1018.79	225.55
1019.08	225.49
1019.36	225.50
1019.65	225.49
1019.93	225.54
1020.22	225.53
1020.51	225.55
1020.79	225.55
1021.08	225.19
1021.36	225.68
1021.65	226.03
1021.94	225.22
1022.22	225.65
1022.51	224.99
1022.79	226.49
1023.08	225.31
1023.36	226.36
1023.65	225.37
>>>>>End Processed Spectral Data<<<<<
