SpectraSuite Data File
++++++++++++++++++++++++++++++++++++
Date: Fri Feb 01 15:44:39 EST 2013
User: group
Dark Spectrum Present: No
Reference Spectrum Present: No
Number of Sampled Component Spectra: 1
Spectrometers: USB2E7196
Integration Time (usec): 35000 (USB2E7196)
Spectra Averaged: 100 (USB2E7196)
Boxcar Smoothing: 10 (USB2E7196)
Correct for Electrical Dark: No (USB2E7196)
Strobe/Lamp Enabled: No (USB2E7196)
Correct for Detector Non-linearity: No (USB2E7196)
Correct for Stray Light: No (USB2E7196)
Number of Pixels in Processed Spectrum: 2048
>>>>>Begin Processed Spectral Data<<<<<
339.09	0.00
339.48	215.48
339.86	216.56
340.24	218.11
340.63	219.54
341.01	222.31
341.39	221.66
341.78	222.87
342.16	223.95
342.54	224.69
342.93	213.33
343.31	224.10
343.69	224.62
344.07	225.09
344.46	225.48
344.84	225.87
345.22	226.09
345.60	226.35
345.99	226.53
346.37	226.68
346.75	226.78
347.13	226.84
347.52	226.89
347.90	226.94
348.28	226.94
348.66	226.96
349.05	226.95
349.43	226.99
349.81	227.05
350.19	227.11
350.57	227.16
350.96	227.24
351.34	227.33
351.72	227.39
352.10	227.50
352.48	227.59
352.87	227.64
353.25	227.69
353.63	227.75
354.01	227.82
354.39	227.92
354.77	227.99
355.15	228.11
355.54	228.16
355.92	228.19
356.30	228.27
356.68	228.43
357.06	228.49
357.44	228.54
357.82	228.60
358.20	228.64
358.58	228.71
358.97	228.74
359.35	228.83
359.73	228.91
360.11	228.94
360.49	228.99
360.87	229.01
361.25	229.07
361.63	229.15
362.01	229.22
362.39	229.24
362.77	229.29
363.15	229.28
363.53	229.30
363.91	229.33
364.29	229.34
364.67	229.22
365.05	229.23
365.43	229.28
365.81	229.28
366.19	229.36
366.57	229.37
366.95	229.37
367.33	229.33
367.71	229.28
368.09	229.28
368.47	229.26
368.85	229.24
369.23	229.24
369.61	229.18
369.99	229.18
370.37	229.16
370.75	229.17
371.13	229.14
371.51	229.09
371.89	229.05
372.27	229.01
372.65	228.98
373.03	228.94
373.41	228.84
373.78	228.78
374.16	228.67
374.54	228.56
374.92	228.50
375.30	228.44
375.68	228.37
376.06	228.28
376.44	228.18
376.82	228.10
377.19	227.97
377.57	227.90
377.95	227.77
378.33	227.66
378.71	227.53
379.09	227.48
379.47	227.41
379.84	227.33
380.22	227.23
380.60	227.16
380.98	227.07
381.36	226.98
381.73	226.91
382.11	226.85
382.49	226.79
382.87	226.73
383.25	226.68
383.62	226.73
384.00	226.66
384.38	226.63
384.76	226.62
385.13	226.66
385.51	226.62
385.89	226.59
386.27	226.57
386.64	226.56
387.02	226.51
387.40	226.46
387.78	226.45
388.15	226.42
388.53	226.38
388.91	226.36
389.29	226.39
389.66	226.39
390.04	226.37
390.42	226.36
390.79	226.32
391.17	226.29
391.55	226.18
391.92	226.19
392.30	226.19
392.68	226.18
393.05	226.13
393.43	226.13
393.81	226.12
394.18	226.08
394.56	226.07
394.94	226.12
395.31	226.14
395.69	226.18
396.06	226.24
396.44	226.31
396.82	226.34
397.19	226.42
397.57	226.45
397.95	226.51
398.32	226.54
398.70	226.61
399.07	226.70
399.45	226.79
399.82	226.86
400.20	226.93
400.58	227.00
400.95	227.06
401.33	227.17
401.70	227.34
402.08	227.43
402.45	227.52
402.83	227.60
403.20	227.69
403.58	227.78
403.95	227.89
404.33	228.01
404.71	228.14
405.08	228.33
405.46	228.46
405.83	228.62
406.21	228.79
406.58	228.93
406.96	229.09
407.33	229.24
407.70	229.41
408.08	229.64
408.45	229.87
408.83	230.11
409.20	230.30
409.58	230.50
409.95	230.74
410.33	231.00
410.70	231.23
411.08	231.52
411.45	231.86
411.82	232.16
412.20	232.50
412.57	232.92
412.95	233.18
413.32	233.60
413.69	233.99
414.07	234.43
414.44	234.93
414.82	235.36
415.19	235.93
415.56	236.49
415.94	237.06
416.31	237.71
416.68	238.32
417.06	239.03
417.43	239.67
417.81	240.47
418.18	241.23
418.55	242.08
418.93	242.96
419.30	243.84
419.67	244.79
420.04	245.75
420.42	246.70
420.79	247.88
421.16	249.00
421.54	250.17
421.91	251.36
422.28	252.61
422.66	254.00
423.03	255.31
423.40	256.62
423.77	258.00
424.15	259.40
424.52	260.90
424.89	262.52
425.26	264.10
425.64	265.54
426.01	267.16
426.38	268.83
426.75	270.52
427.13	272.24
427.50	274.03
427.87	275.91
428.24	277.83
428.61	279.59
428.99	281.56
429.36	283.66
429.73	285.75
430.10	287.79
430.47	289.82
430.85	291.95
431.22	294.21
431.59	296.60
431.96	298.87
432.33	301.36
432.70	303.75
433.08	306.56
433.45	309.24
433.82	311.84
434.19	314.75
434.56	317.58
434.93	320.27
435.30	322.91
435.68	325.81
436.05	328.57
436.42	331.35
436.79	333.86
437.16	336.59
437.53	339.42
437.90	342.24
438.27	345.04
438.64	347.87
439.01	350.46
439.38	352.70
439.75	354.86
440.13	357.34
440.50	359.65
440.87	361.49
441.24	363.44
441.61	365.61
441.98	367.07
442.35	368.86
442.72	370.75
443.09	372.58
443.46	373.62
443.83	374.22
444.20	374.73
444.57	375.59
444.94	375.83
445.31	376.16
445.68	376.50
446.05	376.53
446.42	376.15
446.79	375.75
447.16	375.29
447.53	374.96
447.90	373.78
448.27	372.65
448.64	371.06
449.01	369.85
449.37	367.87
449.74	365.95
450.11	363.72
450.48	361.19
450.85	358.60
451.22	356.37
451.59	354.38
451.96	352.46
452.33	349.85
452.70	347.49
453.07	344.64
453.43	341.74
453.80	338.94
454.17	336.23
454.54	333.68
454.91	330.95
455.28	328.26
455.65	325.80
456.02	323.31
456.38	321.18
456.75	318.54
457.12	316.28
457.49	314.09
457.86	311.91
458.23	310.04
458.59	308.01
458.96	305.98
459.33	304.12
459.70	302.20
460.07	300.70
460.43	299.02
460.80	297.43
461.17	295.98
461.54	294.49
461.91	293.08
462.27	291.62
462.64	290.37
463.01	289.07
463.38	287.77
463.74	286.44
464.11	285.26
464.48	284.24
464.85	283.19
465.21	282.31
465.58	281.39
465.95	280.33
466.32	279.44
466.68	278.52
467.05	277.64
467.42	276.76
467.78	275.83
468.15	275.02
468.52	274.37
468.88	273.54
469.25	272.79
469.62	272.18
469.98	271.52
470.35	270.87
470.72	270.26
471.08	269.62
471.45	269.07
471.82	268.55
472.18	267.94
472.55	267.48
472.92	266.96
473.28	266.51
473.65	265.99
474.02	265.53
474.38	265.18
474.75	264.86
475.11	264.54
475.48	264.29
475.85	264.04
476.21	263.80
476.58	263.61
476.94	263.46
477.31	263.31
477.67	263.15
478.04	263.11
478.41	263.03
478.77	263.09
479.14	263.02
479.50	263.03
479.87	263.13
480.23	263.24
480.60	263.32
480.96	263.42
481.33	263.71
481.69	263.91
482.06	264.11
482.42	264.27
482.79	264.50
483.15	264.82
483.52	265.16
483.88	265.46
484.25	265.84
484.61	266.26
484.98	266.71
485.34	267.28
485.71	267.86
486.07	268.45
486.44	268.98
486.80	269.70
487.17	270.42
487.53	271.23
487.90	272.03
488.26	272.98
488.62	273.97
488.99	274.93
489.35	276.00
489.72	277.12
490.08	278.33
490.44	279.59
490.81	280.87
491.17	282.28
491.54	283.80
491.90	285.36
492.26	287.02
492.63	288.72
492.99	290.48
493.36	292.32
493.72	294.39
494.08	296.48
494.45	298.70
494.81	301.11
495.17	303.55
495.54	306.10
495.90	308.79
496.26	311.54
496.63	314.49
496.99	317.58
497.35	320.84
497.72	324.23
498.08	327.75
498.44	331.42
498.80	335.31
499.17	339.33
499.53	343.50
499.89	347.84
500.26	352.39
500.62	357.07
500.98	362.04
501.34	367.09
501.71	372.39
502.07	377.86
502.43	383.46
502.79	389.23
503.16	395.33
503.52	401.53
503.88	407.95
504.24	414.58
504.60	421.44
504.97	428.61
505.33	435.93
505.69	443.64
506.05	451.47
506.41	459.36
506.78	467.52
507.14	476.00
507.50	484.82
507.86	493.82
508.22	503.02
508.59	512.21
508.95	521.78
509.31	531.63
509.67	541.72
510.03	552.01
510.39	562.62
510.75	573.33
511.12	584.33
511.48	595.64
511.84	607.15
512.20	618.69
512.56	630.53
512.92	642.68
513.28	654.99
513.64	667.43
514.00	680.06
514.37	692.97
514.73	705.97
515.09	718.96
515.45	732.21
515.81	745.87
516.17	759.90
516.53	774.04
516.89	788.26
517.25	802.39
517.61	816.73
517.97	831.13
518.33	845.67
518.69	860.43
519.05	875.38
519.41	890.45
519.77	906.00
520.13	921.58
520.49	936.99
520.85	952.44
521.21	968.14
521.57	984.41
521.93	1000.26
522.29	1016.73
522.65	1032.92
523.01	1049.23
523.37	1065.19
523.73	1081.41
524.09	1097.41
524.45	1113.65
524.81	1130.39
525.17	1147.29
525.53	1164.16
525.89	1181.00
526.25	1197.77
526.61	1214.18
526.97	1230.93
527.33	1247.41
527.68	1263.91
528.04	1280.41
528.40	1297.01
528.76	1314.16
529.12	1330.78
529.48	1347.54
529.84	1363.47
530.20	1380.17
530.56	1397.19
530.91	1414.61
531.27	1431.32
531.63	1447.87
531.99	1464.53
532.35	1480.32
532.71	1496.27
533.07	1512.60
533.42	1528.54
533.78	1544.64
534.14	1560.93
534.50	1576.31
534.86	1592.13
535.21	1607.40
535.57	1623.50
535.93	1639.02
536.29	1653.72
536.65	1668.80
537.00	1683.65
537.36	1698.95
537.72	1713.50
538.08	1727.82
538.44	1741.64
538.79	1755.52
539.15	1769.26
539.51	1782.93
539.87	1797.46
540.22	1811.15
540.58	1824.97
540.94	1838.39
541.29	1851.29
541.65	1863.95
542.01	1877.22
542.37	1889.55
542.72	1901.86
543.08	1913.51
543.44	1925.86
543.79	1937.13
544.15	1948.04
544.51	1959.49
544.87	1970.49
545.22	1981.28
545.58	1991.57
545.94	2001.27
546.29	2011.07
546.65	2020.86
547.01	2030.22
547.36	2038.88
547.72	2047.34
548.07	2055.11
548.43	2063.13
548.79	2071.23
549.14	2078.72
549.50	2086.08
549.86	2093.78
550.21	2101.23
550.57	2108.34
550.92	2114.93
551.28	2122.02
551.64	2129.10
551.99	2135.60
552.35	2141.79
552.70	2147.94
553.06	2153.83
553.41	2160.32
553.77	2166.36
554.13	2172.54
554.48	2178.68
554.84	2184.21
555.19	2189.47
555.55	2194.62
555.90	2199.14
556.26	2203.86
556.61	2208.62
556.97	2212.85
557.32	2216.89
557.68	2220.96
558.03	2225.32
558.39	2228.88
558.74	2233.42
559.10	2237.20
559.45	2240.87
559.81	2245.12
560.16	2248.86
560.52	2252.12
560.87	2255.45
561.23	2258.08
561.58	2260.97
561.94	2263.41
562.29	2265.75
562.64	2268.55
563.00	2271.20
563.35	2274.68
563.71	2277.85
564.06	2281.23
564.42	2284.03
564.77	2286.46
565.12	2288.61
565.48	2290.47
565.83	2292.36
566.19	2293.66
566.54	2294.66
566.89	2295.90
567.25	2296.47
567.60	2297.84
567.96	2299.45
568.31	2300.22
568.66	2301.41
569.02	2301.95
569.37	2302.13
569.72	2302.95
570.08	2302.86
570.43	2302.93
570.78	2302.29
571.14	2300.73
571.49	2299.26
571.84	2298.88
572.20	2297.91
572.55	2296.88
572.90	2295.32
573.26	2293.97
573.61	2292.25
573.96	2290.54
574.31	2287.47
574.67	2284.52
575.02	2280.83
575.37	2277.45
575.72	2273.63
576.08	2270.37
576.43	2267.13
576.78	2263.49
577.13	2260.24
577.49	2257.24
577.84	2253.63
578.19	2249.93
578.54	2246.32
578.90	2241.87
579.25	2236.43
579.60	2231.41
579.95	2226.45
580.30	2221.36
580.66	2216.30
581.01	2211.31
581.36	2206.23
581.71	2202.07
582.06	2197.52
582.42	2193.10
582.77	2187.84
583.12	2183.40
583.47	2178.58
583.82	2173.39
584.17	2168.25
584.53	2162.69
584.88	2157.09
585.23	2151.41
585.58	2145.88
585.93	2140.38
586.28	2135.70
586.63	2130.56
586.98	2125.57
587.34	2120.80
587.69	2116.01
588.04	2110.60
588.39	2105.01
588.74	2098.68
589.09	2092.59
589.44	2085.81
589.79	2079.86
590.14	2074.29
590.49	2067.63
590.84	2061.27
591.19	2055.34
591.54	2048.74
591.89	2041.39
592.25	2034.44
592.60	2027.17
592.95	2019.65
593.30	2012.44
593.65	2004.90
594.00	1997.83
594.35	1990.52
594.70	1982.44
595.05	1975.10
595.40	1967.85
595.75	1960.30
596.10	1953.96
596.45	1947.18
596.80	1941.01
597.15	1934.23
597.50	1927.03
597.85	1920.48
598.19	1913.79
598.54	1906.68
598.89	1900.08
599.24	1894.31
599.59	1887.58
599.94	1881.40
600.29	1875.05
600.64	1868.39
600.99	1860.97
601.34	1854.13
601.69	1847.16
602.04	1840.41
602.39	1833.13
602.74	1826.25
603.08	1819.60
603.43	1812.83
603.78	1805.60
604.13	1798.35
604.48	1791.08
604.83	1784.32
605.18	1777.34
605.53	1769.15
605.87	1761.03
606.22	1753.81
606.57	1745.79
606.92	1738.56
607.27	1731.35
607.62	1724.42
607.96	1717.05
608.31	1710.44
608.66	1702.89
609.01	1695.22
609.36	1687.47
609.70	1679.34
610.05	1671.31
610.40	1663.56
610.75	1655.16
611.10	1647.30
611.44	1638.94
611.79	1630.97
612.14	1622.24
612.49	1613.13
612.83	1604.93
613.18	1596.90
613.53	1588.78
613.88	1580.24
614.22	1571.92
614.57	1563.29
614.92	1555.19
615.27	1547.59
615.61	1539.20
615.96	1531.11
616.31	1523.57
616.65	1516.28
617.00	1508.74
617.35	1501.11
617.70	1492.69
618.04	1484.37
618.39	1476.20
618.74	1468.58
619.08	1460.18
619.43	1452.59
619.78	1445.59
620.12	1438.25
620.47	1430.73
620.82	1422.62
621.16	1415.20
621.51	1407.66
621.85	1400.01
622.20	1391.41
622.55	1383.08
622.89	1375.25
623.24	1367.68
623.59	1360.32
623.93	1352.70
624.28	1345.57
624.62	1338.06
624.97	1330.89
625.32	1324.12
625.66	1317.18
626.01	1309.95
626.35	1302.53
626.70	1294.80
627.04	1287.08
627.39	1279.39
627.73	1271.98
628.08	1264.96
628.43	1257.55
628.77	1250.10
629.12	1242.46
629.46	1235.39
629.81	1228.04
630.15	1220.79
630.50	1213.29
630.84	1205.04
631.19	1197.17
631.53	1189.65
631.88	1182.11
632.22	1174.51
632.57	1167.10
632.91	1159.44
633.26	1151.99
633.60	1144.68
633.95	1137.63
634.29	1130.70
634.64	1124.04
634.98	1116.63
635.32	1109.47
635.67	1103.00
636.01	1096.41
636.36	1089.63
636.70	1083.11
637.05	1076.52
637.39	1070.08
637.73	1063.60
638.08	1057.79
638.42	1051.89
638.77	1045.40
639.11	1038.68
639.45	1032.24
639.80	1025.70
640.14	1019.38
640.49	1012.93
640.83	1006.66
641.17	1000.36
641.52	993.97
641.86	987.59
642.20	981.79
642.55	975.53
642.89	969.00
643.23	962.44
643.58	956.66
643.92	950.48
644.26	944.38
644.61	938.30
644.95	932.25
645.29	925.57
645.64	918.79
645.98	912.46
646.32	906.69
646.66	900.72
647.01	894.98
647.35	889.19
647.69	883.36
648.04	877.74
648.38	871.97
648.72	865.96
649.06	859.83
649.41	853.95
649.75	847.97
650.09	841.97
650.43	836.24
650.78	830.18
651.12	824.27
651.46	818.60
651.80	812.88
652.14	807.52
652.49	802.17
652.83	797.04
653.17	791.31
653.51	785.60
653.85	780.19
654.20	774.46
654.54	768.48
654.88	762.71
655.22	756.91
655.56	751.26
655.90	745.87
656.25	740.68
656.59	735.25
656.93	730.18
657.27	725.07
657.61	719.59
657.95	714.48
658.29	709.38
658.64	704.08
658.98	698.82
659.32	693.30
659.66	688.11
660.00	682.78
660.34	677.90
660.68	672.93
661.02	667.88
661.36	663.13
661.70	658.66
662.05	654.31
662.39	649.92
662.73	645.40
663.07	640.96
663.41	636.48
663.75	631.96
664.09	627.43
664.43	623.03
664.77	618.89
665.11	614.58
665.45	610.40
665.79	606.33
666.13	602.17
666.47	598.04
666.81	593.90
667.15	589.77
667.49	585.88
667.83	582.16
668.17	578.28
668.51	574.24
668.85	570.22
669.19	566.44
669.53	562.57
669.87	558.71
670.21	555.04
670.55	551.37
670.89	547.98
671.23	544.50
671.57	541.03
671.91	537.49
672.25	534.08
672.58	530.59
672.92	527.16
673.26	524.00
673.60	520.92
673.94	517.79
674.28	514.86
674.62	511.85
674.96	508.71
675.30	505.79
675.64	502.87
675.97	500.14
676.31	497.23
676.65	494.30
676.99	491.53
677.33	488.65
677.67	485.90
678.01	482.90
678.34	479.91
678.68	476.99
679.02	474.20
679.36	471.38
679.70	468.65
680.04	465.93
680.37	463.05
680.71	460.25
681.05	457.66
681.39	454.99
681.73	452.36
682.06	449.86
682.40	447.33
682.74	444.78
683.08	442.21
683.42	439.60
683.75	437.12
684.09	434.62
684.43	432.17
684.77	429.68
685.10	427.30
685.44	425.01
685.78	422.76
686.12	420.49
686.45	418.21
686.79	415.93
687.13	413.72
687.46	411.57
687.80	409.42
688.14	407.21
688.48	405.14
688.81	402.92
689.15	400.77
689.49	398.59
689.82	396.53
690.16	394.47
690.50	392.55
690.83	390.59
691.17	388.62
691.51	386.71
691.84	384.85
692.18	382.93
692.52	380.97
692.85	379.02
693.19	377.15
693.52	375.36
693.86	373.62
694.20	371.85
694.53	370.04
694.87	368.19
695.21	366.41
695.54	364.56
695.88	362.86
696.21	361.12
696.55	359.44
696.88	357.76
697.22	356.07
697.56	354.47
697.89	352.81
698.23	351.22
698.56	349.59
698.90	348.00
699.23	346.36
699.57	344.85
699.90	343.32
700.24	341.80
700.58	340.25
700.91	338.71
701.25	337.24
701.58	335.85
701.92	334.51
702.25	333.12
702.59	331.77
702.92	330.42
703.26	329.09
703.59	327.81
703.93	326.62
704.26	325.42
704.60	324.09
704.93	322.86
705.26	321.60
705.60	320.46
705.93	319.30
706.27	318.31
706.60	317.25
706.94	316.18
707.27	315.00
707.61	313.94
707.94	312.89
708.27	311.78
708.61	310.70
708.94	309.69
709.28	308.75
709.61	307.77
709.94	306.82
710.28	305.81
710.61	304.83
710.95	303.78
711.28	302.79
711.61	301.83
711.95	300.85
712.28	299.90
712.61	298.93
712.95	298.03
713.28	297.10
713.61	296.15
713.95	295.25
714.28	294.48
714.61	293.60
714.95	292.73
715.28	291.87
715.61	291.05
715.95	290.20
716.28	289.30
716.61	288.47
716.95	287.65
717.28	286.95
717.61	286.15
717.94	285.39
718.28	284.62
718.61	283.90
718.94	283.25
719.27	282.61
719.61	281.92
719.94	281.25
720.27	280.55
720.60	279.90
720.94	279.27
721.27	278.64
721.60	278.04
721.93	277.45
722.27	276.91
722.60	276.32
722.93	275.75
723.26	275.24
723.59	274.69
723.93	274.16
724.26	273.55
724.59	273.03
724.92	272.53
725.25	272.03
725.59	271.52
725.92	270.97
726.25	270.44
726.58	269.93
726.91	269.42
727.24	268.96
727.57	268.45
727.91	267.93
728.24	267.44
728.57	266.97
728.90	266.52
729.23	266.04
729.56	265.64
729.89	265.16
730.22	264.66
730.55	264.17
730.89	263.70
731.22	263.27
731.55	262.81
731.88	262.35
732.21	261.92
732.54	261.48
732.87	261.06
733.20	260.69
733.53	260.33
733.86	259.94
734.19	259.56
734.52	259.24
734.85	258.94
735.18	258.57
735.51	258.19
735.84	257.82
736.17	257.48
736.50	257.07
736.83	256.84
737.16	256.53
737.49	256.22
737.82	255.90
738.15	255.61
738.48	255.30
738.81	255.02
739.14	254.73
739.47	254.44
739.80	254.13
740.13	253.84
740.46	253.51
740.79	253.18
741.12	252.89
741.45	252.56
741.78	252.21
742.11	251.93
742.44	251.64
742.77	251.38
743.10	251.10
743.43	250.78
743.75	250.40
744.08	250.23
744.41	249.93
744.74	249.68
745.07	249.38
745.40	249.13
745.73	248.88
746.06	248.57
746.39	248.31
746.71	248.05
747.04	247.81
747.37	247.55
747.70	247.30
748.03	247.03
748.36	246.79
748.68	246.55
749.01	246.33
749.34	246.09
749.67	245.81
750.00	245.56
750.33	245.41
750.65	245.18
750.98	244.87
751.31	244.68
751.64	244.43
751.97	244.29
752.29	244.07
752.62	243.85
752.95	243.63
753.28	243.40
753.60	243.20
753.93	242.99
754.26	242.83
754.59	242.61
754.91	242.42
755.24	242.26
755.57	242.08
755.90	241.86
756.22	241.69
756.55	241.52
756.88	241.30
757.20	241.06
757.53	240.89
757.86	240.72
758.19	240.55
758.51	240.40
758.84	240.15
759.17	239.96
759.49	239.76
759.82	239.69
760.15	239.50
760.47	239.32
760.80	239.13
761.13	238.97
761.45	238.84
761.78	238.71
762.11	238.55
762.43	238.38
762.76	238.23
763.08	238.08
763.41	237.95
763.74	237.84
764.06	237.70
764.39	237.55
764.71	237.38
765.04	237.26
765.37	237.12
765.69	236.99
766.02	236.84
766.34	236.71
766.67	236.52
767.00	236.48
767.32	236.44
767.65	236.36
767.97	236.21
768.30	236.07
768.62	235.93
768.95	235.78
769.27	235.68
769.60	235.59
769.92	235.46
770.25	235.34
770.57	235.23
770.90	235.11
771.22	235.01
771.55	234.93
771.87	234.83
772.20	234.71
772.52	234.72
772.85	234.75
773.17	234.68
773.50	234.58
773.82	234.45
774.15	234.31
774.47	234.17
774.80	234.08
775.12	234.02
775.45	233.91
775.77	233.85
776.09	233.80
776.42	233.71
776.74	233.66
777.07	233.57
777.39	233.51
777.72	233.44
778.04	233.40
778.36	233.32
778.69	233.25
779.01	233.20
779.33	233.03
779.66	232.87
779.98	232.78
780.31	232.72
780.63	232.69
780.95	232.67
781.28	232.64
781.60	232.59
781.92	232.51
782.25	232.46
782.57	232.39
782.89	232.31
783.22	232.25
783.54	232.14
783.86	232.13
784.19	232.07
784.51	232.04
784.83	231.96
785.16	231.91
785.48	231.85
785.80	231.81
786.12	231.76
786.45	231.72
786.77	231.67
787.09	231.64
787.42	231.56
787.74	231.49
788.06	231.42
788.38	231.39
788.71	231.34
789.03	231.31
789.35	231.28
789.67	231.22
789.99	231.18
790.32	231.15
790.64	231.09
790.96	231.17
791.28	231.13
791.61	231.08
791.93	231.05
792.25	231.00
792.57	231.01
792.89	230.95
793.21	230.90
793.54	230.86
793.86	230.79
794.18	230.77
794.50	230.72
794.82	230.70
795.14	230.64
795.47	230.64
795.79	230.61
796.11	230.56
796.43	230.50
796.75	230.47
797.07	230.44
797.39	230.39
797.71	230.26
798.04	230.22
798.36	230.17
798.68	230.15
799.00	230.10
799.32	230.03
799.64	230.03
799.96	230.00
800.28	229.97
800.60	229.95
800.92	229.93
801.24	229.92
801.56	229.89
801.89	229.89
802.21	229.85
802.53	229.79
802.85	229.82
803.17	229.86
803.49	229.82
803.81	229.81
804.13	229.78
804.45	229.74
804.77	229.73
805.09	229.74
805.41	229.71
805.73	229.68
806.05	229.60
806.37	229.60
806.69	229.60
807.01	229.56
807.33	229.54
807.65	229.45
807.97	229.47
808.28	229.44
808.60	229.42
808.92	229.38
809.24	229.41
809.56	229.36
809.88	229.31
810.20	229.30
810.52	229.27
810.84	229.24
811.16	229.26
811.48	229.22
811.80	229.22
812.12	229.21
812.43	229.22
812.75	229.21
813.07	229.16
813.39	229.13
813.71	229.10
814.03	229.06
814.35	229.04
814.67	228.98
814.98	228.98
815.30	228.94
815.62	228.92
815.94	228.86
816.26	228.87
816.58	228.83
816.89	228.83
817.21	228.78
817.53	228.78
817.85	228.72
818.17	228.69
818.48	228.61
818.80	228.59
819.12	228.54
819.44	228.49
819.76	228.47
820.07	228.47
820.39	228.47
820.71	228.48
821.03	228.48
821.34	228.44
821.66	228.41
821.98	228.42
822.30	228.39
822.61	228.44
822.93	228.37
823.25	228.36
823.57	228.35
823.88	228.37
824.20	228.34
824.52	228.34
824.83	228.32
825.15	228.31
825.47	228.28
825.79	228.29
826.10	228.30
826.42	228.29
826.74	228.23
827.05	228.23
827.37	228.21
827.69	228.20
828.00	228.19
828.32	228.17
828.64	228.13
828.95	228.20
829.27	228.14
829.58	228.14
829.90	228.13
830.22	228.12
830.53	228.06
830.85	228.06
831.17	228.04
831.48	228.02
831.80	228.04
832.11	228.05
832.43	228.06
832.75	228.06
833.06	228.11
833.38	228.10
833.69	228.10
834.01	228.10
834.32	228.09
834.64	228.10
834.96	228.12
835.27	228.12
835.59	228.06
835.90	228.06
836.22	228.02
836.53	228.01
836.85	228.01
837.16	228.12
837.48	228.15
837.79	228.18
838.11	228.16
838.42	228.15
838.74	228.13
839.05	228.10
839.37	228.05
839.68	227.97
840.00	227.98
840.31	227.97
840.63	227.94
840.94	227.93
841.26	227.91
841.57	227.87
841.88	227.87
842.20	227.85
842.51	227.82
842.83	227.83
843.14	227.94
843.46	227.89
843.77	227.83
844.08	227.80
844.40	227.77
844.71	227.78
845.03	227.76
845.34	227.76
845.65	227.75
845.97	227.76
846.28	227.79
846.60	227.75
846.91	227.70
847.22	227.68
847.54	227.65
847.85	227.68
848.16	227.66
848.48	227.64
848.79	227.66
849.10	227.68
849.42	227.70
849.73	227.54
850.04	227.54
850.36	227.46
850.67	227.47
850.98	227.43
851.30	227.42
851.61	227.41
851.92	227.41
852.23	227.42
852.55	227.40
852.86	227.38
853.17	227.42
853.49	227.46
853.80	227.50
854.11	227.53
854.42	227.48
854.74	227.50
855.05	227.47
855.36	227.43
855.67	227.42
855.99	227.39
856.30	227.50
856.61	227.51
856.92	227.52
857.23	227.45
857.55	227.46
857.86	227.43
858.17	227.43
858.48	227.37
858.79	227.35
859.11	227.36
859.42	227.35
859.73	227.30
860.04	227.30
860.35	227.27
860.66	227.21
860.98	227.18
861.29	227.18
861.60	227.19
861.91	227.20
862.22	227.16
862.53	227.15
862.84	227.02
863.16	227.04
863.47	227.00
863.78	227.04
864.09	227.04
864.40	227.07
864.71	227.10
865.02	227.12
865.33	227.08
865.64	227.08
865.95	227.12
866.27	227.21
866.58	227.19
866.89	227.17
867.20	227.18
867.51	227.18
867.82	227.16
868.13	227.20
868.44	227.17
868.75	227.17
869.06	227.17
869.37	227.19
869.68	227.14
869.99	227.18
870.30	227.21
870.61	227.23
870.92	227.21
871.23	227.15
871.54	227.17
871.85	227.19
872.16	227.20
872.47	227.17
872.78	227.11
873.09	227.12
873.40	227.10
873.71	227.13
874.02	227.16
874.33	227.11
874.64	227.10
874.95	227.10
875.26	227.10
875.56	227.12
875.87	227.13
876.18	227.12
876.49	227.21
876.80	227.17
877.11	227.15
877.42	227.16
877.73	227.19
878.04	227.20
878.35	227.21
878.66	227.20
878.96	227.20
879.27	227.18
879.58	227.20
879.89	227.22
880.20	227.20
880.51	227.19
880.82	227.22
881.12	227.18
881.43	227.18
881.74	227.16
882.05	227.15
882.36	227.15
882.67	227.16
882.97	227.06
883.28	227.05
883.59	227.03
883.90	227.04
884.21	227.06
884.51	227.01
884.82	226.99
885.13	226.99
885.44	226.98
885.74	226.99
886.05	226.98
886.36	226.97
886.67	226.97
886.98	227.03
887.28	227.05
887.59	227.06
887.90	227.07
888.20	227.09
888.51	227.10
888.82	227.07
889.13	227.11
889.43	227.22
889.74	227.18
890.05	227.18
890.35	227.16
890.66	227.13
890.97	227.17
891.28	227.16
891.58	227.16
891.89	227.18
892.20	227.15
892.50	227.15
892.81	227.15
893.12	227.15
893.42	227.07
893.73	227.05
894.04	227.01
894.34	227.02
894.65	226.96
894.95	226.99
895.26	226.99
895.57	227.00
895.87	226.88
896.18	226.95
896.48	226.95
896.79	226.94
897.10	226.96
897.40	226.93
897.71	226.96
898.01	226.95
898.32	226.93
898.63	226.95
898.93	226.96
899.24	226.97
899.54	226.95
899.85	226.98
900.15	226.99
900.46	227.03
900.76	227.03
901.07	227.05
901.38	227.02
901.68	227.06
901.99	227.00
902.29	227.03
902.60	226.99
902.90	226.99
903.21	226.98
903.51	226.97
903.82	227.01
904.12	227.00
904.43	226.99
904.73	227.00
905.03	226.96
905.34	227.03
905.64	227.01
905.95	227.03
906.25	227.02
906.56	227.02
906.86	227.03
907.17	227.04
907.47	227.02
907.77	227.01
908.08	226.97
908.38	226.98
908.69	226.98
908.99	227.02
909.30	227.02
909.60	227.02
909.90	227.01
910.21	226.96
910.51	226.96
910.81	226.99
911.12	227.00
911.42	227.03
911.73	226.96
912.03	226.97
912.33	226.98
912.64	226.97
912.94	226.96
913.24	226.94
913.55	226.94
913.85	226.98
914.15	227.00
914.46	227.03
914.76	227.05
915.06	227.04
915.37	226.97
915.67	226.97
915.97	227.02
916.27	227.00
916.58	227.02
916.88	227.02
917.18	226.97
917.49	227.03
917.79	227.04
918.09	227.05
918.39	227.10
918.70	227.11
919.00	227.12
919.30	227.17
919.60	227.19
919.91	227.18
920.21	227.16
920.51	227.16
920.81	227.15
921.12	227.16
921.42	227.15
921.72	227.21
922.02	227.19
922.32	227.15
922.63	227.15
922.93	227.19
923.23	227.19
923.53	227.23
923.83	227.18
924.13	227.18
924.44	227.18
924.74	227.16
925.04	227.19
925.34	227.17
925.64	227.11
925.94	227.06
926.24	227.11
926.55	227.13
926.85	227.14
927.15	227.16
927.45	227.12
927.75	227.11
928.05	227.10
928.35	227.12
928.65	227.20
928.95	227.21
929.26	227.20
929.56	227.17
929.86	227.17
930.16	227.13
930.46	227.12
930.76	227.11
931.06	227.08
931.36	227.05
931.66	227.07
931.96	227.11
932.26	227.13
932.56	227.09
932.86	227.09
933.16	227.07
933.46	227.06
933.76	227.07
934.06	227.10
934.36	227.12
934.66	227.08
934.96	226.99
935.26	227.03
935.56	227.03
935.86	227.04
936.16	227.02
936.46	227.00
936.76	227.01
937.06	226.96
937.36	226.98
937.66	226.96
937.96	226.96
938.26	226.91
938.56	226.90
938.86	226.88
939.16	226.88
939.46	226.87
939.76	226.87
940.06	226.88
940.35	226.84
940.65	226.77
940.95	226.80
941.25	226.82
941.55	226.75
941.85	226.74
942.15	226.77
942.45	226.77
942.75	226.78
943.04	226.76
943.34	226.81
943.64	226.75
943.94	226.77
944.24	226.76
944.54	226.75
944.84	226.73
945.13	226.71
945.43	226.70
945.73	226.70
946.03	226.66
946.33	226.63
946.62	226.64
946.92	226.68
947.22	226.68
947.52	226.66
947.82	226.70
948.11	226.68
948.41	226.64
948.71	226.59
949.01	226.61
949.31	226.58
949.60	226.52
949.90	226.56
950.20	226.54
950.50	226.51
950.79	226.53
951.09	226.57
951.39	226.61
951.69	226.59
951.98	226.59
952.28	226.62
952.58	226.62
952.87	226.61
953.17	226.60
953.47	226.62
953.76	226.64
954.06	226.60
954.36	226.59
954.66	226.58
954.95	226.63
955.25	226.65
955.55	226.70
955.84	226.75
956.14	226.76
956.44	226.76
956.73	226.79
957.03	226.79
957.32	226.78
957.62	226.75
957.92	226.79
958.21	226.80
958.51	226.94
958.81	226.98
959.10	227.00
959.40	227.05
959.69	227.04
959.99	227.06
960.29	227.10
960.58	227.09
960.88	227.15
961.17	227.15
961.47	227.15
961.76	227.14
962.06	227.14
962.36	227.13
962.65	227.14
962.95	227.12
963.24	227.15
963.54	227.16
963.83	227.19
964.13	227.18
964.42	227.17
964.72	227.08
965.01	227.06
965.31	227.04
965.60	227.00
965.90	227.08
966.19	227.04
966.49	227.03
966.78	227.05
967.08	227.05
967.37	227.05
967.67	227.05
967.96	227.03
968.26	227.05
968.55	227.07
968.85	227.06
969.14	227.08
969.43	227.07
969.73	227.08
970.02	227.06
970.32	227.03
970.61	227.01
970.91	226.96
971.20	226.98
971.49	227.00
971.79	227.01
972.08	226.91
972.38	226.91
972.67	226.92
972.96	226.91
973.26	226.88
973.55	226.92
973.85	226.91
974.14	226.93
974.43	226.94
974.73	226.87
975.02	226.85
975.31	226.84
975.61	226.82
975.90	226.80
976.19	226.82
976.49	226.84
976.78	226.86
977.07	226.86
977.37	226.85
977.66	226.86
977.95	226.83
978.24	226.86
978.54	226.90
978.83	226.88
979.12	226.88
979.42	226.87
979.71	226.82
980.00	226.80
980.29	226.80
980.59	226.76
980.88	226.81
981.17	226.81
981.46	226.78
981.76	226.74
982.05	226.76
982.34	226.75
982.63	226.72
982.93	226.74
983.22	226.74
983.51	226.73
983.80	226.71
984.09	226.72
984.39	226.68
984.68	226.66
984.97	226.67
985.26	226.69
985.55	226.68
985.85	226.67
986.14	226.68
986.43	226.65
986.72	226.64
987.01	226.62
987.30	226.62
987.59	226.65
987.89	226.69
988.18	226.65
988.47	226.63
988.76	226.62
989.05	226.57
989.34	226.55
989.63	226.58
989.92	226.56
990.22	226.55
990.51	226.58
990.80	226.58
991.09	226.60
991.38	226.59
991.67	226.59
991.96	226.58
992.25	226.60
992.54	226.61
992.83	226.62
993.12	226.60
993.41	226.64
993.70	226.70
993.99	226.70
994.28	226.72
994.58	226.74
994.87	226.74
995.16	226.74
995.45	226.78
995.74	226.73
996.03	226.74
996.32	226.78
996.61	226.81
996.90	226.79
997.19	226.77
997.48	226.74
997.77	226.74
998.06	226.74
998.34	226.73
998.63	226.74
998.92	226.73
999.21	226.78
999.50	226.77
999.79	226.68
1000.08	226.71
1000.37	226.68
1000.66	226.67
1000.95	226.71
1001.24	226.73
1001.53	226.75
1001.82	226.76
1002.11	226.76
1002.40	226.74
1002.68	226.73
1002.97	226.84
1003.26	226.81
1003.55	226.83
1003.84	226.83
1004.13	226.89
1004.42	226.85
1004.71	226.84
1004.99	226.86
1005.28	226.85
1005.57	226.85
1005.86	226.89
1006.15	226.86
1006.44	226.88
1006.72	226.90
1007.01	226.87
1007.30	226.89
1007.59	226.86
1007.88	226.86
1008.17	226.85
1008.45	226.84
1008.74	226.80
1009.03	226.70
1009.32	226.73
1009.60	226.74
1009.89	226.75
1010.18	226.71
1010.47	226.72
1010.76	226.70
1011.04	226.65
1011.33	226.65
1011.62	226.63
1011.91	226.66
1012.19	226.65
1012.48	226.63
1012.77	226.63
1013.05	226.70
1013.34	226.65
1013.63	226.65
1013.92	226.68
1014.20	226.71
1014.49	226.70
1014.78	226.71
1015.06	226.71
1015.35	226.69
1015.64	226.68
1015.92	226.69
1016.21	226.70
1016.50	226.71
1016.78	226.74
1017.07	226.79
1017.36	226.81
1017.64	226.81
1017.93	226.76
1018.22	226.77
1018.50	226.79
1018.79	226.75
1019.08	226.71
1019.36	226.73
1019.65	226.73
1019.93	226.76
1020.22	226.73
1020.51	226.80
1020.79	226.78
1021.08	226.53
1021.36	226.74
1021.65	226.04
1021.94	226.94
1022.22	226.74
1022.51	226.78
1022.79	227.68
1023.08	226.39
1023.36	228.01
1023.65	226.30
>>>>>End Processed Spectral Data<<<<<
