SpectraSuite Data File
++++++++++++++++++++++++++++++++++++
Date: Fri Feb 01 16:40:22 EST 2013
User: group
Dark Spectrum Present: No
Reference Spectrum Present: No
Number of Sampled Component Spectra: 1
Spectrometers: USB2E7196
Integration Time (usec): 35000 (USB2E7196)
Spectra Averaged: 100 (USB2E7196)
Boxcar Smoothing: 10 (USB2E7196)
Correct for Electrical Dark: No (USB2E7196)
Strobe/Lamp Enabled: No (USB2E7196)
Correct for Detector Non-linearity: No (USB2E7196)
Correct for Stray Light: No (USB2E7196)
Number of Pixels in Processed Spectrum: 2048
>>>>>Begin Processed Spectral Data<<<<<
339.09	0.00
339.48	213.67
339.86	215.30
340.24	216.23
340.63	217.83
341.01	220.89
341.39	220.63
341.78	222.21
342.16	222.96
342.54	223.81
342.93	212.04
343.31	222.78
343.69	223.29
344.07	223.72
344.46	224.15
344.84	224.51
345.22	224.73
345.60	224.98
345.99	225.15
346.37	225.26
346.75	225.34
347.13	225.38
347.52	225.42
347.90	225.49
348.28	225.52
348.66	225.56
349.05	225.54
349.43	225.59
349.81	225.63
350.19	225.67
350.57	225.74
350.96	225.80
351.34	225.83
351.72	225.93
352.10	226.03
352.48	226.09
352.87	226.15
353.25	226.23
353.63	226.29
354.01	226.35
354.39	226.44
354.77	226.51
355.15	226.64
355.54	226.70
355.92	226.72
356.30	226.77
356.68	226.87
357.06	226.96
357.44	227.00
357.82	227.07
358.20	227.16
358.58	227.21
358.97	227.27
359.35	227.38
359.73	227.48
360.11	227.56
360.49	227.63
360.87	227.67
361.25	227.73
361.63	227.81
362.01	227.85
362.39	227.90
362.77	227.97
363.15	227.99
363.53	228.04
363.91	228.08
364.29	228.13
364.67	228.07
365.05	228.10
365.43	228.11
365.81	228.14
366.19	228.17
366.57	228.22
366.95	228.22
367.33	228.22
367.71	228.18
368.09	228.17
368.47	228.17
368.85	228.19
369.23	228.19
369.61	228.14
369.99	228.18
370.37	228.15
370.75	228.14
371.13	228.13
371.51	228.08
371.89	228.09
372.27	228.08
372.65	228.08
373.03	228.04
373.41	228.00
373.78	227.93
374.16	227.86
374.54	227.76
374.92	227.70
375.30	227.62
375.68	227.56
376.06	227.52
376.44	227.46
376.82	227.38
377.19	227.32
377.57	227.23
377.95	227.13
378.33	227.07
378.71	226.95
379.09	226.86
379.47	226.81
379.84	226.72
380.22	226.61
380.60	226.50
380.98	226.44
381.36	226.39
381.73	226.33
382.11	226.30
382.49	226.22
382.87	226.15
383.25	226.12
383.62	226.17
384.00	226.08
384.38	226.02
384.76	225.98
385.13	225.94
385.51	225.90
385.89	225.82
386.27	225.79
386.64	225.77
387.02	225.72
387.40	225.66
387.78	225.61
388.15	225.57
388.53	225.55
388.91	225.50
389.29	225.45
389.66	225.43
390.04	225.41
390.42	225.44
390.79	225.42
391.17	225.39
391.55	225.28
391.92	225.27
392.30	225.28
392.68	225.23
393.05	225.24
393.43	225.24
393.81	225.26
394.18	225.23
394.56	225.23
394.94	225.27
395.31	225.28
395.69	225.33
396.06	225.40
396.44	225.42
396.82	225.47
397.19	225.55
397.57	225.58
397.95	225.61
398.32	225.62
398.70	225.67
399.07	225.76
399.45	225.85
399.82	225.88
400.20	225.94
400.58	226.04
400.95	226.10
401.33	226.20
401.70	226.32
402.08	226.44
402.45	226.55
402.83	226.65
403.20	226.75
403.58	226.84
403.95	226.94
404.33	227.02
404.71	227.14
405.08	227.32
405.46	227.46
405.83	227.62
406.21	227.73
406.58	227.88
406.96	228.02
407.33	228.16
407.70	228.37
408.08	228.64
408.45	228.86
408.83	229.09
409.20	229.29
409.58	229.48
409.95	229.70
410.33	229.98
410.70	230.24
411.08	230.56
411.45	230.86
411.82	231.18
412.20	231.58
412.57	231.99
412.95	232.26
413.32	232.67
413.69	233.06
414.07	233.53
414.44	234.00
414.82	234.51
415.19	235.04
415.56	235.61
415.94	236.13
416.31	236.79
416.68	237.39
417.06	238.12
417.43	238.82
417.81	239.61
418.18	240.37
418.55	241.19
418.93	242.02
419.30	242.95
419.67	243.85
420.04	244.82
420.42	245.82
420.79	247.03
421.16	248.19
421.54	249.37
421.91	250.61
422.28	251.87
422.66	253.16
423.03	254.47
423.40	255.77
423.77	257.19
424.15	258.56
424.52	260.03
424.89	261.58
425.26	263.11
425.64	264.58
426.01	266.15
426.38	267.81
426.75	269.51
427.13	271.19
427.50	273.00
427.87	274.84
428.24	276.67
428.61	278.37
428.99	280.29
429.36	282.34
429.73	284.33
430.10	286.32
430.47	288.36
430.85	290.46
431.22	292.68
431.59	295.04
431.96	297.29
432.33	299.77
432.70	302.14
433.08	304.95
433.45	307.52
433.82	310.09
434.19	312.94
434.56	315.69
434.93	318.31
435.30	320.88
435.68	323.75
436.05	326.54
436.42	329.31
436.79	331.81
437.16	334.53
437.53	337.35
437.90	340.13
438.27	342.85
438.64	345.65
439.01	348.22
439.38	350.43
439.75	352.53
440.13	354.98
440.50	357.25
440.87	359.07
441.24	360.98
441.61	363.13
441.98	364.62
442.35	366.42
442.72	368.27
443.09	370.12
443.46	371.10
443.83	371.70
444.20	372.21
444.57	373.02
444.94	373.26
445.31	373.66
445.68	373.99
446.05	374.10
446.42	373.74
446.79	373.32
447.16	372.86
447.53	372.54
447.90	371.41
448.27	370.31
448.64	368.73
449.01	367.62
449.37	365.66
449.74	363.74
450.11	361.52
450.48	359.01
450.85	356.48
451.22	354.37
451.59	352.33
451.96	350.39
452.33	347.78
452.70	345.44
453.07	342.57
453.43	339.69
453.80	336.91
454.17	334.22
454.54	331.69
454.91	329.02
455.28	326.41
455.65	323.95
456.02	321.52
456.38	319.36
456.75	316.69
457.12	314.46
457.49	312.27
457.86	310.14
458.23	308.33
458.59	306.28
458.96	304.19
459.33	302.37
459.70	300.52
460.07	299.06
460.43	297.35
460.80	295.75
461.17	294.36
461.54	292.85
461.91	291.45
462.27	290.01
462.64	288.76
463.01	287.41
463.38	286.11
463.74	284.75
464.11	283.63
464.48	282.65
464.85	281.55
465.21	280.71
465.58	279.78
465.95	278.71
466.32	277.83
466.68	276.96
467.05	276.09
467.42	275.23
467.78	274.30
468.15	273.47
468.52	272.80
468.88	271.96
469.25	271.21
469.62	270.61
469.98	269.96
470.35	269.34
470.72	268.74
471.08	268.11
471.45	267.56
471.82	267.00
472.18	266.40
472.55	265.97
472.92	265.49
473.28	265.06
473.65	264.63
474.02	264.21
474.38	263.87
474.75	263.53
475.11	263.20
475.48	262.96
475.85	262.74
476.21	262.53
476.58	262.37
476.94	262.27
477.31	262.09
477.67	261.97
478.04	261.87
478.41	261.83
478.77	261.88
479.14	261.87
479.50	261.92
479.87	261.99
480.23	262.09
480.60	262.16
480.96	262.26
481.33	262.47
481.69	262.70
482.06	262.86
482.42	263.07
482.79	263.32
483.15	263.63
483.52	264.01
483.88	264.36
484.25	264.72
484.61	265.16
484.98	265.62
485.34	266.16
485.71	266.73
486.07	267.32
486.44	267.87
486.80	268.58
487.17	269.32
487.53	270.17
487.90	271.00
488.26	271.93
488.62	272.94
488.99	273.89
489.35	274.87
489.72	276.03
490.08	277.27
490.44	278.51
490.81	279.81
491.17	281.12
491.54	282.61
491.90	284.17
492.26	285.78
492.63	287.48
492.99	289.28
493.36	291.20
493.72	293.28
494.08	295.37
494.45	297.62
494.81	299.95
495.17	302.34
495.54	304.92
495.90	307.58
496.26	310.34
496.63	313.31
496.99	316.45
497.35	319.71
497.72	323.08
498.08	326.60
498.44	330.30
498.80	334.32
499.17	338.35
499.53	342.53
499.89	346.91
500.26	351.44
500.62	356.06
500.98	360.96
501.34	366.00
501.71	371.32
502.07	376.72
502.43	382.38
502.79	388.24
503.16	394.29
503.52	400.57
503.88	406.96
504.24	413.60
504.60	420.46
504.97	427.54
505.33	434.85
505.69	442.58
506.05	450.30
506.41	458.15
506.78	466.28
507.14	474.73
507.50	483.42
507.86	492.44
508.22	501.63
508.59	510.94
508.95	520.53
509.31	530.36
509.67	540.49
510.03	550.75
510.39	561.29
510.75	572.09
511.12	582.99
511.48	594.25
511.84	605.69
512.20	617.13
512.56	629.09
512.92	641.22
513.28	653.56
513.64	666.03
514.00	678.66
514.37	691.52
514.73	704.42
515.09	717.45
515.45	730.73
515.81	744.31
516.17	758.16
516.53	772.23
516.89	786.26
517.25	800.33
517.61	814.73
517.97	829.09
518.33	843.43
518.69	858.08
519.05	873.00
519.41	888.06
519.77	903.55
520.13	918.84
520.49	934.12
520.85	949.34
521.21	964.95
521.57	981.08
521.93	996.84
522.29	1013.18
522.65	1029.37
523.01	1045.35
523.37	1061.32
523.73	1077.41
524.09	1093.46
524.45	1109.71
524.81	1126.29
525.17	1142.89
525.53	1159.66
525.89	1176.42
526.25	1193.25
526.61	1209.64
526.97	1226.21
527.33	1242.63
527.68	1259.10
528.04	1275.50
528.40	1292.02
528.76	1308.87
529.12	1325.42
529.48	1342.13
529.84	1358.00
530.20	1374.49
530.56	1391.29
530.91	1408.56
531.27	1425.22
531.63	1441.44
531.99	1458.00
532.35	1473.89
532.71	1489.68
533.07	1505.74
533.42	1521.57
533.78	1537.41
534.14	1553.49
534.50	1568.69
534.86	1584.36
535.21	1599.44
535.57	1615.19
535.93	1630.51
536.29	1645.27
536.65	1660.18
537.00	1674.79
537.36	1689.93
537.72	1704.24
538.08	1718.54
538.44	1732.09
538.79	1745.78
539.15	1759.18
539.51	1772.61
539.87	1786.79
540.22	1800.28
540.58	1813.78
540.94	1826.82
541.29	1839.46
541.65	1851.91
542.01	1864.99
542.37	1877.09
542.72	1889.33
543.08	1900.94
543.44	1913.12
543.79	1924.25
544.15	1934.92
544.51	1946.37
544.87	1957.39
545.22	1968.19
545.58	1978.40
545.94	1988.08
546.29	1997.91
546.65	2007.72
547.01	2016.99
547.36	2025.54
547.72	2033.96
548.07	2042.01
548.43	2050.16
548.79	2058.11
549.14	2065.74
549.50	2072.93
549.86	2080.50
550.21	2087.78
550.57	2095.08
550.92	2101.72
551.28	2108.83
551.64	2115.92
551.99	2122.32
552.35	2128.36
552.70	2134.35
553.06	2140.32
553.41	2146.63
553.77	2152.45
554.13	2158.56
554.48	2164.66
554.84	2170.25
555.19	2175.46
555.55	2180.49
555.90	2184.94
556.26	2189.91
556.61	2194.40
556.97	2198.92
557.32	2203.20
557.68	2207.23
558.03	2211.34
558.39	2214.90
558.74	2219.28
559.10	2223.17
559.45	2226.91
559.81	2231.07
560.16	2234.96
560.52	2238.23
560.87	2241.62
561.23	2244.29
561.58	2247.14
561.94	2249.55
562.29	2251.59
562.64	2254.45
563.00	2256.91
563.35	2260.30
563.71	2263.40
564.06	2266.63
564.42	2269.44
564.77	2272.01
565.12	2274.54
565.48	2276.58
565.83	2278.55
566.19	2279.99
566.54	2280.91
566.89	2282.07
567.25	2282.86
567.60	2284.05
567.96	2285.79
568.31	2286.77
568.66	2288.07
569.02	2288.82
569.37	2289.20
569.72	2290.31
570.08	2290.52
570.43	2290.80
570.78	2290.46
571.14	2289.07
571.49	2287.78
571.84	2287.47
572.20	2286.50
572.55	2285.44
572.90	2283.84
573.26	2282.57
573.61	2280.76
573.96	2279.08
574.31	2276.26
574.67	2273.25
575.02	2269.72
575.37	2266.37
575.72	2262.69
576.08	2259.27
576.43	2255.83
576.78	2252.40
577.13	2249.19
577.49	2246.04
577.84	2242.58
578.19	2238.96
578.54	2235.46
578.90	2231.46
579.25	2226.00
579.60	2221.05
579.95	2216.22
580.30	2211.35
580.66	2206.14
581.01	2201.34
581.36	2196.51
581.71	2192.38
582.06	2188.16
582.42	2183.93
582.77	2178.83
583.12	2174.28
583.47	2169.78
583.82	2165.17
584.17	2159.96
584.53	2154.65
584.88	2149.14
585.23	2143.60
585.58	2138.07
585.93	2132.66
586.28	2127.80
586.63	2122.85
586.98	2117.84
587.34	2113.11
587.69	2108.22
588.04	2103.20
588.39	2097.70
588.74	2091.37
589.09	2085.23
589.44	2078.54
589.79	2072.45
590.14	2066.89
590.49	2060.43
590.84	2053.97
591.19	2047.99
591.54	2041.59
591.89	2034.50
592.25	2027.94
592.60	2020.74
592.95	2013.45
593.30	2006.06
593.65	1998.51
594.00	1991.46
594.35	1984.16
594.70	1976.14
595.05	1969.12
595.40	1961.83
595.75	1954.38
596.10	1948.30
596.45	1941.77
596.80	1935.70
597.15	1929.25
597.50	1922.25
597.85	1915.75
598.19	1909.22
598.54	1902.25
598.89	1895.73
599.24	1889.76
599.59	1883.22
599.94	1876.98
600.29	1870.49
600.64	1863.87
600.99	1856.62
601.34	1850.02
601.69	1843.19
602.04	1836.40
602.39	1828.99
602.74	1822.32
603.08	1815.74
603.43	1809.13
603.78	1801.83
604.13	1794.66
604.48	1787.53
604.83	1780.64
605.18	1773.94
605.53	1766.07
605.87	1758.08
606.22	1750.76
606.57	1742.63
606.92	1735.02
607.27	1727.86
607.62	1721.08
607.96	1714.05
608.31	1707.54
608.66	1700.03
609.01	1692.61
609.36	1685.16
609.70	1677.18
610.05	1669.09
610.40	1661.44
610.75	1653.03
611.10	1645.37
611.44	1636.72
611.79	1628.63
612.14	1620.04
612.49	1610.76
612.83	1602.34
613.18	1594.06
613.53	1586.01
613.88	1577.62
614.22	1569.49
614.57	1560.91
614.92	1552.93
615.27	1545.52
615.61	1537.30
615.96	1529.12
616.31	1521.45
616.65	1514.05
617.00	1506.61
617.35	1499.01
617.70	1490.82
618.04	1482.36
618.39	1474.15
618.74	1466.81
619.08	1458.57
619.43	1451.00
619.78	1444.17
620.12	1437.11
620.47	1429.73
620.82	1421.58
621.16	1414.13
621.51	1406.55
621.85	1398.94
622.20	1390.45
622.55	1381.94
622.89	1374.08
623.24	1366.42
623.59	1358.91
623.93	1351.46
624.28	1344.23
624.62	1336.87
624.97	1329.63
625.32	1322.87
625.66	1315.89
626.01	1308.57
626.35	1301.27
626.70	1293.54
627.04	1285.82
627.39	1278.00
627.73	1270.52
628.08	1263.73
628.43	1256.55
628.77	1249.30
629.12	1241.83
629.46	1234.73
629.81	1227.20
630.15	1219.94
630.50	1212.62
630.84	1204.60
631.19	1196.70
631.53	1189.21
631.88	1181.62
632.22	1173.93
632.57	1166.65
632.91	1159.14
633.26	1151.88
633.60	1144.39
633.95	1137.25
634.29	1130.11
634.64	1123.46
634.98	1116.26
635.32	1109.05
635.67	1102.34
636.01	1095.67
636.36	1089.00
636.70	1082.43
637.05	1075.96
637.39	1069.55
637.73	1063.07
638.08	1057.13
638.42	1051.14
638.77	1044.76
639.11	1038.18
639.45	1031.93
639.80	1025.13
640.14	1018.76
640.49	1012.27
640.83	1005.95
641.17	999.83
641.52	993.66
641.86	987.08
642.20	981.13
642.55	974.72
642.89	968.39
643.23	961.71
643.58	955.92
643.92	949.74
644.26	943.75
644.61	937.64
644.95	931.61
645.29	925.06
645.64	918.39
645.98	912.01
646.32	906.06
646.66	899.96
647.01	894.33
647.35	888.61
647.69	882.68
648.04	877.10
648.38	871.23
648.72	865.24
649.06	859.31
649.41	853.50
649.75	847.67
650.09	841.71
650.43	836.02
650.78	829.84
651.12	823.89
651.46	818.21
651.80	812.51
652.14	807.11
652.49	801.78
652.83	796.48
653.17	790.90
653.51	785.21
653.85	779.84
654.20	774.15
654.54	768.14
654.88	762.41
655.22	756.56
655.56	750.84
655.90	745.34
656.25	740.13
656.59	734.68
656.93	729.50
657.27	724.36
657.61	718.88
657.95	713.72
658.29	708.62
658.64	703.27
658.98	697.95
659.32	692.44
659.66	687.23
660.00	681.98
660.34	676.93
660.68	672.01
661.02	666.92
661.36	662.26
661.70	657.80
662.05	653.44
662.39	649.17
662.73	644.72
663.07	640.30
663.41	635.83
663.75	631.40
664.09	626.86
664.43	622.43
664.77	618.38
665.11	614.16
665.45	610.02
665.79	605.94
666.13	601.86
666.47	597.76
666.81	593.55
667.15	589.36
667.49	585.42
667.83	581.60
668.17	577.67
668.51	573.57
668.85	569.45
669.19	565.59
669.53	561.78
669.87	557.93
670.21	554.22
670.55	550.55
670.89	547.14
671.23	543.73
671.57	540.20
671.91	536.69
672.25	533.17
672.58	529.69
672.92	526.27
673.26	523.02
673.60	519.91
673.94	516.85
674.28	513.94
674.62	511.05
674.96	507.93
675.30	505.06
675.64	502.17
675.97	499.41
676.31	496.56
676.65	493.51
676.99	490.79
677.33	487.99
677.67	485.24
678.01	482.19
678.34	479.24
678.68	476.43
679.02	473.56
679.36	470.79
679.70	468.05
680.04	465.33
680.37	462.55
680.71	459.69
681.05	457.07
681.39	454.36
681.73	451.68
682.06	449.16
682.40	446.64
682.74	444.08
683.08	441.52
683.42	438.90
683.75	436.47
684.09	433.88
684.43	431.34
684.77	428.84
685.10	426.51
685.44	424.24
685.78	421.91
686.12	419.69
686.45	417.44
686.79	415.10
687.13	412.89
687.46	410.72
687.80	408.56
688.14	406.27
688.48	404.20
688.81	401.99
689.15	399.85
689.49	397.63
689.82	395.51
690.16	393.40
690.50	391.44
690.83	389.51
691.17	387.55
691.51	385.71
691.84	383.85
692.18	381.93
692.52	379.93
692.85	377.96
693.19	376.07
693.52	374.21
693.86	372.46
694.20	370.66
694.53	368.87
694.87	367.05
695.21	365.27
695.54	363.44
695.88	361.70
696.21	359.99
696.55	358.33
696.88	356.69
697.22	355.03
697.56	353.39
697.89	351.73
698.23	350.13
698.56	348.47
698.90	346.92
699.23	345.30
699.57	343.74
699.90	342.24
700.24	340.65
700.58	339.14
700.91	337.60
701.25	336.18
701.58	334.79
701.92	333.45
702.25	332.09
702.59	330.77
702.92	329.47
703.26	328.12
703.59	326.84
703.93	325.60
704.26	324.39
704.60	323.10
704.93	321.80
705.26	320.55
705.60	319.33
705.93	318.11
706.27	317.06
706.60	315.98
706.94	314.88
707.27	313.78
707.61	312.69
707.94	311.66
708.27	310.53
708.61	309.42
708.94	308.39
709.28	307.41
709.61	306.41
709.94	305.40
710.28	304.42
710.61	303.42
710.95	302.41
711.28	301.48
711.61	300.59
711.95	299.68
712.28	298.77
712.61	297.80
712.95	296.88
713.28	295.95
713.61	295.04
713.95	294.19
714.28	293.36
714.61	292.49
714.95	291.63
715.28	290.78
715.61	289.93
715.95	289.07
716.28	288.20
716.61	287.37
716.95	286.57
717.28	285.82
717.61	285.06
717.94	284.32
718.28	283.54
718.61	282.78
718.94	282.10
719.27	281.42
719.61	280.82
719.94	280.17
720.27	279.49
720.60	278.86
720.94	278.25
721.27	277.67
721.60	277.13
721.93	276.57
722.27	276.04
722.60	275.50
722.93	274.94
723.26	274.41
723.59	273.88
723.93	273.32
724.26	272.76
724.59	272.21
724.92	271.69
725.25	271.19
725.59	270.66
725.92	270.15
726.25	269.66
726.58	269.16
726.91	268.69
727.24	268.27
727.57	267.79
727.91	267.24
728.24	266.75
728.57	266.27
728.90	265.77
729.23	265.29
729.56	264.86
729.89	264.37
730.22	263.93
730.55	263.48
730.89	263.04
731.22	262.63
731.55	262.21
731.88	261.76
732.21	261.33
732.54	260.89
732.87	260.44
733.20	259.99
733.53	259.62
733.86	259.21
734.19	258.79
734.52	258.40
734.85	258.09
735.18	257.67
735.51	257.31
735.84	256.98
736.17	256.62
736.50	256.20
736.83	255.97
737.16	255.61
737.49	255.25
737.82	254.91
738.15	254.56
738.48	254.21
738.81	253.89
739.14	253.55
739.47	253.24
739.80	252.94
740.13	252.67
740.46	252.34
740.79	252.02
741.12	251.69
741.45	251.39
741.78	251.05
742.11	250.80
742.44	250.47
742.77	250.15
743.10	249.81
743.43	249.54
743.75	249.20
744.08	249.01
744.41	248.74
744.74	248.48
745.07	248.21
745.40	247.97
745.73	247.73
746.06	247.45
746.39	247.18
746.71	246.92
747.04	246.61
747.37	246.35
747.70	246.10
748.03	245.83
748.36	245.56
748.68	245.32
749.01	245.06
749.34	244.82
749.67	244.60
750.00	244.41
750.33	244.26
750.65	244.01
750.98	243.73
751.31	243.46
751.64	243.26
751.97	243.08
752.29	242.88
752.62	242.64
752.95	242.46
753.28	242.28
753.60	242.09
753.93	241.94
754.26	241.74
754.59	241.51
754.91	241.31
755.24	241.13
755.57	240.90
755.90	240.70
756.22	240.51
756.55	240.32
756.88	240.14
757.20	239.94
757.53	239.73
757.86	239.52
758.19	239.40
758.51	239.24
758.84	239.05
759.17	238.87
759.49	238.72
759.82	238.58
760.15	238.39
760.47	238.24
760.80	238.06
761.13	237.93
761.45	237.79
761.78	237.66
762.11	237.57
762.43	237.47
762.76	237.34
763.08	237.20
763.41	237.07
763.74	236.93
764.06	236.73
764.39	236.63
764.71	236.50
765.04	236.34
765.37	236.18
765.69	236.05
766.02	235.90
766.34	235.75
766.67	235.62
767.00	235.54
767.32	235.49
767.65	235.42
767.97	235.31
768.30	235.23
768.62	235.13
768.95	234.99
769.27	234.88
769.60	234.78
769.92	234.64
770.25	234.55
770.57	234.42
770.90	234.36
771.22	234.23
771.55	234.13
771.87	234.06
772.20	233.96
772.52	233.91
772.85	233.93
773.17	233.83
773.50	233.73
773.82	233.61
774.15	233.45
774.47	233.27
774.80	233.16
775.12	233.08
775.45	232.98
775.77	232.89
776.09	232.80
776.42	232.75
776.74	232.73
777.07	232.62
777.39	232.54
777.72	232.44
778.04	232.38
778.36	232.30
778.69	232.22
779.01	232.15
779.33	232.04
779.66	231.88
779.98	231.82
780.31	231.76
780.63	231.72
780.95	231.70
781.28	231.63
781.60	231.55
781.92	231.40
782.25	231.32
782.57	231.24
782.89	231.17
783.22	231.08
783.54	231.00
783.86	230.97
784.19	230.90
784.51	230.87
784.83	230.81
785.16	230.74
785.48	230.69
785.80	230.66
786.12	230.60
786.45	230.54
786.77	230.49
787.09	230.42
787.42	230.33
787.74	230.25
788.06	230.24
788.38	230.19
788.71	230.16
789.03	230.13
789.35	230.11
789.67	230.05
789.99	229.99
790.32	229.93
790.64	229.88
790.96	229.90
791.28	229.82
791.61	229.77
791.93	229.73
792.25	229.70
792.57	229.69
792.89	229.64
793.21	229.62
793.54	229.56
793.86	229.54
794.18	229.52
794.50	229.49
794.82	229.42
795.14	229.36
795.47	229.33
795.79	229.29
796.11	229.23
796.43	229.19
796.75	229.17
797.07	229.13
797.39	229.08
797.71	228.97
798.04	228.93
798.36	228.88
798.68	228.86
799.00	228.81
799.32	228.75
799.64	228.72
799.96	228.69
800.28	228.66
800.60	228.62
800.92	228.61
801.24	228.57
801.56	228.56
801.89	228.57
802.21	228.57
802.53	228.51
802.85	228.51
803.17	228.52
803.49	228.48
803.81	228.45
804.13	228.44
804.45	228.42
804.77	228.45
805.09	228.43
805.41	228.39
805.73	228.34
806.05	228.32
806.37	228.29
806.69	228.24
807.01	228.21
807.33	228.20
807.65	228.11
807.97	228.13
808.28	228.11
808.60	228.11
808.92	228.10
809.24	228.15
809.56	228.15
809.88	228.12
810.20	228.13
810.52	228.12
810.84	228.07
811.16	228.02
811.48	227.95
811.80	227.98
812.12	227.95
812.43	227.95
812.75	227.92
813.07	227.89
813.39	227.89
813.71	227.85
814.03	227.80
814.35	227.78
814.67	227.71
814.98	227.67
815.30	227.61
815.62	227.54
815.94	227.48
816.26	227.48
816.58	227.42
816.89	227.40
817.21	227.34
817.53	227.36
817.85	227.35
818.17	227.37
818.48	227.29
818.80	227.31
819.12	227.27
819.44	227.23
819.76	227.22
820.07	227.19
820.39	227.18
820.71	227.15
821.03	227.14
821.34	227.11
821.66	227.12
821.98	227.15
822.30	227.13
822.61	227.16
822.93	227.08
823.25	227.07
823.57	227.05
823.88	227.07
824.20	227.02
824.52	227.05
824.83	227.03
825.15	227.02
825.47	226.96
825.79	226.97
826.10	226.95
826.42	226.95
826.74	226.92
827.05	226.91
827.37	226.90
827.69	226.90
828.00	226.87
828.32	226.83
828.64	226.78
828.95	226.81
829.27	226.76
829.58	226.74
829.90	226.73
830.22	226.72
830.53	226.68
830.85	226.68
831.17	226.63
831.48	226.56
831.80	226.55
832.11	226.57
832.43	226.52
832.75	226.51
833.06	226.51
833.38	226.50
833.69	226.49
834.01	226.49
834.32	226.50
834.64	226.48
834.96	226.49
835.27	226.48
835.59	226.46
835.90	226.41
836.22	226.43
836.53	226.39
836.85	226.37
837.16	226.43
837.48	226.43
837.79	226.46
838.11	226.48
838.42	226.49
838.74	226.50
839.05	226.54
839.37	226.52
839.68	226.48
840.00	226.47
840.31	226.49
840.63	226.49
840.94	226.46
841.26	226.45
841.57	226.46
841.88	226.47
842.20	226.44
842.51	226.43
842.83	226.41
843.14	226.48
843.46	226.45
843.77	226.42
844.08	226.42
844.40	226.38
844.71	226.39
845.03	226.39
845.34	226.38
845.65	226.34
845.97	226.37
846.28	226.37
846.60	226.39
846.91	226.38
847.22	226.39
847.54	226.42
847.85	226.46
848.16	226.46
848.48	226.45
848.79	226.49
849.10	226.51
849.42	226.53
849.73	226.46
850.04	226.52
850.36	226.48
850.67	226.47
850.98	226.48
851.30	226.52
851.61	226.47
851.92	226.45
852.23	226.48
852.55	226.46
852.86	226.49
853.17	226.48
853.49	226.48
853.80	226.48
854.11	226.46
854.42	226.43
854.74	226.41
855.05	226.42
855.36	226.38
855.67	226.37
855.99	226.36
856.30	226.46
856.61	226.41
856.92	226.40
857.23	226.41
857.55	226.38
857.86	226.30
858.17	226.32
858.48	226.30
858.79	226.30
859.11	226.27
859.42	226.20
859.73	226.17
860.04	226.20
860.35	226.17
860.66	226.14
860.98	226.16
861.29	226.15
861.60	226.11
861.91	226.12
862.22	226.12
862.53	226.10
862.84	226.00
863.16	226.04
863.47	226.05
863.78	226.05
864.09	226.09
864.40	226.10
864.71	226.10
865.02	226.10
865.33	226.09
865.64	226.07
865.95	226.09
866.27	226.15
866.58	226.10
866.89	226.12
867.20	226.10
867.51	226.08
867.82	226.10
868.13	226.14
868.44	226.13
868.75	226.12
869.06	226.12
869.37	226.14
869.68	226.10
869.99	226.12
870.30	226.12
870.61	226.11
870.92	226.11
871.23	226.11
871.54	226.12
871.85	226.13
872.16	226.20
872.47	226.21
872.78	226.15
873.09	226.16
873.40	226.16
873.71	226.18
874.02	226.18
874.33	226.17
874.64	226.12
874.95	226.13
875.26	226.12
875.56	226.12
875.87	226.11
876.18	226.11
876.49	226.21
876.80	226.15
877.11	226.16
877.42	226.18
877.73	226.19
878.04	226.18
878.35	226.19
878.66	226.18
878.96	226.20
879.27	226.20
879.58	226.20
879.89	226.17
880.20	226.22
880.51	226.20
880.82	226.21
881.12	226.21
881.43	226.19
881.74	226.19
882.05	226.20
882.36	226.19
882.67	226.19
882.97	226.08
883.28	226.09
883.59	226.08
883.90	226.09
884.21	226.09
884.51	226.13
884.82	226.09
885.13	226.09
885.44	226.08
885.74	226.09
886.05	226.06
886.36	226.09
886.67	226.04
886.98	226.09
887.28	226.09
887.59	226.13
887.90	226.13
888.20	226.12
888.51	226.17
888.82	226.15
889.13	226.15
889.43	226.21
889.74	226.22
890.05	226.20
890.35	226.20
890.66	226.18
890.97	226.10
891.28	226.10
891.58	226.11
891.89	226.10
892.20	226.07
892.50	226.10
892.81	226.06
893.12	226.08
893.42	226.01
893.73	226.00
894.04	226.00
894.34	226.00
894.65	225.98
894.95	225.93
895.26	225.96
895.57	225.99
895.87	225.91
896.18	225.89
896.48	225.86
896.79	225.83
897.10	225.83
897.40	225.87
897.71	225.86
898.01	225.82
898.32	225.85
898.63	225.85
898.93	225.85
899.24	225.87
899.54	225.87
899.85	225.87
900.15	225.85
900.46	225.82
900.76	225.82
901.07	225.85
901.38	225.85
901.68	225.84
901.99	225.79
902.29	225.79
902.60	225.79
902.90	225.84
903.21	225.83
903.51	225.81
903.82	225.83
904.12	225.82
904.43	225.83
904.73	225.81
905.03	225.81
905.34	225.87
905.64	225.89
905.95	225.88
906.25	225.88
906.56	225.88
906.86	225.88
907.17	225.87
907.47	225.86
907.77	225.84
908.08	225.80
908.38	225.82
908.69	225.82
908.99	225.83
909.30	225.81
909.60	225.82
909.90	225.84
910.21	225.82
910.51	225.81
910.81	225.81
911.12	225.83
911.42	225.85
911.73	225.75
912.03	225.71
912.33	225.74
912.64	225.76
912.94	225.78
913.24	225.79
913.55	225.81
913.85	225.83
914.15	225.85
914.46	225.87
914.76	225.88
915.06	225.89
915.37	225.87
915.67	225.88
915.97	225.87
916.27	225.90
916.58	225.89
916.88	225.89
917.18	225.93
917.49	225.97
917.79	225.96
918.09	225.99
918.39	226.01
918.70	226.00
919.00	225.99
919.30	226.02
919.60	226.03
919.91	226.01
920.21	225.97
920.51	225.97
920.81	225.96
921.12	225.98
921.42	226.00
921.72	226.04
922.02	226.03
922.32	226.03
922.63	226.02
922.93	226.10
923.23	226.13
923.53	226.11
923.83	226.05
924.13	226.09
924.44	226.08
924.74	226.10
925.04	226.12
925.34	226.11
925.64	226.05
925.94	226.00
926.24	226.05
926.55	226.06
926.85	226.06
927.15	226.07
927.45	226.04
927.75	226.03
928.05	226.01
928.35	226.01
928.65	226.05
928.95	226.04
929.26	225.98
929.56	225.99
929.86	225.98
930.16	225.97
930.46	225.91
930.76	225.91
931.06	225.84
931.36	225.81
931.66	225.80
931.96	225.80
932.26	225.83
932.56	225.80
932.86	225.77
933.16	225.75
933.46	225.73
933.76	225.72
934.06	225.72
934.36	225.76
934.66	225.75
934.96	225.72
935.26	225.70
935.56	225.71
935.86	225.62
936.16	225.62
936.46	225.62
936.76	225.62
937.06	225.61
937.36	225.61
937.66	225.63
937.96	225.61
938.26	225.60
938.56	225.59
938.86	225.57
939.16	225.57
939.46	225.55
939.76	225.55
940.06	225.54
940.35	225.48
940.65	225.44
940.95	225.46
941.25	225.40
941.55	225.37
941.85	225.38
942.15	225.42
942.45	225.46
942.75	225.46
943.04	225.47
943.34	225.48
943.64	225.50
943.94	225.47
944.24	225.53
944.54	225.55
944.84	225.55
945.13	225.55
945.43	225.55
945.73	225.57
946.03	225.56
946.33	225.58
946.62	225.60
946.92	225.60
947.22	225.57
947.52	225.62
947.82	225.67
948.11	225.63
948.41	225.62
948.71	225.55
949.01	225.56
949.31	225.56
949.60	225.53
949.90	225.54
950.20	225.56
950.50	225.54
950.79	225.53
951.09	225.54
951.39	225.56
951.69	225.58
951.98	225.62
952.28	225.65
952.58	225.62
952.87	225.67
953.17	225.70
953.47	225.72
953.76	225.70
954.06	225.69
954.36	225.70
954.66	225.70
954.95	225.77
955.25	225.77
955.55	225.78
955.84	225.78
956.14	225.79
956.44	225.82
956.73	225.80
957.03	225.81
957.32	225.86
957.62	225.85
957.92	225.86
958.21	225.86
958.51	225.98
958.81	226.00
959.10	226.00
959.40	226.01
959.69	226.02
959.99	226.05
960.29	226.07
960.58	226.06
960.88	226.11
961.17	226.08
961.47	226.10
961.76	226.11
962.06	226.16
962.36	226.14
962.65	226.12
962.95	226.15
963.24	226.14
963.54	226.11
963.83	226.13
964.13	226.12
964.42	226.08
964.72	225.98
965.01	226.01
965.31	225.99
965.60	225.97
965.90	226.04
966.19	226.02
966.49	225.99
966.78	225.99
967.08	225.98
967.37	225.98
967.67	225.94
967.96	225.95
968.26	225.92
968.55	225.93
968.85	225.92
969.14	225.89
969.43	225.87
969.73	225.84
970.02	225.82
970.32	225.82
970.61	225.83
970.91	225.81
971.20	225.75
971.49	225.72
971.79	225.68
972.08	225.59
972.38	225.60
972.67	225.59
972.96	225.58
973.26	225.53
973.55	225.51
973.85	225.49
974.14	225.48
974.43	225.48
974.73	225.43
975.02	225.41
975.31	225.39
975.61	225.37
975.90	225.35
976.19	225.32
976.49	225.32
976.78	225.28
977.07	225.28
977.37	225.28
977.66	225.28
977.95	225.26
978.24	225.25
978.54	225.24
978.83	225.20
979.12	225.18
979.42	225.17
979.71	225.18
980.00	225.17
980.29	225.16
980.59	225.13
980.88	225.16
981.17	225.14
981.46	225.16
981.76	225.15
982.05	225.21
982.34	225.19
982.63	225.18
982.93	225.21
983.22	225.21
983.51	225.22
983.80	225.22
984.09	225.26
984.39	225.25
984.68	225.21
984.97	225.26
985.26	225.25
985.55	225.30
985.85	225.31
986.14	225.33
986.43	225.38
986.72	225.34
987.01	225.35
987.30	225.37
987.59	225.38
987.89	225.41
988.18	225.35
988.47	225.36
988.76	225.38
989.05	225.39
989.34	225.38
989.63	225.42
989.92	225.42
990.22	225.42
990.51	225.44
990.80	225.45
991.09	225.47
991.38	225.50
991.67	225.47
991.96	225.48
992.25	225.47
992.54	225.44
992.83	225.47
993.12	225.45
993.41	225.50
993.70	225.53
993.99	225.56
994.28	225.57
994.58	225.61
994.87	225.59
995.16	225.57
995.45	225.54
995.74	225.51
996.03	225.55
996.32	225.56
996.61	225.60
996.90	225.62
997.19	225.61
997.48	225.62
997.77	225.60
998.06	225.58
998.34	225.59
998.63	225.57
998.92	225.59
999.21	225.63
999.50	225.58
999.79	225.55
1000.08	225.53
1000.37	225.54
1000.66	225.50
1000.95	225.50
1001.24	225.54
1001.53	225.59
1001.82	225.59
1002.11	225.55
1002.40	225.54
1002.68	225.56
1002.97	225.59
1003.26	225.60
1003.55	225.60
1003.84	225.63
1004.13	225.64
1004.42	225.66
1004.71	225.69
1004.99	225.68
1005.28	225.69
1005.57	225.71
1005.86	225.73
1006.15	225.72
1006.44	225.71
1006.72	225.75
1007.01	225.75
1007.30	225.74
1007.59	225.72
1007.88	225.70
1008.17	225.72
1008.45	225.74
1008.74	225.67
1009.03	225.65
1009.32	225.62
1009.60	225.60
1009.89	225.57
1010.18	225.56
1010.47	225.51
1010.76	225.45
1011.04	225.45
1011.33	225.54
1011.62	225.57
1011.91	225.57
1012.19	225.57
1012.48	225.56
1012.77	225.54
1013.05	225.58
1013.34	225.59
1013.63	225.54
1013.92	225.54
1014.20	225.53
1014.49	225.51
1014.78	225.52
1015.06	225.49
1015.35	225.50
1015.64	225.51
1015.92	225.55
1016.21	225.53
1016.50	225.55
1016.78	225.59
1017.07	225.59
1017.36	225.46
1017.64	225.40
1017.93	225.37
1018.22	225.36
1018.50	225.36
1018.79	225.38
1019.08	225.34
1019.36	225.33
1019.65	225.35
1019.93	225.41
1020.22	225.40
1020.51	225.45
1020.79	225.46
1021.08	225.16
1021.36	225.10
1021.65	225.81
1021.94	225.49
1022.22	225.68
1022.51	225.15
1022.79	226.08
1023.08	225.48
1023.36	226.61
1023.65	225.20
>>>>>End Processed Spectral Data<<<<<
