SpectraSuite Data File
++++++++++++++++++++++++++++++++++++
Date: Fri Feb 01 15:39:05 EST 2013
User: group
Dark Spectrum Present: No
Reference Spectrum Present: No
Number of Sampled Component Spectra: 1
Spectrometers: USB2E7196
Integration Time (usec): 35000 (USB2E7196)
Spectra Averaged: 100 (USB2E7196)
Boxcar Smoothing: 10 (USB2E7196)
Correct for Electrical Dark: No (USB2E7196)
Strobe/Lamp Enabled: No (USB2E7196)
Correct for Detector Non-linearity: No (USB2E7196)
Correct for Stray Light: No (USB2E7196)
Number of Pixels in Processed Spectrum: 2048
>>>>>Begin Processed Spectral Data<<<<<
339.09	0.00
339.48	215.07
339.86	215.95
340.24	217.70
340.63	218.79
341.01	221.66
341.39	221.78
341.78	222.98
342.16	224.58
342.54	224.85
342.93	213.14
343.31	223.92
343.69	224.43
344.07	224.92
344.46	225.36
344.84	225.75
345.22	225.99
345.60	226.25
345.99	226.43
346.37	226.54
346.75	226.63
347.13	226.72
347.52	226.80
347.90	226.85
348.28	226.87
348.66	226.87
349.05	226.87
349.43	226.88
349.81	226.95
350.19	226.98
350.57	227.04
350.96	227.10
351.34	227.19
351.72	227.31
352.10	227.40
352.48	227.46
352.87	227.51
353.25	227.58
353.63	227.66
354.01	227.75
354.39	227.86
354.77	227.94
355.15	228.04
355.54	228.08
355.92	228.09
356.30	228.18
356.68	228.37
357.06	228.43
357.44	228.48
357.82	228.53
358.20	228.61
358.58	228.67
358.97	228.77
359.35	228.81
359.73	228.88
360.11	228.91
360.49	228.96
360.87	229.00
361.25	229.05
361.63	229.10
362.01	229.15
362.39	229.15
362.77	229.16
363.15	229.20
363.53	229.24
363.91	229.26
364.29	229.27
364.67	229.17
365.05	229.23
365.43	229.24
365.81	229.27
366.19	229.31
366.57	229.37
366.95	229.35
367.33	229.34
367.71	229.32
368.09	229.32
368.47	229.32
368.85	229.32
369.23	229.34
369.61	229.28
369.99	229.25
370.37	229.23
370.75	229.27
371.13	229.19
371.51	229.14
371.89	229.12
372.27	229.07
372.65	229.03
373.03	228.96
373.41	228.92
373.78	228.84
374.16	228.72
374.54	228.62
374.92	228.57
375.30	228.49
375.68	228.40
376.06	228.34
376.44	228.24
376.82	228.17
377.19	228.05
377.57	227.99
377.95	227.90
378.33	227.80
378.71	227.69
379.09	227.66
379.47	227.61
379.84	227.54
380.22	227.44
380.60	227.32
380.98	227.25
381.36	227.18
381.73	227.11
382.11	227.07
382.49	227.03
382.87	226.96
383.25	226.90
383.62	226.96
384.00	226.86
384.38	226.83
384.76	226.80
385.13	226.79
385.51	226.74
385.89	226.67
386.27	226.65
386.64	226.60
387.02	226.53
387.40	226.45
387.78	226.42
388.15	226.41
388.53	226.40
388.91	226.37
389.29	226.33
389.66	226.32
390.04	226.29
390.42	226.29
390.79	226.25
391.17	226.23
391.55	226.15
391.92	226.15
392.30	226.15
392.68	226.11
393.05	226.15
393.43	226.17
393.81	226.16
394.18	226.17
394.56	226.21
394.94	226.23
395.31	226.28
395.69	226.33
396.06	226.38
396.44	226.44
396.82	226.45
397.19	226.55
397.57	226.60
397.95	226.66
398.32	226.66
398.70	226.75
399.07	226.84
399.45	226.86
399.82	226.93
400.20	226.97
400.58	227.08
400.95	227.10
401.33	227.24
401.70	227.42
402.08	227.51
402.45	227.58
402.83	227.73
403.20	227.83
403.58	227.96
403.95	228.10
404.33	228.23
404.71	228.38
405.08	228.58
405.46	228.71
405.83	228.85
406.21	229.01
406.58	229.16
406.96	229.34
407.33	229.56
407.70	229.79
408.08	230.09
408.45	230.30
408.83	230.56
409.20	230.72
409.58	230.87
409.95	231.17
410.33	231.42
410.70	231.66
411.08	231.95
411.45	232.24
411.82	232.52
412.20	232.89
412.57	233.29
412.95	233.57
413.32	234.01
413.69	234.44
414.07	234.90
414.44	235.37
414.82	235.88
415.19	236.39
415.56	236.92
415.94	237.46
416.31	238.10
416.68	238.69
417.06	239.42
417.43	240.13
417.81	240.85
418.18	241.66
418.55	242.49
418.93	243.38
419.30	244.26
419.67	245.23
420.04	246.19
420.42	247.17
420.79	248.39
421.16	249.52
421.54	250.71
421.91	251.88
422.28	253.14
422.66	254.42
423.03	255.74
423.40	257.06
423.77	258.45
424.15	259.86
424.52	261.33
424.89	262.94
425.26	264.50
425.64	265.92
426.01	267.50
426.38	269.17
426.75	270.86
427.13	272.55
427.50	274.31
427.87	276.18
428.24	278.05
428.61	279.74
428.99	281.67
429.36	283.78
429.73	285.90
430.10	287.93
430.47	289.99
430.85	292.15
431.22	294.40
431.59	296.79
431.96	299.09
432.33	301.60
432.70	303.95
433.08	306.77
433.45	309.47
433.82	312.10
434.19	315.00
434.56	317.79
434.93	320.49
435.30	323.15
435.68	326.03
436.05	328.86
436.42	331.69
436.79	334.18
437.16	336.86
437.53	339.68
437.90	342.45
438.27	345.20
438.64	347.98
439.01	350.58
439.38	352.80
439.75	354.94
440.13	357.42
440.50	359.76
440.87	361.62
441.24	363.54
441.61	365.64
441.98	367.14
442.35	368.95
442.72	370.81
443.09	372.55
443.46	373.54
443.83	374.17
444.20	374.67
444.57	375.50
444.94	375.80
445.31	376.14
445.68	376.50
446.05	376.60
446.42	376.25
446.79	375.81
447.16	375.37
447.53	375.05
447.90	373.88
448.27	372.75
448.64	371.12
449.01	369.98
449.37	368.03
449.74	366.11
450.11	363.85
450.48	361.38
450.85	358.90
451.22	356.73
451.59	354.67
451.96	352.72
452.33	350.14
452.70	347.76
453.07	344.91
453.43	342.01
453.80	339.22
454.17	336.51
454.54	333.95
454.91	331.23
455.28	328.54
455.65	326.05
456.02	323.53
456.38	321.40
456.75	318.71
457.12	316.44
457.49	314.20
457.86	312.02
458.23	310.15
458.59	308.12
458.96	306.04
459.33	304.17
459.70	302.28
460.07	300.78
460.43	299.08
460.80	297.48
461.17	296.03
461.54	294.52
461.91	293.07
462.27	291.66
462.64	290.38
463.01	289.04
463.38	287.71
463.74	286.40
464.11	285.25
464.48	284.26
464.85	283.17
465.21	282.34
465.58	281.41
465.95	280.32
466.32	279.40
466.68	278.49
467.05	277.59
467.42	276.71
467.78	275.79
468.15	274.90
468.52	274.24
468.88	273.38
469.25	272.62
469.62	272.03
469.98	271.37
470.35	270.73
470.72	270.14
471.08	269.53
471.45	268.96
471.82	268.39
472.18	267.74
472.55	267.31
472.92	266.77
473.28	266.31
473.65	265.85
474.02	265.41
474.38	265.06
474.75	264.73
475.11	264.39
475.48	264.10
475.85	263.86
476.21	263.59
476.58	263.43
476.94	263.26
477.31	263.11
477.67	262.97
478.04	262.89
478.41	262.80
478.77	262.87
479.14	262.83
479.50	262.86
479.87	262.95
480.23	263.04
480.60	263.07
480.96	263.16
481.33	263.37
481.69	263.57
482.06	263.75
482.42	264.01
482.79	264.26
483.15	264.56
483.52	264.99
483.88	265.38
484.25	265.72
484.61	266.20
484.98	266.61
485.34	267.12
485.71	267.70
486.07	268.34
486.44	268.89
486.80	269.59
487.17	270.30
487.53	271.12
487.90	272.00
488.26	272.94
488.62	273.93
488.99	274.93
489.35	275.95
489.72	277.10
490.08	278.29
490.44	279.51
490.81	280.90
491.17	282.22
491.54	283.68
491.90	285.29
492.26	286.90
492.63	288.67
492.99	290.43
493.36	292.31
493.72	294.32
494.08	296.43
494.45	298.67
494.81	301.04
495.17	303.46
495.54	305.99
495.90	308.74
496.26	311.53
496.63	314.47
496.99	317.60
497.35	320.87
497.72	324.28
498.08	327.85
498.44	331.52
498.80	335.39
499.17	339.43
499.53	343.56
499.89	347.99
500.26	352.48
500.62	357.16
500.98	362.09
501.34	367.16
501.71	372.49
502.07	377.93
502.43	383.55
502.79	389.40
503.16	395.49
503.52	401.74
503.88	408.12
504.24	414.76
504.60	421.66
504.97	428.75
505.33	436.05
505.69	443.77
506.05	451.51
506.41	459.44
506.78	467.62
507.14	476.09
507.50	484.79
507.86	493.90
508.22	503.11
508.59	512.38
508.95	521.96
509.31	531.73
509.67	541.81
510.03	552.13
510.39	562.66
510.75	573.45
511.12	584.44
511.48	595.76
511.84	607.26
512.20	618.76
512.56	630.62
512.92	642.82
513.28	655.21
513.64	667.69
514.00	680.44
514.37	693.44
514.73	706.51
515.09	719.53
515.45	732.76
515.81	746.29
516.17	760.24
516.53	774.40
516.89	788.56
517.25	802.84
517.61	817.24
517.97	831.73
518.33	846.10
518.69	860.81
519.05	875.78
519.41	890.87
519.77	906.33
520.13	921.94
520.49	937.24
520.85	952.64
521.21	968.47
521.57	984.63
521.93	1000.37
522.29	1016.74
522.65	1032.94
523.01	1049.16
523.37	1065.21
523.73	1081.41
524.09	1097.43
524.45	1113.79
524.81	1130.38
525.17	1147.29
525.53	1164.14
525.89	1181.13
526.25	1198.07
526.61	1214.56
526.97	1231.40
527.33	1247.94
527.68	1264.54
528.04	1281.17
528.40	1297.83
528.76	1314.91
529.12	1331.61
529.48	1348.51
529.84	1364.60
530.20	1381.39
530.56	1398.58
530.91	1416.10
531.27	1432.91
531.63	1449.48
531.99	1466.18
532.35	1482.20
532.71	1498.02
533.07	1514.35
533.42	1530.20
533.78	1546.09
534.14	1562.40
534.50	1577.66
534.86	1593.71
535.21	1608.80
535.57	1624.73
535.93	1640.19
536.29	1654.86
536.65	1669.97
537.00	1684.79
537.36	1700.03
537.72	1714.58
538.08	1728.87
538.44	1742.65
538.79	1756.47
539.15	1770.16
539.51	1783.82
539.87	1798.20
540.22	1811.90
540.58	1825.64
540.94	1839.12
541.29	1852.11
541.65	1864.78
542.01	1878.13
542.37	1890.39
542.72	1902.89
543.08	1914.59
543.44	1926.97
543.79	1938.18
544.15	1949.14
544.51	1960.67
544.87	1971.77
545.22	1982.59
545.58	1992.83
545.94	2002.64
546.29	2012.65
546.65	2022.44
547.01	2031.76
547.36	2040.44
547.72	2049.01
548.07	2056.91
548.43	2064.98
548.79	2073.02
549.14	2080.52
549.50	2087.78
549.86	2095.47
550.21	2102.74
550.57	2109.99
550.92	2116.47
551.28	2123.56
551.64	2130.58
551.99	2137.13
552.35	2143.17
552.70	2149.35
553.06	2155.36
553.41	2161.70
553.77	2167.57
554.13	2173.74
554.48	2179.78
554.84	2185.22
555.19	2190.48
555.55	2195.65
555.90	2200.08
556.26	2204.95
556.61	2209.85
556.97	2214.06
557.32	2218.13
557.68	2222.41
558.03	2226.84
558.39	2230.67
558.74	2235.37
559.10	2239.35
559.45	2242.96
559.81	2247.38
560.16	2251.07
560.52	2254.21
560.87	2257.61
561.23	2260.40
561.58	2263.46
561.94	2266.10
562.29	2268.44
562.64	2271.10
563.00	2273.75
563.35	2277.36
563.71	2280.55
564.06	2283.62
564.42	2286.60
564.77	2289.09
565.12	2291.29
565.48	2292.97
565.83	2294.84
566.19	2296.05
566.54	2296.98
566.89	2298.13
567.25	2298.71
567.60	2300.02
567.96	2301.61
568.31	2302.53
568.66	2303.58
569.02	2303.98
569.37	2304.20
569.72	2304.99
570.08	2305.06
570.43	2305.01
570.78	2304.37
571.14	2302.69
571.49	2301.24
571.84	2300.84
572.20	2299.67
572.55	2298.66
572.90	2297.26
573.26	2295.77
573.61	2294.10
573.96	2292.08
574.31	2289.03
574.67	2285.81
575.02	2282.24
575.37	2279.02
575.72	2274.95
576.08	2271.63
576.43	2268.24
576.78	2264.39
577.13	2261.27
577.49	2258.20
577.84	2254.69
578.19	2250.96
578.54	2247.33
578.90	2243.09
579.25	2237.57
579.60	2232.63
579.95	2227.62
580.30	2222.45
580.66	2217.31
581.01	2212.35
581.36	2207.44
581.71	2203.25
582.06	2198.80
582.42	2194.12
582.77	2188.71
583.12	2184.15
583.47	2179.32
583.82	2174.21
584.17	2168.99
584.53	2163.54
584.88	2157.70
585.23	2151.91
585.58	2146.41
585.93	2140.99
586.28	2136.25
586.63	2130.97
586.98	2125.82
587.34	2121.03
587.69	2116.15
588.04	2110.73
588.39	2104.83
588.74	2098.41
589.09	2092.18
589.44	2085.50
589.79	2079.68
590.14	2074.07
590.49	2067.58
590.84	2061.25
591.19	2055.23
591.54	2048.87
591.89	2041.33
592.25	2034.64
592.60	2027.40
592.95	2019.75
593.30	2012.26
593.65	2004.65
594.00	1997.77
594.35	1990.53
594.70	1982.38
595.05	1975.09
595.40	1967.87
595.75	1960.56
596.10	1954.23
596.45	1947.51
596.80	1941.25
597.15	1934.50
597.50	1927.34
597.85	1920.89
598.19	1914.12
598.54	1907.15
598.89	1900.47
599.24	1894.65
599.59	1887.91
599.94	1881.66
600.29	1875.34
600.64	1868.83
600.99	1861.34
601.34	1854.44
601.69	1847.46
602.04	1840.59
602.39	1833.18
602.74	1826.33
603.08	1819.54
603.43	1812.95
603.78	1805.61
604.13	1798.32
604.48	1791.00
604.83	1784.16
605.18	1777.10
605.53	1769.09
605.87	1761.13
606.22	1753.92
606.57	1745.85
606.92	1738.58
607.27	1731.36
607.62	1724.35
607.96	1717.01
608.31	1710.30
608.66	1702.65
609.01	1695.17
609.36	1687.59
609.70	1679.54
610.05	1671.45
610.40	1663.64
610.75	1655.23
611.10	1647.52
611.44	1639.10
611.79	1631.04
612.14	1622.30
612.49	1613.10
612.83	1604.65
613.18	1596.39
613.53	1588.33
613.88	1579.90
614.22	1571.56
614.57	1562.99
614.92	1554.96
615.27	1547.35
615.61	1539.07
615.96	1531.01
616.31	1523.32
616.65	1515.90
617.00	1508.33
617.35	1500.60
617.70	1492.32
618.04	1483.84
618.39	1475.66
618.74	1468.01
619.08	1459.78
619.43	1452.18
619.78	1445.37
620.12	1438.18
620.47	1430.55
620.82	1422.29
621.16	1414.86
621.51	1407.32
621.85	1399.64
622.20	1391.12
622.55	1382.69
622.89	1374.87
623.24	1367.24
623.59	1359.90
623.93	1352.38
624.28	1345.18
624.62	1337.70
624.97	1330.71
625.32	1323.87
625.66	1316.82
626.01	1309.76
626.35	1302.29
626.70	1294.50
627.04	1286.76
627.39	1279.11
627.73	1271.78
628.08	1264.86
628.43	1257.44
628.77	1249.98
629.12	1242.50
629.46	1235.37
629.81	1228.13
630.15	1220.82
630.50	1213.48
630.84	1205.24
631.19	1197.43
631.53	1189.87
631.88	1182.34
632.22	1174.57
632.57	1167.35
632.91	1159.78
633.26	1152.37
633.60	1144.97
633.95	1138.00
634.29	1130.90
634.64	1124.10
634.98	1116.74
635.32	1109.62
635.67	1103.17
636.01	1096.60
636.36	1089.77
636.70	1083.21
637.05	1076.51
637.39	1070.08
637.73	1063.52
638.08	1057.66
638.42	1051.62
638.77	1045.14
639.11	1038.47
639.45	1032.14
639.80	1025.42
640.14	1019.06
640.49	1012.46
640.83	1006.22
641.17	999.96
641.52	993.69
641.86	987.40
642.20	981.64
642.55	975.35
642.89	968.77
643.23	962.18
643.58	956.39
643.92	950.22
644.26	944.18
644.61	938.15
644.95	932.14
645.29	925.45
645.64	918.69
645.98	912.42
646.32	906.67
646.66	900.56
647.01	894.75
647.35	889.02
647.69	883.22
648.04	877.64
648.38	871.87
648.72	865.85
649.06	859.72
649.41	853.76
649.75	847.73
650.09	841.77
650.43	836.03
650.78	829.86
651.12	823.92
651.46	818.24
651.80	812.49
652.14	807.02
652.49	801.77
652.83	796.60
653.17	790.92
653.51	785.21
653.85	779.81
654.20	774.19
654.54	768.18
654.88	762.39
655.22	756.57
655.56	750.80
655.90	745.31
656.25	740.10
656.59	734.72
656.93	729.63
657.27	724.46
657.61	719.03
657.95	713.95
658.29	708.89
658.64	703.58
658.98	698.30
659.32	692.90
659.66	687.62
660.00	682.25
660.34	677.31
660.68	672.40
661.02	667.37
661.36	662.63
661.70	658.13
662.05	653.82
662.39	649.43
662.73	644.98
663.07	640.61
663.41	636.14
663.75	631.71
664.09	627.18
664.43	622.84
664.77	618.69
665.11	614.47
665.45	610.27
665.79	606.22
666.13	602.10
666.47	598.02
666.81	593.85
667.15	589.82
667.49	585.98
667.83	582.13
668.17	578.18
668.51	574.12
668.85	570.11
669.19	566.27
669.53	562.50
669.87	558.66
670.21	555.00
670.55	551.33
670.89	547.77
671.23	544.37
671.57	540.84
671.91	537.32
672.25	533.82
672.58	530.31
672.92	526.89
673.26	523.72
673.60	520.56
673.94	517.45
674.28	514.51
674.62	511.51
674.96	508.46
675.30	505.56
675.64	502.62
675.97	499.84
676.31	496.99
676.65	494.01
676.99	491.26
677.33	488.35
677.67	485.53
678.01	482.58
678.34	479.58
678.68	476.72
679.02	473.91
679.36	471.11
679.70	468.45
680.04	465.71
680.37	462.81
680.71	460.03
681.05	457.37
681.39	454.63
681.73	452.00
682.06	449.40
682.40	446.86
682.74	444.38
683.08	441.83
683.42	439.24
683.75	436.72
684.09	434.22
684.43	431.78
684.77	429.34
685.10	427.00
685.44	424.73
685.78	422.45
686.12	420.15
686.45	417.89
686.79	415.52
687.13	413.33
687.46	411.19
687.80	409.04
688.14	406.88
688.48	404.85
688.81	402.61
689.15	400.53
689.49	398.40
689.82	396.33
690.16	394.28
690.50	392.28
690.83	390.34
691.17	388.34
691.51	386.44
691.84	384.55
692.18	382.62
692.52	380.61
692.85	378.69
693.19	376.84
693.52	375.02
693.86	373.25
694.20	371.47
694.53	369.69
694.87	367.86
695.21	366.08
695.54	364.24
695.88	362.55
696.21	360.84
696.55	359.16
696.88	357.45
697.22	355.79
697.56	354.21
697.89	352.56
698.23	350.99
698.56	349.39
698.90	347.84
699.23	346.21
699.57	344.69
699.90	343.17
700.24	341.63
700.58	340.10
700.91	338.59
701.25	337.14
701.58	335.78
701.92	334.42
702.25	333.03
702.59	331.66
702.92	330.31
703.26	328.97
703.59	327.69
703.93	326.51
704.26	325.29
704.60	324.00
704.93	322.73
705.26	321.45
705.60	320.28
705.93	319.12
706.27	318.03
706.60	316.98
706.94	315.84
707.27	314.73
707.61	313.68
707.94	312.67
708.27	311.56
708.61	310.50
708.94	309.50
709.28	308.49
709.61	307.56
709.94	306.61
710.28	305.55
710.61	304.58
710.95	303.52
711.28	302.58
711.61	301.59
711.95	300.67
712.28	299.70
712.61	298.71
712.95	297.78
713.28	296.93
713.61	295.99
713.95	295.13
714.28	294.30
714.61	293.45
714.95	292.58
715.28	291.76
715.61	290.84
715.95	289.97
716.28	289.15
716.61	288.32
716.95	287.51
717.28	286.83
717.61	286.05
717.94	285.34
718.28	284.54
718.61	283.85
718.94	283.19
719.27	282.57
719.61	281.92
719.94	281.28
720.27	280.53
720.60	279.89
720.94	279.25
721.27	278.67
721.60	278.05
721.93	277.50
722.27	276.95
722.60	276.40
722.93	275.83
723.26	275.29
723.59	274.74
723.93	274.20
724.26	273.65
724.59	273.09
724.92	272.55
725.25	272.05
725.59	271.55
725.92	271.06
726.25	270.55
726.58	270.08
726.91	269.59
727.24	269.15
727.57	268.69
727.91	268.21
728.24	267.74
728.57	267.27
728.90	266.81
729.23	266.33
729.56	265.92
729.89	265.48
730.22	264.99
730.55	264.52
730.89	264.07
731.22	263.60
731.55	263.16
731.88	262.73
732.21	262.33
732.54	261.89
732.87	261.47
733.20	261.04
733.53	260.65
733.86	260.25
734.19	259.84
734.52	259.48
734.85	259.17
735.18	258.73
735.51	258.39
735.84	258.00
736.17	257.65
736.50	257.24
736.83	257.00
737.16	256.68
737.49	256.31
737.82	255.96
738.15	255.65
738.48	255.34
738.81	255.02
739.14	254.68
739.47	254.35
739.80	254.04
740.13	253.74
740.46	253.42
740.79	253.10
741.12	252.82
741.45	252.47
741.78	252.13
742.11	251.87
742.44	251.50
742.77	251.23
743.10	250.92
743.43	250.64
743.75	250.25
744.08	250.12
744.41	249.85
744.74	249.60
745.07	249.31
745.40	249.06
745.73	248.81
746.06	248.52
746.39	248.29
746.71	248.02
747.04	247.74
747.37	247.48
747.70	247.23
748.03	246.98
748.36	246.77
748.68	246.51
749.01	246.29
749.34	246.09
749.67	245.85
750.00	245.63
750.33	245.46
750.65	245.27
750.98	244.94
751.31	244.75
751.64	244.52
751.97	244.40
752.29	244.18
752.62	243.95
752.95	243.74
753.28	243.51
753.60	243.29
753.93	243.13
754.26	242.94
754.59	242.72
754.91	242.52
755.24	242.30
755.57	242.13
755.90	241.94
756.22	241.75
756.55	241.57
756.88	241.36
757.20	241.13
757.53	240.94
757.86	240.75
758.19	240.59
758.51	240.47
758.84	240.23
759.17	240.06
759.49	239.90
759.82	239.81
760.15	239.69
760.47	239.55
760.80	239.40
761.13	239.25
761.45	239.08
761.78	238.92
762.11	238.77
762.43	238.63
762.76	238.45
763.08	238.32
763.41	238.20
763.74	238.08
764.06	237.96
764.39	237.82
764.71	237.69
765.04	237.55
765.37	237.41
765.69	237.26
766.02	237.11
766.34	236.96
766.67	236.79
767.00	236.71
767.32	236.60
767.65	236.53
767.97	236.46
768.30	236.35
768.62	236.27
768.95	236.18
769.27	236.07
769.60	235.96
769.92	235.82
770.25	235.67
770.57	235.53
770.90	235.38
771.22	235.27
771.55	235.16
771.87	235.07
772.20	234.94
772.52	234.95
772.85	234.98
773.17	234.92
773.50	234.85
773.82	234.71
774.15	234.62
774.47	234.43
774.80	234.28
775.12	234.18
775.45	234.10
775.77	234.01
776.09	233.95
776.42	233.85
776.74	233.79
777.07	233.72
777.39	233.65
777.72	233.57
778.04	233.50
778.36	233.40
778.69	233.32
779.01	233.23
779.33	233.05
779.66	232.88
779.98	232.78
780.31	232.68
780.63	232.64
780.95	232.56
781.28	232.51
781.60	232.47
781.92	232.40
782.25	232.29
782.57	232.21
782.89	232.13
783.22	232.11
783.54	232.02
783.86	231.99
784.19	231.93
784.51	231.93
784.83	231.86
785.16	231.80
785.48	231.72
785.80	231.69
786.12	231.69
786.45	231.63
786.77	231.56
787.09	231.52
787.42	231.46
787.74	231.41
788.06	231.38
788.38	231.29
788.71	231.24
789.03	231.23
789.35	231.21
789.67	231.13
789.99	231.09
790.32	231.07
790.64	231.00
790.96	231.06
791.28	231.00
791.61	230.95
791.93	230.93
792.25	230.92
792.57	230.94
792.89	230.84
793.21	230.80
793.54	230.78
793.86	230.72
794.18	230.66
794.50	230.62
794.82	230.60
795.14	230.56
795.47	230.58
795.79	230.55
796.11	230.52
796.43	230.53
796.75	230.50
797.07	230.46
797.39	230.44
797.71	230.30
798.04	230.25
798.36	230.24
798.68	230.21
799.00	230.15
799.32	230.06
799.64	230.09
799.96	230.06
800.28	230.07
800.60	230.02
800.92	230.01
801.24	229.95
801.56	229.93
801.89	229.90
802.21	229.86
802.53	229.80
802.85	229.76
803.17	229.75
803.49	229.71
803.81	229.70
804.13	229.66
804.45	229.66
804.77	229.66
805.09	229.62
805.41	229.57
805.73	229.52
806.05	229.50
806.37	229.46
806.69	229.42
807.01	229.36
807.33	229.34
807.65	229.31
807.97	229.37
808.28	229.33
808.60	229.34
808.92	229.34
809.24	229.37
809.56	229.35
809.88	229.28
810.20	229.27
810.52	229.25
810.84	229.22
811.16	229.18
811.48	229.13
811.80	229.13
812.12	229.10
812.43	229.13
812.75	229.08
813.07	229.04
813.39	229.06
813.71	229.03
814.03	229.02
814.35	229.01
814.67	228.95
814.98	228.92
815.30	228.90
815.62	228.86
815.94	228.78
816.26	228.79
816.58	228.73
816.89	228.70
817.21	228.68
817.53	228.68
817.85	228.68
818.17	228.65
818.48	228.62
818.80	228.64
819.12	228.60
819.44	228.60
819.76	228.59
820.07	228.56
820.39	228.55
820.71	228.55
821.03	228.53
821.34	228.47
821.66	228.49
821.98	228.47
822.30	228.45
822.61	228.48
822.93	228.40
823.25	228.41
823.57	228.40
823.88	228.38
824.20	228.34
824.52	228.36
824.83	228.35
825.15	228.34
825.47	228.33
825.79	228.33
826.10	228.30
826.42	228.28
826.74	228.26
827.05	228.24
827.37	228.23
827.69	228.18
828.00	228.18
828.32	228.13
828.64	228.10
828.95	228.09
829.27	228.05
829.58	228.05
829.90	228.06
830.22	228.04
830.53	227.99
830.85	228.00
831.17	227.93
831.48	227.89
831.80	227.87
832.11	227.85
832.43	227.83
832.75	227.81
833.06	227.86
833.38	227.85
833.69	227.82
834.01	227.82
834.32	227.82
834.64	227.81
834.96	227.82
835.27	227.82
835.59	227.83
835.90	227.81
836.22	227.80
836.53	227.77
836.85	227.79
837.16	227.89
837.48	227.88
837.79	227.91
838.11	227.93
838.42	227.93
838.74	227.94
839.05	227.94
839.37	227.94
839.68	227.88
840.00	227.86
840.31	227.88
840.63	227.86
840.94	227.88
841.26	227.88
841.57	227.86
841.88	227.85
842.20	227.83
842.51	227.83
842.83	227.83
843.14	227.95
843.46	227.94
843.77	227.90
844.08	227.87
844.40	227.83
844.71	227.83
845.03	227.83
845.34	227.85
845.65	227.82
845.97	227.81
846.28	227.80
846.60	227.81
846.91	227.80
847.22	227.81
847.54	227.82
847.85	227.82
848.16	227.83
848.48	227.83
848.79	227.86
849.10	227.90
849.42	227.90
849.73	227.75
850.04	227.71
850.36	227.68
850.67	227.67
850.98	227.66
851.30	227.66
851.61	227.63
851.92	227.59
852.23	227.62
852.55	227.63
852.86	227.64
853.17	227.63
853.49	227.64
853.80	227.61
854.11	227.60
854.42	227.57
854.74	227.54
855.05	227.49
855.36	227.42
855.67	227.39
855.99	227.36
856.30	227.49
856.61	227.50
856.92	227.47
857.23	227.50
857.55	227.49
857.86	227.46
858.17	227.49
858.48	227.45
858.79	227.43
859.11	227.44
859.42	227.44
859.73	227.44
860.04	227.39
860.35	227.36
860.66	227.33
860.98	227.34
861.29	227.34
861.60	227.38
861.91	227.38
862.22	227.37
862.53	227.36
862.84	227.23
863.16	227.28
863.47	227.24
863.78	227.21
864.09	227.24
864.40	227.25
864.71	227.26
865.02	227.28
865.33	227.26
865.64	227.22
865.95	227.18
866.27	227.24
866.58	227.23
866.89	227.26
867.20	227.24
867.51	227.21
867.82	227.21
868.13	227.23
868.44	227.22
868.75	227.23
869.06	227.25
869.37	227.26
869.68	227.20
869.99	227.24
870.30	227.25
870.61	227.21
870.92	227.21
871.23	227.16
871.54	227.17
871.85	227.19
872.16	227.22
872.47	227.25
872.78	227.16
873.09	227.18
873.40	227.17
873.71	227.16
874.02	227.17
874.33	227.19
874.64	227.16
874.95	227.17
875.26	227.16
875.56	227.16
875.87	227.16
876.18	227.18
876.49	227.27
876.80	227.26
877.11	227.25
877.42	227.24
877.73	227.30
878.04	227.27
878.35	227.26
878.66	227.27
878.96	227.28
879.27	227.31
879.58	227.35
879.89	227.32
880.20	227.35
880.51	227.37
880.82	227.39
881.12	227.38
881.43	227.37
881.74	227.38
882.05	227.35
882.36	227.35
882.67	227.38
882.97	227.28
883.28	227.30
883.59	227.29
883.90	227.32
884.21	227.28
884.51	227.29
884.82	227.28
885.13	227.30
885.44	227.26
885.74	227.26
886.05	227.21
886.36	227.25
886.67	227.23
886.98	227.26
887.28	227.25
887.59	227.28
887.90	227.29
888.20	227.26
888.51	227.29
888.82	227.26
889.13	227.22
889.43	227.27
889.74	227.28
890.05	227.29
890.35	227.25
890.66	227.24
890.97	227.23
891.28	227.20
891.58	227.16
891.89	227.16
892.20	227.13
892.50	227.11
892.81	227.06
893.12	227.06
893.42	227.04
893.73	227.02
894.04	226.98
894.34	226.97
894.65	226.97
894.95	226.91
895.26	226.91
895.57	226.97
895.87	226.88
896.18	226.87
896.48	226.87
896.79	226.88
897.10	226.88
897.40	226.87
897.71	226.89
898.01	226.87
898.32	226.88
898.63	226.88
898.93	226.88
899.24	226.87
899.54	226.87
899.85	226.84
900.15	226.87
900.46	226.85
900.76	226.87
901.07	226.87
901.38	226.91
901.68	226.93
901.99	226.88
902.29	226.90
902.60	226.90
902.90	226.87
903.21	226.89
903.51	226.88
903.82	226.89
904.12	226.87
904.43	226.90
904.73	226.89
905.03	226.89
905.34	226.99
905.64	226.99
905.95	226.99
906.25	226.96
906.56	226.95
906.86	226.99
907.17	227.00
907.47	227.05
907.77	227.05
908.08	227.02
908.38	227.01
908.69	227.04
908.99	227.03
909.30	227.05
909.60	227.06
909.90	227.05
910.21	227.06
910.51	227.09
910.81	227.09
911.12	227.09
911.42	227.13
911.73	227.05
912.03	227.08
912.33	227.10
912.64	227.15
912.94	227.13
913.24	227.09
913.55	227.05
913.85	227.03
914.15	227.05
914.46	227.08
914.76	227.13
915.06	227.11
915.37	227.12
915.67	227.11
915.97	227.09
916.27	227.10
916.58	227.10
916.88	227.10
917.18	227.10
917.49	227.20
917.79	227.19
918.09	227.19
918.39	227.21
918.70	227.21
919.00	227.21
919.30	227.24
919.60	227.28
919.91	227.31
920.21	227.33
920.51	227.29
920.81	227.28
921.12	227.27
921.42	227.27
921.72	227.29
922.02	227.32
922.32	227.30
922.63	227.28
922.93	227.33
923.23	227.28
923.53	227.28
923.83	227.18
924.13	227.15
924.44	227.15
924.74	227.17
925.04	227.15
925.34	227.15
925.64	227.11
925.94	227.10
926.24	227.12
926.55	227.10
926.85	227.12
927.15	227.11
927.45	227.09
927.75	227.05
928.05	227.03
928.35	227.02
928.65	227.03
928.95	227.04
929.26	227.00
929.56	227.04
929.86	227.05
930.16	227.04
930.46	227.07
930.76	227.06
931.06	226.99
931.36	226.96
931.66	226.95
931.96	226.97
932.26	226.93
932.56	226.90
932.86	226.90
933.16	226.89
933.46	226.88
933.76	226.87
934.06	226.88
934.36	226.88
934.66	226.85
934.96	226.85
935.26	226.86
935.56	226.86
935.86	226.81
936.16	226.80
936.46	226.76
936.76	226.69
937.06	226.69
937.36	226.70
937.66	226.71
937.96	226.70
938.26	226.68
938.56	226.67
938.86	226.67
939.16	226.67
939.46	226.65
939.76	226.65
940.06	226.62
940.35	226.64
940.65	226.61
940.95	226.62
941.25	226.57
941.55	226.53
941.85	226.51
942.15	226.52
942.45	226.52
942.75	226.53
943.04	226.56
943.34	226.57
943.64	226.56
943.94	226.55
944.24	226.54
944.54	226.53
944.84	226.53
945.13	226.47
945.43	226.44
945.73	226.45
946.03	226.45
946.33	226.48
946.62	226.43
946.92	226.45
947.22	226.46
947.52	226.51
947.82	226.50
948.11	226.52
948.41	226.53
948.71	226.51
949.01	226.53
949.31	226.53
949.60	226.52
949.90	226.56
950.20	226.54
950.50	226.57
950.79	226.59
951.09	226.62
951.39	226.66
951.69	226.66
951.98	226.71
952.28	226.73
952.58	226.75
952.87	226.77
953.17	226.78
953.47	226.80
953.76	226.83
954.06	226.87
954.36	226.85
954.66	226.86
954.95	226.91
955.25	226.95
955.55	226.97
955.84	226.99
956.14	226.98
956.44	227.04
956.73	227.00
957.03	226.99
957.32	227.00
957.62	227.01
957.92	227.05
958.21	227.02
958.51	227.09
958.81	227.11
959.10	227.17
959.40	227.19
959.69	227.16
959.99	227.15
960.29	227.19
960.58	227.20
960.88	227.22
961.17	227.20
961.47	227.19
961.76	227.16
962.06	227.17
962.36	227.17
962.65	227.13
962.95	227.16
963.24	227.15
963.54	227.13
963.83	227.13
964.13	227.13
964.42	227.09
964.72	227.05
965.01	227.03
965.31	227.00
965.60	226.96
965.90	227.06
966.19	227.02
966.49	226.97
966.78	226.95
967.08	226.96
967.37	226.95
967.67	226.94
967.96	226.99
968.26	226.98
968.55	227.01
968.85	227.02
969.14	227.00
969.43	226.99
969.73	227.00
970.02	226.97
970.32	226.92
970.61	226.90
970.91	226.83
971.20	226.80
971.49	226.75
971.79	226.78
972.08	226.70
972.38	226.69
972.67	226.68
972.96	226.69
973.26	226.66
973.55	226.67
973.85	226.66
974.14	226.59
974.43	226.55
974.73	226.52
975.02	226.52
975.31	226.50
975.61	226.51
975.90	226.52
976.19	226.53
976.49	226.57
976.78	226.59
977.07	226.60
977.37	226.61
977.66	226.64
977.95	226.62
978.24	226.62
978.54	226.63
978.83	226.61
979.12	226.58
979.42	226.53
979.71	226.52
980.00	226.52
980.29	226.55
980.59	226.56
980.88	226.55
981.17	226.52
981.46	226.54
981.76	226.53
982.05	226.55
982.34	226.55
982.63	226.54
982.93	226.58
983.22	226.59
983.51	226.62
983.80	226.58
984.09	226.60
984.39	226.57
984.68	226.58
984.97	226.58
985.26	226.59
985.55	226.63
985.85	226.58
986.14	226.59
986.43	226.61
986.72	226.61
987.01	226.61
987.30	226.61
987.59	226.58
987.89	226.61
988.18	226.57
988.47	226.57
988.76	226.57
989.05	226.56
989.34	226.55
989.63	226.57
989.92	226.62
990.22	226.62
990.51	226.64
990.80	226.64
991.09	226.66
991.38	226.68
991.67	226.68
991.96	226.70
992.25	226.70
992.54	226.67
992.83	226.69
993.12	226.69
993.41	226.73
993.70	226.79
993.99	226.81
994.28	226.80
994.58	226.82
994.87	226.80
995.16	226.80
995.45	226.79
995.74	226.77
996.03	226.78
996.32	226.80
996.61	226.78
996.90	226.77
997.19	226.76
997.48	226.75
997.77	226.74
998.06	226.80
998.34	226.82
998.63	226.84
998.92	226.82
999.21	226.84
999.50	226.84
999.79	226.83
1000.08	226.84
1000.37	226.84
1000.66	226.82
1000.95	226.83
1001.24	226.85
1001.53	226.86
1001.82	226.88
1002.11	226.81
1002.40	226.82
1002.68	226.87
1002.97	226.98
1003.26	226.98
1003.55	226.97
1003.84	227.00
1004.13	226.99
1004.42	226.98
1004.71	226.95
1004.99	226.97
1005.28	227.01
1005.57	227.00
1005.86	226.97
1006.15	226.94
1006.44	226.93
1006.72	226.98
1007.01	227.02
1007.30	227.02
1007.59	227.01
1007.88	226.99
1008.17	227.04
1008.45	227.00
1008.74	226.98
1009.03	226.90
1009.32	226.91
1009.60	226.93
1009.89	226.90
1010.18	226.85
1010.47	226.86
1010.76	226.87
1011.04	226.83
1011.33	226.83
1011.62	226.83
1011.91	226.85
1012.19	226.82
1012.48	226.83
1012.77	226.80
1013.05	226.80
1013.34	226.78
1013.63	226.78
1013.92	226.78
1014.20	226.73
1014.49	226.73
1014.78	226.71
1015.06	226.66
1015.35	226.64
1015.64	226.66
1015.92	226.65
1016.21	226.70
1016.50	226.69
1016.78	226.70
1017.07	226.75
1017.36	226.72
1017.64	226.67
1017.93	226.65
1018.22	226.67
1018.50	226.66
1018.79	226.64
1019.08	226.61
1019.36	226.59
1019.65	226.58
1019.93	226.59
1020.22	226.63
1020.51	226.68
1020.79	226.66
1021.08	226.79
1021.36	226.37
1021.65	226.19
1021.94	227.05
1022.22	226.43
1022.51	226.44
1022.79	226.88
1023.08	227.04
1023.36	227.46
1023.65	226.27
>>>>>End Processed Spectral Data<<<<<
