SpectraSuite Data File
++++++++++++++++++++++++++++++++++++
Date: Fri Feb 01 16:11:56 EST 2013
User: group
Dark Spectrum Present: No
Reference Spectrum Present: No
Number of Sampled Component Spectra: 1
Spectrometers: USB2E7196
Integration Time (usec): 35000 (USB2E7196)
Spectra Averaged: 100 (USB2E7196)
Boxcar Smoothing: 10 (USB2E7196)
Correct for Electrical Dark: No (USB2E7196)
Strobe/Lamp Enabled: No (USB2E7196)
Correct for Detector Non-linearity: No (USB2E7196)
Correct for Stray Light: No (USB2E7196)
Number of Pixels in Processed Spectrum: 2048
>>>>>Begin Processed Spectral Data<<<<<
339.09	0.00
339.48	214.57
339.86	215.73
340.24	217.67
340.63	218.74
341.01	221.68
341.39	221.77
341.78	222.91
342.16	223.71
342.54	224.61
342.93	212.90
343.31	223.65
343.69	224.18
344.07	224.64
344.46	225.07
344.84	225.44
345.22	225.68
345.60	225.91
345.99	226.09
346.37	226.25
346.75	226.35
347.13	226.44
347.52	226.48
347.90	226.52
348.28	226.54
348.66	226.61
349.05	226.59
349.43	226.63
349.81	226.65
350.19	226.71
350.57	226.73
350.96	226.76
351.34	226.87
351.72	226.99
352.10	227.07
352.48	227.12
352.87	227.19
353.25	227.24
353.63	227.32
354.01	227.40
354.39	227.48
354.77	227.58
355.15	227.68
355.54	227.76
355.92	227.83
356.30	227.91
356.68	228.02
357.06	228.09
357.44	228.16
357.82	228.27
358.20	228.30
358.58	228.38
358.97	228.45
359.35	228.48
359.73	228.52
360.11	228.61
360.49	228.66
360.87	228.69
361.25	228.77
361.63	228.80
362.01	228.85
362.39	228.87
362.77	228.88
363.15	228.89
363.53	228.90
363.91	228.92
364.29	228.94
364.67	228.88
365.05	228.88
365.43	228.91
365.81	228.91
366.19	228.94
366.57	228.96
366.95	228.95
367.33	228.99
367.71	228.97
368.09	228.97
368.47	228.96
368.85	228.94
369.23	228.90
369.61	228.83
369.99	228.83
370.37	228.79
370.75	228.83
371.13	228.76
371.51	228.74
371.89	228.71
372.27	228.66
372.65	228.59
373.03	228.56
373.41	228.50
373.78	228.45
374.16	228.39
374.54	228.33
374.92	228.29
375.30	228.19
375.68	228.12
376.06	228.06
376.44	227.99
376.82	227.93
377.19	227.87
377.57	227.83
377.95	227.73
378.33	227.65
378.71	227.50
379.09	227.49
379.47	227.40
379.84	227.30
380.22	227.27
380.60	227.23
380.98	227.14
381.36	227.07
381.73	226.96
382.11	226.90
382.49	226.82
382.87	226.74
383.25	226.67
383.62	226.71
384.00	226.64
384.38	226.57
384.76	226.55
385.13	226.51
385.51	226.45
385.89	226.41
386.27	226.38
386.64	226.34
387.02	226.25
387.40	226.23
387.78	226.21
388.15	226.16
388.53	226.09
388.91	226.07
389.29	226.05
389.66	226.04
390.04	225.99
390.42	226.00
390.79	225.98
391.17	225.99
391.55	225.87
391.92	225.87
392.30	225.90
392.68	225.87
393.05	225.87
393.43	225.87
393.81	225.86
394.18	225.84
394.56	225.86
394.94	225.89
395.31	225.89
395.69	225.95
396.06	225.98
396.44	225.99
396.82	226.05
397.19	226.11
397.57	226.14
397.95	226.20
398.32	226.21
398.70	226.26
399.07	226.31
399.45	226.39
399.82	226.40
400.20	226.43
400.58	226.49
400.95	226.50
401.33	226.60
401.70	226.76
402.08	226.84
402.45	226.94
402.83	227.06
403.20	227.16
403.58	227.23
403.95	227.34
404.33	227.51
404.71	227.60
405.08	227.77
405.46	227.89
405.83	228.04
406.21	228.18
406.58	228.37
406.96	228.52
407.33	228.70
407.70	228.91
408.08	229.16
408.45	229.39
408.83	229.63
409.20	229.85
409.58	230.01
409.95	230.29
410.33	230.54
410.70	230.78
411.08	231.09
411.45	231.41
411.82	231.72
412.20	232.01
412.57	232.43
412.95	232.71
413.32	233.13
413.69	233.53
414.07	234.01
414.44	234.44
414.82	234.94
415.19	235.50
415.56	236.06
415.94	236.64
416.31	237.26
416.68	237.91
417.06	238.66
417.43	239.36
417.81	240.16
418.18	241.01
418.55	241.85
418.93	242.74
419.30	243.64
419.67	244.57
420.04	245.56
420.42	246.57
420.79	247.79
421.16	248.97
421.54	250.20
421.91	251.42
422.28	252.71
422.66	254.05
423.03	255.35
423.40	256.70
423.77	258.08
424.15	259.50
424.52	261.00
424.89	262.60
425.26	264.17
425.64	265.60
426.01	267.18
426.38	268.83
426.75	270.49
427.13	272.24
427.50	274.09
427.87	276.00
428.24	277.88
428.61	279.62
428.99	281.55
429.36	283.66
429.73	285.71
430.10	287.73
430.47	289.79
430.85	291.90
431.22	294.13
431.59	296.54
431.96	298.78
432.33	301.23
432.70	303.59
433.08	306.32
433.45	308.97
433.82	311.53
434.19	314.41
434.56	317.22
434.93	319.85
435.30	322.45
435.68	325.34
436.05	328.15
436.42	330.90
436.79	333.44
437.16	336.09
437.53	338.93
437.90	341.70
438.27	344.45
438.64	347.29
439.01	349.86
439.38	352.00
439.75	354.16
440.13	356.62
440.50	358.93
440.87	360.77
441.24	362.70
441.61	364.85
441.98	366.31
442.35	368.08
442.72	369.91
443.09	371.65
443.46	372.61
443.83	373.17
444.20	373.70
444.57	374.48
444.94	374.74
445.31	375.06
445.68	375.46
446.05	375.49
446.42	375.09
446.79	374.68
447.16	374.25
447.53	373.96
447.90	372.86
448.27	371.69
448.64	370.14
449.01	368.93
449.37	367.00
449.74	365.09
450.11	362.85
450.48	360.35
450.85	357.85
451.22	355.69
451.59	353.63
451.96	351.66
452.33	349.08
452.70	346.72
453.07	343.87
453.43	340.90
453.80	338.18
454.17	335.47
454.54	332.95
454.91	330.29
455.28	327.58
455.65	325.03
456.02	322.61
456.38	320.45
456.75	317.82
457.12	315.56
457.49	313.36
457.86	311.19
458.23	309.34
458.59	307.32
458.96	305.24
459.33	303.42
459.70	301.56
460.07	300.05
460.43	298.36
460.80	296.75
461.17	295.35
461.54	293.84
461.91	292.45
462.27	291.00
462.64	289.74
463.01	288.42
463.38	287.20
463.74	285.84
464.11	284.68
464.48	283.69
464.85	282.59
465.21	281.74
465.58	280.83
465.95	279.76
466.32	278.86
466.68	277.97
467.05	277.08
467.42	276.22
467.78	275.30
468.15	274.44
468.52	273.78
468.88	272.92
469.25	272.19
469.62	271.56
469.98	270.91
470.35	270.29
470.72	269.70
471.08	269.07
471.45	268.52
471.82	268.02
472.18	267.40
472.55	266.97
472.92	266.45
473.28	266.01
473.65	265.61
474.02	265.20
474.38	264.86
474.75	264.59
475.11	264.25
475.48	264.01
475.85	263.79
476.21	263.59
476.58	263.41
476.94	263.24
477.31	263.07
477.67	262.93
478.04	262.80
478.41	262.72
478.77	262.75
479.14	262.69
479.50	262.68
479.87	262.79
480.23	262.91
480.60	262.97
480.96	263.06
481.33	263.25
481.69	263.44
482.06	263.63
482.42	263.83
482.79	264.08
483.15	264.38
483.52	264.74
483.88	265.08
484.25	265.49
484.61	265.92
484.98	266.36
485.34	266.91
485.71	267.49
486.07	268.12
486.44	268.65
486.80	269.37
487.17	270.07
487.53	270.87
487.90	271.66
488.26	272.61
488.62	273.57
488.99	274.54
489.35	275.58
489.72	276.73
490.08	277.93
490.44	279.18
490.81	280.53
491.17	281.90
491.54	283.37
491.90	284.92
492.26	286.57
492.63	288.33
492.99	290.11
493.36	292.03
493.72	294.08
494.08	296.19
494.45	298.48
494.81	300.85
495.17	303.27
495.54	305.86
495.90	308.53
496.26	311.36
496.63	314.31
496.99	317.42
497.35	320.66
497.72	324.07
498.08	327.58
498.44	331.24
498.80	335.11
499.17	339.17
499.53	343.35
499.89	347.73
500.26	352.25
500.62	356.90
500.98	361.84
501.34	366.91
501.71	372.24
502.07	377.68
502.43	383.29
502.79	389.10
503.16	395.22
503.52	401.53
503.88	407.97
504.24	414.66
504.60	421.57
504.97	428.72
505.33	436.06
505.69	443.80
506.05	451.57
506.41	459.55
506.78	467.72
507.14	476.20
507.50	484.99
507.86	494.01
508.22	503.25
508.59	512.48
508.95	522.12
509.31	531.97
509.67	542.11
510.03	552.45
510.39	563.04
510.75	573.79
511.12	584.71
511.48	596.05
511.84	607.46
512.20	618.98
512.56	630.90
512.92	643.05
513.28	655.43
513.64	667.90
514.00	680.61
514.37	693.55
514.73	706.58
515.09	719.54
515.45	732.83
515.81	746.42
516.17	760.39
516.53	774.58
516.89	788.76
517.25	802.88
517.61	817.26
517.97	831.81
518.33	846.12
518.69	860.87
519.05	875.79
519.41	890.93
519.77	906.45
520.13	921.85
520.49	937.22
520.85	952.59
521.21	968.27
521.57	984.47
521.93	1000.17
522.29	1016.46
522.65	1032.77
523.01	1048.89
523.37	1064.94
523.73	1080.99
524.09	1096.93
524.45	1113.15
524.81	1129.69
525.17	1146.45
525.53	1163.14
525.89	1180.08
526.25	1196.84
526.61	1213.15
526.97	1229.88
527.33	1246.33
527.68	1262.80
528.04	1279.18
528.40	1295.63
528.76	1312.70
529.12	1329.25
529.48	1346.05
529.84	1362.04
530.20	1378.57
530.56	1395.49
530.91	1412.79
531.27	1429.50
531.63	1445.95
531.99	1462.45
532.35	1478.47
532.71	1494.31
533.07	1510.56
533.42	1526.54
533.78	1542.56
534.14	1558.84
534.50	1574.24
534.86	1590.05
535.21	1605.29
535.57	1621.19
535.93	1636.72
536.29	1651.37
536.65	1666.25
537.00	1681.01
537.36	1696.27
537.72	1710.71
538.08	1725.15
538.44	1738.81
538.79	1752.72
539.15	1766.17
539.51	1779.90
539.87	1794.12
540.22	1807.70
540.58	1821.25
540.94	1834.43
541.29	1847.17
541.65	1859.68
542.01	1872.70
542.37	1884.98
542.72	1897.23
543.08	1908.88
543.44	1921.13
543.79	1932.40
544.15	1943.34
544.51	1954.94
544.87	1965.86
545.22	1976.51
545.58	1986.70
545.94	1996.39
546.29	2006.26
546.65	2016.19
547.01	2025.33
547.36	2033.96
547.72	2042.67
548.07	2050.74
548.43	2058.80
548.79	2066.69
549.14	2074.34
549.50	2081.57
549.86	2089.05
550.21	2096.35
550.57	2103.57
550.92	2110.09
551.28	2117.11
551.64	2124.23
551.99	2130.63
552.35	2137.04
552.70	2143.22
553.06	2149.23
553.41	2155.63
553.77	2161.56
554.13	2167.62
554.48	2173.71
554.84	2179.35
555.19	2184.41
555.55	2189.48
555.90	2193.97
556.26	2199.05
556.61	2203.61
556.97	2208.07
557.32	2212.29
557.68	2216.56
558.03	2220.72
558.39	2224.48
558.74	2229.08
559.10	2232.93
559.45	2236.52
559.81	2240.37
560.16	2244.28
560.52	2247.46
560.87	2250.78
561.23	2253.52
561.58	2256.30
561.94	2258.85
562.29	2261.07
562.64	2263.90
563.00	2266.46
563.35	2269.89
563.71	2273.03
564.06	2276.24
564.42	2279.01
564.77	2281.70
565.12	2283.95
565.48	2286.10
565.83	2288.06
566.19	2289.38
566.54	2290.27
566.89	2291.46
567.25	2292.17
567.60	2293.38
567.96	2295.07
568.31	2296.05
568.66	2297.16
569.02	2297.98
569.37	2298.53
569.72	2299.43
570.08	2299.44
570.43	2299.60
570.78	2299.08
571.14	2297.64
571.49	2296.29
571.84	2295.90
572.20	2294.69
572.55	2293.67
572.90	2291.92
573.26	2290.47
573.61	2288.88
573.96	2287.19
574.31	2284.30
574.67	2281.42
575.02	2277.89
575.37	2274.40
575.72	2270.67
576.08	2267.29
576.43	2263.79
576.78	2260.00
577.13	2256.84
577.49	2253.79
577.84	2250.26
578.19	2246.57
578.54	2242.92
578.90	2238.85
579.25	2233.39
579.60	2228.47
579.95	2223.47
580.30	2218.48
580.66	2213.28
581.01	2208.28
581.36	2203.45
581.71	2199.31
582.06	2195.04
582.42	2190.63
582.77	2185.51
583.12	2181.02
583.47	2176.51
583.82	2171.77
584.17	2166.56
584.53	2161.05
584.88	2155.53
585.23	2149.82
585.58	2144.37
585.93	2138.85
586.28	2134.08
586.63	2129.10
586.98	2124.20
587.34	2119.49
587.69	2114.58
588.04	2109.55
588.39	2103.81
588.74	2097.36
589.09	2091.17
589.44	2084.33
589.79	2078.27
590.14	2072.67
590.49	2065.99
590.84	2059.34
591.19	2053.14
591.54	2046.68
591.89	2039.41
592.25	2032.68
592.60	2025.50
592.95	2018.04
593.30	2010.91
593.65	2003.25
594.00	1996.07
594.35	1988.60
594.70	1980.52
595.05	1973.52
595.40	1966.11
595.75	1958.83
596.10	1952.72
596.45	1946.07
596.80	1939.95
597.15	1933.37
597.50	1926.46
597.85	1919.98
598.19	1913.53
598.54	1906.58
598.89	1899.90
599.24	1893.94
599.59	1887.29
599.94	1880.99
600.29	1874.65
600.64	1867.89
600.99	1860.53
601.34	1853.84
601.69	1846.84
602.04	1840.06
602.39	1832.74
602.74	1825.89
603.08	1819.08
603.43	1812.17
603.78	1804.87
604.13	1797.59
604.48	1790.31
604.83	1783.34
605.18	1776.64
605.53	1768.65
605.87	1760.72
606.22	1753.50
606.57	1745.66
606.92	1738.17
607.27	1731.13
607.62	1724.12
607.96	1716.96
608.31	1710.50
608.66	1702.87
609.01	1695.40
609.36	1687.87
609.70	1679.83
610.05	1671.96
610.40	1664.19
610.75	1655.92
611.10	1648.21
611.44	1639.75
611.79	1631.71
612.14	1623.18
612.49	1613.87
612.83	1605.47
613.18	1597.22
613.53	1589.29
613.88	1580.78
614.22	1572.49
614.57	1563.86
614.92	1555.98
615.27	1548.40
615.61	1540.05
615.96	1532.12
616.31	1524.42
616.65	1517.08
617.00	1509.60
617.35	1501.78
617.70	1493.61
618.04	1485.21
618.39	1477.12
618.74	1469.58
619.08	1461.30
619.43	1453.61
619.78	1446.70
620.12	1439.57
620.47	1432.16
620.82	1423.80
621.16	1416.36
621.51	1408.78
621.85	1401.16
622.20	1392.65
622.55	1384.22
622.89	1376.34
623.24	1368.62
623.59	1361.26
623.93	1353.69
624.28	1346.36
624.62	1338.94
624.97	1331.72
625.32	1324.84
625.66	1317.68
626.01	1310.49
626.35	1303.12
626.70	1295.39
627.04	1287.66
627.39	1279.82
627.73	1272.31
628.08	1265.49
628.43	1258.29
628.77	1251.00
629.12	1243.45
629.46	1236.27
629.81	1228.82
630.15	1221.51
630.50	1214.15
630.84	1206.01
631.19	1198.09
631.53	1190.61
631.88	1183.01
632.22	1175.37
632.57	1168.07
632.91	1160.49
633.26	1153.11
633.60	1145.73
633.95	1138.57
634.29	1131.41
634.64	1124.68
634.98	1117.34
635.32	1110.15
635.67	1103.44
636.01	1096.76
636.36	1089.93
636.70	1083.33
637.05	1076.77
637.39	1070.33
637.73	1063.76
638.08	1057.78
638.42	1051.71
638.77	1045.24
639.11	1038.63
639.45	1032.21
639.80	1025.59
640.14	1019.30
640.49	1012.77
640.83	1006.43
641.17	1000.19
641.52	993.91
641.86	987.47
642.20	981.50
642.55	975.19
642.89	968.73
643.23	962.10
643.58	956.34
643.92	950.25
644.26	944.31
644.61	938.25
644.95	932.30
645.29	925.85
645.64	919.19
645.98	912.88
646.32	907.02
646.66	901.00
647.01	895.24
647.35	889.53
647.69	883.73
648.04	878.22
648.38	872.48
648.72	866.59
649.06	860.58
649.41	854.70
649.75	848.82
650.09	842.89
650.43	837.13
650.78	831.01
651.12	824.95
651.46	819.14
651.80	813.38
652.14	807.95
652.49	802.55
652.83	797.41
653.17	791.67
653.51	786.06
653.85	780.62
654.20	774.95
654.54	768.91
654.88	763.12
655.22	757.14
655.56	751.42
655.90	745.90
656.25	740.65
656.59	735.32
656.93	730.21
657.27	725.05
657.61	719.63
657.95	714.48
658.29	709.37
658.64	704.10
658.98	698.87
659.32	693.43
659.66	688.28
660.00	682.94
660.34	678.01
660.68	673.06
661.02	668.07
661.36	663.36
661.70	658.85
662.05	654.44
662.39	650.16
662.73	645.67
663.07	641.29
663.41	636.86
663.75	632.43
664.09	627.81
664.43	623.38
664.77	619.27
665.11	614.99
665.45	610.90
665.79	606.89
666.13	602.70
666.47	598.56
666.81	594.35
667.15	590.21
667.49	586.30
667.83	582.37
668.17	578.38
668.51	574.29
668.85	570.26
669.19	566.39
669.53	562.59
669.87	558.71
670.21	554.98
670.55	551.31
670.89	547.86
671.23	544.50
671.57	541.01
671.91	537.47
672.25	534.04
672.58	530.51
672.92	527.08
673.26	523.93
673.60	520.77
673.94	517.66
674.28	514.75
674.62	511.84
674.96	508.76
675.30	505.90
675.64	502.97
675.97	500.20
676.31	497.35
676.65	494.43
676.99	491.78
677.33	488.96
677.67	486.13
678.01	483.12
678.34	480.18
678.68	477.32
679.02	474.51
679.36	471.63
679.70	468.91
680.04	466.13
680.37	463.27
680.71	460.52
681.05	457.88
681.39	455.13
681.73	452.46
682.06	449.98
682.40	447.45
682.74	444.93
683.08	442.38
683.42	439.81
683.75	437.30
684.09	434.71
684.43	432.20
684.77	429.77
685.10	427.38
685.44	425.03
685.78	422.74
686.12	420.45
686.45	418.19
686.79	415.91
687.13	413.75
687.46	411.60
687.80	409.39
688.14	407.20
688.48	405.18
688.81	402.94
689.15	400.72
689.49	398.51
689.82	396.42
690.16	394.30
690.50	392.35
690.83	390.36
691.17	388.34
691.51	386.44
691.84	384.58
692.18	382.70
692.52	380.67
692.85	378.71
693.19	376.85
693.52	375.01
693.86	373.19
694.20	371.37
694.53	369.55
694.87	367.68
695.21	365.88
695.54	364.04
695.88	362.32
696.21	360.66
696.55	359.00
696.88	357.25
697.22	355.58
697.56	353.89
697.89	352.29
698.23	350.76
698.56	349.21
698.90	347.63
699.23	345.98
699.57	344.49
699.90	342.93
700.24	341.37
700.58	339.87
700.91	338.39
701.25	336.95
701.58	335.63
701.92	334.29
702.25	332.91
702.59	331.53
702.92	330.18
703.26	328.88
703.59	327.59
703.93	326.41
704.26	325.22
704.60	323.96
704.93	322.68
705.26	321.39
705.60	320.12
705.93	318.92
706.27	317.85
706.60	316.75
706.94	315.70
707.27	314.58
707.61	313.51
707.94	312.51
708.27	311.39
708.61	310.28
708.94	309.29
709.28	308.34
709.61	307.42
709.94	306.49
710.28	305.45
710.61	304.45
710.95	303.39
711.28	302.47
711.61	301.48
711.95	300.59
712.28	299.66
712.61	298.73
712.95	297.78
713.28	296.93
713.61	296.06
713.95	295.17
714.28	294.33
714.61	293.50
714.95	292.64
715.28	291.77
715.61	290.87
715.95	289.98
716.28	289.09
716.61	288.19
716.95	287.35
717.28	286.61
717.61	285.87
717.94	285.12
718.28	284.26
718.61	283.55
718.94	282.82
719.27	282.19
719.61	281.53
719.94	280.91
720.27	280.12
720.60	279.43
720.94	278.80
721.27	278.24
721.60	277.65
721.93	277.01
722.27	276.51
722.60	275.97
722.93	275.41
723.26	274.89
723.59	274.34
723.93	273.83
724.26	273.28
724.59	272.72
724.92	272.23
725.25	271.77
725.59	271.27
725.92	270.79
726.25	270.25
726.58	269.76
726.91	269.25
727.24	268.79
727.57	268.35
727.91	267.84
728.24	267.36
728.57	266.87
728.90	266.41
729.23	265.92
729.56	265.47
729.89	265.00
730.22	264.49
730.55	264.03
730.89	263.55
731.22	263.10
731.55	262.67
731.88	262.23
732.21	261.81
732.54	261.37
732.87	260.95
733.20	260.53
733.53	260.12
733.86	259.77
734.19	259.40
734.52	259.02
734.85	258.71
735.18	258.29
735.51	257.93
735.84	257.56
736.17	257.19
736.50	256.79
736.83	256.56
737.16	256.24
737.49	255.91
737.82	255.59
738.15	255.27
738.48	254.91
738.81	254.59
739.14	254.25
739.47	253.95
739.80	253.58
740.13	253.26
740.46	252.92
740.79	252.58
741.12	252.26
741.45	251.96
741.78	251.65
742.11	251.34
742.44	251.02
742.77	250.74
743.10	250.45
743.43	250.18
743.75	249.83
744.08	249.70
744.41	249.46
744.74	249.19
745.07	248.90
745.40	248.68
745.73	248.49
746.06	248.19
746.39	247.92
746.71	247.70
747.04	247.45
747.37	247.21
747.70	246.98
748.03	246.73
748.36	246.51
748.68	246.24
749.01	245.96
749.34	245.75
749.67	245.52
750.00	245.31
750.33	245.14
750.65	244.90
750.98	244.54
751.31	244.31
751.64	244.08
751.97	243.91
752.29	243.66
752.62	243.37
752.95	243.18
753.28	243.00
753.60	242.83
753.93	242.69
754.26	242.51
754.59	242.28
754.91	242.09
755.24	241.87
755.57	241.67
755.90	241.54
756.22	241.34
756.55	241.18
756.88	240.99
757.20	240.77
757.53	240.56
757.86	240.40
758.19	240.24
758.51	240.06
758.84	239.85
759.17	239.73
759.49	239.56
759.82	239.45
760.15	239.26
760.47	239.08
760.80	238.87
761.13	238.72
761.45	238.56
761.78	238.40
762.11	238.26
762.43	238.14
762.76	237.98
763.08	237.83
763.41	237.63
763.74	237.49
764.06	237.33
764.39	237.19
764.71	237.06
765.04	236.90
765.37	236.77
765.69	236.65
766.02	236.51
766.34	236.43
766.67	236.27
767.00	236.21
767.32	236.12
767.65	236.06
767.97	235.96
768.30	235.83
768.62	235.72
768.95	235.58
769.27	235.43
769.60	235.29
769.92	235.20
770.25	235.09
770.57	235.00
770.90	234.90
771.22	234.81
771.55	234.72
771.87	234.63
772.20	234.53
772.52	234.53
772.85	234.54
773.17	234.41
773.50	234.31
773.82	234.14
774.15	234.01
774.47	233.90
774.80	233.77
775.12	233.71
775.45	233.61
775.77	233.52
776.09	233.47
776.42	233.41
776.74	233.34
777.07	233.25
777.39	233.18
777.72	233.10
778.04	233.06
778.36	232.95
778.69	232.88
779.01	232.83
779.33	232.66
779.66	232.48
779.98	232.41
780.31	232.34
780.63	232.36
780.95	232.33
781.28	232.25
781.60	232.15
781.92	232.08
782.25	232.03
782.57	231.96
782.89	231.88
783.22	231.82
783.54	231.76
783.86	231.76
784.19	231.68
784.51	231.65
784.83	231.54
785.16	231.44
785.48	231.40
785.80	231.32
786.12	231.26
786.45	231.20
786.77	231.15
787.09	231.11
787.42	231.00
787.74	230.93
788.06	230.84
788.38	230.83
788.71	230.76
789.03	230.70
789.35	230.72
789.67	230.68
789.99	230.66
790.32	230.58
790.64	230.53
790.96	230.55
791.28	230.48
791.61	230.44
791.93	230.45
792.25	230.37
792.57	230.42
792.89	230.35
793.21	230.32
793.54	230.25
793.86	230.20
794.18	230.17
794.50	230.15
794.82	230.11
795.14	230.09
795.47	230.09
795.79	230.11
796.11	230.01
796.43	229.94
796.75	229.93
797.07	229.90
797.39	229.84
797.71	229.77
798.04	229.77
798.36	229.72
798.68	229.71
799.00	229.70
799.32	229.64
799.64	229.63
799.96	229.63
800.28	229.65
800.60	229.61
800.92	229.59
801.24	229.51
801.56	229.50
801.89	229.48
802.21	229.46
802.53	229.40
802.85	229.44
803.17	229.49
803.49	229.42
803.81	229.41
804.13	229.40
804.45	229.33
804.77	229.28
805.09	229.27
805.41	229.21
805.73	229.17
806.05	229.11
806.37	229.14
806.69	229.10
807.01	229.07
807.33	229.05
807.65	229.02
807.97	229.07
808.28	229.06
808.60	229.00
808.92	228.98
809.24	229.02
809.56	228.95
809.88	228.90
810.20	228.89
810.52	228.86
810.84	228.82
811.16	228.81
811.48	228.79
811.80	228.83
812.12	228.79
812.43	228.78
812.75	228.77
813.07	228.72
813.39	228.67
813.71	228.62
814.03	228.61
814.35	228.57
814.67	228.50
814.98	228.47
815.30	228.46
815.62	228.42
815.94	228.36
816.26	228.36
816.58	228.31
816.89	228.28
817.21	228.23
817.53	228.26
817.85	228.22
818.17	228.19
818.48	228.17
818.80	228.18
819.12	228.16
819.44	228.13
819.76	228.11
820.07	228.12
820.39	228.13
820.71	228.11
821.03	228.10
821.34	228.12
821.66	228.09
821.98	228.08
822.30	228.08
822.61	228.08
822.93	228.02
823.25	228.01
823.57	228.01
823.88	228.01
824.20	227.98
824.52	228.02
824.83	228.00
825.15	227.95
825.47	227.92
825.79	227.91
826.10	227.88
826.42	227.84
826.74	227.82
827.05	227.80
827.37	227.77
827.69	227.78
828.00	227.75
828.32	227.74
828.64	227.73
828.95	227.74
829.27	227.71
829.58	227.70
829.90	227.73
830.22	227.71
830.53	227.67
830.85	227.64
831.17	227.60
831.48	227.62
831.80	227.59
832.11	227.61
832.43	227.56
832.75	227.55
833.06	227.60
833.38	227.60
833.69	227.60
834.01	227.62
834.32	227.62
834.64	227.58
834.96	227.60
835.27	227.59
835.59	227.56
835.90	227.52
836.22	227.54
836.53	227.50
836.85	227.50
837.16	227.61
837.48	227.58
837.79	227.62
838.11	227.62
838.42	227.61
838.74	227.59
839.05	227.61
839.37	227.63
839.68	227.56
840.00	227.51
840.31	227.53
840.63	227.52
840.94	227.46
841.26	227.46
841.57	227.43
841.88	227.43
842.20	227.40
842.51	227.39
842.83	227.38
843.14	227.43
843.46	227.41
843.77	227.34
844.08	227.35
844.40	227.27
844.71	227.24
845.03	227.23
845.34	227.25
845.65	227.22
845.97	227.21
846.28	227.19
846.60	227.21
846.91	227.16
847.22	227.15
847.54	227.19
847.85	227.20
848.16	227.18
848.48	227.14
848.79	227.20
849.10	227.21
849.42	227.20
849.73	227.13
850.04	227.12
850.36	227.09
850.67	227.10
850.98	227.12
851.30	227.13
851.61	227.13
851.92	227.10
852.23	227.16
852.55	227.17
852.86	227.22
853.17	227.22
853.49	227.22
853.80	227.23
854.11	227.25
854.42	227.25
854.74	227.22
855.05	227.23
855.36	227.19
855.67	227.19
855.99	227.21
856.30	227.31
856.61	227.29
856.92	227.28
857.23	227.27
857.55	227.25
857.86	227.22
858.17	227.24
858.48	227.24
858.79	227.20
859.11	227.19
859.42	227.16
859.73	227.12
860.04	227.15
860.35	227.11
860.66	227.07
860.98	227.09
861.29	227.11
861.60	227.09
861.91	227.08
862.22	227.07
862.53	227.04
862.84	226.93
863.16	226.98
863.47	226.96
863.78	226.93
864.09	226.99
864.40	227.01
864.71	227.00
865.02	226.99
865.33	226.98
865.64	226.98
865.95	226.98
866.27	227.06
866.58	227.02
866.89	227.01
867.20	226.96
867.51	226.91
867.82	226.89
868.13	226.94
868.44	226.95
868.75	226.92
869.06	226.90
869.37	226.92
869.68	226.86
869.99	226.85
870.30	226.85
870.61	226.81
870.92	226.80
871.23	226.79
871.54	226.80
871.85	226.80
872.16	226.81
872.47	226.77
872.78	226.66
873.09	226.71
873.40	226.67
873.71	226.70
874.02	226.74
874.33	226.76
874.64	226.71
874.95	226.71
875.26	226.71
875.56	226.72
875.87	226.70
876.18	226.70
876.49	226.79
876.80	226.78
877.11	226.75
877.42	226.74
877.73	226.76
878.04	226.72
878.35	226.71
878.66	226.71
878.96	226.74
879.27	226.78
879.58	226.74
879.89	226.73
880.20	226.74
880.51	226.72
880.82	226.70
881.12	226.70
881.43	226.69
881.74	226.71
882.05	226.69
882.36	226.69
882.67	226.72
882.97	226.64
883.28	226.63
883.59	226.66
883.90	226.68
884.21	226.67
884.51	226.72
884.82	226.68
885.13	226.68
885.44	226.66
885.74	226.66
886.05	226.64
886.36	226.69
886.67	226.67
886.98	226.71
887.28	226.70
887.59	226.72
887.90	226.68
888.20	226.68
888.51	226.72
888.82	226.72
889.13	226.73
889.43	226.78
889.74	226.81
890.05	226.80
890.35	226.79
890.66	226.74
890.97	226.70
891.28	226.71
891.58	226.71
891.89	226.71
892.20	226.70
892.50	226.70
892.81	226.64
893.12	226.62
893.42	226.60
893.73	226.62
894.04	226.66
894.34	226.70
894.65	226.70
894.95	226.67
895.26	226.65
895.57	226.70
895.87	226.62
896.18	226.63
896.48	226.62
896.79	226.64
897.10	226.68
897.40	226.73
897.71	226.75
898.01	226.74
898.32	226.74
898.63	226.73
898.93	226.76
899.24	226.82
899.54	226.86
899.85	226.84
900.15	226.84
900.46	226.80
900.76	226.82
901.07	226.79
901.38	226.80
901.68	226.83
901.99	226.79
902.29	226.79
902.60	226.76
902.90	226.73
903.21	226.68
903.51	226.71
903.82	226.71
904.12	226.72
904.43	226.70
904.73	226.69
905.03	226.68
905.34	226.76
905.64	226.77
905.95	226.73
906.25	226.72
906.56	226.70
906.86	226.69
907.17	226.68
907.47	226.68
907.77	226.67
908.08	226.65
908.38	226.61
908.69	226.62
908.99	226.66
909.30	226.68
909.60	226.71
909.90	226.70
910.21	226.66
910.51	226.61
910.81	226.63
911.12	226.63
911.42	226.66
911.73	226.57
912.03	226.56
912.33	226.57
912.64	226.58
912.94	226.57
913.24	226.58
913.55	226.56
913.85	226.58
914.15	226.58
914.46	226.55
914.76	226.58
915.06	226.60
915.37	226.55
915.67	226.53
915.97	226.49
916.27	226.45
916.58	226.47
916.88	226.47
917.18	226.44
917.49	226.51
917.79	226.51
918.09	226.49
918.39	226.49
918.70	226.47
919.00	226.47
919.30	226.54
919.60	226.53
919.91	226.51
920.21	226.51
920.51	226.51
920.81	226.52
921.12	226.53
921.42	226.48
921.72	226.47
922.02	226.50
922.32	226.53
922.63	226.50
922.93	226.55
923.23	226.55
923.53	226.57
923.83	226.49
924.13	226.49
924.44	226.52
924.74	226.52
925.04	226.53
925.34	226.51
925.64	226.47
925.94	226.43
926.24	226.50
926.55	226.46
926.85	226.45
927.15	226.45
927.45	226.46
927.75	226.46
928.05	226.49
928.35	226.47
928.65	226.53
928.95	226.56
929.26	226.48
929.56	226.54
929.86	226.56
930.16	226.56
930.46	226.55
930.76	226.54
931.06	226.50
931.36	226.48
931.66	226.52
931.96	226.50
932.26	226.55
932.56	226.51
932.86	226.54
933.16	226.56
933.46	226.57
933.76	226.55
934.06	226.61
934.36	226.65
934.66	226.65
934.96	226.62
935.26	226.66
935.56	226.66
935.86	226.62
936.16	226.59
936.46	226.61
936.76	226.61
937.06	226.63
937.36	226.63
937.66	226.66
937.96	226.66
938.26	226.66
938.56	226.62
938.86	226.61
939.16	226.64
939.46	226.63
939.76	226.63
940.06	226.63
940.35	226.61
940.65	226.56
940.95	226.58
941.25	226.57
941.55	226.52
941.85	226.57
942.15	226.58
942.45	226.60
942.75	226.59
943.04	226.57
943.34	226.57
943.64	226.60
943.94	226.59
944.24	226.59
944.54	226.58
944.84	226.58
945.13	226.60
945.43	226.59
945.73	226.60
946.03	226.60
946.33	226.59
946.62	226.57
946.92	226.56
947.22	226.54
947.52	226.52
947.82	226.52
948.11	226.47
948.41	226.47
948.71	226.45
949.01	226.45
949.31	226.44
949.60	226.41
949.90	226.40
950.20	226.36
950.50	226.32
950.79	226.35
951.09	226.37
951.39	226.35
951.69	226.30
951.98	226.32
952.28	226.31
952.58	226.28
952.87	226.28
953.17	226.29
953.47	226.31
953.76	226.31
954.06	226.28
954.36	226.27
954.66	226.24
954.95	226.26
955.25	226.25
955.55	226.28
955.84	226.27
956.14	226.30
956.44	226.33
956.73	226.34
957.03	226.32
957.32	226.30
957.62	226.29
957.92	226.35
958.21	226.29
958.51	226.38
958.81	226.41
959.10	226.38
959.40	226.40
959.69	226.38
959.99	226.39
960.29	226.41
960.58	226.44
960.88	226.49
961.17	226.46
961.47	226.48
961.76	226.46
962.06	226.47
962.36	226.43
962.65	226.45
962.95	226.44
963.24	226.44
963.54	226.46
963.83	226.47
964.13	226.45
964.42	226.44
964.72	226.38
965.01	226.41
965.31	226.44
965.60	226.44
965.90	226.51
966.19	226.49
966.49	226.50
966.78	226.48
967.08	226.46
967.37	226.48
967.67	226.47
967.96	226.48
968.26	226.50
968.55	226.55
968.85	226.53
969.14	226.55
969.43	226.56
969.73	226.56
970.02	226.54
970.32	226.53
970.61	226.54
970.91	226.51
971.20	226.50
971.49	226.48
971.79	226.47
972.08	226.42
972.38	226.45
972.67	226.42
972.96	226.45
973.26	226.41
973.55	226.48
973.85	226.48
974.14	226.47
974.43	226.46
974.73	226.43
975.02	226.43
975.31	226.44
975.61	226.40
975.90	226.39
976.19	226.43
976.49	226.47
976.78	226.50
977.07	226.49
977.37	226.48
977.66	226.50
977.95	226.47
978.24	226.46
978.54	226.43
978.83	226.44
979.12	226.44
979.42	226.45
979.71	226.41
980.00	226.41
980.29	226.43
980.59	226.43
980.88	226.41
981.17	226.39
981.46	226.37
981.76	226.39
982.05	226.40
982.34	226.39
982.63	226.36
982.93	226.36
983.22	226.39
983.51	226.38
983.80	226.42
984.09	226.42
984.39	226.42
984.68	226.41
984.97	226.43
985.26	226.40
985.55	226.39
985.85	226.37
986.14	226.36
986.43	226.35
986.72	226.31
987.01	226.36
987.30	226.35
987.59	226.36
987.89	226.35
988.18	226.32
988.47	226.32
988.76	226.30
989.05	226.26
989.34	226.24
989.63	226.27
989.92	226.21
990.22	226.18
990.51	226.21
990.80	226.20
991.09	226.19
991.38	226.19
991.67	226.20
991.96	226.19
992.25	226.20
992.54	226.17
992.83	226.17
993.12	226.16
993.41	226.20
993.70	226.20
993.99	226.24
994.28	226.26
994.58	226.25
994.87	226.26
995.16	226.26
995.45	226.24
995.74	226.23
996.03	226.27
996.32	226.30
996.61	226.31
996.90	226.33
997.19	226.33
997.48	226.31
997.77	226.31
998.06	226.31
998.34	226.32
998.63	226.34
998.92	226.36
999.21	226.34
999.50	226.35
999.79	226.34
1000.08	226.32
1000.37	226.32
1000.66	226.32
1000.95	226.36
1001.24	226.36
1001.53	226.38
1001.82	226.35
1002.11	226.35
1002.40	226.36
1002.68	226.40
1002.97	226.45
1003.26	226.47
1003.55	226.48
1003.84	226.54
1004.13	226.58
1004.42	226.57
1004.71	226.60
1004.99	226.57
1005.28	226.64
1005.57	226.64
1005.86	226.62
1006.15	226.62
1006.44	226.62
1006.72	226.61
1007.01	226.60
1007.30	226.63
1007.59	226.66
1007.88	226.68
1008.17	226.68
1008.45	226.70
1008.74	226.64
1009.03	226.61
1009.32	226.59
1009.60	226.57
1009.89	226.56
1010.18	226.50
1010.47	226.52
1010.76	226.51
1011.04	226.51
1011.33	226.48
1011.62	226.49
1011.91	226.49
1012.19	226.52
1012.48	226.54
1012.77	226.54
1013.05	226.58
1013.34	226.57
1013.63	226.56
1013.92	226.55
1014.20	226.54
1014.49	226.52
1014.78	226.53
1015.06	226.53
1015.35	226.51
1015.64	226.53
1015.92	226.51
1016.21	226.53
1016.50	226.51
1016.78	226.53
1017.07	226.55
1017.36	226.51
1017.64	226.47
1017.93	226.51
1018.22	226.48
1018.50	226.42
1018.79	226.44
1019.08	226.39
1019.36	226.38
1019.65	226.36
1019.93	226.38
1020.22	226.40
1020.51	226.43
1020.79	226.38
1021.08	225.94
1021.36	225.65
1021.65	226.58
1021.94	226.66
1022.22	226.10
1022.51	226.34
1022.79	226.73
1023.08	226.68
1023.36	227.55
1023.65	225.29
>>>>>End Processed Spectral Data<<<<<
