SpectraSuite Data File
++++++++++++++++++++++++++++++++++++
Date: Fri Feb 01 16:47:36 EST 2013
User: group
Dark Spectrum Present: No
Reference Spectrum Present: No
Number of Sampled Component Spectra: 1
Spectrometers: USB2E7196
Integration Time (usec): 35000 (USB2E7196)
Spectra Averaged: 100 (USB2E7196)
Boxcar Smoothing: 10 (USB2E7196)
Correct for Electrical Dark: No (USB2E7196)
Strobe/Lamp Enabled: No (USB2E7196)
Correct for Detector Non-linearity: No (USB2E7196)
Correct for Stray Light: No (USB2E7196)
Number of Pixels in Processed Spectrum: 2048
>>>>>Begin Processed Spectral Data<<<<<
339.09	0.00
339.48	213.65
339.86	214.50
340.24	216.78
340.63	217.45
341.01	220.36
341.39	220.02
341.78	221.46
342.16	222.72
342.54	223.03
342.93	211.63
343.31	222.33
343.69	222.85
344.07	223.32
344.46	223.73
344.84	224.10
345.22	224.32
345.60	224.56
345.99	224.73
346.37	224.85
346.75	224.96
347.13	225.00
347.52	225.05
347.90	225.13
348.28	225.19
348.66	225.23
349.05	225.22
349.43	225.28
349.81	225.30
350.19	225.36
350.57	225.42
350.96	225.46
351.34	225.52
351.72	225.60
352.10	225.70
352.48	225.72
352.87	225.80
353.25	225.88
353.63	225.95
354.01	226.03
354.39	226.12
354.77	226.16
355.15	226.30
355.54	226.36
355.92	226.39
356.30	226.43
356.68	226.60
357.06	226.72
357.44	226.75
357.82	226.81
358.20	226.86
358.58	226.92
358.97	227.03
359.35	227.14
359.73	227.22
360.11	227.31
360.49	227.40
360.87	227.41
361.25	227.47
361.63	227.53
362.01	227.58
362.39	227.63
362.77	227.70
363.15	227.70
363.53	227.74
363.91	227.79
364.29	227.82
364.67	227.71
365.05	227.72
365.43	227.79
365.81	227.84
366.19	227.86
366.57	227.90
366.95	227.87
367.33	227.83
367.71	227.81
368.09	227.81
368.47	227.77
368.85	227.78
369.23	227.77
369.61	227.75
369.99	227.78
370.37	227.74
370.75	227.78
371.13	227.75
371.51	227.70
371.89	227.65
372.27	227.61
372.65	227.63
373.03	227.59
373.41	227.52
373.78	227.46
374.16	227.39
374.54	227.31
374.92	227.24
375.30	227.19
375.68	227.14
376.06	227.07
376.44	227.00
376.82	226.93
377.19	226.85
377.57	226.75
377.95	226.64
378.33	226.57
378.71	226.41
379.09	226.37
379.47	226.33
379.84	226.30
380.22	226.25
380.60	226.14
380.98	226.05
381.36	225.95
381.73	225.91
382.11	225.84
382.49	225.80
382.87	225.73
383.25	225.67
383.62	225.72
384.00	225.66
384.38	225.63
384.76	225.62
385.13	225.61
385.51	225.56
385.89	225.54
386.27	225.50
386.64	225.51
387.02	225.46
387.40	225.41
387.78	225.35
388.15	225.29
388.53	225.27
388.91	225.26
389.29	225.22
389.66	225.18
390.04	225.20
390.42	225.15
390.79	225.12
391.17	225.12
391.55	224.97
391.92	224.95
392.30	224.93
392.68	224.91
393.05	224.92
393.43	224.96
393.81	224.95
394.18	224.94
394.56	224.94
394.94	224.97
395.31	224.99
395.69	225.06
396.06	225.11
396.44	225.13
396.82	225.13
397.19	225.22
397.57	225.24
397.95	225.25
398.32	225.31
398.70	225.38
399.07	225.43
399.45	225.50
399.82	225.57
400.20	225.63
400.58	225.69
400.95	225.70
401.33	225.79
401.70	225.92
402.08	225.99
402.45	226.07
402.83	226.18
403.20	226.28
403.58	226.35
403.95	226.46
404.33	226.62
404.71	226.77
405.08	226.98
405.46	227.10
405.83	227.25
406.21	227.35
406.58	227.53
406.96	227.70
407.33	227.84
407.70	228.05
408.08	228.30
408.45	228.52
408.83	228.75
409.20	228.93
409.58	229.08
409.95	229.33
410.33	229.60
410.70	229.85
411.08	230.12
411.45	230.42
411.82	230.72
412.20	231.00
412.57	231.39
412.95	231.64
413.32	232.07
413.69	232.47
414.07	232.92
414.44	233.36
414.82	233.78
415.19	234.37
415.56	234.90
415.94	235.43
416.31	236.03
416.68	236.65
417.06	237.39
417.43	238.07
417.81	238.81
418.18	239.56
418.55	240.37
418.93	241.24
419.30	242.11
419.67	242.99
420.04	243.97
420.42	244.98
420.79	246.17
421.16	247.28
421.54	248.47
421.91	249.68
422.28	250.96
422.66	252.30
423.03	253.54
423.40	254.85
423.77	256.30
424.15	257.69
424.52	259.19
424.89	260.76
425.26	262.34
425.64	263.78
426.01	265.38
426.38	267.06
426.75	268.73
427.13	270.47
427.50	272.30
427.87	274.16
428.24	276.00
428.61	277.73
428.99	279.70
429.36	281.75
429.73	283.78
430.10	285.78
430.47	287.79
430.85	289.89
431.22	292.12
431.59	294.41
431.96	296.68
432.33	299.15
432.70	301.52
433.08	304.30
433.45	306.95
433.82	309.55
434.19	312.41
434.56	315.17
434.93	317.77
435.30	320.34
435.68	323.16
436.05	325.94
436.42	328.69
436.79	331.21
437.16	333.87
437.53	336.68
437.90	339.45
438.27	342.15
438.64	344.93
439.01	347.46
439.38	349.69
439.75	351.82
440.13	354.24
440.50	356.53
440.87	358.37
441.24	360.28
441.61	362.36
441.98	363.85
442.35	365.60
442.72	367.46
443.09	369.30
443.46	370.30
443.83	370.91
444.20	371.41
444.57	372.22
444.94	372.54
445.31	372.90
445.68	373.27
446.05	373.37
446.42	373.05
446.79	372.66
447.16	372.25
447.53	371.96
447.90	370.85
448.27	369.71
448.64	368.13
449.01	366.99
449.37	365.07
449.74	363.19
450.11	361.04
450.48	358.64
450.85	356.15
451.22	354.09
451.59	352.09
451.96	350.21
452.33	347.60
452.70	345.24
453.07	342.43
453.43	339.52
453.80	336.84
454.17	334.19
454.54	331.72
454.91	329.02
455.28	326.35
455.65	323.89
456.02	321.50
456.38	319.37
456.75	316.75
457.12	314.54
457.49	312.32
457.86	310.17
458.23	308.28
458.59	306.21
458.96	304.10
459.33	302.26
459.70	300.39
460.07	298.92
460.43	297.24
460.80	295.67
461.17	294.30
461.54	292.83
461.91	291.40
462.27	289.96
462.64	288.76
463.01	287.47
463.38	286.17
463.74	284.80
464.11	283.67
464.48	282.66
464.85	281.57
465.21	280.72
465.58	279.77
465.95	278.68
466.32	277.81
466.68	276.94
467.05	276.07
467.42	275.22
467.78	274.30
468.15	273.47
468.52	272.83
468.88	271.99
469.25	271.21
469.62	270.66
469.98	269.98
470.35	269.32
470.72	268.73
471.08	268.11
471.45	267.58
471.82	267.03
472.18	266.48
472.55	266.05
472.92	265.49
473.28	265.09
473.65	264.69
474.02	264.26
474.38	263.91
474.75	263.61
475.11	263.25
475.48	262.97
475.85	262.72
476.21	262.45
476.58	262.26
476.94	262.14
477.31	261.91
477.67	261.79
478.04	261.74
478.41	261.68
478.77	261.72
479.14	261.64
479.50	261.66
479.87	261.73
480.23	261.81
480.60	261.92
480.96	261.99
481.33	262.19
481.69	262.38
482.06	262.58
482.42	262.78
482.79	263.03
483.15	263.37
483.52	263.74
483.88	264.12
484.25	264.47
484.61	264.90
484.98	265.40
485.34	265.94
485.71	266.49
486.07	267.09
486.44	267.67
486.80	268.42
487.17	269.17
487.53	269.93
487.90	270.80
488.26	271.72
488.62	272.73
488.99	273.71
489.35	274.76
489.72	275.88
490.08	277.07
490.44	278.32
490.81	279.66
491.17	281.02
491.54	282.51
491.90	284.06
492.26	285.67
492.63	287.37
492.99	289.19
493.36	291.06
493.72	293.12
494.08	295.22
494.45	297.41
494.81	299.75
495.17	302.23
495.54	304.80
495.90	307.52
496.26	310.33
496.63	313.25
496.99	316.33
497.35	319.58
497.72	323.03
498.08	326.60
498.44	330.24
498.80	334.16
499.17	338.22
499.53	342.44
499.89	346.84
500.26	351.37
500.62	356.00
500.98	360.97
501.34	366.04
501.71	371.37
502.07	376.82
502.43	382.38
502.79	388.17
503.16	394.21
503.52	400.51
503.88	406.86
504.24	413.48
504.60	420.38
504.97	427.48
505.33	434.73
505.69	442.36
506.05	450.12
506.41	458.05
506.78	466.15
507.14	474.55
507.50	483.28
507.86	492.30
508.22	501.50
508.59	510.69
508.95	520.25
509.31	530.01
509.67	540.10
510.03	550.38
510.39	560.89
510.75	571.65
511.12	582.46
511.48	593.76
511.84	605.22
512.20	616.70
512.56	628.59
512.92	640.67
513.28	652.98
513.64	665.41
514.00	677.95
514.37	690.83
514.73	703.85
515.09	716.74
515.45	729.92
515.81	743.36
516.17	757.31
516.53	771.34
516.89	785.40
517.25	799.37
517.61	813.73
517.97	828.05
518.33	842.35
518.69	857.01
519.05	871.85
519.41	886.84
519.77	902.27
520.13	917.61
520.49	932.93
520.85	948.16
521.21	963.66
521.57	979.83
521.93	995.51
522.29	1011.69
522.65	1027.83
523.01	1043.83
523.37	1059.74
523.73	1075.63
524.09	1091.56
524.45	1107.66
524.81	1124.22
525.17	1140.79
525.53	1157.50
525.89	1174.19
526.25	1190.95
526.61	1207.21
526.97	1223.83
527.33	1240.07
527.68	1256.46
528.04	1272.78
528.40	1289.22
528.76	1306.17
529.12	1322.54
529.48	1339.18
529.84	1355.07
530.20	1371.52
530.56	1388.31
530.91	1405.60
531.27	1422.33
531.63	1438.66
531.99	1455.12
532.35	1471.02
532.71	1486.74
533.07	1502.84
533.42	1518.64
533.78	1534.43
534.14	1550.48
534.50	1565.64
534.86	1581.33
535.21	1596.44
535.57	1612.13
535.93	1627.41
536.29	1641.93
536.65	1656.82
537.00	1671.37
537.36	1686.46
537.72	1700.75
538.08	1715.11
538.44	1728.56
538.79	1742.10
539.15	1755.51
539.51	1769.14
539.87	1783.28
540.22	1796.90
540.58	1810.45
540.94	1823.56
541.29	1836.23
541.65	1848.70
542.01	1861.77
542.37	1874.09
542.72	1886.26
543.08	1897.77
543.44	1909.99
543.79	1921.21
544.15	1932.04
544.51	1943.60
544.87	1954.38
545.22	1965.18
545.58	1975.20
545.94	1985.04
546.29	1994.86
546.65	2004.56
547.01	2013.66
547.36	2022.25
547.72	2030.44
548.07	2038.29
548.43	2046.31
548.79	2054.21
549.14	2061.67
549.50	2068.77
549.86	2076.19
550.21	2083.40
550.57	2090.67
550.92	2097.23
551.28	2104.14
551.64	2111.21
551.99	2117.59
552.35	2123.64
552.70	2129.75
553.06	2135.72
553.41	2141.83
553.77	2147.88
554.13	2154.07
554.48	2160.17
554.84	2165.69
555.19	2171.03
555.55	2176.10
555.90	2180.71
556.26	2185.71
556.61	2190.47
556.97	2195.08
557.32	2199.17
557.68	2203.43
558.03	2207.69
558.39	2211.29
558.74	2215.92
559.10	2219.83
559.45	2223.37
559.81	2227.62
560.16	2231.30
560.52	2234.66
560.87	2238.04
561.23	2240.63
561.58	2243.37
561.94	2245.89
562.29	2248.10
562.64	2250.96
563.00	2253.71
563.35	2257.04
563.71	2260.05
564.06	2263.42
564.42	2266.16
564.77	2268.74
565.12	2271.09
565.48	2273.15
565.83	2275.10
566.19	2276.59
566.54	2277.29
566.89	2278.57
567.25	2279.49
567.60	2280.93
567.96	2282.58
568.31	2283.61
568.66	2284.91
569.02	2285.70
569.37	2286.13
569.72	2287.16
570.08	2287.43
570.43	2287.46
570.78	2287.13
571.14	2285.76
571.49	2284.22
571.84	2283.92
572.20	2283.17
572.55	2282.25
572.90	2280.52
573.26	2279.26
573.61	2277.59
573.96	2276.14
574.31	2273.40
574.67	2270.39
575.02	2266.88
575.37	2263.58
575.72	2260.02
576.08	2256.59
576.43	2253.23
576.78	2249.73
577.13	2246.49
577.49	2243.26
577.84	2239.99
578.19	2236.34
578.54	2232.87
578.90	2228.98
579.25	2223.51
579.60	2218.51
579.95	2213.53
580.30	2208.70
580.66	2203.68
581.01	2198.76
581.36	2193.93
581.71	2189.84
582.06	2185.68
582.42	2181.34
582.77	2176.25
583.12	2171.76
583.47	2167.29
583.82	2162.61
584.17	2157.47
584.53	2152.14
584.88	2146.71
585.23	2141.00
585.58	2135.49
585.93	2130.08
586.28	2125.30
586.63	2120.44
586.98	2115.54
587.34	2111.02
587.69	2106.22
588.04	2101.12
588.39	2095.57
588.74	2089.26
589.09	2083.08
589.44	2076.31
589.79	2070.28
590.14	2064.66
590.49	2058.13
590.84	2051.83
591.19	2045.78
591.54	2039.37
591.89	2032.36
592.25	2025.77
592.60	2018.66
592.95	2011.35
593.30	2004.11
593.65	1996.51
594.00	1989.58
594.35	1982.27
594.70	1974.25
595.05	1967.31
595.40	1960.32
595.75	1952.98
596.10	1946.77
596.45	1940.27
596.80	1934.20
597.15	1927.67
597.50	1921.00
597.85	1914.56
598.19	1907.98
598.54	1901.12
598.89	1894.63
599.24	1888.63
599.59	1882.12
599.94	1875.88
600.29	1869.54
600.64	1863.05
600.99	1855.99
601.34	1849.19
601.69	1842.32
602.04	1835.57
602.39	1828.22
602.74	1821.17
603.08	1814.51
603.43	1807.83
603.78	1800.54
604.13	1793.34
604.48	1786.24
604.83	1779.24
605.18	1772.52
605.53	1764.69
605.87	1756.68
606.22	1749.43
606.57	1741.55
606.92	1734.20
607.27	1727.33
607.62	1720.63
607.96	1713.45
608.31	1706.82
608.66	1699.31
609.01	1691.78
609.36	1684.29
609.70	1676.39
610.05	1668.54
610.40	1660.92
610.75	1652.66
611.10	1645.12
611.44	1636.72
611.79	1628.79
612.14	1620.20
612.49	1611.01
612.83	1602.60
613.18	1594.42
613.53	1586.37
613.88	1577.87
614.22	1569.48
614.57	1560.72
614.92	1552.62
615.27	1545.20
615.61	1536.92
615.96	1528.83
616.31	1521.26
616.65	1513.84
617.00	1506.28
617.35	1498.57
617.70	1490.27
618.04	1481.88
618.39	1473.59
618.74	1466.02
619.08	1457.70
619.43	1450.01
619.78	1443.09
620.12	1435.91
620.47	1428.50
620.82	1420.28
621.16	1412.84
621.51	1405.27
621.85	1397.77
622.20	1389.33
622.55	1380.88
622.89	1372.99
623.24	1365.37
623.59	1357.97
623.93	1350.49
624.28	1343.19
624.62	1335.68
624.97	1328.55
625.32	1321.84
625.66	1314.83
626.01	1307.72
626.35	1300.39
626.70	1292.68
627.04	1284.92
627.39	1277.18
627.73	1269.80
628.08	1262.94
628.43	1255.76
628.77	1248.48
629.12	1240.96
629.46	1233.69
629.81	1226.25
630.15	1219.10
630.50	1211.68
630.84	1203.57
631.19	1195.58
631.53	1188.13
631.88	1180.48
632.22	1172.88
632.57	1165.57
632.91	1157.95
633.26	1150.56
633.60	1142.98
633.95	1135.77
634.29	1128.81
634.64	1122.13
634.98	1114.73
635.32	1107.68
635.67	1101.02
636.01	1094.32
636.36	1087.45
636.70	1080.91
637.05	1074.37
637.39	1067.85
637.73	1061.44
638.08	1055.48
638.42	1049.51
638.77	1043.08
639.11	1036.62
639.45	1030.21
639.80	1023.53
640.14	1017.26
640.49	1010.71
640.83	1004.53
641.17	998.51
641.52	992.27
641.86	985.77
642.20	979.95
642.55	973.51
642.89	967.12
643.23	960.57
643.58	954.88
643.92	948.80
644.26	942.84
644.61	936.75
644.95	930.74
645.29	924.24
645.64	917.55
645.98	911.16
646.32	905.25
646.66	899.23
647.01	893.43
647.35	887.67
647.69	881.82
648.04	876.31
648.38	870.48
648.72	864.48
649.06	858.52
649.41	852.67
649.75	846.79
650.09	840.92
650.43	835.27
650.78	829.07
651.12	823.10
651.46	817.30
651.80	811.62
652.14	806.22
652.49	800.88
652.83	795.77
653.17	790.15
653.51	784.49
653.85	779.09
654.20	773.43
654.54	767.40
654.88	761.68
655.22	755.75
655.56	750.01
655.90	744.54
656.25	739.30
656.59	733.93
656.93	728.85
657.27	723.56
657.61	718.05
657.95	713.01
658.29	707.93
658.64	702.62
658.98	697.34
659.32	691.90
659.66	686.65
660.00	681.28
660.34	676.36
660.68	671.43
661.02	666.39
661.36	661.68
661.70	657.28
662.05	652.94
662.39	648.63
662.73	644.21
663.07	639.76
663.41	635.32
663.75	630.85
664.09	626.30
664.43	621.96
664.77	617.87
665.11	613.57
665.45	609.44
665.79	605.44
666.13	601.26
666.47	597.17
666.81	593.05
667.15	588.97
667.49	585.01
667.83	581.17
668.17	577.25
668.51	573.21
668.85	569.10
669.19	565.23
669.53	561.43
669.87	557.56
670.21	553.88
670.55	550.18
670.89	546.68
671.23	543.24
671.57	539.72
671.91	536.21
672.25	532.70
672.58	529.19
672.92	525.76
673.26	522.60
673.60	519.45
673.94	516.33
674.28	513.38
674.62	510.47
674.96	507.41
675.30	504.48
675.64	501.54
675.97	498.77
676.31	495.94
676.65	492.93
676.99	490.25
677.33	487.40
677.67	484.59
678.01	481.62
678.34	478.66
678.68	475.79
679.02	472.96
679.36	470.19
679.70	467.48
680.04	464.76
680.37	461.95
680.71	459.09
681.05	456.49
681.39	453.80
681.73	451.13
682.06	448.63
682.40	446.04
682.74	443.54
683.08	441.03
683.42	438.43
683.75	435.97
684.09	433.43
684.43	430.96
684.77	428.52
685.10	426.10
685.44	423.83
685.78	421.58
686.12	419.31
686.45	417.03
686.79	414.70
687.13	412.48
687.46	410.28
687.80	408.19
688.14	405.95
688.48	403.92
688.81	401.74
689.15	399.54
689.49	397.44
689.82	395.39
690.16	393.33
690.50	391.38
690.83	389.48
691.17	387.42
691.51	385.56
691.84	383.68
692.18	381.81
692.52	379.83
692.85	377.85
693.19	376.03
693.52	374.19
693.86	372.41
694.20	370.65
694.53	368.85
694.87	366.98
695.21	365.19
695.54	363.35
695.88	361.61
696.21	359.91
696.55	358.28
696.88	356.60
697.22	354.90
697.56	353.29
697.89	351.62
698.23	350.08
698.56	348.43
698.90	346.91
699.23	345.24
699.57	343.69
699.90	342.13
700.24	340.52
700.58	339.01
700.91	337.47
701.25	336.00
701.58	334.63
701.92	333.27
702.25	331.90
702.59	330.48
702.92	329.09
703.26	327.78
703.59	326.45
703.93	325.25
704.26	323.99
704.60	322.64
704.93	321.37
705.26	320.08
705.60	318.86
705.93	317.68
706.27	316.67
706.60	315.60
706.94	314.53
707.27	313.47
707.61	312.38
707.94	311.39
708.27	310.28
708.61	309.19
708.94	308.15
709.28	307.17
709.61	306.25
709.94	305.34
710.28	304.32
710.61	303.35
710.95	302.23
711.28	301.31
711.61	300.40
711.95	299.50
712.28	298.59
712.61	297.64
712.95	296.74
713.28	295.84
713.61	294.92
713.95	294.05
714.28	293.18
714.61	292.35
714.95	291.47
715.28	290.66
715.61	289.79
715.95	288.97
716.28	288.08
716.61	287.22
716.95	286.40
717.28	285.65
717.61	284.87
717.94	284.15
718.28	283.35
718.61	282.58
718.94	281.84
719.27	281.15
719.61	280.49
719.94	279.80
720.27	279.04
720.60	278.37
720.94	277.74
721.27	277.15
721.60	276.54
721.93	275.91
722.27	275.33
722.60	274.79
722.93	274.23
723.26	273.75
723.59	273.23
723.93	272.63
724.26	272.09
724.59	271.52
724.92	270.98
725.25	270.49
725.59	269.99
725.92	269.51
726.25	269.02
726.58	268.51
726.91	268.00
727.24	267.55
727.57	267.10
727.91	266.58
728.24	266.11
728.57	265.61
728.90	265.17
729.23	264.68
729.56	264.24
729.89	263.74
730.22	263.23
730.55	262.75
730.89	262.33
731.22	261.89
731.55	261.46
731.88	261.03
732.21	260.61
732.54	260.17
732.87	259.77
733.20	259.33
733.53	258.94
733.86	258.58
734.19	258.16
734.52	257.77
734.85	257.48
735.18	257.08
735.51	256.73
735.84	256.39
736.17	256.06
736.50	255.63
736.83	255.40
737.16	255.07
737.49	254.73
737.82	254.36
738.15	254.01
738.48	253.67
738.81	253.35
739.14	253.02
739.47	252.71
739.80	252.35
740.13	252.09
740.46	251.75
740.79	251.42
741.12	251.15
741.45	250.82
741.78	250.45
742.11	250.15
742.44	249.82
742.77	249.47
743.10	249.13
743.43	248.87
743.75	248.49
744.08	248.36
744.41	248.10
744.74	247.83
745.07	247.53
745.40	247.30
745.73	247.05
746.06	246.81
746.39	246.55
746.71	246.30
747.04	246.01
747.37	245.78
747.70	245.55
748.03	245.30
748.36	245.08
748.68	244.83
749.01	244.60
749.34	244.35
749.67	244.15
750.00	243.97
750.33	243.82
750.65	243.58
750.98	243.27
751.31	243.03
751.64	242.81
751.97	242.66
752.29	242.41
752.62	242.17
752.95	241.94
753.28	241.74
753.60	241.51
753.93	241.35
754.26	241.15
754.59	240.89
754.91	240.69
755.24	240.50
755.57	240.36
755.90	240.14
756.22	240.00
756.55	239.81
756.88	239.60
757.20	239.35
757.53	239.18
757.86	238.98
758.19	238.82
758.51	238.69
758.84	238.48
759.17	238.33
759.49	238.15
759.82	238.02
760.15	237.89
760.47	237.74
760.80	237.57
761.13	237.45
761.45	237.30
761.78	237.14
762.11	237.03
762.43	236.85
762.76	236.73
763.08	236.61
763.41	236.46
763.74	236.31
764.06	236.17
764.39	236.01
764.71	235.86
765.04	235.75
765.37	235.61
765.69	235.49
766.02	235.35
766.34	235.26
766.67	235.12
767.00	234.97
767.32	234.91
767.65	234.84
767.97	234.71
768.30	234.61
768.62	234.49
768.95	234.35
769.27	234.22
769.60	234.15
769.92	234.00
770.25	233.92
770.57	233.80
770.90	233.76
771.22	233.66
771.55	233.58
771.87	233.49
772.20	233.37
772.52	233.34
772.85	233.38
773.17	233.27
773.50	233.18
773.82	233.08
774.15	232.94
774.47	232.80
774.80	232.68
775.12	232.59
775.45	232.49
775.77	232.40
776.09	232.35
776.42	232.26
776.74	232.20
777.07	232.10
777.39	232.06
777.72	231.94
778.04	231.89
778.36	231.78
778.69	231.69
779.01	231.64
779.33	231.50
779.66	231.32
779.98	231.26
780.31	231.18
780.63	231.19
780.95	231.15
781.28	231.09
781.60	231.03
781.92	230.98
782.25	230.91
782.57	230.85
782.89	230.76
783.22	230.68
783.54	230.60
783.86	230.53
784.19	230.48
784.51	230.46
784.83	230.37
785.16	230.37
785.48	230.35
785.80	230.28
786.12	230.22
786.45	230.15
786.77	230.12
787.09	230.07
787.42	230.00
787.74	229.92
788.06	229.89
788.38	229.84
788.71	229.79
789.03	229.78
789.35	229.78
789.67	229.73
789.99	229.70
790.32	229.67
790.64	229.65
790.96	229.65
791.28	229.60
791.61	229.59
791.93	229.53
792.25	229.46
792.57	229.51
792.89	229.48
793.21	229.46
793.54	229.43
793.86	229.39
794.18	229.32
794.50	229.32
794.82	229.27
795.14	229.26
795.47	229.25
795.79	229.24
796.11	229.16
796.43	229.14
796.75	229.12
797.07	229.09
797.39	229.05
797.71	228.96
798.04	228.93
798.36	228.88
798.68	228.84
799.00	228.81
799.32	228.73
799.64	228.69
799.96	228.63
800.28	228.61
800.60	228.58
800.92	228.57
801.24	228.51
801.56	228.50
801.89	228.48
802.21	228.46
802.53	228.36
802.85	228.35
803.17	228.36
803.49	228.32
803.81	228.26
804.13	228.22
804.45	228.17
804.77	228.15
805.09	228.12
805.41	228.09
805.73	228.07
806.05	228.02
806.37	228.03
806.69	228.01
807.01	227.95
807.33	227.92
807.65	227.86
807.97	227.88
808.28	227.84
808.60	227.78
808.92	227.70
809.24	227.75
809.56	227.76
809.88	227.68
810.20	227.65
810.52	227.68
810.84	227.66
811.16	227.64
811.48	227.58
811.80	227.58
812.12	227.57
812.43	227.57
812.75	227.55
813.07	227.49
813.39	227.47
813.71	227.43
814.03	227.38
814.35	227.38
814.67	227.31
814.98	227.28
815.30	227.25
815.62	227.24
815.94	227.14
816.26	227.11
816.58	227.10
816.89	227.06
817.21	227.02
817.53	226.98
817.85	226.95
818.17	226.96
818.48	226.92
818.80	226.89
819.12	226.85
819.44	226.81
819.76	226.76
820.07	226.72
820.39	226.73
820.71	226.74
821.03	226.69
821.34	226.66
821.66	226.64
821.98	226.68
822.30	226.66
822.61	226.73
822.93	226.64
823.25	226.61
823.57	226.63
823.88	226.61
824.20	226.61
824.52	226.63
824.83	226.61
825.15	226.58
825.47	226.57
825.79	226.57
826.10	226.57
826.42	226.57
826.74	226.60
827.05	226.60
827.37	226.58
827.69	226.58
828.00	226.59
828.32	226.59
828.64	226.55
828.95	226.59
829.27	226.52
829.58	226.56
829.90	226.57
830.22	226.57
830.53	226.53
830.85	226.52
831.17	226.48
831.48	226.45
831.80	226.42
832.11	226.42
832.43	226.38
832.75	226.33
833.06	226.40
833.38	226.36
833.69	226.32
834.01	226.33
834.32	226.34
834.64	226.34
834.96	226.33
835.27	226.32
835.59	226.28
835.90	226.27
836.22	226.24
836.53	226.20
836.85	226.19
837.16	226.29
837.48	226.24
837.79	226.26
838.11	226.24
838.42	226.27
838.74	226.28
839.05	226.28
839.37	226.29
839.68	226.23
840.00	226.23
840.31	226.27
840.63	226.27
840.94	226.22
841.26	226.15
841.57	226.14
841.88	226.13
842.20	226.11
842.51	226.12
842.83	226.11
843.14	226.18
843.46	226.18
843.77	226.13
844.08	226.14
844.40	226.10
844.71	226.12
845.03	226.09
845.34	226.06
845.65	226.04
845.97	226.05
846.28	226.04
846.60	226.02
846.91	225.97
847.22	225.93
847.54	225.99
847.85	226.03
848.16	226.01
848.48	226.02
848.79	226.07
849.10	226.02
849.42	226.05
849.73	225.95
850.04	225.93
850.36	225.90
850.67	225.96
850.98	225.99
851.30	226.00
851.61	226.00
851.92	226.03
852.23	226.10
852.55	226.10
852.86	226.12
853.17	226.13
853.49	226.16
853.80	226.21
854.11	226.22
854.42	226.24
854.74	226.21
855.05	226.21
855.36	226.15
855.67	226.18
855.99	226.22
856.30	226.33
856.61	226.33
856.92	226.34
857.23	226.31
857.55	226.29
857.86	226.28
858.17	226.29
858.48	226.25
858.79	226.24
859.11	226.23
859.42	226.22
859.73	226.21
860.04	226.19
860.35	226.14
860.66	226.09
860.98	226.07
861.29	226.10
861.60	226.10
861.91	226.15
862.22	226.11
862.53	226.06
862.84	225.95
863.16	225.94
863.47	225.91
863.78	225.91
864.09	225.90
864.40	225.88
864.71	225.87
865.02	225.88
865.33	225.83
865.64	225.79
865.95	225.77
866.27	225.86
866.58	225.85
866.89	225.87
867.20	225.86
867.51	225.84
867.82	225.81
868.13	225.82
868.44	225.77
868.75	225.81
869.06	225.81
869.37	225.80
869.68	225.79
869.99	225.77
870.30	225.74
870.61	225.73
870.92	225.74
871.23	225.70
871.54	225.72
871.85	225.74
872.16	225.77
872.47	225.76
872.78	225.69
873.09	225.68
873.40	225.65
873.71	225.65
874.02	225.64
874.33	225.66
874.64	225.63
874.95	225.62
875.26	225.59
875.56	225.58
875.87	225.56
876.18	225.54
876.49	225.63
876.80	225.60
877.11	225.58
877.42	225.56
877.73	225.59
878.04	225.54
878.35	225.52
878.66	225.51
878.96	225.50
879.27	225.46
879.58	225.48
879.89	225.45
880.20	225.47
880.51	225.46
880.82	225.46
881.12	225.43
881.43	225.42
881.74	225.41
882.05	225.40
882.36	225.43
882.67	225.43
882.97	225.33
883.28	225.32
883.59	225.31
883.90	225.31
884.21	225.33
884.51	225.34
884.82	225.32
885.13	225.32
885.44	225.32
885.74	225.34
886.05	225.35
886.36	225.33
886.67	225.30
886.98	225.40
887.28	225.40
887.59	225.40
887.90	225.43
888.20	225.41
888.51	225.43
888.82	225.42
889.13	225.46
889.43	225.60
889.74	225.60
890.05	225.61
890.35	225.64
890.66	225.59
890.97	225.57
891.28	225.57
891.58	225.60
891.89	225.59
892.20	225.59
892.50	225.54
892.81	225.56
893.12	225.56
893.42	225.48
893.73	225.48
894.04	225.51
894.34	225.53
894.65	225.54
894.95	225.55
895.26	225.56
895.57	225.55
895.87	225.44
896.18	225.50
896.48	225.51
896.79	225.53
897.10	225.57
897.40	225.58
897.71	225.61
898.01	225.61
898.32	225.62
898.63	225.62
898.93	225.66
899.24	225.68
899.54	225.68
899.85	225.66
900.15	225.69
900.46	225.69
900.76	225.70
901.07	225.72
901.38	225.71
901.68	225.70
901.99	225.68
902.29	225.64
902.60	225.62
902.90	225.63
903.21	225.62
903.51	225.63
903.82	225.66
904.12	225.64
904.43	225.63
904.73	225.60
905.03	225.58
905.34	225.64
905.64	225.63
905.95	225.65
906.25	225.65
906.56	225.61
906.86	225.60
907.17	225.57
907.47	225.56
907.77	225.56
908.08	225.56
908.38	225.58
908.69	225.63
908.99	225.66
909.30	225.63
909.60	225.61
909.90	225.59
910.21	225.55
910.51	225.54
910.81	225.54
911.12	225.56
911.42	225.59
911.73	225.50
912.03	225.52
912.33	225.51
912.64	225.50
912.94	225.49
913.24	225.48
913.55	225.47
913.85	225.45
914.15	225.48
914.46	225.53
914.76	225.50
915.06	225.49
915.37	225.45
915.67	225.45
915.97	225.43
916.27	225.40
916.58	225.43
916.88	225.44
917.18	225.41
917.49	225.48
917.79	225.50
918.09	225.51
918.39	225.53
918.70	225.55
919.00	225.57
919.30	225.64
919.60	225.63
919.91	225.61
920.21	225.63
920.51	225.59
920.81	225.56
921.12	225.57
921.42	225.56
921.72	225.56
922.02	225.55
922.32	225.57
922.63	225.58
922.93	225.64
923.23	225.65
923.53	225.63
923.83	225.53
924.13	225.51
924.44	225.48
924.74	225.48
925.04	225.47
925.34	225.45
925.64	225.40
925.94	225.38
926.24	225.44
926.55	225.43
926.85	225.42
927.15	225.43
927.45	225.42
927.75	225.40
928.05	225.40
928.35	225.39
928.65	225.42
928.95	225.42
929.26	225.33
929.56	225.35
929.86	225.37
930.16	225.37
930.46	225.38
930.76	225.39
931.06	225.36
931.36	225.35
931.66	225.38
931.96	225.39
932.26	225.42
932.56	225.40
932.86	225.37
933.16	225.37
933.46	225.34
933.76	225.34
934.06	225.36
934.36	225.43
934.66	225.45
934.96	225.44
935.26	225.45
935.56	225.48
935.86	225.46
936.16	225.49
936.46	225.52
936.76	225.52
937.06	225.51
937.36	225.48
937.66	225.48
937.96	225.44
938.26	225.46
938.56	225.46
938.86	225.48
939.16	225.54
939.46	225.56
939.76	225.59
940.06	225.64
940.35	225.66
940.65	225.61
940.95	225.61
941.25	225.59
941.55	225.61
941.85	225.62
942.15	225.64
942.45	225.68
942.75	225.66
943.04	225.66
943.34	225.68
943.64	225.73
943.94	225.76
944.24	225.82
944.54	225.82
944.84	225.81
945.13	225.79
945.43	225.77
945.73	225.79
946.03	225.78
946.33	225.75
946.62	225.72
946.92	225.73
947.22	225.73
947.52	225.75
947.82	225.71
948.11	225.70
948.41	225.68
948.71	225.59
949.01	225.63
949.31	225.61
949.60	225.58
949.90	225.57
950.20	225.55
950.50	225.50
950.79	225.46
951.09	225.45
951.39	225.45
951.69	225.45
951.98	225.42
952.28	225.40
952.58	225.38
952.87	225.35
953.17	225.35
953.47	225.34
953.76	225.32
954.06	225.30
954.36	225.28
954.66	225.24
954.95	225.29
955.25	225.29
955.55	225.31
955.84	225.33
956.14	225.30
956.44	225.27
956.73	225.26
957.03	225.28
957.32	225.27
957.62	225.22
957.92	225.23
958.21	225.24
958.51	225.34
958.81	225.34
959.10	225.34
959.40	225.34
959.69	225.33
959.99	225.36
960.29	225.37
960.58	225.36
960.88	225.42
961.17	225.38
961.47	225.35
961.76	225.31
962.06	225.28
962.36	225.28
962.65	225.29
962.95	225.29
963.24	225.29
963.54	225.28
963.83	225.30
964.13	225.30
964.42	225.26
964.72	225.18
965.01	225.18
965.31	225.17
965.60	225.14
965.90	225.17
966.19	225.08
966.49	225.10
966.78	225.09
967.08	225.09
967.37	225.11
967.67	225.11
967.96	225.19
968.26	225.19
968.55	225.21
968.85	225.17
969.14	225.19
969.43	225.20
969.73	225.22
970.02	225.25
970.32	225.25
970.61	225.24
970.91	225.22
971.20	225.22
971.49	225.21
971.79	225.23
972.08	225.19
972.38	225.23
972.67	225.22
972.96	225.27
973.26	225.25
973.55	225.29
973.85	225.27
974.14	225.23
974.43	225.25
974.73	225.22
975.02	225.24
975.31	225.26
975.61	225.23
975.90	225.24
976.19	225.20
976.49	225.21
976.78	225.23
977.07	225.22
977.37	225.22
977.66	225.27
977.95	225.28
978.24	225.32
978.54	225.35
978.83	225.34
979.12	225.29
979.42	225.28
979.71	225.28
980.00	225.24
980.29	225.25
980.59	225.25
980.88	225.27
981.17	225.27
981.46	225.28
981.76	225.30
982.05	225.32
982.34	225.34
982.63	225.32
982.93	225.34
983.22	225.39
983.51	225.39
983.80	225.40
984.09	225.42
984.39	225.37
984.68	225.37
984.97	225.38
985.26	225.41
985.55	225.42
985.85	225.38
986.14	225.46
986.43	225.49
986.72	225.47
987.01	225.47
987.30	225.44
987.59	225.42
987.89	225.42
988.18	225.37
988.47	225.36
988.76	225.34
989.05	225.31
989.34	225.31
989.63	225.33
989.92	225.31
990.22	225.28
990.51	225.29
990.80	225.27
991.09	225.28
991.38	225.26
991.67	225.22
991.96	225.21
992.25	225.21
992.54	225.13
992.83	225.13
993.12	225.10
993.41	225.13
993.70	225.14
993.99	225.13
994.28	225.13
994.58	225.14
994.87	225.13
995.16	225.10
995.45	225.03
995.74	224.99
996.03	224.97
996.32	224.97
996.61	225.00
996.90	224.99
997.19	224.96
997.48	224.95
997.77	224.95
998.06	224.95
998.34	224.91
998.63	224.94
998.92	224.92
999.21	224.95
999.50	224.94
999.79	224.90
1000.08	224.88
1000.37	224.88
1000.66	224.87
1000.95	224.89
1001.24	224.93
1001.53	224.96
1001.82	224.93
1002.11	224.91
1002.40	224.90
1002.68	224.90
1002.97	224.92
1003.26	224.91
1003.55	224.91
1003.84	224.93
1004.13	224.95
1004.42	224.97
1004.71	224.96
1004.99	224.92
1005.28	224.93
1005.57	224.94
1005.86	224.93
1006.15	224.93
1006.44	224.97
1006.72	224.98
1007.01	224.99
1007.30	225.00
1007.59	224.94
1007.88	224.98
1008.17	224.98
1008.45	225.01
1008.74	224.93
1009.03	224.93
1009.32	224.91
1009.60	224.92
1009.89	224.94
1010.18	224.91
1010.47	224.88
1010.76	224.88
1011.04	224.91
1011.33	224.97
1011.62	224.97
1011.91	224.98
1012.19	225.00
1012.48	224.98
1012.77	224.97
1013.05	225.00
1013.34	224.98
1013.63	225.02
1013.92	225.03
1014.20	225.06
1014.49	225.03
1014.78	225.12
1015.06	225.09
1015.35	225.13
1015.64	225.14
1015.92	225.15
1016.21	225.19
1016.50	225.21
1016.78	225.23
1017.07	225.27
1017.36	225.19
1017.64	225.18
1017.93	225.22
1018.22	225.22
1018.50	225.23
1018.79	225.25
1019.08	225.24
1019.36	225.29
1019.65	225.30
1019.93	225.33
1020.22	225.33
1020.51	225.41
1020.79	225.40
1021.08	225.35
1021.36	225.18
1021.65	225.45
1021.94	225.50
1022.22	226.00
1022.51	225.34
1022.79	225.68
1023.08	225.26
1023.36	226.56
1023.65	225.38
>>>>>End Processed Spectral Data<<<<<
