SpectraSuite Data File
++++++++++++++++++++++++++++++++++++
Date: Fri Feb 01 17:58:00 EST 2013
User: group
Dark Spectrum Present: No
Reference Spectrum Present: No
Number of Sampled Component Spectra: 1
Spectrometers: USB2E7196
Integration Time (usec): 35000 (USB2E7196)
Spectra Averaged: 100 (USB2E7196)
Boxcar Smoothing: 10 (USB2E7196)
Correct for Electrical Dark: No (USB2E7196)
Strobe/Lamp Enabled: No (USB2E7196)
Correct for Detector Non-linearity: No (USB2E7196)
Correct for Stray Light: No (USB2E7196)
Number of Pixels in Processed Spectrum: 2048
>>>>>Begin Processed Spectral Data<<<<<
339.09	0.00
339.48	213.21
339.86	213.95
340.24	215.03
340.63	217.37
341.01	219.33
341.39	219.87
341.78	220.96
342.16	222.39
342.54	222.77
342.93	211.17
343.31	221.84
343.69	222.35
344.07	222.83
344.46	223.28
344.84	223.65
345.22	223.90
345.60	224.15
345.99	224.35
346.37	224.51
346.75	224.60
347.13	224.69
347.52	224.71
347.90	224.80
348.28	224.82
348.66	224.88
349.05	224.91
349.43	224.97
349.81	225.02
350.19	225.10
350.57	225.16
350.96	225.24
351.34	225.35
351.72	225.47
352.10	225.56
352.48	225.65
352.87	225.70
353.25	225.79
353.63	225.85
354.01	225.89
354.39	225.93
354.77	226.02
355.15	226.12
355.54	226.18
355.92	226.20
356.30	226.29
356.68	226.45
357.06	226.53
357.44	226.59
357.82	226.66
358.20	226.76
358.58	226.79
358.97	226.87
359.35	226.92
359.73	226.96
360.11	227.03
360.49	227.09
360.87	227.14
361.25	227.18
361.63	227.29
362.01	227.35
362.39	227.37
362.77	227.42
363.15	227.44
363.53	227.47
363.91	227.53
364.29	227.53
364.67	227.41
365.05	227.40
365.43	227.41
365.81	227.42
366.19	227.41
366.57	227.51
366.95	227.48
367.33	227.47
367.71	227.46
368.09	227.47
368.47	227.45
368.85	227.46
369.23	227.48
369.61	227.39
369.99	227.40
370.37	227.41
370.75	227.43
371.13	227.40
371.51	227.37
371.89	227.33
372.27	227.30
372.65	227.29
373.03	227.26
373.41	227.20
373.78	227.15
374.16	227.10
374.54	226.96
374.92	226.90
375.30	226.83
375.68	226.77
376.06	226.71
376.44	226.60
376.82	226.51
377.19	226.42
377.57	226.35
377.95	226.28
378.33	226.16
378.71	226.01
379.09	225.96
379.47	225.91
379.84	225.83
380.22	225.76
380.60	225.69
380.98	225.61
381.36	225.54
381.73	225.46
382.11	225.38
382.49	225.33
382.87	225.30
383.25	225.25
383.62	225.28
384.00	225.22
384.38	225.22
384.76	225.19
385.13	225.17
385.51	225.09
385.89	225.03
386.27	225.06
386.64	225.02
387.02	224.98
387.40	224.94
387.78	224.90
388.15	224.85
388.53	224.81
388.91	224.76
389.29	224.73
389.66	224.70
390.04	224.70
390.42	224.69
390.79	224.68
391.17	224.64
391.55	224.53
391.92	224.52
392.30	224.48
392.68	224.45
393.05	224.45
393.43	224.50
393.81	224.47
394.18	224.46
394.56	224.46
394.94	224.50
395.31	224.51
395.69	224.54
396.06	224.60
396.44	224.64
396.82	224.69
397.19	224.79
397.57	224.82
397.95	224.84
398.32	224.89
398.70	224.94
399.07	225.04
399.45	225.11
399.82	225.18
400.20	225.26
400.58	225.35
400.95	225.37
401.33	225.46
401.70	225.64
402.08	225.69
402.45	225.81
402.83	225.92
403.20	226.02
403.58	226.15
403.95	226.29
404.33	226.41
404.71	226.57
405.08	226.75
405.46	226.91
405.83	227.09
406.21	227.28
406.58	227.45
406.96	227.61
407.33	227.80
407.70	228.03
408.08	228.33
408.45	228.60
408.83	228.89
409.20	229.17
409.58	229.38
409.95	229.74
410.33	230.08
410.70	230.39
411.08	230.77
411.45	231.14
411.82	231.51
412.20	231.97
412.57	232.49
412.95	232.85
413.32	233.38
413.69	233.90
414.07	234.46
414.44	235.09
414.82	235.73
415.19	236.46
415.56	237.18
415.94	237.92
416.31	238.75
416.68	239.59
417.06	240.53
417.43	241.46
417.81	242.47
418.18	243.49
418.55	244.65
418.93	245.81
419.30	247.00
419.67	248.24
420.04	249.54
420.42	250.88
420.79	252.46
421.16	254.04
421.54	255.62
421.91	257.26
422.28	258.93
422.66	260.74
423.03	262.47
423.40	264.28
423.77	266.18
424.15	268.12
424.52	270.16
424.89	272.32
425.26	274.41
425.64	276.36
426.01	278.51
426.38	280.71
426.75	282.99
427.13	285.35
427.50	287.84
427.87	290.34
428.24	292.86
428.61	295.23
428.99	297.81
429.36	300.67
429.73	303.44
430.10	306.14
430.47	308.93
430.85	311.82
431.22	314.87
431.59	318.01
431.96	320.97
432.33	324.22
432.70	327.41
433.08	331.20
433.45	334.73
433.82	338.21
434.19	342.09
434.56	345.85
434.93	349.41
435.30	352.88
435.68	356.80
436.05	360.55
436.42	364.32
436.79	367.72
437.16	371.37
437.53	375.18
437.90	378.97
438.27	382.60
438.64	386.39
439.01	389.79
439.38	392.84
439.75	395.79
440.13	399.19
440.50	402.38
440.87	404.86
441.24	407.49
441.61	410.44
441.98	412.45
442.35	414.93
442.72	417.43
443.09	419.93
443.46	421.25
443.83	422.07
444.20	422.77
444.57	423.93
444.94	424.31
445.31	424.81
445.68	425.25
446.05	425.45
446.42	424.93
446.79	424.40
447.16	423.81
447.53	423.41
447.90	421.88
448.27	420.30
448.64	418.21
449.01	416.68
449.37	414.04
449.74	411.49
450.11	408.40
450.48	405.05
450.85	401.62
451.22	398.76
451.59	396.06
451.96	393.47
452.33	389.92
452.70	386.75
453.07	382.89
453.43	379.06
453.80	375.34
454.17	371.77
454.54	368.39
454.91	364.75
455.28	361.14
455.65	357.79
456.02	354.44
456.38	351.52
456.75	347.94
457.12	344.86
457.49	341.86
457.86	338.98
458.23	336.46
458.59	333.70
458.96	330.86
459.33	328.32
459.70	325.78
460.07	323.75
460.43	321.44
460.80	319.24
461.17	317.27
461.54	315.20
461.91	313.23
462.27	311.23
462.64	309.49
463.01	307.65
463.38	305.86
463.74	304.05
464.11	302.48
464.48	301.07
464.85	299.60
465.21	298.39
465.58	297.10
465.95	295.62
466.32	294.42
466.68	293.19
467.05	292.00
467.42	290.76
467.78	289.49
468.15	288.28
468.52	287.38
468.88	286.21
469.25	285.18
469.62	284.30
469.98	283.36
470.35	282.50
470.72	281.69
471.08	280.79
471.45	280.04
471.82	279.25
472.18	278.45
472.55	277.83
472.92	277.13
473.28	276.52
473.65	275.90
474.02	275.25
474.38	274.73
474.75	274.28
475.11	273.82
475.48	273.44
475.85	273.11
476.21	272.77
476.58	272.55
476.94	272.30
477.31	272.06
477.67	271.85
478.04	271.67
478.41	271.52
478.77	271.49
479.14	271.34
479.50	271.29
479.87	271.31
480.23	271.31
480.60	271.31
480.96	271.31
481.33	271.45
481.69	271.62
482.06	271.80
482.42	271.92
482.79	272.10
483.15	272.41
483.52	272.73
483.88	273.05
484.25	273.33
484.61	273.69
484.98	274.15
485.34	274.70
485.71	275.27
486.07	275.87
486.44	276.44
486.80	277.18
487.17	277.90
487.53	278.70
487.90	279.56
488.26	280.54
488.62	281.58
488.99	282.59
489.35	283.65
489.72	284.82
490.08	286.07
490.44	287.36
490.81	288.73
491.17	290.17
491.54	291.69
491.90	293.32
492.26	295.08
492.63	296.84
492.99	298.71
493.36	300.72
493.72	302.91
494.08	305.14
494.45	307.47
494.81	310.00
495.17	312.62
495.54	315.36
495.90	318.18
496.26	321.11
496.63	324.25
496.99	327.56
497.35	330.95
497.72	334.53
498.08	338.25
498.44	342.12
498.80	346.22
499.17	350.52
499.53	354.95
499.89	359.56
500.26	364.35
500.62	369.28
500.98	374.53
501.34	379.85
501.71	385.47
502.07	391.27
502.43	397.22
502.79	403.36
503.16	409.79
503.52	416.41
503.88	423.24
504.24	430.29
504.60	437.60
504.97	445.17
505.33	452.93
505.69	461.14
506.05	469.46
506.41	477.84
506.78	486.50
507.14	495.50
507.50	504.78
507.86	514.35
508.22	524.16
508.59	533.96
508.95	544.14
509.31	554.62
509.67	565.33
510.03	576.27
510.39	587.54
510.75	599.07
511.12	610.81
511.48	622.83
511.84	635.09
512.20	647.38
512.56	660.14
512.92	673.27
513.28	686.53
513.64	699.85
514.00	713.46
514.37	727.33
514.73	741.30
515.09	755.31
515.45	769.66
515.81	784.17
516.17	799.27
516.53	814.54
516.89	829.90
517.25	845.27
517.61	860.83
517.97	876.52
518.33	892.15
518.69	908.16
519.05	924.46
519.41	940.95
519.77	957.80
520.13	974.72
520.49	991.49
520.85	1008.21
521.21	1025.38
521.57	1043.17
521.93	1060.42
522.29	1078.32
522.65	1096.04
523.01	1113.73
523.37	1131.38
523.73	1149.09
524.09	1166.77
524.45	1184.58
524.81	1202.83
525.17	1221.34
525.53	1239.85
525.89	1258.36
526.25	1276.92
526.61	1294.95
526.97	1313.41
527.33	1331.60
527.68	1349.92
528.04	1368.10
528.40	1386.41
528.76	1405.18
529.12	1423.54
529.48	1442.35
529.84	1460.18
530.20	1478.78
530.56	1497.74
530.91	1517.09
531.27	1535.79
531.63	1554.21
531.99	1572.75
532.35	1590.56
532.71	1608.59
533.07	1626.79
533.42	1644.71
533.78	1662.75
534.14	1681.17
534.50	1698.56
534.86	1716.64
535.21	1733.85
535.57	1751.88
535.93	1769.57
536.29	1786.60
536.65	1803.77
537.00	1820.52
537.36	1838.17
537.72	1854.74
538.08	1871.34
538.44	1887.35
538.79	1903.28
539.15	1918.99
539.51	1934.84
539.87	1951.43
540.22	1967.01
540.58	1983.10
540.94	1998.56
541.29	2013.62
541.65	2028.56
542.01	2044.04
542.37	2058.52
542.72	2073.08
543.08	2087.19
543.44	2101.80
543.79	2115.14
544.15	2128.27
544.51	2142.19
544.87	2155.21
545.22	2168.29
545.58	2180.67
545.94	2192.68
546.29	2204.81
546.65	2217.01
547.01	2228.61
547.36	2239.45
547.72	2250.06
548.07	2259.97
548.43	2270.24
548.79	2280.23
549.14	2289.71
549.50	2298.86
549.86	2308.40
550.21	2317.77
550.57	2326.82
550.92	2335.39
551.28	2344.46
551.64	2353.42
551.99	2361.73
552.35	2369.72
552.70	2377.91
553.06	2385.59
553.41	2393.71
553.77	2401.58
554.13	2409.41
554.48	2417.30
554.84	2424.67
555.19	2431.72
555.55	2438.63
555.90	2444.81
556.26	2451.57
556.61	2458.01
556.97	2464.03
557.32	2469.86
557.68	2475.53
558.03	2481.37
558.39	2486.46
558.74	2492.76
559.10	2498.27
559.45	2503.46
559.81	2509.34
560.16	2514.43
560.52	2519.32
560.87	2524.11
561.23	2528.07
561.58	2532.23
561.94	2536.04
562.29	2539.63
562.64	2543.93
563.00	2547.95
563.35	2552.84
563.71	2557.25
564.06	2561.65
564.42	2565.91
564.77	2569.78
565.12	2573.55
565.48	2576.79
565.83	2580.11
566.19	2582.60
566.54	2584.52
566.89	2586.82
567.25	2588.58
567.60	2590.93
567.96	2593.76
568.31	2595.52
568.66	2597.85
569.02	2599.36
569.37	2600.46
569.72	2602.35
570.08	2603.17
570.43	2603.93
570.78	2604.14
571.14	2603.17
571.49	2602.45
571.84	2602.75
572.20	2602.31
572.55	2601.61
572.90	2600.33
573.26	2599.28
573.61	2597.87
573.96	2596.71
574.31	2594.05
574.67	2591.30
575.02	2587.92
575.37	2584.42
575.72	2580.85
576.08	2577.36
576.43	2574.22
576.78	2570.78
577.13	2567.67
577.49	2564.56
577.84	2561.08
578.19	2557.23
578.54	2553.72
578.90	2549.46
579.25	2543.57
579.60	2538.28
579.95	2533.16
580.30	2527.87
580.66	2522.36
581.01	2517.11
581.36	2511.81
581.71	2507.50
582.06	2502.76
582.42	2497.98
582.77	2492.52
583.12	2487.66
583.47	2482.76
583.82	2477.53
584.17	2471.77
584.53	2465.77
584.88	2459.78
585.23	2453.57
585.58	2447.56
585.93	2441.56
586.28	2436.36
586.63	2430.86
586.98	2425.31
587.34	2420.08
587.69	2414.76
588.04	2409.16
588.39	2402.91
588.74	2395.67
589.09	2388.71
589.44	2381.15
589.79	2374.45
590.14	2368.21
590.49	2360.79
590.84	2353.56
591.19	2346.82
591.54	2339.55
591.89	2331.54
592.25	2323.87
592.60	2315.72
592.95	2307.33
593.30	2298.99
593.65	2290.38
594.00	2282.52
594.35	2274.30
594.70	2265.05
595.05	2257.00
595.40	2248.56
595.75	2240.08
596.10	2233.07
596.45	2225.37
596.80	2218.35
597.15	2210.81
597.50	2202.93
597.85	2195.51
598.19	2187.82
598.54	2179.76
598.89	2172.24
599.24	2165.22
599.59	2157.61
599.94	2150.32
600.29	2143.01
600.64	2135.47
600.99	2126.87
601.34	2118.97
601.69	2110.87
602.04	2103.05
602.39	2094.50
602.74	2086.64
603.08	2078.87
603.43	2070.92
603.78	2062.40
604.13	2053.96
604.48	2045.51
604.83	2037.40
605.18	2029.53
605.53	2020.43
605.87	2011.00
606.22	2002.57
606.57	1993.23
606.92	1984.53
607.27	1976.27
607.62	1968.24
607.96	1959.80
608.31	1952.05
608.66	1943.01
609.01	1934.26
609.36	1925.57
609.70	1916.17
610.05	1906.94
610.40	1897.93
610.75	1888.28
611.10	1879.50
611.44	1869.64
611.79	1860.40
612.14	1850.20
612.49	1839.44
612.83	1829.44
613.18	1819.89
613.53	1810.38
613.88	1800.42
614.22	1790.77
614.57	1780.65
614.92	1771.23
615.27	1762.39
615.61	1752.67
615.96	1743.46
616.31	1734.55
616.65	1725.75
617.00	1717.03
617.35	1707.97
617.70	1698.29
618.04	1688.37
618.39	1678.60
618.74	1669.68
619.08	1659.81
619.43	1650.88
619.78	1642.70
620.12	1634.43
620.47	1625.60
620.82	1615.88
621.16	1607.18
621.51	1598.13
621.85	1589.09
622.20	1579.12
622.55	1569.10
622.89	1559.92
623.24	1550.80
623.59	1542.00
623.93	1533.15
624.28	1524.65
624.62	1515.73
624.97	1507.11
625.32	1499.01
625.66	1490.81
626.01	1482.33
626.35	1473.68
626.70	1464.60
627.04	1455.49
627.39	1446.22
627.73	1437.59
628.08	1429.58
628.43	1421.18
628.77	1412.66
629.12	1403.87
629.46	1395.38
629.81	1386.62
630.15	1378.11
630.50	1369.46
630.84	1359.85
631.19	1350.50
631.53	1341.56
631.88	1332.76
632.22	1323.90
632.57	1315.39
632.91	1306.43
633.26	1297.77
633.60	1288.96
633.95	1280.61
634.29	1272.34
634.64	1264.59
634.98	1255.92
635.32	1247.46
635.67	1239.55
636.01	1231.80
636.36	1223.91
636.70	1216.24
637.05	1208.78
637.39	1201.21
637.73	1193.66
638.08	1186.77
638.42	1179.68
638.77	1172.18
639.11	1164.41
639.45	1156.94
639.80	1149.28
640.14	1141.90
640.49	1134.33
640.83	1127.03
641.17	1119.75
641.52	1112.30
641.86	1104.66
642.20	1097.91
642.55	1090.59
642.89	1083.07
643.23	1075.39
643.58	1068.61
643.92	1061.41
644.26	1054.34
644.61	1047.22
644.95	1040.23
645.29	1032.66
645.64	1024.88
645.98	1017.55
646.32	1010.59
646.66	1003.57
647.01	996.82
647.35	990.18
647.69	983.35
648.04	976.94
648.38	970.19
648.72	963.49
649.06	956.59
649.41	949.67
649.75	942.89
650.09	936.08
650.43	929.44
650.78	922.28
651.12	915.45
651.46	908.83
651.80	902.28
652.14	896.05
652.49	889.81
652.83	883.90
653.17	877.35
653.51	870.93
653.85	864.67
654.20	858.18
654.54	851.21
654.88	844.60
655.22	837.83
655.56	831.29
655.90	824.81
656.25	818.76
656.59	812.57
656.93	806.67
657.27	800.74
657.61	794.37
657.95	788.54
658.29	782.62
658.64	776.48
658.98	770.34
659.32	763.99
659.66	758.00
660.00	751.90
660.34	746.20
660.68	740.51
661.02	734.75
661.36	729.32
661.70	724.17
662.05	719.15
662.39	714.17
662.73	709.00
663.07	703.97
663.41	698.84
663.75	693.68
664.09	688.42
664.43	683.30
664.77	678.66
665.11	673.82
665.45	669.04
665.79	664.37
666.13	659.66
666.47	654.99
666.81	650.23
667.15	645.45
667.49	640.95
667.83	636.54
668.17	631.97
668.51	627.23
668.85	622.63
669.19	618.13
669.53	613.73
669.87	609.33
670.21	605.06
670.55	600.85
670.89	596.90
671.23	592.91
671.57	588.79
671.91	584.70
672.25	580.59
672.58	576.56
672.92	572.58
673.26	568.89
673.60	565.17
673.94	561.53
674.28	558.17
674.62	554.73
674.96	551.16
675.30	547.83
675.64	544.46
675.97	541.22
676.31	537.98
676.65	534.54
676.99	531.44
677.33	528.14
677.67	524.85
678.01	521.45
678.34	518.01
678.68	514.77
679.02	511.53
679.36	508.34
679.70	505.19
680.04	502.08
680.37	498.80
680.71	495.63
681.05	492.63
681.39	489.47
681.73	486.44
682.06	483.60
682.40	480.67
682.74	477.75
683.08	474.84
683.42	471.84
683.75	469.01
684.09	466.02
684.43	463.15
684.77	460.35
685.10	457.55
685.44	454.88
685.78	452.19
686.12	449.56
686.45	446.89
686.79	444.24
687.13	441.68
687.46	439.17
687.80	436.65
688.14	434.03
688.48	431.64
688.81	429.00
689.15	426.39
689.49	423.88
689.82	421.44
690.16	418.95
690.50	416.65
690.83	414.40
691.17	412.12
691.51	409.93
691.84	407.79
692.18	405.60
692.52	403.31
692.85	401.06
693.19	398.91
693.52	396.79
693.86	394.67
694.20	392.55
694.53	390.53
694.87	388.40
695.21	386.36
695.54	384.31
695.88	382.32
696.21	380.34
696.55	378.40
696.88	376.42
697.22	374.50
697.56	372.64
697.89	370.73
698.23	368.89
698.56	367.03
698.90	365.19
699.23	363.29
699.57	361.56
699.90	359.79
700.24	358.02
700.58	356.31
700.91	354.61
701.25	352.93
701.58	351.29
701.92	349.69
702.25	348.13
702.59	346.55
702.92	345.03
703.26	343.59
703.59	342.15
703.93	340.84
704.26	339.45
704.60	337.96
704.93	336.47
705.26	335.02
705.60	333.69
705.93	332.36
706.27	331.15
706.60	329.88
706.94	328.64
707.27	327.30
707.61	325.99
707.94	324.80
708.27	323.53
708.61	322.30
708.94	321.15
709.28	319.99
709.61	318.86
709.94	317.78
710.28	316.61
710.61	315.41
710.95	314.14
711.28	313.03
711.61	311.91
711.95	310.88
712.28	309.81
712.61	308.65
712.95	307.52
713.28	306.46
713.61	305.43
713.95	304.42
714.28	303.47
714.61	302.49
714.95	301.52
715.28	300.54
715.61	299.48
715.95	298.52
716.28	297.50
716.61	296.53
716.95	295.57
717.28	294.63
717.61	293.76
717.94	292.94
718.28	292.02
718.61	291.15
718.94	290.32
719.27	289.52
719.61	288.75
719.94	287.99
720.27	287.17
720.60	286.39
720.94	285.62
721.27	284.90
721.60	284.26
721.93	283.54
722.27	282.85
722.60	282.24
722.93	281.53
723.26	280.91
723.59	280.24
723.93	279.58
724.26	278.92
724.59	278.27
724.92	277.64
725.25	277.07
725.59	276.48
725.92	275.89
726.25	275.29
726.58	274.74
726.91	274.16
727.24	273.62
727.57	273.10
727.91	272.53
728.24	271.98
728.57	271.39
728.90	270.84
729.23	270.32
729.56	269.81
729.89	269.25
730.22	268.67
730.55	268.13
730.89	267.60
731.22	267.11
731.55	266.59
731.88	266.08
732.21	265.54
732.54	265.04
732.87	264.56
733.20	264.09
733.53	263.64
733.86	263.20
734.19	262.70
734.52	262.26
734.85	261.88
735.18	261.40
735.51	260.95
735.84	260.55
736.17	260.13
736.50	259.67
736.83	259.41
737.16	259.03
737.49	258.63
737.82	258.24
738.15	257.88
738.48	257.48
738.81	257.11
739.14	256.75
739.47	256.38
739.80	256.02
740.13	255.66
740.46	255.26
740.79	254.89
741.12	254.54
741.45	254.17
741.78	253.78
742.11	253.50
742.44	253.16
742.77	252.84
743.10	252.47
743.43	252.12
743.75	251.66
744.08	251.47
744.41	251.14
744.74	250.81
745.07	250.48
745.40	250.22
745.73	249.91
746.06	249.60
746.39	249.26
746.71	248.94
747.04	248.63
747.37	248.33
747.70	248.08
748.03	247.83
748.36	247.53
748.68	247.26
749.01	246.93
749.34	246.66
749.67	246.39
750.00	246.15
750.33	245.94
750.65	245.73
750.98	245.35
751.31	245.13
751.64	244.93
751.97	244.74
752.29	244.46
752.62	244.22
752.95	244.01
753.28	243.78
753.60	243.56
753.93	243.36
754.26	243.15
754.59	242.86
754.91	242.61
755.24	242.40
755.57	242.19
755.90	242.01
756.22	241.80
756.55	241.53
756.88	241.33
757.20	241.09
757.53	240.89
757.86	240.70
758.19	240.49
758.51	240.27
758.84	240.05
759.17	239.87
759.49	239.68
759.82	239.55
760.15	239.36
760.47	239.18
760.80	238.97
761.13	238.82
761.45	238.67
761.78	238.49
762.11	238.35
762.43	238.16
762.76	238.01
763.08	237.84
763.41	237.70
763.74	237.56
764.06	237.35
764.39	237.17
764.71	237.02
765.04	236.89
765.37	236.75
765.69	236.61
766.02	236.48
766.34	236.31
766.67	236.12
767.00	236.05
767.32	235.98
767.65	235.97
767.97	235.82
768.30	235.71
768.62	235.59
768.95	235.39
769.27	235.25
769.60	235.11
769.92	234.98
770.25	234.85
770.57	234.71
770.90	234.61
771.22	234.48
771.55	234.37
771.87	234.24
772.20	234.12
772.52	234.08
772.85	234.06
773.17	233.98
773.50	233.86
773.82	233.73
774.15	233.55
774.47	233.32
774.80	233.20
775.12	233.06
775.45	232.97
775.77	232.92
776.09	232.85
776.42	232.74
776.74	232.67
777.07	232.60
777.39	232.49
777.72	232.39
778.04	232.33
778.36	232.23
778.69	232.18
779.01	232.10
779.33	231.94
779.66	231.79
779.98	231.70
780.31	231.65
780.63	231.60
780.95	231.56
781.28	231.50
781.60	231.44
781.92	231.39
782.25	231.32
782.57	231.25
782.89	231.20
783.22	231.15
783.54	231.08
783.86	230.99
784.19	230.95
784.51	230.92
784.83	230.85
785.16	230.75
785.48	230.68
785.80	230.61
786.12	230.56
786.45	230.47
786.77	230.42
787.09	230.33
787.42	230.26
787.74	230.18
788.06	230.15
788.38	230.10
788.71	230.00
789.03	229.96
789.35	229.94
789.67	229.86
789.99	229.81
790.32	229.73
790.64	229.71
790.96	229.75
791.28	229.68
791.61	229.61
791.93	229.60
792.25	229.58
792.57	229.62
792.89	229.58
793.21	229.53
793.54	229.48
793.86	229.43
794.18	229.40
794.50	229.36
794.82	229.31
795.14	229.29
795.47	229.29
795.79	229.25
796.11	229.19
796.43	229.14
796.75	229.10
797.07	229.07
797.39	229.04
797.71	228.93
798.04	228.93
798.36	228.92
798.68	228.90
799.00	228.84
799.32	228.75
799.64	228.71
799.96	228.69
800.28	228.65
800.60	228.61
800.92	228.57
801.24	228.51
801.56	228.47
801.89	228.42
802.21	228.39
802.53	228.32
802.85	228.28
803.17	228.32
803.49	228.27
803.81	228.23
804.13	228.17
804.45	228.13
804.77	228.07
805.09	228.03
805.41	227.99
805.73	227.95
806.05	227.89
806.37	227.84
806.69	227.83
807.01	227.80
807.33	227.81
807.65	227.71
807.97	227.74
808.28	227.71
808.60	227.70
808.92	227.64
809.24	227.69
809.56	227.67
809.88	227.59
810.20	227.58
810.52	227.58
810.84	227.54
811.16	227.49
811.48	227.46
811.80	227.46
812.12	227.42
812.43	227.39
812.75	227.36
813.07	227.33
813.39	227.27
813.71	227.24
814.03	227.17
814.35	227.17
814.67	227.11
814.98	227.07
815.30	227.02
815.62	227.00
815.94	226.91
816.26	226.91
816.58	226.87
816.89	226.82
817.21	226.78
817.53	226.78
817.85	226.72
818.17	226.68
818.48	226.60
818.80	226.60
819.12	226.57
819.44	226.51
819.76	226.50
820.07	226.50
820.39	226.49
820.71	226.48
821.03	226.45
821.34	226.41
821.66	226.41
821.98	226.41
822.30	226.37
822.61	226.41
822.93	226.34
823.25	226.32
823.57	226.34
823.88	226.32
824.20	226.27
824.52	226.27
824.83	226.27
825.15	226.25
825.47	226.21
825.79	226.20
826.10	226.22
826.42	226.16
826.74	226.15
827.05	226.10
827.37	226.08
827.69	226.04
828.00	226.02
828.32	226.01
828.64	226.00
828.95	226.06
829.27	226.02
829.58	225.98
829.90	226.00
830.22	225.94
830.53	225.91
830.85	225.94
831.17	225.93
831.48	225.92
831.80	225.92
832.11	225.92
832.43	225.89
832.75	225.90
833.06	225.96
833.38	225.89
833.69	225.91
834.01	225.92
834.32	225.92
834.64	225.93
834.96	225.91
835.27	225.87
835.59	225.80
835.90	225.77
836.22	225.77
836.53	225.76
836.85	225.77
837.16	225.87
837.48	225.84
837.79	225.88
838.11	225.90
838.42	225.91
838.74	225.89
839.05	225.89
839.37	225.89
839.68	225.83
840.00	225.83
840.31	225.86
840.63	225.84
840.94	225.82
841.26	225.79
841.57	225.81
841.88	225.82
842.20	225.82
842.51	225.83
842.83	225.83
843.14	225.90
843.46	225.89
843.77	225.80
844.08	225.80
844.40	225.75
844.71	225.71
845.03	225.69
845.34	225.72
845.65	225.71
845.97	225.67
846.28	225.65
846.60	225.67
846.91	225.63
847.22	225.62
847.54	225.64
847.85	225.64
848.16	225.61
848.48	225.59
848.79	225.59
849.10	225.58
849.42	225.56
849.73	225.47
850.04	225.43
850.36	225.41
850.67	225.41
850.98	225.41
851.30	225.42
851.61	225.40
851.92	225.35
852.23	225.37
852.55	225.37
852.86	225.41
853.17	225.42
853.49	225.45
853.80	225.48
854.11	225.49
854.42	225.48
854.74	225.50
855.05	225.47
855.36	225.43
855.67	225.43
855.99	225.44
856.30	225.57
856.61	225.57
856.92	225.57
857.23	225.58
857.55	225.56
857.86	225.53
858.17	225.57
858.48	225.55
858.79	225.53
859.11	225.54
859.42	225.48
859.73	225.46
860.04	225.44
860.35	225.41
860.66	225.40
860.98	225.41
861.29	225.41
861.60	225.42
861.91	225.45
862.22	225.43
862.53	225.41
862.84	225.26
863.16	225.29
863.47	225.26
863.78	225.25
864.09	225.26
864.40	225.25
864.71	225.22
865.02	225.23
865.33	225.20
865.64	225.18
865.95	225.19
866.27	225.23
866.58	225.22
866.89	225.25
867.20	225.25
867.51	225.21
867.82	225.18
868.13	225.21
868.44	225.16
868.75	225.23
869.06	225.27
869.37	225.27
869.68	225.29
869.99	225.29
870.30	225.30
870.61	225.30
870.92	225.32
871.23	225.31
871.54	225.34
871.85	225.41
872.16	225.41
872.47	225.43
872.78	225.37
873.09	225.38
873.40	225.36
873.71	225.33
874.02	225.35
874.33	225.34
874.64	225.32
874.95	225.37
875.26	225.32
875.56	225.31
875.87	225.31
876.18	225.30
876.49	225.38
876.80	225.36
877.11	225.37
877.42	225.35
877.73	225.36
878.04	225.37
878.35	225.35
878.66	225.37
878.96	225.37
879.27	225.38
879.58	225.36
879.89	225.35
880.20	225.39
880.51	225.40
880.82	225.41
881.12	225.44
881.43	225.40
881.74	225.38
882.05	225.34
882.36	225.35
882.67	225.33
882.97	225.24
883.28	225.23
883.59	225.17
883.90	225.18
884.21	225.15
884.51	225.11
884.82	225.09
885.13	225.06
885.44	225.03
885.74	225.02
886.05	225.03
886.36	224.99
886.67	224.95
886.98	224.96
887.28	224.94
887.59	224.91
887.90	224.89
888.20	224.86
888.51	224.87
888.82	224.82
889.13	224.81
889.43	224.90
889.74	224.89
890.05	224.92
890.35	224.93
890.66	224.93
890.97	224.92
891.28	224.89
891.58	224.91
891.89	224.91
892.20	224.92
892.50	224.88
892.81	224.90
893.12	224.87
893.42	224.84
893.73	224.84
894.04	224.86
894.34	224.89
894.65	224.90
894.95	224.90
895.26	224.93
895.57	224.99
895.87	224.85
896.18	224.87
896.48	224.85
896.79	224.82
897.10	224.84
897.40	224.86
897.71	224.89
898.01	224.87
898.32	224.88
898.63	224.83
898.93	224.86
899.24	224.87
899.54	224.90
899.85	224.89
900.15	224.90
900.46	224.88
900.76	224.88
901.07	224.87
901.38	224.85
901.68	224.84
901.99	224.79
902.29	224.81
902.60	224.79
902.90	224.78
903.21	224.77
903.51	224.74
903.82	224.73
904.12	224.74
904.43	224.74
904.73	224.73
905.03	224.80
905.34	224.92
905.64	224.89
905.95	224.89
906.25	224.92
906.56	224.95
906.86	224.96
907.17	224.96
907.47	224.97
907.77	224.99
908.08	224.97
908.38	224.97
908.69	225.02
908.99	225.10
909.30	225.08
909.60	225.14
909.90	225.16
910.21	225.15
910.51	225.13
910.81	225.16
911.12	225.21
911.42	225.18
911.73	225.06
912.03	225.13
912.33	225.14
912.64	225.13
912.94	225.11
913.24	225.09
913.55	225.09
913.85	225.14
914.15	225.17
914.46	225.21
914.76	225.23
915.06	225.20
915.37	225.16
915.67	225.17
915.97	225.18
916.27	225.17
916.58	225.18
916.88	225.16
917.18	225.18
917.49	225.22
917.79	225.21
918.09	225.18
918.39	225.14
918.70	225.15
919.00	225.17
919.30	225.22
919.60	225.24
919.91	225.21
920.21	225.20
920.51	225.15
920.81	225.14
921.12	225.16
921.42	225.20
921.72	225.19
922.02	225.23
922.32	225.24
922.63	225.26
922.93	225.31
923.23	225.32
923.53	225.27
923.83	225.22
924.13	225.24
924.44	225.25
924.74	225.29
925.04	225.30
925.34	225.26
925.64	225.22
925.94	225.19
926.24	225.25
926.55	225.21
926.85	225.23
927.15	225.23
927.45	225.18
927.75	225.16
928.05	225.14
928.35	225.12
928.65	225.07
928.95	225.04
929.26	224.96
929.56	224.96
929.86	224.99
930.16	224.97
930.46	224.98
930.76	225.00
931.06	224.91
931.36	224.90
931.66	224.93
931.96	224.90
932.26	224.90
932.56	224.83
932.86	224.86
933.16	224.86
933.46	224.84
933.76	224.84
934.06	224.83
934.36	224.87
934.66	224.86
934.96	224.86
935.26	224.90
935.56	224.93
935.86	224.91
936.16	224.89
936.46	224.86
936.76	224.85
937.06	224.80
937.36	224.84
937.66	224.83
937.96	224.79
938.26	224.79
938.56	224.78
938.86	224.81
939.16	224.81
939.46	224.83
939.76	224.83
940.06	224.79
940.35	224.75
940.65	224.72
940.95	224.73
941.25	224.72
941.55	224.67
941.85	224.65
942.15	224.66
942.45	224.69
942.75	224.71
943.04	224.71
943.34	224.73
943.64	224.72
943.94	224.70
944.24	224.75
944.54	224.76
944.84	224.76
945.13	224.73
945.43	224.72
945.73	224.71
946.03	224.72
946.33	224.75
946.62	224.77
946.92	224.77
947.22	224.78
947.52	224.75
947.82	224.77
948.11	224.76
948.41	224.75
948.71	224.71
949.01	224.69
949.31	224.69
949.60	224.69
949.90	224.72
950.20	224.73
950.50	224.72
950.79	224.70
951.09	224.73
951.39	224.74
951.69	224.74
951.98	224.72
952.28	224.75
952.58	224.77
952.87	224.75
953.17	224.74
953.47	224.71
953.76	224.71
954.06	224.70
954.36	224.72
954.66	224.73
954.95	224.76
955.25	224.81
955.55	224.82
955.84	224.80
956.14	224.80
956.44	224.83
956.73	224.82
957.03	224.83
957.32	224.81
957.62	224.81
957.92	224.81
958.21	224.81
958.51	224.88
958.81	224.88
959.10	224.88
959.40	224.92
959.69	224.92
959.99	224.93
960.29	224.96
960.58	224.93
960.88	224.92
961.17	224.91
961.47	224.93
961.76	224.90
962.06	224.92
962.36	224.93
962.65	224.89
962.95	224.87
963.24	224.87
963.54	224.85
963.83	224.86
964.13	224.87
964.42	224.83
964.72	224.75
965.01	224.77
965.31	224.78
965.60	224.77
965.90	224.84
966.19	224.84
966.49	224.85
966.78	224.87
967.08	224.90
967.37	224.89
967.67	224.84
967.96	224.85
968.26	224.84
968.55	224.84
968.85	224.85
969.14	224.85
969.43	224.85
969.73	224.85
970.02	224.84
970.32	224.84
970.61	224.87
970.91	224.84
971.20	224.80
971.49	224.80
971.79	224.83
972.08	224.74
972.38	224.72
972.67	224.69
972.96	224.69
973.26	224.69
973.55	224.71
973.85	224.69
974.14	224.71
974.43	224.74
974.73	224.69
975.02	224.69
975.31	224.68
975.61	224.69
975.90	224.70
976.19	224.69
976.49	224.69
976.78	224.67
977.07	224.67
977.37	224.68
977.66	224.71
977.95	224.66
978.24	224.68
978.54	224.73
978.83	224.72
979.12	224.71
979.42	224.71
979.71	224.69
980.00	224.68
980.29	224.66
980.59	224.60
980.88	224.65
981.17	224.62
981.46	224.62
981.76	224.62
982.05	224.62
982.34	224.62
982.63	224.62
982.93	224.62
983.22	224.64
983.51	224.62
983.80	224.59
984.09	224.62
984.39	224.61
984.68	224.55
984.97	224.57
985.26	224.59
985.55	224.58
985.85	224.55
986.14	224.61
986.43	224.64
986.72	224.65
987.01	224.61
987.30	224.63
987.59	224.66
987.89	224.62
988.18	224.62
988.47	224.65
988.76	224.64
989.05	224.63
989.34	224.59
989.63	224.63
989.92	224.62
990.22	224.58
990.51	224.59
990.80	224.60
991.09	224.61
991.38	224.61
991.67	224.60
991.96	224.62
992.25	224.62
992.54	224.58
992.83	224.60
993.12	224.61
993.41	224.61
993.70	224.65
993.99	224.73
994.28	224.75
994.58	224.73
994.87	224.73
995.16	224.74
995.45	224.78
995.74	224.74
996.03	224.78
996.32	224.79
996.61	224.82
996.90	224.84
997.19	224.83
997.48	224.82
997.77	224.85
998.06	224.86
998.34	224.85
998.63	224.86
998.92	224.86
999.21	224.86
999.50	224.88
999.79	224.83
1000.08	224.82
1000.37	224.80
1000.66	224.78
1000.95	224.83
1001.24	224.86
1001.53	224.87
1001.82	224.87
1002.11	224.85
1002.40	224.90
1002.68	224.92
1002.97	224.97
1003.26	224.99
1003.55	224.98
1003.84	224.95
1004.13	224.97
1004.42	224.92
1004.71	224.93
1004.99	224.90
1005.28	224.93
1005.57	224.90
1005.86	224.89
1006.15	224.85
1006.44	224.83
1006.72	224.86
1007.01	224.83
1007.30	224.81
1007.59	224.78
1007.88	224.79
1008.17	224.78
1008.45	224.73
1008.74	224.70
1009.03	224.65
1009.32	224.63
1009.60	224.64
1009.89	224.64
1010.18	224.60
1010.47	224.64
1010.76	224.64
1011.04	224.63
1011.33	224.71
1011.62	224.71
1011.91	224.72
1012.19	224.75
1012.48	224.77
1012.77	224.76
1013.05	224.81
1013.34	224.81
1013.63	224.79
1013.92	224.77
1014.20	224.74
1014.49	224.76
1014.78	224.74
1015.06	224.71
1015.35	224.70
1015.64	224.68
1015.92	224.66
1016.21	224.67
1016.50	224.67
1016.78	224.69
1017.07	224.69
1017.36	224.58
1017.64	224.56
1017.93	224.54
1018.22	224.50
1018.50	224.49
1018.79	224.46
1019.08	224.39
1019.36	224.40
1019.65	224.40
1019.93	224.43
1020.22	224.44
1020.51	224.45
1020.79	224.46
1021.08	224.05
1021.36	224.54
1021.65	224.07
1021.94	224.34
1022.22	224.85
1022.51	224.04
1022.79	225.03
1023.08	224.32
1023.36	225.17
1023.65	224.58
>>>>>End Processed Spectral Data<<<<<
