SpectraSuite Data File
++++++++++++++++++++++++++++++++++++
Date: Fri Feb 01 14:57:34 EST 2013
User: group
Dark Spectrum Present: No
Reference Spectrum Present: No
Number of Sampled Component Spectra: 1
Spectrometers: USB2E7196
Integration Time (usec): 35000 (USB2E7196)
Spectra Averaged: 100 (USB2E7196)
Boxcar Smoothing: 10 (USB2E7196)
Correct for Electrical Dark: No (USB2E7196)
Strobe/Lamp Enabled: No (USB2E7196)
Correct for Detector Non-linearity: No (USB2E7196)
Correct for Stray Light: No (USB2E7196)
Number of Pixels in Processed Spectrum: 2048
>>>>>Begin Processed Spectral Data<<<<<
339.09	0.00
339.48	215.13
339.86	217.11
340.24	218.25
340.63	219.50
341.01	221.53
341.39	222.48
341.78	223.10
342.16	224.41
342.54	225.40
342.93	213.39
343.31	224.15
343.69	224.70
344.07	225.13
344.46	225.56
344.84	225.94
345.22	226.18
345.60	226.42
345.99	226.61
346.37	226.74
346.75	226.83
347.13	226.89
347.52	226.96
347.90	227.02
348.28	227.06
348.66	227.11
349.05	227.07
349.43	227.10
349.81	227.16
350.19	227.22
350.57	227.28
350.96	227.35
351.34	227.46
351.72	227.54
352.10	227.64
352.48	227.68
352.87	227.74
353.25	227.82
353.63	227.84
354.01	227.93
354.39	228.01
354.77	228.11
355.15	228.19
355.54	228.25
355.92	228.30
356.30	228.40
356.68	228.50
357.06	228.60
357.44	228.66
357.82	228.72
358.20	228.77
358.58	228.87
358.97	228.94
359.35	229.03
359.73	229.10
360.11	229.14
360.49	229.20
360.87	229.25
361.25	229.32
361.63	229.44
362.01	229.48
362.39	229.50
362.77	229.51
363.15	229.56
363.53	229.57
363.91	229.62
364.29	229.63
364.67	229.55
365.05	229.57
365.43	229.59
365.81	229.56
366.19	229.62
366.57	229.63
366.95	229.64
367.33	229.62
367.71	229.57
368.09	229.59
368.47	229.59
368.85	229.53
369.23	229.50
369.61	229.42
369.99	229.40
370.37	229.40
370.75	229.41
371.13	229.34
371.51	229.33
371.89	229.27
372.27	229.24
372.65	229.21
373.03	229.14
373.41	229.09
373.78	229.04
374.16	228.92
374.54	228.83
374.92	228.74
375.30	228.63
375.68	228.58
376.06	228.53
376.44	228.41
376.82	228.37
377.19	228.31
377.57	228.22
377.95	228.12
378.33	228.01
378.71	227.87
379.09	227.84
379.47	227.75
379.84	227.66
380.22	227.57
380.60	227.50
380.98	227.43
381.36	227.34
381.73	227.26
382.11	227.23
382.49	227.15
382.87	227.08
383.25	227.05
383.62	227.08
384.00	226.96
384.38	226.93
384.76	226.87
385.13	226.87
385.51	226.81
385.89	226.75
386.27	226.69
386.64	226.66
387.02	226.57
387.40	226.51
387.78	226.46
388.15	226.41
388.53	226.37
388.91	226.32
389.29	226.31
389.66	226.31
390.04	226.25
390.42	226.24
390.79	226.23
391.17	226.19
391.55	226.08
391.92	226.09
392.30	226.11
392.68	226.09
393.05	226.04
393.43	226.07
393.81	226.08
394.18	226.10
394.56	226.13
394.94	226.19
395.31	226.21
395.69	226.27
396.06	226.30
396.44	226.33
396.82	226.40
397.19	226.50
397.57	226.53
397.95	226.62
398.32	226.68
398.70	226.75
399.07	226.82
399.45	226.87
399.82	226.94
400.20	226.99
400.58	227.11
400.95	227.18
401.33	227.30
401.70	227.47
402.08	227.59
402.45	227.71
402.83	227.85
403.20	228.00
403.58	228.14
403.95	228.30
404.33	228.48
404.71	228.62
405.08	228.80
405.46	229.00
405.83	229.16
406.21	229.31
406.58	229.53
406.96	229.74
407.33	229.98
407.70	230.21
408.08	230.48
408.45	230.70
408.83	230.97
409.20	231.16
409.58	231.34
409.95	231.61
410.33	231.89
410.70	232.17
411.08	232.46
411.45	232.76
411.82	233.11
412.20	233.46
412.57	233.90
412.95	234.19
413.32	234.57
413.69	234.96
414.07	235.41
414.44	235.86
414.82	236.34
415.19	236.87
415.56	237.44
415.94	237.99
416.31	238.63
416.68	239.24
417.06	239.99
417.43	240.69
417.81	241.48
418.18	242.23
418.55	243.04
418.93	243.89
419.30	244.74
419.67	245.63
420.04	246.58
420.42	247.56
420.79	248.76
421.16	249.94
421.54	251.14
421.91	252.35
422.28	253.61
422.66	254.93
423.03	256.19
423.40	257.51
423.77	258.91
424.15	260.32
424.52	261.83
424.89	263.45
425.26	264.97
425.64	266.37
426.01	267.96
426.38	269.60
426.75	271.33
427.13	273.04
427.50	274.85
427.87	276.73
428.24	278.55
428.61	280.29
428.99	282.22
429.36	284.31
429.73	286.37
430.10	288.37
430.47	290.43
430.85	292.57
431.22	294.79
431.59	297.14
431.96	299.39
432.33	301.85
432.70	304.20
433.08	307.05
433.45	309.72
433.82	312.35
434.19	315.25
434.56	318.00
434.93	320.71
435.30	323.36
435.68	326.22
436.05	329.08
436.42	331.85
436.79	334.36
437.16	337.03
437.53	339.90
437.90	342.71
438.27	345.41
438.64	348.24
439.01	350.85
439.38	353.11
439.75	355.29
440.13	357.77
440.50	360.08
440.87	361.94
441.24	363.83
441.61	365.97
441.98	367.47
442.35	369.28
442.72	371.15
443.09	372.97
443.46	373.98
443.83	374.56
444.20	375.07
444.57	375.86
444.94	376.19
445.31	376.53
445.68	376.89
446.05	377.00
446.42	376.65
446.79	376.22
447.16	375.76
447.53	375.44
447.90	374.28
448.27	373.16
448.64	371.56
449.01	370.47
449.37	368.50
449.74	366.63
450.11	364.40
450.48	361.90
450.85	359.36
451.22	357.22
451.59	355.20
451.96	353.27
452.33	350.68
452.70	348.32
453.07	345.49
453.43	342.62
453.80	339.86
454.17	337.18
454.54	334.67
454.91	331.96
455.28	329.24
455.65	326.79
456.02	324.35
456.38	322.20
456.75	319.54
457.12	317.29
457.49	315.07
457.86	312.89
458.23	310.99
458.59	308.90
458.96	306.81
459.33	304.98
459.70	303.15
460.07	301.65
460.43	299.94
460.80	298.27
461.17	296.78
461.54	295.27
461.91	293.82
462.27	292.33
462.64	291.07
463.01	289.73
463.38	288.39
463.74	286.98
464.11	285.81
464.48	284.79
464.85	283.64
465.21	282.73
465.58	281.80
465.95	280.74
466.32	279.82
466.68	278.91
467.05	277.94
467.42	277.00
467.78	276.04
468.15	275.14
468.52	274.50
468.88	273.64
469.25	272.87
469.62	272.24
469.98	271.60
470.35	270.93
470.72	270.37
471.08	269.73
471.45	269.19
471.82	268.61
472.18	267.96
472.55	267.56
472.92	267.03
473.28	266.52
473.65	266.11
474.02	265.68
474.38	265.32
474.75	265.03
475.11	264.65
475.48	264.39
475.85	264.13
476.21	263.88
476.58	263.71
476.94	263.52
477.31	263.33
477.67	263.14
478.04	263.05
478.41	262.96
478.77	262.96
479.14	262.88
479.50	262.88
479.87	263.00
480.23	263.04
480.60	263.09
480.96	263.19
481.33	263.32
481.69	263.50
482.06	263.65
482.42	263.83
482.79	264.12
483.15	264.44
483.52	264.82
483.88	265.15
484.25	265.53
484.61	265.96
484.98	266.43
485.34	266.95
485.71	267.49
486.07	268.05
486.44	268.62
486.80	269.32
487.17	270.02
487.53	270.79
487.90	271.61
488.26	272.56
488.62	273.52
488.99	274.49
489.35	275.53
489.72	276.64
490.08	277.83
490.44	279.02
490.81	280.32
491.17	281.66
491.54	283.12
491.90	284.62
492.26	286.24
492.63	287.95
492.99	289.75
493.36	291.69
493.72	293.73
494.08	295.84
494.45	298.10
494.81	300.46
495.17	302.88
495.54	305.45
495.90	308.06
496.26	310.87
496.63	313.79
496.99	316.87
497.35	320.10
497.72	323.49
498.08	327.01
498.44	330.63
498.80	334.54
499.17	338.55
499.53	342.69
499.89	347.06
500.26	351.54
500.62	356.16
500.98	361.03
501.34	366.09
501.71	371.38
502.07	376.76
502.43	382.39
502.79	388.18
503.16	394.27
503.52	400.53
503.88	406.87
504.24	413.56
504.60	420.45
504.97	427.59
505.33	434.84
505.69	442.51
506.05	450.35
506.41	458.20
506.78	466.37
507.14	474.84
507.50	483.58
507.86	492.53
508.22	501.66
508.59	510.86
508.95	520.42
509.31	530.26
509.67	540.37
510.03	550.59
510.39	561.06
510.75	571.80
511.12	582.80
511.48	594.18
511.84	605.57
512.20	617.10
512.56	629.02
512.92	641.25
513.28	653.59
513.64	666.01
514.00	678.73
514.37	691.67
514.73	704.73
515.09	717.67
515.45	731.06
515.81	744.74
516.17	758.68
516.53	772.78
516.89	786.92
517.25	801.12
517.61	815.66
517.97	830.19
518.33	844.66
518.69	859.38
519.05	874.36
519.41	889.54
519.77	905.12
520.13	920.57
520.49	936.00
520.85	951.56
521.21	967.40
521.57	983.68
521.93	999.56
522.29	1015.97
522.65	1032.29
523.01	1048.53
523.37	1064.64
523.73	1080.97
524.09	1097.18
524.45	1113.55
524.81	1130.19
525.17	1147.01
525.53	1164.03
525.89	1181.01
526.25	1197.90
526.61	1214.29
526.97	1231.04
527.33	1247.60
527.68	1264.34
528.04	1280.88
528.40	1297.61
528.76	1314.74
529.12	1331.37
529.48	1348.27
529.84	1364.36
530.20	1381.23
530.56	1398.35
530.91	1415.76
531.27	1432.58
531.63	1449.11
531.99	1465.81
532.35	1481.95
532.71	1497.94
533.07	1514.31
533.42	1530.24
533.78	1546.42
534.14	1562.78
534.50	1578.36
534.86	1594.18
535.21	1609.31
535.57	1625.42
535.93	1640.95
536.29	1655.80
536.65	1671.13
537.00	1686.10
537.36	1701.54
537.72	1715.98
538.08	1730.45
538.44	1744.40
538.79	1758.36
539.15	1772.22
539.51	1786.02
539.87	1800.36
540.22	1814.13
540.58	1827.99
540.94	1841.51
541.29	1854.52
541.65	1867.42
542.01	1880.69
542.37	1893.19
542.72	1905.92
543.08	1917.76
543.44	1930.15
543.79	1941.33
544.15	1952.19
544.51	1963.73
544.87	1974.74
545.22	1985.68
545.58	1995.97
545.94	2005.73
546.29	2015.71
546.65	2025.43
547.01	2034.77
547.36	2043.69
547.72	2052.19
548.07	2059.94
548.43	2068.12
548.79	2076.28
549.14	2083.69
549.50	2091.01
549.86	2098.76
550.21	2105.96
550.57	2113.05
550.92	2119.58
551.28	2126.78
551.64	2133.81
551.99	2140.29
552.35	2146.43
552.70	2152.41
553.06	2158.30
553.41	2164.72
553.77	2170.60
554.13	2176.82
554.48	2182.84
554.84	2188.12
555.19	2193.49
555.55	2198.55
555.90	2202.88
556.26	2207.52
556.61	2212.23
556.97	2216.37
557.32	2220.54
557.68	2224.58
558.03	2228.79
558.39	2232.58
558.74	2237.14
559.10	2240.98
559.45	2244.53
559.81	2248.85
560.16	2252.69
560.52	2255.89
560.87	2259.18
561.23	2261.88
561.58	2264.71
561.94	2267.09
562.29	2269.44
562.64	2272.07
563.00	2274.64
563.35	2278.14
563.71	2281.18
564.06	2284.38
564.42	2287.23
564.77	2289.37
565.12	2291.51
565.48	2293.34
565.83	2295.11
566.19	2296.24
566.54	2297.09
566.89	2298.08
567.25	2298.34
567.60	2299.63
567.96	2301.19
568.31	2301.93
568.66	2302.75
569.02	2303.20
569.37	2303.50
569.72	2304.13
570.08	2303.92
570.43	2303.85
570.78	2303.01
571.14	2301.31
571.49	2299.75
571.84	2299.16
572.20	2297.92
572.55	2296.77
572.90	2295.09
573.26	2293.33
573.61	2291.49
573.96	2289.42
574.31	2286.35
574.67	2283.31
575.02	2279.37
575.37	2275.79
575.72	2271.72
576.08	2268.32
576.43	2264.77
576.78	2260.93
577.13	2257.66
577.49	2254.48
577.84	2250.85
578.19	2247.10
578.54	2243.25
578.90	2238.84
579.25	2233.28
579.60	2228.16
579.95	2223.02
580.30	2217.69
580.66	2212.56
581.01	2207.48
581.36	2202.47
581.71	2198.10
582.06	2193.47
582.42	2188.97
582.77	2183.51
583.12	2178.73
583.47	2173.95
583.82	2168.58
584.17	2163.17
584.53	2157.58
584.88	2151.84
585.23	2145.82
585.58	2140.08
585.93	2134.58
586.28	2129.73
586.63	2124.57
586.98	2119.40
587.34	2114.64
587.69	2109.67
588.04	2104.15
588.39	2098.15
588.74	2091.61
589.09	2085.35
589.44	2078.44
589.79	2072.31
590.14	2066.53
590.49	2059.90
590.84	2053.36
591.19	2047.40
591.54	2040.84
591.89	2033.07
592.25	2026.08
592.60	2018.84
592.95	2011.15
593.30	2003.66
593.65	1995.84
594.00	1988.67
594.35	1981.26
594.70	1972.91
595.05	1965.60
595.40	1958.30
595.75	1950.91
596.10	1944.60
596.45	1937.75
596.80	1931.54
597.15	1924.74
597.50	1917.62
597.85	1911.19
598.19	1904.39
598.54	1897.30
598.89	1890.61
599.24	1884.81
599.59	1878.12
599.94	1871.85
600.29	1865.43
600.64	1858.86
600.99	1851.55
601.34	1844.63
601.69	1837.75
602.04	1830.89
602.39	1823.54
602.74	1816.71
603.08	1809.90
603.43	1803.18
603.78	1795.90
604.13	1788.69
604.48	1781.36
604.83	1774.51
605.18	1767.41
605.53	1759.36
605.87	1751.28
606.22	1744.00
606.57	1736.09
606.92	1728.75
607.27	1721.58
607.62	1714.69
607.96	1707.31
608.31	1700.60
608.66	1692.92
609.01	1685.34
609.36	1677.82
609.70	1669.82
610.05	1661.68
610.40	1654.03
610.75	1645.71
611.10	1637.99
611.44	1629.61
611.79	1621.76
612.14	1613.10
612.49	1604.09
612.83	1595.81
613.18	1587.78
613.53	1579.70
613.88	1571.25
614.22	1562.94
614.57	1554.44
614.92	1546.42
615.27	1538.95
615.61	1530.59
615.96	1522.69
616.31	1515.01
616.65	1507.67
617.00	1500.22
617.35	1492.65
617.70	1484.24
618.04	1475.66
618.39	1467.57
618.74	1459.99
619.08	1451.68
619.43	1444.25
619.78	1437.38
620.12	1430.13
620.47	1422.53
620.82	1414.43
621.16	1407.09
621.51	1399.50
621.85	1391.95
622.20	1383.51
622.55	1375.30
622.89	1367.63
623.24	1360.04
623.59	1352.79
623.93	1345.33
624.28	1338.00
624.62	1330.47
624.97	1323.38
625.32	1316.77
625.66	1309.71
626.01	1302.45
626.35	1294.98
626.70	1287.21
627.04	1279.40
627.39	1271.90
627.73	1264.72
628.08	1257.82
628.43	1250.35
628.77	1243.02
629.12	1235.39
629.46	1228.26
629.81	1220.79
630.15	1213.62
630.50	1206.27
630.84	1198.05
631.19	1190.27
631.53	1182.88
631.88	1175.38
632.22	1167.81
632.57	1160.54
632.91	1153.07
633.26	1145.78
633.60	1138.49
633.95	1131.58
634.29	1124.65
634.64	1117.94
634.98	1110.48
635.32	1103.45
635.67	1097.03
636.01	1090.49
636.36	1083.83
636.70	1077.38
637.05	1070.93
637.39	1064.55
637.73	1058.13
638.08	1052.43
638.42	1046.47
638.77	1040.07
639.11	1033.47
639.45	1027.16
639.80	1020.53
640.14	1014.15
640.49	1007.65
640.83	1001.41
641.17	995.09
641.52	988.88
641.86	982.57
642.20	976.88
642.55	970.66
642.89	964.23
643.23	957.80
643.58	952.00
643.92	945.79
644.26	939.70
644.61	933.67
644.95	927.59
645.29	920.91
645.64	914.15
645.98	907.89
646.32	902.20
646.66	896.29
647.01	890.58
647.35	884.93
647.69	879.14
648.04	873.74
648.38	867.85
648.72	861.81
649.06	855.61
649.41	849.71
649.75	843.62
650.09	837.78
650.43	831.90
650.78	825.74
651.12	819.86
651.46	814.19
651.80	808.44
652.14	803.13
652.49	797.81
652.83	792.67
653.17	786.96
653.51	781.14
653.85	775.79
654.20	770.11
654.54	764.10
654.88	758.42
655.22	752.52
655.56	747.06
655.90	741.62
656.25	736.50
656.59	731.18
656.93	726.17
657.27	720.94
657.61	715.66
657.95	710.61
658.29	705.59
658.64	700.43
658.98	695.18
659.32	689.79
659.66	684.63
660.00	679.34
660.34	674.43
660.68	669.62
661.02	664.57
661.36	659.89
661.70	655.51
662.05	651.17
662.39	646.84
662.73	642.33
663.07	638.07
663.41	633.60
663.75	629.11
664.09	624.59
664.43	620.27
664.77	616.16
665.11	611.99
665.45	607.91
665.79	603.85
666.13	599.65
666.47	595.53
666.81	591.39
667.15	587.33
667.49	583.51
667.83	579.79
668.17	575.93
668.51	571.92
668.85	567.94
669.19	564.12
669.53	560.32
669.87	556.51
670.21	552.83
670.55	549.23
670.89	545.82
671.23	542.41
671.57	538.96
671.91	535.49
672.25	532.05
672.58	528.55
672.92	525.09
673.26	522.08
673.60	518.97
673.94	515.89
674.28	513.02
674.62	510.07
674.96	506.95
675.30	504.04
675.64	501.15
675.97	498.40
676.31	495.60
676.65	492.69
676.99	490.00
677.33	487.15
677.67	484.32
678.01	481.26
678.34	478.34
678.68	475.51
679.02	472.65
679.36	469.82
679.70	467.08
680.04	464.38
680.37	461.47
680.71	458.65
681.05	456.09
681.39	453.38
681.73	450.79
682.06	448.23
682.40	445.68
682.74	443.22
683.08	440.68
683.42	438.07
683.75	435.61
684.09	433.09
684.43	430.61
684.77	428.22
685.10	425.95
685.44	423.66
685.78	421.36
686.12	419.19
686.45	417.01
686.79	414.74
687.13	412.58
687.46	410.41
687.80	408.31
688.14	406.07
688.48	404.04
688.81	401.81
689.15	399.76
689.49	397.67
689.82	395.57
690.16	393.47
690.50	391.54
690.83	389.63
691.17	387.65
691.51	385.76
691.84	383.94
692.18	381.99
692.52	380.06
692.85	378.16
693.19	376.24
693.52	374.39
693.86	372.64
694.20	370.85
694.53	369.12
694.87	367.33
695.21	365.62
695.54	363.78
695.88	362.05
696.21	360.32
696.55	358.62
696.88	356.92
697.22	355.32
697.56	353.70
697.89	352.06
698.23	350.52
698.56	348.92
698.90	347.31
699.23	345.67
699.57	344.13
699.90	342.60
700.24	341.08
700.58	339.56
700.91	338.04
701.25	336.63
701.58	335.24
701.92	333.87
702.25	332.48
702.59	331.15
702.92	329.80
703.26	328.52
703.59	327.28
703.93	326.14
704.26	324.89
704.60	323.58
704.93	322.32
705.26	321.04
705.60	319.88
705.93	318.75
706.27	317.70
706.60	316.65
706.94	315.59
707.27	314.45
707.61	313.41
707.94	312.43
708.27	311.34
708.61	310.28
708.94	309.27
709.28	308.30
709.61	307.34
709.94	306.42
710.28	305.39
710.61	304.40
710.95	303.31
711.28	302.40
711.61	301.51
711.95	300.56
712.28	299.64
712.61	298.69
712.95	297.79
713.28	296.95
713.61	296.06
713.95	295.19
714.28	294.38
714.61	293.49
714.95	292.64
715.28	291.78
715.61	290.92
715.95	290.11
716.28	289.24
716.61	288.41
716.95	287.59
717.28	286.90
717.61	286.12
717.94	285.41
718.28	284.58
718.61	283.83
718.94	283.15
719.27	282.48
719.61	281.84
719.94	281.18
720.27	280.47
720.60	279.81
720.94	279.18
721.27	278.57
721.60	278.03
721.93	277.44
722.27	276.93
722.60	276.40
722.93	275.82
723.26	275.32
723.59	274.77
723.93	274.25
724.26	273.69
724.59	273.15
724.92	272.64
725.25	272.21
725.59	271.72
725.92	271.22
726.25	270.72
726.58	270.19
726.91	269.69
727.24	269.18
727.57	268.70
727.91	268.22
728.24	267.77
728.57	267.31
728.90	266.88
729.23	266.36
729.56	265.89
729.89	265.43
730.22	264.94
730.55	264.47
730.89	263.99
731.22	263.52
731.55	263.11
731.88	262.64
732.21	262.21
732.54	261.75
732.87	261.34
733.20	260.96
733.53	260.65
733.86	260.26
734.19	259.90
734.52	259.51
734.85	259.20
735.18	258.80
735.51	258.43
735.84	258.06
736.17	257.70
736.50	257.32
736.83	257.11
737.16	256.79
737.49	256.45
737.82	256.13
738.15	255.79
738.48	255.48
738.81	255.17
739.14	254.81
739.47	254.51
739.80	254.18
740.13	253.87
740.46	253.49
740.79	253.15
741.12	252.87
741.45	252.57
741.78	252.19
742.11	251.90
742.44	251.54
742.77	251.24
743.10	250.89
743.43	250.61
743.75	250.20
744.08	250.04
744.41	249.78
744.74	249.49
745.07	249.22
745.40	248.94
745.73	248.73
746.06	248.47
746.39	248.21
746.71	247.97
747.04	247.71
747.37	247.48
747.70	247.26
748.03	247.00
748.36	246.78
748.68	246.54
749.01	246.30
749.34	246.12
749.67	245.88
750.00	245.73
750.33	245.55
750.65	245.37
750.98	245.00
751.31	244.78
751.64	244.60
751.97	244.43
752.29	244.22
752.62	243.97
752.95	243.78
753.28	243.55
753.60	243.32
753.93	243.14
754.26	242.96
754.59	242.75
754.91	242.55
755.24	242.32
755.57	242.15
755.90	241.96
756.22	241.76
756.55	241.59
756.88	241.38
757.20	241.19
757.53	240.99
757.86	240.84
758.19	240.70
758.51	240.52
758.84	240.30
759.17	240.14
759.49	239.97
759.82	239.85
760.15	239.72
760.47	239.57
760.80	239.37
761.13	239.22
761.45	239.07
761.78	238.95
762.11	238.83
762.43	238.68
762.76	238.57
763.08	238.46
763.41	238.30
763.74	238.19
764.06	238.06
764.39	237.89
764.71	237.76
765.04	237.62
765.37	237.45
765.69	237.35
766.02	237.21
766.34	237.09
766.67	236.91
767.00	236.80
767.32	236.71
767.65	236.69
767.97	236.57
768.30	236.43
768.62	236.29
768.95	236.19
769.27	236.08
769.60	235.93
769.92	235.81
770.25	235.68
770.57	235.53
770.90	235.42
771.22	235.30
771.55	235.18
771.87	235.07
772.20	234.99
772.52	234.98
772.85	234.99
773.17	234.86
773.50	234.79
773.82	234.68
774.15	234.56
774.47	234.39
774.80	234.26
775.12	234.16
775.45	234.07
775.77	233.96
776.09	233.89
776.42	233.79
776.74	233.70
777.07	233.66
777.39	233.56
777.72	233.45
778.04	233.42
778.36	233.34
778.69	233.29
779.01	233.21
779.33	233.04
779.66	232.88
779.98	232.88
780.31	232.83
780.63	232.79
780.95	232.74
781.28	232.66
781.60	232.63
781.92	232.58
782.25	232.52
782.57	232.46
782.89	232.36
783.22	232.33
783.54	232.26
783.86	232.20
784.19	232.15
784.51	232.14
784.83	232.06
785.16	232.02
785.48	231.97
785.80	231.95
786.12	231.91
786.45	231.88
786.77	231.80
787.09	231.76
787.42	231.70
787.74	231.70
788.06	231.69
788.38	231.67
788.71	231.66
789.03	231.66
789.35	231.63
789.67	231.59
789.99	231.56
790.32	231.50
790.64	231.52
790.96	231.58
791.28	231.51
791.61	231.51
791.93	231.50
792.25	231.44
792.57	231.47
792.89	231.44
793.21	231.43
793.54	231.41
793.86	231.35
794.18	231.33
794.50	231.25
794.82	231.22
795.14	231.19
795.47	231.16
795.79	231.10
796.11	231.08
796.43	231.08
796.75	231.06
797.07	231.08
797.39	231.04
797.71	230.95
798.04	230.96
798.36	230.98
798.68	230.97
799.00	230.98
799.32	230.95
799.64	230.94
799.96	230.92
800.28	230.90
800.60	230.87
800.92	230.86
801.24	230.84
801.56	230.83
801.89	230.83
802.21	230.83
802.53	230.82
802.85	230.81
803.17	230.84
803.49	230.79
803.81	230.75
804.13	230.69
804.45	230.66
804.77	230.62
805.09	230.55
805.41	230.50
805.73	230.47
806.05	230.40
806.37	230.36
806.69	230.29
807.01	230.29
807.33	230.26
807.65	230.19
807.97	230.19
808.28	230.16
808.60	230.08
808.92	230.03
809.24	230.03
809.56	229.99
809.88	229.88
810.20	229.85
810.52	229.80
810.84	229.76
811.16	229.70
811.48	229.65
811.80	229.63
812.12	229.58
812.43	229.53
812.75	229.51
813.07	229.44
813.39	229.40
813.71	229.32
814.03	229.27
814.35	229.23
814.67	229.18
814.98	229.11
815.30	229.08
815.62	229.00
815.94	228.89
816.26	228.91
816.58	228.86
816.89	228.83
817.21	228.81
817.53	228.76
817.85	228.74
818.17	228.71
818.48	228.67
818.80	228.66
819.12	228.62
819.44	228.55
819.76	228.54
820.07	228.50
820.39	228.50
820.71	228.50
821.03	228.49
821.34	228.46
821.66	228.44
821.98	228.43
822.30	228.43
822.61	228.49
822.93	228.41
823.25	228.41
823.57	228.39
823.88	228.40
824.20	228.43
824.52	228.45
824.83	228.45
825.15	228.42
825.47	228.39
825.79	228.37
826.10	228.35
826.42	228.34
826.74	228.38
827.05	228.37
827.37	228.38
827.69	228.37
828.00	228.37
828.32	228.40
828.64	228.36
828.95	228.41
829.27	228.38
829.58	228.40
829.90	228.40
830.22	228.40
830.53	228.37
830.85	228.37
831.17	228.36
831.48	228.35
831.80	228.36
832.11	228.37
832.43	228.39
832.75	228.44
833.06	228.48
833.38	228.45
833.69	228.45
834.01	228.46
834.32	228.48
834.64	228.47
834.96	228.48
835.27	228.52
835.59	228.52
835.90	228.53
836.22	228.51
836.53	228.53
836.85	228.52
837.16	228.64
837.48	228.62
837.79	228.67
838.11	228.68
838.42	228.68
838.74	228.70
839.05	228.71
839.37	228.72
839.68	228.69
840.00	228.68
840.31	228.72
840.63	228.69
840.94	228.65
841.26	228.63
841.57	228.61
841.88	228.61
842.20	228.55
842.51	228.55
842.83	228.56
843.14	228.63
843.46	228.64
843.77	228.56
844.08	228.57
844.40	228.50
844.71	228.44
845.03	228.46
845.34	228.43
845.65	228.37
845.97	228.32
846.28	228.29
846.60	228.30
846.91	228.24
847.22	228.23
847.54	228.24
847.85	228.23
848.16	228.21
848.48	228.18
848.79	228.20
849.10	228.19
849.42	228.14
849.73	228.01
850.04	227.96
850.36	227.92
850.67	227.87
850.98	227.88
851.30	227.91
851.61	227.85
851.92	227.84
852.23	227.88
852.55	227.87
852.86	227.83
853.17	227.82
853.49	227.82
853.80	227.81
854.11	227.81
854.42	227.79
854.74	227.77
855.05	227.70
855.36	227.63
855.67	227.61
855.99	227.63
856.30	227.70
856.61	227.71
856.92	227.68
857.23	227.67
857.55	227.61
857.86	227.58
858.17	227.57
858.48	227.52
858.79	227.46
859.11	227.40
859.42	227.43
859.73	227.39
860.04	227.37
860.35	227.33
860.66	227.29
860.98	227.27
861.29	227.28
861.60	227.31
861.91	227.30
862.22	227.28
862.53	227.26
862.84	227.19
863.16	227.23
863.47	227.23
863.78	227.22
864.09	227.22
864.40	227.27
864.71	227.32
865.02	227.34
865.33	227.37
865.64	227.44
865.95	227.43
866.27	227.49
866.58	227.50
866.89	227.52
867.20	227.51
867.51	227.52
867.82	227.50
868.13	227.58
868.44	227.63
868.75	227.64
869.06	227.66
869.37	227.67
869.68	227.65
869.99	227.68
870.30	227.70
870.61	227.74
870.92	227.72
871.23	227.72
871.54	227.76
871.85	227.77
872.16	227.78
872.47	227.80
872.78	227.76
873.09	227.78
873.40	227.79
873.71	227.82
874.02	227.84
874.33	227.83
874.64	227.79
874.95	227.80
875.26	227.80
875.56	227.81
875.87	227.81
876.18	227.83
876.49	227.93
876.80	227.97
877.11	227.97
877.42	227.96
877.73	227.94
878.04	227.93
878.35	227.92
878.66	227.93
878.96	227.94
879.27	227.96
879.58	227.96
879.89	227.98
880.20	227.98
880.51	227.96
880.82	228.01
881.12	228.00
881.43	227.97
881.74	227.95
882.05	227.90
882.36	227.91
882.67	227.90
882.97	227.78
883.28	227.72
883.59	227.72
883.90	227.70
884.21	227.72
884.51	227.69
884.82	227.67
885.13	227.66
885.44	227.61
885.74	227.58
886.05	227.54
886.36	227.49
886.67	227.47
886.98	227.53
887.28	227.48
887.59	227.49
887.90	227.49
888.20	227.49
888.51	227.51
888.82	227.47
889.13	227.47
889.43	227.54
889.74	227.53
890.05	227.49
890.35	227.50
890.66	227.46
890.97	227.42
891.28	227.41
891.58	227.38
891.89	227.37
892.20	227.35
892.50	227.32
892.81	227.32
893.12	227.29
893.42	227.20
893.73	227.21
894.04	227.19
894.34	227.18
894.65	227.14
894.95	227.11
895.26	227.10
895.57	227.11
895.87	226.97
896.18	226.98
896.48	226.99
896.79	226.95
897.10	226.95
897.40	226.92
897.71	226.92
898.01	226.90
898.32	226.90
898.63	226.92
898.93	226.94
899.24	226.94
899.54	226.94
899.85	226.95
900.15	226.95
900.46	226.95
900.76	226.96
901.07	226.99
901.38	227.01
901.68	227.03
901.99	226.99
902.29	227.02
902.60	227.02
902.90	227.02
903.21	227.06
903.51	227.08
903.82	227.15
904.12	227.16
904.43	227.17
904.73	227.21
905.03	227.23
905.34	227.33
905.64	227.33
905.95	227.35
906.25	227.38
906.56	227.38
906.86	227.40
907.17	227.40
907.47	227.42
907.77	227.39
908.08	227.39
908.38	227.42
908.69	227.47
908.99	227.49
909.30	227.51
909.60	227.54
909.90	227.56
910.21	227.56
910.51	227.56
910.81	227.58
911.12	227.59
911.42	227.59
911.73	227.52
912.03	227.54
912.33	227.58
912.64	227.59
912.94	227.61
913.24	227.60
913.55	227.61
913.85	227.60
914.15	227.62
914.46	227.66
914.76	227.65
915.06	227.65
915.37	227.62
915.67	227.61
915.97	227.58
916.27	227.54
916.58	227.50
916.88	227.51
917.18	227.50
917.49	227.54
917.79	227.52
918.09	227.55
918.39	227.59
918.70	227.57
919.00	227.56
919.30	227.57
919.60	227.56
919.91	227.54
920.21	227.52
920.51	227.50
920.81	227.44
921.12	227.46
921.42	227.45
921.72	227.48
922.02	227.48
922.32	227.51
922.63	227.55
922.93	227.61
923.23	227.60
923.53	227.58
923.83	227.55
924.13	227.54
924.44	227.50
924.74	227.49
925.04	227.50
925.34	227.51
925.64	227.49
925.94	227.47
926.24	227.50
926.55	227.50
926.85	227.50
927.15	227.55
927.45	227.51
927.75	227.50
928.05	227.49
928.35	227.45
928.65	227.46
928.95	227.45
929.26	227.39
929.56	227.42
929.86	227.44
930.16	227.40
930.46	227.41
930.76	227.40
931.06	227.31
931.36	227.26
931.66	227.25
931.96	227.21
932.26	227.22
932.56	227.18
932.86	227.18
933.16	227.20
933.46	227.14
933.76	227.13
934.06	227.13
934.36	227.15
934.66	227.16
934.96	227.16
935.26	227.13
935.56	227.12
935.86	227.07
936.16	227.04
936.46	227.02
936.76	227.03
937.06	227.02
937.36	227.08
937.66	227.09
937.96	227.09
938.26	227.09
938.56	227.07
938.86	227.08
939.16	227.11
939.46	227.08
939.76	227.08
940.06	227.05
940.35	227.04
940.65	227.00
940.95	227.02
941.25	226.94
941.55	226.93
941.85	226.94
942.15	226.95
942.45	226.95
942.75	226.99
943.04	226.98
943.34	227.00
943.64	226.99
943.94	227.00
944.24	227.02
944.54	227.03
944.84	227.06
945.13	227.04
945.43	227.00
945.73	227.06
946.03	227.09
946.33	227.11
946.62	227.11
946.92	227.11
947.22	227.10
947.52	227.14
947.82	227.21
948.11	227.24
948.41	227.23
948.71	227.27
949.01	227.26
949.31	227.25
949.60	227.25
949.90	227.25
950.20	227.24
950.50	227.22
950.79	227.23
951.09	227.29
951.39	227.28
951.69	227.31
951.98	227.28
952.28	227.29
952.58	227.30
952.87	227.33
953.17	227.34
953.47	227.35
953.76	227.37
954.06	227.36
954.36	227.33
954.66	227.35
954.95	227.35
955.25	227.38
955.55	227.39
955.84	227.40
956.14	227.42
956.44	227.45
956.73	227.43
957.03	227.42
957.32	227.38
957.62	227.36
957.92	227.36
958.21	227.35
958.51	227.46
958.81	227.48
959.10	227.47
959.40	227.50
959.69	227.51
959.99	227.49
960.29	227.48
960.58	227.45
960.88	227.51
961.17	227.50
961.47	227.48
961.76	227.44
962.06	227.43
962.36	227.43
962.65	227.40
962.95	227.44
963.24	227.42
963.54	227.41
963.83	227.44
964.13	227.44
964.42	227.42
964.72	227.33
965.01	227.34
965.31	227.34
965.60	227.28
965.90	227.32
966.19	227.32
966.49	227.28
966.78	227.32
967.08	227.26
967.37	227.26
967.67	227.22
967.96	227.27
968.26	227.25
968.55	227.23
968.85	227.26
969.14	227.24
969.43	227.26
969.73	227.25
970.02	227.24
970.32	227.25
970.61	227.24
970.91	227.21
971.20	227.16
971.49	227.15
971.79	227.18
972.08	227.14
972.38	227.11
972.67	227.12
972.96	227.14
973.26	227.17
973.55	227.21
973.85	227.25
974.14	227.22
974.43	227.27
974.73	227.27
975.02	227.25
975.31	227.25
975.61	227.24
975.90	227.27
976.19	227.28
976.49	227.29
976.78	227.34
977.07	227.35
977.37	227.38
977.66	227.38
977.95	227.36
978.24	227.35
978.54	227.41
978.83	227.42
979.12	227.38
979.42	227.36
979.71	227.31
980.00	227.30
980.29	227.32
980.59	227.27
980.88	227.31
981.17	227.28
981.46	227.29
981.76	227.28
982.05	227.28
982.34	227.24
982.63	227.24
982.93	227.23
983.22	227.21
983.51	227.23
983.80	227.27
984.09	227.25
984.39	227.27
984.68	227.22
984.97	227.21
985.26	227.22
985.55	227.23
985.85	227.21
986.14	227.22
986.43	227.21
986.72	227.19
987.01	227.15
987.30	227.15
987.59	227.12
987.89	227.13
988.18	227.08
988.47	227.09
988.76	227.05
989.05	227.05
989.34	227.05
989.63	227.04
989.92	227.01
990.22	227.03
990.51	227.00
990.80	226.99
991.09	226.99
991.38	226.99
991.67	226.97
991.96	226.95
992.25	226.92
992.54	226.88
992.83	226.88
993.12	226.86
993.41	226.87
993.70	226.92
993.99	226.92
994.28	226.96
994.58	226.97
994.87	226.94
995.16	226.91
995.45	226.93
995.74	226.91
996.03	226.93
996.32	226.94
996.61	226.94
996.90	226.95
997.19	226.96
997.48	226.97
997.77	226.95
998.06	226.93
998.34	226.96
998.63	226.96
998.92	226.95
999.21	226.97
999.50	227.00
999.79	226.97
1000.08	226.96
1000.37	226.97
1000.66	226.94
1000.95	226.98
1001.24	226.99
1001.53	226.98
1001.82	226.96
1002.11	226.93
1002.40	226.90
1002.68	226.90
1002.97	226.98
1003.26	226.98
1003.55	226.97
1003.84	227.00
1004.13	227.05
1004.42	227.05
1004.71	227.04
1004.99	227.07
1005.28	227.10
1005.57	227.04
1005.86	227.03
1006.15	227.03
1006.44	226.99
1006.72	227.05
1007.01	227.06
1007.30	227.07
1007.59	227.06
1007.88	227.07
1008.17	227.07
1008.45	227.08
1008.74	227.07
1009.03	227.00
1009.32	226.97
1009.60	226.95
1009.89	226.94
1010.18	226.94
1010.47	226.93
1010.76	226.95
1011.04	226.93
1011.33	226.94
1011.62	226.99
1011.91	227.02
1012.19	227.04
1012.48	227.08
1012.77	227.10
1013.05	227.15
1013.34	227.16
1013.63	227.17
1013.92	227.18
1014.20	227.18
1014.49	227.19
1014.78	227.22
1015.06	227.23
1015.35	227.26
1015.64	227.28
1015.92	227.30
1016.21	227.31
1016.50	227.32
1016.78	227.36
1017.07	227.39
1017.36	227.39
1017.64	227.38
1017.93	227.37
1018.22	227.38
1018.50	227.38
1018.79	227.36
1019.08	227.33
1019.36	227.32
1019.65	227.32
1019.93	227.34
1020.22	227.36
1020.51	227.41
1020.79	227.39
1021.08	227.55
1021.36	227.46
1021.65	227.54
1021.94	227.42
1022.22	227.29
1022.51	227.19
1022.79	227.54
1023.08	227.23
1023.36	228.31
1023.65	226.99
>>>>>End Processed Spectral Data<<<<<
