SpectraSuite Data File
++++++++++++++++++++++++++++++++++++
Date: Fri Feb 01 14:52:15 EST 2013
User: group
Dark Spectrum Present: No
Reference Spectrum Present: No
Number of Sampled Component Spectra: 1
Spectrometers: USB2E7196
Integration Time (usec): 35000 (USB2E7196)
Spectra Averaged: 100 (USB2E7196)
Boxcar Smoothing: 10 (USB2E7196)
Correct for Electrical Dark: No (USB2E7196)
Strobe/Lamp Enabled: No (USB2E7196)
Correct for Detector Non-linearity: No (USB2E7196)
Correct for Stray Light: No (USB2E7196)
Number of Pixels in Processed Spectrum: 2048
>>>>>Begin Processed Spectral Data<<<<<
339.09	0.00
339.48	215.59
339.86	217.05
340.24	217.91
340.63	219.77
341.01	222.98
341.39	222.66
341.78	223.30
342.16	225.36
342.54	225.64
342.93	213.76
343.31	224.55
343.69	225.06
344.07	225.57
344.46	226.02
344.84	226.42
345.22	226.63
345.60	226.89
345.99	227.09
346.37	227.19
346.75	227.27
347.13	227.32
347.52	227.39
347.90	227.45
348.28	227.48
348.66	227.51
349.05	227.50
349.43	227.55
349.81	227.60
350.19	227.60
350.57	227.67
350.96	227.72
351.34	227.80
351.72	227.91
352.10	227.94
352.48	227.98
352.87	227.98
353.25	228.04
353.63	228.05
354.01	228.12
354.39	228.18
354.77	228.25
355.15	228.37
355.54	228.44
355.92	228.48
356.30	228.55
356.68	228.70
357.06	228.75
357.44	228.81
357.82	228.88
358.20	228.96
358.58	229.00
358.97	229.08
359.35	229.15
359.73	229.22
360.11	229.28
360.49	229.31
360.87	229.38
361.25	229.44
361.63	229.53
362.01	229.59
362.39	229.63
362.77	229.67
363.15	229.67
363.53	229.67
363.91	229.71
364.29	229.70
364.67	229.60
365.05	229.63
365.43	229.66
365.81	229.67
366.19	229.73
366.57	229.75
366.95	229.72
367.33	229.68
367.71	229.63
368.09	229.62
368.47	229.63
368.85	229.58
369.23	229.59
369.61	229.50
369.99	229.46
370.37	229.41
370.75	229.43
371.13	229.38
371.51	229.35
371.89	229.26
372.27	229.24
372.65	229.20
373.03	229.15
373.41	229.07
373.78	228.98
374.16	228.86
374.54	228.74
374.92	228.68
375.30	228.62
375.68	228.55
376.06	228.49
376.44	228.40
376.82	228.32
377.19	228.22
377.57	228.15
377.95	228.04
378.33	227.98
378.71	227.83
379.09	227.75
379.47	227.65
379.84	227.58
380.22	227.48
380.60	227.38
380.98	227.32
381.36	227.23
381.73	227.20
382.11	227.15
382.49	227.16
382.87	227.05
383.25	226.99
383.62	227.05
384.00	226.95
384.38	226.93
384.76	226.94
385.13	226.90
385.51	226.84
385.89	226.80
386.27	226.76
386.64	226.73
387.02	226.69
387.40	226.65
387.78	226.65
388.15	226.67
388.53	226.66
388.91	226.63
389.29	226.59
389.66	226.55
390.04	226.52
390.42	226.50
390.79	226.52
391.17	226.52
391.55	226.40
391.92	226.42
392.30	226.42
392.68	226.40
393.05	226.44
393.43	226.46
393.81	226.48
394.18	226.46
394.56	226.47
394.94	226.54
395.31	226.60
395.69	226.65
396.06	226.67
396.44	226.72
396.82	226.75
397.19	226.88
397.57	226.91
397.95	227.01
398.32	227.02
398.70	227.08
399.07	227.16
399.45	227.24
399.82	227.35
400.20	227.40
400.58	227.50
400.95	227.54
401.33	227.64
401.70	227.84
402.08	227.96
402.45	228.08
402.83	228.22
403.20	228.32
403.58	228.39
403.95	228.52
404.33	228.65
404.71	228.80
405.08	228.96
405.46	229.13
405.83	229.28
406.21	229.47
406.58	229.63
406.96	229.78
407.33	229.95
407.70	230.13
408.08	230.40
408.45	230.62
408.83	230.86
409.20	231.09
409.58	231.26
409.95	231.54
410.33	231.83
410.70	232.04
411.08	232.36
411.45	232.66
411.82	232.97
412.20	233.32
412.57	233.71
412.95	234.00
413.32	234.43
413.69	234.85
414.07	235.27
414.44	235.75
414.82	236.25
415.19	236.83
415.56	237.38
415.94	237.93
416.31	238.55
416.68	239.19
417.06	239.89
417.43	240.58
417.81	241.34
418.18	242.09
418.55	242.94
418.93	243.81
419.30	244.72
419.67	245.67
420.04	246.63
420.42	247.66
420.79	248.86
421.16	249.99
421.54	251.17
421.91	252.37
422.28	253.62
422.66	254.94
423.03	256.22
423.40	257.54
423.77	258.95
424.15	260.37
424.52	261.86
424.89	263.44
425.26	264.94
425.64	266.37
426.01	267.95
426.38	269.60
426.75	271.24
427.13	272.96
427.50	274.70
427.87	276.58
428.24	278.40
428.61	280.16
428.99	282.09
429.36	284.17
429.73	286.20
430.10	288.22
430.47	290.23
430.85	292.31
431.22	294.53
431.59	296.91
431.96	299.13
432.33	301.58
432.70	304.01
433.08	306.84
433.45	309.48
433.82	312.11
434.19	314.99
434.56	317.79
434.93	320.46
435.30	323.13
435.68	326.02
436.05	328.85
436.42	331.62
436.79	334.09
437.16	336.82
437.53	339.63
437.90	342.46
438.27	345.24
438.64	348.06
439.01	350.65
439.38	352.87
439.75	355.05
440.13	357.56
440.50	359.88
440.87	361.76
441.24	363.71
441.61	365.86
441.98	367.37
442.35	369.22
442.72	371.08
443.09	372.88
443.46	373.90
443.83	374.48
444.20	374.99
444.57	375.91
444.94	376.22
445.31	376.63
445.68	376.96
446.05	377.06
446.42	376.72
446.79	376.30
447.16	375.88
447.53	375.55
447.90	374.41
448.27	373.28
448.64	371.71
449.01	370.56
449.37	368.60
449.74	366.68
450.11	364.43
450.48	361.94
450.85	359.38
451.22	357.24
451.59	355.23
451.96	353.30
452.33	350.68
452.70	348.30
453.07	345.44
453.43	342.61
453.80	339.84
454.17	337.15
454.54	334.62
454.91	331.92
455.28	329.26
455.65	326.78
456.02	324.32
456.38	322.15
456.75	319.53
457.12	317.29
457.49	315.09
457.86	312.94
458.23	311.13
458.59	309.13
458.96	307.03
459.33	305.17
459.70	303.29
460.07	301.76
460.43	300.05
460.80	298.44
461.17	296.95
461.54	295.48
461.91	294.06
462.27	292.64
462.64	291.38
463.01	290.03
463.38	288.70
463.74	287.32
464.11	286.16
464.48	285.14
464.85	284.01
465.21	283.13
465.58	282.18
465.95	281.05
466.32	280.11
466.68	279.21
467.05	278.31
467.42	277.43
467.78	276.47
468.15	275.55
468.52	274.85
468.88	273.97
469.25	273.16
469.62	272.53
469.98	271.81
470.35	271.17
470.72	270.54
471.08	269.86
471.45	269.30
471.82	268.73
472.18	268.11
472.55	267.66
472.92	267.12
473.28	266.62
473.65	266.14
474.02	265.71
474.38	265.34
474.75	264.98
475.11	264.60
475.48	264.35
475.85	264.11
476.21	263.86
476.58	263.63
476.94	263.51
477.31	263.29
477.67	263.12
478.04	262.97
478.41	262.91
478.77	262.93
479.14	262.88
479.50	262.87
479.87	262.91
480.23	262.97
480.60	263.04
480.96	263.10
481.33	263.31
481.69	263.46
482.06	263.63
482.42	263.85
482.79	264.10
483.15	264.39
483.52	264.79
483.88	265.13
484.25	265.49
484.61	265.88
484.98	266.35
485.34	266.88
485.71	267.46
486.07	268.05
486.44	268.60
486.80	269.25
487.17	270.00
487.53	270.80
487.90	271.64
488.26	272.56
488.62	273.54
488.99	274.52
489.35	275.61
489.72	276.72
490.08	277.93
490.44	279.18
490.81	280.52
491.17	281.82
491.54	283.34
491.90	284.91
492.26	286.55
492.63	288.23
492.99	290.04
493.36	291.91
493.72	293.97
494.08	296.04
494.45	298.31
494.81	300.64
495.17	303.04
495.54	305.56
495.90	308.20
496.26	310.99
496.63	313.91
496.99	316.95
497.35	320.16
497.72	323.49
498.08	326.94
498.44	330.55
498.80	334.44
499.17	338.41
499.53	342.57
499.89	346.92
500.26	351.40
500.62	356.01
500.98	360.97
501.34	365.95
501.71	371.27
502.07	376.69
502.43	382.26
502.79	388.04
503.16	394.08
503.52	400.32
503.88	406.72
504.24	413.34
504.60	420.17
504.97	427.33
505.33	434.61
505.69	442.25
506.05	450.02
506.41	457.90
506.78	466.02
507.14	474.37
507.50	482.98
507.86	492.01
508.22	501.19
508.59	510.33
508.95	519.90
509.31	529.69
509.67	539.68
510.03	549.94
510.39	560.42
510.75	571.23
511.12	582.17
511.48	593.42
511.84	604.80
512.20	616.31
512.56	628.20
512.92	640.33
513.28	652.72
513.64	665.13
514.00	677.81
514.37	690.74
514.73	703.86
515.09	716.93
515.45	730.20
515.81	743.70
516.17	757.62
516.53	771.70
516.89	785.84
517.25	800.13
517.61	814.49
517.97	829.01
518.33	843.38
518.69	858.12
519.05	873.14
519.41	888.37
519.77	903.92
520.13	919.37
520.49	934.81
520.85	950.19
521.21	965.98
521.57	982.21
521.93	998.07
522.29	1014.45
522.65	1030.81
523.01	1047.03
523.37	1063.18
523.73	1079.51
524.09	1095.67
524.45	1112.04
524.81	1128.70
525.17	1145.70
525.53	1162.64
525.89	1179.68
526.25	1196.50
526.61	1212.91
526.97	1229.70
527.33	1246.27
527.68	1262.94
528.04	1279.49
528.40	1296.29
528.76	1313.46
529.12	1330.11
529.48	1346.92
529.84	1363.07
530.20	1379.69
530.56	1396.79
530.91	1414.22
531.27	1430.96
531.63	1447.56
531.99	1464.16
532.35	1480.16
532.71	1495.93
533.07	1512.29
533.42	1528.17
533.78	1544.33
534.14	1560.71
534.50	1576.09
534.86	1592.06
535.21	1607.25
535.57	1623.27
535.93	1638.78
536.29	1653.55
536.65	1668.73
537.00	1683.70
537.36	1699.08
537.72	1713.77
538.08	1728.26
538.44	1742.19
538.79	1756.20
539.15	1769.84
539.51	1783.85
539.87	1798.28
540.22	1812.08
540.58	1825.81
540.94	1839.24
541.29	1852.25
541.65	1865.00
542.01	1878.25
542.37	1890.45
542.72	1902.96
543.08	1914.72
543.44	1926.98
543.79	1938.34
544.15	1949.34
544.51	1960.79
544.87	1971.60
545.22	1982.46
545.58	1992.74
545.94	2002.43
546.29	2012.32
546.65	2022.04
547.01	2031.12
547.36	2039.88
547.72	2048.44
548.07	2056.43
548.43	2064.60
548.79	2072.57
549.14	2080.11
549.50	2087.58
549.86	2095.31
550.21	2102.54
550.57	2109.72
550.92	2116.46
551.28	2123.50
551.64	2130.54
551.99	2137.12
552.35	2143.33
552.70	2149.29
553.06	2155.18
553.41	2161.51
553.77	2167.40
554.13	2173.65
554.48	2179.63
554.84	2184.95
555.19	2190.20
555.55	2195.04
555.90	2199.48
556.26	2204.32
556.61	2208.92
556.97	2213.00
557.32	2217.14
557.68	2221.24
558.03	2225.47
558.39	2229.06
558.74	2233.42
559.10	2237.17
559.45	2240.67
559.81	2244.97
560.16	2248.71
560.52	2251.87
560.87	2255.23
561.23	2257.73
561.58	2260.44
561.94	2262.89
562.29	2265.24
562.64	2267.79
563.00	2270.42
563.35	2273.75
563.71	2276.72
564.06	2279.69
564.42	2282.37
564.77	2284.67
565.12	2286.85
565.48	2288.42
565.83	2289.97
566.19	2291.22
566.54	2292.08
566.89	2293.19
567.25	2293.51
567.60	2294.66
567.96	2296.24
568.31	2296.78
568.66	2297.73
569.02	2298.10
569.37	2298.31
569.72	2298.74
570.08	2298.66
570.43	2298.53
570.78	2297.64
571.14	2295.79
571.49	2294.41
571.84	2293.87
572.20	2292.52
572.55	2291.16
572.90	2289.45
573.26	2287.89
573.61	2285.97
573.96	2283.86
574.31	2280.47
574.67	2277.20
575.02	2273.30
575.37	2269.56
575.72	2265.57
576.08	2261.94
576.43	2258.56
576.78	2254.63
577.13	2251.38
577.49	2248.07
577.84	2244.40
578.19	2240.52
578.54	2236.69
578.90	2232.15
579.25	2226.46
579.60	2221.34
579.95	2216.23
580.30	2211.00
580.66	2205.72
581.01	2200.58
581.36	2195.62
581.71	2191.32
582.06	2186.78
582.42	2182.31
582.77	2176.88
583.12	2172.13
583.47	2167.35
583.82	2162.10
584.17	2156.83
584.53	2151.17
584.88	2145.45
585.23	2139.42
585.58	2133.81
585.93	2128.30
586.28	2123.43
586.63	2118.21
586.98	2113.01
587.34	2108.21
587.69	2103.16
588.04	2097.75
588.39	2091.93
588.74	2085.14
589.09	2078.90
589.44	2071.99
589.79	2065.61
590.14	2059.79
590.49	2053.04
590.84	2046.45
591.19	2040.26
591.54	2033.63
591.89	2025.99
592.25	2018.93
592.60	2011.64
592.95	2003.85
593.30	1996.42
593.65	1988.62
594.00	1981.41
594.35	1974.04
594.70	1965.79
595.05	1958.55
595.40	1951.20
595.75	1943.59
596.10	1937.39
596.45	1930.38
596.80	1924.01
597.15	1917.34
597.50	1910.24
597.85	1903.80
598.19	1897.14
598.54	1890.11
598.89	1883.47
599.24	1877.59
599.59	1870.94
599.94	1864.66
600.29	1858.40
600.64	1851.68
600.99	1844.28
601.34	1837.37
601.69	1830.35
602.04	1823.35
602.39	1815.98
602.74	1809.33
603.08	1802.65
603.43	1795.95
603.78	1788.78
604.13	1781.65
604.48	1774.48
604.83	1767.59
605.18	1760.65
605.53	1752.72
605.87	1744.63
606.22	1737.30
606.57	1729.47
606.92	1722.29
607.27	1715.05
607.62	1708.07
607.96	1700.89
608.31	1694.32
608.66	1686.81
609.01	1679.41
609.36	1672.03
609.70	1664.09
610.05	1655.97
610.40	1648.42
610.75	1640.08
611.10	1632.50
611.44	1624.19
611.79	1616.14
612.14	1607.63
612.49	1598.45
612.83	1590.27
613.18	1582.19
613.53	1574.22
613.88	1565.82
614.22	1557.58
614.57	1549.13
614.92	1541.30
615.27	1533.87
615.61	1525.46
615.96	1517.59
616.31	1509.97
616.65	1502.65
617.00	1495.18
617.35	1487.46
617.70	1479.03
618.04	1470.57
618.39	1462.39
618.74	1454.82
619.08	1446.71
619.43	1439.21
619.78	1432.51
620.12	1425.31
620.47	1417.95
620.82	1409.78
621.16	1402.40
621.51	1394.75
621.85	1387.30
622.20	1378.93
622.55	1370.67
622.89	1363.02
623.24	1355.54
623.59	1348.25
623.93	1340.91
624.28	1333.84
624.62	1326.42
624.97	1319.39
625.32	1312.74
625.66	1305.86
626.01	1298.77
626.35	1291.42
626.70	1283.80
627.04	1276.20
627.39	1268.48
627.73	1261.14
628.08	1254.36
628.43	1247.13
628.77	1239.88
629.12	1232.37
629.46	1225.21
629.81	1217.75
630.15	1210.67
630.50	1203.25
630.84	1195.10
631.19	1187.06
631.53	1179.64
631.88	1172.19
632.22	1164.65
632.57	1157.49
632.91	1150.04
633.26	1142.66
633.60	1135.32
633.95	1128.20
634.29	1121.08
634.64	1114.39
634.98	1107.16
635.32	1100.17
635.67	1093.61
636.01	1087.02
636.36	1080.39
636.70	1073.89
637.05	1067.42
637.39	1061.01
637.73	1054.55
638.08	1048.78
638.42	1043.03
638.77	1036.57
639.11	1030.08
639.45	1023.75
639.80	1017.07
640.14	1010.68
640.49	1004.21
640.83	998.00
641.17	991.91
641.52	985.77
641.86	979.60
642.20	973.88
642.55	967.54
642.89	961.15
643.23	954.68
643.58	948.91
643.92	942.81
644.26	936.85
644.61	930.93
644.95	925.05
645.29	918.43
645.64	911.72
645.98	905.54
646.32	899.74
646.66	893.76
647.01	888.08
647.35	882.44
647.69	876.67
648.04	871.19
648.38	865.45
648.72	859.44
649.06	853.34
649.41	847.38
649.75	841.49
650.09	835.59
650.43	829.92
650.78	823.79
651.12	817.87
651.46	812.22
651.80	806.45
652.14	801.02
652.49	795.80
652.83	790.63
653.17	784.94
653.51	779.31
653.85	773.95
654.20	768.41
654.54	762.48
654.88	756.83
655.22	751.01
655.56	745.36
655.90	739.96
656.25	734.73
656.59	729.49
656.93	724.46
657.27	719.34
657.61	713.96
657.95	708.91
658.29	703.87
658.64	698.65
658.98	693.43
659.32	687.99
659.66	682.79
660.00	677.56
660.34	672.67
660.68	667.77
661.02	662.88
661.36	658.17
661.70	653.76
662.05	649.54
662.39	645.25
662.73	640.87
663.07	636.60
663.41	632.22
663.75	627.75
664.09	623.26
664.43	618.99
664.77	614.91
665.11	610.74
665.45	606.60
665.79	602.65
666.13	598.57
666.47	594.57
666.81	590.45
667.15	586.43
667.49	582.57
667.83	578.82
668.17	574.93
668.51	570.93
668.85	567.01
669.19	563.16
669.53	559.37
669.87	555.52
670.21	551.87
670.55	548.32
670.89	544.97
671.23	541.58
671.57	538.07
671.91	534.58
672.25	531.11
672.58	527.74
672.92	524.37
673.26	521.28
673.60	518.24
673.94	515.23
674.28	512.34
674.62	509.47
674.96	506.40
675.30	503.51
675.64	500.61
675.97	497.81
676.31	495.02
676.65	492.15
676.99	489.49
677.33	486.62
677.67	483.81
678.01	480.79
678.34	477.79
678.68	475.02
679.02	472.23
679.36	469.55
679.70	466.86
680.04	464.10
680.37	461.26
680.71	458.48
681.05	455.87
681.39	453.16
681.73	450.52
682.06	448.03
682.40	445.51
682.74	443.00
683.08	440.49
683.42	437.84
683.75	435.40
684.09	432.88
684.43	430.47
684.77	428.07
685.10	425.73
685.44	423.55
685.78	421.24
686.12	418.99
686.45	416.74
686.79	414.47
687.13	412.34
687.46	410.18
687.80	408.04
688.14	405.87
688.48	403.87
688.81	401.65
689.15	399.56
689.49	397.46
689.82	395.46
690.16	393.40
690.50	391.45
690.83	389.50
691.17	387.57
691.51	385.68
691.84	383.85
692.18	381.94
692.52	379.95
692.85	378.05
693.19	376.23
693.52	374.39
693.86	372.62
694.20	370.82
694.53	369.06
694.87	367.23
695.21	365.44
695.54	363.64
695.88	361.96
696.21	360.18
696.55	358.49
696.88	356.82
697.22	355.23
697.56	353.67
697.89	352.03
698.23	350.45
698.56	348.82
698.90	347.25
699.23	345.62
699.57	344.05
699.90	342.56
700.24	340.98
700.58	339.47
700.91	337.97
701.25	336.55
701.58	335.23
701.92	333.89
702.25	332.54
702.59	331.23
702.92	329.91
703.26	328.63
703.59	327.39
703.93	326.19
704.26	324.92
704.60	323.63
704.93	322.37
705.26	321.11
705.60	319.95
705.93	318.80
706.27	317.78
706.60	316.75
706.94	315.64
707.27	314.55
707.61	313.52
707.94	312.53
708.27	311.47
708.61	310.38
708.94	309.38
709.28	308.44
709.61	307.46
709.94	306.49
710.28	305.51
710.61	304.53
710.95	303.44
711.28	302.55
711.61	301.65
711.95	300.77
712.28	299.88
712.61	298.94
712.95	298.02
713.28	297.16
713.61	296.28
713.95	295.44
714.28	294.62
714.61	293.75
714.95	292.90
715.28	292.02
715.61	291.20
715.95	290.35
716.28	289.50
716.61	288.65
716.95	287.87
717.28	287.17
717.61	286.43
717.94	285.71
718.28	284.92
718.61	284.17
718.94	283.45
719.27	282.79
719.61	282.16
719.94	281.52
720.27	280.83
720.60	280.21
720.94	279.56
721.27	278.95
721.60	278.38
721.93	277.77
722.27	277.26
722.60	276.69
722.93	276.11
723.26	275.57
723.59	275.01
723.93	274.44
724.26	273.84
724.59	273.27
724.92	272.76
725.25	272.26
725.59	271.79
725.92	271.31
726.25	270.78
726.58	270.30
726.91	269.78
727.24	269.31
727.57	268.81
727.91	268.32
728.24	267.87
728.57	267.37
728.90	266.93
729.23	266.40
729.56	265.97
729.89	265.50
730.22	265.02
730.55	264.59
730.89	264.09
731.22	263.67
731.55	263.25
731.88	262.80
732.21	262.39
732.54	261.91
732.87	261.47
733.20	261.08
733.53	260.66
733.86	260.29
734.19	259.91
734.52	259.54
734.85	259.22
735.18	258.77
735.51	258.43
735.84	258.03
736.17	257.71
736.50	257.30
736.83	257.08
737.16	256.75
737.49	256.44
737.82	256.14
738.15	255.82
738.48	255.46
738.81	255.16
739.14	254.84
739.47	254.56
739.80	254.26
740.13	253.98
740.46	253.68
740.79	253.35
741.12	253.00
741.45	252.69
741.78	252.35
742.11	252.13
742.44	251.80
742.77	251.52
743.10	251.20
743.43	250.90
743.75	250.54
744.08	250.39
744.41	250.11
744.74	249.85
745.07	249.61
745.40	249.40
745.73	249.16
746.06	248.88
746.39	248.64
746.71	248.37
747.04	248.05
747.37	247.80
747.70	247.60
748.03	247.39
748.36	247.17
748.68	246.90
749.01	246.64
749.34	246.38
749.67	246.20
750.00	246.02
750.33	245.85
750.65	245.67
750.98	245.33
751.31	245.11
751.64	244.93
751.97	244.73
752.29	244.49
752.62	244.25
752.95	244.08
753.28	243.83
753.60	243.65
753.93	243.49
754.26	243.26
754.59	243.02
754.91	242.82
755.24	242.62
755.57	242.45
755.90	242.27
756.22	242.11
756.55	241.89
756.88	241.67
757.20	241.49
757.53	241.27
757.86	241.07
758.19	240.94
758.51	240.76
758.84	240.55
759.17	240.39
759.49	240.24
759.82	240.11
760.15	239.99
760.47	239.81
760.80	239.64
761.13	239.54
761.45	239.38
761.78	239.23
762.11	239.09
762.43	238.94
762.76	238.81
763.08	238.69
763.41	238.56
763.74	238.44
764.06	238.30
764.39	238.19
764.71	238.10
765.04	237.94
765.37	237.83
765.69	237.71
766.02	237.59
766.34	237.44
766.67	237.28
767.00	237.17
767.32	237.11
767.65	237.08
767.97	236.93
768.30	236.83
768.62	236.71
768.95	236.60
769.27	236.51
769.60	236.42
769.92	236.30
770.25	236.21
770.57	236.08
770.90	235.97
771.22	235.84
771.55	235.71
771.87	235.62
772.20	235.52
772.52	235.53
772.85	235.55
773.17	235.48
773.50	235.36
773.82	235.29
774.15	235.14
774.47	234.97
774.80	234.89
775.12	234.80
775.45	234.73
775.77	234.63
776.09	234.55
776.42	234.43
776.74	234.37
777.07	234.25
777.39	234.16
777.72	234.08
778.04	234.03
778.36	233.90
778.69	233.83
779.01	233.74
779.33	233.55
779.66	233.36
779.98	233.26
780.31	233.18
780.63	233.11
780.95	233.07
781.28	232.98
781.60	232.92
781.92	232.86
782.25	232.76
782.57	232.76
782.89	232.70
783.22	232.61
783.54	232.51
783.86	232.47
784.19	232.40
784.51	232.33
784.83	232.24
785.16	232.21
785.48	232.13
785.80	232.05
786.12	232.02
786.45	231.96
786.77	231.93
787.09	231.90
787.42	231.84
787.74	231.75
788.06	231.74
788.38	231.71
788.71	231.64
789.03	231.64
789.35	231.57
789.67	231.48
789.99	231.49
790.32	231.48
790.64	231.44
790.96	231.46
791.28	231.41
791.61	231.35
791.93	231.35
792.25	231.32
792.57	231.37
792.89	231.29
793.21	231.27
793.54	231.23
793.86	231.15
794.18	231.11
794.50	231.07
794.82	231.03
795.14	230.97
795.47	230.97
795.79	230.91
796.11	230.86
796.43	230.84
796.75	230.79
797.07	230.74
797.39	230.70
797.71	230.62
798.04	230.61
798.36	230.63
798.68	230.57
799.00	230.54
799.32	230.45
799.64	230.48
799.96	230.44
800.28	230.42
800.60	230.42
800.92	230.39
801.24	230.34
801.56	230.31
801.89	230.29
802.21	230.24
802.53	230.19
802.85	230.20
803.17	230.23
803.49	230.18
803.81	230.15
804.13	230.16
804.45	230.15
804.77	230.13
805.09	230.09
805.41	230.09
805.73	230.05
806.05	230.03
806.37	229.99
806.69	229.94
807.01	229.94
807.33	229.91
807.65	229.90
807.97	229.96
808.28	229.94
808.60	229.89
808.92	229.87
809.24	229.93
809.56	229.86
809.88	229.80
810.20	229.78
810.52	229.76
810.84	229.69
811.16	229.67
811.48	229.65
811.80	229.68
812.12	229.66
812.43	229.62
812.75	229.58
813.07	229.57
813.39	229.55
813.71	229.51
814.03	229.50
814.35	229.49
814.67	229.44
814.98	229.39
815.30	229.40
815.62	229.38
815.94	229.29
816.26	229.33
816.58	229.29
816.89	229.29
817.21	229.29
817.53	229.28
817.85	229.22
818.17	229.17
818.48	229.09
818.80	229.08
819.12	229.08
819.44	229.06
819.76	229.01
820.07	229.01
820.39	228.96
820.71	228.92
821.03	228.87
821.34	228.83
821.66	228.83
821.98	228.81
822.30	228.77
822.61	228.80
822.93	228.71
823.25	228.68
823.57	228.64
823.88	228.61
824.20	228.58
824.52	228.58
824.83	228.56
825.15	228.54
825.47	228.52
825.79	228.52
826.10	228.50
826.42	228.50
826.74	228.48
827.05	228.46
827.37	228.46
827.69	228.42
828.00	228.39
828.32	228.36
828.64	228.35
828.95	228.41
829.27	228.38
829.58	228.41
829.90	228.43
830.22	228.44
830.53	228.40
830.85	228.40
831.17	228.39
831.48	228.37
831.80	228.36
832.11	228.35
832.43	228.34
832.75	228.32
833.06	228.37
833.38	228.33
833.69	228.35
834.01	228.36
834.32	228.38
834.64	228.36
834.96	228.36
835.27	228.34
835.59	228.30
835.90	228.28
836.22	228.25
836.53	228.23
836.85	228.23
837.16	228.31
837.48	228.31
837.79	228.35
838.11	228.36
838.42	228.37
838.74	228.39
839.05	228.35
839.37	228.36
839.68	228.29
840.00	228.31
840.31	228.32
840.63	228.30
840.94	228.29
841.26	228.32
841.57	228.35
841.88	228.36
842.20	228.37
842.51	228.32
842.83	228.32
843.14	228.41
843.46	228.42
843.77	228.39
844.08	228.43
844.40	228.40
844.71	228.44
845.03	228.46
845.34	228.43
845.65	228.44
845.97	228.43
846.28	228.44
846.60	228.45
846.91	228.43
847.22	228.42
847.54	228.45
847.85	228.43
848.16	228.40
848.48	228.38
848.79	228.41
849.10	228.45
849.42	228.48
849.73	228.36
850.04	228.35
850.36	228.31
850.67	228.29
850.98	228.29
851.30	228.25
851.61	228.22
851.92	228.24
852.23	228.27
852.55	228.24
852.86	228.24
853.17	228.25
853.49	228.28
853.80	228.31
854.11	228.26
854.42	228.29
854.74	228.30
855.05	228.28
855.36	228.19
855.67	228.16
855.99	228.12
856.30	228.24
856.61	228.22
856.92	228.21
857.23	228.21
857.55	228.15
857.86	228.14
858.17	228.14
858.48	228.10
858.79	228.05
859.11	228.07
859.42	228.06
859.73	228.02
860.04	227.97
860.35	227.93
860.66	227.90
860.98	227.86
861.29	227.85
861.60	227.87
861.91	227.89
862.22	227.87
862.53	227.83
862.84	227.72
863.16	227.75
863.47	227.73
863.78	227.72
864.09	227.74
864.40	227.72
864.71	227.70
865.02	227.67
865.33	227.68
865.64	227.66
865.95	227.68
866.27	227.74
866.58	227.76
866.89	227.75
867.20	227.79
867.51	227.79
867.82	227.79
868.13	227.80
868.44	227.78
868.75	227.81
869.06	227.85
869.37	227.87
869.68	227.82
869.99	227.85
870.30	227.83
870.61	227.85
870.92	227.83
871.23	227.89
871.54	227.92
871.85	227.96
872.16	227.96
872.47	227.93
872.78	227.86
873.09	227.88
873.40	227.88
873.71	227.90
874.02	227.90
874.33	227.90
874.64	227.87
874.95	227.89
875.26	227.91
875.56	227.91
875.87	227.89
876.18	227.88
876.49	227.99
876.80	227.99
877.11	227.96
877.42	228.00
877.73	228.00
878.04	228.01
878.35	227.99
878.66	228.00
878.96	228.02
879.27	228.04
879.58	228.00
879.89	228.03
880.20	228.01
880.51	228.02
880.82	228.03
881.12	228.03
881.43	228.05
881.74	228.02
882.05	228.01
882.36	228.03
882.67	228.05
882.97	227.92
883.28	227.94
883.59	227.96
883.90	227.96
884.21	227.93
884.51	227.90
884.82	227.90
885.13	227.91
885.44	227.89
885.74	227.89
886.05	227.90
886.36	227.83
886.67	227.81
886.98	227.83
887.28	227.80
887.59	227.81
887.90	227.79
888.20	227.75
888.51	227.76
888.82	227.74
889.13	227.73
889.43	227.80
889.74	227.79
890.05	227.79
890.35	227.77
890.66	227.75
890.97	227.74
891.28	227.70
891.58	227.68
891.89	227.69
892.20	227.67
892.50	227.66
892.81	227.71
893.12	227.68
893.42	227.66
893.73	227.70
894.04	227.70
894.34	227.69
894.65	227.70
894.95	227.70
895.26	227.70
895.57	227.71
895.87	227.59
896.18	227.58
896.48	227.55
896.79	227.56
897.10	227.56
897.40	227.56
897.71	227.53
898.01	227.50
898.32	227.47
898.63	227.44
898.93	227.43
899.24	227.41
899.54	227.41
899.85	227.37
900.15	227.29
900.46	227.27
900.76	227.25
901.07	227.21
901.38	227.16
901.68	227.16
901.99	227.15
902.29	227.17
902.60	227.16
902.90	227.16
903.21	227.12
903.51	227.10
903.82	227.11
904.12	227.17
904.43	227.21
904.73	227.22
905.03	227.21
905.34	227.30
905.64	227.26
905.95	227.27
906.25	227.28
906.56	227.27
906.86	227.28
907.17	227.29
907.47	227.31
907.77	227.31
908.08	227.31
908.38	227.30
908.69	227.33
908.99	227.35
909.30	227.37
909.60	227.38
909.90	227.39
910.21	227.39
910.51	227.33
910.81	227.31
911.12	227.29
911.42	227.33
911.73	227.24
912.03	227.28
912.33	227.31
912.64	227.32
912.94	227.35
913.24	227.36
913.55	227.35
913.85	227.37
914.15	227.42
914.46	227.45
914.76	227.43
915.06	227.45
915.37	227.44
915.67	227.45
915.97	227.46
916.27	227.47
916.58	227.51
916.88	227.54
917.18	227.55
917.49	227.68
917.79	227.66
918.09	227.69
918.39	227.75
918.70	227.75
919.00	227.76
919.30	227.84
919.60	227.85
919.91	227.88
920.21	227.90
920.51	227.91
920.81	227.90
921.12	227.90
921.42	227.91
921.72	227.93
922.02	227.93
922.32	227.97
922.63	227.98
922.93	228.01
923.23	228.01
923.53	228.01
923.83	227.94
924.13	227.99
924.44	228.01
924.74	227.99
925.04	228.02
925.34	228.00
925.64	227.92
925.94	227.93
926.24	227.99
926.55	227.98
926.85	227.97
927.15	227.96
927.45	227.95
927.75	227.91
928.05	227.91
928.35	227.87
928.65	227.88
928.95	227.88
929.26	227.83
929.56	227.84
929.86	227.83
930.16	227.82
930.46	227.79
930.76	227.80
931.06	227.76
931.36	227.71
931.66	227.73
931.96	227.72
932.26	227.69
932.56	227.62
932.86	227.62
933.16	227.58
933.46	227.56
933.76	227.58
934.06	227.60
934.36	227.61
934.66	227.62
934.96	227.60
935.26	227.59
935.56	227.60
935.86	227.57
936.16	227.54
936.46	227.51
936.76	227.47
937.06	227.41
937.36	227.40
937.66	227.39
937.96	227.35
938.26	227.35
938.56	227.33
938.86	227.32
939.16	227.30
939.46	227.30
939.76	227.30
940.06	227.29
940.35	227.25
940.65	227.17
940.95	227.16
941.25	227.13
941.55	227.10
941.85	227.06
942.15	227.07
942.45	227.10
942.75	227.09
943.04	227.11
943.34	227.13
943.64	227.13
943.94	227.16
944.24	227.16
944.54	227.17
944.84	227.13
945.13	227.13
945.43	227.10
945.73	227.14
946.03	227.14
946.33	227.13
946.62	227.13
946.92	227.15
947.22	227.16
947.52	227.17
947.82	227.20
948.11	227.21
948.41	227.19
948.71	227.19
949.01	227.17
949.31	227.18
949.60	227.17
949.90	227.18
950.20	227.15
950.50	227.17
950.79	227.18
951.09	227.22
951.39	227.23
951.69	227.23
951.98	227.25
952.28	227.26
952.58	227.26
952.87	227.26
953.17	227.30
953.47	227.31
953.76	227.30
954.06	227.30
954.36	227.32
954.66	227.33
954.95	227.35
955.25	227.39
955.55	227.44
955.84	227.45
956.14	227.46
956.44	227.51
956.73	227.50
957.03	227.53
957.32	227.56
957.62	227.55
957.92	227.59
958.21	227.60
958.51	227.71
958.81	227.74
959.10	227.77
959.40	227.78
959.69	227.78
959.99	227.84
960.29	227.84
960.58	227.83
960.88	227.90
961.17	227.88
961.47	227.91
961.76	227.89
962.06	227.92
962.36	227.94
962.65	227.92
962.95	227.94
963.24	227.94
963.54	227.95
963.83	227.96
964.13	227.97
964.42	227.90
964.72	227.81
965.01	227.81
965.31	227.81
965.60	227.79
965.90	227.87
966.19	227.84
966.49	227.85
966.78	227.84
967.08	227.79
967.37	227.82
967.67	227.78
967.96	227.77
968.26	227.76
968.55	227.73
968.85	227.73
969.14	227.70
969.43	227.68
969.73	227.67
970.02	227.64
970.32	227.61
970.61	227.61
970.91	227.58
971.20	227.53
971.49	227.48
971.79	227.47
972.08	227.38
972.38	227.34
972.67	227.31
972.96	227.31
973.26	227.30
973.55	227.31
973.85	227.29
974.14	227.29
974.43	227.24
974.73	227.21
975.02	227.18
975.31	227.21
975.61	227.17
975.90	227.14
976.19	227.14
976.49	227.15
976.78	227.19
977.07	227.15
977.37	227.15
977.66	227.17
977.95	227.15
978.24	227.15
978.54	227.15
978.83	227.12
979.12	227.09
979.42	227.08
979.71	227.02
980.00	227.01
980.29	227.00
980.59	226.99
980.88	227.04
981.17	227.00
981.46	226.97
981.76	226.97
982.05	226.97
982.34	226.96
982.63	226.96
982.93	226.92
983.22	226.97
983.51	226.97
983.80	226.99
984.09	227.01
984.39	227.00
984.68	227.02
984.97	227.03
985.26	227.03
985.55	227.04
985.85	227.05
986.14	227.07
986.43	227.09
986.72	227.08
987.01	227.06
987.30	227.07
987.59	227.08
987.89	227.09
988.18	227.09
988.47	227.11
988.76	227.10
989.05	227.09
989.34	227.11
989.63	227.16
989.92	227.16
990.22	227.16
990.51	227.18
990.80	227.17
991.09	227.18
991.38	227.19
991.67	227.13
991.96	227.16
992.25	227.17
992.54	227.17
992.83	227.18
993.12	227.16
993.41	227.19
993.70	227.23
993.99	227.24
994.28	227.27
994.58	227.29
994.87	227.29
995.16	227.33
995.45	227.32
995.74	227.31
996.03	227.34
996.32	227.37
996.61	227.42
996.90	227.44
997.19	227.44
997.48	227.51
997.77	227.55
998.06	227.56
998.34	227.58
998.63	227.57
998.92	227.60
999.21	227.63
999.50	227.67
999.79	227.67
1000.08	227.71
1000.37	227.70
1000.66	227.70
1000.95	227.71
1001.24	227.73
1001.53	227.77
1001.82	227.72
1002.11	227.71
1002.40	227.71
1002.68	227.65
1002.97	227.72
1003.26	227.70
1003.55	227.67
1003.84	227.67
1004.13	227.70
1004.42	227.69
1004.71	227.71
1004.99	227.70
1005.28	227.72
1005.57	227.72
1005.86	227.70
1006.15	227.70
1006.44	227.71
1006.72	227.70
1007.01	227.68
1007.30	227.65
1007.59	227.59
1007.88	227.60
1008.17	227.54
1008.45	227.50
1008.74	227.48
1009.03	227.39
1009.32	227.41
1009.60	227.38
1009.89	227.37
1010.18	227.29
1010.47	227.27
1010.76	227.23
1011.04	227.20
1011.33	227.16
1011.62	227.11
1011.91	227.09
1012.19	227.06
1012.48	227.04
1012.77	227.02
1013.05	227.06
1013.34	227.04
1013.63	227.04
1013.92	227.02
1014.20	227.02
1014.49	227.03
1014.78	227.00
1015.06	226.97
1015.35	226.94
1015.64	226.94
1015.92	226.93
1016.21	226.94
1016.50	226.92
1016.78	226.93
1017.07	226.90
1017.36	226.88
1017.64	226.88
1017.93	226.87
1018.22	226.86
1018.50	226.84
1018.79	226.82
1019.08	226.76
1019.36	226.78
1019.65	226.75
1019.93	226.79
1020.22	226.80
1020.51	226.83
1020.79	226.86
1021.08	226.89
1021.36	227.10
1021.65	226.41
1021.94	226.69
1022.22	227.21
1022.51	226.33
1022.79	227.26
1023.08	227.01
1023.36	227.95
1023.65	226.77
>>>>>End Processed Spectral Data<<<<<
