SpectraSuite Data File
++++++++++++++++++++++++++++++++++++
Date: Fri Feb 01 17:34:09 EST 2013
User: group
Dark Spectrum Present: No
Reference Spectrum Present: No
Number of Sampled Component Spectra: 1
Spectrometers: USB2E7196
Integration Time (usec): 35000 (USB2E7196)
Spectra Averaged: 100 (USB2E7196)
Boxcar Smoothing: 10 (USB2E7196)
Correct for Electrical Dark: No (USB2E7196)
Strobe/Lamp Enabled: No (USB2E7196)
Correct for Detector Non-linearity: No (USB2E7196)
Correct for Stray Light: No (USB2E7196)
Number of Pixels in Processed Spectrum: 2048
>>>>>Begin Processed Spectral Data<<<<<
339.09	0.00
339.48	213.08
339.86	214.66
340.24	215.67
340.63	217.37
341.01	220.11
341.39	219.90
341.78	221.98
342.16	222.26
342.54	223.02
342.93	211.47
343.31	222.15
343.69	222.69
344.07	223.11
344.46	223.55
344.84	223.90
345.22	224.16
345.60	224.37
345.99	224.54
346.37	224.67
346.75	224.76
347.13	224.80
347.52	224.83
347.90	224.89
348.28	224.91
348.66	224.90
349.05	224.86
349.43	224.90
349.81	224.92
350.19	224.95
350.57	225.00
350.96	225.04
351.34	225.11
351.72	225.16
352.10	225.30
352.48	225.32
352.87	225.38
353.25	225.41
353.63	225.50
354.01	225.50
354.39	225.56
354.77	225.63
355.15	225.75
355.54	225.84
355.92	225.86
356.30	225.92
356.68	226.09
357.06	226.16
357.44	226.24
357.82	226.33
358.20	226.39
358.58	226.45
358.97	226.54
359.35	226.63
359.73	226.71
360.11	226.75
360.49	226.85
360.87	226.92
361.25	226.98
361.63	227.05
362.01	227.14
362.39	227.20
362.77	227.25
363.15	227.24
363.53	227.26
363.91	227.33
364.29	227.37
364.67	227.30
365.05	227.32
365.43	227.32
365.81	227.33
366.19	227.43
366.57	227.48
366.95	227.49
367.33	227.47
367.71	227.48
368.09	227.50
368.47	227.49
368.85	227.45
369.23	227.45
369.61	227.43
369.99	227.43
370.37	227.41
370.75	227.43
371.13	227.37
371.51	227.35
371.89	227.32
372.27	227.28
372.65	227.25
373.03	227.21
373.41	227.19
373.78	227.14
374.16	226.99
374.54	226.93
374.92	226.84
375.30	226.79
375.68	226.71
376.06	226.63
376.44	226.55
376.82	226.51
377.19	226.45
377.57	226.36
377.95	226.28
378.33	226.19
378.71	226.07
379.09	226.03
379.47	225.97
379.84	225.90
380.22	225.82
380.60	225.73
380.98	225.70
381.36	225.61
381.73	225.56
382.11	225.56
382.49	225.51
382.87	225.46
383.25	225.42
383.62	225.47
384.00	225.40
384.38	225.37
384.76	225.33
385.13	225.32
385.51	225.27
385.89	225.20
386.27	225.21
386.64	225.18
387.02	225.14
387.40	225.09
387.78	225.02
388.15	224.98
388.53	224.94
388.91	224.89
389.29	224.86
389.66	224.83
390.04	224.78
390.42	224.76
390.79	224.75
391.17	224.72
391.55	224.64
391.92	224.64
392.30	224.64
392.68	224.64
393.05	224.64
393.43	224.61
393.81	224.65
394.18	224.61
394.56	224.63
394.94	224.65
395.31	224.67
395.69	224.75
396.06	224.80
396.44	224.85
396.82	224.88
397.19	224.96
397.57	224.97
397.95	225.01
398.32	225.01
398.70	225.06
399.07	225.12
399.45	225.12
399.82	225.14
400.20	225.20
400.58	225.26
400.95	225.24
401.33	225.37
401.70	225.50
402.08	225.62
402.45	225.70
402.83	225.82
403.20	225.92
403.58	225.97
403.95	226.09
404.33	226.18
404.71	226.29
405.08	226.45
405.46	226.61
405.83	226.80
406.21	226.94
406.58	227.08
406.96	227.27
407.33	227.49
407.70	227.73
408.08	227.98
408.45	228.22
408.83	228.44
409.20	228.61
409.58	228.80
409.95	229.04
410.33	229.32
410.70	229.56
411.08	229.84
411.45	230.15
411.82	230.46
412.20	230.86
412.57	231.29
412.95	231.60
413.32	232.02
413.69	232.43
414.07	232.92
414.44	233.43
414.82	233.93
415.19	234.43
415.56	234.93
415.94	235.45
416.31	236.06
416.68	236.79
417.06	237.56
417.43	238.26
417.81	239.06
418.18	239.86
418.55	240.72
418.93	241.65
419.30	242.60
419.67	243.60
420.04	244.55
420.42	245.56
420.79	246.79
421.16	247.99
421.54	249.19
421.91	250.45
422.28	251.73
422.66	253.09
423.03	254.48
423.40	255.91
423.77	257.40
424.15	258.89
424.52	260.34
424.89	262.02
425.26	263.62
425.64	265.15
426.01	266.83
426.38	268.55
426.75	270.30
427.13	272.10
427.50	273.93
427.87	275.92
428.24	277.89
428.61	279.66
428.99	281.68
429.36	283.90
429.73	286.04
430.10	288.11
430.47	290.24
430.85	292.46
431.22	294.82
431.59	297.31
431.96	299.70
432.33	302.36
432.70	304.84
433.08	307.76
433.45	310.49
433.82	313.20
434.19	316.24
434.56	319.14
434.93	321.90
435.30	324.68
435.68	327.64
436.05	330.60
436.42	333.56
436.79	336.16
437.16	338.97
437.53	341.89
437.90	344.84
438.27	347.73
438.64	350.65
439.01	353.33
439.38	355.69
439.75	357.93
440.13	360.46
440.50	362.85
440.87	364.77
441.24	366.80
441.61	369.05
441.98	370.60
442.35	372.57
442.72	374.48
443.09	376.34
443.46	377.40
443.83	378.01
444.20	378.52
444.57	379.44
444.94	379.75
445.31	380.14
445.68	380.53
446.05	380.68
446.42	380.35
446.79	379.94
447.16	379.44
447.53	379.14
447.90	378.02
448.27	376.87
448.64	375.29
449.01	374.15
449.37	372.14
449.74	370.17
450.11	367.80
450.48	365.28
450.85	362.70
451.22	360.50
451.59	358.39
451.96	356.41
452.33	353.70
452.70	351.28
453.07	348.33
453.43	345.32
453.80	342.40
454.17	339.59
454.54	336.95
454.91	334.16
455.28	331.36
455.65	328.77
456.02	326.21
456.38	323.93
456.75	321.16
457.12	318.78
457.49	316.46
457.86	314.23
458.23	312.29
458.59	310.14
458.96	307.93
459.33	305.99
459.70	304.02
460.07	302.45
460.43	300.62
460.80	298.97
461.17	297.47
461.54	295.92
461.91	294.43
462.27	292.91
462.64	291.58
463.01	290.18
463.38	288.81
463.74	287.39
464.11	286.22
464.48	285.14
464.85	284.02
465.21	283.09
465.58	282.12
465.95	280.97
466.32	280.00
466.68	279.08
467.05	278.18
467.42	277.26
467.78	276.26
468.15	275.37
468.52	274.68
468.88	273.78
469.25	272.97
469.62	272.35
469.98	271.64
470.35	270.99
470.72	270.37
471.08	269.68
471.45	269.10
471.82	268.51
472.18	267.88
472.55	267.41
472.92	266.89
473.28	266.41
473.65	265.91
474.02	265.43
474.38	265.04
474.75	264.67
475.11	264.33
475.48	264.08
475.85	263.85
476.21	263.56
476.58	263.39
476.94	263.20
477.31	262.97
477.67	262.85
478.04	262.72
478.41	262.65
478.77	262.69
479.14	262.61
479.50	262.64
479.87	262.71
480.23	262.81
480.60	262.87
480.96	262.96
481.33	263.22
481.69	263.43
482.06	263.66
482.42	263.88
482.79	264.15
483.15	264.49
483.52	264.87
483.88	265.26
484.25	265.66
484.61	266.13
484.98	266.62
485.34	267.14
485.71	267.75
486.07	268.35
486.44	268.95
486.80	269.70
487.17	270.40
487.53	271.24
487.90	272.04
488.26	272.99
488.62	274.00
488.99	274.94
489.35	276.00
489.72	277.15
490.08	278.36
490.44	279.58
490.81	280.88
491.17	282.21
491.54	283.63
491.90	285.14
492.26	286.74
492.63	288.47
492.99	290.26
493.36	292.13
493.72	294.17
494.08	296.23
494.45	298.47
494.81	300.83
495.17	303.24
495.54	305.74
495.90	308.37
496.26	311.13
496.63	314.06
496.99	317.13
497.35	320.39
497.72	323.75
498.08	327.24
498.44	330.86
498.80	334.79
499.17	338.81
499.53	342.93
499.89	347.23
500.26	351.70
500.62	356.26
500.98	361.20
501.34	366.15
501.71	371.44
502.07	376.81
502.43	382.29
502.79	388.00
503.16	393.99
503.52	400.16
503.88	406.44
504.24	412.99
504.60	419.80
504.97	426.76
505.33	433.93
505.69	441.53
506.05	449.16
506.41	456.80
506.78	464.80
507.14	473.10
507.50	481.68
507.86	490.45
508.22	499.49
508.59	508.44
508.95	517.83
509.31	527.40
509.67	537.26
510.03	547.36
510.39	557.74
510.75	568.29
511.12	578.96
511.48	589.99
511.84	601.19
512.20	612.34
512.56	623.96
512.92	635.79
513.28	647.87
513.64	660.03
514.00	672.40
514.37	684.91
514.73	697.60
515.09	710.24
515.45	723.19
515.81	736.43
516.17	750.06
516.53	763.77
516.89	777.56
517.25	791.37
517.61	805.40
517.97	819.33
518.33	833.28
518.69	847.62
519.05	862.09
519.41	876.82
519.77	891.88
520.13	906.86
520.49	921.84
520.85	936.60
521.21	951.71
521.57	967.47
521.93	982.76
522.29	998.54
522.65	1014.39
523.01	1030.07
523.37	1045.58
523.73	1061.12
524.09	1076.73
524.45	1092.46
524.81	1108.55
525.17	1124.69
525.53	1141.08
525.89	1157.48
526.25	1173.87
526.61	1189.77
526.97	1206.00
527.33	1221.96
527.68	1238.10
528.04	1254.07
528.40	1270.12
528.76	1286.88
529.12	1302.94
529.48	1319.48
529.84	1335.05
530.20	1351.13
530.56	1367.52
530.91	1384.52
531.27	1400.96
531.63	1416.97
531.99	1433.09
532.35	1448.65
532.71	1464.16
533.07	1480.00
533.42	1495.56
533.78	1511.11
534.14	1526.97
534.50	1541.87
534.86	1557.42
535.21	1572.20
535.57	1587.65
535.93	1602.81
536.29	1617.17
536.65	1631.83
537.00	1646.20
537.36	1661.22
537.72	1675.42
538.08	1689.83
538.44	1703.30
538.79	1716.97
539.15	1730.30
539.51	1743.75
539.87	1757.84
540.22	1771.29
540.58	1784.72
540.94	1797.65
541.29	1810.28
541.65	1822.72
542.01	1835.70
542.37	1847.81
542.72	1860.08
543.08	1871.90
543.44	1884.24
543.79	1895.47
544.15	1906.50
544.51	1918.10
544.87	1929.08
545.22	1939.95
545.58	1949.99
545.94	1959.85
546.29	1969.66
546.65	1979.70
547.01	1989.21
547.36	1998.01
547.72	2006.69
548.07	2014.92
548.43	2023.27
548.79	2031.30
549.14	2039.26
549.50	2046.69
549.86	2054.47
550.21	2061.98
550.57	2069.32
550.92	2076.14
551.28	2083.37
551.64	2090.68
551.99	2097.26
552.35	2103.69
552.70	2109.99
553.06	2116.50
553.41	2123.10
553.77	2129.31
554.13	2135.53
554.48	2141.82
554.84	2147.65
555.19	2153.23
555.55	2158.63
555.90	2163.57
556.26	2169.11
556.61	2173.92
556.97	2178.93
557.32	2183.54
557.68	2187.95
558.03	2192.38
558.39	2196.32
558.74	2201.10
559.10	2205.31
559.45	2209.42
559.81	2213.91
560.16	2218.14
560.52	2221.58
560.87	2225.18
561.23	2228.25
561.58	2231.46
561.94	2234.39
562.29	2236.91
562.64	2240.19
563.00	2243.22
563.35	2247.01
563.71	2250.40
564.06	2254.04
564.42	2257.22
564.77	2260.19
565.12	2263.08
565.48	2265.78
565.83	2268.22
566.19	2270.18
566.54	2271.41
566.89	2273.01
567.25	2274.12
567.60	2275.78
567.96	2277.92
568.31	2279.27
568.66	2281.04
569.02	2282.13
569.37	2282.92
569.72	2284.44
570.08	2284.96
570.43	2285.27
570.78	2285.20
571.14	2284.08
571.49	2283.08
571.84	2283.06
572.20	2282.39
572.55	2281.66
572.90	2280.21
573.26	2279.24
573.61	2277.85
573.96	2276.65
574.31	2274.10
574.67	2271.63
575.02	2268.43
575.37	2265.36
575.72	2262.12
576.08	2258.84
576.43	2255.91
576.78	2252.77
577.13	2249.69
577.49	2246.71
577.84	2243.78
578.19	2240.25
578.54	2237.07
578.90	2233.45
579.25	2228.27
579.60	2223.64
579.95	2219.14
580.30	2214.53
580.66	2209.73
581.01	2205.07
581.36	2200.55
581.71	2196.85
582.06	2192.75
582.42	2188.78
582.77	2183.96
583.12	2179.79
583.47	2175.70
583.82	2171.10
584.17	2166.08
584.53	2161.08
584.88	2155.85
585.23	2150.46
585.58	2145.39
585.93	2140.19
586.28	2135.62
586.63	2130.90
586.98	2126.15
587.34	2121.53
587.69	2116.85
588.04	2112.01
588.39	2106.76
588.74	2100.46
589.09	2094.41
589.44	2087.96
589.79	2081.94
590.14	2076.39
590.49	2069.90
590.84	2063.51
591.19	2057.78
591.54	2051.50
591.89	2044.56
592.25	2038.23
592.60	2031.02
592.95	2023.76
593.30	2016.69
593.65	2009.15
594.00	2002.29
594.35	1995.09
594.70	1987.27
595.05	1980.42
595.40	1973.24
595.75	1965.76
596.10	1959.86
596.45	1953.35
596.80	1947.30
597.15	1941.13
597.50	1934.57
597.85	1928.24
598.19	1921.82
598.54	1915.00
598.89	1908.57
599.24	1902.64
599.59	1896.10
599.94	1890.03
600.29	1883.72
600.64	1877.09
600.99	1869.83
601.34	1863.07
601.69	1856.16
602.04	1849.29
602.39	1842.04
602.74	1835.30
603.08	1828.77
603.43	1822.05
603.78	1814.88
604.13	1807.72
604.48	1800.44
604.83	1793.54
605.18	1786.78
605.53	1778.94
605.87	1770.97
606.22	1763.73
606.57	1755.75
606.92	1748.14
607.27	1741.17
607.62	1734.36
607.96	1727.28
608.31	1720.93
608.66	1713.46
609.01	1706.32
609.36	1699.00
609.70	1690.96
610.05	1682.92
610.40	1675.26
610.75	1666.98
611.10	1659.29
611.44	1650.69
611.79	1642.56
612.14	1633.72
612.49	1624.44
612.83	1615.89
613.18	1607.55
613.53	1599.40
613.88	1590.88
614.22	1582.74
614.57	1573.89
614.92	1565.92
615.27	1558.44
615.61	1550.04
615.96	1541.87
616.31	1533.84
616.65	1526.37
617.00	1518.75
617.35	1510.95
617.70	1502.62
618.04	1494.07
618.39	1485.72
618.74	1478.29
619.08	1469.88
619.43	1462.34
619.78	1455.32
620.12	1448.21
620.47	1440.71
620.82	1432.42
621.16	1424.80
621.51	1417.02
621.85	1409.26
622.20	1400.55
622.55	1392.00
622.89	1384.05
623.24	1376.29
623.59	1368.79
623.93	1361.13
624.28	1353.80
624.62	1346.27
624.97	1338.91
625.32	1331.99
625.66	1324.83
626.01	1317.60
626.35	1310.25
626.70	1302.29
627.04	1294.54
627.39	1286.60
627.73	1279.08
628.08	1272.14
628.43	1265.03
628.77	1257.74
629.12	1250.24
629.46	1242.96
629.81	1235.28
630.15	1227.88
630.50	1220.46
630.84	1212.28
631.19	1204.21
631.53	1196.61
631.88	1188.91
632.22	1181.24
632.57	1173.87
632.91	1166.29
633.26	1158.71
633.60	1151.20
633.95	1143.96
634.29	1136.79
634.64	1130.02
634.98	1122.56
635.32	1115.32
635.67	1108.48
636.01	1101.72
636.36	1094.94
636.70	1088.31
637.05	1081.73
637.39	1075.16
637.73	1068.69
638.08	1062.70
638.42	1056.66
638.77	1050.19
639.11	1043.64
639.45	1037.22
639.80	1030.45
640.14	1024.04
640.49	1017.42
640.83	1011.00
641.17	1004.92
641.52	998.58
641.86	992.06
642.20	986.20
642.55	979.81
642.89	973.30
643.23	966.60
643.58	960.78
643.92	954.62
644.26	948.61
644.61	942.56
644.95	936.50
645.29	929.95
645.64	923.17
645.98	916.86
646.32	910.75
646.66	904.74
647.01	898.93
647.35	893.15
647.69	887.32
648.04	881.76
648.38	875.87
648.72	869.90
649.06	863.85
649.41	857.88
649.75	851.98
650.09	846.04
650.43	840.29
650.78	834.05
651.12	828.08
651.46	822.36
651.80	816.68
652.14	811.16
652.49	805.82
652.83	800.62
653.17	794.96
653.51	789.45
653.85	783.90
654.20	778.28
654.54	772.31
654.88	766.42
655.22	760.46
655.56	754.71
655.90	749.17
656.25	743.95
656.59	738.53
656.93	733.40
657.27	728.25
657.61	722.76
657.95	717.67
658.29	712.60
658.64	707.21
658.98	701.73
659.32	696.22
659.66	690.93
660.00	685.72
660.34	680.73
660.68	675.69
661.02	670.67
661.36	665.95
661.70	661.44
662.05	657.22
662.39	652.97
662.73	648.55
663.07	644.11
663.41	639.68
663.75	635.30
664.09	630.72
664.43	626.32
664.77	622.16
665.11	617.87
665.45	613.73
665.79	609.68
666.13	605.66
666.47	601.58
666.81	597.46
667.15	593.28
667.49	589.27
667.83	585.43
668.17	581.51
668.51	577.39
668.85	573.29
669.19	569.31
669.53	565.43
669.87	561.56
670.21	557.87
670.55	554.21
670.89	550.65
671.23	547.17
671.57	543.62
671.91	540.22
672.25	536.65
672.58	533.11
672.92	529.69
673.26	526.51
673.60	523.28
673.94	520.13
674.28	517.25
674.62	514.30
674.96	511.21
675.30	508.29
675.64	505.38
675.97	502.62
676.31	499.75
676.65	496.85
676.99	494.09
677.33	491.22
677.67	488.39
678.01	485.41
678.34	482.51
678.68	479.62
679.02	476.72
679.36	473.96
679.70	471.20
680.04	468.43
680.37	465.52
680.71	462.76
681.05	460.07
681.39	457.29
681.73	454.60
682.06	452.04
682.40	449.52
682.74	447.00
683.08	444.40
683.42	441.78
683.75	439.24
684.09	436.62
684.43	434.15
684.77	431.66
685.10	429.28
685.44	426.88
685.78	424.56
686.12	422.25
686.45	419.93
686.79	417.63
687.13	415.44
687.46	413.21
687.80	411.01
688.14	408.80
688.48	406.68
688.81	404.47
689.15	402.31
689.49	400.09
689.82	397.97
690.16	395.85
690.50	393.86
690.83	391.93
691.17	389.93
691.51	387.97
691.84	386.07
692.18	384.14
692.52	382.21
692.85	380.25
693.19	378.39
693.52	376.54
693.86	374.65
694.20	372.84
694.53	371.08
694.87	369.22
695.21	367.40
695.54	365.56
695.88	363.78
696.21	362.02
696.55	360.30
696.88	358.56
697.22	356.88
697.56	355.25
697.89	353.56
698.23	351.94
698.56	350.31
698.90	348.66
699.23	347.03
699.57	345.45
699.90	343.87
700.24	342.30
700.58	340.71
700.91	339.24
701.25	337.76
701.58	336.36
701.92	334.94
702.25	333.55
702.59	332.17
702.92	330.81
703.26	329.47
703.59	328.19
703.93	326.98
704.26	325.72
704.60	324.44
704.93	323.16
705.26	321.90
705.60	320.64
705.93	319.49
706.27	318.40
706.60	317.28
706.94	316.16
707.27	315.01
707.61	313.92
707.94	312.88
708.27	311.73
708.61	310.58
708.94	309.59
709.28	308.63
709.61	307.63
709.94	306.67
710.28	305.60
710.61	304.58
710.95	303.45
711.28	302.52
711.61	301.51
711.95	300.56
712.28	299.61
712.61	298.69
712.95	297.72
713.28	296.83
713.61	295.94
713.95	295.08
714.28	294.23
714.61	293.36
714.95	292.49
715.28	291.61
715.61	290.74
715.95	289.85
716.28	288.93
716.61	288.09
716.95	287.25
717.28	286.53
717.61	285.74
717.94	285.02
718.28	284.18
718.61	283.45
718.94	282.74
719.27	282.08
719.61	281.41
719.94	280.75
720.27	280.01
720.60	279.33
720.94	278.70
721.27	278.11
721.60	277.52
721.93	276.88
722.27	276.33
722.60	275.78
722.93	275.20
723.26	274.67
723.59	274.11
723.93	273.56
724.26	272.94
724.59	272.37
724.92	271.82
725.25	271.32
725.59	270.73
725.92	270.20
726.25	269.65
726.58	269.11
726.91	268.57
727.24	268.08
727.57	267.59
727.91	267.03
728.24	266.52
728.57	266.03
728.90	265.56
729.23	265.04
729.56	264.60
729.89	264.11
730.22	263.60
730.55	263.12
730.89	262.68
731.22	262.26
731.55	261.82
731.88	261.35
732.21	260.91
732.54	260.48
732.87	260.04
733.20	259.65
733.53	259.25
733.86	258.90
734.19	258.50
734.52	258.11
734.85	257.80
735.18	257.38
735.51	257.01
735.84	256.66
736.17	256.31
736.50	255.92
736.83	255.70
737.16	255.39
737.49	255.06
737.82	254.68
738.15	254.36
738.48	254.01
738.81	253.71
739.14	253.38
739.47	253.09
739.80	252.79
740.13	252.45
740.46	252.12
740.79	251.77
741.12	251.48
741.45	251.16
741.78	250.80
742.11	250.51
742.44	250.14
742.77	249.84
743.10	249.56
743.43	249.27
743.75	248.88
744.08	248.72
744.41	248.43
744.74	248.14
745.07	247.88
745.40	247.66
745.73	247.44
746.06	247.17
746.39	246.89
746.71	246.60
747.04	246.35
747.37	246.08
747.70	245.84
748.03	245.58
748.36	245.34
748.68	245.10
749.01	244.87
749.34	244.64
749.67	244.39
750.00	244.16
750.33	243.99
750.65	243.74
750.98	243.39
751.31	243.16
751.64	242.98
751.97	242.81
752.29	242.54
752.62	242.29
752.95	242.05
753.28	241.84
753.60	241.61
753.93	241.44
754.26	241.24
754.59	241.02
754.91	240.77
755.24	240.55
755.57	240.32
755.90	240.11
756.22	239.93
756.55	239.71
756.88	239.51
757.20	239.24
757.53	239.03
757.86	238.83
758.19	238.67
758.51	238.45
758.84	238.21
759.17	238.07
759.49	237.90
759.82	237.79
760.15	237.65
760.47	237.53
760.80	237.35
761.13	237.23
761.45	237.06
761.78	236.91
762.11	236.79
762.43	236.69
762.76	236.56
763.08	236.45
763.41	236.35
763.74	236.21
764.06	236.08
764.39	235.97
764.71	235.83
765.04	235.70
765.37	235.58
765.69	235.46
766.02	235.30
766.34	235.16
766.67	235.02
767.00	234.87
767.32	234.82
767.65	234.77
767.97	234.60
768.30	234.53
768.62	234.44
768.95	234.30
769.27	234.18
769.60	234.04
769.92	233.93
770.25	233.81
770.57	233.68
770.90	233.59
771.22	233.46
771.55	233.38
771.87	233.28
772.20	233.18
772.52	233.15
772.85	233.22
773.17	233.14
773.50	233.03
773.82	232.94
774.15	232.76
774.47	232.60
774.80	232.56
775.12	232.45
775.45	232.38
775.77	232.32
776.09	232.24
776.42	232.19
776.74	232.15
777.07	232.05
777.39	231.98
777.72	231.89
778.04	231.83
778.36	231.75
778.69	231.69
779.01	231.61
779.33	231.44
779.66	231.23
779.98	231.15
780.31	231.10
780.63	231.10
780.95	231.09
781.28	231.01
781.60	230.92
781.92	230.87
782.25	230.77
782.57	230.68
782.89	230.59
783.22	230.49
783.54	230.41
783.86	230.36
784.19	230.32
784.51	230.30
784.83	230.23
785.16	230.19
785.48	230.15
785.80	230.09
786.12	230.08
786.45	230.04
786.77	230.03
787.09	229.97
787.42	229.89
787.74	229.84
788.06	229.80
788.38	229.75
788.71	229.66
789.03	229.63
789.35	229.62
789.67	229.58
789.99	229.53
790.32	229.45
790.64	229.43
790.96	229.42
791.28	229.35
791.61	229.33
791.93	229.30
792.25	229.21
792.57	229.24
792.89	229.17
793.21	229.14
793.54	229.04
793.86	228.95
794.18	228.92
794.50	228.82
794.82	228.80
795.14	228.74
795.47	228.72
795.79	228.68
796.11	228.61
796.43	228.58
796.75	228.55
797.07	228.53
797.39	228.45
797.71	228.35
798.04	228.32
798.36	228.31
798.68	228.24
799.00	228.25
799.32	228.16
799.64	228.14
799.96	228.09
800.28	228.09
800.60	228.08
800.92	228.02
801.24	227.98
801.56	227.99
801.89	227.98
802.21	227.95
802.53	227.94
802.85	227.92
803.17	227.93
803.49	227.88
803.81	227.85
804.13	227.83
804.45	227.81
804.77	227.78
805.09	227.71
805.41	227.66
805.73	227.59
806.05	227.55
806.37	227.51
806.69	227.47
807.01	227.43
807.33	227.41
807.65	227.35
807.97	227.39
808.28	227.32
808.60	227.30
808.92	227.30
809.24	227.31
809.56	227.28
809.88	227.23
810.20	227.24
810.52	227.21
810.84	227.20
811.16	227.16
811.48	227.13
811.80	227.17
812.12	227.15
812.43	227.15
812.75	227.13
813.07	227.10
813.39	227.08
813.71	227.04
814.03	227.02
814.35	227.01
814.67	226.93
814.98	226.90
815.30	226.89
815.62	226.86
815.94	226.77
816.26	226.81
816.58	226.79
816.89	226.78
817.21	226.73
817.53	226.72
817.85	226.75
818.17	226.74
818.48	226.66
818.80	226.68
819.12	226.66
819.44	226.65
819.76	226.63
820.07	226.62
820.39	226.61
820.71	226.62
821.03	226.64
821.34	226.65
821.66	226.65
821.98	226.63
822.30	226.61
822.61	226.65
822.93	226.58
823.25	226.54
823.57	226.53
823.88	226.56
824.20	226.55
824.52	226.52
824.83	226.50
825.15	226.47
825.47	226.47
825.79	226.46
826.10	226.41
826.42	226.38
826.74	226.39
827.05	226.39
827.37	226.39
827.69	226.37
828.00	226.35
828.32	226.34
828.64	226.33
828.95	226.35
829.27	226.31
829.58	226.31
829.90	226.33
830.22	226.32
830.53	226.29
830.85	226.26
831.17	226.23
831.48	226.20
831.80	226.22
832.11	226.16
832.43	226.15
832.75	226.20
833.06	226.25
833.38	226.21
833.69	226.17
834.01	226.16
834.32	226.11
834.64	226.12
834.96	226.10
835.27	226.08
835.59	226.06
835.90	226.02
836.22	226.01
836.53	225.97
836.85	225.95
837.16	226.05
837.48	226.07
837.79	226.09
838.11	226.14
838.42	226.13
838.74	226.17
839.05	226.18
839.37	226.16
839.68	226.10
840.00	226.12
840.31	226.15
840.63	226.09
840.94	226.14
841.26	226.12
841.57	226.11
841.88	226.10
842.20	226.09
842.51	226.09
842.83	226.07
843.14	226.15
843.46	226.13
843.77	226.07
844.08	226.03
844.40	226.00
844.71	225.93
845.03	225.91
845.34	225.88
845.65	225.86
845.97	225.85
846.28	225.86
846.60	225.85
846.91	225.83
847.22	225.83
847.54	225.82
847.85	225.81
848.16	225.77
848.48	225.74
848.79	225.76
849.10	225.77
849.42	225.78
849.73	225.69
850.04	225.70
850.36	225.63
850.67	225.62
850.98	225.63
851.30	225.63
851.61	225.61
851.92	225.60
852.23	225.60
852.55	225.59
852.86	225.57
853.17	225.57
853.49	225.56
853.80	225.58
854.11	225.55
854.42	225.56
854.74	225.57
855.05	225.58
855.36	225.49
855.67	225.50
855.99	225.48
856.30	225.61
856.61	225.57
856.92	225.59
857.23	225.57
857.55	225.55
857.86	225.57
858.17	225.59
858.48	225.56
858.79	225.55
859.11	225.54
859.42	225.53
859.73	225.52
860.04	225.52
860.35	225.50
860.66	225.47
860.98	225.47
861.29	225.46
861.60	225.44
861.91	225.48
862.22	225.45
862.53	225.42
862.84	225.26
863.16	225.31
863.47	225.31
863.78	225.33
864.09	225.31
864.40	225.31
864.71	225.31
865.02	225.34
865.33	225.33
865.64	225.30
865.95	225.29
866.27	225.33
866.58	225.34
866.89	225.33
867.20	225.33
867.51	225.32
867.82	225.31
868.13	225.34
868.44	225.35
868.75	225.35
869.06	225.38
869.37	225.42
869.68	225.39
869.99	225.41
870.30	225.42
870.61	225.42
870.92	225.42
871.23	225.41
871.54	225.40
871.85	225.40
872.16	225.43
872.47	225.40
872.78	225.36
873.09	225.33
873.40	225.38
873.71	225.38
874.02	225.36
874.33	225.37
874.64	225.32
874.95	225.30
875.26	225.29
875.56	225.26
875.87	225.21
876.18	225.24
876.49	225.33
876.80	225.30
877.11	225.28
877.42	225.28
877.73	225.29
878.04	225.28
878.35	225.28
878.66	225.31
878.96	225.31
879.27	225.32
879.58	225.31
879.89	225.30
880.20	225.32
880.51	225.32
880.82	225.33
881.12	225.36
881.43	225.33
881.74	225.30
882.05	225.32
882.36	225.33
882.67	225.33
882.97	225.18
883.28	225.16
883.59	225.18
883.90	225.19
884.21	225.20
884.51	225.18
884.82	225.18
885.13	225.14
885.44	225.15
885.74	225.13
886.05	225.14
886.36	225.11
886.67	225.08
886.98	225.15
887.28	225.16
887.59	225.18
887.90	225.20
888.20	225.20
888.51	225.21
888.82	225.21
889.13	225.19
889.43	225.25
889.74	225.26
890.05	225.27
890.35	225.24
890.66	225.20
890.97	225.19
891.28	225.17
891.58	225.19
891.89	225.18
892.20	225.18
892.50	225.17
892.81	225.16
893.12	225.12
893.42	225.05
893.73	225.06
894.04	225.06
894.34	225.07
894.65	225.08
894.95	225.09
895.26	225.07
895.57	225.14
895.87	225.10
896.18	225.12
896.48	225.08
896.79	225.08
897.10	225.11
897.40	225.11
897.71	225.10
898.01	225.08
898.32	225.08
898.63	225.07
898.93	225.11
899.24	225.12
899.54	225.16
899.85	225.15
900.15	225.14
900.46	225.15
900.76	225.13
901.07	225.13
901.38	225.09
901.68	225.15
901.99	225.05
902.29	225.05
902.60	225.02
902.90	225.03
903.21	225.03
903.51	225.03
903.82	225.07
904.12	225.07
904.43	225.08
904.73	225.10
905.03	225.12
905.34	225.20
905.64	225.20
905.95	225.20
906.25	225.16
906.56	225.15
906.86	225.16
907.17	225.19
907.47	225.22
907.77	225.25
908.08	225.20
908.38	225.21
908.69	225.22
908.99	225.25
909.30	225.25
909.60	225.27
909.90	225.25
910.21	225.24
910.51	225.25
910.81	225.27
911.12	225.29
911.42	225.27
911.73	225.17
912.03	225.14
912.33	225.15
912.64	225.18
912.94	225.17
913.24	225.14
913.55	225.12
913.85	225.08
914.15	225.07
914.46	225.09
914.76	225.10
915.06	225.08
915.37	225.07
915.67	225.08
915.97	225.10
916.27	225.11
916.58	225.13
916.88	225.10
917.18	225.10
917.49	225.13
917.79	225.16
918.09	225.15
918.39	225.17
918.70	225.18
919.00	225.16
919.30	225.19
919.60	225.19
919.91	225.20
920.21	225.23
920.51	225.22
920.81	225.21
921.12	225.20
921.42	225.21
921.72	225.24
922.02	225.24
922.32	225.27
922.63	225.25
922.93	225.27
923.23	225.29
923.53	225.29
923.83	225.26
924.13	225.25
924.44	225.25
924.74	225.30
925.04	225.31
925.34	225.32
925.64	225.27
925.94	225.27
926.24	225.32
926.55	225.29
926.85	225.33
927.15	225.33
927.45	225.37
927.75	225.33
928.05	225.31
928.35	225.31
928.65	225.27
928.95	225.28
929.26	225.26
929.56	225.26
929.86	225.24
930.16	225.19
930.46	225.14
930.76	225.17
931.06	225.09
931.36	225.06
931.66	225.07
931.96	225.10
932.26	225.10
932.56	225.06
932.86	225.09
933.16	225.06
933.46	225.06
933.76	225.00
934.06	225.01
934.36	225.03
934.66	224.97
934.96	224.96
935.26	224.95
935.56	224.96
935.86	224.92
936.16	224.92
936.46	224.94
936.76	224.95
937.06	224.90
937.36	224.91
937.66	224.93
937.96	224.94
938.26	224.93
938.56	224.91
938.86	224.88
939.16	224.88
939.46	224.86
939.76	224.86
940.06	224.86
940.35	224.87
940.65	224.82
940.95	224.87
941.25	224.82
941.55	224.81
941.85	224.77
942.15	224.80
942.45	224.82
942.75	224.81
943.04	224.84
943.34	224.87
943.64	224.86
943.94	224.83
944.24	224.81
944.54	224.78
944.84	224.80
945.13	224.81
945.43	224.80
945.73	224.81
946.03	224.81
946.33	224.83
946.62	224.84
946.92	224.83
947.22	224.84
947.52	224.89
947.82	224.92
948.11	224.96
948.41	224.95
948.71	224.91
949.01	224.90
949.31	224.89
949.60	224.91
949.90	224.96
950.20	224.94
950.50	224.93
950.79	224.97
951.09	224.95
951.39	224.95
951.69	224.95
951.98	224.98
952.28	224.96
952.58	224.95
952.87	224.94
953.17	224.98
953.47	224.97
953.76	224.99
954.06	224.97
954.36	224.94
954.66	224.93
954.95	224.97
955.25	224.97
955.55	225.00
955.84	224.97
956.14	224.96
956.44	225.01
956.73	225.00
957.03	224.97
957.32	224.98
957.62	224.96
957.92	224.98
958.21	224.97
958.51	225.10
958.81	225.11
959.10	225.13
959.40	225.15
959.69	225.17
959.99	225.17
960.29	225.16
960.58	225.15
960.88	225.20
961.17	225.16
961.47	225.19
961.76	225.14
962.06	225.18
962.36	225.14
962.65	225.12
962.95	225.14
963.24	225.13
963.54	225.15
963.83	225.16
964.13	225.15
964.42	225.13
964.72	225.06
965.01	225.05
965.31	225.03
965.60	225.00
965.90	225.04
966.19	225.03
966.49	225.03
966.78	225.05
967.08	225.05
967.37	225.05
967.67	225.04
967.96	225.07
968.26	225.06
968.55	225.09
968.85	225.09
969.14	225.04
969.43	225.04
969.73	225.02
970.02	224.99
970.32	224.95
970.61	224.91
970.91	224.86
971.20	224.86
971.49	224.84
971.79	224.82
972.08	224.73
972.38	224.71
972.67	224.68
972.96	224.67
973.26	224.63
973.55	224.64
973.85	224.65
974.14	224.64
974.43	224.65
974.73	224.62
975.02	224.61
975.31	224.65
975.61	224.69
975.90	224.67
976.19	224.69
976.49	224.68
976.78	224.69
977.07	224.68
977.37	224.68
977.66	224.71
977.95	224.70
978.24	224.72
978.54	224.74
978.83	224.77
979.12	224.78
979.42	224.77
979.71	224.79
980.00	224.75
980.29	224.76
980.59	224.74
980.88	224.76
981.17	224.74
981.46	224.72
981.76	224.69
982.05	224.72
982.34	224.76
982.63	224.81
982.93	224.83
983.22	224.87
983.51	224.88
983.80	224.88
984.09	224.93
984.39	224.93
984.68	224.94
984.97	224.94
985.26	224.94
985.55	224.97
985.85	224.91
986.14	224.93
986.43	224.94
986.72	224.94
987.01	224.93
987.30	224.94
987.59	224.96
987.89	224.99
988.18	224.98
988.47	224.98
988.76	224.95
989.05	224.95
989.34	224.95
989.63	224.98
989.92	224.99
990.22	224.97
990.51	224.97
990.80	224.95
991.09	224.98
991.38	225.01
991.67	225.01
991.96	224.99
992.25	225.00
992.54	225.00
992.83	225.03
993.12	225.04
993.41	225.07
993.70	225.10
993.99	225.12
994.28	225.15
994.58	225.17
994.87	225.18
995.16	225.18
995.45	225.18
995.74	225.14
996.03	225.15
996.32	225.16
996.61	225.19
996.90	225.20
997.19	225.18
997.48	225.14
997.77	225.12
998.06	225.12
998.34	225.12
998.63	225.09
998.92	225.07
999.21	225.07
999.50	225.04
999.79	225.01
1000.08	224.99
1000.37	224.95
1000.66	224.91
1000.95	224.92
1001.24	224.90
1001.53	224.88
1001.82	224.87
1002.11	224.83
1002.40	224.80
1002.68	224.79
1002.97	224.83
1003.26	224.83
1003.55	224.81
1003.84	224.81
1004.13	224.83
1004.42	224.85
1004.71	224.82
1004.99	224.81
1005.28	224.80
1005.57	224.83
1005.86	224.80
1006.15	224.80
1006.44	224.80
1006.72	224.78
1007.01	224.75
1007.30	224.73
1007.59	224.73
1007.88	224.73
1008.17	224.73
1008.45	224.72
1008.74	224.67
1009.03	224.63
1009.32	224.62
1009.60	224.61
1009.89	224.60
1010.18	224.56
1010.47	224.55
1010.76	224.57
1011.04	224.52
1011.33	224.55
1011.62	224.50
1011.91	224.51
1012.19	224.53
1012.48	224.50
1012.77	224.50
1013.05	224.54
1013.34	224.55
1013.63	224.53
1013.92	224.55
1014.20	224.55
1014.49	224.55
1014.78	224.55
1015.06	224.49
1015.35	224.47
1015.64	224.47
1015.92	224.47
1016.21	224.50
1016.50	224.48
1016.78	224.49
1017.07	224.53
1017.36	224.47
1017.64	224.48
1017.93	224.47
1018.22	224.44
1018.50	224.45
1018.79	224.46
1019.08	224.44
1019.36	224.44
1019.65	224.48
1019.93	224.49
1020.22	224.50
1020.51	224.58
1020.79	224.60
1021.08	224.26
1021.36	224.31
1021.65	224.97
1021.94	224.55
1022.22	224.57
1022.51	225.00
1022.79	225.09
1023.08	224.90
1023.36	226.10
1023.65	224.66
>>>>>End Processed Spectral Data<<<<<
