SpectraSuite Data File
++++++++++++++++++++++++++++++++++++
Date: Fri Feb 01 18:04:37 EST 2013
User: group
Dark Spectrum Present: No
Reference Spectrum Present: No
Number of Sampled Component Spectra: 1
Spectrometers: USB2E7196
Integration Time (usec): 35000 (USB2E7196)
Spectra Averaged: 100 (USB2E7196)
Boxcar Smoothing: 10 (USB2E7196)
Correct for Electrical Dark: No (USB2E7196)
Strobe/Lamp Enabled: No (USB2E7196)
Correct for Detector Non-linearity: No (USB2E7196)
Correct for Stray Light: No (USB2E7196)
Number of Pixels in Processed Spectrum: 2048
>>>>>Begin Processed Spectral Data<<<<<
339.09	0.00
339.48	212.76
339.86	214.37
340.24	215.51
340.63	217.15
341.01	219.99
341.39	219.54
341.78	221.05
342.16	222.31
342.54	222.47
342.93	211.18
343.31	221.88
343.69	222.42
344.07	222.88
344.46	223.29
344.84	223.66
345.22	223.89
345.60	224.15
345.99	224.34
346.37	224.47
346.75	224.58
347.13	224.69
347.52	224.81
347.90	224.87
348.28	224.91
348.66	224.97
349.05	224.98
349.43	225.01
349.81	225.04
350.19	225.07
350.57	225.17
350.96	225.26
351.34	225.35
351.72	225.45
352.10	225.57
352.48	225.67
352.87	225.74
353.25	225.79
353.63	225.90
354.01	225.99
354.39	226.08
354.77	226.16
355.15	226.26
355.54	226.31
355.92	226.36
356.30	226.43
356.68	226.59
357.06	226.66
357.44	226.74
357.82	226.83
358.20	226.91
358.58	226.96
358.97	227.03
359.35	227.09
359.73	227.19
360.11	227.27
360.49	227.32
360.87	227.40
361.25	227.46
361.63	227.52
362.01	227.56
362.39	227.58
362.77	227.64
363.15	227.68
363.53	227.71
363.91	227.77
364.29	227.79
364.67	227.70
365.05	227.73
365.43	227.75
365.81	227.80
366.19	227.85
366.57	227.91
366.95	227.91
367.33	227.91
367.71	227.89
368.09	227.86
368.47	227.85
368.85	227.80
369.23	227.82
369.61	227.79
369.99	227.74
370.37	227.72
370.75	227.72
371.13	227.65
371.51	227.64
371.89	227.60
372.27	227.56
372.65	227.54
373.03	227.50
373.41	227.42
373.78	227.32
374.16	227.23
374.54	227.12
374.92	227.07
375.30	226.97
375.68	226.87
376.06	226.83
376.44	226.76
376.82	226.69
377.19	226.61
377.57	226.52
377.95	226.46
378.33	226.41
378.71	226.29
379.09	226.22
379.47	226.16
379.84	226.10
380.22	226.03
380.60	225.95
380.98	225.86
381.36	225.80
381.73	225.78
382.11	225.72
382.49	225.70
382.87	225.58
383.25	225.55
383.62	225.62
384.00	225.52
384.38	225.49
384.76	225.49
385.13	225.48
385.51	225.40
385.89	225.35
386.27	225.31
386.64	225.26
387.02	225.20
387.40	225.13
387.78	225.10
388.15	225.07
388.53	225.00
388.91	224.99
389.29	224.98
389.66	224.92
390.04	224.89
390.42	224.85
390.79	224.84
391.17	224.77
391.55	224.64
391.92	224.64
392.30	224.62
392.68	224.57
393.05	224.56
393.43	224.57
393.81	224.55
394.18	224.52
394.56	224.54
394.94	224.59
395.31	224.59
395.69	224.66
396.06	224.68
396.44	224.70
396.82	224.71
397.19	224.79
397.57	224.82
397.95	224.82
398.32	224.88
398.70	224.95
399.07	225.04
399.45	225.11
399.82	225.15
400.20	225.22
400.58	225.32
400.95	225.34
401.33	225.43
401.70	225.60
402.08	225.70
402.45	225.83
402.83	225.94
403.20	226.05
403.58	226.10
403.95	226.21
404.33	226.40
404.71	226.54
405.08	226.72
405.46	226.87
405.83	227.06
406.21	227.21
406.58	227.40
406.96	227.61
407.33	227.83
407.70	228.08
408.08	228.37
408.45	228.62
408.83	228.93
409.20	229.20
409.58	229.42
409.95	229.77
410.33	230.09
410.70	230.45
411.08	230.84
411.45	231.24
411.82	231.64
412.20	232.09
412.57	232.61
412.95	233.02
413.32	233.55
413.69	234.13
414.07	234.69
414.44	235.34
414.82	235.98
415.19	236.74
415.56	237.47
415.94	238.25
416.31	239.09
416.68	239.92
417.06	240.91
417.43	241.83
417.81	242.87
418.18	243.95
418.55	245.06
418.93	246.27
419.30	247.49
419.67	248.82
420.04	250.10
420.42	251.46
420.79	253.04
421.16	254.65
421.54	256.22
421.91	257.87
422.28	259.56
422.66	261.37
423.03	263.08
423.40	264.90
423.77	266.76
424.15	268.72
424.52	270.74
424.89	272.91
425.26	275.01
425.64	276.99
426.01	279.12
426.38	281.35
426.75	283.62
427.13	285.99
427.50	288.41
427.87	290.97
428.24	293.51
428.61	295.91
428.99	298.50
429.36	301.37
429.73	304.23
430.10	307.01
430.47	309.77
430.85	312.72
431.22	315.75
431.59	318.99
431.96	322.03
432.33	325.38
432.70	328.62
433.08	332.43
433.45	335.97
433.82	339.57
434.19	343.51
434.56	347.29
434.93	350.89
435.30	354.44
435.68	358.35
436.05	362.22
436.42	366.01
436.79	369.41
437.16	373.08
437.53	376.88
437.90	380.68
438.27	384.38
438.64	388.20
439.01	391.70
439.38	394.75
439.75	397.71
440.13	401.14
440.50	404.29
440.87	406.86
441.24	409.55
441.61	412.49
441.98	414.50
442.35	416.98
442.72	419.53
443.09	421.98
443.46	423.39
443.83	424.17
444.20	424.90
444.57	426.09
444.94	426.51
445.31	426.99
445.68	427.44
446.05	427.61
446.42	427.12
446.79	426.57
447.16	426.01
447.53	425.58
447.90	424.02
448.27	422.50
448.64	420.32
449.01	418.79
449.37	416.03
449.74	413.45
450.11	410.37
450.48	406.98
450.85	403.56
451.22	400.59
451.59	397.85
451.96	395.19
452.33	391.64
452.70	388.41
453.07	384.59
453.43	380.64
453.80	376.87
454.17	373.20
454.54	369.77
454.91	366.04
455.28	362.39
455.65	359.00
456.02	355.58
456.38	352.64
456.75	349.00
457.12	345.95
457.49	342.93
457.86	339.99
458.23	337.41
458.59	334.63
458.96	331.82
459.33	329.23
459.70	326.62
460.07	324.57
460.43	322.23
460.80	319.99
461.17	318.04
461.54	315.97
461.91	313.99
462.27	311.97
462.64	310.24
463.01	308.40
463.38	306.60
463.74	304.79
464.11	303.20
464.48	301.76
464.85	300.23
465.21	299.05
465.58	297.77
465.95	296.31
466.32	295.00
466.68	293.76
467.05	292.55
467.42	291.37
467.78	290.08
468.15	288.84
468.52	287.88
468.88	286.72
469.25	285.64
469.62	284.80
469.98	283.90
470.35	283.01
470.72	282.15
471.08	281.23
471.45	280.46
471.82	279.67
472.18	278.83
472.55	278.18
472.92	277.45
473.28	276.81
473.65	276.15
474.02	275.57
474.38	275.02
474.75	274.54
475.11	274.01
475.48	273.63
475.85	273.29
476.21	272.96
476.58	272.62
476.94	272.40
477.31	272.09
477.67	271.82
478.04	271.65
478.41	271.53
478.77	271.47
479.14	271.35
479.50	271.33
479.87	271.37
480.23	271.41
480.60	271.41
480.96	271.43
481.33	271.57
481.69	271.70
482.06	271.82
482.42	271.98
482.79	272.21
483.15	272.52
483.52	272.91
483.88	273.31
484.25	273.69
484.61	274.08
484.98	274.54
485.34	275.08
485.71	275.63
486.07	276.22
486.44	276.82
486.80	277.51
487.17	278.24
487.53	279.06
487.90	279.96
488.26	280.86
488.62	281.90
488.99	282.94
489.35	284.05
489.72	285.24
490.08	286.53
490.44	287.82
490.81	289.16
491.17	290.55
491.54	292.06
491.90	293.69
492.26	295.43
492.63	297.24
492.99	299.14
493.36	301.14
493.72	303.29
494.08	305.55
494.45	307.95
494.81	310.46
495.17	313.04
495.54	315.71
495.90	318.58
496.26	321.52
496.63	324.67
496.99	327.96
497.35	331.44
497.72	335.04
498.08	338.78
498.44	342.69
498.80	346.85
499.17	351.16
499.53	355.54
499.89	360.20
500.26	364.98
500.62	369.90
500.98	375.22
501.34	380.64
501.71	386.27
502.07	392.02
502.43	397.97
502.79	404.13
503.16	410.56
503.52	417.26
503.88	424.11
504.24	431.17
504.60	438.52
504.97	446.08
505.33	453.88
505.69	462.05
506.05	470.35
506.41	478.73
506.78	487.40
507.14	496.43
507.50	505.77
507.86	515.40
508.22	525.26
508.59	535.00
508.95	545.19
509.31	555.65
509.67	566.49
510.03	577.47
510.39	588.86
510.75	600.54
511.12	612.24
511.48	624.33
511.84	636.57
512.20	648.86
512.56	661.72
512.92	674.72
513.28	688.15
513.64	701.59
514.00	715.34
514.37	729.29
514.73	743.38
515.09	757.32
515.45	771.63
515.81	786.28
516.17	801.44
516.53	816.76
516.89	832.13
517.25	847.44
517.61	863.19
517.97	878.79
518.33	894.42
518.69	910.50
519.05	926.78
519.41	943.22
519.77	960.18
520.13	977.06
520.49	993.98
520.85	1010.70
521.21	1027.79
521.57	1045.57
521.93	1062.77
522.29	1080.69
522.65	1098.51
523.01	1116.27
523.37	1133.89
523.73	1151.67
524.09	1169.42
524.45	1187.28
524.81	1205.63
525.17	1224.04
525.53	1242.67
525.89	1261.24
526.25	1279.85
526.61	1298.00
526.97	1316.69
527.33	1335.04
527.68	1353.47
528.04	1371.78
528.40	1390.25
528.76	1409.31
529.12	1427.67
529.48	1446.64
529.84	1464.67
530.20	1483.42
530.56	1502.48
530.91	1521.99
531.27	1540.88
531.63	1559.29
531.99	1578.12
532.35	1596.22
532.71	1614.31
533.07	1632.72
533.42	1650.65
533.78	1668.90
534.14	1687.32
534.50	1704.67
534.86	1722.62
535.21	1739.90
535.57	1758.00
535.93	1775.69
536.29	1792.71
536.65	1809.97
537.00	1826.93
537.36	1844.34
537.72	1861.03
538.08	1877.76
538.44	1893.73
538.79	1909.76
539.15	1925.64
539.51	1941.59
539.87	1958.22
540.22	1974.12
540.58	1990.12
540.94	2005.81
541.29	2020.84
541.65	2035.89
542.01	2051.51
542.37	2066.23
542.72	2080.80
543.08	2094.80
543.44	2109.50
543.79	2122.91
544.15	2136.27
544.51	2149.96
544.87	2163.18
545.22	2176.33
545.58	2188.82
545.94	2200.83
546.29	2213.00
546.65	2225.12
547.01	2236.60
547.36	2247.41
547.72	2258.19
548.07	2268.22
548.43	2278.56
548.79	2288.58
549.14	2298.27
549.50	2307.56
549.86	2317.25
550.21	2326.80
550.57	2336.08
550.92	2344.67
551.28	2353.80
551.64	2362.88
551.99	2371.48
552.35	2379.87
552.70	2387.85
553.06	2395.73
553.41	2403.96
553.77	2411.86
554.13	2419.94
554.48	2427.95
554.84	2435.46
555.19	2442.24
555.55	2449.21
555.90	2455.45
556.26	2462.30
556.61	2468.66
556.97	2474.92
557.32	2480.63
557.68	2486.57
558.03	2492.61
558.39	2497.81
558.74	2504.32
559.10	2509.78
559.45	2515.02
559.81	2520.68
560.16	2526.03
560.52	2530.76
560.87	2535.69
561.23	2539.70
561.58	2543.97
561.94	2547.87
562.29	2551.32
562.64	2555.69
563.00	2559.64
563.35	2564.67
563.71	2569.18
564.06	2573.75
564.42	2577.94
564.77	2581.93
565.12	2585.40
565.48	2588.49
565.83	2591.67
566.19	2593.94
566.54	2595.71
566.89	2597.88
567.25	2599.57
567.60	2601.95
567.96	2604.81
568.31	2606.65
568.66	2608.90
569.02	2610.34
569.37	2611.51
569.72	2613.50
570.08	2614.46
570.43	2615.33
570.78	2615.31
571.14	2614.27
571.49	2613.52
571.84	2613.74
572.20	2613.15
572.55	2612.65
572.90	2611.50
573.26	2610.72
573.61	2609.33
573.96	2608.32
574.31	2605.65
574.67	2602.95
575.02	2599.48
575.37	2596.11
575.72	2592.49
576.08	2589.13
576.43	2585.88
576.78	2582.45
577.13	2579.22
577.49	2576.11
577.84	2572.69
578.19	2569.07
578.54	2565.72
578.90	2561.41
579.25	2555.62
579.60	2550.52
579.95	2545.20
580.30	2539.86
580.66	2534.46
581.01	2529.22
581.36	2523.84
581.71	2519.49
582.06	2514.87
582.42	2510.27
582.77	2504.81
583.12	2499.95
583.47	2495.05
583.82	2489.89
584.17	2484.28
584.53	2478.38
584.88	2472.18
585.23	2465.87
585.58	2459.72
585.93	2453.51
586.28	2448.32
586.63	2442.77
586.98	2437.17
587.34	2432.08
587.69	2426.70
588.04	2420.92
588.39	2414.79
588.74	2407.62
589.09	2400.80
589.44	2393.03
589.79	2386.04
590.14	2379.68
590.49	2372.17
590.84	2364.83
591.19	2358.09
591.54	2350.70
591.89	2342.54
592.25	2335.07
592.60	2326.83
592.95	2318.40
593.30	2310.20
593.65	2301.47
594.00	2293.43
594.35	2285.04
594.70	2275.85
595.05	2267.84
595.40	2259.38
595.75	2250.74
596.10	2243.69
596.45	2236.06
596.80	2229.25
597.15	2221.84
597.50	2213.87
597.85	2206.50
598.19	2198.96
598.54	2190.84
598.89	2183.22
599.24	2176.29
599.59	2168.57
599.94	2161.35
600.29	2153.90
600.64	2146.17
600.99	2137.62
601.34	2129.82
601.69	2121.81
602.04	2113.82
602.39	2105.24
602.74	2097.31
603.08	2089.56
603.43	2081.79
603.78	2073.12
604.13	2064.49
604.48	2056.07
604.83	2047.88
605.18	2039.91
605.53	2030.64
605.87	2021.17
606.22	2012.72
606.57	2003.37
606.92	1994.75
607.27	1986.42
607.62	1978.46
607.96	1969.96
608.31	1962.43
608.66	1953.36
609.01	1944.59
609.36	1935.74
609.70	1926.23
610.05	1916.81
610.40	1907.80
610.75	1897.92
611.10	1888.95
611.44	1879.11
611.79	1869.67
612.14	1859.50
612.49	1848.55
612.83	1838.62
613.18	1829.03
613.53	1819.41
613.88	1809.39
614.22	1799.54
614.57	1789.32
614.92	1779.78
615.27	1770.88
615.61	1760.86
615.96	1751.43
616.31	1742.39
616.65	1733.62
617.00	1724.80
617.35	1715.72
617.70	1705.91
618.04	1695.80
618.39	1686.09
618.74	1677.20
619.08	1667.29
619.43	1658.39
619.78	1650.19
620.12	1641.76
620.47	1632.85
620.82	1623.14
621.16	1614.30
621.51	1605.37
621.85	1596.41
622.20	1586.53
622.55	1576.74
622.89	1567.58
623.24	1558.53
623.59	1549.76
623.93	1540.82
624.28	1532.31
624.62	1523.33
624.97	1514.67
625.32	1506.74
625.66	1498.42
626.01	1489.87
626.35	1481.23
626.70	1472.08
627.04	1463.01
627.39	1453.79
627.73	1445.17
628.08	1436.99
628.43	1428.47
628.77	1419.75
629.12	1410.82
629.46	1402.18
629.81	1393.19
630.15	1384.52
630.50	1375.80
630.84	1366.06
631.19	1356.68
631.53	1347.68
631.88	1338.91
632.22	1330.03
632.57	1321.38
632.91	1312.46
633.26	1303.76
633.60	1294.90
633.95	1286.42
634.29	1278.11
634.64	1270.23
634.98	1261.57
635.32	1253.12
635.67	1245.19
636.01	1237.38
636.36	1229.44
636.70	1221.68
637.05	1214.06
637.39	1206.48
637.73	1198.90
638.08	1191.99
638.42	1184.99
638.77	1177.54
639.11	1169.84
639.45	1162.34
639.80	1154.52
640.14	1147.13
640.49	1139.44
640.83	1132.16
641.17	1124.81
641.52	1117.32
641.86	1109.72
642.20	1102.75
642.55	1095.35
642.89	1087.87
643.23	1080.14
643.58	1073.35
643.92	1066.13
644.26	1059.07
644.61	1052.01
644.95	1044.92
645.29	1037.27
645.64	1029.39
645.98	1021.94
646.32	1015.00
646.66	1007.93
647.01	1001.14
647.35	994.42
647.69	987.52
648.04	981.02
648.38	974.47
648.72	967.72
649.06	960.72
649.41	953.87
649.75	947.09
650.09	940.26
650.43	933.64
650.78	926.49
651.12	919.69
651.46	913.01
651.80	906.41
652.14	900.10
652.49	893.85
652.83	887.87
653.17	881.31
653.51	874.76
653.85	868.44
654.20	861.94
654.54	854.98
654.88	848.38
655.22	841.49
655.56	834.73
655.90	828.31
656.25	822.12
656.59	815.85
656.93	809.88
657.27	803.90
657.61	797.51
657.95	791.63
658.29	785.71
658.64	779.61
658.98	773.44
659.32	767.16
659.66	761.13
660.00	754.94
660.34	749.12
660.68	743.33
661.02	737.55
661.36	732.05
661.70	726.83
662.05	721.81
662.39	716.87
662.73	711.74
663.07	706.65
663.41	701.55
663.75	696.38
664.09	691.08
664.43	685.98
664.77	681.24
665.11	676.28
665.45	671.52
665.79	666.79
666.13	661.99
666.47	657.20
666.81	652.45
667.15	647.70
667.49	643.17
667.83	638.71
668.17	634.12
668.51	629.46
668.85	624.78
669.19	620.27
669.53	615.87
669.87	611.45
670.21	607.16
670.55	602.92
670.89	598.95
671.23	594.93
671.57	590.77
671.91	586.69
672.25	582.68
672.58	578.58
672.92	574.59
673.26	570.89
673.60	567.28
673.94	563.60
674.28	560.27
674.62	556.87
674.96	553.34
675.30	550.02
675.64	546.67
675.97	543.46
676.31	540.14
676.65	536.72
676.99	533.50
677.33	530.21
677.67	526.96
678.01	523.49
678.34	520.08
678.68	516.78
679.02	513.56
679.36	510.35
679.70	507.22
680.04	504.07
680.37	500.79
680.71	497.55
681.05	494.58
681.39	491.46
681.73	488.44
682.06	485.48
682.40	482.52
682.74	479.56
683.08	476.55
683.42	473.51
683.75	470.61
684.09	467.63
684.43	464.70
684.77	461.87
685.10	459.11
685.44	456.41
685.78	453.78
686.12	451.10
686.45	448.46
686.79	445.80
687.13	443.29
687.46	440.75
687.80	438.21
688.14	435.57
688.48	433.14
688.81	430.57
689.15	428.03
689.49	425.51
689.82	423.08
690.16	420.66
690.50	418.45
690.83	416.19
691.17	413.91
691.51	411.75
691.84	409.58
692.18	407.34
692.52	405.04
692.85	402.76
693.19	400.60
693.52	398.32
693.86	396.12
694.20	393.97
694.53	391.87
694.87	389.69
695.21	387.58
695.54	385.35
695.88	383.28
696.21	381.30
696.55	379.33
696.88	377.34
697.22	375.41
697.56	373.43
697.89	371.49
698.23	369.65
698.56	367.78
698.90	365.93
699.23	364.07
699.57	362.29
699.90	360.49
700.24	358.63
700.58	356.89
700.91	355.16
701.25	353.47
701.58	351.85
701.92	350.31
702.25	348.77
702.59	347.21
702.92	345.67
703.26	344.17
703.59	342.67
703.93	341.29
704.26	339.87
704.60	338.43
704.93	336.97
705.26	335.45
705.60	334.06
705.93	332.66
706.27	331.44
706.60	330.20
706.94	328.96
707.27	327.66
707.61	326.44
707.94	325.24
708.27	323.97
708.61	322.73
708.94	321.55
709.28	320.36
709.61	319.28
709.94	318.14
710.28	316.93
710.61	315.80
710.95	314.57
711.28	313.51
711.61	312.36
711.95	311.30
712.28	310.21
712.61	309.07
712.95	307.99
713.28	306.93
713.61	305.89
713.95	304.86
714.28	303.88
714.61	302.90
714.95	301.96
715.28	300.98
715.61	299.95
715.95	298.95
716.28	298.01
716.61	297.04
716.95	296.10
717.28	295.25
717.61	294.35
717.94	293.47
718.28	292.50
718.61	291.69
718.94	290.85
719.27	290.12
719.61	289.38
719.94	288.65
720.27	287.79
720.60	287.01
720.94	286.29
721.27	285.61
721.60	284.99
721.93	284.30
722.27	283.68
722.60	283.06
722.93	282.42
723.26	281.77
723.59	281.11
723.93	280.48
724.26	279.83
724.59	279.17
724.92	278.57
725.25	278.00
725.59	277.36
725.92	276.77
726.25	276.17
726.58	275.59
726.91	274.96
727.24	274.44
727.57	273.86
727.91	273.26
728.24	272.69
728.57	272.06
728.90	271.52
729.23	270.93
729.56	270.42
729.89	269.83
730.22	269.26
730.55	268.73
730.89	268.21
731.22	267.69
731.55	267.19
731.88	266.64
732.21	266.10
732.54	265.57
732.87	265.06
733.20	264.59
733.53	264.12
733.86	263.69
734.19	263.21
734.52	262.80
734.85	262.39
735.18	261.90
735.51	261.45
735.84	261.00
736.17	260.57
736.50	260.10
736.83	259.82
737.16	259.43
737.49	259.00
737.82	258.58
738.15	258.18
738.48	257.78
738.81	257.41
739.14	257.07
739.47	256.73
739.80	256.39
740.13	256.00
740.46	255.60
740.79	255.24
741.12	254.86
741.45	254.44
741.78	254.04
742.11	253.72
742.44	253.34
742.77	253.00
743.10	252.64
743.43	252.26
743.75	251.85
744.08	251.66
744.41	251.37
744.74	251.04
745.07	250.72
745.40	250.45
745.73	250.17
746.06	249.87
746.39	249.57
746.71	249.28
747.04	248.95
747.37	248.70
747.70	248.42
748.03	248.14
748.36	247.91
748.68	247.64
749.01	247.34
749.34	247.10
749.67	246.82
750.00	246.57
750.33	246.41
750.65	246.14
750.98	245.77
751.31	245.54
751.64	245.32
751.97	245.14
752.29	244.89
752.62	244.59
752.95	244.35
753.28	244.07
753.60	243.82
753.93	243.65
754.26	243.41
754.59	243.16
754.91	242.92
755.24	242.68
755.57	242.52
755.90	242.33
756.22	242.11
756.55	241.91
756.88	241.71
757.20	241.45
757.53	241.24
757.86	241.03
758.19	240.85
758.51	240.67
758.84	240.40
759.17	240.21
759.49	240.05
759.82	239.90
760.15	239.76
760.47	239.60
760.80	239.37
761.13	239.22
761.45	239.02
761.78	238.88
762.11	238.70
762.43	238.50
762.76	238.33
763.08	238.18
763.41	237.99
763.74	237.85
764.06	237.68
764.39	237.54
764.71	237.37
765.04	237.19
765.37	237.01
765.69	236.89
766.02	236.76
766.34	236.62
766.67	236.44
767.00	236.29
767.32	236.19
767.65	236.11
767.97	235.95
768.30	235.82
768.62	235.67
768.95	235.54
769.27	235.43
769.60	235.29
769.92	235.17
770.25	235.06
770.57	234.90
770.90	234.79
771.22	234.66
771.55	234.54
771.87	234.43
772.20	234.33
772.52	234.26
772.85	234.26
773.17	234.15
773.50	234.01
773.82	233.89
774.15	233.76
774.47	233.61
774.80	233.49
775.12	233.38
775.45	233.28
775.77	233.22
776.09	233.11
776.42	233.03
776.74	232.97
777.07	232.88
777.39	232.76
777.72	232.67
778.04	232.58
778.36	232.50
778.69	232.41
779.01	232.34
779.33	232.18
779.66	231.98
779.98	231.88
780.31	231.80
780.63	231.78
780.95	231.72
781.28	231.62
781.60	231.54
781.92	231.50
782.25	231.41
782.57	231.34
782.89	231.25
783.22	231.16
783.54	231.05
783.86	230.98
784.19	230.92
784.51	230.83
784.83	230.76
785.16	230.69
785.48	230.62
785.80	230.52
786.12	230.48
786.45	230.43
786.77	230.38
787.09	230.34
787.42	230.20
787.74	230.14
788.06	230.11
788.38	230.04
788.71	229.97
789.03	229.91
789.35	229.85
789.67	229.78
789.99	229.75
790.32	229.70
790.64	229.62
790.96	229.69
791.28	229.64
791.61	229.60
791.93	229.57
792.25	229.51
792.57	229.60
792.89	229.51
793.21	229.44
793.54	229.39
793.86	229.34
794.18	229.34
794.50	229.26
794.82	229.22
795.14	229.19
795.47	229.14
795.79	229.13
796.11	229.03
796.43	228.98
796.75	228.95
797.07	228.91
797.39	228.87
797.71	228.75
798.04	228.72
798.36	228.72
798.68	228.68
799.00	228.63
799.32	228.48
799.64	228.50
799.96	228.45
800.28	228.41
800.60	228.41
800.92	228.35
801.24	228.34
801.56	228.33
801.89	228.29
802.21	228.25
802.53	228.21
802.85	228.25
803.17	228.31
803.49	228.25
803.81	228.23
804.13	228.19
804.45	228.14
804.77	228.14
805.09	228.09
805.41	228.02
805.73	228.00
806.05	227.97
806.37	227.92
806.69	227.90
807.01	227.90
807.33	227.83
807.65	227.79
807.97	227.80
808.28	227.76
808.60	227.73
808.92	227.71
809.24	227.73
809.56	227.68
809.88	227.60
810.20	227.59
810.52	227.61
810.84	227.57
811.16	227.54
811.48	227.48
811.80	227.50
812.12	227.51
812.43	227.49
812.75	227.47
813.07	227.46
813.39	227.46
813.71	227.43
814.03	227.39
814.35	227.38
814.67	227.31
814.98	227.28
815.30	227.29
815.62	227.26
815.94	227.16
816.26	227.18
816.58	227.13
816.89	227.10
817.21	227.03
817.53	227.02
817.85	227.04
818.17	227.01
818.48	226.93
818.80	226.93
819.12	226.91
819.44	226.88
819.76	226.88
820.07	226.86
820.39	226.82
820.71	226.82
821.03	226.81
821.34	226.77
821.66	226.77
821.98	226.76
822.30	226.74
822.61	226.80
822.93	226.73
823.25	226.71
823.57	226.69
823.88	226.69
824.20	226.67
824.52	226.64
824.83	226.60
825.15	226.59
825.47	226.54
825.79	226.53
826.10	226.51
826.42	226.45
826.74	226.45
827.05	226.44
827.37	226.44
827.69	226.43
828.00	226.44
828.32	226.41
828.64	226.37
828.95	226.41
829.27	226.39
829.58	226.39
829.90	226.42
830.22	226.42
830.53	226.36
830.85	226.34
831.17	226.33
831.48	226.34
831.80	226.37
832.11	226.36
832.43	226.38
832.75	226.37
833.06	226.42
833.38	226.41
833.69	226.40
834.01	226.37
834.32	226.36
834.64	226.38
834.96	226.36
835.27	226.39
835.59	226.33
835.90	226.29
836.22	226.23
836.53	226.18
836.85	226.16
837.16	226.27
837.48	226.29
837.79	226.33
838.11	226.31
838.42	226.29
838.74	226.30
839.05	226.25
839.37	226.21
839.68	226.12
840.00	226.07
840.31	226.07
840.63	226.05
840.94	226.01
841.26	225.95
841.57	225.94
841.88	225.91
842.20	225.91
842.51	225.92
842.83	225.95
843.14	226.06
843.46	226.07
843.77	225.98
844.08	225.97
844.40	225.93
844.71	225.94
845.03	225.90
845.34	225.89
845.65	225.90
845.97	225.92
846.28	225.96
846.60	225.98
846.91	225.97
847.22	225.98
847.54	226.00
847.85	226.02
848.16	226.03
848.48	226.01
848.79	226.06
849.10	226.05
849.42	226.03
849.73	225.92
850.04	225.89
850.36	225.85
850.67	225.82
850.98	225.79
851.30	225.77
851.61	225.76
851.92	225.73
852.23	225.74
852.55	225.73
852.86	225.72
853.17	225.71
853.49	225.72
853.80	225.73
854.11	225.72
854.42	225.72
854.74	225.68
855.05	225.70
855.36	225.63
855.67	225.62
855.99	225.61
856.30	225.74
856.61	225.75
856.92	225.78
857.23	225.81
857.55	225.82
857.86	225.78
858.17	225.78
858.48	225.77
858.79	225.76
859.11	225.76
859.42	225.75
859.73	225.72
860.04	225.70
860.35	225.67
860.66	225.65
860.98	225.64
861.29	225.67
861.60	225.63
861.91	225.66
862.22	225.65
862.53	225.65
862.84	225.52
863.16	225.52
863.47	225.50
863.78	225.47
864.09	225.45
864.40	225.48
864.71	225.48
865.02	225.47
865.33	225.45
865.64	225.43
865.95	225.42
866.27	225.50
866.58	225.49
866.89	225.47
867.20	225.45
867.51	225.42
867.82	225.42
868.13	225.45
868.44	225.44
868.75	225.43
869.06	225.41
869.37	225.40
869.68	225.38
869.99	225.38
870.30	225.36
870.61	225.40
870.92	225.38
871.23	225.35
871.54	225.39
871.85	225.40
872.16	225.42
872.47	225.41
872.78	225.34
873.09	225.33
873.40	225.30
873.71	225.32
874.02	225.31
874.33	225.29
874.64	225.27
874.95	225.25
875.26	225.23
875.56	225.25
875.87	225.23
876.18	225.23
876.49	225.33
876.80	225.35
877.11	225.29
877.42	225.25
877.73	225.28
878.04	225.26
878.35	225.25
878.66	225.25
878.96	225.24
879.27	225.23
879.58	225.26
879.89	225.28
880.20	225.31
880.51	225.31
880.82	225.29
881.12	225.29
881.43	225.30
881.74	225.27
882.05	225.25
882.36	225.27
882.67	225.28
882.97	225.18
883.28	225.16
883.59	225.19
883.90	225.22
884.21	225.24
884.51	225.22
884.82	225.21
885.13	225.20
885.44	225.21
885.74	225.24
886.05	225.22
886.36	225.21
886.67	225.16
886.98	225.23
887.28	225.21
887.59	225.21
887.90	225.17
888.20	225.18
888.51	225.20
888.82	225.16
889.13	225.15
889.43	225.20
889.74	225.19
890.05	225.18
890.35	225.15
890.66	225.12
890.97	225.10
891.28	225.08
891.58	225.06
891.89	225.04
892.20	224.99
892.50	224.97
892.81	225.00
893.12	224.97
893.42	224.90
893.73	224.95
894.04	224.96
894.34	224.99
894.65	224.96
894.95	224.95
895.26	224.99
895.57	225.04
895.87	224.95
896.18	224.98
896.48	225.04
896.79	225.07
897.10	225.09
897.40	225.11
897.71	225.11
898.01	225.11
898.32	225.13
898.63	225.14
898.93	225.16
899.24	225.12
899.54	225.16
899.85	225.18
900.15	225.17
900.46	225.12
900.76	225.15
901.07	225.18
901.38	225.18
901.68	225.17
901.99	225.10
902.29	225.11
902.60	225.09
902.90	225.01
903.21	224.98
903.51	224.96
903.82	224.95
904.12	224.97
904.43	224.97
904.73	224.95
905.03	224.96
905.34	225.06
905.64	225.08
905.95	225.06
906.25	225.01
906.56	225.01
906.86	225.03
907.17	224.99
907.47	224.98
907.77	224.93
908.08	224.91
908.38	224.95
908.69	224.95
908.99	224.95
909.30	225.01
909.60	225.05
909.90	225.08
910.21	225.05
910.51	225.02
910.81	225.05
911.12	225.05
911.42	225.05
911.73	224.92
912.03	224.93
912.33	224.97
912.64	224.98
912.94	224.95
913.24	224.96
913.55	224.96
913.85	224.96
914.15	225.02
914.46	225.04
914.76	225.00
915.06	225.02
915.37	224.99
915.67	224.95
915.97	224.89
916.27	224.84
916.58	224.86
916.88	224.87
917.18	224.85
917.49	224.91
917.79	224.89
918.09	224.90
918.39	224.91
918.70	224.88
919.00	224.91
919.30	224.97
919.60	224.94
919.91	224.93
920.21	224.95
920.51	224.91
920.81	224.92
921.12	224.95
921.42	224.95
921.72	224.96
922.02	224.97
922.32	225.05
922.63	225.06
922.93	225.11
923.23	225.14
923.53	225.10
923.83	225.03
924.13	225.08
924.44	225.09
924.74	225.10
925.04	225.13
925.34	225.13
925.64	225.08
925.94	225.09
926.24	225.14
926.55	225.13
926.85	225.13
927.15	225.11
927.45	225.11
927.75	225.10
928.05	225.09
928.35	225.09
928.65	225.09
928.95	225.11
929.26	225.10
929.56	225.08
929.86	225.13
930.16	225.16
930.46	225.15
930.76	225.15
931.06	225.13
931.36	225.10
931.66	225.11
931.96	225.14
932.26	225.16
932.56	225.13
932.86	225.15
933.16	225.15
933.46	225.13
933.76	225.10
934.06	225.14
934.36	225.20
934.66	225.21
934.96	225.18
935.26	225.20
935.56	225.21
935.86	225.23
936.16	225.19
936.46	225.17
936.76	225.15
937.06	225.15
937.36	225.15
937.66	225.20
937.96	225.18
938.26	225.14
938.56	225.15
938.86	225.12
939.16	225.13
939.46	225.17
939.76	225.21
940.06	225.24
940.35	225.20
940.65	225.16
940.95	225.15
941.25	225.14
941.55	225.10
941.85	225.08
942.15	225.08
942.45	225.14
942.75	225.13
943.04	225.14
943.34	225.14
943.64	225.15
943.94	225.12
944.24	225.12
944.54	225.14
944.84	225.12
945.13	225.14
945.43	225.10
945.73	225.11
946.03	225.10
946.33	225.12
946.62	225.11
946.92	225.11
947.22	225.12
947.52	225.12
947.82	225.14
948.11	225.12
948.41	225.10
948.71	225.05
949.01	225.07
949.31	225.06
949.60	225.04
949.90	225.06
950.20	225.02
950.50	225.02
950.79	225.01
951.09	225.01
951.39	224.99
951.69	225.03
951.98	224.98
952.28	224.98
952.58	224.92
952.87	224.92
953.17	224.91
953.47	224.86
953.76	224.83
954.06	224.80
954.36	224.78
954.66	224.75
954.95	224.78
955.25	224.75
955.55	224.73
955.84	224.71
956.14	224.70
956.44	224.72
956.73	224.69
957.03	224.69
957.32	224.69
957.62	224.70
957.92	224.66
958.21	224.68
958.51	224.77
958.81	224.79
959.10	224.81
959.40	224.85
959.69	224.87
959.99	224.91
960.29	224.89
960.58	224.87
960.88	224.93
961.17	224.91
961.47	224.90
961.76	224.91
962.06	224.94
962.36	224.93
962.65	224.95
962.95	224.97
963.24	224.95
963.54	224.93
963.83	224.95
964.13	224.97
964.42	224.93
964.72	224.86
965.01	224.85
965.31	224.84
965.60	224.80
965.90	224.87
966.19	224.83
966.49	224.86
966.78	224.87
967.08	224.84
967.37	224.85
967.67	224.86
967.96	224.88
968.26	224.83
968.55	224.83
968.85	224.80
969.14	224.79
969.43	224.82
969.73	224.82
970.02	224.81
970.32	224.80
970.61	224.81
970.91	224.79
971.20	224.78
971.49	224.76
971.79	224.80
972.08	224.71
972.38	224.75
972.67	224.78
972.96	224.82
973.26	224.83
973.55	224.88
973.85	224.89
974.14	224.87
974.43	224.92
974.73	224.92
975.02	224.94
975.31	224.96
975.61	224.97
975.90	224.98
976.19	224.98
976.49	224.99
976.78	224.99
977.07	224.99
977.37	225.01
977.66	225.02
977.95	225.01
978.24	225.03
978.54	225.03
978.83	224.99
979.12	224.96
979.42	224.95
979.71	224.90
980.00	224.89
980.29	224.90
980.59	224.89
980.88	224.95
981.17	224.93
981.46	224.91
981.76	224.91
982.05	224.92
982.34	224.91
982.63	224.88
982.93	224.89
983.22	224.90
983.51	224.89
983.80	224.92
984.09	224.90
984.39	224.90
984.68	224.90
984.97	224.90
985.26	224.90
985.55	224.90
985.85	224.88
986.14	224.89
986.43	224.91
986.72	224.89
987.01	224.82
987.30	224.81
987.59	224.84
987.89	224.83
988.18	224.82
988.47	224.82
988.76	224.81
989.05	224.80
989.34	224.79
989.63	224.83
989.92	224.79
990.22	224.76
990.51	224.79
990.80	224.75
991.09	224.76
991.38	224.77
991.67	224.78
991.96	224.75
992.25	224.77
992.54	224.74
992.83	224.73
993.12	224.71
993.41	224.73
993.70	224.74
993.99	224.78
994.28	224.79
994.58	224.80
994.87	224.80
995.16	224.80
995.45	224.78
995.74	224.77
996.03	224.77
996.32	224.81
996.61	224.77
996.90	224.77
997.19	224.80
997.48	224.81
997.77	224.78
998.06	224.81
998.34	224.83
998.63	224.84
998.92	224.84
999.21	224.87
999.50	224.85
999.79	224.79
1000.08	224.73
1000.37	224.75
1000.66	224.73
1000.95	224.75
1001.24	224.73
1001.53	224.73
1001.82	224.67
1002.11	224.65
1002.40	224.64
1002.68	224.70
1002.97	224.79
1003.26	224.76
1003.55	224.76
1003.84	224.77
1004.13	224.78
1004.42	224.72
1004.71	224.68
1004.99	224.68
1005.28	224.68
1005.57	224.69
1005.86	224.67
1006.15	224.68
1006.44	224.63
1006.72	224.64
1007.01	224.65
1007.30	224.65
1007.59	224.64
1007.88	224.67
1008.17	224.69
1008.45	224.68
1008.74	224.62
1009.03	224.56
1009.32	224.55
1009.60	224.54
1009.89	224.55
1010.18	224.51
1010.47	224.51
1010.76	224.54
1011.04	224.55
1011.33	224.58
1011.62	224.58
1011.91	224.64
1012.19	224.62
1012.48	224.60
1012.77	224.62
1013.05	224.63
1013.34	224.67
1013.63	224.68
1013.92	224.67
1014.20	224.64
1014.49	224.65
1014.78	224.66
1015.06	224.59
1015.35	224.61
1015.64	224.61
1015.92	224.63
1016.21	224.68
1016.50	224.70
1016.78	224.70
1017.07	224.68
1017.36	224.63
1017.64	224.60
1017.93	224.59
1018.22	224.61
1018.50	224.65
1018.79	224.63
1019.08	224.59
1019.36	224.55
1019.65	224.57
1019.93	224.59
1020.22	224.59
1020.51	224.63
1020.79	224.63
1021.08	224.49
1021.36	225.04
1021.65	224.39
1021.94	224.37
1022.22	224.21
1022.51	224.89
1022.79	224.70
1023.08	224.33
1023.36	225.69
1023.65	224.60
>>>>>End Processed Spectral Data<<<<<
