SpectraSuite Data File
++++++++++++++++++++++++++++++++++++
Date: Fri Feb 01 15:51:58 EST 2013
User: group
Dark Spectrum Present: No
Reference Spectrum Present: No
Number of Sampled Component Spectra: 1
Spectrometers: USB2E7196
Integration Time (usec): 35000 (USB2E7196)
Spectra Averaged: 100 (USB2E7196)
Boxcar Smoothing: 10 (USB2E7196)
Correct for Electrical Dark: No (USB2E7196)
Strobe/Lamp Enabled: No (USB2E7196)
Correct for Detector Non-linearity: No (USB2E7196)
Correct for Stray Light: No (USB2E7196)
Number of Pixels in Processed Spectrum: 2048
>>>>>Begin Processed Spectral Data<<<<<
339.09	0.00
339.48	215.67
339.86	216.33
340.24	217.65
340.63	219.30
341.01	221.62
341.39	221.65
341.78	223.45
342.16	224.58
342.54	224.63
342.93	213.29
343.31	224.06
343.69	224.55
344.07	225.00
344.46	225.41
344.84	225.79
345.22	226.04
345.60	226.31
345.99	226.50
346.37	226.64
346.75	226.75
347.13	226.81
347.52	226.86
347.90	226.91
348.28	226.94
348.66	226.95
349.05	226.92
349.43	226.95
349.81	226.97
350.19	226.97
350.57	227.00
350.96	227.09
351.34	227.18
351.72	227.26
352.10	227.38
352.48	227.46
352.87	227.49
353.25	227.56
353.63	227.60
354.01	227.64
354.39	227.68
354.77	227.75
355.15	227.86
355.54	227.90
355.92	227.93
356.30	228.03
356.68	228.18
357.06	228.27
357.44	228.32
357.82	228.40
358.20	228.47
358.58	228.54
358.97	228.60
359.35	228.71
359.73	228.77
360.11	228.83
360.49	228.89
360.87	228.96
361.25	229.01
361.63	229.06
362.01	229.12
362.39	229.14
362.77	229.17
363.15	229.19
363.53	229.24
363.91	229.28
364.29	229.26
364.67	229.20
365.05	229.24
365.43	229.28
365.81	229.29
366.19	229.37
366.57	229.42
366.95	229.39
367.33	229.35
367.71	229.32
368.09	229.32
368.47	229.29
368.85	229.29
369.23	229.29
369.61	229.27
369.99	229.29
370.37	229.26
370.75	229.31
371.13	229.25
371.51	229.18
371.89	229.16
372.27	229.13
372.65	229.07
373.03	229.04
373.41	228.98
373.78	228.92
374.16	228.80
374.54	228.68
374.92	228.63
375.30	228.56
375.68	228.52
376.06	228.45
376.44	228.37
376.82	228.25
377.19	228.18
377.57	228.08
377.95	227.97
378.33	227.90
378.71	227.75
379.09	227.67
379.47	227.62
379.84	227.53
380.22	227.46
380.60	227.39
380.98	227.26
381.36	227.20
381.73	227.12
382.11	227.08
382.49	227.03
382.87	226.97
383.25	226.91
383.62	226.98
384.00	226.89
384.38	226.87
384.76	226.85
385.13	226.82
385.51	226.80
385.89	226.73
386.27	226.67
386.64	226.65
387.02	226.60
387.40	226.55
387.78	226.51
388.15	226.47
388.53	226.40
388.91	226.37
389.29	226.32
389.66	226.33
390.04	226.26
390.42	226.26
390.79	226.24
391.17	226.22
391.55	226.06
391.92	226.09
392.30	226.05
392.68	226.04
393.05	226.05
393.43	226.03
393.81	226.06
394.18	226.08
394.56	226.10
394.94	226.15
395.31	226.17
395.69	226.22
396.06	226.25
396.44	226.31
396.82	226.34
397.19	226.43
397.57	226.43
397.95	226.53
398.32	226.52
398.70	226.61
399.07	226.64
399.45	226.71
399.82	226.77
400.20	226.84
400.58	226.93
400.95	226.95
401.33	227.05
401.70	227.21
402.08	227.31
402.45	227.41
402.83	227.56
403.20	227.65
403.58	227.73
403.95	227.87
404.33	227.98
404.71	228.13
405.08	228.28
405.46	228.40
405.83	228.54
406.21	228.71
406.58	228.84
406.96	229.02
407.33	229.19
407.70	229.35
408.08	229.61
408.45	229.82
408.83	230.06
409.20	230.26
409.58	230.41
409.95	230.67
410.33	230.92
410.70	231.12
411.08	231.41
411.45	231.74
411.82	232.06
412.20	232.46
412.57	232.85
412.95	233.15
413.32	233.59
413.69	233.98
414.07	234.41
414.44	234.89
414.82	235.41
415.19	235.95
415.56	236.50
415.94	237.04
416.31	237.67
416.68	238.30
417.06	239.01
417.43	239.74
417.81	240.51
418.18	241.29
418.55	242.14
418.93	243.04
419.30	243.92
419.67	244.86
420.04	245.77
420.42	246.79
420.79	247.96
421.16	249.11
421.54	250.31
421.91	251.57
422.28	252.86
422.66	254.18
423.03	255.49
423.40	256.84
423.77	258.26
424.15	259.66
424.52	261.14
424.89	262.75
425.26	264.26
425.64	265.69
426.01	267.30
426.38	268.97
426.75	270.65
427.13	272.37
427.50	274.16
427.87	276.08
428.24	277.94
428.61	279.68
428.99	281.61
429.36	283.69
429.73	285.74
430.10	287.77
430.47	289.81
430.85	291.94
431.22	294.23
431.59	296.63
431.96	298.91
432.33	301.39
432.70	303.77
433.08	306.59
433.45	309.25
433.82	311.82
434.19	314.69
434.56	317.46
434.93	320.15
435.30	322.77
435.68	325.67
436.05	328.48
436.42	331.32
436.79	333.80
437.16	336.51
437.53	339.32
437.90	342.04
438.27	344.83
438.64	347.66
439.01	350.21
439.38	352.43
439.75	354.59
440.13	357.10
440.50	359.43
440.87	361.32
441.24	363.26
441.61	365.40
441.98	366.93
442.35	368.78
442.72	370.67
443.09	372.47
443.46	373.45
443.83	374.03
444.20	374.56
444.57	375.39
444.94	375.71
445.31	376.06
445.68	376.43
446.05	376.46
446.42	376.07
446.79	375.67
447.16	375.20
447.53	374.87
447.90	373.71
448.27	372.55
448.64	370.96
449.01	369.79
449.37	367.82
449.74	365.86
450.11	363.61
450.48	361.07
450.85	358.55
451.22	356.39
451.59	354.40
451.96	352.42
452.33	349.83
452.70	347.44
453.07	344.63
453.43	341.75
453.80	338.98
454.17	336.31
454.54	333.74
454.91	331.05
455.28	328.37
455.65	325.86
456.02	323.41
456.38	321.21
456.75	318.57
457.12	316.32
457.49	314.13
457.86	311.95
458.23	310.10
458.59	308.02
458.96	305.93
459.33	304.04
459.70	302.20
460.07	300.75
460.43	299.00
460.80	297.36
461.17	295.93
461.54	294.49
461.91	293.04
462.27	291.62
462.64	290.39
463.01	289.07
463.38	287.80
463.74	286.47
464.11	285.35
464.48	284.31
464.85	283.23
465.21	282.37
465.58	281.43
465.95	280.36
466.32	279.49
466.68	278.62
467.05	277.75
467.42	276.85
467.78	275.91
468.15	275.08
468.52	274.40
468.88	273.56
469.25	272.79
469.62	272.17
469.98	271.49
470.35	270.85
470.72	270.24
471.08	269.57
471.45	269.01
471.82	268.48
472.18	267.90
472.55	267.47
472.92	266.99
473.28	266.51
473.65	266.05
474.02	265.62
474.38	265.26
474.75	264.95
475.11	264.58
475.48	264.34
475.85	264.13
476.21	263.94
476.58	263.75
476.94	263.59
477.31	263.42
477.67	263.26
478.04	263.13
478.41	263.10
478.77	263.15
479.14	263.06
479.50	263.07
479.87	263.14
480.23	263.23
480.60	263.28
480.96	263.42
481.33	263.66
481.69	263.85
482.06	264.04
482.42	264.25
482.79	264.48
483.15	264.77
483.52	265.11
483.88	265.41
484.25	265.81
484.61	266.23
484.98	266.67
485.34	267.23
485.71	267.83
486.07	268.41
486.44	268.97
486.80	269.68
487.17	270.40
487.53	271.23
487.90	272.06
488.26	272.96
488.62	273.95
488.99	274.89
489.35	275.90
489.72	277.05
490.08	278.20
490.44	279.49
490.81	280.82
491.17	282.17
491.54	283.67
491.90	285.15
492.26	286.77
492.63	288.50
492.99	290.31
493.36	292.19
493.72	294.22
494.08	296.35
494.45	298.61
494.81	300.93
495.17	303.33
495.54	305.88
495.90	308.57
496.26	311.32
496.63	314.27
496.99	317.37
497.35	320.59
497.72	324.00
498.08	327.50
498.44	331.14
498.80	335.12
499.17	339.17
499.53	343.40
499.89	347.77
500.26	352.30
500.62	356.95
500.98	361.91
501.34	366.97
501.71	372.26
502.07	377.72
502.43	383.37
502.79	389.19
503.16	395.31
503.52	401.63
503.88	408.08
504.24	414.70
504.60	421.65
504.97	428.82
505.33	436.18
505.69	443.93
506.05	451.79
506.41	459.66
506.78	467.82
507.14	476.27
507.50	484.97
507.86	494.05
508.22	503.25
508.59	512.46
508.95	522.11
509.31	531.94
509.67	542.12
510.03	552.47
510.39	563.00
510.75	573.76
511.12	584.73
511.48	596.11
511.84	607.69
512.20	619.16
512.56	631.09
512.92	643.31
513.28	655.66
513.64	668.09
514.00	680.81
514.37	693.74
514.73	706.81
515.09	719.95
515.45	733.22
515.81	746.78
516.17	760.76
516.53	774.76
516.89	789.03
517.25	803.06
517.61	817.43
517.97	831.94
518.33	846.41
518.69	861.08
519.05	875.96
519.41	891.09
519.77	906.68
520.13	922.10
520.49	937.43
520.85	952.82
521.21	968.52
521.57	984.76
521.93	1000.53
522.29	1016.90
522.65	1033.10
523.01	1049.28
523.37	1065.37
523.73	1081.57
524.09	1097.65
524.45	1113.85
524.81	1130.64
525.17	1147.40
525.53	1164.24
525.89	1181.08
526.25	1197.92
526.61	1214.30
526.97	1231.03
527.33	1247.44
527.68	1264.09
528.04	1280.58
528.40	1297.23
528.76	1314.26
529.12	1330.84
529.48	1347.74
529.84	1363.70
530.20	1380.29
530.56	1397.28
530.91	1414.63
531.27	1431.33
531.63	1447.86
531.99	1464.44
532.35	1480.25
532.71	1496.18
533.07	1512.39
533.42	1528.23
533.78	1544.22
534.14	1560.44
534.50	1575.66
534.86	1591.50
535.21	1606.72
535.57	1622.47
535.93	1637.83
536.29	1652.51
536.65	1667.61
537.00	1682.39
537.36	1697.67
537.72	1712.12
538.08	1726.60
538.44	1740.35
538.79	1754.11
539.15	1767.87
539.51	1781.62
539.87	1795.99
540.22	1809.69
540.58	1823.41
540.94	1836.72
541.29	1849.49
541.65	1862.26
542.01	1875.52
542.37	1887.77
542.72	1900.18
543.08	1911.95
543.44	1924.26
543.79	1935.55
544.15	1946.43
544.51	1958.04
544.87	1968.99
545.22	1979.83
545.58	1989.96
545.94	1999.66
546.29	2009.58
546.65	2019.22
547.01	2028.46
547.36	2037.06
547.72	2045.54
548.07	2053.44
548.43	2061.63
548.79	2069.90
549.14	2077.31
549.50	2084.53
549.86	2092.24
550.21	2099.48
550.57	2106.62
550.92	2113.35
551.28	2120.42
551.64	2127.55
551.99	2133.94
552.35	2140.09
552.70	2146.14
553.06	2152.08
553.41	2158.39
553.77	2164.45
554.13	2170.66
554.48	2176.79
554.84	2182.33
555.19	2187.60
555.55	2192.75
555.90	2197.15
556.26	2201.95
556.61	2206.80
556.97	2211.19
557.32	2215.26
557.68	2219.30
558.03	2223.81
558.39	2227.47
558.74	2232.16
559.10	2236.00
559.45	2239.74
559.81	2244.10
560.16	2248.08
560.52	2251.21
560.87	2254.82
561.23	2257.47
561.58	2260.40
561.94	2262.82
562.29	2265.14
562.64	2267.77
563.00	2270.31
563.35	2273.89
563.71	2277.01
564.06	2280.15
564.42	2282.94
564.77	2285.56
565.12	2287.83
565.48	2289.56
565.83	2291.42
566.19	2292.55
566.54	2293.41
566.89	2294.55
567.25	2295.21
567.60	2296.54
567.96	2298.35
568.31	2299.08
568.66	2300.23
569.02	2300.79
569.37	2301.07
569.72	2301.97
570.08	2302.12
570.43	2302.23
570.78	2301.61
571.14	2299.97
571.49	2298.63
571.84	2298.29
572.20	2297.13
572.55	2296.20
572.90	2294.73
573.26	2293.28
573.61	2291.68
573.96	2289.78
574.31	2286.73
574.67	2283.74
575.02	2280.09
575.37	2276.62
575.72	2272.76
576.08	2269.48
576.43	2266.17
576.78	2262.56
577.13	2259.48
577.49	2256.47
577.84	2252.88
578.19	2249.15
578.54	2245.54
578.90	2241.36
579.25	2235.91
579.60	2230.92
579.95	2225.79
580.30	2220.86
580.66	2215.74
581.01	2210.85
581.36	2205.99
581.71	2201.88
582.06	2197.25
582.42	2192.66
582.77	2187.42
583.12	2182.97
583.47	2178.10
583.82	2172.97
584.17	2167.71
584.53	2162.07
584.88	2156.31
585.23	2150.58
585.58	2145.10
585.93	2139.58
586.28	2134.75
586.63	2129.67
586.98	2124.60
587.34	2119.94
587.69	2114.83
588.04	2109.61
588.39	2103.92
588.74	2097.61
589.09	2091.45
589.44	2084.72
589.79	2078.92
590.14	2073.51
590.49	2066.95
590.84	2060.70
591.19	2054.85
591.54	2048.52
591.89	2041.13
592.25	2034.34
592.60	2027.14
592.95	2019.45
593.30	2012.19
593.65	2004.52
594.00	1997.47
594.35	1990.14
594.70	1982.13
595.05	1975.05
595.40	1967.74
595.75	1960.29
596.10	1954.06
596.45	1947.43
596.80	1941.37
597.15	1934.62
597.50	1927.33
597.85	1920.87
598.19	1914.09
598.54	1906.74
598.89	1899.94
599.24	1894.13
599.59	1887.39
599.94	1881.24
600.29	1875.05
600.64	1868.54
600.99	1861.19
601.34	1854.39
601.69	1847.48
602.04	1840.65
602.39	1833.24
602.74	1826.45
603.08	1819.60
603.43	1812.64
603.78	1805.10
604.13	1797.74
604.48	1790.36
604.83	1783.56
605.18	1776.55
605.53	1768.62
605.87	1760.80
606.22	1753.76
606.57	1745.73
606.92	1738.55
607.27	1731.38
607.62	1724.41
607.96	1717.02
608.31	1710.39
608.66	1702.60
609.01	1695.07
609.36	1687.40
609.70	1679.50
610.05	1671.35
610.40	1663.66
610.75	1655.44
611.10	1647.86
611.44	1639.47
611.79	1631.46
612.14	1622.73
612.49	1613.60
612.83	1605.24
613.18	1597.02
613.53	1588.83
613.88	1580.31
614.22	1571.90
614.57	1563.34
614.92	1555.31
615.27	1547.77
615.61	1539.41
615.96	1531.57
616.31	1523.98
616.65	1516.60
617.00	1508.87
617.35	1501.28
617.70	1492.96
618.04	1484.56
618.39	1476.22
618.74	1468.61
619.08	1460.34
619.43	1452.77
619.78	1445.84
620.12	1438.58
620.47	1431.05
620.82	1422.90
621.16	1415.62
621.51	1408.07
621.85	1400.38
622.20	1391.81
622.55	1383.40
622.89	1375.60
623.24	1367.99
623.59	1360.60
623.93	1353.14
624.28	1346.10
624.62	1338.51
624.97	1331.36
625.32	1324.63
625.66	1317.68
626.01	1310.47
626.35	1303.12
626.70	1295.40
627.04	1287.67
627.39	1280.02
627.73	1272.62
628.08	1265.62
628.43	1258.25
628.77	1250.82
629.12	1243.20
629.46	1236.08
629.81	1228.75
630.15	1221.51
630.50	1213.98
630.84	1205.81
631.19	1197.94
631.53	1190.38
631.88	1182.86
632.22	1175.22
632.57	1167.79
632.91	1160.25
633.26	1152.84
633.60	1145.46
633.95	1138.33
634.29	1131.41
634.64	1124.66
634.98	1117.27
635.32	1110.10
635.67	1103.52
636.01	1096.97
636.36	1090.11
636.70	1083.66
637.05	1077.07
637.39	1070.64
637.73	1064.20
638.08	1058.33
638.42	1052.23
638.77	1045.69
639.11	1039.06
639.45	1032.74
639.80	1026.14
640.14	1019.72
640.49	1013.25
640.83	1006.84
641.17	1000.58
641.52	994.14
641.86	987.69
642.20	981.87
642.55	975.62
642.89	969.08
643.23	962.52
643.58	956.80
643.92	950.59
644.26	944.45
644.61	938.36
644.95	932.27
645.29	925.56
645.64	918.79
645.98	912.48
646.32	906.70
646.66	900.57
647.01	894.71
647.35	888.93
647.69	883.02
648.04	877.56
648.38	871.82
648.72	865.83
649.06	859.73
649.41	853.90
649.75	847.93
650.09	842.02
650.43	836.20
650.78	830.06
651.12	824.06
651.46	818.38
651.80	812.59
652.14	807.28
652.49	801.96
652.83	796.84
653.17	791.19
653.51	785.47
653.85	780.10
654.20	774.45
654.54	768.53
654.88	762.86
655.22	756.99
655.56	751.31
655.90	745.89
656.25	740.67
656.59	735.33
656.93	730.27
657.27	725.07
657.61	719.64
657.95	714.62
658.29	709.58
658.64	704.34
658.98	699.14
659.32	693.60
659.66	688.45
660.00	683.15
660.34	678.24
660.68	673.28
661.02	668.29
661.36	663.58
661.70	659.12
662.05	654.76
662.39	650.43
662.73	645.92
663.07	641.49
663.41	637.03
663.75	632.48
664.09	627.88
664.43	623.52
664.77	619.43
665.11	615.10
665.45	610.96
665.79	606.95
666.13	602.75
666.47	598.75
666.81	594.52
667.15	590.42
667.49	586.42
667.83	582.60
668.17	578.64
668.51	574.56
668.85	570.51
669.19	566.69
669.53	562.80
669.87	558.91
670.21	555.20
670.55	551.57
670.89	548.14
671.23	544.78
671.57	541.26
671.91	537.69
672.25	534.33
672.58	530.78
672.92	527.35
673.26	524.21
673.60	521.02
673.94	517.94
674.28	514.98
674.62	512.03
674.96	508.93
675.30	506.03
675.64	503.07
675.97	500.29
676.31	497.36
676.65	494.39
676.99	491.71
677.33	488.82
677.67	485.97
678.01	482.98
678.34	479.95
678.68	477.07
679.02	474.35
679.36	471.50
679.70	468.85
680.04	466.03
680.37	463.16
680.71	460.34
681.05	457.67
681.39	454.94
681.73	452.36
682.06	449.84
682.40	447.25
682.74	444.69
683.08	442.15
683.42	439.58
683.75	437.07
684.09	434.52
684.43	432.07
684.77	429.62
685.10	427.24
685.44	424.92
685.78	422.65
686.12	420.37
686.45	418.09
686.79	415.75
687.13	413.54
687.46	411.40
687.80	409.23
688.14	407.04
688.48	405.00
688.81	402.68
689.15	400.47
689.49	398.34
689.82	396.32
690.16	394.19
690.50	392.22
690.83	390.31
691.17	388.33
691.51	386.45
691.84	384.64
692.18	382.75
692.52	380.79
692.85	378.83
693.19	376.87
693.52	375.05
693.86	373.24
694.20	371.49
694.53	369.64
694.87	367.81
695.21	366.06
695.54	364.26
695.88	362.63
696.21	360.94
696.55	359.26
696.88	357.58
697.22	355.93
697.56	354.36
697.89	352.70
698.23	351.06
698.56	349.43
698.90	347.81
699.23	346.16
699.57	344.60
699.90	343.04
700.24	341.55
700.58	339.99
700.91	338.45
701.25	337.02
701.58	335.72
701.92	334.38
702.25	333.00
702.59	331.64
702.92	330.31
703.26	329.04
703.59	327.82
703.93	326.68
704.26	325.47
704.60	324.15
704.93	322.87
705.26	321.68
705.60	320.52
705.93	319.39
706.27	318.36
706.60	317.29
706.94	316.24
707.27	315.07
707.61	314.03
707.94	313.05
708.27	311.94
708.61	310.85
708.94	309.82
709.28	308.82
709.61	307.82
709.94	306.85
710.28	305.88
710.61	304.87
710.95	303.78
711.28	302.88
711.61	301.93
711.95	301.06
712.28	300.08
712.61	299.09
712.95	298.15
713.28	297.25
713.61	296.39
713.95	295.51
714.28	294.69
714.61	293.81
714.95	292.98
715.28	292.16
715.61	291.28
715.95	290.40
716.28	289.55
716.61	288.72
716.95	287.88
717.28	287.06
717.61	286.29
717.94	285.52
718.28	284.68
718.61	283.93
718.94	283.23
719.27	282.56
719.61	281.94
719.94	281.23
720.27	280.52
720.60	279.85
720.94	279.21
721.27	278.61
721.60	278.04
721.93	277.41
722.27	276.84
722.60	276.26
722.93	275.69
723.26	275.14
723.59	274.58
723.93	274.04
724.26	273.49
724.59	272.95
724.92	272.43
725.25	271.93
725.59	271.41
725.92	270.87
726.25	270.34
726.58	269.80
726.91	269.29
727.24	268.82
727.57	268.36
727.91	267.84
728.24	267.34
728.57	266.82
728.90	266.32
729.23	265.81
729.56	265.39
729.89	264.93
730.22	264.45
730.55	263.97
730.89	263.52
731.22	263.06
731.55	262.60
731.88	262.17
732.21	261.75
732.54	261.32
732.87	260.89
733.20	260.52
733.53	260.16
733.86	259.78
734.19	259.40
734.52	259.01
734.85	258.70
735.18	258.30
735.51	257.97
735.84	257.64
736.17	257.27
736.50	256.86
736.83	256.66
737.16	256.35
737.49	256.02
737.82	255.65
738.15	255.35
738.48	255.04
738.81	254.70
739.14	254.39
739.47	254.06
739.80	253.74
740.13	253.42
740.46	253.07
740.79	252.79
741.12	252.42
741.45	252.12
741.78	251.77
742.11	251.50
742.44	251.14
742.77	250.84
743.10	250.54
743.43	250.27
743.75	249.87
744.08	249.72
744.41	249.44
744.74	249.16
745.07	248.86
745.40	248.62
745.73	248.41
746.06	248.15
746.39	247.92
746.71	247.67
747.04	247.40
747.37	247.16
747.70	246.92
748.03	246.71
748.36	246.49
748.68	246.28
749.01	246.04
749.34	245.84
749.67	245.63
750.00	245.43
750.33	245.27
750.65	245.07
750.98	244.72
751.31	244.53
751.64	244.37
751.97	244.19
752.29	243.98
752.62	243.72
752.95	243.50
753.28	243.32
753.60	243.12
753.93	243.01
754.26	242.80
754.59	242.55
754.91	242.34
755.24	242.10
755.57	241.91
755.90	241.71
756.22	241.55
756.55	241.34
756.88	241.12
757.20	240.87
757.53	240.67
757.86	240.52
758.19	240.34
758.51	240.17
758.84	239.97
759.17	239.76
759.49	239.60
759.82	239.45
760.15	239.28
760.47	239.13
760.80	238.89
761.13	238.76
761.45	238.58
761.78	238.42
762.11	238.29
762.43	238.13
762.76	237.99
763.08	237.81
763.41	237.68
763.74	237.53
764.06	237.42
764.39	237.25
764.71	237.09
765.04	236.90
765.37	236.76
765.69	236.60
766.02	236.49
766.34	236.38
766.67	236.21
767.00	236.09
767.32	236.00
767.65	235.97
767.97	235.84
768.30	235.75
768.62	235.65
768.95	235.51
769.27	235.41
769.60	235.31
769.92	235.21
770.25	235.08
770.57	235.00
770.90	234.88
771.22	234.80
771.55	234.72
771.87	234.66
772.20	234.58
772.52	234.59
772.85	234.63
773.17	234.51
773.50	234.43
773.82	234.30
774.15	234.17
774.47	234.01
774.80	233.94
775.12	233.89
775.45	233.82
775.77	233.77
776.09	233.71
776.42	233.62
776.74	233.59
777.07	233.51
777.39	233.45
777.72	233.35
778.04	233.29
778.36	233.21
778.69	233.15
779.01	233.11
779.33	232.92
779.66	232.75
779.98	232.69
780.31	232.63
780.63	232.60
780.95	232.57
781.28	232.55
781.60	232.50
781.92	232.42
782.25	232.37
782.57	232.30
782.89	232.24
783.22	232.19
783.54	232.09
783.86	232.06
784.19	232.01
784.51	232.04
784.83	231.97
785.16	231.92
785.48	231.88
785.80	231.77
786.12	231.81
786.45	231.76
786.77	231.77
787.09	231.77
787.42	231.71
787.74	231.67
788.06	231.63
788.38	231.60
788.71	231.57
789.03	231.51
789.35	231.49
789.67	231.44
789.99	231.42
790.32	231.38
790.64	231.33
790.96	231.34
791.28	231.23
791.61	231.20
791.93	231.18
792.25	231.11
792.57	231.18
792.89	231.10
793.21	231.06
793.54	231.00
793.86	230.92
794.18	230.92
794.50	230.84
794.82	230.81
795.14	230.73
795.47	230.69
795.79	230.67
796.11	230.62
796.43	230.56
796.75	230.54
797.07	230.54
797.39	230.50
797.71	230.45
798.04	230.43
798.36	230.45
798.68	230.39
799.00	230.41
799.32	230.33
799.64	230.30
799.96	230.26
800.28	230.26
800.60	230.22
800.92	230.17
801.24	230.15
801.56	230.10
801.89	230.08
802.21	230.05
802.53	230.01
802.85	229.98
803.17	230.01
803.49	229.96
803.81	229.92
804.13	229.89
804.45	229.80
804.77	229.80
805.09	229.74
805.41	229.68
805.73	229.63
806.05	229.56
806.37	229.56
806.69	229.50
807.01	229.46
807.33	229.43
807.65	229.38
807.97	229.42
808.28	229.37
808.60	229.31
808.92	229.30
809.24	229.38
809.56	229.33
809.88	229.28
810.20	229.26
810.52	229.22
810.84	229.18
811.16	229.13
811.48	229.09
811.80	229.10
812.12	229.10
812.43	229.08
812.75	229.08
813.07	229.03
813.39	229.03
813.71	229.00
814.03	228.95
814.35	228.93
814.67	228.87
814.98	228.86
815.30	228.88
815.62	228.84
815.94	228.75
816.26	228.77
816.58	228.71
816.89	228.69
817.21	228.65
817.53	228.66
817.85	228.66
818.17	228.65
818.48	228.60
818.80	228.58
819.12	228.58
819.44	228.55
819.76	228.52
820.07	228.52
820.39	228.50
820.71	228.53
821.03	228.52
821.34	228.47
821.66	228.46
821.98	228.47
822.30	228.41
822.61	228.41
822.93	228.35
823.25	228.36
823.57	228.36
823.88	228.36
824.20	228.32
824.52	228.34
824.83	228.33
825.15	228.30
825.47	228.28
825.79	228.25
826.10	228.21
826.42	228.21
826.74	228.18
827.05	228.13
827.37	228.12
827.69	228.10
828.00	228.14
828.32	228.14
828.64	228.10
828.95	228.18
829.27	228.13
829.58	228.13
829.90	228.12
830.22	228.12
830.53	228.08
830.85	228.09
831.17	228.00
831.48	228.00
831.80	227.99
832.11	227.97
832.43	227.93
832.75	227.93
833.06	227.96
833.38	227.93
833.69	227.91
834.01	227.88
834.32	227.83
834.64	227.77
834.96	227.72
835.27	227.71
835.59	227.66
835.90	227.66
836.22	227.62
836.53	227.57
836.85	227.51
837.16	227.59
837.48	227.58
837.79	227.66
838.11	227.63
838.42	227.63
838.74	227.66
839.05	227.67
839.37	227.71
839.68	227.64
840.00	227.64
840.31	227.69
840.63	227.69
840.94	227.71
841.26	227.70
841.57	227.71
841.88	227.75
842.20	227.73
842.51	227.70
842.83	227.74
843.14	227.86
843.46	227.86
843.77	227.80
844.08	227.77
844.40	227.71
844.71	227.74
845.03	227.71
845.34	227.66
845.65	227.68
845.97	227.63
846.28	227.65
846.60	227.65
846.91	227.62
847.22	227.60
847.54	227.64
847.85	227.66
848.16	227.66
848.48	227.62
848.79	227.62
849.10	227.63
849.42	227.62
849.73	227.51
850.04	227.51
850.36	227.46
850.67	227.46
850.98	227.48
851.30	227.46
851.61	227.48
851.92	227.48
852.23	227.49
852.55	227.48
852.86	227.50
853.17	227.49
853.49	227.51
853.80	227.54
854.11	227.51
854.42	227.49
854.74	227.49
855.05	227.47
855.36	227.45
855.67	227.43
855.99	227.44
856.30	227.54
856.61	227.53
856.92	227.57
857.23	227.58
857.55	227.55
857.86	227.57
858.17	227.57
858.48	227.56
858.79	227.52
859.11	227.51
859.42	227.47
859.73	227.48
860.04	227.45
860.35	227.39
860.66	227.37
860.98	227.37
861.29	227.40
861.60	227.38
861.91	227.38
862.22	227.37
862.53	227.31
862.84	227.18
863.16	227.21
863.47	227.16
863.78	227.16
864.09	227.18
864.40	227.17
864.71	227.15
865.02	227.18
865.33	227.19
865.64	227.14
865.95	227.14
866.27	227.17
866.58	227.17
866.89	227.21
867.20	227.20
867.51	227.19
867.82	227.17
868.13	227.22
868.44	227.22
868.75	227.24
869.06	227.28
869.37	227.33
869.68	227.32
869.99	227.32
870.30	227.34
870.61	227.31
870.92	227.30
871.23	227.26
871.54	227.27
871.85	227.28
872.16	227.31
872.47	227.30
872.78	227.24
873.09	227.26
873.40	227.24
873.71	227.24
874.02	227.24
874.33	227.22
874.64	227.18
874.95	227.20
875.26	227.12
875.56	227.09
875.87	227.09
876.18	227.04
876.49	227.17
876.80	227.14
877.11	227.14
877.42	227.11
877.73	227.15
878.04	227.12
878.35	227.11
878.66	227.12
878.96	227.13
879.27	227.12
879.58	227.12
879.89	227.10
880.20	227.13
880.51	227.11
880.82	227.11
881.12	227.12
881.43	227.11
881.74	227.14
882.05	227.15
882.36	227.14
882.67	227.16
882.97	227.04
883.28	227.03
883.59	227.01
883.90	227.02
884.21	227.02
884.51	227.00
884.82	226.98
885.13	226.98
885.44	226.93
885.74	226.94
886.05	226.93
886.36	226.93
886.67	226.90
886.98	226.93
887.28	226.94
887.59	226.95
887.90	226.92
888.20	226.90
888.51	226.90
888.82	226.92
889.13	226.94
889.43	226.99
889.74	227.02
890.05	227.03
890.35	227.03
890.66	227.00
890.97	226.97
891.28	226.98
891.58	226.95
891.89	226.98
892.20	226.94
892.50	226.95
892.81	226.91
893.12	226.91
893.42	226.88
893.73	226.85
894.04	226.83
894.34	226.88
894.65	226.88
894.95	226.86
895.26	226.82
895.57	226.87
895.87	226.80
896.18	226.79
896.48	226.78
896.79	226.75
897.10	226.77
897.40	226.79
897.71	226.83
898.01	226.83
898.32	226.90
898.63	226.93
898.93	226.93
899.24	226.96
899.54	226.96
899.85	226.98
900.15	227.00
900.46	226.99
900.76	226.97
901.07	226.98
901.38	227.01
901.68	227.04
901.99	226.98
902.29	227.01
902.60	227.00
902.90	227.01
903.21	227.07
903.51	227.09
903.82	227.15
904.12	227.13
904.43	227.13
904.73	227.07
905.03	227.08
905.34	227.18
905.64	227.20
905.95	227.21
906.25	227.17
906.56	227.18
906.86	227.18
907.17	227.18
907.47	227.17
907.77	227.15
908.08	227.12
908.38	227.14
908.69	227.13
908.99	227.14
909.30	227.14
909.60	227.11
909.90	227.09
910.21	227.01
910.51	227.02
910.81	227.04
911.12	227.05
911.42	227.02
911.73	226.90
912.03	226.88
912.33	226.88
912.64	226.89
912.94	226.87
913.24	226.87
913.55	226.85
913.85	226.86
914.15	226.90
914.46	226.92
914.76	226.91
915.06	226.89
915.37	226.88
915.67	226.87
915.97	226.87
916.27	226.87
916.58	226.89
916.88	226.86
917.18	226.86
917.49	226.90
917.79	226.92
918.09	226.91
918.39	226.93
918.70	226.93
919.00	226.91
919.30	226.94
919.60	226.93
919.91	226.90
920.21	226.86
920.51	226.85
920.81	226.86
921.12	226.85
921.42	226.85
921.72	226.83
922.02	226.83
922.32	226.86
922.63	226.81
922.93	226.85
923.23	226.83
923.53	226.79
923.83	226.73
924.13	226.74
924.44	226.77
924.74	226.79
925.04	226.82
925.34	226.83
925.64	226.81
925.94	226.84
926.24	226.89
926.55	226.92
926.85	226.89
927.15	226.87
927.45	226.90
927.75	226.91
928.05	226.91
928.35	226.89
928.65	226.89
928.95	226.94
929.26	226.92
929.56	226.99
929.86	227.01
930.16	227.06
930.46	227.05
930.76	227.03
931.06	226.97
931.36	226.96
931.66	226.99
931.96	226.99
932.26	226.97
932.56	226.95
932.86	226.93
933.16	226.95
933.46	226.94
933.76	226.90
934.06	226.93
934.36	226.97
934.66	226.99
934.96	226.96
935.26	226.98
935.56	226.98
935.86	226.90
936.16	226.87
936.46	226.81
936.76	226.78
937.06	226.77
937.36	226.78
937.66	226.80
937.96	226.77
938.26	226.76
938.56	226.76
938.86	226.78
939.16	226.82
939.46	226.82
939.76	226.83
940.06	226.85
940.35	226.81
940.65	226.77
940.95	226.82
941.25	226.79
941.55	226.77
941.85	226.75
942.15	226.80
942.45	226.83
942.75	226.85
943.04	226.85
943.34	226.87
943.64	226.89
943.94	226.82
944.24	226.84
944.54	226.85
944.84	226.87
945.13	226.83
945.43	226.83
945.73	226.82
946.03	226.82
946.33	226.79
946.62	226.80
946.92	226.79
947.22	226.75
947.52	226.76
947.82	226.76
948.11	226.78
948.41	226.77
948.71	226.76
949.01	226.74
949.31	226.75
949.60	226.76
949.90	226.74
950.20	226.72
950.50	226.71
950.79	226.71
951.09	226.70
951.39	226.71
951.69	226.70
951.98	226.72
952.28	226.74
952.58	226.75
952.87	226.73
953.17	226.75
953.47	226.75
953.76	226.76
954.06	226.72
954.36	226.69
954.66	226.66
954.95	226.67
955.25	226.70
955.55	226.72
955.84	226.69
956.14	226.71
956.44	226.73
956.73	226.74
957.03	226.75
957.32	226.75
957.62	226.76
957.92	226.76
958.21	226.76
958.51	226.84
958.81	226.84
959.10	226.85
959.40	226.87
959.69	226.86
959.99	226.87
960.29	226.91
960.58	226.92
960.88	226.96
961.17	226.99
961.47	227.01
961.76	227.01
962.06	227.04
962.36	227.05
962.65	227.05
962.95	227.03
963.24	227.01
963.54	227.02
963.83	227.03
964.13	227.01
964.42	226.98
964.72	226.93
965.01	226.96
965.31	226.95
965.60	226.95
965.90	227.01
966.19	226.98
966.49	226.98
966.78	226.96
967.08	226.97
967.37	226.92
967.67	226.89
967.96	226.89
968.26	226.86
968.55	226.88
968.85	226.90
969.14	226.89
969.43	226.89
969.73	226.82
970.02	226.82
970.32	226.82
970.61	226.80
970.91	226.74
971.20	226.70
971.49	226.72
971.79	226.72
972.08	226.64
972.38	226.66
972.67	226.65
972.96	226.68
973.26	226.64
973.55	226.67
973.85	226.64
974.14	226.64
974.43	226.65
974.73	226.58
975.02	226.59
975.31	226.64
975.61	226.63
975.90	226.68
976.19	226.66
976.49	226.67
976.78	226.71
977.07	226.73
977.37	226.75
977.66	226.74
977.95	226.73
978.24	226.73
978.54	226.75
978.83	226.76
979.12	226.74
979.42	226.77
979.71	226.76
980.00	226.77
980.29	226.77
980.59	226.73
980.88	226.78
981.17	226.76
981.46	226.73
981.76	226.71
982.05	226.72
982.34	226.74
982.63	226.75
982.93	226.74
983.22	226.76
983.51	226.74
983.80	226.74
984.09	226.77
984.39	226.76
984.68	226.74
984.97	226.72
985.26	226.72
985.55	226.70
985.85	226.68
986.14	226.72
986.43	226.73
986.72	226.75
987.01	226.71
987.30	226.71
987.59	226.73
987.89	226.75
988.18	226.74
988.47	226.71
988.76	226.70
989.05	226.67
989.34	226.65
989.63	226.67
989.92	226.67
990.22	226.62
990.51	226.64
990.80	226.64
991.09	226.65
991.38	226.66
991.67	226.67
991.96	226.68
992.25	226.68
992.54	226.66
992.83	226.64
993.12	226.62
993.41	226.62
993.70	226.60
993.99	226.62
994.28	226.63
994.58	226.60
994.87	226.60
995.16	226.62
995.45	226.61
995.74	226.58
996.03	226.59
996.32	226.64
996.61	226.65
996.90	226.64
997.19	226.62
997.48	226.58
997.77	226.57
998.06	226.56
998.34	226.51
998.63	226.50
998.92	226.52
999.21	226.58
999.50	226.57
999.79	226.56
1000.08	226.52
1000.37	226.54
1000.66	226.53
1000.95	226.55
1001.24	226.54
1001.53	226.57
1001.82	226.59
1002.11	226.57
1002.40	226.56
1002.68	226.57
1002.97	226.67
1003.26	226.63
1003.55	226.65
1003.84	226.65
1004.13	226.67
1004.42	226.71
1004.71	226.72
1004.99	226.73
1005.28	226.72
1005.57	226.74
1005.86	226.76
1006.15	226.80
1006.44	226.77
1006.72	226.80
1007.01	226.78
1007.30	226.79
1007.59	226.79
1007.88	226.79
1008.17	226.77
1008.45	226.76
1008.74	226.74
1009.03	226.67
1009.32	226.70
1009.60	226.67
1009.89	226.68
1010.18	226.64
1010.47	226.63
1010.76	226.66
1011.04	226.65
1011.33	226.69
1011.62	226.70
1011.91	226.66
1012.19	226.67
1012.48	226.68
1012.77	226.68
1013.05	226.74
1013.34	226.73
1013.63	226.73
1013.92	226.75
1014.20	226.76
1014.49	226.78
1014.78	226.81
1015.06	226.78
1015.35	226.79
1015.64	226.85
1015.92	226.88
1016.21	226.91
1016.50	226.89
1016.78	226.89
1017.07	226.91
1017.36	226.85
1017.64	226.82
1017.93	226.87
1018.22	226.83
1018.50	226.82
1018.79	226.84
1019.08	226.78
1019.36	226.78
1019.65	226.74
1019.93	226.73
1020.22	226.75
1020.51	226.77
1020.79	226.74
1021.08	226.29
1021.36	226.44
1021.65	226.84
1021.94	226.53
1022.22	226.60
1022.51	226.35
1022.79	227.00
1023.08	226.56
1023.36	227.69
1023.65	226.37
>>>>>End Processed Spectral Data<<<<<
