SpectraSuite Data File
++++++++++++++++++++++++++++++++++++
Date: Fri Feb 01 15:03:09 EST 2013
User: group
Dark Spectrum Present: No
Reference Spectrum Present: No
Number of Sampled Component Spectra: 1
Spectrometers: USB2E7196
Integration Time (usec): 35000 (USB2E7196)
Spectra Averaged: 100 (USB2E7196)
Boxcar Smoothing: 10 (USB2E7196)
Correct for Electrical Dark: No (USB2E7196)
Strobe/Lamp Enabled: No (USB2E7196)
Correct for Detector Non-linearity: No (USB2E7196)
Correct for Stray Light: No (USB2E7196)
Number of Pixels in Processed Spectrum: 2048
>>>>>Begin Processed Spectral Data<<<<<
339.09	0.00
339.48	215.14
339.86	217.33
340.24	217.99
340.63	219.81
341.01	222.30
341.39	222.41
341.78	223.60
342.16	224.77
342.54	224.97
342.93	213.60
343.31	224.39
343.69	224.93
344.07	225.35
344.46	225.78
344.84	226.12
345.22	226.35
345.60	226.59
345.99	226.76
346.37	226.87
346.75	226.99
347.13	227.02
347.52	227.04
347.90	227.13
348.28	227.15
348.66	227.20
349.05	227.21
349.43	227.23
349.81	227.24
350.19	227.25
350.57	227.33
350.96	227.41
351.34	227.48
351.72	227.56
352.10	227.67
352.48	227.72
352.87	227.79
353.25	227.86
353.63	227.91
354.01	227.98
354.39	228.07
354.77	228.16
355.15	228.26
355.54	228.35
355.92	228.41
356.30	228.46
356.68	228.58
357.06	228.64
357.44	228.70
357.82	228.75
358.20	228.79
358.58	228.82
358.97	228.88
359.35	228.93
359.73	228.98
360.11	228.99
360.49	229.05
360.87	229.08
361.25	229.10
361.63	229.19
362.01	229.22
362.39	229.23
362.77	229.23
363.15	229.24
363.53	229.23
363.91	229.22
364.29	229.24
364.67	229.13
365.05	229.11
365.43	229.13
365.81	229.15
366.19	229.19
366.57	229.22
366.95	229.22
367.33	229.22
367.71	229.22
368.09	229.25
368.47	229.22
368.85	229.19
369.23	229.18
369.61	229.10
369.99	229.11
370.37	229.07
370.75	229.05
371.13	229.00
371.51	228.94
371.89	228.92
372.27	228.87
372.65	228.84
373.03	228.81
373.41	228.72
373.78	228.65
374.16	228.55
374.54	228.49
374.92	228.37
375.30	228.30
375.68	228.18
376.06	228.10
376.44	228.05
376.82	227.96
377.19	227.89
377.57	227.82
377.95	227.72
378.33	227.62
378.71	227.50
379.09	227.45
379.47	227.40
379.84	227.30
380.22	227.20
380.60	227.10
380.98	227.02
381.36	226.95
381.73	226.88
382.11	226.84
382.49	226.75
382.87	226.67
383.25	226.62
383.62	226.70
384.00	226.59
384.38	226.53
384.76	226.54
385.13	226.52
385.51	226.48
385.89	226.42
386.27	226.39
386.64	226.34
387.02	226.28
387.40	226.23
387.78	226.21
388.15	226.19
388.53	226.20
388.91	226.19
389.29	226.17
389.66	226.16
390.04	226.12
390.42	226.11
390.79	226.12
391.17	226.11
391.55	225.99
391.92	226.03
392.30	226.04
392.68	226.00
393.05	225.99
393.43	226.00
393.81	226.02
394.18	226.03
394.56	226.10
394.94	226.14
395.31	226.17
395.69	226.22
396.06	226.29
396.44	226.30
396.82	226.34
397.19	226.46
397.57	226.51
397.95	226.60
398.32	226.64
398.70	226.78
399.07	226.86
399.45	226.95
399.82	227.02
400.20	227.09
400.58	227.22
400.95	227.25
401.33	227.37
401.70	227.56
402.08	227.67
402.45	227.78
402.83	227.92
403.20	228.05
403.58	228.18
403.95	228.34
404.33	228.51
404.71	228.66
405.08	228.82
405.46	228.96
405.83	229.09
406.21	229.28
406.58	229.41
406.96	229.60
407.33	229.79
407.70	229.97
408.08	230.26
408.45	230.45
408.83	230.75
409.20	230.94
409.58	231.10
409.95	231.40
410.33	231.67
410.70	231.90
411.08	232.20
411.45	232.52
411.82	232.82
412.20	233.16
412.57	233.56
412.95	233.87
413.32	234.29
413.69	234.71
414.07	235.13
414.44	235.60
414.82	236.05
415.19	236.61
415.56	237.15
415.94	237.67
416.31	238.31
416.68	238.89
417.06	239.63
417.43	240.31
417.81	241.03
418.18	241.80
418.55	242.67
418.93	243.55
419.30	244.42
419.67	245.35
420.04	246.28
420.42	247.29
420.79	248.47
421.16	249.63
421.54	250.80
421.91	251.99
422.28	253.23
422.66	254.56
423.03	255.82
423.40	257.15
423.77	258.59
424.15	260.01
424.52	261.52
424.89	263.12
425.26	264.63
425.64	266.08
426.01	267.68
426.38	269.34
426.75	271.00
427.13	272.72
427.50	274.50
427.87	276.41
428.24	278.24
428.61	279.99
428.99	281.92
429.36	284.03
429.73	286.08
430.10	288.09
430.47	290.16
430.85	292.29
431.22	294.60
431.59	297.01
431.96	299.24
432.33	301.71
432.70	304.10
433.08	306.96
433.45	309.63
433.82	312.25
434.19	315.13
434.56	317.96
434.93	320.63
435.30	323.27
435.68	326.18
436.05	329.01
436.42	331.80
436.79	334.35
437.16	337.03
437.53	339.92
437.90	342.77
438.27	345.55
438.64	348.41
439.01	350.98
439.38	353.21
439.75	355.37
440.13	357.90
440.50	360.20
440.87	362.07
441.24	364.02
441.61	366.18
441.98	367.64
442.35	369.44
442.72	371.34
443.09	373.16
443.46	374.16
443.83	374.80
444.20	375.31
444.57	376.19
444.94	376.49
445.31	376.81
445.68	377.15
446.05	377.19
446.42	376.80
446.79	376.40
447.16	375.98
447.53	375.71
447.90	374.52
448.27	373.41
448.64	371.82
449.01	370.66
449.37	368.70
449.74	366.84
450.11	364.58
450.48	362.07
450.85	359.52
451.22	357.35
451.59	355.30
451.96	353.32
452.33	350.68
452.70	348.35
453.07	345.50
453.43	342.59
453.80	339.85
454.17	337.17
454.54	334.61
454.91	331.84
455.28	329.18
455.65	326.72
456.02	324.24
456.38	322.11
456.75	319.44
457.12	317.20
457.49	314.97
457.86	312.85
458.23	310.98
458.59	308.93
458.96	306.87
459.33	305.03
459.70	303.20
460.07	301.69
460.43	299.95
460.80	298.36
461.17	296.97
461.54	295.46
461.91	293.99
462.27	292.53
462.64	291.25
463.01	289.85
463.38	288.55
463.74	287.16
464.11	285.95
464.48	284.93
464.85	283.77
465.21	282.91
465.58	281.94
465.95	280.83
466.32	279.93
466.68	279.00
467.05	278.10
467.42	277.19
467.78	276.22
468.15	275.35
468.52	274.63
468.88	273.71
469.25	272.94
469.62	272.35
469.98	271.67
470.35	271.05
470.72	270.44
471.08	269.77
471.45	269.22
471.82	268.67
472.18	268.03
472.55	267.57
472.92	267.02
473.28	266.54
473.65	266.05
474.02	265.56
474.38	265.19
474.75	264.76
475.11	264.43
475.48	264.16
475.85	263.90
476.21	263.66
476.58	263.43
476.94	263.28
477.31	263.05
477.67	262.87
478.04	262.74
478.41	262.65
478.77	262.66
479.14	262.60
479.50	262.58
479.87	262.67
480.23	262.74
480.60	262.77
480.96	262.83
481.33	263.04
481.69	263.28
482.06	263.43
482.42	263.69
482.79	263.87
483.15	264.19
483.52	264.57
483.88	264.92
484.25	265.34
484.61	265.74
484.98	266.23
485.34	266.78
485.71	267.38
486.07	268.02
486.44	268.61
486.80	269.32
487.17	270.07
487.53	270.89
487.90	271.76
488.26	272.75
488.62	273.78
488.99	274.78
489.35	275.79
489.72	276.93
490.08	278.13
490.44	279.45
490.81	280.79
491.17	282.16
491.54	283.65
491.90	285.18
492.26	286.82
492.63	288.53
492.99	290.36
493.36	292.23
493.72	294.24
494.08	296.28
494.45	298.50
494.81	300.81
495.17	303.22
495.54	305.76
495.90	308.40
496.26	311.15
496.63	314.07
496.99	317.21
497.35	320.45
497.72	323.83
498.08	327.31
498.44	330.97
498.80	334.89
499.17	338.86
499.53	343.04
499.89	347.41
500.26	351.88
500.62	356.47
500.98	361.42
501.34	366.51
501.71	371.85
502.07	377.30
502.43	382.93
502.79	388.77
503.16	394.84
503.52	401.09
503.88	407.48
504.24	414.16
504.60	421.01
504.97	428.15
505.33	435.44
505.69	443.15
506.05	450.91
506.41	458.72
506.78	466.89
507.14	475.27
507.50	483.98
507.86	492.95
508.22	502.14
508.59	511.34
508.95	520.89
509.31	530.61
509.67	540.71
510.03	550.92
510.39	561.43
510.75	572.24
511.12	583.16
511.48	594.44
511.84	605.84
512.20	617.32
512.56	629.26
512.92	641.49
513.28	653.82
513.64	666.23
514.00	678.96
514.37	691.82
514.73	704.88
515.09	717.94
515.45	731.29
515.81	744.87
516.17	758.84
516.53	772.94
516.89	787.18
517.25	801.41
517.61	815.93
517.97	830.32
518.33	844.74
518.69	859.57
519.05	874.61
519.41	889.77
519.77	905.32
520.13	920.80
520.49	936.17
520.85	951.66
521.21	967.56
521.57	983.72
521.93	999.66
522.29	1016.17
522.65	1032.42
523.01	1048.61
523.37	1064.77
523.73	1080.99
524.09	1097.12
524.45	1113.49
524.81	1130.13
525.17	1147.01
525.53	1164.11
525.89	1180.97
526.25	1197.77
526.61	1214.26
526.97	1231.13
527.33	1247.67
527.68	1264.36
528.04	1280.85
528.40	1297.54
528.76	1314.67
529.12	1331.45
529.48	1348.32
529.84	1364.46
530.20	1381.21
530.56	1398.40
530.91	1415.88
531.27	1432.66
531.63	1449.26
531.99	1466.02
532.35	1481.99
532.71	1497.95
533.07	1514.24
533.42	1530.34
533.78	1546.44
534.14	1562.78
534.50	1578.14
534.86	1594.08
535.21	1609.24
535.57	1625.35
535.93	1640.86
536.29	1655.68
536.65	1670.82
537.00	1685.83
537.36	1701.18
537.72	1715.77
538.08	1730.36
538.44	1744.20
538.79	1758.20
539.15	1772.03
539.51	1785.76
539.87	1800.25
540.22	1814.01
540.58	1827.84
540.94	1841.33
541.29	1854.55
541.65	1867.27
542.01	1880.71
542.37	1893.17
542.72	1905.79
543.08	1917.59
543.44	1930.05
543.79	1941.33
544.15	1952.38
544.51	1963.88
544.87	1974.89
545.22	1985.71
545.58	1995.92
545.94	2005.83
546.29	2015.67
546.65	2025.47
547.01	2034.76
547.36	2043.54
547.72	2052.08
548.07	2059.96
548.43	2068.13
548.79	2075.97
549.14	2083.59
549.50	2090.91
549.86	2098.60
550.21	2105.81
550.57	2112.99
550.92	2119.44
551.28	2126.56
551.64	2133.62
551.99	2140.25
552.35	2146.43
552.70	2152.52
553.06	2158.39
553.41	2164.67
553.77	2170.89
554.13	2176.99
554.48	2183.00
554.84	2188.39
555.19	2193.72
555.55	2198.74
555.90	2203.13
556.26	2208.13
556.61	2212.85
556.97	2216.97
557.32	2221.11
557.68	2225.25
558.03	2229.63
558.39	2233.45
558.74	2237.96
559.10	2241.71
559.45	2245.22
559.81	2249.50
560.16	2253.27
560.52	2256.33
560.87	2259.69
561.23	2262.04
561.58	2265.02
561.94	2267.65
562.29	2270.11
562.64	2272.77
563.00	2275.56
563.35	2279.07
563.71	2282.02
564.06	2285.05
564.42	2287.89
564.77	2290.23
565.12	2292.49
565.48	2294.21
565.83	2295.92
566.19	2297.06
566.54	2298.11
566.89	2299.14
567.25	2299.56
567.60	2300.83
567.96	2302.33
568.31	2303.15
568.66	2304.12
569.02	2304.32
569.37	2304.53
569.72	2305.15
570.08	2304.94
570.43	2304.75
570.78	2303.86
571.14	2302.18
571.49	2300.79
571.84	2300.31
572.20	2299.06
572.55	2297.87
572.90	2296.12
573.26	2294.63
573.61	2292.94
573.96	2290.96
574.31	2287.86
574.67	2284.65
575.02	2280.86
575.37	2277.47
575.72	2273.37
576.08	2270.17
576.43	2266.88
576.78	2262.85
577.13	2259.51
577.49	2256.63
577.84	2253.04
578.19	2249.31
578.54	2245.47
578.90	2240.95
579.25	2235.44
579.60	2230.28
579.95	2225.04
580.30	2220.02
580.66	2214.80
581.01	2209.73
581.36	2204.51
581.71	2200.19
582.06	2195.69
582.42	2191.19
582.77	2185.90
583.12	2181.05
583.47	2175.99
583.82	2170.84
584.17	2165.59
584.53	2159.98
584.88	2153.99
585.23	2148.02
585.58	2142.50
585.93	2136.99
586.28	2132.30
586.63	2127.01
586.98	2121.80
587.34	2117.09
587.69	2111.92
588.04	2106.51
588.39	2100.66
588.74	2094.17
589.09	2087.96
589.44	2081.02
589.79	2074.83
590.14	2069.06
590.49	2062.55
590.84	2056.21
591.19	2050.00
591.54	2043.44
591.89	2035.79
592.25	2028.86
592.60	2021.57
592.95	2013.67
593.30	2006.25
593.65	1998.53
594.00	1991.32
594.35	1984.07
594.70	1975.81
595.05	1968.51
595.40	1961.14
595.75	1953.52
596.10	1947.16
596.45	1940.23
596.80	1933.89
597.15	1927.16
597.50	1919.87
597.85	1913.36
598.19	1906.53
598.54	1899.43
598.89	1892.74
599.24	1886.93
599.59	1880.10
599.94	1873.73
600.29	1867.42
600.64	1860.83
600.99	1853.19
601.34	1846.28
601.69	1839.25
602.04	1832.33
602.39	1825.05
602.74	1818.14
603.08	1811.39
603.43	1804.74
603.78	1797.45
604.13	1790.19
604.48	1782.86
604.83	1776.09
605.18	1769.08
605.53	1761.01
605.87	1753.02
606.22	1745.69
606.57	1737.79
606.92	1730.53
607.27	1723.37
607.62	1716.38
607.96	1709.04
608.31	1702.47
608.66	1694.81
609.01	1687.33
609.36	1679.86
609.70	1671.78
610.05	1663.78
610.40	1656.01
610.75	1647.65
611.10	1639.94
611.44	1631.68
611.79	1623.72
612.14	1615.10
612.49	1605.97
612.83	1597.73
613.18	1589.67
613.53	1581.70
613.88	1573.15
614.22	1565.03
614.57	1556.63
614.92	1548.67
615.27	1540.99
615.61	1532.72
615.96	1524.86
616.31	1517.27
616.65	1509.84
617.00	1502.34
617.35	1494.73
617.70	1486.48
618.04	1478.01
618.39	1469.87
618.74	1462.23
619.08	1454.05
619.43	1446.44
619.78	1439.50
620.12	1432.32
620.47	1424.76
620.82	1416.64
621.16	1409.34
621.51	1401.70
621.85	1394.01
622.20	1385.50
622.55	1377.34
622.89	1369.60
623.24	1362.02
623.59	1354.58
623.93	1347.13
624.28	1339.88
624.62	1332.38
624.97	1325.27
625.32	1318.59
625.66	1311.65
626.01	1304.51
626.35	1297.01
626.70	1289.31
627.04	1281.64
627.39	1273.90
627.73	1266.55
628.08	1259.63
628.43	1252.24
628.77	1244.84
629.12	1237.29
629.46	1230.18
629.81	1222.85
630.15	1215.66
630.50	1208.26
630.84	1200.22
631.19	1192.43
631.53	1185.07
631.88	1177.51
632.22	1169.89
632.57	1162.67
632.91	1155.15
633.26	1147.85
633.60	1140.61
633.95	1133.62
634.29	1126.71
634.64	1120.07
634.98	1112.72
635.32	1105.70
635.67	1099.21
636.01	1092.68
636.36	1085.96
636.70	1079.61
637.05	1073.03
637.39	1066.57
637.73	1060.11
638.08	1054.26
638.42	1048.35
638.77	1041.83
639.11	1035.22
639.45	1028.96
639.80	1022.26
640.14	1015.84
640.49	1009.26
640.83	1002.96
641.17	996.63
641.52	990.35
641.86	984.06
642.20	978.32
642.55	972.04
642.89	965.62
643.23	959.14
643.58	953.34
643.92	947.07
644.26	941.03
644.61	935.00
644.95	928.94
645.29	922.28
645.64	915.46
645.98	909.18
646.32	903.41
646.66	897.35
647.01	891.50
647.35	885.82
647.69	880.10
648.04	874.66
648.38	869.00
648.72	862.94
649.06	856.80
649.41	850.84
649.75	844.81
650.09	838.81
650.43	832.97
650.78	826.84
651.12	820.92
651.46	815.18
651.80	809.47
652.14	804.06
652.49	798.72
652.83	793.58
653.17	787.90
653.51	782.14
653.85	776.72
654.20	771.10
654.54	765.16
654.88	759.42
655.22	753.50
655.56	747.85
655.90	742.44
656.25	737.25
656.59	731.92
656.93	726.88
657.27	721.82
657.61	716.41
657.95	711.32
658.29	706.25
658.64	701.05
658.98	695.74
659.32	690.36
659.66	685.17
660.00	679.88
660.34	674.98
660.68	670.15
661.02	665.19
661.36	660.50
661.70	656.02
662.05	651.68
662.39	647.41
662.73	643.04
663.07	638.70
663.41	634.20
663.75	629.79
664.09	625.25
664.43	620.86
664.77	616.74
665.11	612.58
665.45	608.45
665.79	604.41
666.13	600.37
666.47	596.30
666.81	592.20
667.15	588.13
667.49	584.33
667.83	580.53
668.17	576.59
668.51	572.56
668.85	568.58
669.19	564.76
669.53	560.92
669.87	556.99
670.21	553.34
670.55	549.80
670.89	546.35
671.23	542.92
671.57	539.43
671.91	535.91
672.25	532.46
672.58	529.01
672.92	525.63
673.26	522.46
673.60	519.32
673.94	516.19
674.28	513.32
674.62	510.30
674.96	507.25
675.30	504.37
675.64	501.50
675.97	498.71
676.31	495.88
676.65	492.94
676.99	490.25
677.33	487.38
677.67	484.52
678.01	481.53
678.34	478.57
678.68	475.74
679.02	472.93
679.36	470.16
679.70	467.47
680.04	464.72
680.37	461.82
680.71	459.07
681.05	456.52
681.39	453.79
681.73	451.18
682.06	448.67
682.40	446.12
682.74	443.60
683.08	441.07
683.42	438.47
683.75	436.01
684.09	433.52
684.43	431.05
684.77	428.62
685.10	426.29
685.44	423.97
685.78	421.66
686.12	419.46
686.45	417.14
686.79	414.83
687.13	412.66
687.46	410.57
687.80	408.39
688.14	406.16
688.48	404.11
688.81	401.90
689.15	399.71
689.49	397.59
689.82	395.53
690.16	393.48
690.50	391.56
690.83	389.66
691.17	387.65
691.51	385.78
691.84	383.96
692.18	381.98
692.52	380.05
692.85	378.15
693.19	376.29
693.52	374.50
693.86	372.75
694.20	370.98
694.53	369.16
694.87	367.35
695.21	365.59
695.54	363.81
695.88	362.11
696.21	360.41
696.55	358.74
696.88	357.06
697.22	355.45
697.56	353.84
697.89	352.14
698.23	350.57
698.56	348.95
698.90	347.34
699.23	345.75
699.57	344.22
699.90	342.74
700.24	341.18
700.58	339.64
700.91	338.09
701.25	336.65
701.58	335.30
701.92	333.94
702.25	332.57
702.59	331.20
702.92	329.86
703.26	328.60
703.59	327.35
703.93	326.21
704.26	324.96
704.60	323.63
704.93	322.44
705.26	321.20
705.60	320.03
705.93	318.89
706.27	317.86
706.60	316.82
706.94	315.71
707.27	314.61
707.61	313.57
707.94	312.58
708.27	311.51
708.61	310.41
708.94	309.44
709.28	308.50
709.61	307.60
709.94	306.68
710.28	305.67
710.61	304.69
710.95	303.66
711.28	302.80
711.61	301.87
711.95	300.93
712.28	300.00
712.61	299.07
712.95	298.16
713.28	297.29
713.61	296.40
713.95	295.52
714.28	294.70
714.61	293.86
714.95	293.05
715.28	292.21
715.61	291.40
715.95	290.53
716.28	289.69
716.61	288.83
716.95	288.02
717.28	287.26
717.61	286.49
717.94	285.70
718.28	284.88
718.61	284.19
718.94	283.49
719.27	282.82
719.61	282.15
719.94	281.47
720.27	280.74
720.60	280.07
720.94	279.46
721.27	278.85
721.60	278.27
721.93	277.66
722.27	277.11
722.60	276.52
722.93	275.97
723.26	275.42
723.59	274.85
723.93	274.28
724.26	273.73
724.59	273.17
724.92	272.70
725.25	272.16
725.59	271.61
725.92	271.10
726.25	270.58
726.58	270.12
726.91	269.64
727.24	269.18
727.57	268.71
727.91	268.20
728.24	267.76
728.57	267.27
728.90	266.82
729.23	266.31
729.56	265.91
729.89	265.45
730.22	264.97
730.55	264.53
730.89	264.11
731.22	263.67
731.55	263.22
731.88	262.78
732.21	262.33
732.54	261.89
732.87	261.49
733.20	261.09
733.53	260.66
733.86	260.33
734.19	259.93
734.52	259.56
734.85	259.24
735.18	258.78
735.51	258.40
735.84	258.03
736.17	257.70
736.50	257.24
736.83	257.00
737.16	256.68
737.49	256.33
737.82	255.96
738.15	255.63
738.48	255.33
738.81	254.98
739.14	254.67
739.47	254.39
739.80	254.11
740.13	253.79
740.46	253.45
740.79	253.07
741.12	252.78
741.45	252.47
741.78	252.15
742.11	251.89
742.44	251.57
742.77	251.27
743.10	250.97
743.43	250.71
743.75	250.32
744.08	250.13
744.41	249.84
744.74	249.59
745.07	249.31
745.40	249.07
745.73	248.85
746.06	248.57
746.39	248.29
746.71	248.03
747.04	247.78
747.37	247.55
747.70	247.33
748.03	247.06
748.36	246.86
748.68	246.62
749.01	246.39
749.34	246.19
749.67	245.96
750.00	245.74
750.33	245.61
750.65	245.40
750.98	245.11
751.31	244.89
751.64	244.65
751.97	244.51
752.29	244.30
752.62	244.03
752.95	243.85
753.28	243.63
753.60	243.37
753.93	243.18
754.26	242.98
754.59	242.75
754.91	242.58
755.24	242.34
755.57	242.17
755.90	241.98
756.22	241.76
756.55	241.55
756.88	241.33
757.20	241.08
757.53	240.88
757.86	240.70
758.19	240.58
758.51	240.45
758.84	240.22
759.17	240.05
759.49	239.92
759.82	239.79
760.15	239.69
760.47	239.55
760.80	239.40
761.13	239.30
761.45	239.12
761.78	238.97
762.11	238.84
762.43	238.66
762.76	238.52
763.08	238.42
763.41	238.31
763.74	238.24
764.06	238.10
764.39	237.95
764.71	237.80
765.04	237.64
765.37	237.50
765.69	237.36
766.02	237.22
766.34	237.07
766.67	236.89
767.00	236.77
767.32	236.72
767.65	236.62
767.97	236.48
768.30	236.38
768.62	236.27
768.95	236.14
769.27	236.03
769.60	235.95
769.92	235.83
770.25	235.69
770.57	235.54
770.90	235.41
771.22	235.31
771.55	235.23
771.87	235.17
772.20	235.04
772.52	235.02
772.85	235.06
773.17	234.93
773.50	234.86
773.82	234.75
774.15	234.63
774.47	234.48
774.80	234.38
775.12	234.33
775.45	234.26
775.77	234.18
776.09	234.11
776.42	234.02
776.74	233.95
777.07	233.90
777.39	233.83
777.72	233.75
778.04	233.68
778.36	233.59
778.69	233.50
779.01	233.44
779.33	233.30
779.66	233.11
779.98	233.09
780.31	233.00
780.63	232.97
780.95	232.91
781.28	232.87
781.60	232.80
781.92	232.73
782.25	232.64
782.57	232.59
782.89	232.52
783.22	232.44
783.54	232.39
783.86	232.31
784.19	232.22
784.51	232.21
784.83	232.14
785.16	232.07
785.48	232.03
785.80	231.98
786.12	231.92
786.45	231.85
786.77	231.81
787.09	231.77
787.42	231.68
787.74	231.63
788.06	231.56
788.38	231.51
788.71	231.46
789.03	231.42
789.35	231.37
789.67	231.32
789.99	231.27
790.32	231.20
790.64	231.16
790.96	231.28
791.28	231.21
791.61	231.18
791.93	231.20
792.25	231.16
792.57	231.16
792.89	231.11
793.21	231.10
793.54	231.06
793.86	231.00
794.18	230.97
794.50	230.93
794.82	230.90
795.14	230.91
795.47	230.90
795.79	230.89
796.11	230.87
796.43	230.83
796.75	230.78
797.07	230.74
797.39	230.75
797.71	230.58
798.04	230.55
798.36	230.50
798.68	230.42
799.00	230.40
799.32	230.32
799.64	230.31
799.96	230.31
800.28	230.29
800.60	230.26
800.92	230.21
801.24	230.19
801.56	230.16
801.89	230.07
802.21	230.05
802.53	229.96
802.85	229.92
803.17	229.98
803.49	229.93
803.81	229.91
804.13	229.86
804.45	229.85
804.77	229.86
805.09	229.86
805.41	229.84
805.73	229.81
806.05	229.77
806.37	229.74
806.69	229.69
807.01	229.69
807.33	229.69
807.65	229.62
807.97	229.63
808.28	229.59
808.60	229.57
808.92	229.51
809.24	229.57
809.56	229.53
809.88	229.43
810.20	229.43
810.52	229.42
810.84	229.38
811.16	229.32
811.48	229.27
811.80	229.26
812.12	229.25
812.43	229.21
812.75	229.19
813.07	229.21
813.39	229.18
813.71	229.13
814.03	229.09
814.35	229.11
814.67	229.03
814.98	229.04
815.30	229.03
815.62	229.01
815.94	228.94
816.26	228.95
816.58	228.91
816.89	228.86
817.21	228.82
817.53	228.80
817.85	228.78
818.17	228.76
818.48	228.70
818.80	228.67
819.12	228.65
819.44	228.66
819.76	228.59
820.07	228.57
820.39	228.57
820.71	228.54
821.03	228.54
821.34	228.52
821.66	228.50
821.98	228.50
822.30	228.48
822.61	228.55
822.93	228.48
823.25	228.49
823.57	228.49
823.88	228.51
824.20	228.51
824.52	228.49
824.83	228.47
825.15	228.45
825.47	228.43
825.79	228.44
826.10	228.39
826.42	228.39
826.74	228.39
827.05	228.37
827.37	228.39
827.69	228.36
828.00	228.39
828.32	228.37
828.64	228.37
828.95	228.43
829.27	228.38
829.58	228.38
829.90	228.42
830.22	228.42
830.53	228.38
830.85	228.35
831.17	228.35
831.48	228.35
831.80	228.35
832.11	228.33
832.43	228.33
832.75	228.33
833.06	228.39
833.38	228.39
833.69	228.38
834.01	228.39
834.32	228.36
834.64	228.32
834.96	228.31
835.27	228.30
835.59	228.25
835.90	228.23
836.22	228.24
836.53	228.19
836.85	228.19
837.16	228.29
837.48	228.29
837.79	228.31
838.11	228.32
838.42	228.36
838.74	228.37
839.05	228.36
839.37	228.33
839.68	228.29
840.00	228.26
840.31	228.25
840.63	228.24
840.94	228.24
841.26	228.22
841.57	228.21
841.88	228.21
842.20	228.16
842.51	228.15
842.83	228.15
843.14	228.24
843.46	228.22
843.77	228.14
844.08	228.14
844.40	228.13
844.71	228.11
845.03	228.08
845.34	228.08
845.65	228.04
845.97	228.05
846.28	228.04
846.60	228.05
846.91	227.98
847.22	227.93
847.54	227.97
847.85	227.96
848.16	227.94
848.48	227.90
848.79	227.94
849.10	227.91
849.42	227.90
849.73	227.79
850.04	227.78
850.36	227.73
850.67	227.73
850.98	227.67
851.30	227.68
851.61	227.65
851.92	227.61
852.23	227.65
852.55	227.62
852.86	227.57
853.17	227.53
853.49	227.59
853.80	227.61
854.11	227.58
854.42	227.56
854.74	227.56
855.05	227.57
855.36	227.50
855.67	227.49
855.99	227.47
856.30	227.59
856.61	227.57
856.92	227.59
857.23	227.60
857.55	227.60
857.86	227.56
858.17	227.58
858.48	227.59
858.79	227.57
859.11	227.58
859.42	227.59
859.73	227.60
860.04	227.56
860.35	227.57
860.66	227.54
860.98	227.55
861.29	227.56
861.60	227.54
861.91	227.59
862.22	227.58
862.53	227.58
862.84	227.46
863.16	227.51
863.47	227.49
863.78	227.44
864.09	227.48
864.40	227.51
864.71	227.51
865.02	227.51
865.33	227.46
865.64	227.43
865.95	227.43
866.27	227.49
866.58	227.48
866.89	227.48
867.20	227.48
867.51	227.48
867.82	227.48
868.13	227.49
868.44	227.47
868.75	227.48
869.06	227.47
869.37	227.47
869.68	227.44
869.99	227.46
870.30	227.50
870.61	227.50
870.92	227.48
871.23	227.47
871.54	227.49
871.85	227.55
872.16	227.57
872.47	227.58
872.78	227.50
873.09	227.49
873.40	227.48
873.71	227.50
874.02	227.47
874.33	227.46
874.64	227.49
874.95	227.52
875.26	227.49
875.56	227.50
875.87	227.52
876.18	227.50
876.49	227.58
876.80	227.58
877.11	227.55
877.42	227.53
877.73	227.53
878.04	227.49
878.35	227.51
878.66	227.52
878.96	227.52
879.27	227.53
879.58	227.53
879.89	227.50
880.20	227.51
880.51	227.52
880.82	227.54
881.12	227.50
881.43	227.46
881.74	227.43
882.05	227.42
882.36	227.40
882.67	227.41
882.97	227.30
883.28	227.28
883.59	227.24
883.90	227.26
884.21	227.27
884.51	227.29
884.82	227.20
885.13	227.19
885.44	227.16
885.74	227.16
886.05	227.16
886.36	227.19
886.67	227.13
886.98	227.15
887.28	227.15
887.59	227.16
887.90	227.17
888.20	227.21
888.51	227.20
888.82	227.20
889.13	227.21
889.43	227.27
889.74	227.25
890.05	227.27
890.35	227.25
890.66	227.22
890.97	227.19
891.28	227.18
891.58	227.16
891.89	227.16
892.20	227.16
892.50	227.16
892.81	227.13
893.12	227.14
893.42	227.12
893.73	227.11
894.04	227.12
894.34	227.11
894.65	227.09
894.95	227.12
895.26	227.13
895.57	227.16
895.87	227.11
896.18	227.13
896.48	227.13
896.79	227.17
897.10	227.17
897.40	227.20
897.71	227.27
898.01	227.30
898.32	227.33
898.63	227.33
898.93	227.35
899.24	227.38
899.54	227.36
899.85	227.37
900.15	227.36
900.46	227.35
900.76	227.38
901.07	227.39
901.38	227.36
901.68	227.34
901.99	227.31
902.29	227.33
902.60	227.32
902.90	227.34
903.21	227.33
903.51	227.35
903.82	227.37
904.12	227.37
904.43	227.39
904.73	227.39
905.03	227.38
905.34	227.50
905.64	227.49
905.95	227.51
906.25	227.51
906.56	227.48
906.86	227.49
907.17	227.48
907.47	227.49
907.77	227.48
908.08	227.50
908.38	227.48
908.69	227.48
908.99	227.52
909.30	227.52
909.60	227.49
909.90	227.50
910.21	227.48
910.51	227.47
910.81	227.48
911.12	227.47
911.42	227.44
911.73	227.30
912.03	227.30
912.33	227.32
912.64	227.31
912.94	227.34
913.24	227.32
913.55	227.31
913.85	227.28
914.15	227.33
914.46	227.32
914.76	227.31
915.06	227.26
915.37	227.20
915.67	227.17
915.97	227.19
916.27	227.15
916.58	227.15
916.88	227.11
917.18	227.06
917.49	227.14
917.79	227.16
918.09	227.19
918.39	227.18
918.70	227.16
919.00	227.13
919.30	227.16
919.60	227.14
919.91	227.13
920.21	227.11
920.51	227.05
920.81	227.03
921.12	227.05
921.42	227.05
921.72	227.06
922.02	227.08
922.32	227.08
922.63	227.06
922.93	227.08
923.23	227.09
923.53	227.09
923.83	227.01
924.13	227.01
924.44	227.00
924.74	227.00
925.04	226.99
925.34	227.00
925.64	226.95
925.94	226.95
926.24	226.98
926.55	227.00
926.85	227.03
927.15	227.02
927.45	227.03
927.75	227.04
928.05	227.07
928.35	227.07
928.65	227.08
928.95	227.10
929.26	227.07
929.56	227.07
929.86	227.10
930.16	227.09
930.46	227.10
930.76	227.12
931.06	227.09
931.36	227.08
931.66	227.11
931.96	227.13
932.26	227.17
932.56	227.15
932.86	227.14
933.16	227.17
933.46	227.19
933.76	227.16
934.06	227.18
934.36	227.19
934.66	227.13
934.96	227.13
935.26	227.14
935.56	227.17
935.86	227.14
936.16	227.13
936.46	227.14
936.76	227.13
937.06	227.10
937.36	227.12
937.66	227.15
937.96	227.14
938.26	227.13
938.56	227.11
938.86	227.12
939.16	227.14
939.46	227.14
939.76	227.15
940.06	227.16
940.35	227.16
940.65	227.12
940.95	227.15
941.25	227.14
941.55	227.13
941.85	227.12
942.15	227.17
942.45	227.18
942.75	227.16
943.04	227.15
943.34	227.16
943.64	227.14
943.94	227.11
944.24	227.09
944.54	227.10
944.84	227.09
945.13	227.05
945.43	227.02
945.73	227.00
946.03	226.99
946.33	226.95
946.62	226.92
946.92	226.92
947.22	226.92
947.52	226.92
947.82	226.95
948.11	226.94
948.41	226.89
948.71	226.89
949.01	226.88
949.31	226.89
949.60	226.90
949.90	226.92
950.20	226.90
950.50	226.91
950.79	226.90
951.09	226.91
951.39	226.93
951.69	226.94
951.98	226.93
952.28	226.89
952.58	226.89
952.87	226.92
953.17	226.93
953.47	226.95
953.76	226.93
954.06	226.91
954.36	226.91
954.66	226.91
954.95	226.92
955.25	226.93
955.55	226.92
955.84	226.88
956.14	226.87
956.44	226.90
956.73	226.89
957.03	226.89
957.32	226.89
957.62	226.87
957.92	226.90
958.21	226.90
958.51	227.03
958.81	227.04
959.10	226.98
959.40	226.97
959.69	226.97
959.99	226.96
960.29	226.96
960.58	226.93
960.88	226.98
961.17	226.97
961.47	226.97
961.76	226.97
962.06	227.03
962.36	227.01
962.65	227.01
962.95	226.99
963.24	226.98
963.54	226.98
963.83	227.02
964.13	226.98
964.42	226.93
964.72	226.85
965.01	226.86
965.31	226.90
965.60	226.89
965.90	226.94
966.19	226.92
966.49	226.89
966.78	226.91
967.08	226.89
967.37	226.90
967.67	226.90
967.96	226.91
968.26	226.89
968.55	226.93
968.85	226.95
969.14	226.97
969.43	226.99
969.73	226.98
970.02	226.96
970.32	226.98
970.61	227.00
970.91	226.99
971.20	226.97
971.49	226.97
971.79	227.00
972.08	226.94
972.38	226.95
972.67	226.99
972.96	227.01
973.26	227.03
973.55	227.05
973.85	227.05
974.14	227.05
974.43	227.08
974.73	227.05
975.02	227.05
975.31	227.04
975.61	227.03
975.90	227.02
976.19	227.04
976.49	227.05
976.78	227.07
977.07	227.08
977.37	227.13
977.66	227.15
977.95	227.13
978.24	227.16
978.54	227.21
978.83	227.19
979.12	227.16
979.42	227.14
979.71	227.13
980.00	227.13
980.29	227.12
980.59	227.11
980.88	227.10
981.17	227.11
981.46	227.12
981.76	227.13
982.05	227.17
982.34	227.17
982.63	227.15
982.93	227.15
983.22	227.15
983.51	227.13
983.80	227.11
984.09	227.14
984.39	227.12
984.68	227.10
984.97	227.11
985.26	227.12
985.55	227.11
985.85	227.12
986.14	227.11
986.43	227.13
986.72	227.09
987.01	227.08
987.30	227.07
987.59	227.08
987.89	227.08
988.18	227.04
988.47	227.04
988.76	227.04
989.05	227.03
989.34	227.02
989.63	227.02
989.92	226.99
990.22	226.98
990.51	226.97
990.80	226.97
991.09	226.97
991.38	226.97
991.67	226.97
991.96	226.92
992.25	226.93
992.54	226.92
992.83	226.92
993.12	226.91
993.41	226.93
993.70	226.92
993.99	226.92
994.28	226.89
994.58	226.86
994.87	226.84
995.16	226.87
995.45	226.84
995.74	226.79
996.03	226.79
996.32	226.77
996.61	226.75
996.90	226.72
997.19	226.72
997.48	226.71
997.77	226.69
998.06	226.66
998.34	226.64
998.63	226.63
998.92	226.62
999.21	226.64
999.50	226.63
999.79	226.60
1000.08	226.60
1000.37	226.63
1000.66	226.65
1000.95	226.67
1001.24	226.66
1001.53	226.69
1001.82	226.67
1002.11	226.69
1002.40	226.71
1002.68	226.73
1002.97	226.82
1003.26	226.82
1003.55	226.80
1003.84	226.79
1004.13	226.84
1004.42	226.84
1004.71	226.88
1004.99	226.89
1005.28	226.92
1005.57	226.91
1005.86	226.91
1006.15	226.90
1006.44	226.88
1006.72	226.89
1007.01	226.90
1007.30	226.92
1007.59	226.93
1007.88	226.97
1008.17	226.97
1008.45	226.94
1008.74	226.94
1009.03	226.88
1009.32	226.87
1009.60	226.89
1009.89	226.92
1010.18	226.89
1010.47	226.91
1010.76	226.88
1011.04	226.90
1011.33	226.92
1011.62	226.93
1011.91	226.92
1012.19	226.94
1012.48	226.95
1012.77	226.95
1013.05	226.97
1013.34	226.97
1013.63	226.98
1013.92	226.96
1014.20	226.97
1014.49	227.01
1014.78	227.03
1015.06	227.00
1015.35	226.99
1015.64	227.02
1015.92	227.03
1016.21	227.06
1016.50	227.04
1016.78	227.07
1017.07	227.09
1017.36	227.05
1017.64	227.05
1017.93	227.07
1018.22	227.06
1018.50	227.08
1018.79	227.05
1019.08	227.01
1019.36	227.02
1019.65	227.03
1019.93	227.05
1020.22	227.11
1020.51	227.14
1020.79	227.14
1021.08	227.01
1021.36	226.83
1021.65	226.83
1021.94	226.85
1022.22	227.17
1022.51	227.46
1022.79	227.09
1023.08	228.10
1023.36	228.32
1023.65	227.35
>>>>>End Processed Spectral Data<<<<<
