SpectraSuite Data File
++++++++++++++++++++++++++++++++++++
Date: Fri Feb 01 15:27:29 EST 2013
User: group
Dark Spectrum Present: No
Reference Spectrum Present: No
Number of Sampled Component Spectra: 1
Spectrometers: USB2E7196
Integration Time (usec): 35000 (USB2E7196)
Spectra Averaged: 100 (USB2E7196)
Boxcar Smoothing: 10 (USB2E7196)
Correct for Electrical Dark: No (USB2E7196)
Strobe/Lamp Enabled: No (USB2E7196)
Correct for Detector Non-linearity: No (USB2E7196)
Correct for Stray Light: No (USB2E7196)
Number of Pixels in Processed Spectrum: 2048
>>>>>Begin Processed Spectral Data<<<<<
339.09	0.00
339.48	215.36
339.86	216.39
340.24	218.41
340.63	219.25
341.01	222.31
341.39	222.12
341.78	223.68
342.16	224.51
342.54	224.58
342.93	213.48
343.31	224.27
343.69	224.77
344.07	225.25
344.46	225.65
344.84	226.02
345.22	226.25
345.60	226.48
345.99	226.64
346.37	226.71
346.75	226.83
347.13	226.84
347.52	226.88
347.90	226.91
348.28	226.94
348.66	226.96
349.05	227.00
349.43	227.02
349.81	227.07
350.19	227.12
350.57	227.21
350.96	227.26
351.34	227.33
351.72	227.44
352.10	227.53
352.48	227.62
352.87	227.69
353.25	227.73
353.63	227.80
354.01	227.89
354.39	228.01
354.77	228.07
355.15	228.20
355.54	228.26
355.92	228.35
356.30	228.40
356.68	228.53
357.06	228.59
357.44	228.65
357.82	228.71
358.20	228.77
358.58	228.83
358.97	228.87
359.35	228.94
359.73	229.02
360.11	229.06
360.49	229.11
360.87	229.15
361.25	229.23
361.63	229.32
362.01	229.35
362.39	229.38
362.77	229.46
363.15	229.45
363.53	229.47
363.91	229.45
364.29	229.48
364.67	229.41
365.05	229.41
365.43	229.43
365.81	229.43
366.19	229.48
366.57	229.52
366.95	229.56
367.33	229.55
367.71	229.54
368.09	229.55
368.47	229.55
368.85	229.53
369.23	229.54
369.61	229.44
369.99	229.44
370.37	229.42
370.75	229.38
371.13	229.32
371.51	229.28
371.89	229.26
372.27	229.22
372.65	229.16
373.03	229.13
373.41	229.05
373.78	228.97
374.16	228.86
374.54	228.75
374.92	228.63
375.30	228.58
375.68	228.46
376.06	228.39
376.44	228.29
376.82	228.20
377.19	228.08
377.57	228.03
377.95	227.96
378.33	227.90
378.71	227.81
379.09	227.77
379.47	227.70
379.84	227.58
380.22	227.51
380.60	227.43
380.98	227.34
381.36	227.28
381.73	227.22
382.11	227.20
382.49	227.11
382.87	227.06
383.25	226.98
383.62	227.06
384.00	226.98
384.38	226.91
384.76	226.89
385.13	226.88
385.51	226.79
385.89	226.73
386.27	226.69
386.64	226.66
387.02	226.62
387.40	226.59
387.78	226.60
388.15	226.59
388.53	226.54
388.91	226.50
389.29	226.50
389.66	226.52
390.04	226.45
390.42	226.47
390.79	226.46
391.17	226.44
391.55	226.31
391.92	226.36
392.30	226.35
392.68	226.32
393.05	226.34
393.43	226.36
393.81	226.35
394.18	226.35
394.56	226.35
394.94	226.39
395.31	226.39
395.69	226.44
396.06	226.49
396.44	226.56
396.82	226.59
397.19	226.67
397.57	226.72
397.95	226.78
398.32	226.81
398.70	226.89
399.07	226.96
399.45	227.01
399.82	227.02
400.20	227.08
400.58	227.18
400.95	227.20
401.33	227.34
401.70	227.53
402.08	227.63
402.45	227.75
402.83	227.89
403.20	228.02
403.58	228.12
403.95	228.24
404.33	228.39
404.71	228.53
405.08	228.71
405.46	228.80
405.83	228.95
406.21	229.12
406.58	229.29
406.96	229.45
407.33	229.64
407.70	229.85
408.08	230.16
408.45	230.36
408.83	230.61
409.20	230.80
409.58	230.96
409.95	231.22
410.33	231.49
410.70	231.68
411.08	231.97
411.45	232.26
411.82	232.54
412.20	232.90
412.57	233.32
412.95	233.59
413.32	234.03
413.69	234.45
414.07	234.90
414.44	235.37
414.82	235.89
415.19	236.43
415.56	237.01
415.94	237.53
416.31	238.17
416.68	238.80
417.06	239.53
417.43	240.21
417.81	240.95
418.18	241.70
418.55	242.58
418.93	243.44
419.30	244.34
419.67	245.28
420.04	246.21
420.42	247.19
420.79	248.40
421.16	249.51
421.54	250.71
421.91	251.88
422.28	253.12
422.66	254.40
423.03	255.75
423.40	257.06
423.77	258.45
424.15	259.89
424.52	261.38
424.89	262.99
425.26	264.57
425.64	266.05
426.01	267.65
426.38	269.28
426.75	270.98
427.13	272.68
427.50	274.51
427.87	276.45
428.24	278.35
428.61	280.07
428.99	282.06
429.36	284.13
429.73	286.21
430.10	288.22
430.47	290.30
430.85	292.40
431.22	294.65
431.59	297.08
431.96	299.31
432.33	301.83
432.70	304.19
433.08	307.00
433.45	309.64
433.82	312.28
434.19	315.21
434.56	318.01
434.93	320.72
435.30	323.33
435.68	326.20
436.05	329.02
436.42	331.83
436.79	334.33
437.16	337.05
437.53	339.92
437.90	342.79
438.27	345.52
438.64	348.32
439.01	350.95
439.38	353.20
439.75	355.37
440.13	357.83
440.50	360.17
440.87	362.02
441.24	363.95
441.61	366.11
441.98	367.60
442.35	369.42
442.72	371.25
443.09	373.07
443.46	374.08
443.83	374.69
444.20	375.17
444.57	376.00
444.94	376.31
445.31	376.63
445.68	376.94
446.05	377.05
446.42	376.68
446.79	376.24
447.16	375.74
447.53	375.40
447.90	374.22
448.27	373.05
448.64	371.44
449.01	370.34
449.37	368.36
449.74	366.42
450.11	364.18
450.48	361.73
450.85	359.19
451.22	356.99
451.59	354.94
451.96	352.97
452.33	350.37
452.70	347.98
453.07	345.14
453.43	342.22
453.80	339.45
454.17	336.80
454.54	334.25
454.91	331.57
455.28	328.89
455.65	326.44
456.02	323.97
456.38	321.83
456.75	319.16
457.12	316.91
457.49	314.69
457.86	312.53
458.23	310.66
458.59	308.64
458.96	306.56
459.33	304.72
459.70	302.93
460.07	301.40
460.43	299.71
460.80	298.10
461.17	296.69
461.54	295.19
461.91	293.76
462.27	292.31
462.64	291.04
463.01	289.69
463.38	288.40
463.74	287.03
464.11	285.89
464.48	284.82
464.85	283.68
465.21	282.81
465.58	281.87
465.95	280.73
466.32	279.79
466.68	278.89
467.05	277.98
467.42	277.03
467.78	276.12
468.15	275.21
468.52	274.55
468.88	273.69
469.25	272.90
469.62	272.29
469.98	271.62
470.35	270.96
470.72	270.36
471.08	269.71
471.45	269.23
471.82	268.65
472.18	268.06
472.55	267.62
472.92	267.09
473.28	266.61
473.65	266.16
474.02	265.70
474.38	265.34
474.75	264.99
475.11	264.66
475.48	264.41
475.85	264.20
476.21	263.94
476.58	263.73
476.94	263.61
477.31	263.43
477.67	263.26
478.04	263.17
478.41	263.13
478.77	263.15
479.14	263.06
479.50	263.07
479.87	263.15
480.23	263.22
480.60	263.30
480.96	263.40
481.33	263.64
481.69	263.83
482.06	264.02
482.42	264.24
482.79	264.52
483.15	264.80
483.52	265.13
483.88	265.50
484.25	265.88
484.61	266.30
484.98	266.71
485.34	267.28
485.71	267.87
486.07	268.45
486.44	269.00
486.80	269.70
487.17	270.44
487.53	271.19
487.90	272.05
488.26	273.01
488.62	274.00
488.99	274.95
489.35	275.99
489.72	277.09
490.08	278.30
490.44	279.51
490.81	280.86
491.17	282.25
491.54	283.71
491.90	285.26
492.26	286.87
492.63	288.66
492.99	290.45
493.36	292.29
493.72	294.35
494.08	296.44
494.45	298.69
494.81	301.04
495.17	303.50
495.54	306.06
495.90	308.72
496.26	311.52
496.63	314.49
496.99	317.67
497.35	320.94
497.72	324.31
498.08	327.86
498.44	331.55
498.80	335.47
499.17	339.51
499.53	343.71
499.89	348.09
500.26	352.53
500.62	357.18
500.98	362.14
501.34	367.16
501.71	372.53
502.07	377.97
502.43	383.59
502.79	389.40
503.16	395.46
503.52	401.74
503.88	408.19
504.24	414.81
504.60	421.68
504.97	428.81
505.33	436.14
505.69	443.78
506.05	451.49
506.41	459.34
506.78	467.53
507.14	476.00
507.50	484.72
507.86	493.75
508.22	502.98
508.59	512.28
508.95	521.93
509.31	531.71
509.67	541.77
510.03	552.11
510.39	562.71
510.75	573.50
511.12	584.41
511.48	595.70
511.84	607.23
512.20	618.73
512.56	630.70
512.92	642.88
513.28	655.21
513.64	667.77
514.00	680.54
514.37	693.49
514.73	706.53
515.09	719.56
515.45	732.91
515.81	746.45
516.17	760.41
516.53	774.50
516.89	788.70
517.25	803.00
517.61	817.45
517.97	831.96
518.33	846.46
518.69	861.27
519.05	876.27
519.41	891.35
519.77	906.94
520.13	922.47
520.49	937.91
520.85	953.39
521.21	969.08
521.57	985.29
521.93	1001.15
522.29	1017.59
522.65	1033.97
523.01	1050.21
523.37	1066.41
523.73	1082.54
524.09	1098.73
524.45	1115.14
524.81	1131.79
525.17	1148.60
525.53	1165.57
525.89	1182.42
526.25	1199.31
526.61	1215.79
526.97	1232.66
527.33	1249.20
527.68	1265.84
528.04	1282.40
528.40	1299.11
528.76	1316.26
529.12	1332.85
529.48	1349.71
529.84	1365.85
530.20	1382.50
530.56	1399.56
530.91	1417.04
531.27	1433.84
531.63	1450.35
531.99	1466.98
532.35	1482.95
532.71	1498.89
533.07	1515.13
533.42	1531.18
533.78	1547.24
534.14	1563.58
534.50	1578.97
534.86	1594.90
535.21	1609.99
535.57	1625.99
535.93	1641.53
536.29	1656.35
536.65	1671.59
537.00	1686.54
537.36	1701.79
537.72	1716.40
538.08	1730.83
538.44	1744.68
538.79	1758.64
539.15	1772.49
539.51	1786.23
539.87	1800.59
540.22	1814.35
540.58	1828.42
540.94	1841.90
541.29	1854.87
541.65	1867.70
542.01	1881.12
542.37	1893.46
542.72	1906.03
543.08	1917.81
543.44	1930.35
543.79	1941.70
544.15	1952.71
544.51	1964.18
544.87	1975.23
545.22	1986.02
545.58	1996.20
545.94	2005.94
546.29	2015.79
546.65	2025.60
547.01	2034.94
547.36	2043.80
547.72	2052.42
548.07	2060.11
548.43	2068.19
548.79	2076.39
549.14	2083.79
549.50	2091.19
549.86	2098.95
550.21	2106.30
550.57	2113.58
550.92	2120.06
551.28	2127.08
551.64	2134.19
551.99	2140.77
552.35	2147.02
552.70	2153.15
553.06	2159.33
553.41	2165.68
553.77	2171.84
554.13	2177.92
554.48	2184.02
554.84	2189.37
555.19	2194.75
555.55	2199.96
555.90	2204.44
556.26	2209.25
556.61	2214.07
556.97	2218.13
557.32	2222.22
557.68	2226.31
558.03	2230.59
558.39	2234.28
558.74	2238.92
559.10	2242.67
559.45	2246.24
559.81	2250.48
560.16	2254.47
560.52	2257.66
560.87	2261.12
561.23	2263.79
561.58	2266.67
561.94	2269.06
562.29	2271.59
562.64	2274.10
563.00	2276.68
563.35	2280.13
563.71	2283.17
564.06	2286.24
564.42	2289.07
564.77	2291.65
565.12	2293.87
565.48	2295.44
565.83	2297.23
566.19	2298.44
566.54	2299.55
566.89	2300.71
567.25	2301.12
567.60	2302.39
567.96	2303.98
568.31	2304.75
568.66	2305.71
569.02	2306.32
569.37	2306.73
569.72	2307.46
570.08	2307.55
570.43	2307.40
570.78	2306.84
571.14	2305.27
571.49	2304.09
571.84	2303.71
572.20	2302.43
572.55	2301.51
572.90	2300.21
573.26	2298.96
573.61	2297.37
573.96	2295.41
574.31	2292.32
574.67	2289.27
575.02	2285.55
575.37	2282.10
575.72	2278.18
576.08	2274.94
576.43	2271.67
576.78	2268.01
577.13	2264.83
577.49	2261.68
577.84	2258.18
578.19	2254.36
578.54	2250.65
578.90	2246.14
579.25	2240.62
579.60	2235.63
579.95	2230.45
580.30	2225.40
580.66	2220.15
581.01	2214.97
581.36	2210.02
581.71	2205.80
582.06	2201.45
582.42	2196.93
582.77	2191.60
583.12	2186.92
583.47	2182.00
583.82	2176.81
584.17	2171.42
584.53	2165.78
584.88	2159.90
585.23	2153.92
585.58	2148.42
585.93	2142.87
586.28	2138.11
586.63	2132.99
586.98	2127.76
587.34	2122.94
587.69	2117.92
588.04	2112.59
588.39	2106.93
588.74	2100.34
589.09	2094.24
589.44	2087.15
589.79	2080.92
590.14	2075.28
590.49	2068.75
590.84	2062.38
591.19	2056.20
591.54	2049.66
591.89	2042.09
592.25	2035.40
592.60	2028.27
592.95	2020.55
593.30	2013.17
593.65	2005.48
594.00	1998.38
594.35	1991.13
594.70	1983.10
595.05	1975.77
595.40	1968.36
595.75	1960.74
596.10	1954.42
596.45	1947.53
596.80	1941.43
597.15	1934.70
597.50	1927.44
597.85	1920.97
598.19	1914.19
598.54	1907.02
598.89	1900.35
599.24	1894.48
599.59	1887.61
599.94	1881.39
600.29	1875.00
600.64	1868.40
600.99	1860.76
601.34	1853.75
601.69	1846.76
602.04	1839.68
602.39	1832.29
602.74	1825.45
603.08	1818.85
603.43	1812.07
603.78	1804.80
604.13	1797.65
604.48	1790.42
604.83	1783.67
605.18	1776.56
605.53	1768.46
605.87	1760.37
606.22	1753.10
606.57	1745.20
606.92	1737.90
607.27	1730.57
607.62	1723.67
607.96	1716.30
608.31	1709.68
608.66	1702.10
609.01	1694.47
609.36	1686.98
609.70	1678.84
610.05	1670.56
610.40	1662.65
610.75	1654.35
611.10	1646.68
611.44	1638.36
611.79	1630.41
612.14	1621.69
612.49	1612.60
612.83	1604.37
613.18	1596.34
613.53	1588.26
613.88	1579.75
614.22	1571.51
614.57	1562.94
614.92	1554.84
615.27	1547.27
615.61	1539.00
615.96	1531.03
616.31	1523.41
616.65	1516.09
617.00	1508.65
617.35	1501.08
617.70	1492.83
618.04	1484.25
618.39	1475.86
618.74	1468.05
619.08	1459.63
619.43	1451.98
619.78	1445.04
620.12	1437.69
620.47	1430.16
620.82	1422.08
621.16	1414.62
621.51	1406.98
621.85	1399.43
622.20	1390.92
622.55	1382.61
622.89	1374.86
623.24	1367.24
623.59	1359.80
623.93	1352.25
624.28	1344.98
624.62	1337.41
624.97	1330.13
625.32	1323.46
625.66	1316.47
626.01	1309.27
626.35	1301.87
626.70	1294.15
627.04	1286.40
627.39	1278.72
627.73	1271.26
628.08	1264.21
628.43	1256.84
628.77	1249.39
629.12	1241.71
629.46	1234.56
629.81	1227.08
630.15	1219.78
630.50	1212.33
630.84	1204.18
631.19	1196.27
631.53	1188.80
631.88	1181.30
632.22	1173.84
632.57	1166.54
632.91	1159.02
633.26	1151.65
633.60	1144.26
633.95	1137.26
634.29	1130.28
634.64	1123.51
634.98	1116.13
635.32	1109.03
635.67	1102.49
636.01	1095.94
636.36	1089.23
636.70	1082.70
637.05	1076.20
637.39	1069.80
637.73	1063.31
638.08	1057.48
638.42	1051.53
638.77	1045.06
639.11	1038.46
639.45	1032.01
639.80	1025.29
640.14	1018.92
640.49	1012.42
640.83	1006.11
641.17	999.85
641.52	993.49
641.86	987.19
642.20	981.40
642.55	975.09
642.89	968.58
643.23	962.02
643.58	956.28
643.92	950.07
644.26	943.96
644.61	937.93
644.95	931.91
645.29	925.26
645.64	918.49
645.98	912.13
646.32	906.37
646.66	900.33
647.01	894.64
647.35	888.94
647.69	883.09
648.04	877.64
648.38	871.79
648.72	865.78
649.06	859.73
649.41	853.84
649.75	847.80
650.09	841.86
650.43	836.08
650.78	829.88
651.12	823.96
651.46	818.27
651.80	812.50
652.14	807.12
652.49	801.71
652.83	796.53
653.17	790.86
653.51	785.10
653.85	779.72
654.20	774.02
654.54	767.99
654.88	762.33
655.22	756.44
655.56	750.72
655.90	745.25
656.25	739.96
656.59	734.63
656.93	729.63
657.27	724.51
657.61	719.12
657.95	714.01
658.29	708.87
658.64	703.58
658.98	698.30
659.32	692.74
659.66	687.60
660.00	682.30
660.34	677.34
660.68	672.37
661.02	667.32
661.36	662.62
661.70	658.16
662.05	653.74
662.39	649.33
662.73	644.92
663.07	640.57
663.41	636.06
663.75	631.58
664.09	627.02
664.43	622.64
664.77	618.56
665.11	614.37
665.45	610.33
665.79	606.26
666.13	602.15
666.47	598.12
666.81	593.95
667.15	589.81
667.49	585.90
667.83	582.15
668.17	578.28
668.51	574.19
668.85	570.17
669.19	566.34
669.53	562.54
669.87	558.60
670.21	554.88
670.55	551.30
670.89	547.87
671.23	544.43
671.57	540.92
671.91	537.32
672.25	533.81
672.58	530.30
672.92	526.96
673.26	523.79
673.60	520.67
673.94	517.56
674.28	514.70
674.62	511.77
674.96	508.64
675.30	505.65
675.64	502.68
675.97	499.94
676.31	497.07
676.65	494.17
676.99	491.49
677.33	488.70
677.67	485.86
678.01	482.73
678.34	479.75
678.68	476.83
679.02	474.02
679.36	471.27
679.70	468.56
680.04	465.73
680.37	462.82
680.71	459.99
681.05	457.38
681.39	454.60
681.73	451.94
682.06	449.44
682.40	446.98
682.74	444.48
683.08	441.92
683.42	439.37
683.75	436.87
684.09	434.33
684.43	431.83
684.77	429.37
685.10	427.10
685.44	424.84
685.78	422.61
686.12	420.35
686.45	418.06
686.79	415.76
687.13	413.61
687.46	411.53
687.80	409.40
688.14	407.19
688.48	405.18
688.81	402.98
689.15	400.84
689.49	398.67
689.82	396.63
690.16	394.55
690.50	392.56
690.83	390.62
691.17	388.66
691.51	386.78
691.84	384.97
692.18	383.04
692.52	381.06
692.85	379.11
693.19	377.31
693.52	375.52
693.86	373.72
694.20	371.92
694.53	370.10
694.87	368.29
695.21	366.55
695.54	364.73
695.88	363.01
696.21	361.31
696.55	359.64
696.88	357.99
697.22	356.35
697.56	354.75
697.89	353.09
698.23	351.51
698.56	349.89
698.90	348.29
699.23	346.64
699.57	345.12
699.90	343.60
700.24	342.00
700.58	340.46
700.91	338.92
701.25	337.49
701.58	336.12
701.92	334.77
702.25	333.39
702.59	332.08
702.92	330.75
703.26	329.45
703.59	328.15
703.93	326.94
704.26	325.70
704.60	324.39
704.93	323.14
705.26	321.84
705.60	320.70
705.93	319.55
706.27	318.51
706.60	317.42
706.94	316.34
707.27	315.19
707.61	314.13
707.94	313.12
708.27	312.03
708.61	310.93
708.94	309.90
709.28	308.91
709.61	307.91
709.94	306.94
710.28	305.92
710.61	304.97
710.95	303.88
711.28	302.94
711.61	302.03
711.95	301.11
712.28	300.17
712.61	299.17
712.95	298.23
713.28	297.36
713.61	296.46
713.95	295.58
714.28	294.77
714.61	293.91
714.95	293.06
715.28	292.22
715.61	291.34
715.95	290.49
716.28	289.58
716.61	288.74
716.95	287.93
717.28	287.19
717.61	286.41
717.94	285.66
718.28	284.86
718.61	284.14
718.94	283.41
719.27	282.78
719.61	282.13
719.94	281.48
720.27	280.75
720.60	280.10
720.94	279.48
721.27	278.90
721.60	278.31
721.93	277.72
722.27	277.16
722.60	276.61
722.93	276.02
723.26	275.55
723.59	274.99
723.93	274.46
724.26	273.92
724.59	273.36
724.92	272.86
725.25	272.37
725.59	271.82
725.92	271.33
726.25	270.80
726.58	270.32
726.91	269.85
727.24	269.36
727.57	268.92
727.91	268.41
728.24	267.96
728.57	267.48
728.90	267.04
729.23	266.55
729.56	266.15
729.89	265.71
730.22	265.21
730.55	264.76
730.89	264.29
731.22	263.86
731.55	263.43
731.88	263.01
732.21	262.61
732.54	262.17
732.87	261.73
733.20	261.36
733.53	261.01
733.86	260.63
734.19	260.29
734.52	259.87
734.85	259.57
735.18	259.12
735.51	258.77
735.84	258.39
736.17	258.05
736.50	257.60
736.83	257.36
737.16	257.00
737.49	256.65
737.82	256.34
738.15	255.98
738.48	255.65
738.81	255.36
739.14	255.01
739.47	254.69
739.80	254.41
740.13	254.13
740.46	253.75
740.79	253.40
741.12	253.07
741.45	252.75
741.78	252.40
742.11	252.12
742.44	251.79
742.77	251.50
743.10	251.19
743.43	250.93
743.75	250.54
744.08	250.43
744.41	250.16
744.74	249.87
745.07	249.59
745.40	249.30
745.73	249.01
746.06	248.70
746.39	248.47
746.71	248.20
747.04	247.91
747.37	247.63
747.70	247.40
748.03	247.13
748.36	246.93
748.68	246.67
749.01	246.41
749.34	246.20
749.67	245.93
750.00	245.71
750.33	245.56
750.65	245.34
750.98	244.98
751.31	244.76
751.64	244.54
751.97	244.39
752.29	244.20
752.62	243.94
752.95	243.75
753.28	243.53
753.60	243.31
753.93	243.08
754.26	242.88
754.59	242.64
754.91	242.41
755.24	242.20
755.57	242.00
755.90	241.80
756.22	241.58
756.55	241.40
756.88	241.19
757.20	240.90
757.53	240.70
757.86	240.53
758.19	240.36
758.51	240.17
758.84	239.93
759.17	239.76
759.49	239.63
759.82	239.51
760.15	239.37
760.47	239.21
760.80	239.05
761.13	238.93
761.45	238.79
761.78	238.63
762.11	238.51
762.43	238.37
762.76	238.22
763.08	238.12
763.41	237.99
763.74	237.87
764.06	237.75
764.39	237.57
764.71	237.43
765.04	237.28
765.37	237.19
765.69	237.08
766.02	236.95
766.34	236.82
766.67	236.68
767.00	236.57
767.32	236.54
767.65	236.51
767.97	236.38
768.30	236.31
768.62	236.26
768.95	236.12
769.27	236.02
769.60	235.99
769.92	235.83
770.25	235.72
770.57	235.62
770.90	235.55
771.22	235.50
771.55	235.42
771.87	235.34
772.20	235.19
772.52	235.18
772.85	235.24
773.17	235.16
773.50	235.06
773.82	234.96
774.15	234.79
774.47	234.65
774.80	234.56
775.12	234.45
775.45	234.36
775.77	234.30
776.09	234.22
776.42	234.12
776.74	234.13
777.07	234.07
777.39	233.99
777.72	233.90
778.04	233.84
778.36	233.77
778.69	233.72
779.01	233.67
779.33	233.54
779.66	233.31
779.98	233.23
780.31	233.17
780.63	233.16
780.95	233.12
781.28	233.09
781.60	233.02
781.92	232.98
782.25	232.89
782.57	232.85
782.89	232.78
783.22	232.74
783.54	232.66
783.86	232.62
784.19	232.55
784.51	232.52
784.83	232.47
785.16	232.43
785.48	232.39
785.80	232.37
786.12	232.29
786.45	232.27
786.77	232.22
787.09	232.20
787.42	232.08
787.74	232.03
788.06	231.98
788.38	231.93
788.71	231.86
789.03	231.82
789.35	231.77
789.67	231.71
789.99	231.63
790.32	231.55
790.64	231.47
790.96	231.51
791.28	231.43
791.61	231.38
791.93	231.34
792.25	231.28
792.57	231.28
792.89	231.23
793.21	231.20
793.54	231.17
793.86	231.08
794.18	231.05
794.50	230.97
794.82	230.93
795.14	230.90
795.47	230.88
795.79	230.84
796.11	230.78
796.43	230.70
796.75	230.69
797.07	230.66
797.39	230.65
797.71	230.52
798.04	230.52
798.36	230.45
798.68	230.40
799.00	230.37
799.32	230.29
799.64	230.24
799.96	230.18
800.28	230.13
800.60	230.07
800.92	230.07
801.24	230.06
801.56	229.94
801.89	229.89
802.21	229.86
802.53	229.81
802.85	229.80
803.17	229.84
803.49	229.76
803.81	229.73
804.13	229.70
804.45	229.68
804.77	229.63
805.09	229.63
805.41	229.55
805.73	229.52
806.05	229.48
806.37	229.46
806.69	229.43
807.01	229.41
807.33	229.41
807.65	229.33
807.97	229.33
808.28	229.36
808.60	229.33
808.92	229.28
809.24	229.31
809.56	229.28
809.88	229.25
810.20	229.25
810.52	229.23
810.84	229.15
811.16	229.10
811.48	229.09
811.80	229.09
812.12	229.11
812.43	229.11
812.75	229.10
813.07	229.10
813.39	229.11
813.71	229.05
814.03	229.06
814.35	229.05
814.67	229.01
814.98	228.98
815.30	228.99
815.62	228.96
815.94	228.89
816.26	228.93
816.58	228.89
816.89	228.89
817.21	228.87
817.53	228.89
817.85	228.89
818.17	228.86
818.48	228.82
818.80	228.83
819.12	228.80
819.44	228.76
819.76	228.75
820.07	228.72
820.39	228.73
820.71	228.73
821.03	228.71
821.34	228.70
821.66	228.71
821.98	228.71
822.30	228.70
822.61	228.76
822.93	228.68
823.25	228.65
823.57	228.62
823.88	228.59
824.20	228.58
824.52	228.63
824.83	228.61
825.15	228.58
825.47	228.54
825.79	228.53
826.10	228.50
826.42	228.46
826.74	228.45
827.05	228.47
827.37	228.47
827.69	228.48
828.00	228.43
828.32	228.39
828.64	228.37
828.95	228.42
829.27	228.37
829.58	228.37
829.90	228.38
830.22	228.37
830.53	228.36
830.85	228.33
831.17	228.27
831.48	228.25
831.80	228.27
832.11	228.24
832.43	228.21
832.75	228.23
833.06	228.27
833.38	228.22
833.69	228.18
834.01	228.16
834.32	228.14
834.64	228.14
834.96	228.12
835.27	228.09
835.59	228.06
835.90	228.00
836.22	227.98
836.53	227.96
836.85	227.96
837.16	228.01
837.48	228.01
837.79	228.03
838.11	228.03
838.42	227.99
838.74	228.00
839.05	227.96
839.37	227.93
839.68	227.84
840.00	227.81
840.31	227.78
840.63	227.75
840.94	227.75
841.26	227.75
841.57	227.74
841.88	227.72
842.20	227.69
842.51	227.69
842.83	227.69
843.14	227.77
843.46	227.76
843.77	227.71
844.08	227.68
844.40	227.68
844.71	227.67
845.03	227.67
845.34	227.68
845.65	227.68
845.97	227.65
846.28	227.68
846.60	227.72
846.91	227.72
847.22	227.72
847.54	227.74
847.85	227.73
848.16	227.71
848.48	227.72
848.79	227.76
849.10	227.75
849.42	227.72
849.73	227.63
850.04	227.61
850.36	227.59
850.67	227.63
850.98	227.64
851.30	227.64
851.61	227.63
851.92	227.62
852.23	227.70
852.55	227.75
852.86	227.74
853.17	227.71
853.49	227.73
853.80	227.76
854.11	227.71
854.42	227.74
854.74	227.77
855.05	227.76
855.36	227.70
855.67	227.74
855.99	227.78
856.30	227.88
856.61	227.89
856.92	227.89
857.23	227.87
857.55	227.85
857.86	227.83
858.17	227.82
858.48	227.80
858.79	227.79
859.11	227.79
859.42	227.78
859.73	227.81
860.04	227.83
860.35	227.77
860.66	227.78
860.98	227.78
861.29	227.77
861.60	227.77
861.91	227.80
862.22	227.75
862.53	227.72
862.84	227.60
863.16	227.61
863.47	227.59
863.78	227.61
864.09	227.61
864.40	227.63
864.71	227.68
865.02	227.71
865.33	227.68
865.64	227.63
865.95	227.63
866.27	227.71
866.58	227.71
866.89	227.73
867.20	227.71
867.51	227.67
867.82	227.67
868.13	227.68
868.44	227.64
868.75	227.67
869.06	227.66
869.37	227.65
869.68	227.64
869.99	227.68
870.30	227.67
870.61	227.66
870.92	227.64
871.23	227.59
871.54	227.60
871.85	227.59
872.16	227.60
872.47	227.60
872.78	227.51
873.09	227.48
873.40	227.46
873.71	227.49
874.02	227.49
874.33	227.45
874.64	227.44
874.95	227.45
875.26	227.47
875.56	227.50
875.87	227.52
876.18	227.51
876.49	227.56
876.80	227.52
877.11	227.50
877.42	227.49
877.73	227.51
878.04	227.47
878.35	227.46
878.66	227.45
878.96	227.45
879.27	227.45
879.58	227.45
879.89	227.43
880.20	227.45
880.51	227.43
880.82	227.46
881.12	227.46
881.43	227.44
881.74	227.41
882.05	227.38
882.36	227.36
882.67	227.35
882.97	227.25
883.28	227.25
883.59	227.27
883.90	227.27
884.21	227.29
884.51	227.28
884.82	227.26
885.13	227.28
885.44	227.28
885.74	227.28
886.05	227.25
886.36	227.25
886.67	227.21
886.98	227.27
887.28	227.30
887.59	227.32
887.90	227.32
888.20	227.31
888.51	227.32
888.82	227.33
889.13	227.34
889.43	227.44
889.74	227.48
890.05	227.45
890.35	227.44
890.66	227.41
890.97	227.43
891.28	227.44
891.58	227.44
891.89	227.44
892.20	227.46
892.50	227.47
892.81	227.48
893.12	227.49
893.42	227.44
893.73	227.44
894.04	227.36
894.34	227.38
894.65	227.37
894.95	227.38
895.26	227.35
895.57	227.43
895.87	227.36
896.18	227.34
896.48	227.37
896.79	227.38
897.10	227.40
897.40	227.39
897.71	227.42
898.01	227.41
898.32	227.39
898.63	227.37
898.93	227.38
899.24	227.40
899.54	227.38
899.85	227.35
900.15	227.35
900.46	227.40
900.76	227.42
901.07	227.43
901.38	227.40
901.68	227.44
901.99	227.35
902.29	227.31
902.60	227.30
902.90	227.29
903.21	227.30
903.51	227.28
903.82	227.31
904.12	227.30
904.43	227.31
904.73	227.33
905.03	227.33
905.34	227.42
905.64	227.42
905.95	227.41
906.25	227.43
906.56	227.41
906.86	227.43
907.17	227.41
907.47	227.41
907.77	227.41
908.08	227.38
908.38	227.42
908.69	227.44
908.99	227.44
909.30	227.45
909.60	227.41
909.90	227.41
910.21	227.39
910.51	227.35
910.81	227.33
911.12	227.34
911.42	227.33
911.73	227.22
912.03	227.22
912.33	227.24
912.64	227.24
912.94	227.21
913.24	227.17
913.55	227.17
913.85	227.17
914.15	227.19
914.46	227.19
914.76	227.15
915.06	227.16
915.37	227.12
915.67	227.10
915.97	227.11
916.27	227.08
916.58	227.07
916.88	227.06
917.18	227.04
917.49	227.10
917.79	227.11
918.09	227.13
918.39	227.16
918.70	227.15
919.00	227.16
919.30	227.25
919.60	227.26
919.91	227.25
920.21	227.25
920.51	227.20
920.81	227.20
921.12	227.21
921.42	227.20
921.72	227.23
922.02	227.22
922.32	227.25
922.63	227.27
922.93	227.31
923.23	227.32
923.53	227.31
923.83	227.27
924.13	227.27
924.44	227.26
924.74	227.26
925.04	227.28
925.34	227.26
925.64	227.21
925.94	227.18
926.24	227.24
926.55	227.22
926.85	227.22
927.15	227.23
927.45	227.26
927.75	227.26
928.05	227.26
928.35	227.28
928.65	227.27
928.95	227.27
929.26	227.25
929.56	227.31
929.86	227.35
930.16	227.33
930.46	227.32
930.76	227.34
931.06	227.25
931.36	227.25
931.66	227.26
931.96	227.26
932.26	227.27
932.56	227.23
932.86	227.23
933.16	227.23
933.46	227.21
933.76	227.16
934.06	227.19
934.36	227.23
934.66	227.21
934.96	227.19
935.26	227.18
935.56	227.17
935.86	227.14
936.16	227.11
936.46	227.08
936.76	227.11
937.06	227.08
937.36	227.10
937.66	227.09
937.96	227.09
938.26	227.06
938.56	227.05
938.86	227.05
939.16	227.12
939.46	227.14
939.76	227.18
940.06	227.19
940.35	227.15
940.65	227.09
940.95	227.10
941.25	227.09
941.55	227.11
941.85	227.10
942.15	227.09
942.45	227.15
942.75	227.16
943.04	227.15
943.34	227.16
943.64	227.17
943.94	227.14
944.24	227.11
944.54	227.16
944.84	227.17
945.13	227.14
945.43	227.10
945.73	227.05
946.03	227.02
946.33	227.01
946.62	227.00
946.92	227.01
947.22	227.03
947.52	227.04
947.82	227.03
948.11	227.05
948.41	227.06
948.71	226.99
949.01	227.01
949.31	227.00
949.60	226.96
949.90	226.99
950.20	227.00
950.50	227.01
950.79	226.96
951.09	226.98
951.39	227.00
951.69	226.96
951.98	227.01
952.28	227.05
952.58	227.06
952.87	227.06
953.17	227.08
953.47	227.06
953.76	227.05
954.06	227.02
954.36	226.98
954.66	226.97
954.95	227.01
955.25	227.04
955.55	227.03
955.84	227.04
956.14	227.04
956.44	227.06
956.73	227.04
957.03	227.06
957.32	227.01
957.62	226.98
957.92	227.03
958.21	227.02
958.51	227.08
958.81	227.07
959.10	227.08
959.40	227.10
959.69	227.11
959.99	227.12
960.29	227.13
960.58	227.16
960.88	227.16
961.17	227.14
961.47	227.12
961.76	227.10
962.06	227.12
962.36	227.10
962.65	227.09
962.95	227.13
963.24	227.14
963.54	227.18
963.83	227.20
964.13	227.17
964.42	227.14
964.72	227.10
965.01	227.09
965.31	227.08
965.60	227.05
965.90	227.07
966.19	227.05
966.49	227.04
966.78	226.97
967.08	226.97
967.37	226.98
967.67	226.96
967.96	226.98
968.26	226.97
968.55	226.96
968.85	226.97
969.14	226.93
969.43	226.92
969.73	226.89
970.02	226.91
970.32	226.90
970.61	226.91
970.91	226.88
971.20	226.89
971.49	226.87
971.79	226.87
972.08	226.81
972.38	226.84
972.67	226.84
972.96	226.91
973.26	226.88
973.55	226.90
973.85	226.88
974.14	226.87
974.43	226.86
974.73	226.85
975.02	226.84
975.31	226.84
975.61	226.82
975.90	226.82
976.19	226.82
976.49	226.85
976.78	226.85
977.07	226.85
977.37	226.83
977.66	226.84
977.95	226.85
978.24	226.87
978.54	226.88
978.83	226.86
979.12	226.85
979.42	226.88
979.71	226.85
980.00	226.89
980.29	226.89
980.59	226.90
980.88	226.97
981.17	226.95
981.46	226.94
981.76	226.97
982.05	227.01
982.34	227.01
982.63	226.98
982.93	226.99
983.22	227.01
983.51	227.03
983.80	227.04
984.09	227.06
984.39	227.05
984.68	227.04
984.97	227.05
985.26	227.03
985.55	227.01
985.85	227.00
986.14	227.01
986.43	227.03
986.72	227.00
987.01	226.96
987.30	226.97
987.59	226.97
987.89	226.97
988.18	226.92
988.47	226.92
988.76	226.91
989.05	226.90
989.34	226.88
989.63	226.88
989.92	226.89
990.22	226.88
990.51	226.87
990.80	226.89
991.09	226.92
991.38	226.94
991.67	226.95
991.96	226.94
992.25	226.94
992.54	226.91
992.83	226.94
993.12	226.95
993.41	226.99
993.70	227.03
993.99	227.05
994.28	227.08
994.58	227.11
994.87	227.10
995.16	227.08
995.45	227.08
995.74	227.05
996.03	227.03
996.32	227.04
996.61	227.07
996.90	227.06
997.19	227.04
997.48	227.02
997.77	226.99
998.06	226.98
998.34	226.97
998.63	226.98
998.92	226.99
999.21	226.95
999.50	226.94
999.79	226.91
1000.08	226.88
1000.37	226.89
1000.66	226.87
1000.95	226.91
1001.24	226.92
1001.53	226.95
1001.82	226.96
1002.11	226.94
1002.40	226.94
1002.68	226.94
1002.97	226.99
1003.26	226.98
1003.55	226.97
1003.84	227.02
1004.13	227.07
1004.42	227.04
1004.71	227.05
1004.99	227.01
1005.28	227.08
1005.57	227.06
1005.86	227.04
1006.15	227.04
1006.44	226.99
1006.72	226.98
1007.01	226.97
1007.30	226.97
1007.59	226.94
1007.88	226.94
1008.17	226.93
1008.45	226.91
1008.74	226.88
1009.03	226.86
1009.32	226.87
1009.60	226.89
1009.89	226.87
1010.18	226.85
1010.47	226.85
1010.76	226.85
1011.04	226.86
1011.33	226.84
1011.62	226.85
1011.91	226.87
1012.19	226.87
1012.48	226.90
1012.77	226.89
1013.05	226.93
1013.34	226.94
1013.63	226.95
1013.92	226.93
1014.20	226.97
1014.49	227.00
1014.78	227.02
1015.06	227.01
1015.35	227.01
1015.64	227.02
1015.92	227.01
1016.21	226.99
1016.50	227.02
1016.78	227.02
1017.07	227.05
1017.36	227.02
1017.64	227.00
1017.93	227.02
1018.22	227.02
1018.50	227.04
1018.79	227.03
1019.08	226.99
1019.36	226.96
1019.65	226.94
1019.93	226.98
1020.22	226.98
1020.51	227.00
1020.79	226.98
1021.08	227.18
1021.36	226.99
1021.65	226.36
1021.94	227.06
1022.22	226.51
1022.51	226.42
1022.79	227.53
1023.08	227.12
1023.36	228.01
1023.65	226.97
>>>>>End Processed Spectral Data<<<<<
