SpectraSuite Data File
++++++++++++++++++++++++++++++++++++
Date: Fri Feb 01 16:19:47 EST 2013
User: group
Dark Spectrum Present: No
Reference Spectrum Present: No
Number of Sampled Component Spectra: 1
Spectrometers: USB2E7196
Integration Time (usec): 35000 (USB2E7196)
Spectra Averaged: 100 (USB2E7196)
Boxcar Smoothing: 10 (USB2E7196)
Correct for Electrical Dark: No (USB2E7196)
Strobe/Lamp Enabled: No (USB2E7196)
Correct for Detector Non-linearity: No (USB2E7196)
Correct for Stray Light: No (USB2E7196)
Number of Pixels in Processed Spectrum: 2048
>>>>>Begin Processed Spectral Data<<<<<
339.09	0.00
339.48	213.93
339.86	215.39
340.24	217.09
340.63	218.43
341.01	220.89
341.39	221.32
341.78	221.82
342.16	223.64
342.54	224.50
342.93	212.48
343.31	223.23
343.69	223.77
344.07	224.21
344.46	224.63
344.84	224.98
345.22	225.24
345.60	225.46
345.99	225.67
346.37	225.80
346.75	225.85
347.13	225.90
347.52	225.95
347.90	226.02
348.28	226.06
348.66	226.11
349.05	226.08
349.43	226.12
349.81	226.14
350.19	226.18
350.57	226.21
350.96	226.26
351.34	226.33
351.72	226.42
352.10	226.54
352.48	226.61
352.87	226.67
353.25	226.71
353.63	226.77
354.01	226.82
354.39	226.90
354.77	227.00
355.15	227.10
355.54	227.15
355.92	227.19
356.30	227.26
356.68	227.39
357.06	227.44
357.44	227.50
357.82	227.54
358.20	227.64
358.58	227.69
358.97	227.74
359.35	227.85
359.73	227.93
360.11	227.99
360.49	228.03
360.87	228.09
361.25	228.14
361.63	228.20
362.01	228.26
362.39	228.29
362.77	228.32
363.15	228.33
363.53	228.38
363.91	228.42
364.29	228.43
364.67	228.39
365.05	228.42
365.43	228.44
365.81	228.47
366.19	228.52
366.57	228.58
366.95	228.59
367.33	228.56
367.71	228.51
368.09	228.52
368.47	228.52
368.85	228.54
369.23	228.58
369.61	228.55
369.99	228.56
370.37	228.53
370.75	228.54
371.13	228.50
371.51	228.47
371.89	228.43
372.27	228.40
372.65	228.34
373.03	228.31
373.41	228.25
373.78	228.21
374.16	228.10
374.54	228.04
374.92	227.99
375.30	227.88
375.68	227.83
376.06	227.75
376.44	227.67
376.82	227.58
377.19	227.49
377.57	227.45
377.95	227.35
378.33	227.27
378.71	227.20
379.09	227.14
379.47	227.10
379.84	227.03
380.22	226.97
380.60	226.87
380.98	226.78
381.36	226.75
381.73	226.65
382.11	226.62
382.49	226.56
382.87	226.48
383.25	226.47
383.62	226.49
384.00	226.42
384.38	226.38
384.76	226.36
385.13	226.35
385.51	226.27
385.89	226.20
386.27	226.20
386.64	226.12
387.02	226.09
387.40	226.01
387.78	225.98
388.15	225.95
388.53	225.93
388.91	225.92
389.29	225.85
389.66	225.86
390.04	225.76
390.42	225.73
390.79	225.70
391.17	225.67
391.55	225.56
391.92	225.55
392.30	225.56
392.68	225.52
393.05	225.50
393.43	225.53
393.81	225.55
394.18	225.52
394.56	225.52
394.94	225.52
395.31	225.52
395.69	225.54
396.06	225.56
396.44	225.58
396.82	225.61
397.19	225.67
397.57	225.68
397.95	225.78
398.32	225.79
398.70	225.85
399.07	225.94
399.45	225.99
399.82	226.06
400.20	226.09
400.58	226.14
400.95	226.18
401.33	226.21
401.70	226.36
402.08	226.46
402.45	226.56
402.83	226.65
403.20	226.74
403.58	226.82
403.95	226.94
404.33	227.08
404.71	227.18
405.08	227.39
405.46	227.54
405.83	227.68
406.21	227.81
406.58	227.98
406.96	228.13
407.33	228.30
407.70	228.49
408.08	228.77
408.45	229.01
408.83	229.23
409.20	229.45
409.58	229.61
409.95	229.84
410.33	230.09
410.70	230.38
411.08	230.69
411.45	231.00
411.82	231.31
412.20	231.67
412.57	232.11
412.95	232.40
413.32	232.83
413.69	233.23
414.07	233.71
414.44	234.18
414.82	234.66
415.19	235.23
415.56	235.78
415.94	236.33
416.31	236.93
416.68	237.54
417.06	238.29
417.43	239.00
417.81	239.77
418.18	240.56
418.55	241.38
418.93	242.24
419.30	243.15
419.67	244.08
420.04	245.06
420.42	246.02
420.79	247.19
421.16	248.33
421.54	249.53
421.91	250.74
422.28	251.98
422.66	253.33
423.03	254.64
423.40	255.99
423.77	257.37
424.15	258.81
424.52	260.35
424.89	261.97
425.26	263.51
425.64	264.96
426.01	266.58
426.38	268.24
426.75	269.91
427.13	271.66
427.50	273.46
427.87	275.32
428.24	277.18
428.61	278.91
428.99	280.84
429.36	282.93
429.73	285.00
430.10	286.96
430.47	289.01
430.85	291.07
431.22	293.31
431.59	295.66
431.96	297.91
432.33	300.35
432.70	302.74
433.08	305.58
433.45	308.19
433.82	310.79
434.19	313.67
434.56	316.49
434.93	319.15
435.30	321.75
435.68	324.65
436.05	327.47
436.42	330.24
436.79	332.74
437.16	335.44
437.53	338.27
437.90	341.14
438.27	343.85
438.64	346.66
439.01	349.21
439.38	351.45
439.75	353.55
440.13	356.03
440.50	358.32
440.87	360.11
441.24	362.06
441.61	364.16
441.98	365.63
442.35	367.37
442.72	369.16
443.09	370.96
443.46	371.95
443.83	372.53
444.20	373.02
444.57	373.79
444.94	374.04
445.31	374.34
445.68	374.68
446.05	374.75
446.42	374.37
446.79	373.98
447.16	373.54
447.53	373.25
447.90	372.09
448.27	370.94
448.64	369.35
449.01	368.25
449.37	366.28
449.74	364.38
450.11	362.19
450.48	359.74
450.85	357.21
451.22	355.05
451.59	353.05
451.96	351.13
452.33	348.53
452.70	346.18
453.07	343.34
453.43	340.38
453.80	337.63
454.17	334.95
454.54	332.41
454.91	329.72
455.28	327.08
455.65	324.61
456.02	322.14
456.38	320.01
456.75	317.33
457.12	315.11
457.49	312.86
457.86	310.69
458.23	308.85
458.59	306.85
458.96	304.80
459.33	302.97
459.70	301.15
460.07	299.67
460.43	297.98
460.80	296.39
461.17	295.03
461.54	293.56
461.91	292.16
462.27	290.73
462.64	289.46
463.01	288.10
463.38	286.79
463.74	285.44
464.11	284.31
464.48	283.30
464.85	282.23
465.21	281.39
465.58	280.48
465.95	279.40
466.32	278.48
466.68	277.55
467.05	276.63
467.42	275.75
467.78	274.89
468.15	274.03
468.52	273.37
468.88	272.50
469.25	271.77
469.62	271.15
469.98	270.48
470.35	269.86
470.72	269.31
471.08	268.68
471.45	268.16
471.82	267.61
472.18	267.00
472.55	266.55
472.92	266.05
473.28	265.62
473.65	265.18
474.02	264.74
474.38	264.40
474.75	264.12
475.11	263.76
475.48	263.48
475.85	263.27
476.21	263.06
476.58	262.87
476.94	262.73
477.31	262.57
477.67	262.41
478.04	262.33
478.41	262.24
478.77	262.28
479.14	262.26
479.50	262.23
479.87	262.34
480.23	262.42
480.60	262.49
480.96	262.56
481.33	262.77
481.69	262.98
482.06	263.15
482.42	263.34
482.79	263.59
483.15	263.89
483.52	264.27
483.88	264.60
484.25	264.97
484.61	265.38
484.98	265.83
485.34	266.39
485.71	266.96
486.07	267.57
486.44	268.15
486.80	268.81
487.17	269.56
487.53	270.35
487.90	271.21
488.26	272.16
488.62	273.15
488.99	274.12
489.35	275.14
489.72	276.24
490.08	277.43
490.44	278.67
490.81	280.05
491.17	281.40
491.54	282.88
491.90	284.46
492.26	286.08
492.63	287.82
492.99	289.62
493.36	291.53
493.72	293.58
494.08	295.71
494.45	298.01
494.81	300.40
495.17	302.81
495.54	305.34
495.90	308.00
496.26	310.80
496.63	313.79
496.99	316.94
497.35	320.30
497.72	323.71
498.08	327.25
498.44	330.89
498.80	334.78
499.17	338.84
499.53	343.01
499.89	347.43
500.26	351.98
500.62	356.63
500.98	361.64
501.34	366.77
501.71	372.07
502.07	377.53
502.43	383.13
502.79	389.00
503.16	395.15
503.52	401.48
503.88	407.90
504.24	414.55
504.60	421.44
504.97	428.54
505.33	435.88
505.69	443.64
506.05	451.41
506.41	459.38
506.78	467.55
507.14	476.02
507.50	484.73
507.86	493.75
508.22	502.97
508.59	512.15
508.95	521.69
509.31	531.58
509.67	541.68
510.03	551.97
510.39	562.58
510.75	573.37
511.12	584.28
511.48	595.59
511.84	606.96
512.20	618.46
512.56	630.41
512.92	642.66
513.28	655.05
513.64	667.57
514.00	680.30
514.37	693.25
514.73	706.39
515.09	719.52
515.45	732.87
515.81	746.47
516.17	760.45
516.53	774.62
516.89	788.77
517.25	802.91
517.61	817.42
517.97	831.82
518.33	846.17
518.69	860.98
519.05	875.93
519.41	891.15
519.77	906.70
520.13	922.11
520.49	937.35
520.85	952.70
521.21	968.43
521.57	984.59
521.93	1000.18
522.29	1016.48
522.65	1032.64
523.01	1048.88
523.37	1064.85
523.73	1081.02
524.09	1097.04
524.45	1113.25
524.81	1129.72
525.17	1146.43
525.53	1163.39
525.89	1180.20
526.25	1196.96
526.61	1213.32
526.97	1230.07
527.33	1246.45
527.68	1263.01
528.04	1279.44
528.40	1295.83
528.76	1312.77
529.12	1329.35
529.48	1346.24
529.84	1362.09
530.20	1378.62
530.56	1395.40
530.91	1412.83
531.27	1429.49
531.63	1445.86
531.99	1462.43
532.35	1478.36
532.71	1494.19
533.07	1510.34
533.42	1526.26
533.78	1542.18
534.14	1558.33
534.50	1573.59
534.86	1589.39
535.21	1604.54
535.57	1620.47
535.93	1636.07
536.29	1650.78
536.65	1665.73
537.00	1680.56
537.36	1695.78
537.72	1710.33
538.08	1724.68
538.44	1738.35
538.79	1752.22
539.15	1765.79
539.51	1779.31
539.87	1793.63
540.22	1807.22
540.58	1820.94
540.94	1834.13
541.29	1846.91
541.65	1859.59
542.01	1872.65
542.37	1884.83
542.72	1897.21
543.08	1908.97
543.44	1921.27
543.79	1932.54
544.15	1943.47
544.51	1954.92
544.87	1965.90
545.22	1976.55
545.58	1986.76
545.94	1996.46
546.29	2006.23
546.65	2016.05
547.01	2025.37
547.36	2034.02
547.72	2042.54
548.07	2050.27
548.43	2058.37
548.79	2066.51
549.14	2074.01
549.50	2081.26
549.86	2089.03
550.21	2096.33
550.57	2103.41
550.92	2109.91
551.28	2116.84
551.64	2123.91
551.99	2130.33
552.35	2136.54
552.70	2142.69
553.06	2148.56
553.41	2154.93
553.77	2160.89
554.13	2167.07
554.48	2173.24
554.84	2178.87
555.19	2184.17
555.55	2189.35
555.90	2193.99
556.26	2198.74
556.61	2203.52
556.97	2207.93
557.32	2211.99
557.68	2216.04
558.03	2220.36
558.39	2224.18
558.74	2228.96
559.10	2232.75
559.45	2236.58
559.81	2240.85
560.16	2244.78
560.52	2248.16
560.87	2251.53
561.23	2254.24
561.58	2257.23
561.94	2259.77
562.29	2261.97
562.64	2264.56
563.00	2267.15
563.35	2270.46
563.71	2273.62
564.06	2276.81
564.42	2279.56
564.77	2282.17
565.12	2284.49
565.48	2286.52
565.83	2288.27
566.19	2289.52
566.54	2290.49
566.89	2291.52
567.25	2292.12
567.60	2293.34
567.96	2295.00
568.31	2295.96
568.66	2297.03
569.02	2297.57
569.37	2298.07
569.72	2299.00
570.08	2299.34
570.43	2299.41
570.78	2299.01
571.14	2297.48
571.49	2296.10
571.84	2295.98
572.20	2294.89
572.55	2293.92
572.90	2292.24
573.26	2291.08
573.61	2289.31
573.96	2287.57
574.31	2284.59
574.67	2281.71
575.02	2278.10
575.37	2274.75
575.72	2270.95
576.08	2267.70
576.43	2264.39
576.78	2260.62
577.13	2257.47
577.49	2254.23
577.84	2250.74
578.19	2247.12
578.54	2243.56
578.90	2239.30
579.25	2233.67
579.60	2228.64
579.95	2223.58
580.30	2218.66
580.66	2213.35
581.01	2208.49
581.36	2203.64
581.71	2199.57
582.06	2195.10
582.42	2190.77
582.77	2185.60
583.12	2181.23
583.47	2176.60
583.82	2171.68
584.17	2166.42
584.53	2161.16
584.88	2155.66
585.23	2149.83
585.58	2144.29
585.93	2139.05
586.28	2134.58
586.63	2129.68
586.98	2124.81
587.34	2120.32
587.69	2115.51
588.04	2110.33
588.39	2104.79
588.74	2098.34
589.09	2092.27
589.44	2085.52
589.79	2079.47
590.14	2073.83
590.49	2067.09
590.84	2060.65
591.19	2054.51
591.54	2048.15
591.89	2040.67
592.25	2033.98
592.60	2026.93
592.95	2019.48
593.30	2011.97
593.65	2004.33
594.00	1997.23
594.35	1989.94
594.70	1981.80
595.05	1974.52
595.40	1967.30
595.75	1959.78
596.10	1953.74
596.45	1947.01
596.80	1940.91
597.15	1934.35
597.50	1927.35
597.85	1920.90
598.19	1914.43
598.54	1907.39
598.89	1900.80
599.24	1895.02
599.59	1888.27
599.94	1882.11
600.29	1875.71
600.64	1869.21
600.99	1861.83
601.34	1855.07
601.69	1848.19
602.04	1841.37
602.39	1834.06
602.74	1827.25
603.08	1820.58
603.43	1813.77
603.78	1806.45
604.13	1799.30
604.48	1791.93
604.83	1785.12
605.18	1778.19
605.53	1770.09
605.87	1762.20
606.22	1755.01
606.57	1747.04
606.92	1739.82
607.27	1732.70
607.62	1725.83
607.96	1718.59
608.31	1711.97
608.66	1704.42
609.01	1696.79
609.36	1689.26
609.70	1681.24
610.05	1673.24
610.40	1665.51
610.75	1657.14
611.10	1649.57
611.44	1641.04
611.79	1633.17
612.14	1624.49
612.49	1615.36
612.83	1606.98
613.18	1598.77
613.53	1590.51
613.88	1581.91
614.22	1573.51
614.57	1564.86
614.92	1556.78
615.27	1549.14
615.61	1540.74
615.96	1532.65
616.31	1525.15
616.65	1517.81
617.00	1510.25
617.35	1502.50
617.70	1494.18
618.04	1485.73
618.39	1477.46
618.74	1469.80
619.08	1461.48
619.43	1453.91
619.78	1447.07
620.12	1439.82
620.47	1432.29
620.82	1424.23
621.16	1416.88
621.51	1409.37
621.85	1401.78
622.20	1393.23
622.55	1384.95
622.89	1377.13
623.24	1369.41
623.59	1361.74
623.93	1354.18
624.28	1346.96
624.62	1339.52
624.97	1332.35
625.32	1325.62
625.66	1318.63
626.01	1311.61
626.35	1304.06
626.70	1296.20
627.04	1288.33
627.39	1280.67
627.73	1273.31
628.08	1266.38
628.43	1259.03
628.77	1251.55
629.12	1243.93
629.46	1236.79
629.81	1229.29
630.15	1222.09
630.50	1214.76
630.84	1206.67
631.19	1198.68
631.53	1191.16
631.88	1183.58
632.22	1175.95
632.57	1168.58
632.91	1160.95
633.26	1153.46
633.60	1146.20
633.95	1139.08
634.29	1132.19
634.64	1125.48
634.98	1118.16
635.32	1110.94
635.67	1104.29
636.01	1097.65
636.36	1090.89
636.70	1084.32
637.05	1077.67
637.39	1071.13
637.73	1064.56
638.08	1058.74
638.42	1052.76
638.77	1046.30
639.11	1039.62
639.45	1033.13
639.80	1026.51
640.14	1020.12
640.49	1013.54
640.83	1007.16
641.17	1000.84
641.52	994.40
641.86	987.91
642.20	982.08
642.55	975.80
642.89	969.31
643.23	962.78
643.58	957.03
643.92	950.89
644.26	944.89
644.61	938.89
644.95	932.86
645.29	926.24
645.64	919.52
645.98	913.20
646.32	907.37
646.66	901.37
647.01	895.50
647.35	889.76
647.69	883.86
648.04	878.33
648.38	872.68
648.72	866.64
649.06	860.56
649.41	854.64
649.75	848.71
650.09	842.76
650.43	836.96
650.78	830.74
651.12	824.79
651.46	819.11
651.80	813.35
652.14	807.98
652.49	802.60
652.83	797.45
653.17	791.78
653.51	786.12
653.85	780.77
654.20	775.16
654.54	769.13
654.88	763.48
655.22	757.58
655.56	751.88
655.90	746.48
656.25	741.27
656.59	735.82
656.93	730.65
657.27	725.49
657.61	720.08
657.95	715.05
658.29	710.00
658.64	704.73
658.98	699.42
659.32	694.01
659.66	688.79
660.00	683.38
660.34	678.40
660.68	673.40
661.02	668.29
661.36	663.59
661.70	659.15
662.05	654.82
662.39	650.50
662.73	646.00
663.07	641.64
663.41	637.15
663.75	632.71
664.09	628.18
664.43	623.81
664.77	619.69
665.11	615.35
665.45	611.15
665.79	606.99
666.13	602.84
666.47	598.70
666.81	594.50
667.15	590.40
667.49	586.44
667.83	582.62
668.17	578.69
668.51	574.52
668.85	570.45
669.19	566.56
669.53	562.78
669.87	558.95
670.21	555.15
670.55	551.52
670.89	548.01
671.23	544.59
671.57	541.05
671.91	537.42
672.25	533.95
672.58	530.38
672.92	526.97
673.26	523.76
673.60	520.55
673.94	517.44
674.28	514.55
674.62	511.61
674.96	508.50
675.30	505.57
675.64	502.61
675.97	499.78
676.31	496.89
676.65	493.87
676.99	491.10
677.33	488.26
677.67	485.40
678.01	482.38
678.34	479.37
678.68	476.51
679.02	473.70
679.36	470.82
679.70	468.13
680.04	465.41
680.37	462.52
680.71	459.77
681.05	457.16
681.39	454.41
681.73	451.73
682.06	449.18
682.40	446.66
682.74	444.22
683.08	441.72
683.42	439.09
683.75	436.63
684.09	434.06
684.43	431.60
684.77	429.19
685.10	426.81
685.44	424.52
685.78	422.17
686.12	419.98
686.45	417.74
686.79	415.43
687.13	413.24
687.46	411.13
687.80	409.00
688.14	406.82
688.48	404.73
688.81	402.49
689.15	400.38
689.49	398.22
689.82	396.10
690.16	394.03
690.50	392.08
690.83	390.10
691.17	388.16
691.51	386.26
691.84	384.34
692.18	382.45
692.52	380.43
692.85	378.50
693.19	376.61
693.52	374.82
693.86	372.99
694.20	371.19
694.53	369.36
694.87	367.44
695.21	365.62
695.54	363.80
695.88	362.12
696.21	360.35
696.55	358.69
696.88	357.01
697.22	355.32
697.56	353.71
697.89	352.10
698.23	350.52
698.56	348.89
698.90	347.36
699.23	345.73
699.57	344.22
699.90	342.70
700.24	341.18
700.58	339.63
700.91	338.13
701.25	336.70
701.58	335.33
701.92	334.02
702.25	332.68
702.59	331.29
702.92	329.94
703.26	328.66
703.59	327.37
703.93	326.16
704.26	324.96
704.60	323.67
704.93	322.35
705.26	321.05
705.60	319.88
705.93	318.68
706.27	317.62
706.60	316.56
706.94	315.49
707.27	314.34
707.61	313.26
707.94	312.22
708.27	311.10
708.61	310.04
708.94	309.08
709.28	308.07
709.61	307.15
709.94	306.22
710.28	305.20
710.61	304.22
710.95	303.16
711.28	302.22
711.61	301.30
711.95	300.38
712.28	299.46
712.61	298.47
712.95	297.56
713.28	296.68
713.61	295.77
713.95	294.88
714.28	294.06
714.61	293.20
714.95	292.38
715.28	291.52
715.61	290.64
715.95	289.73
716.28	288.86
716.61	288.02
716.95	287.18
717.28	286.43
717.61	285.67
717.94	284.93
718.28	284.11
718.61	283.37
718.94	282.66
719.27	281.98
719.61	281.33
719.94	280.67
720.27	279.90
720.60	279.26
720.94	278.65
721.27	278.01
721.60	277.41
721.93	276.81
722.27	276.25
722.60	275.70
722.93	275.14
723.26	274.60
723.59	274.02
723.93	273.49
724.26	272.90
724.59	272.35
724.92	271.81
725.25	271.34
725.59	270.80
725.92	270.31
726.25	269.78
726.58	269.27
726.91	268.77
727.24	268.37
727.57	267.85
727.91	267.33
728.24	266.89
728.57	266.41
728.90	265.96
729.23	265.48
729.56	265.04
729.89	264.56
730.22	264.07
730.55	263.64
730.89	263.17
731.22	262.74
731.55	262.28
731.88	261.87
732.21	261.41
732.54	260.96
732.87	260.56
733.20	260.20
733.53	259.84
733.86	259.47
734.19	259.04
734.52	258.67
734.85	258.37
735.18	257.95
735.51	257.59
735.84	257.22
736.17	256.86
736.50	256.51
736.83	256.26
737.16	255.97
737.49	255.63
737.82	255.30
738.15	254.99
738.48	254.68
738.81	254.33
739.14	254.05
739.47	253.77
739.80	253.44
740.13	253.14
740.46	252.79
740.79	252.49
741.12	252.19
741.45	251.93
741.78	251.59
742.11	251.33
742.44	251.03
742.77	250.74
743.10	250.47
743.43	250.12
743.75	249.81
744.08	249.63
744.41	249.36
744.74	249.10
745.07	248.83
745.40	248.60
745.73	248.40
746.06	248.11
746.39	247.88
746.71	247.62
747.04	247.34
747.37	247.08
747.70	246.86
748.03	246.62
748.36	246.36
748.68	246.09
749.01	245.85
749.34	245.60
749.67	245.38
750.00	245.17
750.33	245.04
750.65	244.78
750.98	244.46
751.31	244.23
751.64	244.02
751.97	243.86
752.29	243.63
752.62	243.40
752.95	243.21
753.28	242.99
753.60	242.78
753.93	242.58
754.26	242.39
754.59	242.13
754.91	241.91
755.24	241.71
755.57	241.55
755.90	241.33
756.22	241.14
756.55	240.92
756.88	240.72
757.20	240.50
757.53	240.32
757.86	240.14
758.19	239.98
758.51	239.82
758.84	239.59
759.17	239.39
759.49	239.19
759.82	239.02
760.15	238.83
760.47	238.67
760.80	238.52
761.13	238.37
761.45	238.19
761.78	238.01
762.11	237.86
762.43	237.68
762.76	237.55
763.08	237.41
763.41	237.27
763.74	237.14
764.06	236.97
764.39	236.82
764.71	236.67
765.04	236.52
765.37	236.39
765.69	236.22
766.02	236.08
766.34	235.90
766.67	235.75
767.00	235.67
767.32	235.58
767.65	235.49
767.97	235.38
768.30	235.31
768.62	235.21
768.95	235.09
769.27	234.95
769.60	234.83
769.92	234.73
770.25	234.59
770.57	234.45
770.90	234.33
771.22	234.19
771.55	234.07
771.87	233.96
772.20	233.83
772.52	233.86
772.85	233.89
773.17	233.82
773.50	233.73
773.82	233.62
774.15	233.50
774.47	233.36
774.80	233.25
775.12	233.13
775.45	233.02
775.77	232.92
776.09	232.87
776.42	232.80
776.74	232.72
777.07	232.67
777.39	232.59
777.72	232.51
778.04	232.44
778.36	232.37
778.69	232.33
779.01	232.27
779.33	232.09
779.66	231.92
779.98	231.86
780.31	231.82
780.63	231.77
780.95	231.73
781.28	231.67
781.60	231.63
781.92	231.59
782.25	231.55
782.57	231.50
782.89	231.44
783.22	231.39
783.54	231.32
783.86	231.25
784.19	231.18
784.51	231.16
784.83	231.11
785.16	231.08
785.48	231.02
785.80	230.97
786.12	230.94
786.45	230.90
786.77	230.83
787.09	230.76
787.42	230.72
787.74	230.65
788.06	230.62
788.38	230.57
788.71	230.52
789.03	230.50
789.35	230.50
789.67	230.43
789.99	230.40
790.32	230.36
790.64	230.35
790.96	230.44
791.28	230.39
791.61	230.36
791.93	230.31
792.25	230.26
792.57	230.30
792.89	230.25
793.21	230.22
793.54	230.19
793.86	230.15
794.18	230.10
794.50	230.06
794.82	230.01
795.14	229.99
795.47	229.97
795.79	229.93
796.11	229.87
796.43	229.84
796.75	229.80
797.07	229.80
797.39	229.76
797.71	229.66
798.04	229.64
798.36	229.61
798.68	229.57
799.00	229.56
799.32	229.46
799.64	229.45
799.96	229.40
800.28	229.39
800.60	229.34
800.92	229.31
801.24	229.28
801.56	229.26
801.89	229.23
802.21	229.18
802.53	229.17
802.85	229.15
803.17	229.15
803.49	229.10
803.81	229.03
804.13	228.99
804.45	228.91
804.77	228.89
805.09	228.88
805.41	228.83
805.73	228.79
806.05	228.75
806.37	228.70
806.69	228.70
807.01	228.68
807.33	228.70
807.65	228.63
807.97	228.64
808.28	228.61
808.60	228.58
808.92	228.55
809.24	228.57
809.56	228.52
809.88	228.44
810.20	228.42
810.52	228.43
810.84	228.37
811.16	228.36
811.48	228.29
811.80	228.27
812.12	228.25
812.43	228.26
812.75	228.24
813.07	228.20
813.39	228.16
813.71	228.10
814.03	228.04
814.35	228.03
814.67	227.96
814.98	227.91
815.30	227.86
815.62	227.81
815.94	227.70
816.26	227.71
816.58	227.68
816.89	227.68
817.21	227.63
817.53	227.67
817.85	227.65
818.17	227.65
818.48	227.60
818.80	227.59
819.12	227.53
819.44	227.51
819.76	227.51
820.07	227.50
820.39	227.48
820.71	227.49
821.03	227.50
821.34	227.47
821.66	227.51
821.98	227.54
822.30	227.57
822.61	227.65
822.93	227.61
823.25	227.58
823.57	227.57
823.88	227.59
824.20	227.57
824.52	227.58
824.83	227.58
825.15	227.58
825.47	227.58
825.79	227.59
826.10	227.57
826.42	227.55
826.74	227.55
827.05	227.56
827.37	227.57
827.69	227.55
828.00	227.57
828.32	227.53
828.64	227.49
828.95	227.54
829.27	227.48
829.58	227.48
829.90	227.52
830.22	227.51
830.53	227.46
830.85	227.44
831.17	227.42
831.48	227.42
831.80	227.41
832.11	227.40
832.43	227.40
832.75	227.41
833.06	227.46
833.38	227.43
833.69	227.43
834.01	227.40
834.32	227.40
834.64	227.37
834.96	227.38
835.27	227.37
835.59	227.31
835.90	227.31
836.22	227.30
836.53	227.27
836.85	227.24
837.16	227.36
837.48	227.35
837.79	227.35
838.11	227.32
838.42	227.31
838.74	227.34
839.05	227.31
839.37	227.29
839.68	227.26
840.00	227.25
840.31	227.25
840.63	227.24
840.94	227.22
841.26	227.19
841.57	227.16
841.88	227.19
842.20	227.15
842.51	227.14
842.83	227.15
843.14	227.20
843.46	227.21
843.77	227.14
844.08	227.13
844.40	227.09
844.71	227.09
845.03	227.11
845.34	227.09
845.65	227.08
845.97	227.08
846.28	227.06
846.60	227.04
846.91	227.03
847.22	227.02
847.54	227.03
847.85	227.06
848.16	227.06
848.48	227.00
848.79	227.07
849.10	227.03
849.42	227.01
849.73	226.90
850.04	226.92
850.36	226.86
850.67	226.86
850.98	226.88
851.30	226.88
851.61	226.82
851.92	226.78
852.23	226.80
852.55	226.78
852.86	226.77
853.17	226.78
853.49	226.78
853.80	226.78
854.11	226.78
854.42	226.72
854.74	226.70
855.05	226.69
855.36	226.61
855.67	226.61
855.99	226.62
856.30	226.72
856.61	226.67
856.92	226.68
857.23	226.67
857.55	226.65
857.86	226.64
858.17	226.64
858.48	226.62
858.79	226.60
859.11	226.57
859.42	226.56
859.73	226.55
860.04	226.51
860.35	226.49
860.66	226.44
860.98	226.51
861.29	226.51
861.60	226.52
861.91	226.54
862.22	226.53
862.53	226.54
862.84	226.44
863.16	226.49
863.47	226.45
863.78	226.45
864.09	226.44
864.40	226.44
864.71	226.46
865.02	226.47
865.33	226.47
865.64	226.47
865.95	226.46
866.27	226.51
866.58	226.56
866.89	226.56
867.20	226.55
867.51	226.51
867.82	226.50
868.13	226.54
868.44	226.56
868.75	226.57
869.06	226.57
869.37	226.60
869.68	226.56
869.99	226.60
870.30	226.60
870.61	226.61
870.92	226.60
871.23	226.62
871.54	226.65
871.85	226.66
872.16	226.70
872.47	226.71
872.78	226.65
873.09	226.63
873.40	226.64
873.71	226.68
874.02	226.71
874.33	226.72
874.64	226.71
874.95	226.68
875.26	226.68
875.56	226.65
875.87	226.63
876.18	226.64
876.49	226.68
876.80	226.68
877.11	226.70
877.42	226.70
877.73	226.65
878.04	226.67
878.35	226.68
878.66	226.68
878.96	226.66
879.27	226.68
879.58	226.66
879.89	226.65
880.20	226.69
880.51	226.68
880.82	226.67
881.12	226.66
881.43	226.63
881.74	226.60
882.05	226.61
882.36	226.64
882.67	226.64
882.97	226.57
883.28	226.57
883.59	226.51
883.90	226.52
884.21	226.55
884.51	226.52
884.82	226.51
885.13	226.46
885.44	226.47
885.74	226.45
886.05	226.43
886.36	226.42
886.67	226.38
886.98	226.43
887.28	226.41
887.59	226.40
887.90	226.43
888.20	226.43
888.51	226.45
888.82	226.41
889.13	226.40
889.43	226.49
889.74	226.47
890.05	226.46
890.35	226.44
890.66	226.41
890.97	226.41
891.28	226.38
891.58	226.40
891.89	226.37
892.20	226.36
892.50	226.35
892.81	226.36
893.12	226.30
893.42	226.25
893.73	226.28
894.04	226.28
894.34	226.27
894.65	226.30
894.95	226.25
895.26	226.28
895.57	226.31
895.87	226.21
896.18	226.23
896.48	226.25
896.79	226.26
897.10	226.27
897.40	226.28
897.71	226.32
898.01	226.28
898.32	226.32
898.63	226.30
898.93	226.31
899.24	226.30
899.54	226.31
899.85	226.31
900.15	226.29
900.46	226.29
900.76	226.31
901.07	226.29
901.38	226.30
901.68	226.30
901.99	226.27
902.29	226.25
902.60	226.25
902.90	226.27
903.21	226.26
903.51	226.24
903.82	226.24
904.12	226.24
904.43	226.27
904.73	226.23
905.03	226.25
905.34	226.35
905.64	226.33
905.95	226.34
906.25	226.32
906.56	226.31
906.86	226.30
907.17	226.29
907.47	226.28
907.77	226.31
908.08	226.26
908.38	226.26
908.69	226.29
908.99	226.33
909.30	226.30
909.60	226.32
909.90	226.35
910.21	226.32
910.51	226.31
910.81	226.29
911.12	226.34
911.42	226.35
911.73	226.27
912.03	226.27
912.33	226.30
912.64	226.33
912.94	226.31
913.24	226.31
913.55	226.31
913.85	226.33
914.15	226.32
914.46	226.33
914.76	226.34
915.06	226.33
915.37	226.28
915.67	226.29
915.97	226.28
916.27	226.24
916.58	226.25
916.88	226.19
917.18	226.19
917.49	226.23
917.79	226.22
918.09	226.22
918.39	226.27
918.70	226.26
919.00	226.18
919.30	226.23
919.60	226.20
919.91	226.19
920.21	226.16
920.51	226.12
920.81	226.15
921.12	226.16
921.42	226.11
921.72	226.13
922.02	226.14
922.32	226.12
922.63	226.13
922.93	226.17
923.23	226.20
923.53	226.19
923.83	226.14
924.13	226.14
924.44	226.13
924.74	226.11
925.04	226.12
925.34	226.16
925.64	226.12
925.94	226.12
926.24	226.16
926.55	226.15
926.85	226.17
927.15	226.17
927.45	226.17
927.75	226.18
928.05	226.17
928.35	226.13
928.65	226.16
928.95	226.13
929.26	226.10
929.56	226.11
929.86	226.10
930.16	226.08
930.46	226.08
930.76	226.07
931.06	226.04
931.36	226.02
931.66	226.01
931.96	226.02
932.26	226.05
932.56	226.01
932.86	226.04
933.16	226.05
933.46	226.00
933.76	225.98
934.06	225.99
934.36	226.01
934.66	225.98
934.96	225.98
935.26	226.00
935.56	226.00
935.86	225.96
936.16	225.94
936.46	225.94
936.76	225.93
937.06	225.91
937.36	225.89
937.66	225.89
937.96	225.90
938.26	225.87
938.56	225.84
938.86	225.84
939.16	225.82
939.46	225.82
939.76	225.85
940.06	225.85
940.35	225.85
940.65	225.82
940.95	225.87
941.25	225.85
941.55	225.83
941.85	225.80
942.15	225.85
942.45	225.89
942.75	225.88
943.04	225.90
943.34	225.95
943.64	225.98
943.94	225.97
944.24	225.97
944.54	226.00
944.84	226.03
945.13	226.01
945.43	225.99
945.73	225.99
946.03	225.97
946.33	225.97
946.62	225.96
946.92	225.94
947.22	225.94
947.52	225.94
947.82	225.96
948.11	225.96
948.41	225.95
948.71	225.91
949.01	225.90
949.31	225.86
949.60	225.85
949.90	225.85
950.20	225.84
950.50	225.85
950.79	225.84
951.09	225.85
951.39	225.84
951.69	225.84
951.98	225.89
952.28	225.89
952.58	225.89
952.87	225.94
953.17	225.96
953.47	225.96
953.76	225.97
954.06	225.98
954.36	225.99
954.66	225.99
954.95	226.04
955.25	226.07
955.55	226.11
955.84	226.09
956.14	226.12
956.44	226.11
956.73	226.08
957.03	226.08
957.32	226.09
957.62	226.11
957.92	226.10
958.21	226.05
958.51	226.17
958.81	226.19
959.10	226.16
959.40	226.18
959.69	226.18
959.99	226.18
960.29	226.17
960.58	226.18
960.88	226.21
961.17	226.19
961.47	226.21
961.76	226.17
962.06	226.17
962.36	226.16
962.65	226.19
962.95	226.21
963.24	226.17
963.54	226.16
963.83	226.18
964.13	226.20
964.42	226.18
964.72	226.11
965.01	226.08
965.31	226.08
965.60	226.05
965.90	226.11
966.19	226.09
966.49	226.10
966.78	226.09
967.08	226.12
967.37	226.10
967.67	226.08
967.96	226.13
968.26	226.14
968.55	226.15
968.85	226.11
969.14	226.09
969.43	226.14
969.73	226.17
970.02	226.16
970.32	226.17
970.61	226.18
970.91	226.14
971.20	226.12
971.49	226.13
971.79	226.13
972.08	226.08
972.38	226.09
972.67	226.09
972.96	226.09
973.26	226.06
973.55	226.08
973.85	226.07
974.14	226.05
974.43	226.06
974.73	226.06
975.02	226.09
975.31	226.08
975.61	226.05
975.90	225.99
976.19	225.92
976.49	225.94
976.78	225.94
977.07	225.93
977.37	225.94
977.66	225.93
977.95	225.92
978.24	225.95
978.54	225.98
978.83	225.94
979.12	225.94
979.42	225.90
979.71	225.87
980.00	225.85
980.29	225.83
980.59	225.82
980.88	225.82
981.17	225.80
981.46	225.80
981.76	225.81
982.05	225.84
982.34	225.90
982.63	225.85
982.93	225.85
983.22	225.85
983.51	225.86
983.80	225.88
984.09	225.88
984.39	225.84
984.68	225.84
984.97	225.84
985.26	225.83
985.55	225.84
985.85	225.83
986.14	225.86
986.43	225.90
986.72	225.88
987.01	225.87
987.30	225.86
987.59	225.86
987.89	225.87
988.18	225.85
988.47	225.83
988.76	225.85
989.05	225.84
989.34	225.85
989.63	225.87
989.92	225.88
990.22	225.90
990.51	225.91
990.80	225.87
991.09	225.91
991.38	225.90
991.67	225.94
991.96	225.96
992.25	225.95
992.54	225.93
992.83	225.92
993.12	225.91
993.41	225.95
993.70	225.96
993.99	225.96
994.28	226.01
994.58	226.04
994.87	226.05
995.16	226.06
995.45	226.05
995.74	226.02
996.03	226.04
996.32	226.03
996.61	226.06
996.90	226.05
997.19	226.06
997.48	226.08
997.77	226.07
998.06	226.07
998.34	226.09
998.63	226.04
998.92	226.07
999.21	226.08
999.50	226.12
999.79	226.10
1000.08	226.11
1000.37	226.09
1000.66	226.08
1000.95	226.10
1001.24	226.10
1001.53	226.14
1001.82	226.11
1002.11	226.07
1002.40	226.07
1002.68	226.09
1002.97	226.19
1003.26	226.15
1003.55	226.13
1003.84	226.12
1004.13	226.15
1004.42	226.12
1004.71	226.14
1004.99	226.13
1005.28	226.15
1005.57	226.12
1005.86	226.13
1006.15	226.13
1006.44	226.10
1006.72	226.10
1007.01	226.05
1007.30	226.06
1007.59	226.03
1007.88	226.04
1008.17	226.04
1008.45	226.03
1008.74	225.97
1009.03	225.92
1009.32	225.91
1009.60	225.91
1009.89	225.91
1010.18	225.84
1010.47	225.82
1010.76	225.84
1011.04	225.87
1011.33	225.85
1011.62	225.84
1011.91	225.84
1012.19	225.83
1012.48	225.85
1012.77	225.85
1013.05	225.90
1013.34	225.86
1013.63	225.83
1013.92	225.85
1014.20	225.85
1014.49	225.82
1014.78	225.83
1015.06	225.78
1015.35	225.79
1015.64	225.76
1015.92	225.79
1016.21	225.78
1016.50	225.79
1016.78	225.79
1017.07	225.78
1017.36	225.76
1017.64	225.72
1017.93	225.73
1018.22	225.69
1018.50	225.71
1018.79	225.69
1019.08	225.65
1019.36	225.69
1019.65	225.72
1019.93	225.73
1020.22	225.73
1020.51	225.83
1020.79	225.81
1021.08	225.23
1021.36	226.24
1021.65	225.71
1021.94	225.47
1022.22	226.30
1022.51	225.72
1022.79	226.33
1023.08	225.85
1023.36	227.29
1023.65	225.38
>>>>>End Processed Spectral Data<<<<<
