SpectraSuite Data File
++++++++++++++++++++++++++++++++++++
Date: Fri Feb 01 16:51:17 EST 2013
User: group
Dark Spectrum Present: No
Reference Spectrum Present: No
Number of Sampled Component Spectra: 1
Spectrometers: USB2E7196
Integration Time (usec): 35000 (USB2E7196)
Spectra Averaged: 100 (USB2E7196)
Boxcar Smoothing: 10 (USB2E7196)
Correct for Electrical Dark: No (USB2E7196)
Strobe/Lamp Enabled: No (USB2E7196)
Correct for Detector Non-linearity: No (USB2E7196)
Correct for Stray Light: No (USB2E7196)
Number of Pixels in Processed Spectrum: 2048
>>>>>Begin Processed Spectral Data<<<<<
339.09	0.00
339.48	213.17
339.86	214.39
340.24	215.81
340.63	216.87
341.01	219.90
341.39	219.21
341.78	221.25
342.16	222.61
342.54	223.00
342.93	211.35
343.31	222.00
343.69	222.58
344.07	223.02
344.46	223.44
344.84	223.83
345.22	224.09
345.60	224.36
345.99	224.54
346.37	224.63
346.75	224.73
347.13	224.79
347.52	224.82
347.90	224.93
348.28	224.98
348.66	225.04
349.05	225.04
349.43	225.08
349.81	225.12
350.19	225.17
350.57	225.22
350.96	225.28
351.34	225.37
351.72	225.42
352.10	225.56
352.48	225.64
352.87	225.71
353.25	225.73
353.63	225.83
354.01	225.90
354.39	226.03
354.77	226.12
355.15	226.24
355.54	226.31
355.92	226.35
356.30	226.41
356.68	226.56
357.06	226.63
357.44	226.69
357.82	226.78
358.20	226.88
358.58	226.99
358.97	227.07
359.35	227.17
359.73	227.24
360.11	227.30
360.49	227.35
360.87	227.39
361.25	227.50
361.63	227.57
362.01	227.62
362.39	227.67
362.77	227.69
363.15	227.71
363.53	227.73
363.91	227.78
364.29	227.80
364.67	227.74
365.05	227.79
365.43	227.85
365.81	227.89
366.19	227.92
366.57	227.95
366.95	227.96
367.33	227.93
367.71	227.92
368.09	227.94
368.47	227.92
368.85	227.92
369.23	227.90
369.61	227.86
369.99	227.88
370.37	227.85
370.75	227.89
371.13	227.88
371.51	227.83
371.89	227.79
372.27	227.77
372.65	227.76
373.03	227.67
373.41	227.61
373.78	227.56
374.16	227.46
374.54	227.36
374.92	227.29
375.30	227.30
375.68	227.24
376.06	227.18
376.44	227.14
376.82	227.07
377.19	227.00
377.57	226.90
377.95	226.80
378.33	226.73
378.71	226.56
379.09	226.45
379.47	226.42
379.84	226.35
380.22	226.25
380.60	226.14
380.98	226.07
381.36	225.96
381.73	225.86
382.11	225.84
382.49	225.80
382.87	225.73
383.25	225.64
383.62	225.67
384.00	225.56
384.38	225.49
384.76	225.43
385.13	225.44
385.51	225.38
385.89	225.30
386.27	225.26
386.64	225.29
387.02	225.24
387.40	225.17
387.78	225.12
388.15	225.11
388.53	225.08
388.91	225.05
389.29	225.03
389.66	225.00
390.04	224.96
390.42	224.92
390.79	224.89
391.17	224.85
391.55	224.74
391.92	224.74
392.30	224.76
392.68	224.73
393.05	224.67
393.43	224.73
393.81	224.78
394.18	224.75
394.56	224.70
394.94	224.74
395.31	224.77
395.69	224.82
396.06	224.87
396.44	224.89
396.82	224.94
397.19	225.04
397.57	225.07
397.95	225.11
398.32	225.14
398.70	225.19
399.07	225.26
399.45	225.31
399.82	225.37
400.20	225.43
400.58	225.51
400.95	225.56
401.33	225.62
401.70	225.73
402.08	225.85
402.45	225.99
402.83	226.11
403.20	226.22
403.58	226.33
403.95	226.45
404.33	226.59
404.71	226.71
405.08	226.89
405.46	227.03
405.83	227.16
406.21	227.30
406.58	227.48
406.96	227.64
407.33	227.84
407.70	228.06
408.08	228.34
408.45	228.57
408.83	228.84
409.20	229.08
409.58	229.27
409.95	229.52
410.33	229.76
410.70	230.00
411.08	230.29
411.45	230.60
411.82	230.90
412.20	231.25
412.57	231.65
412.95	231.92
413.32	232.31
413.69	232.71
414.07	233.17
414.44	233.63
414.82	234.10
415.19	234.63
415.56	235.13
415.94	235.62
416.31	236.28
416.68	236.85
417.06	237.51
417.43	238.17
417.81	238.91
418.18	239.70
418.55	240.50
418.93	241.36
419.30	242.21
419.67	243.13
420.04	244.04
420.42	245.04
420.79	246.21
421.16	247.35
421.54	248.56
421.91	249.75
422.28	251.00
422.66	252.34
423.03	253.60
423.40	254.93
423.77	256.36
424.15	257.75
424.52	259.27
424.89	260.87
425.26	262.43
425.64	263.87
426.01	265.45
426.38	267.07
426.75	268.74
427.13	270.47
427.50	272.28
427.87	274.19
428.24	276.03
428.61	277.74
428.99	279.68
429.36	281.73
429.73	283.74
430.10	285.73
430.47	287.73
430.85	289.85
431.22	292.05
431.59	294.39
431.96	296.56
432.33	299.03
432.70	301.39
433.08	304.18
433.45	306.78
433.82	309.35
434.19	312.26
434.56	315.01
434.93	317.65
435.30	320.25
435.68	323.06
436.05	325.81
436.42	328.60
436.79	331.10
437.16	333.77
437.53	336.57
437.90	339.35
438.27	342.11
438.64	344.92
439.01	347.50
439.38	349.73
439.75	351.93
440.13	354.36
440.50	356.71
440.87	358.54
441.24	360.51
441.61	362.65
441.98	364.13
442.35	365.94
442.72	367.77
443.09	369.58
443.46	370.60
443.83	371.23
444.20	371.71
444.57	372.55
444.94	372.80
445.31	373.18
445.68	373.53
446.05	373.61
446.42	373.23
446.79	372.86
447.16	372.42
447.53	372.14
447.90	371.01
448.27	369.86
448.64	368.33
449.01	367.18
449.37	365.27
449.74	363.40
450.11	361.17
450.48	358.69
450.85	356.17
451.22	354.07
451.59	352.10
451.96	350.20
452.33	347.65
452.70	345.34
453.07	342.57
453.43	339.69
453.80	336.94
454.17	334.30
454.54	331.71
454.91	329.03
455.28	326.36
455.65	323.90
456.02	321.47
456.38	319.31
456.75	316.69
457.12	314.42
457.49	312.25
457.86	310.12
458.23	308.33
458.59	306.31
458.96	304.23
459.33	302.33
459.70	300.49
460.07	299.00
460.43	297.35
460.80	295.75
461.17	294.34
461.54	292.85
461.91	291.45
462.27	290.05
462.64	288.79
463.01	287.44
463.38	286.17
463.74	284.82
464.11	283.68
464.48	282.65
464.85	281.56
465.21	280.70
465.58	279.80
465.95	278.69
466.32	277.80
466.68	276.87
467.05	276.02
467.42	275.14
467.78	274.21
468.15	273.33
468.52	272.65
468.88	271.81
469.25	271.05
469.62	270.40
469.98	269.73
470.35	269.12
470.72	268.54
471.08	267.87
471.45	267.34
471.82	266.78
472.18	266.21
472.55	265.79
472.92	265.24
473.28	264.79
473.65	264.36
474.02	263.89
474.38	263.55
474.75	263.22
475.11	262.88
475.48	262.61
475.85	262.37
476.21	262.13
476.58	261.95
476.94	261.81
477.31	261.67
477.67	261.51
478.04	261.40
478.41	261.34
478.77	261.35
479.14	261.33
479.50	261.37
479.87	261.43
480.23	261.51
480.60	261.59
480.96	261.66
481.33	261.83
481.69	262.02
482.06	262.25
482.42	262.46
482.79	262.74
483.15	263.07
483.52	263.47
483.88	263.83
484.25	264.24
484.61	264.68
484.98	265.17
485.34	265.76
485.71	266.38
486.07	267.00
486.44	267.60
486.80	268.28
487.17	268.98
487.53	269.81
487.90	270.65
488.26	271.62
488.62	272.62
488.99	273.62
489.35	274.72
489.72	275.86
490.08	277.07
490.44	278.32
490.81	279.64
491.17	280.98
491.54	282.48
491.90	284.02
492.26	285.68
492.63	287.42
492.99	289.21
493.36	291.10
493.72	293.15
494.08	295.28
494.45	297.52
494.81	299.89
495.17	302.35
495.54	304.92
495.90	307.63
496.26	310.44
496.63	313.44
496.99	316.51
497.35	319.76
497.72	323.17
498.08	326.65
498.44	330.30
498.80	334.21
499.17	338.22
499.53	342.38
499.89	346.73
500.26	351.25
500.62	355.88
500.98	360.82
501.34	365.87
501.71	371.15
502.07	376.55
502.43	382.19
502.79	387.97
503.16	394.06
503.52	400.28
503.88	406.63
504.24	413.23
504.60	420.09
504.97	427.20
505.33	434.47
505.69	442.19
506.05	450.01
506.41	457.86
506.78	465.97
507.14	474.34
507.50	483.01
507.86	491.88
508.22	501.09
508.59	510.28
508.95	519.69
509.31	529.50
509.67	539.59
510.03	549.77
510.39	560.21
510.75	570.87
511.12	581.62
511.48	592.82
511.84	604.19
512.20	615.59
512.56	627.40
512.92	639.49
513.28	651.73
513.64	664.09
514.00	676.72
514.37	689.60
514.73	702.53
515.09	715.40
515.45	728.62
515.81	742.06
516.17	755.89
516.53	769.96
516.89	783.89
517.25	797.92
517.61	812.18
517.97	826.47
518.33	840.74
518.69	855.37
519.05	870.17
519.41	885.08
519.77	900.42
520.13	915.78
520.49	930.98
520.85	946.10
521.21	961.40
521.57	977.34
521.93	992.91
522.29	1009.13
522.65	1025.22
523.01	1041.22
523.37	1057.06
523.73	1072.97
524.09	1088.87
524.45	1105.04
524.81	1121.51
525.17	1138.06
525.53	1154.69
525.89	1171.46
526.25	1188.21
526.61	1204.40
526.97	1220.94
527.33	1237.22
527.68	1253.39
528.04	1269.66
528.40	1286.04
528.76	1303.01
529.12	1319.35
529.48	1336.08
529.84	1351.79
530.20	1368.03
530.56	1384.69
530.91	1401.78
531.27	1418.38
531.63	1434.60
531.99	1450.89
532.35	1466.63
532.71	1482.43
533.07	1498.50
533.42	1514.04
533.78	1529.92
534.14	1545.97
534.50	1561.11
534.86	1576.83
535.21	1591.81
535.57	1607.55
535.93	1622.84
536.29	1637.38
536.65	1652.27
537.00	1666.68
537.36	1681.95
537.72	1696.38
538.08	1710.70
538.44	1724.34
538.79	1737.98
539.15	1751.36
539.51	1764.81
539.87	1778.83
540.22	1792.20
540.58	1805.80
540.94	1818.88
541.29	1831.38
541.65	1843.81
542.01	1856.76
542.37	1868.88
542.72	1881.14
543.08	1892.72
543.44	1904.90
543.79	1916.07
544.15	1926.88
544.51	1938.29
544.87	1948.99
545.22	1959.63
545.58	1969.66
545.94	1979.31
546.29	1988.96
546.65	1998.91
547.01	2008.19
547.36	2016.83
547.72	2025.24
548.07	2032.99
548.43	2041.13
548.79	2049.10
549.14	2056.78
549.50	2064.13
549.86	2071.58
550.21	2078.90
550.57	2086.01
550.92	2092.70
551.28	2099.77
551.64	2106.82
551.99	2113.31
552.35	2119.41
552.70	2125.63
553.06	2131.53
553.41	2137.84
553.77	2143.86
554.13	2149.69
554.48	2155.80
554.84	2161.34
555.19	2166.67
555.55	2171.80
555.90	2176.29
556.26	2181.22
556.61	2185.75
556.97	2190.17
557.32	2194.38
557.68	2198.47
558.03	2202.71
558.39	2206.24
558.74	2210.74
559.10	2214.61
559.45	2218.25
559.81	2222.49
560.16	2226.31
560.52	2229.68
560.87	2233.15
561.23	2235.85
561.58	2238.74
561.94	2241.35
562.29	2243.68
562.64	2246.48
563.00	2249.02
563.35	2252.48
563.71	2255.48
564.06	2258.68
564.42	2261.55
564.77	2264.19
565.12	2266.71
565.48	2268.82
565.83	2270.84
566.19	2272.35
566.54	2273.23
566.89	2274.46
567.25	2275.16
567.60	2276.59
567.96	2278.44
568.31	2279.25
568.66	2280.56
569.02	2281.43
569.37	2281.88
569.72	2282.93
570.08	2283.12
570.43	2283.42
570.78	2283.14
571.14	2282.02
571.49	2280.89
571.84	2280.78
572.20	2279.73
572.55	2278.78
572.90	2277.16
573.26	2275.98
573.61	2274.36
573.96	2273.02
574.31	2270.25
574.67	2267.43
575.02	2263.99
575.37	2260.74
575.72	2257.27
576.08	2253.96
576.43	2250.62
576.78	2247.00
577.13	2243.92
577.49	2240.77
577.84	2237.37
578.19	2233.64
578.54	2230.02
578.90	2226.03
579.25	2220.44
579.60	2215.79
579.95	2210.92
580.30	2206.01
580.66	2200.89
581.01	2196.04
581.36	2191.25
581.71	2187.32
582.06	2183.12
582.42	2178.79
582.77	2173.85
583.12	2169.50
583.47	2165.00
583.82	2160.37
584.17	2155.35
584.53	2150.04
584.88	2144.81
585.23	2139.30
585.58	2133.96
585.93	2128.68
586.28	2124.02
586.63	2119.21
586.98	2114.37
587.34	2109.74
587.69	2105.10
588.04	2100.06
588.39	2094.65
588.74	2088.20
589.09	2082.10
589.44	2075.51
589.79	2069.45
590.14	2063.86
590.49	2057.39
590.84	2051.19
591.19	2045.16
591.54	2038.92
591.89	2031.65
592.25	2024.94
592.60	2017.82
592.95	2010.40
593.30	2003.17
593.65	1995.67
594.00	1988.65
594.35	1981.34
594.70	1973.41
595.05	1966.50
595.40	1959.35
595.75	1951.80
596.10	1945.83
596.45	1939.32
596.80	1933.27
597.15	1926.90
597.50	1919.97
597.85	1913.44
598.19	1906.93
598.54	1899.98
598.89	1893.33
599.24	1887.49
599.59	1880.92
599.94	1874.81
600.29	1868.68
600.64	1862.23
600.99	1855.05
601.34	1848.41
601.69	1841.51
602.04	1834.81
602.39	1827.46
602.74	1820.63
603.08	1814.07
603.43	1807.25
603.78	1799.93
604.13	1792.77
604.48	1785.56
604.83	1778.72
605.18	1771.90
605.53	1764.02
605.87	1756.15
606.22	1748.95
606.57	1741.10
606.92	1733.86
607.27	1726.85
607.62	1719.96
607.96	1712.73
608.31	1706.22
608.66	1698.76
609.01	1691.35
609.36	1683.75
609.70	1675.78
610.05	1667.82
610.40	1660.17
610.75	1651.92
611.10	1644.41
611.44	1635.95
611.79	1628.00
612.14	1619.40
612.49	1610.45
612.83	1602.11
613.18	1594.05
613.53	1585.99
613.88	1577.45
614.22	1569.27
614.57	1560.62
614.92	1552.75
615.27	1545.29
615.61	1536.83
615.96	1528.73
616.31	1521.14
616.65	1513.86
617.00	1506.41
617.35	1498.76
617.70	1490.51
618.04	1482.17
618.39	1473.87
618.74	1466.40
619.08	1458.12
619.43	1450.53
619.78	1443.53
620.12	1436.37
620.47	1428.79
620.82	1420.73
621.16	1413.36
621.51	1405.67
621.85	1398.06
622.20	1389.49
622.55	1381.10
622.89	1373.31
623.24	1365.69
623.59	1358.26
623.93	1350.81
624.28	1343.51
624.62	1336.02
624.97	1328.88
625.32	1321.92
625.66	1314.96
626.01	1307.72
626.35	1300.34
626.70	1292.60
627.04	1284.98
627.39	1277.12
627.73	1269.75
628.08	1262.91
628.43	1255.72
628.77	1248.40
629.12	1240.89
629.46	1233.65
629.81	1226.12
630.15	1218.94
630.50	1211.54
630.84	1203.41
631.19	1195.40
631.53	1187.94
631.88	1180.30
632.22	1172.72
632.57	1165.45
632.91	1157.91
633.26	1150.58
633.60	1143.07
633.95	1135.94
634.29	1128.82
634.64	1122.15
634.98	1114.88
635.32	1107.68
635.67	1100.93
636.01	1094.26
636.36	1087.53
636.70	1081.03
637.05	1074.54
637.39	1068.07
637.73	1061.62
638.08	1055.68
638.42	1049.68
638.77	1043.32
639.11	1036.97
639.45	1030.52
639.80	1023.96
640.14	1017.65
640.49	1011.15
640.83	1004.89
641.17	998.67
641.52	992.32
641.86	985.85
642.20	980.00
642.55	973.65
642.89	967.33
643.23	960.81
643.58	954.97
643.92	948.85
644.26	942.95
644.61	936.86
644.95	930.83
645.29	924.36
645.64	917.64
645.98	911.20
646.32	905.25
646.66	899.26
647.01	893.54
647.35	887.74
647.69	881.86
648.04	876.36
648.38	870.58
648.72	864.69
649.06	858.76
649.41	852.78
649.75	846.87
650.09	840.89
650.43	835.16
650.78	829.07
651.12	823.14
651.46	817.41
651.80	811.80
652.14	806.40
652.49	801.07
652.83	795.96
653.17	790.36
653.51	784.75
653.85	779.41
654.20	773.79
654.54	767.88
654.88	762.16
655.22	756.28
655.56	750.58
655.90	745.03
656.25	739.75
656.59	734.50
656.93	729.39
657.27	724.26
657.61	718.86
657.95	713.76
658.29	708.63
658.64	703.32
658.98	697.91
659.32	692.51
659.66	687.24
660.00	681.99
660.34	677.05
660.68	672.12
661.02	667.06
661.36	662.34
661.70	657.82
662.05	653.51
662.39	649.27
662.73	644.84
663.07	640.47
663.41	636.00
663.75	631.50
664.09	626.94
664.43	622.55
664.77	618.50
665.11	614.23
665.45	610.13
665.79	606.02
666.13	601.96
666.47	597.81
666.81	593.66
667.15	589.49
667.49	585.49
667.83	581.64
668.17	577.69
668.51	573.64
668.85	569.59
669.19	565.69
669.53	561.83
669.87	557.92
670.21	554.25
670.55	550.57
670.89	547.11
671.23	543.65
671.57	540.08
671.91	536.50
672.25	533.01
672.58	529.46
672.92	526.05
673.26	522.82
673.60	519.64
673.94	516.54
674.28	513.62
674.62	510.73
674.96	507.63
675.30	504.76
675.64	501.76
675.97	498.97
676.31	496.07
676.65	493.05
676.99	490.36
677.33	487.49
677.67	484.73
678.01	481.70
678.34	478.74
678.68	475.91
679.02	473.08
679.36	470.29
679.70	467.56
680.04	464.79
680.37	461.93
680.71	459.15
681.05	456.54
681.39	453.81
681.73	451.09
682.06	448.58
682.40	445.96
682.74	443.43
683.08	440.83
683.42	438.26
683.75	435.82
684.09	433.25
684.43	430.81
684.77	428.30
685.10	425.95
685.44	423.59
685.78	421.30
686.12	419.02
686.45	416.72
686.79	414.45
687.13	412.26
687.46	410.06
687.80	407.88
688.14	405.64
688.48	403.58
688.81	401.34
689.15	399.14
689.49	396.99
689.82	394.93
690.16	392.85
690.50	390.92
690.83	388.93
691.17	386.96
691.51	385.03
691.84	383.15
692.18	381.27
692.52	379.31
692.85	377.35
693.19	375.47
693.52	373.66
693.86	371.83
694.20	370.06
694.53	368.28
694.87	366.42
695.21	364.64
695.54	362.82
695.88	361.13
696.21	359.45
696.55	357.78
696.88	356.05
697.22	354.43
697.56	352.80
697.89	351.21
698.23	349.63
698.56	348.01
698.90	346.47
699.23	344.82
699.57	343.31
699.90	341.80
700.24	340.30
700.58	338.81
700.91	337.31
701.25	335.87
701.58	334.51
701.92	333.16
702.25	331.80
702.59	330.47
702.92	329.15
703.26	327.85
703.59	326.58
703.93	325.48
704.26	324.24
704.60	322.92
704.93	321.63
705.26	320.33
705.60	319.15
705.93	317.99
706.27	316.97
706.60	315.93
706.94	314.88
707.27	313.73
707.61	312.65
707.94	311.66
708.27	310.57
708.61	309.51
708.94	308.51
709.28	307.49
709.61	306.48
709.94	305.51
710.28	304.51
710.61	303.54
710.95	302.42
711.28	301.51
711.61	300.59
711.95	299.71
712.28	298.77
712.61	297.78
712.95	296.86
713.28	295.95
713.61	295.01
713.95	294.07
714.28	293.21
714.61	292.33
714.95	291.45
715.28	290.59
715.61	289.71
715.95	288.87
716.28	288.04
716.61	287.23
716.95	286.42
717.28	285.68
717.61	284.89
717.94	284.14
718.28	283.30
718.61	282.53
718.94	281.82
719.27	281.18
719.61	280.56
719.94	279.86
720.27	279.14
720.60	278.49
720.94	277.83
721.27	277.24
721.60	276.63
721.93	276.06
722.27	275.49
722.60	274.94
722.93	274.35
723.26	273.79
723.59	273.19
723.93	272.65
724.26	272.04
724.59	271.49
724.92	270.97
725.25	270.48
725.59	269.96
725.92	269.41
726.25	268.87
726.58	268.35
726.91	267.86
727.24	267.36
727.57	266.88
727.91	266.37
728.24	265.88
728.57	265.40
728.90	264.93
729.23	264.43
729.56	264.02
729.89	263.50
730.22	263.02
730.55	262.56
730.89	262.11
731.22	261.68
731.55	261.24
731.88	260.80
732.21	260.36
732.54	259.95
732.87	259.57
733.20	259.21
733.53	258.83
733.86	258.46
734.19	258.08
734.52	257.73
734.85	257.45
735.18	257.06
735.51	256.74
735.84	256.38
736.17	256.05
736.50	255.64
736.83	255.45
737.16	255.13
737.49	254.82
737.82	254.46
738.15	254.16
738.48	253.84
738.81	253.54
739.14	253.21
739.47	252.92
739.80	252.61
740.13	252.31
740.46	252.00
740.79	251.67
741.12	251.38
741.45	251.07
741.78	250.73
742.11	250.46
742.44	250.12
742.77	249.82
743.10	249.52
743.43	249.20
743.75	248.84
744.08	248.72
744.41	248.44
744.74	248.17
745.07	247.90
745.40	247.66
745.73	247.37
746.06	247.14
746.39	246.87
746.71	246.59
747.04	246.29
747.37	246.02
747.70	245.81
748.03	245.57
748.36	245.33
748.68	245.08
749.01	244.82
749.34	244.62
749.67	244.41
750.00	244.20
750.33	244.06
750.65	243.81
750.98	243.43
751.31	243.22
751.64	243.04
751.97	242.87
752.29	242.64
752.62	242.40
752.95	242.18
753.28	241.93
753.60	241.72
753.93	241.55
754.26	241.35
754.59	241.10
754.91	240.87
755.24	240.65
755.57	240.45
755.90	240.26
756.22	240.05
756.55	239.78
756.88	239.55
757.20	239.33
757.53	239.15
757.86	238.99
758.19	238.83
758.51	238.62
758.84	238.39
759.17	238.19
759.49	238.03
759.82	237.90
760.15	237.75
760.47	237.61
760.80	237.42
761.13	237.30
761.45	237.15
761.78	236.98
762.11	236.85
762.43	236.68
762.76	236.52
763.08	236.36
763.41	236.24
763.74	236.11
764.06	235.97
764.39	235.82
764.71	235.67
765.04	235.49
765.37	235.33
765.69	235.21
766.02	235.06
766.34	234.93
766.67	234.75
767.00	234.65
767.32	234.57
767.65	234.50
767.97	234.35
768.30	234.22
768.62	234.13
768.95	234.01
769.27	233.92
769.60	233.83
769.92	233.71
770.25	233.60
770.57	233.47
770.90	233.33
771.22	233.22
771.55	233.11
771.87	232.99
772.20	232.90
772.52	232.89
772.85	232.94
773.17	232.86
773.50	232.78
773.82	232.68
774.15	232.56
774.47	232.42
774.80	232.37
775.12	232.31
775.45	232.22
775.77	232.15
776.09	232.07
776.42	231.98
776.74	231.94
777.07	231.85
777.39	231.80
777.72	231.74
778.04	231.71
778.36	231.64
778.69	231.62
779.01	231.57
779.33	231.42
779.66	231.23
779.98	231.15
780.31	231.12
780.63	231.12
780.95	231.09
781.28	231.01
781.60	230.92
781.92	230.86
782.25	230.82
782.57	230.75
782.89	230.66
783.22	230.62
783.54	230.57
783.86	230.55
784.19	230.50
784.51	230.47
784.83	230.42
785.16	230.39
785.48	230.32
785.80	230.28
786.12	230.24
786.45	230.19
786.77	230.17
787.09	230.12
787.42	230.05
787.74	229.95
788.06	229.94
788.38	229.92
788.71	229.86
789.03	229.82
789.35	229.80
789.67	229.75
789.99	229.69
790.32	229.65
790.64	229.62
790.96	229.65
791.28	229.56
791.61	229.50
791.93	229.48
792.25	229.44
792.57	229.47
792.89	229.41
793.21	229.35
793.54	229.30
793.86	229.25
794.18	229.22
794.50	229.21
794.82	229.15
795.14	229.11
795.47	229.10
795.79	229.05
796.11	228.98
796.43	229.00
796.75	228.94
797.07	228.88
797.39	228.84
797.71	228.75
798.04	228.71
798.36	228.71
798.68	228.66
799.00	228.61
799.32	228.52
799.64	228.52
799.96	228.50
800.28	228.48
800.60	228.45
800.92	228.40
801.24	228.32
801.56	228.31
801.89	228.27
802.21	228.23
802.53	228.17
802.85	228.15
803.17	228.11
803.49	228.07
803.81	228.03
804.13	227.98
804.45	227.92
804.77	227.89
805.09	227.82
805.41	227.78
805.73	227.76
806.05	227.70
806.37	227.68
806.69	227.66
807.01	227.63
807.33	227.57
807.65	227.50
807.97	227.52
808.28	227.52
808.60	227.49
808.92	227.46
809.24	227.50
809.56	227.45
809.88	227.43
810.20	227.43
810.52	227.45
810.84	227.42
811.16	227.38
811.48	227.37
811.80	227.43
812.12	227.38
812.43	227.36
812.75	227.34
813.07	227.28
813.39	227.24
813.71	227.22
814.03	227.20
814.35	227.18
814.67	227.15
814.98	227.09
815.30	227.07
815.62	227.03
815.94	226.96
816.26	226.98
816.58	226.94
816.89	226.93
817.21	226.89
817.53	226.87
817.85	226.87
818.17	226.87
818.48	226.78
818.80	226.83
819.12	226.81
819.44	226.80
819.76	226.80
820.07	226.82
820.39	226.79
820.71	226.79
821.03	226.80
821.34	226.78
821.66	226.80
821.98	226.79
822.30	226.81
822.61	226.84
822.93	226.81
823.25	226.82
823.57	226.83
823.88	226.84
824.20	226.85
824.52	226.89
824.83	226.89
825.15	226.88
825.47	226.86
825.79	226.87
826.10	226.87
826.42	226.85
826.74	226.85
827.05	226.87
827.37	226.85
827.69	226.86
828.00	226.87
828.32	226.85
828.64	226.86
828.95	226.91
829.27	226.92
829.58	226.91
829.90	226.90
830.22	226.91
830.53	226.90
830.85	226.89
831.17	226.86
831.48	226.86
831.80	226.86
832.11	226.85
832.43	226.83
832.75	226.84
833.06	226.91
833.38	226.88
833.69	226.85
834.01	226.85
834.32	226.82
834.64	226.76
834.96	226.76
835.27	226.74
835.59	226.72
835.90	226.66
836.22	226.67
836.53	226.66
836.85	226.61
837.16	226.68
837.48	226.63
837.79	226.68
838.11	226.63
838.42	226.64
838.74	226.66
839.05	226.65
839.37	226.61
839.68	226.54
840.00	226.53
840.31	226.54
840.63	226.55
840.94	226.54
841.26	226.54
841.57	226.52
841.88	226.50
842.20	226.45
842.51	226.41
842.83	226.37
843.14	226.41
843.46	226.40
843.77	226.31
844.08	226.31
844.40	226.23
844.71	226.21
845.03	226.17
845.34	226.11
845.65	226.09
845.97	226.09
846.28	226.05
846.60	226.05
846.91	226.02
847.22	225.98
847.54	225.96
847.85	225.95
848.16	225.89
848.48	225.83
848.79	225.87
849.10	225.88
849.42	225.88
849.73	225.79
850.04	225.76
850.36	225.71
850.67	225.73
850.98	225.72
851.30	225.72
851.61	225.70
851.92	225.68
852.23	225.69
852.55	225.66
852.86	225.66
853.17	225.66
853.49	225.68
853.80	225.70
854.11	225.74
854.42	225.75
854.74	225.73
855.05	225.76
855.36	225.68
855.67	225.65
855.99	225.63
856.30	225.72
856.61	225.70
856.92	225.69
857.23	225.65
857.55	225.62
857.86	225.61
858.17	225.64
858.48	225.60
858.79	225.58
859.11	225.62
859.42	225.62
859.73	225.60
860.04	225.60
860.35	225.57
860.66	225.49
860.98	225.49
861.29	225.54
861.60	225.51
861.91	225.51
862.22	225.55
862.53	225.57
862.84	225.49
863.16	225.55
863.47	225.55
863.78	225.57
864.09	225.60
864.40	225.61
864.71	225.62
865.02	225.66
865.33	225.62
865.64	225.59
865.95	225.60
866.27	225.64
866.58	225.63
866.89	225.64
867.20	225.67
867.51	225.63
867.82	225.61
868.13	225.67
868.44	225.68
868.75	225.66
869.06	225.64
869.37	225.63
869.68	225.58
869.99	225.60
870.30	225.61
870.61	225.63
870.92	225.65
871.23	225.64
871.54	225.69
871.85	225.74
872.16	225.77
872.47	225.76
872.78	225.73
873.09	225.72
873.40	225.71
873.71	225.71
874.02	225.74
874.33	225.73
874.64	225.65
874.95	225.68
875.26	225.66
875.56	225.68
875.87	225.70
876.18	225.70
876.49	225.81
876.80	225.79
877.11	225.76
877.42	225.71
877.73	225.68
878.04	225.63
878.35	225.60
878.66	225.57
878.96	225.57
879.27	225.54
879.58	225.54
879.89	225.52
880.20	225.55
880.51	225.56
880.82	225.58
881.12	225.63
881.43	225.62
881.74	225.59
882.05	225.57
882.36	225.54
882.67	225.54
882.97	225.40
883.28	225.39
883.59	225.38
883.90	225.39
884.21	225.40
884.51	225.39
884.82	225.38
885.13	225.38
885.44	225.40
885.74	225.40
886.05	225.37
886.36	225.34
886.67	225.26
886.98	225.31
887.28	225.28
887.59	225.25
887.90	225.23
888.20	225.24
888.51	225.27
888.82	225.25
889.13	225.26
889.43	225.33
889.74	225.30
890.05	225.28
890.35	225.27
890.66	225.27
890.97	225.26
891.28	225.25
891.58	225.21
891.89	225.16
892.20	225.15
892.50	225.17
892.81	225.20
893.12	225.21
893.42	225.15
893.73	225.17
894.04	225.17
894.34	225.16
894.65	225.15
894.95	225.10
895.26	225.14
895.57	225.15
895.87	225.08
896.18	225.13
896.48	225.15
896.79	225.16
897.10	225.15
897.40	225.17
897.71	225.18
898.01	225.20
898.32	225.24
898.63	225.25
898.93	225.27
899.24	225.25
899.54	225.26
899.85	225.24
900.15	225.23
900.46	225.24
900.76	225.27
901.07	225.29
901.38	225.32
901.68	225.33
901.99	225.29
902.29	225.31
902.60	225.29
902.90	225.28
903.21	225.26
903.51	225.29
903.82	225.34
904.12	225.37
904.43	225.37
904.73	225.36
905.03	225.36
905.34	225.47
905.64	225.48
905.95	225.48
906.25	225.53
906.56	225.53
906.86	225.56
907.17	225.56
907.47	225.55
907.77	225.55
908.08	225.50
908.38	225.54
908.69	225.55
908.99	225.58
909.30	225.61
909.60	225.64
909.90	225.64
910.21	225.59
910.51	225.57
910.81	225.56
911.12	225.57
911.42	225.59
911.73	225.45
912.03	225.47
912.33	225.50
912.64	225.48
912.94	225.47
913.24	225.45
913.55	225.40
913.85	225.41
914.15	225.40
914.46	225.45
914.76	225.39
915.06	225.34
915.37	225.31
915.67	225.27
915.97	225.27
916.27	225.23
916.58	225.22
916.88	225.22
917.18	225.18
917.49	225.21
917.79	225.16
918.09	225.18
918.39	225.18
918.70	225.13
919.00	225.13
919.30	225.16
919.60	225.16
919.91	225.17
920.21	225.17
920.51	225.12
920.81	225.08
921.12	225.11
921.42	225.13
921.72	225.12
922.02	225.11
922.32	225.11
922.63	225.13
922.93	225.19
923.23	225.19
923.53	225.21
923.83	225.16
924.13	225.19
924.44	225.18
924.74	225.22
925.04	225.27
925.34	225.22
925.64	225.18
925.94	225.17
926.24	225.18
926.55	225.17
926.85	225.18
927.15	225.18
927.45	225.22
927.75	225.23
928.05	225.25
928.35	225.24
928.65	225.25
928.95	225.26
929.26	225.17
929.56	225.19
929.86	225.19
930.16	225.18
930.46	225.15
930.76	225.16
931.06	225.10
931.36	225.04
931.66	225.09
931.96	225.10
932.26	225.06
932.56	225.06
932.86	225.03
933.16	225.03
933.46	225.04
933.76	225.02
934.06	225.01
934.36	225.04
934.66	225.05
934.96	225.00
935.26	224.95
935.56	225.00
935.86	224.97
936.16	224.96
936.46	224.98
936.76	224.98
937.06	224.98
937.36	224.98
937.66	224.99
937.96	224.97
938.26	224.96
938.56	225.01
938.86	225.01
939.16	225.08
939.46	225.10
939.76	225.10
940.06	225.07
940.35	225.08
940.65	225.03
940.95	225.05
941.25	225.06
941.55	225.06
941.85	225.04
942.15	225.09
942.45	225.15
942.75	225.15
943.04	225.15
943.34	225.15
943.64	225.16
943.94	225.18
944.24	225.19
944.54	225.22
944.84	225.19
945.13	225.18
945.43	225.15
945.73	225.14
946.03	225.14
946.33	225.15
946.62	225.12
946.92	225.10
947.22	225.11
947.52	225.14
947.82	225.19
948.11	225.18
948.41	225.14
948.71	225.11
949.01	225.10
949.31	225.11
949.60	225.10
949.90	225.13
950.20	225.12
950.50	225.15
950.79	225.13
951.09	225.17
951.39	225.17
951.69	225.16
951.98	225.16
952.28	225.19
952.58	225.17
952.87	225.18
953.17	225.20
953.47	225.18
953.76	225.18
954.06	225.13
954.36	225.14
954.66	225.14
954.95	225.15
955.25	225.18
955.55	225.18
955.84	225.19
956.14	225.20
956.44	225.20
956.73	225.18
957.03	225.18
957.32	225.17
957.62	225.13
957.92	225.17
958.21	225.18
958.51	225.23
958.81	225.26
959.10	225.27
959.40	225.32
959.69	225.36
959.99	225.38
960.29	225.41
960.58	225.43
960.88	225.45
961.17	225.44
961.47	225.41
961.76	225.40
962.06	225.39
962.36	225.34
962.65	225.34
962.95	225.33
963.24	225.32
963.54	225.34
963.83	225.39
964.13	225.39
964.42	225.37
964.72	225.33
965.01	225.35
965.31	225.36
965.60	225.34
965.90	225.39
966.19	225.33
966.49	225.32
966.78	225.30
967.08	225.32
967.37	225.34
967.67	225.33
967.96	225.34
968.26	225.36
968.55	225.40
968.85	225.40
969.14	225.44
969.43	225.44
969.73	225.43
970.02	225.40
970.32	225.38
970.61	225.37
970.91	225.33
971.20	225.33
971.49	225.32
971.79	225.33
972.08	225.26
972.38	225.29
972.67	225.29
972.96	225.29
973.26	225.26
973.55	225.29
973.85	225.32
974.14	225.34
974.43	225.36
974.73	225.33
975.02	225.32
975.31	225.31
975.61	225.30
975.90	225.29
976.19	225.30
976.49	225.30
976.78	225.35
977.07	225.38
977.37	225.38
977.66	225.38
977.95	225.37
978.24	225.38
978.54	225.40
978.83	225.38
979.12	225.41
979.42	225.40
979.71	225.37
980.00	225.34
980.29	225.32
980.59	225.31
980.88	225.35
981.17	225.35
981.46	225.34
981.76	225.35
982.05	225.38
982.34	225.38
982.63	225.39
982.93	225.38
983.22	225.36
983.51	225.38
983.80	225.40
984.09	225.39
984.39	225.38
984.68	225.34
984.97	225.38
985.26	225.38
985.55	225.42
985.85	225.38
986.14	225.41
986.43	225.44
986.72	225.40
987.01	225.36
987.30	225.36
987.59	225.34
987.89	225.34
988.18	225.30
988.47	225.28
988.76	225.28
989.05	225.24
989.34	225.24
989.63	225.24
989.92	225.21
990.22	225.19
990.51	225.20
990.80	225.21
991.09	225.15
991.38	225.14
991.67	225.10
991.96	225.12
992.25	225.11
992.54	225.06
992.83	225.08
993.12	225.06
993.41	225.11
993.70	225.16
993.99	225.14
994.28	225.17
994.58	225.20
994.87	225.18
995.16	225.15
995.45	225.17
995.74	225.12
996.03	225.11
996.32	225.14
996.61	225.18
996.90	225.14
997.19	225.17
997.48	225.19
997.77	225.17
998.06	225.15
998.34	225.11
998.63	225.13
998.92	225.11
999.21	225.15
999.50	225.13
999.79	225.11
1000.08	225.09
1000.37	225.09
1000.66	225.06
1000.95	225.09
1001.24	225.14
1001.53	225.11
1001.82	225.11
1002.11	225.10
1002.40	225.10
1002.68	225.07
1002.97	225.20
1003.26	225.18
1003.55	225.12
1003.84	225.12
1004.13	225.18
1004.42	225.18
1004.71	225.18
1004.99	225.19
1005.28	225.20
1005.57	225.20
1005.86	225.17
1006.15	225.19
1006.44	225.16
1006.72	225.15
1007.01	225.15
1007.30	225.10
1007.59	225.12
1007.88	225.14
1008.17	225.15
1008.45	225.11
1008.74	225.09
1009.03	225.02
1009.32	225.03
1009.60	225.02
1009.89	225.02
1010.18	224.97
1010.47	224.97
1010.76	224.96
1011.04	224.94
1011.33	224.93
1011.62	224.93
1011.91	224.92
1012.19	224.92
1012.48	224.96
1012.77	224.98
1013.05	225.00
1013.34	225.02
1013.63	225.00
1013.92	224.99
1014.20	225.00
1014.49	225.03
1014.78	225.03
1015.06	225.01
1015.35	225.01
1015.64	225.03
1015.92	225.07
1016.21	225.08
1016.50	225.09
1016.78	225.11
1017.07	225.10
1017.36	225.09
1017.64	225.06
1017.93	225.08
1018.22	225.09
1018.50	225.09
1018.79	225.08
1019.08	225.04
1019.36	225.08
1019.65	225.06
1019.93	225.08
1020.22	225.08
1020.51	225.10
1020.79	225.11
1021.08	225.09
1021.36	225.19
1021.65	225.24
1021.94	225.00
1022.22	225.81
1022.51	224.49
1022.79	225.21
1023.08	225.23
1023.36	225.43
1023.65	225.25
>>>>>End Processed Spectral Data<<<<<
