SpectraSuite Data File
++++++++++++++++++++++++++++++++++++
Date: Fri Feb 01 16:35:20 EST 2013
User: group
Dark Spectrum Present: No
Reference Spectrum Present: No
Number of Sampled Component Spectra: 1
Spectrometers: USB2E7196
Integration Time (usec): 35000 (USB2E7196)
Spectra Averaged: 100 (USB2E7196)
Boxcar Smoothing: 10 (USB2E7196)
Correct for Electrical Dark: No (USB2E7196)
Strobe/Lamp Enabled: No (USB2E7196)
Correct for Detector Non-linearity: No (USB2E7196)
Correct for Stray Light: No (USB2E7196)
Number of Pixels in Processed Spectrum: 2048
>>>>>Begin Processed Spectral Data<<<<<
339.09	0.00
339.48	214.12
339.86	215.31
340.24	216.83
340.63	218.13
341.01	221.12
341.39	220.82
341.78	222.63
342.16	223.20
342.54	223.95
342.93	212.26
343.31	222.98
343.69	223.46
344.07	223.93
344.46	224.32
344.84	224.71
345.22	224.93
345.60	225.17
345.99	225.30
346.37	225.41
346.75	225.51
347.13	225.55
347.52	225.60
347.90	225.65
348.28	225.65
348.66	225.66
349.05	225.65
349.43	225.67
349.81	225.70
350.19	225.75
350.57	225.79
350.96	225.84
351.34	225.88
351.72	225.98
352.10	226.05
352.48	226.15
352.87	226.16
353.25	226.23
353.63	226.29
354.01	226.37
354.39	226.46
354.77	226.53
355.15	226.64
355.54	226.68
355.92	226.74
356.30	226.82
356.68	226.96
357.06	227.04
357.44	227.11
357.82	227.19
358.20	227.24
358.58	227.33
358.97	227.39
359.35	227.50
359.73	227.61
360.11	227.67
360.49	227.72
360.87	227.80
361.25	227.85
361.63	227.90
362.01	227.96
362.39	227.99
362.77	228.03
363.15	228.07
363.53	228.12
363.91	228.16
364.29	228.20
364.67	228.12
365.05	228.15
365.43	228.19
365.81	228.23
366.19	228.28
366.57	228.33
366.95	228.33
367.33	228.33
367.71	228.29
368.09	228.33
368.47	228.32
368.85	228.27
369.23	228.30
369.61	228.29
369.99	228.29
370.37	228.29
370.75	228.29
371.13	228.23
371.51	228.20
371.89	228.17
372.27	228.14
372.65	228.11
373.03	228.08
373.41	228.03
373.78	227.94
374.16	227.87
374.54	227.79
374.92	227.71
375.30	227.63
375.68	227.57
376.06	227.48
376.44	227.41
376.82	227.38
377.19	227.28
377.57	227.21
377.95	227.11
378.33	227.03
378.71	226.94
379.09	226.91
379.47	226.85
379.84	226.78
380.22	226.71
380.60	226.64
380.98	226.54
381.36	226.47
381.73	226.41
382.11	226.40
382.49	226.35
382.87	226.28
383.25	226.24
383.62	226.30
384.00	226.22
384.38	226.17
384.76	226.12
385.13	226.12
385.51	226.07
385.89	226.04
386.27	226.01
386.64	225.96
387.02	225.89
387.40	225.86
387.78	225.80
388.15	225.77
388.53	225.75
388.91	225.75
389.29	225.70
389.66	225.69
390.04	225.60
390.42	225.58
390.79	225.58
391.17	225.59
391.55	225.45
391.92	225.41
392.30	225.43
392.68	225.42
393.05	225.41
393.43	225.39
393.81	225.35
394.18	225.33
394.56	225.35
394.94	225.36
395.31	225.33
395.69	225.39
396.06	225.38
396.44	225.39
396.82	225.38
397.19	225.47
397.57	225.48
397.95	225.51
398.32	225.51
398.70	225.56
399.07	225.58
399.45	225.63
399.82	225.71
400.20	225.71
400.58	225.77
400.95	225.81
401.33	225.90
401.70	226.05
402.08	226.14
402.45	226.18
402.83	226.26
403.20	226.38
403.58	226.43
403.95	226.59
404.33	226.71
404.71	226.83
405.08	227.00
405.46	227.12
405.83	227.28
406.21	227.41
406.58	227.60
406.96	227.76
407.33	227.97
407.70	228.17
408.08	228.48
408.45	228.69
408.83	228.91
409.20	229.12
409.58	229.30
409.95	229.57
410.33	229.84
410.70	230.11
411.08	230.40
411.45	230.76
411.82	231.01
412.20	231.39
412.57	231.84
412.95	232.12
413.32	232.55
413.69	232.98
414.07	233.43
414.44	233.87
414.82	234.36
415.19	234.88
415.56	235.42
415.94	235.96
416.31	236.58
416.68	237.19
417.06	237.89
417.43	238.56
417.81	239.31
418.18	240.11
418.55	240.94
418.93	241.81
419.30	242.68
419.67	243.65
420.04	244.56
420.42	245.53
420.79	246.72
421.16	247.88
421.54	249.05
421.91	250.26
422.28	251.54
422.66	252.85
423.03	254.15
423.40	255.46
423.77	256.87
424.15	258.31
424.52	259.79
424.89	261.40
425.26	262.98
425.64	264.41
426.01	266.01
426.38	267.71
426.75	269.37
427.13	271.10
427.50	272.90
427.87	274.79
428.24	276.66
428.61	278.41
428.99	280.33
429.36	282.43
429.73	284.47
430.10	286.51
430.47	288.62
430.85	290.75
431.22	292.97
431.59	295.28
431.96	297.48
432.33	299.95
432.70	302.30
433.08	305.03
433.45	307.66
433.82	310.24
434.19	313.11
434.56	315.94
434.93	318.61
435.30	321.23
435.68	324.08
436.05	326.91
436.42	329.68
436.79	332.19
437.16	334.85
437.53	337.69
437.90	340.48
438.27	343.19
438.64	346.00
439.01	348.60
439.38	350.83
439.75	353.03
440.13	355.47
440.50	357.81
440.87	359.65
441.24	361.58
441.61	363.73
441.98	365.18
442.35	366.95
442.72	368.74
443.09	370.50
443.46	371.51
443.83	372.07
444.20	372.57
444.57	373.43
444.94	373.76
445.31	374.09
445.68	374.38
446.05	374.42
446.42	374.02
446.79	373.60
447.16	373.17
447.53	372.85
447.90	371.73
448.27	370.58
448.64	369.06
449.01	367.92
449.37	365.95
449.74	364.03
450.11	361.80
450.48	359.33
450.85	356.83
451.22	354.64
451.59	352.60
451.96	350.64
452.33	347.97
452.70	345.57
453.07	342.77
453.43	339.87
453.80	337.11
454.17	334.44
454.54	331.94
454.91	329.22
455.28	326.55
455.65	324.07
456.02	321.63
456.38	319.52
456.75	316.88
457.12	314.69
457.49	312.49
457.86	310.31
458.23	308.51
458.59	306.45
458.96	304.43
459.33	302.62
459.70	300.75
460.07	299.33
460.43	297.61
460.80	296.00
461.17	294.58
461.54	293.12
461.91	291.70
462.27	290.26
462.64	289.05
463.01	287.72
463.38	286.46
463.74	285.11
464.11	283.92
464.48	282.94
464.85	281.83
465.21	280.98
465.58	280.10
465.95	278.99
466.32	278.09
466.68	277.18
467.05	276.28
467.42	275.41
467.78	274.47
468.15	273.64
468.52	272.96
468.88	272.12
469.25	271.33
469.62	270.74
469.98	270.07
470.35	269.44
470.72	268.85
471.08	268.24
471.45	267.73
471.82	267.16
472.18	266.57
472.55	266.15
472.92	265.67
473.28	265.21
473.65	264.82
474.02	264.40
474.38	264.06
474.75	263.79
475.11	263.47
475.48	263.22
475.85	262.98
476.21	262.75
476.58	262.61
476.94	262.45
477.31	262.29
477.67	262.14
478.04	262.06
478.41	262.02
478.77	261.99
479.14	261.94
479.50	261.99
479.87	262.06
480.23	262.12
480.60	262.16
480.96	262.26
481.33	262.45
481.69	262.64
482.06	262.80
482.42	262.97
482.79	263.22
483.15	263.50
483.52	263.88
483.88	264.23
484.25	264.60
484.61	265.06
484.98	265.49
485.34	266.03
485.71	266.58
486.07	267.15
486.44	267.71
486.80	268.41
487.17	269.11
487.53	269.91
487.90	270.75
488.26	271.68
488.62	272.68
488.99	273.64
489.35	274.72
489.72	275.86
490.08	277.06
490.44	278.34
490.81	279.70
491.17	281.06
491.54	282.57
491.90	284.13
492.26	285.79
492.63	287.54
492.99	289.34
493.36	291.24
493.72	293.32
494.08	295.44
494.45	297.67
494.81	300.05
495.17	302.50
495.54	305.13
495.90	307.85
496.26	310.65
496.63	313.62
496.99	316.76
497.35	320.06
497.72	323.46
498.08	327.00
498.44	330.75
498.80	334.69
499.17	338.73
499.53	342.90
499.89	347.25
500.26	351.79
500.62	356.51
500.98	361.54
501.34	366.65
501.71	371.99
502.07	377.42
502.43	383.00
502.79	388.85
503.16	394.92
503.52	401.20
503.88	407.63
504.24	414.27
504.60	421.16
504.97	428.29
505.33	435.66
505.69	443.38
506.05	451.08
506.41	458.94
506.78	467.05
507.14	475.57
507.50	484.33
507.86	493.35
508.22	502.55
508.59	511.68
508.95	521.20
509.31	531.05
509.67	541.17
510.03	551.52
510.39	562.04
510.75	572.79
511.12	583.68
511.48	594.94
511.84	606.39
512.20	617.83
512.56	629.70
512.92	641.83
513.28	654.14
513.64	666.63
514.00	679.34
514.37	692.37
514.73	705.37
515.09	718.31
515.45	731.56
515.81	745.13
516.17	759.12
516.53	773.35
516.89	787.47
517.25	801.60
517.61	815.95
517.97	830.42
518.33	844.88
518.69	859.61
519.05	874.62
519.41	889.81
519.77	905.24
520.13	920.79
520.49	936.08
520.85	951.40
521.21	966.99
521.57	983.27
521.93	998.98
522.29	1015.21
522.65	1031.47
523.01	1047.53
523.37	1063.49
523.73	1079.61
524.09	1095.52
524.45	1111.77
524.81	1128.39
525.17	1145.05
525.53	1161.71
525.89	1178.46
526.25	1195.24
526.61	1211.53
526.97	1228.23
527.33	1244.68
527.68	1261.12
528.04	1277.51
528.40	1294.06
528.76	1311.10
529.12	1327.52
529.48	1344.23
529.84	1360.09
530.20	1376.54
530.56	1393.45
530.91	1410.73
531.27	1427.33
531.63	1443.65
531.99	1460.13
532.35	1476.02
532.71	1491.90
533.07	1508.16
533.42	1523.94
533.78	1539.95
534.14	1556.01
534.50	1571.09
534.86	1586.88
535.21	1601.97
535.57	1617.86
535.93	1633.10
536.29	1647.75
536.65	1662.55
537.00	1677.00
537.36	1692.25
537.72	1706.63
538.08	1720.99
538.44	1734.53
538.79	1748.18
539.15	1761.49
539.51	1774.93
539.87	1788.95
540.22	1802.36
540.58	1815.77
540.94	1828.78
541.29	1841.28
541.65	1853.73
542.01	1866.70
542.37	1878.73
542.72	1890.90
543.08	1902.40
543.44	1914.60
543.79	1925.74
544.15	1936.73
544.51	1948.32
544.87	1959.11
545.22	1969.96
545.58	1980.08
545.94	1989.85
546.29	1999.75
546.65	2009.83
547.01	2019.24
547.36	2027.86
547.72	2036.44
548.07	2044.48
548.43	2052.76
548.79	2060.67
549.14	2068.44
549.50	2075.88
549.86	2083.57
550.21	2090.86
550.57	2098.11
550.92	2104.83
551.28	2111.96
551.64	2119.03
551.99	2125.53
552.35	2131.84
552.70	2137.92
553.06	2143.73
553.41	2150.02
553.77	2156.05
554.13	2161.83
554.48	2167.79
554.84	2173.47
555.19	2178.76
555.55	2183.86
555.90	2188.21
556.26	2193.30
556.61	2197.84
556.97	2202.22
557.32	2206.42
557.68	2210.52
558.03	2214.75
558.39	2218.41
558.74	2222.81
559.10	2226.62
559.45	2230.37
559.81	2234.58
560.16	2238.38
560.52	2241.82
560.87	2245.22
561.23	2247.71
561.58	2250.92
561.94	2253.54
562.29	2255.70
562.64	2258.50
563.00	2261.04
563.35	2264.65
563.71	2267.82
564.06	2270.91
564.42	2273.82
564.77	2276.46
565.12	2278.86
565.48	2280.96
565.83	2282.89
566.19	2284.42
566.54	2285.29
566.89	2286.48
567.25	2287.21
567.60	2288.54
567.96	2290.26
568.31	2291.13
568.66	2292.54
569.02	2293.18
569.37	2293.58
569.72	2294.71
570.08	2294.85
570.43	2295.07
570.78	2294.57
571.14	2292.98
571.49	2291.83
571.84	2291.53
572.20	2290.37
572.55	2289.48
572.90	2287.70
573.26	2286.32
573.61	2284.46
573.96	2282.92
574.31	2280.09
574.67	2277.22
575.02	2273.61
575.37	2270.22
575.72	2266.58
576.08	2263.18
576.43	2259.71
576.78	2256.22
577.13	2252.87
577.49	2249.70
577.84	2246.22
578.19	2242.48
578.54	2239.01
578.90	2235.02
579.25	2229.34
579.60	2224.51
579.95	2219.39
580.30	2214.58
580.66	2209.58
581.01	2204.77
581.36	2199.70
581.71	2195.56
582.06	2191.23
582.42	2186.79
582.77	2181.69
583.12	2177.20
583.47	2172.61
583.82	2168.01
584.17	2162.85
584.53	2157.45
584.88	2151.91
585.23	2146.30
585.58	2140.89
585.93	2135.47
586.28	2130.48
586.63	2125.61
586.98	2120.56
587.34	2115.95
587.69	2111.09
588.04	2105.81
588.39	2100.33
588.74	2093.94
589.09	2087.68
589.44	2080.91
589.79	2074.94
590.14	2069.27
590.49	2062.66
590.84	2056.16
591.19	2049.99
591.54	2043.42
591.89	2036.34
592.25	2029.81
592.60	2022.61
592.95	2015.25
593.30	2008.15
593.65	2000.64
594.00	1993.65
594.35	1986.48
594.70	1978.51
595.05	1971.46
595.40	1964.22
595.75	1956.72
596.10	1950.82
596.45	1944.34
596.80	1938.19
597.15	1931.76
597.50	1924.94
597.85	1918.55
598.19	1912.12
598.54	1905.17
598.89	1898.57
599.24	1892.63
599.59	1886.03
599.94	1879.76
600.29	1873.45
600.64	1866.65
600.99	1859.34
601.34	1852.53
601.69	1845.49
602.04	1838.79
602.39	1831.43
602.74	1824.72
603.08	1818.07
603.43	1811.23
603.78	1803.93
604.13	1796.66
604.48	1789.47
604.83	1782.54
605.18	1775.84
605.53	1767.83
605.87	1759.75
606.22	1752.53
606.57	1744.50
606.92	1736.90
607.27	1729.77
607.62	1722.96
607.96	1715.84
608.31	1709.38
608.66	1701.85
609.01	1694.42
609.36	1686.81
609.70	1678.79
610.05	1670.84
610.40	1663.14
610.75	1654.86
611.10	1647.13
611.44	1638.72
611.79	1630.54
612.14	1621.82
612.49	1612.52
612.83	1604.22
613.18	1596.07
613.53	1587.97
613.88	1579.62
614.22	1571.42
614.57	1562.73
614.92	1554.59
615.27	1547.18
615.61	1538.84
615.96	1530.84
616.31	1523.18
616.65	1515.71
617.00	1508.30
617.35	1500.45
617.70	1492.25
618.04	1483.78
618.39	1475.57
618.74	1468.10
619.08	1459.88
619.43	1452.24
619.78	1445.33
620.12	1438.21
620.47	1430.83
620.82	1422.69
621.16	1415.13
621.51	1407.55
621.85	1400.09
622.20	1391.52
622.55	1383.00
622.89	1375.11
623.24	1367.35
623.59	1359.91
623.93	1352.43
624.28	1345.09
624.62	1337.77
624.97	1330.48
625.32	1323.61
625.66	1316.58
626.01	1309.35
626.35	1302.03
626.70	1294.38
627.04	1286.77
627.39	1278.88
627.73	1271.40
628.08	1264.63
628.43	1257.51
628.77	1250.27
629.12	1242.74
629.46	1235.64
629.81	1228.19
630.15	1221.05
630.50	1213.75
630.84	1205.67
631.19	1197.70
631.53	1190.24
631.88	1182.56
632.22	1174.97
632.57	1167.71
632.91	1160.15
633.26	1152.71
633.60	1145.20
633.95	1137.95
634.29	1130.84
634.64	1124.16
634.98	1116.87
635.32	1109.63
635.67	1102.80
636.01	1096.11
636.36	1089.38
636.70	1082.85
637.05	1076.29
637.39	1069.77
637.73	1063.31
638.08	1057.41
638.42	1051.52
638.77	1045.06
639.11	1038.49
639.45	1032.10
639.80	1025.49
640.14	1019.10
640.49	1012.71
640.83	1006.53
641.17	1000.46
641.52	994.11
641.86	987.68
642.20	981.84
642.55	975.51
642.89	969.23
643.23	962.61
643.58	956.69
643.92	950.55
644.26	944.57
644.61	938.50
644.95	932.48
645.29	925.97
645.64	919.22
645.98	912.85
646.32	906.94
646.66	900.90
647.01	895.11
647.35	889.48
647.69	883.57
648.04	877.94
648.38	872.15
648.72	866.28
649.06	860.20
649.41	854.24
649.75	848.34
650.09	842.33
650.43	836.55
650.78	830.47
651.12	824.47
651.46	818.67
651.80	812.95
652.14	807.49
652.49	802.08
652.83	796.90
653.17	791.34
653.51	785.73
653.85	780.30
654.20	774.76
654.54	768.68
654.88	762.81
655.22	756.92
655.56	751.18
655.90	745.59
656.25	740.43
656.59	735.10
656.93	729.88
657.27	724.69
657.61	719.29
657.95	714.21
658.29	709.12
658.64	703.81
658.98	698.49
659.32	693.12
659.66	687.90
660.00	682.57
660.34	677.61
660.68	672.62
661.02	667.57
661.36	662.74
661.70	658.34
662.05	654.07
662.39	649.77
662.73	645.29
663.07	640.86
663.41	636.43
663.75	631.94
664.09	627.47
664.43	623.13
664.77	619.01
665.11	614.78
665.45	610.61
665.79	606.62
666.13	602.49
666.47	598.29
666.81	594.14
667.15	590.02
667.49	586.06
667.83	582.21
668.17	578.37
668.51	574.31
668.85	570.18
669.19	566.31
669.53	562.51
669.87	558.70
670.21	555.08
670.55	551.39
670.89	547.94
671.23	544.54
671.57	541.01
671.91	537.44
672.25	533.90
672.58	530.34
672.92	526.89
673.26	523.69
673.60	520.55
673.94	517.44
674.28	514.57
674.62	511.63
674.96	508.53
675.30	505.59
675.64	502.66
675.97	499.89
676.31	496.93
676.65	493.98
676.99	491.26
677.33	488.35
677.67	485.48
678.01	482.40
678.34	479.42
678.68	476.50
679.02	473.69
679.36	470.92
679.70	468.26
680.04	465.51
680.37	462.70
680.71	459.89
681.05	457.25
681.39	454.50
681.73	451.80
682.06	449.31
682.40	446.75
682.74	444.18
683.08	441.60
683.42	439.06
683.75	436.56
684.09	433.91
684.43	431.48
684.77	429.02
685.10	426.70
685.44	424.36
685.78	422.09
686.12	419.79
686.45	417.45
686.79	415.18
687.13	412.97
687.46	410.77
687.80	408.63
688.14	406.40
688.48	404.33
688.81	402.15
689.15	399.97
689.49	397.79
689.82	395.71
690.16	393.65
690.50	391.71
690.83	389.74
691.17	387.79
691.51	385.86
691.84	384.05
692.18	382.15
692.52	380.20
692.85	378.24
693.19	376.41
693.52	374.58
693.86	372.75
694.20	370.96
694.53	369.19
694.87	367.34
695.21	365.55
695.54	363.71
695.88	361.95
696.21	360.25
696.55	358.58
696.88	356.89
697.22	355.23
697.56	353.61
697.89	352.02
698.23	350.47
698.56	348.85
698.90	347.28
699.23	345.65
699.57	344.09
699.90	342.52
700.24	340.98
700.58	339.47
700.91	338.01
701.25	336.57
701.58	335.19
701.92	333.83
702.25	332.46
702.59	331.08
702.92	329.76
703.26	328.42
703.59	327.13
703.93	325.92
704.26	324.69
704.60	323.38
704.93	322.04
705.26	320.80
705.60	319.63
705.93	318.45
706.27	317.40
706.60	316.34
706.94	315.30
707.27	314.18
707.61	313.12
707.94	312.02
708.27	310.92
708.61	309.86
708.94	308.82
709.28	307.86
709.61	306.95
709.94	305.99
710.28	304.98
710.61	303.99
710.95	302.92
711.28	302.02
711.61	301.11
711.95	300.22
712.28	299.28
712.61	298.30
712.95	297.34
713.28	296.44
713.61	295.52
713.95	294.66
714.28	293.80
714.61	292.96
714.95	292.15
715.28	291.32
715.61	290.41
715.95	289.57
716.28	288.69
716.61	287.81
716.95	286.99
717.28	286.24
717.61	285.50
717.94	284.78
718.28	283.93
718.61	283.14
718.94	282.42
719.27	281.73
719.61	281.08
719.94	280.44
720.27	279.71
720.60	279.05
720.94	278.40
721.27	277.80
721.60	277.20
721.93	276.58
722.27	275.98
722.60	275.41
722.93	274.81
723.26	274.29
723.59	273.73
723.93	273.18
724.26	272.62
724.59	272.03
724.92	271.46
725.25	270.97
725.59	270.46
725.92	269.96
726.25	269.44
726.58	268.93
726.91	268.39
727.24	267.92
727.57	267.43
727.91	266.90
728.24	266.42
728.57	265.89
728.90	265.42
729.23	264.95
729.56	264.55
729.89	264.07
730.22	263.53
730.55	263.07
730.89	262.62
731.22	262.15
731.55	261.70
731.88	261.30
732.21	260.89
732.54	260.47
732.87	260.03
733.20	259.62
733.53	259.22
733.86	258.87
734.19	258.47
734.52	258.10
734.85	257.82
735.18	257.45
735.51	257.13
735.84	256.78
736.17	256.42
736.50	255.98
736.83	255.76
737.16	255.47
737.49	255.16
737.82	254.84
738.15	254.50
738.48	254.19
738.81	253.86
739.14	253.52
739.47	253.22
739.80	252.90
740.13	252.61
740.46	252.32
740.79	252.00
741.12	251.72
741.45	251.40
741.78	251.04
742.11	250.76
742.44	250.45
742.77	250.15
743.10	249.88
743.43	249.60
743.75	249.25
744.08	249.10
744.41	248.84
744.74	248.57
745.07	248.33
745.40	248.13
745.73	247.90
746.06	247.64
746.39	247.37
746.71	247.15
747.04	246.85
747.37	246.58
747.70	246.34
748.03	246.08
748.36	245.86
748.68	245.65
749.01	245.38
749.34	245.15
749.67	244.94
750.00	244.73
750.33	244.59
750.65	244.36
750.98	244.05
751.31	243.81
751.64	243.61
751.97	243.44
752.29	243.17
752.62	242.87
752.95	242.66
753.28	242.44
753.60	242.22
753.93	242.09
754.26	241.89
754.59	241.68
754.91	241.50
755.24	241.31
755.57	241.08
755.90	240.92
756.22	240.71
756.55	240.50
756.88	240.28
757.20	240.04
757.53	239.86
757.86	239.67
758.19	239.55
758.51	239.36
758.84	239.12
759.17	238.96
759.49	238.85
759.82	238.71
760.15	238.56
760.47	238.43
760.80	238.23
761.13	238.10
761.45	237.91
761.78	237.76
762.11	237.61
762.43	237.48
762.76	237.30
763.08	237.18
763.41	237.05
763.74	236.91
764.06	236.74
764.39	236.56
764.71	236.41
765.04	236.21
765.37	236.09
765.69	235.95
766.02	235.81
766.34	235.73
766.67	235.57
767.00	235.46
767.32	235.37
767.65	235.32
767.97	235.14
768.30	235.04
768.62	234.93
768.95	234.79
769.27	234.68
769.60	234.61
769.92	234.48
770.25	234.33
770.57	234.21
770.90	234.10
771.22	234.01
771.55	233.91
771.87	233.86
772.20	233.74
772.52	233.74
772.85	233.76
773.17	233.65
773.50	233.57
773.82	233.49
774.15	233.34
774.47	233.18
774.80	233.11
775.12	233.01
775.45	232.90
775.77	232.84
776.09	232.77
776.42	232.65
776.74	232.59
777.07	232.51
777.39	232.44
777.72	232.40
778.04	232.34
778.36	232.27
778.69	232.18
779.01	232.15
779.33	232.01
779.66	231.83
779.98	231.75
780.31	231.68
780.63	231.68
780.95	231.64
781.28	231.57
781.60	231.52
781.92	231.49
782.25	231.43
782.57	231.36
782.89	231.27
783.22	231.22
783.54	231.16
783.86	231.12
784.19	231.07
784.51	231.04
784.83	230.99
785.16	230.95
785.48	230.92
785.80	230.85
786.12	230.81
786.45	230.76
786.77	230.69
787.09	230.63
787.42	230.52
787.74	230.47
788.06	230.43
788.38	230.40
788.71	230.34
789.03	230.31
789.35	230.27
789.67	230.22
789.99	230.20
790.32	230.13
790.64	230.09
790.96	230.12
791.28	230.03
791.61	230.00
791.93	229.96
792.25	229.89
792.57	229.90
792.89	229.85
793.21	229.84
793.54	229.81
793.86	229.75
794.18	229.73
794.50	229.69
794.82	229.68
795.14	229.64
795.47	229.63
795.79	229.58
796.11	229.55
796.43	229.50
796.75	229.45
797.07	229.42
797.39	229.40
797.71	229.30
798.04	229.32
798.36	229.25
798.68	229.21
799.00	229.18
799.32	229.12
799.64	229.12
799.96	229.08
800.28	229.07
800.60	229.04
800.92	229.01
801.24	228.95
801.56	228.92
801.89	228.86
802.21	228.82
802.53	228.77
802.85	228.75
803.17	228.79
803.49	228.73
803.81	228.71
804.13	228.68
804.45	228.63
804.77	228.57
805.09	228.59
805.41	228.58
805.73	228.55
806.05	228.48
806.37	228.43
806.69	228.39
807.01	228.35
807.33	228.34
807.65	228.26
807.97	228.30
808.28	228.27
808.60	228.27
808.92	228.26
809.24	228.29
809.56	228.24
809.88	228.19
810.20	228.19
810.52	228.20
810.84	228.15
811.16	228.13
811.48	228.10
811.80	228.10
812.12	228.08
812.43	228.05
812.75	228.04
813.07	228.02
813.39	228.01
813.71	227.97
814.03	227.96
814.35	227.95
814.67	227.87
814.98	227.84
815.30	227.83
815.62	227.77
815.94	227.70
816.26	227.74
816.58	227.70
816.89	227.68
817.21	227.62
817.53	227.63
817.85	227.62
818.17	227.60
818.48	227.53
818.80	227.53
819.12	227.53
819.44	227.51
819.76	227.51
820.07	227.47
820.39	227.49
820.71	227.48
821.03	227.49
821.34	227.48
821.66	227.50
821.98	227.49
822.30	227.48
822.61	227.52
822.93	227.47
823.25	227.46
823.57	227.45
823.88	227.46
824.20	227.45
824.52	227.47
824.83	227.45
825.15	227.43
825.47	227.38
825.79	227.37
826.10	227.32
826.42	227.28
826.74	227.32
827.05	227.27
827.37	227.26
827.69	227.20
828.00	227.19
828.32	227.13
828.64	227.11
828.95	227.16
829.27	227.15
829.58	227.12
829.90	227.15
830.22	227.15
830.53	227.13
830.85	227.14
831.17	227.08
831.48	227.07
831.80	227.04
832.11	227.04
832.43	227.01
832.75	227.01
833.06	227.07
833.38	227.01
833.69	227.05
834.01	227.04
834.32	227.08
834.64	227.04
834.96	227.05
835.27	227.01
835.59	226.96
835.90	226.92
836.22	226.94
836.53	226.91
836.85	226.88
837.16	227.00
837.48	226.97
837.79	227.00
838.11	227.03
838.42	227.02
838.74	227.04
839.05	227.04
839.37	227.06
839.68	227.01
840.00	227.00
840.31	226.94
840.63	226.95
840.94	226.91
841.26	226.92
841.57	226.94
841.88	226.95
842.20	226.95
842.51	226.94
842.83	226.91
843.14	226.98
843.46	226.96
843.77	226.89
844.08	226.87
844.40	226.82
844.71	226.79
845.03	226.83
845.34	226.80
845.65	226.78
845.97	226.76
846.28	226.74
846.60	226.73
846.91	226.74
847.22	226.71
847.54	226.70
847.85	226.66
848.16	226.63
848.48	226.59
848.79	226.61
849.10	226.62
849.42	226.61
849.73	226.55
850.04	226.54
850.36	226.50
850.67	226.51
850.98	226.51
851.30	226.52
851.61	226.48
851.92	226.49
852.23	226.51
852.55	226.51
852.86	226.48
853.17	226.50
853.49	226.53
853.80	226.55
854.11	226.55
854.42	226.58
854.74	226.55
855.05	226.58
855.36	226.52
855.67	226.52
855.99	226.52
856.30	226.60
856.61	226.62
856.92	226.60
857.23	226.58
857.55	226.58
857.86	226.58
858.17	226.61
858.48	226.56
858.79	226.56
859.11	226.57
859.42	226.59
859.73	226.57
860.04	226.55
860.35	226.51
860.66	226.50
860.98	226.51
861.29	226.53
861.60	226.51
861.91	226.51
862.22	226.49
862.53	226.47
862.84	226.37
863.16	226.37
863.47	226.37
863.78	226.38
864.09	226.37
864.40	226.37
864.71	226.37
865.02	226.39
865.33	226.37
865.64	226.35
865.95	226.34
866.27	226.41
866.58	226.40
866.89	226.41
867.20	226.42
867.51	226.39
867.82	226.37
868.13	226.42
868.44	226.44
868.75	226.42
869.06	226.43
869.37	226.44
869.68	226.39
869.99	226.39
870.30	226.38
870.61	226.39
870.92	226.39
871.23	226.34
871.54	226.35
871.85	226.37
872.16	226.38
872.47	226.36
872.78	226.27
873.09	226.30
873.40	226.29
873.71	226.29
874.02	226.31
874.33	226.30
874.64	226.27
874.95	226.26
875.26	226.26
875.56	226.27
875.87	226.23
876.18	226.22
876.49	226.33
876.80	226.32
877.11	226.29
877.42	226.26
877.73	226.27
878.04	226.27
878.35	226.22
878.66	226.20
878.96	226.20
879.27	226.19
879.58	226.16
879.89	226.13
880.20	226.16
880.51	226.17
880.82	226.16
881.12	226.13
881.43	226.12
881.74	226.11
882.05	226.07
882.36	226.06
882.67	226.07
882.97	225.95
883.28	225.94
883.59	225.91
883.90	225.95
884.21	225.98
884.51	225.94
884.82	225.97
885.13	225.97
885.44	226.00
885.74	226.01
886.05	226.02
886.36	226.04
886.67	225.97
886.98	225.99
887.28	226.00
887.59	226.00
887.90	226.01
888.20	225.98
888.51	226.00
888.82	226.01
889.13	226.02
889.43	226.09
889.74	226.07
890.05	226.09
890.35	226.04
890.66	226.01
890.97	226.00
891.28	226.03
891.58	226.02
891.89	225.97
892.20	225.97
892.50	225.93
892.81	225.91
893.12	225.91
893.42	225.87
893.73	225.86
894.04	225.88
894.34	225.88
894.65	225.90
894.95	225.88
895.26	225.89
895.57	225.95
895.87	225.87
896.18	225.91
896.48	225.90
896.79	225.93
897.10	225.94
897.40	225.94
897.71	225.91
898.01	225.87
898.32	225.90
898.63	225.90
898.93	225.90
899.24	225.90
899.54	225.89
899.85	225.88
900.15	225.88
900.46	225.88
900.76	225.86
901.07	225.87
901.38	225.89
901.68	225.87
901.99	225.80
902.29	225.80
902.60	225.80
902.90	225.81
903.21	225.80
903.51	225.78
903.82	225.82
904.12	225.81
904.43	225.86
904.73	225.86
905.03	225.85
905.34	225.95
905.64	225.95
905.95	225.96
906.25	225.94
906.56	225.95
906.86	225.95
907.17	225.97
907.47	225.96
907.77	225.93
908.08	225.93
908.38	225.94
908.69	225.95
908.99	225.94
909.30	225.95
909.60	225.93
909.90	225.94
910.21	225.92
910.51	225.90
910.81	225.90
911.12	225.88
911.42	225.92
911.73	225.80
912.03	225.80
912.33	225.83
912.64	225.83
912.94	225.83
913.24	225.83
913.55	225.81
913.85	225.82
914.15	225.85
914.46	225.84
914.76	225.79
915.06	225.79
915.37	225.80
915.67	225.81
915.97	225.85
916.27	225.82
916.58	225.82
916.88	225.81
917.18	225.80
917.49	225.87
917.79	225.83
918.09	225.87
918.39	225.89
918.70	225.87
919.00	225.91
919.30	225.96
919.60	225.94
919.91	225.93
920.21	225.92
920.51	225.87
920.81	225.87
921.12	225.93
921.42	225.94
921.72	225.94
922.02	225.89
922.32	225.89
922.63	225.88
922.93	225.93
923.23	225.94
923.53	225.93
923.83	225.88
924.13	225.89
924.44	225.86
924.74	225.90
925.04	225.90
925.34	225.87
925.64	225.82
925.94	225.84
926.24	225.87
926.55	225.89
926.85	225.92
927.15	225.95
927.45	225.91
927.75	225.90
928.05	225.90
928.35	225.89
928.65	225.90
928.95	225.92
929.26	225.88
929.56	225.89
929.86	225.91
930.16	225.90
930.46	225.94
930.76	225.95
931.06	225.89
931.36	225.92
931.66	225.95
931.96	225.93
932.26	225.93
932.56	225.93
932.86	225.90
933.16	225.90
933.46	225.88
933.76	225.91
934.06	225.93
934.36	225.97
934.66	226.01
934.96	225.99
935.26	226.02
935.56	226.03
935.86	226.01
936.16	226.01
936.46	225.99
936.76	225.95
937.06	225.92
937.36	225.91
937.66	225.87
937.96	225.84
938.26	225.85
938.56	225.83
938.86	225.79
939.16	225.82
939.46	225.83
939.76	225.85
940.06	225.83
940.35	225.78
940.65	225.71
940.95	225.70
941.25	225.66
941.55	225.63
941.85	225.60
942.15	225.65
942.45	225.66
942.75	225.68
943.04	225.71
943.34	225.76
943.64	225.75
943.94	225.75
944.24	225.76
944.54	225.79
944.84	225.79
945.13	225.80
945.43	225.78
945.73	225.77
946.03	225.76
946.33	225.75
946.62	225.75
946.92	225.77
947.22	225.76
947.52	225.77
947.82	225.79
948.11	225.77
948.41	225.75
948.71	225.72
949.01	225.73
949.31	225.71
949.60	225.69
949.90	225.70
950.20	225.68
950.50	225.69
950.79	225.65
951.09	225.69
951.39	225.65
951.69	225.63
951.98	225.64
952.28	225.62
952.58	225.65
952.87	225.63
953.17	225.61
953.47	225.59
953.76	225.63
954.06	225.60
954.36	225.61
954.66	225.59
954.95	225.62
955.25	225.60
955.55	225.61
955.84	225.59
956.14	225.61
956.44	225.61
956.73	225.58
957.03	225.60
957.32	225.56
957.62	225.59
957.92	225.64
958.21	225.61
958.51	225.71
958.81	225.72
959.10	225.75
959.40	225.80
959.69	225.80
959.99	225.78
960.29	225.81
960.58	225.79
960.88	225.83
961.17	225.80
961.47	225.82
961.76	225.81
962.06	225.83
962.36	225.83
962.65	225.86
962.95	225.87
963.24	225.86
963.54	225.90
963.83	225.90
964.13	225.88
964.42	225.86
964.72	225.82
965.01	225.83
965.31	225.82
965.60	225.78
965.90	225.85
966.19	225.84
966.49	225.83
966.78	225.87
967.08	225.85
967.37	225.87
967.67	225.86
967.96	225.91
968.26	225.89
968.55	225.87
968.85	225.86
969.14	225.88
969.43	225.86
969.73	225.85
970.02	225.88
970.32	225.88
970.61	225.89
970.91	225.85
971.20	225.81
971.49	225.80
971.79	225.80
972.08	225.76
972.38	225.78
972.67	225.80
972.96	225.81
973.26	225.76
973.55	225.80
973.85	225.79
974.14	225.75
974.43	225.76
974.73	225.75
975.02	225.75
975.31	225.75
975.61	225.77
975.90	225.77
976.19	225.74
976.49	225.75
976.78	225.80
977.07	225.80
977.37	225.82
977.66	225.88
977.95	225.87
978.24	225.86
978.54	225.86
978.83	225.84
979.12	225.84
979.42	225.87
979.71	225.83
980.00	225.84
980.29	225.84
980.59	225.85
980.88	225.87
981.17	225.86
981.46	225.86
981.76	225.83
982.05	225.86
982.34	225.89
982.63	225.86
982.93	225.87
983.22	225.90
983.51	225.88
983.80	225.85
984.09	225.89
984.39	225.88
984.68	225.88
984.97	225.88
985.26	225.87
985.55	225.87
985.85	225.85
986.14	225.87
986.43	225.86
986.72	225.88
987.01	225.86
987.30	225.86
987.59	225.86
987.89	225.88
988.18	225.84
988.47	225.79
988.76	225.81
989.05	225.79
989.34	225.77
989.63	225.84
989.92	225.84
990.22	225.77
990.51	225.77
990.80	225.75
991.09	225.72
991.38	225.70
991.67	225.67
991.96	225.66
992.25	225.67
992.54	225.67
992.83	225.65
993.12	225.61
993.41	225.63
993.70	225.66
993.99	225.66
994.28	225.67
994.58	225.70
994.87	225.69
995.16	225.66
995.45	225.67
995.74	225.62
996.03	225.61
996.32	225.65
996.61	225.64
996.90	225.66
997.19	225.68
997.48	225.69
997.77	225.71
998.06	225.72
998.34	225.71
998.63	225.70
998.92	225.71
999.21	225.75
999.50	225.73
999.79	225.72
1000.08	225.74
1000.37	225.72
1000.66	225.73
1000.95	225.74
1001.24	225.77
1001.53	225.73
1001.82	225.73
1002.11	225.73
1002.40	225.76
1002.68	225.81
1002.97	225.88
1003.26	225.87
1003.55	225.86
1003.84	225.85
1004.13	225.90
1004.42	225.90
1004.71	225.89
1004.99	225.89
1005.28	225.95
1005.57	225.93
1005.86	225.86
1006.15	225.84
1006.44	225.84
1006.72	225.80
1007.01	225.80
1007.30	225.80
1007.59	225.82
1007.88	225.83
1008.17	225.84
1008.45	225.83
1008.74	225.77
1009.03	225.71
1009.32	225.71
1009.60	225.69
1009.89	225.69
1010.18	225.63
1010.47	225.61
1010.76	225.65
1011.04	225.64
1011.33	225.63
1011.62	225.66
1011.91	225.70
1012.19	225.74
1012.48	225.76
1012.77	225.76
1013.05	225.79
1013.34	225.79
1013.63	225.75
1013.92	225.75
1014.20	225.75
1014.49	225.72
1014.78	225.73
1015.06	225.71
1015.35	225.72
1015.64	225.74
1015.92	225.77
1016.21	225.77
1016.50	225.79
1016.78	225.76
1017.07	225.78
1017.36	225.74
1017.64	225.72
1017.93	225.71
1018.22	225.68
1018.50	225.68
1018.79	225.69
1019.08	225.64
1019.36	225.62
1019.65	225.62
1019.93	225.64
1020.22	225.63
1020.51	225.66
1020.79	225.63
1021.08	225.69
1021.36	225.78
1021.65	225.60
1021.94	225.29
1022.22	225.57
1022.51	225.21
1022.79	226.32
1023.08	225.53
1023.36	226.42
1023.65	224.69
>>>>>End Processed Spectral Data<<<<<
