SpectraSuite Data File
++++++++++++++++++++++++++++++++++++
Date: Fri Feb 01 15:06:36 EST 2013
User: group
Dark Spectrum Present: No
Reference Spectrum Present: No
Number of Sampled Component Spectra: 1
Spectrometers: USB2E7196
Integration Time (usec): 35000 (USB2E7196)
Spectra Averaged: 100 (USB2E7196)
Boxcar Smoothing: 10 (USB2E7196)
Correct for Electrical Dark: No (USB2E7196)
Strobe/Lamp Enabled: No (USB2E7196)
Correct for Detector Non-linearity: No (USB2E7196)
Correct for Stray Light: No (USB2E7196)
Number of Pixels in Processed Spectrum: 2048
>>>>>Begin Processed Spectral Data<<<<<
339.09	0.00
339.48	214.57
339.86	216.65
340.24	218.54
340.63	219.80
341.01	222.93
341.39	222.05
341.78	223.67
342.16	225.03
342.54	225.84
342.93	213.79
343.31	224.59
343.69	225.18
344.07	225.66
344.46	226.04
344.84	226.44
345.22	226.63
345.60	226.89
345.99	227.08
346.37	227.19
346.75	227.28
347.13	227.35
347.52	227.42
347.90	227.50
348.28	227.54
348.66	227.54
349.05	227.51
349.43	227.52
349.81	227.54
350.19	227.59
350.57	227.63
350.96	227.68
351.34	227.76
351.72	227.86
352.10	227.94
352.48	228.04
352.87	228.07
353.25	228.14
353.63	228.20
354.01	228.24
354.39	228.31
354.77	228.36
355.15	228.46
355.54	228.51
355.92	228.52
356.30	228.57
356.68	228.74
357.06	228.80
357.44	228.85
357.82	228.90
358.20	228.96
358.58	229.00
358.97	229.04
359.35	229.08
359.73	229.10
360.11	229.13
360.49	229.20
360.87	229.22
361.25	229.27
361.63	229.32
362.01	229.38
362.39	229.38
362.77	229.38
363.15	229.35
363.53	229.34
363.91	229.37
364.29	229.38
364.67	229.25
365.05	229.28
365.43	229.28
365.81	229.27
366.19	229.22
366.57	229.22
366.95	229.20
367.33	229.17
367.71	229.19
368.09	229.15
368.47	229.08
368.85	229.04
369.23	229.01
369.61	228.95
369.99	228.89
370.37	228.87
370.75	228.87
371.13	228.83
371.51	228.79
371.89	228.73
372.27	228.69
372.65	228.66
373.03	228.59
373.41	228.50
373.78	228.44
374.16	228.35
374.54	228.24
374.92	228.18
375.30	228.11
375.68	227.98
376.06	227.95
376.44	227.88
376.82	227.82
377.19	227.73
377.57	227.65
377.95	227.59
378.33	227.52
378.71	227.39
379.09	227.33
379.47	227.24
379.84	227.14
380.22	227.05
380.60	226.96
380.98	226.87
381.36	226.84
381.73	226.79
382.11	226.76
382.49	226.75
382.87	226.69
383.25	226.62
383.62	226.70
384.00	226.61
384.38	226.58
384.76	226.56
385.13	226.59
385.51	226.54
385.89	226.45
386.27	226.41
386.64	226.40
387.02	226.38
387.40	226.36
387.78	226.35
388.15	226.32
388.53	226.31
388.91	226.31
389.29	226.26
389.66	226.23
390.04	226.21
390.42	226.21
390.79	226.20
391.17	226.23
391.55	226.12
391.92	226.12
392.30	226.13
392.68	226.12
393.05	226.10
393.43	226.13
393.81	226.17
394.18	226.19
394.56	226.24
394.94	226.29
395.31	226.31
395.69	226.40
396.06	226.46
396.44	226.49
396.82	226.54
397.19	226.63
397.57	226.69
397.95	226.73
398.32	226.78
398.70	226.88
399.07	226.93
399.45	226.99
399.82	227.07
400.20	227.12
400.58	227.19
400.95	227.22
401.33	227.34
401.70	227.51
402.08	227.60
402.45	227.68
402.83	227.79
403.20	227.92
403.58	228.02
403.95	228.18
404.33	228.32
404.71	228.45
405.08	228.67
405.46	228.82
405.83	228.98
406.21	229.13
406.58	229.27
406.96	229.43
407.33	229.64
407.70	229.86
408.08	230.13
408.45	230.38
408.83	230.65
409.20	230.86
409.58	231.05
409.95	231.32
410.33	231.63
410.70	231.85
411.08	232.18
411.45	232.49
411.82	232.77
412.20	233.13
412.57	233.56
412.95	233.83
413.32	234.22
413.69	234.66
414.07	235.10
414.44	235.55
414.82	236.07
415.19	236.57
415.56	237.14
415.94	237.69
416.31	238.31
416.68	238.93
417.06	239.66
417.43	240.34
417.81	241.11
418.18	241.87
418.55	242.71
418.93	243.55
419.30	244.45
419.67	245.37
420.04	246.32
420.42	247.30
420.79	248.51
421.16	249.66
421.54	250.83
421.91	252.05
422.28	253.33
422.66	254.62
423.03	255.97
423.40	257.29
423.77	258.70
424.15	260.14
424.52	261.63
424.89	263.20
425.26	264.72
425.64	266.15
426.01	267.74
426.38	269.39
426.75	271.06
427.13	272.77
427.50	274.63
427.87	276.47
428.24	278.33
428.61	280.04
428.99	282.00
429.36	284.11
429.73	286.18
430.10	288.20
430.47	290.25
430.85	292.39
431.22	294.63
431.59	297.03
431.96	299.31
432.33	301.80
432.70	304.18
433.08	307.05
433.45	309.73
433.82	312.34
434.19	315.28
434.56	318.08
434.93	320.77
435.30	323.41
435.68	326.33
436.05	329.17
436.42	332.00
436.79	334.51
437.16	337.20
437.53	339.99
437.90	342.81
438.27	345.61
438.64	348.41
439.01	351.04
439.38	353.26
439.75	355.40
440.13	357.90
440.50	360.25
440.87	362.09
441.24	364.04
441.61	366.23
441.98	367.73
442.35	369.54
442.72	371.39
443.09	373.13
443.46	374.13
443.83	374.71
444.20	375.23
444.57	376.07
444.94	376.37
445.31	376.78
445.68	377.13
446.05	377.19
446.42	376.86
446.79	376.42
447.16	375.95
447.53	375.64
447.90	374.51
448.27	373.35
448.64	371.74
449.01	370.56
449.37	368.56
449.74	366.60
450.11	364.36
450.48	361.85
450.85	359.39
451.22	357.23
451.59	355.20
451.96	353.23
452.33	350.64
452.70	348.30
453.07	345.39
453.43	342.50
453.80	339.73
454.17	337.02
454.54	334.46
454.91	331.79
455.28	329.08
455.65	326.61
456.02	324.16
456.38	321.99
456.75	319.33
457.12	317.11
457.49	314.93
457.86	312.77
458.23	310.94
458.59	308.86
458.96	306.81
459.33	304.98
459.70	303.10
460.07	301.60
460.43	299.88
460.80	298.29
461.17	296.86
461.54	295.39
461.91	293.98
462.27	292.52
462.64	291.24
463.01	289.92
463.38	288.63
463.74	287.23
464.11	286.11
464.48	285.12
464.85	284.02
465.21	283.15
465.58	282.20
465.95	281.11
466.32	280.20
466.68	279.29
467.05	278.39
467.42	277.50
467.78	276.55
468.15	275.67
468.52	274.99
468.88	274.11
469.25	273.31
469.62	272.64
469.98	271.93
470.35	271.27
470.72	270.63
471.08	269.93
471.45	269.42
471.82	268.83
472.18	268.22
472.55	267.73
472.92	267.20
473.28	266.76
473.65	266.30
474.02	265.87
474.38	265.47
474.75	265.12
475.11	264.78
475.48	264.52
475.85	264.29
476.21	264.07
476.58	263.89
476.94	263.73
477.31	263.56
477.67	263.43
478.04	263.33
478.41	263.28
478.77	263.29
479.14	263.21
479.50	263.22
479.87	263.25
480.23	263.32
480.60	263.36
480.96	263.43
481.33	263.64
481.69	263.83
482.06	264.01
482.42	264.21
482.79	264.42
483.15	264.71
483.52	265.06
483.88	265.38
484.25	265.73
484.61	266.12
484.98	266.58
485.34	267.15
485.71	267.71
486.07	268.29
486.44	268.82
486.80	269.49
487.17	270.25
487.53	271.04
487.90	271.88
488.26	272.80
488.62	273.75
488.99	274.67
489.35	275.67
489.72	276.79
490.08	277.97
490.44	279.22
490.81	280.54
491.17	281.86
491.54	283.31
491.90	284.85
492.26	286.50
492.63	288.19
492.99	289.93
493.36	291.80
493.72	293.84
494.08	295.92
494.45	298.15
494.81	300.46
495.17	302.94
495.54	305.44
495.90	308.09
496.26	310.90
496.63	313.86
496.99	316.97
497.35	320.23
497.72	323.64
498.08	327.10
498.44	330.76
498.80	334.62
499.17	338.64
499.53	342.82
499.89	347.18
500.26	351.69
500.62	356.35
500.98	361.31
501.34	366.36
501.71	371.70
502.07	377.14
502.43	382.72
502.79	388.48
503.16	394.55
503.52	400.85
503.88	407.21
504.24	413.84
504.60	420.72
504.97	427.79
505.33	435.09
505.69	442.86
506.05	450.62
506.41	458.54
506.78	466.65
507.14	475.10
507.50	483.79
507.86	492.81
508.22	501.94
508.59	511.12
508.95	520.71
509.31	530.53
509.67	540.67
510.03	550.95
510.39	561.49
510.75	572.32
511.12	583.24
511.48	594.57
511.84	606.05
512.20	617.59
512.56	629.61
512.92	641.74
513.28	653.99
513.64	666.49
514.00	679.20
514.37	692.16
514.73	705.20
515.09	718.23
515.45	731.50
515.81	745.22
516.17	759.26
516.53	773.36
516.89	787.52
517.25	801.65
517.61	816.19
517.97	830.72
518.33	845.21
518.69	860.00
519.05	875.00
519.41	890.15
519.77	905.64
520.13	921.06
520.49	936.60
520.85	952.06
521.21	967.91
521.57	984.24
521.93	1000.08
522.29	1016.53
522.65	1032.88
523.01	1049.24
523.37	1065.26
523.73	1081.48
524.09	1097.64
524.45	1114.03
524.81	1130.69
525.17	1147.50
525.53	1164.45
525.89	1181.33
526.25	1198.23
526.61	1214.74
526.97	1231.64
527.33	1248.08
527.68	1264.85
528.04	1281.34
528.40	1298.10
528.76	1315.10
529.12	1331.73
529.48	1348.65
529.84	1364.70
530.20	1381.40
530.56	1398.49
530.91	1415.91
531.27	1432.72
531.63	1449.34
531.99	1466.00
532.35	1482.06
532.71	1498.00
533.07	1514.28
533.42	1530.23
533.78	1546.27
534.14	1562.58
534.50	1577.87
534.86	1593.95
535.21	1609.01
535.57	1624.99
535.93	1640.50
536.29	1655.45
536.65	1670.66
537.00	1685.63
537.36	1701.11
537.72	1715.65
538.08	1730.01
538.44	1744.01
538.79	1757.99
539.15	1771.76
539.51	1785.65
539.87	1800.15
540.22	1813.90
540.58	1827.76
540.94	1841.17
541.29	1854.39
541.65	1867.15
542.01	1880.61
542.37	1893.02
542.72	1905.70
543.08	1917.58
543.44	1930.08
543.79	1941.21
544.15	1952.15
544.51	1963.65
544.87	1974.63
545.22	1985.57
545.58	1995.84
545.94	2005.66
546.29	2015.67
546.65	2025.44
547.01	2034.81
547.36	2043.54
547.72	2052.09
548.07	2059.96
548.43	2068.17
548.79	2076.20
549.14	2083.74
549.50	2091.08
549.86	2098.83
550.21	2106.06
550.57	2113.23
550.92	2119.76
551.28	2126.90
551.64	2133.95
551.99	2140.55
552.35	2146.67
552.70	2152.81
553.06	2158.74
553.41	2164.96
553.77	2170.84
554.13	2176.99
554.48	2183.01
554.84	2188.37
555.19	2193.75
555.55	2198.84
555.90	2203.38
556.26	2207.98
556.61	2212.73
556.97	2216.85
557.32	2220.95
557.68	2225.14
558.03	2229.47
558.39	2233.21
558.74	2237.84
559.10	2241.62
559.45	2245.22
559.81	2249.61
560.16	2253.28
560.52	2256.52
560.87	2260.03
561.23	2262.64
561.58	2265.44
561.94	2267.77
562.29	2270.30
562.64	2272.87
563.00	2275.52
563.35	2278.85
563.71	2281.98
564.06	2285.09
564.42	2287.84
564.77	2290.19
565.12	2292.32
565.48	2293.90
565.83	2295.67
566.19	2296.69
566.54	2297.64
566.89	2298.56
567.25	2298.96
567.60	2300.39
567.96	2301.93
568.31	2302.69
568.66	2303.53
569.02	2304.15
569.37	2304.50
569.72	2304.99
570.08	2304.99
570.43	2304.79
570.78	2304.01
571.14	2302.44
571.49	2300.98
571.84	2300.53
572.20	2299.27
572.55	2298.06
572.90	2296.57
573.26	2294.95
573.61	2293.24
573.96	2291.33
574.31	2288.31
574.67	2285.19
575.02	2281.35
575.37	2278.00
575.72	2273.92
576.08	2270.66
576.43	2267.17
576.78	2263.22
577.13	2260.05
577.49	2256.90
577.84	2253.31
578.19	2249.58
578.54	2245.72
578.90	2241.31
579.25	2235.74
579.60	2230.71
579.95	2225.68
580.30	2220.46
580.66	2215.20
581.01	2210.28
581.36	2205.24
581.71	2200.88
582.06	2196.28
582.42	2191.58
582.77	2186.06
583.12	2181.33
583.47	2176.41
583.82	2171.18
584.17	2165.87
584.53	2160.19
584.88	2154.49
585.23	2148.69
585.58	2143.10
585.93	2137.72
586.28	2132.91
586.63	2127.74
586.98	2122.57
587.34	2117.82
587.69	2112.81
588.04	2107.49
588.39	2101.60
588.74	2095.13
589.09	2088.93
589.44	2082.10
589.79	2076.11
590.14	2070.56
590.49	2064.02
590.84	2057.43
591.19	2051.43
591.54	2044.83
591.89	2037.31
592.25	2030.31
592.60	2022.93
592.95	2015.33
593.30	2007.79
593.65	2000.04
594.00	1993.00
594.35	1985.68
594.70	1977.38
595.05	1970.02
595.40	1962.69
595.75	1955.23
596.10	1948.80
596.45	1941.87
596.80	1935.55
597.15	1928.82
597.50	1921.50
597.85	1915.15
598.19	1908.51
598.54	1901.26
598.89	1894.72
599.24	1888.78
599.59	1881.98
599.94	1875.77
600.29	1869.38
600.64	1862.76
600.99	1855.31
601.34	1848.21
601.69	1841.19
602.04	1834.29
602.39	1827.06
602.74	1820.20
603.08	1813.43
603.43	1806.69
603.78	1799.62
604.13	1792.42
604.48	1785.07
604.83	1778.35
605.18	1771.06
605.53	1763.10
605.87	1755.23
606.22	1747.85
606.57	1739.94
606.92	1732.74
607.27	1725.45
607.62	1718.43
607.96	1711.12
608.31	1704.48
608.66	1696.96
609.01	1689.34
609.36	1681.79
609.70	1673.74
610.05	1665.71
610.40	1657.98
610.75	1649.72
611.10	1641.89
611.44	1633.62
611.79	1625.64
612.14	1616.81
612.49	1607.79
612.83	1599.54
613.18	1591.36
613.53	1583.31
613.88	1574.89
614.22	1566.60
614.57	1558.23
614.92	1550.21
615.27	1542.63
615.61	1534.32
615.96	1526.37
616.31	1518.91
616.65	1511.55
617.00	1504.06
617.35	1496.35
617.70	1487.94
618.04	1479.39
618.39	1471.17
618.74	1463.53
619.08	1455.10
619.43	1447.60
619.78	1440.64
620.12	1433.38
620.47	1425.88
620.82	1417.74
621.16	1410.34
621.51	1402.75
621.85	1395.11
622.20	1386.75
622.55	1378.39
622.89	1370.73
623.24	1363.15
623.59	1355.63
623.93	1348.17
624.28	1340.89
624.62	1333.33
624.97	1326.29
625.32	1319.57
625.66	1312.58
626.01	1305.38
626.35	1298.12
626.70	1290.33
627.04	1282.70
627.39	1274.98
627.73	1267.57
628.08	1260.64
628.43	1253.23
628.77	1245.89
629.12	1238.33
629.46	1231.01
629.81	1223.68
630.15	1216.37
630.50	1208.91
630.84	1200.80
631.19	1192.86
631.53	1185.37
631.88	1177.92
632.22	1170.34
632.57	1163.11
632.91	1155.67
633.26	1148.16
633.60	1140.89
633.95	1133.94
634.29	1126.92
634.64	1120.23
634.98	1112.89
635.32	1105.87
635.67	1099.47
636.01	1092.86
636.36	1086.00
636.70	1079.57
637.05	1073.07
637.39	1066.73
637.73	1060.26
638.08	1054.45
638.42	1048.62
638.77	1042.22
639.11	1035.58
639.45	1029.21
639.80	1022.54
640.14	1016.09
640.49	1009.66
640.83	1003.33
641.17	997.05
641.52	990.75
641.86	984.41
642.20	978.59
642.55	972.41
642.89	965.82
643.23	959.29
643.58	953.60
643.92	947.40
644.26	941.24
644.61	935.17
644.95	929.15
645.29	922.50
645.64	915.68
645.98	909.40
646.32	903.69
646.66	897.68
647.01	891.93
647.35	886.31
647.69	880.53
648.04	875.02
648.38	869.20
648.72	863.19
649.06	857.12
649.41	851.24
649.75	845.17
650.09	839.18
650.43	833.38
650.78	827.25
651.12	821.32
651.46	815.68
651.80	809.85
652.14	804.45
652.49	799.13
652.83	794.02
653.17	788.29
653.51	782.53
653.85	777.18
654.20	771.47
654.54	765.52
654.88	759.80
655.22	753.93
655.56	748.39
655.90	742.97
656.25	737.69
656.59	732.39
656.93	727.33
657.27	722.23
657.61	716.86
657.95	711.82
658.29	706.79
658.64	701.61
658.98	696.31
659.32	690.90
659.66	685.69
660.00	680.30
660.34	675.43
660.68	670.53
661.02	665.49
661.36	660.80
661.70	656.31
662.05	651.92
662.39	647.63
662.73	643.17
663.07	638.80
663.41	634.40
663.75	629.89
664.09	625.33
664.43	620.99
664.77	616.82
665.11	612.53
665.45	608.43
665.79	604.33
666.13	600.32
666.47	596.27
666.81	592.16
667.15	588.18
667.49	584.28
667.83	580.53
668.17	576.58
668.51	572.57
668.85	568.56
669.19	564.77
669.53	560.91
669.87	557.05
670.21	553.38
670.55	549.74
670.89	546.34
671.23	542.93
671.57	539.46
671.91	535.99
672.25	532.59
672.58	529.08
672.92	525.73
673.26	522.60
673.60	519.52
673.94	516.41
674.28	513.50
674.62	510.58
674.96	507.48
675.30	504.58
675.64	501.70
675.97	498.94
676.31	496.08
676.65	493.17
676.99	490.50
677.33	487.68
677.67	484.91
678.01	481.90
678.34	478.99
678.68	476.13
679.02	473.34
679.36	470.54
679.70	467.86
680.04	465.08
680.37	462.18
680.71	459.41
681.05	456.86
681.39	454.13
681.73	451.51
682.06	448.99
682.40	446.49
682.74	443.98
683.08	441.41
683.42	438.87
683.75	436.42
684.09	433.89
684.43	431.42
684.77	428.95
685.10	426.67
685.44	424.33
685.78	422.06
686.12	419.85
686.45	417.58
686.79	415.30
687.13	413.15
687.46	411.07
687.80	408.90
688.14	406.67
688.48	404.62
688.81	402.38
689.15	400.23
689.49	398.07
689.82	396.04
690.16	393.99
690.50	392.00
690.83	390.05
691.17	388.05
691.51	386.20
691.84	384.36
692.18	382.38
692.52	380.42
692.85	378.48
693.19	376.61
693.52	374.81
693.86	373.01
694.20	371.23
694.53	369.40
694.87	367.59
695.21	365.82
695.54	364.01
695.88	362.33
696.21	360.62
696.55	358.91
696.88	357.17
697.22	355.50
697.56	353.94
697.89	352.29
698.23	350.66
698.56	349.01
698.90	347.43
699.23	345.79
699.57	344.23
699.90	342.70
700.24	341.11
700.58	339.52
700.91	338.01
701.25	336.54
701.58	335.15
701.92	333.76
702.25	332.38
702.59	331.06
702.92	329.71
703.26	328.47
703.59	327.23
703.93	326.11
704.26	324.87
704.60	323.57
704.93	322.30
705.26	321.07
705.60	319.91
705.93	318.74
706.27	317.77
706.60	316.76
706.94	315.71
707.27	314.60
707.61	313.57
707.94	312.54
708.27	311.44
708.61	310.39
708.94	309.44
709.28	308.44
709.61	307.43
709.94	306.51
710.28	305.45
710.61	304.50
710.95	303.38
711.28	302.48
711.61	301.55
711.95	300.64
712.28	299.69
712.61	298.72
712.95	297.81
713.28	296.91
713.61	296.00
713.95	295.11
714.28	294.28
714.61	293.43
714.95	292.61
715.28	291.79
715.61	290.91
715.95	290.04
716.28	289.22
716.61	288.44
716.95	287.65
717.28	286.95
717.61	286.20
717.94	285.47
718.28	284.68
718.61	283.99
718.94	283.36
719.27	282.75
719.61	282.12
719.94	281.48
720.27	280.76
720.60	280.15
720.94	279.59
721.27	279.01
721.60	278.44
721.93	277.88
722.27	277.36
722.60	276.83
722.93	276.25
723.26	275.76
723.59	275.19
723.93	274.65
724.26	274.08
724.59	273.51
724.92	273.01
725.25	272.50
725.59	271.94
725.92	271.41
726.25	270.91
726.58	270.41
726.91	269.93
727.24	269.51
727.57	268.99
727.91	268.46
728.24	268.05
728.57	267.58
728.90	267.08
729.23	266.58
729.56	266.15
729.89	265.71
730.22	265.18
730.55	264.73
730.89	264.26
731.22	263.83
731.55	263.37
731.88	262.96
732.21	262.55
732.54	262.09
732.87	261.66
733.20	261.26
733.53	260.87
733.86	260.48
734.19	260.04
734.52	259.70
734.85	259.36
735.18	258.87
735.51	258.52
735.84	258.14
736.17	257.75
736.50	257.35
736.83	257.10
737.16	256.78
737.49	256.44
737.82	256.10
738.15	255.79
738.48	255.46
738.81	255.08
739.14	254.76
739.47	254.47
739.80	254.11
740.13	253.77
740.46	253.42
740.79	253.08
741.12	252.80
741.45	252.45
741.78	252.16
742.11	251.89
742.44	251.54
742.77	251.25
743.10	250.97
743.43	250.63
743.75	250.24
744.08	250.10
744.41	249.82
744.74	249.56
745.07	249.23
745.40	249.04
745.73	248.83
746.06	248.53
746.39	248.27
746.71	248.05
747.04	247.79
747.37	247.56
747.70	247.32
748.03	247.11
748.36	246.88
748.68	246.61
749.01	246.35
749.34	246.16
749.67	245.92
750.00	245.71
750.33	245.58
750.65	245.40
750.98	245.06
751.31	244.82
751.64	244.62
751.97	244.49
752.29	244.24
752.62	244.02
752.95	243.83
753.28	243.61
753.60	243.37
753.93	243.23
754.26	243.03
754.59	242.82
754.91	242.59
755.24	242.40
755.57	242.21
755.90	242.06
756.22	241.83
756.55	241.66
756.88	241.46
757.20	241.23
757.53	240.98
757.86	240.80
758.19	240.66
758.51	240.46
758.84	240.24
759.17	240.09
759.49	239.94
759.82	239.82
760.15	239.69
760.47	239.55
760.80	239.35
761.13	239.23
761.45	239.09
761.78	238.94
762.11	238.80
762.43	238.65
762.76	238.51
763.08	238.39
763.41	238.24
763.74	238.11
764.06	237.96
764.39	237.85
764.71	237.72
765.04	237.59
765.37	237.45
765.69	237.31
766.02	237.19
766.34	237.00
766.67	236.83
767.00	236.76
767.32	236.69
767.65	236.63
767.97	236.48
768.30	236.37
768.62	236.27
768.95	236.14
769.27	236.02
769.60	235.90
769.92	235.76
770.25	235.65
770.57	235.54
770.90	235.44
771.22	235.33
771.55	235.21
771.87	235.09
772.20	235.02
772.52	234.99
772.85	234.96
773.17	234.91
773.50	234.82
773.82	234.67
774.15	234.56
774.47	234.42
774.80	234.34
775.12	234.24
775.45	234.13
775.77	234.04
776.09	233.99
776.42	233.89
776.74	233.85
777.07	233.79
777.39	233.73
777.72	233.66
778.04	233.63
778.36	233.58
778.69	233.52
779.01	233.43
779.33	233.27
779.66	233.12
779.98	233.01
780.31	232.97
780.63	232.94
780.95	232.86
781.28	232.79
781.60	232.72
781.92	232.65
782.25	232.59
782.57	232.55
782.89	232.47
783.22	232.41
783.54	232.34
783.86	232.26
784.19	232.18
784.51	232.15
784.83	232.06
785.16	232.02
785.48	232.00
785.80	231.95
786.12	231.91
786.45	231.86
786.77	231.83
787.09	231.77
787.42	231.69
787.74	231.68
788.06	231.69
788.38	231.64
788.71	231.58
789.03	231.56
789.35	231.54
789.67	231.49
789.99	231.48
790.32	231.42
790.64	231.41
790.96	231.44
791.28	231.38
791.61	231.35
791.93	231.31
792.25	231.26
792.57	231.31
792.89	231.29
793.21	231.26
793.54	231.22
793.86	231.16
794.18	231.13
794.50	231.07
794.82	231.01
795.14	230.97
795.47	230.97
795.79	230.92
796.11	230.87
796.43	230.85
796.75	230.82
797.07	230.83
797.39	230.79
797.71	230.68
798.04	230.62
798.36	230.58
798.68	230.55
799.00	230.52
799.32	230.44
799.64	230.40
799.96	230.38
800.28	230.38
800.60	230.33
800.92	230.30
801.24	230.26
801.56	230.24
801.89	230.25
802.21	230.21
802.53	230.20
802.85	230.18
803.17	230.22
803.49	230.15
803.81	230.09
804.13	230.05
804.45	230.01
804.77	230.01
805.09	229.98
805.41	229.92
805.73	229.84
806.05	229.79
806.37	229.75
806.69	229.70
807.01	229.65
807.33	229.66
807.65	229.60
807.97	229.62
808.28	229.58
808.60	229.53
808.92	229.48
809.24	229.49
809.56	229.44
809.88	229.35
810.20	229.34
810.52	229.33
810.84	229.29
811.16	229.26
811.48	229.22
811.80	229.25
812.12	229.22
812.43	229.22
812.75	229.21
813.07	229.18
813.39	229.18
813.71	229.15
814.03	229.11
814.35	229.11
814.67	229.07
814.98	229.01
815.30	228.99
815.62	228.95
815.94	228.87
816.26	228.90
816.58	228.85
816.89	228.82
817.21	228.77
817.53	228.77
817.85	228.74
818.17	228.71
818.48	228.65
818.80	228.69
819.12	228.67
819.44	228.64
819.76	228.62
820.07	228.57
820.39	228.58
820.71	228.56
821.03	228.54
821.34	228.48
821.66	228.49
821.98	228.47
822.30	228.45
822.61	228.49
822.93	228.43
823.25	228.41
823.57	228.39
823.88	228.40
824.20	228.32
824.52	228.33
824.83	228.30
825.15	228.26
825.47	228.24
825.79	228.21
826.10	228.17
826.42	228.16
826.74	228.17
827.05	228.14
827.37	228.14
827.69	228.11
828.00	228.14
828.32	228.14
828.64	228.11
828.95	228.17
829.27	228.12
829.58	228.11
829.90	228.14
830.22	228.14
830.53	228.12
830.85	228.14
831.17	228.11
831.48	228.11
831.80	228.11
832.11	228.09
832.43	228.10
832.75	228.15
833.06	228.19
833.38	228.15
833.69	228.14
834.01	228.16
834.32	228.16
834.64	228.14
834.96	228.11
835.27	228.13
835.59	228.10
835.90	228.11
836.22	228.12
836.53	228.09
836.85	228.10
837.16	228.21
837.48	228.22
837.79	228.30
838.11	228.32
838.42	228.33
838.74	228.31
839.05	228.31
839.37	228.29
839.68	228.23
840.00	228.24
840.31	228.23
840.63	228.20
840.94	228.16
841.26	228.18
841.57	228.20
841.88	228.20
842.20	228.19
842.51	228.16
842.83	228.13
843.14	228.21
843.46	228.21
843.77	228.12
844.08	228.12
844.40	228.04
844.71	228.01
845.03	228.03
845.34	228.02
845.65	228.00
845.97	227.97
846.28	227.97
846.60	227.97
846.91	227.98
847.22	227.94
847.54	227.96
847.85	227.94
848.16	227.92
848.48	227.88
848.79	227.88
849.10	227.89
849.42	227.89
849.73	227.79
850.04	227.78
850.36	227.74
850.67	227.75
850.98	227.78
851.30	227.76
851.61	227.71
851.92	227.71
852.23	227.73
852.55	227.73
852.86	227.72
853.17	227.69
853.49	227.70
853.80	227.73
854.11	227.75
854.42	227.75
854.74	227.74
855.05	227.74
855.36	227.72
855.67	227.68
855.99	227.68
856.30	227.77
856.61	227.73
856.92	227.71
857.23	227.68
857.55	227.65
857.86	227.66
858.17	227.67
858.48	227.65
858.79	227.65
859.11	227.63
859.42	227.63
859.73	227.63
860.04	227.62
860.35	227.59
860.66	227.52
860.98	227.51
861.29	227.50
861.60	227.50
861.91	227.50
862.22	227.51
862.53	227.49
862.84	227.39
863.16	227.43
863.47	227.44
863.78	227.45
864.09	227.44
864.40	227.45
864.71	227.43
865.02	227.42
865.33	227.38
865.64	227.37
865.95	227.37
866.27	227.47
866.58	227.47
866.89	227.51
867.20	227.50
867.51	227.48
867.82	227.47
868.13	227.50
868.44	227.50
868.75	227.57
869.06	227.58
869.37	227.59
869.68	227.55
869.99	227.55
870.30	227.56
870.61	227.56
870.92	227.54
871.23	227.57
871.54	227.63
871.85	227.66
872.16	227.70
872.47	227.68
872.78	227.60
873.09	227.60
873.40	227.57
873.71	227.60
874.02	227.62
874.33	227.63
874.64	227.63
874.95	227.66
875.26	227.59
875.56	227.58
875.87	227.60
876.18	227.61
876.49	227.73
876.80	227.69
877.11	227.71
877.42	227.72
877.73	227.71
878.04	227.67
878.35	227.65
878.66	227.65
878.96	227.67
879.27	227.65
879.58	227.64
879.89	227.63
880.20	227.65
880.51	227.65
880.82	227.64
881.12	227.60
881.43	227.55
881.74	227.56
882.05	227.58
882.36	227.58
882.67	227.59
882.97	227.46
883.28	227.46
883.59	227.43
883.90	227.42
884.21	227.43
884.51	227.41
884.82	227.43
885.13	227.42
885.44	227.41
885.74	227.41
886.05	227.40
886.36	227.40
886.67	227.36
886.98	227.39
887.28	227.41
887.59	227.39
887.90	227.40
888.20	227.38
888.51	227.38
888.82	227.37
889.13	227.36
889.43	227.44
889.74	227.43
890.05	227.41
890.35	227.40
890.66	227.40
890.97	227.40
891.28	227.33
891.58	227.32
891.89	227.31
892.20	227.30
892.50	227.27
892.81	227.24
893.12	227.20
893.42	227.16
893.73	227.16
894.04	227.16
894.34	227.17
894.65	227.17
894.95	227.15
895.26	227.11
895.57	227.15
895.87	227.05
896.18	227.09
896.48	227.10
896.79	227.11
897.10	227.08
897.40	227.08
897.71	227.12
898.01	227.08
898.32	227.08
898.63	227.09
898.93	227.12
899.24	227.15
899.54	227.20
899.85	227.18
900.15	227.17
900.46	227.18
900.76	227.15
901.07	227.11
901.38	227.10
901.68	227.11
901.99	227.05
902.29	227.08
902.60	227.04
902.90	227.04
903.21	227.04
903.51	227.07
903.82	227.07
904.12	227.07
904.43	227.14
904.73	227.15
905.03	227.14
905.34	227.22
905.64	227.20
905.95	227.19
906.25	227.22
906.56	227.21
906.86	227.20
907.17	227.21
907.47	227.24
907.77	227.23
908.08	227.21
908.38	227.22
908.69	227.23
908.99	227.26
909.30	227.27
909.60	227.28
909.90	227.27
910.21	227.23
910.51	227.23
910.81	227.20
911.12	227.21
911.42	227.22
911.73	227.10
912.03	227.15
912.33	227.15
912.64	227.16
912.94	227.16
913.24	227.16
913.55	227.16
913.85	227.14
914.15	227.19
914.46	227.21
914.76	227.24
915.06	227.24
915.37	227.24
915.67	227.24
915.97	227.25
916.27	227.26
916.58	227.31
916.88	227.33
917.18	227.34
917.49	227.44
917.79	227.44
918.09	227.46
918.39	227.49
918.70	227.48
919.00	227.48
919.30	227.54
919.60	227.55
919.91	227.54
920.21	227.56
920.51	227.54
920.81	227.56
921.12	227.53
921.42	227.54
921.72	227.54
922.02	227.55
922.32	227.58
922.63	227.54
922.93	227.56
923.23	227.54
923.53	227.53
923.83	227.43
924.13	227.46
924.44	227.49
924.74	227.49
925.04	227.52
925.34	227.51
925.64	227.46
925.94	227.44
926.24	227.49
926.55	227.47
926.85	227.45
927.15	227.44
927.45	227.47
927.75	227.46
928.05	227.44
928.35	227.41
928.65	227.38
928.95	227.40
929.26	227.35
929.56	227.37
929.86	227.35
930.16	227.31
930.46	227.32
930.76	227.29
931.06	227.23
931.36	227.18
931.66	227.17
931.96	227.16
932.26	227.17
932.56	227.14
932.86	227.14
933.16	227.16
933.46	227.09
933.76	227.04
934.06	227.06
934.36	227.07
934.66	227.08
934.96	227.04
935.26	227.03
935.56	227.05
935.86	226.98
936.16	227.01
936.46	227.01
936.76	226.93
937.06	226.93
937.36	226.90
937.66	226.92
937.96	226.91
938.26	226.90
938.56	226.86
938.86	226.82
939.16	226.84
939.46	226.86
939.76	226.90
940.06	226.93
940.35	226.91
940.65	226.86
940.95	226.87
941.25	226.85
941.55	226.88
941.85	226.88
942.15	226.96
942.45	226.95
942.75	226.98
943.04	227.02
943.34	227.04
943.64	227.04
943.94	227.03
944.24	227.04
944.54	227.07
944.84	227.09
945.13	227.10
945.43	227.10
945.73	227.09
946.03	227.03
946.33	227.04
946.62	227.05
946.92	227.05
947.22	227.05
947.52	227.07
947.82	227.08
948.11	227.05
948.41	227.01
948.71	227.03
949.01	227.02
949.31	227.04
949.60	227.00
949.90	227.05
950.20	227.06
950.50	227.06
950.79	227.06
951.09	227.13
951.39	227.10
951.69	227.09
951.98	227.13
952.28	227.17
952.58	227.15
952.87	227.10
953.17	227.12
953.47	227.12
953.76	227.15
954.06	227.15
954.36	227.15
954.66	227.14
954.95	227.13
955.25	227.13
955.55	227.14
955.84	227.14
956.14	227.17
956.44	227.18
956.73	227.20
957.03	227.19
957.32	227.14
957.62	227.19
957.92	227.20
958.21	227.16
958.51	227.27
958.81	227.29
959.10	227.36
959.40	227.38
959.69	227.41
959.99	227.40
960.29	227.36
960.58	227.34
960.88	227.39
961.17	227.37
961.47	227.37
961.76	227.34
962.06	227.39
962.36	227.32
962.65	227.30
962.95	227.23
963.24	227.22
963.54	227.25
963.83	227.23
964.13	227.23
964.42	227.18
964.72	227.11
965.01	227.10
965.31	227.04
965.60	227.05
965.90	227.08
966.19	227.03
966.49	227.03
966.78	227.04
967.08	227.00
967.37	227.01
967.67	227.00
967.96	227.01
968.26	226.98
968.55	227.02
968.85	227.00
969.14	227.01
969.43	227.00
969.73	226.98
970.02	226.97
970.32	226.95
970.61	226.99
970.91	226.96
971.20	226.98
971.49	226.96
971.79	226.95
972.08	226.87
972.38	226.89
972.67	226.90
972.96	226.88
973.26	226.86
973.55	226.85
973.85	226.83
974.14	226.81
974.43	226.79
974.73	226.79
975.02	226.77
975.31	226.74
975.61	226.75
975.90	226.73
976.19	226.71
976.49	226.73
976.78	226.75
977.07	226.76
977.37	226.76
977.66	226.77
977.95	226.76
978.24	226.80
978.54	226.79
978.83	226.77
979.12	226.77
979.42	226.76
979.71	226.75
980.00	226.74
980.29	226.77
980.59	226.77
980.88	226.77
981.17	226.80
981.46	226.83
981.76	226.82
982.05	226.88
982.34	226.90
982.63	226.90
982.93	226.88
983.22	226.89
983.51	226.88
983.80	226.91
984.09	226.91
984.39	226.89
984.68	226.89
984.97	226.89
985.26	226.87
985.55	226.94
985.85	226.94
986.14	226.98
986.43	226.97
986.72	226.97
987.01	226.97
987.30	226.94
987.59	226.97
987.89	226.98
988.18	226.96
988.47	226.95
988.76	226.96
989.05	226.91
989.34	226.91
989.63	226.95
989.92	226.93
990.22	226.95
990.51	226.94
990.80	226.98
991.09	227.02
991.38	227.10
991.67	227.07
991.96	227.07
992.25	227.10
992.54	227.13
992.83	227.14
993.12	227.12
993.41	227.16
993.70	227.19
993.99	227.20
994.28	227.20
994.58	227.23
994.87	227.23
995.16	227.27
995.45	227.26
995.74	227.25
996.03	227.26
996.32	227.26
996.61	227.31
996.90	227.29
997.19	227.31
997.48	227.30
997.77	227.28
998.06	227.28
998.34	227.24
998.63	227.23
998.92	227.22
999.21	227.24
999.50	227.22
999.79	227.18
1000.08	227.17
1000.37	227.16
1000.66	227.15
1000.95	227.16
1001.24	227.16
1001.53	227.17
1001.82	227.14
1002.11	227.13
1002.40	227.12
1002.68	227.14
1002.97	227.20
1003.26	227.15
1003.55	227.10
1003.84	227.12
1004.13	227.17
1004.42	227.17
1004.71	227.16
1004.99	227.12
1005.28	227.13
1005.57	227.15
1005.86	227.15
1006.15	227.17
1006.44	227.14
1006.72	227.13
1007.01	227.08
1007.30	227.06
1007.59	227.04
1007.88	227.02
1008.17	226.99
1008.45	226.98
1008.74	226.91
1009.03	226.86
1009.32	226.84
1009.60	226.82
1009.89	226.81
1010.18	226.73
1010.47	226.72
1010.76	226.70
1011.04	226.74
1011.33	226.71
1011.62	226.72
1011.91	226.71
1012.19	226.70
1012.48	226.73
1012.77	226.74
1013.05	226.83
1013.34	226.83
1013.63	226.84
1013.92	226.86
1014.20	226.86
1014.49	226.85
1014.78	226.86
1015.06	226.83
1015.35	226.82
1015.64	226.89
1015.92	226.89
1016.21	226.89
1016.50	226.89
1016.78	226.88
1017.07	226.88
1017.36	226.86
1017.64	226.84
1017.93	226.87
1018.22	226.87
1018.50	226.84
1018.79	226.81
1019.08	226.76
1019.36	226.78
1019.65	226.76
1019.93	226.78
1020.22	226.79
1020.51	226.87
1020.79	226.87
1021.08	227.01
1021.36	226.52
1021.65	226.67
1021.94	227.02
1022.22	227.28
1022.51	226.29
1022.79	227.36
1023.08	226.96
1023.36	228.39
1023.65	226.60
>>>>>End Processed Spectral Data<<<<<
