SpectraSuite Data File
++++++++++++++++++++++++++++++++++++
Date: Fri Feb 01 14:59:31 EST 2013
User: group
Dark Spectrum Present: No
Reference Spectrum Present: No
Number of Sampled Component Spectra: 1
Spectrometers: USB2E7196
Integration Time (usec): 35000 (USB2E7196)
Spectra Averaged: 100 (USB2E7196)
Boxcar Smoothing: 10 (USB2E7196)
Correct for Electrical Dark: No (USB2E7196)
Strobe/Lamp Enabled: No (USB2E7196)
Correct for Detector Non-linearity: No (USB2E7196)
Correct for Stray Light: No (USB2E7196)
Number of Pixels in Processed Spectrum: 2048
>>>>>Begin Processed Spectral Data<<<<<
339.09	0.00
339.48	214.95
339.86	216.00
340.24	218.07
340.63	218.92
341.01	221.60
341.39	222.13
341.78	223.35
342.16	224.08
342.54	225.09
342.93	213.28
343.31	224.04
343.69	224.57
344.07	225.03
344.46	225.45
344.84	225.86
345.22	226.13
345.60	226.35
345.99	226.54
346.37	226.67
346.75	226.74
347.13	226.78
347.52	226.83
347.90	226.90
348.28	226.91
348.66	226.93
349.05	226.96
349.43	227.00
349.81	227.02
350.19	227.08
350.57	227.16
350.96	227.22
351.34	227.32
351.72	227.42
352.10	227.54
352.48	227.61
352.87	227.63
353.25	227.67
353.63	227.75
354.01	227.81
354.39	227.89
354.77	228.02
355.15	228.13
355.54	228.23
355.92	228.29
356.30	228.40
356.68	228.56
357.06	228.62
357.44	228.69
357.82	228.81
358.20	228.88
358.58	228.96
358.97	229.02
359.35	229.10
359.73	229.18
360.11	229.23
360.49	229.31
360.87	229.36
361.25	229.42
361.63	229.51
362.01	229.56
362.39	229.62
362.77	229.64
363.15	229.65
363.53	229.67
363.91	229.69
364.29	229.68
364.67	229.61
365.05	229.67
365.43	229.67
365.81	229.67
366.19	229.69
366.57	229.73
366.95	229.74
367.33	229.71
367.71	229.71
368.09	229.73
368.47	229.68
368.85	229.66
369.23	229.67
369.61	229.57
369.99	229.59
370.37	229.54
370.75	229.53
371.13	229.48
371.51	229.40
371.89	229.36
372.27	229.31
372.65	229.25
373.03	229.16
373.41	229.10
373.78	229.05
374.16	228.91
374.54	228.81
374.92	228.75
375.30	228.68
375.68	228.56
376.06	228.49
376.44	228.41
376.82	228.38
377.19	228.27
377.57	228.24
377.95	228.08
378.33	228.02
378.71	227.90
379.09	227.85
379.47	227.81
379.84	227.73
380.22	227.67
380.60	227.56
380.98	227.50
381.36	227.40
381.73	227.29
382.11	227.24
382.49	227.16
382.87	227.07
383.25	227.04
383.62	227.07
384.00	226.99
384.38	226.91
384.76	226.85
385.13	226.85
385.51	226.78
385.89	226.73
386.27	226.69
386.64	226.66
387.02	226.60
387.40	226.55
387.78	226.50
388.15	226.46
388.53	226.43
388.91	226.39
389.29	226.39
389.66	226.38
390.04	226.35
390.42	226.39
390.79	226.36
391.17	226.32
391.55	226.25
391.92	226.22
392.30	226.26
392.68	226.24
393.05	226.22
393.43	226.23
393.81	226.28
394.18	226.27
394.56	226.27
394.94	226.33
395.31	226.37
395.69	226.44
396.06	226.49
396.44	226.56
396.82	226.56
397.19	226.64
397.57	226.68
397.95	226.77
398.32	226.79
398.70	226.89
399.07	226.97
399.45	227.03
399.82	227.12
400.20	227.22
400.58	227.31
400.95	227.38
401.33	227.53
401.70	227.68
402.08	227.80
402.45	227.91
402.83	228.04
403.20	228.15
403.58	228.27
403.95	228.43
404.33	228.56
404.71	228.76
405.08	228.95
405.46	229.11
405.83	229.26
406.21	229.42
406.58	229.59
406.96	229.77
407.33	230.00
407.70	230.22
408.08	230.49
408.45	230.73
408.83	231.00
409.20	231.17
409.58	231.37
409.95	231.63
410.33	231.93
410.70	232.17
411.08	232.49
411.45	232.80
411.82	233.11
412.20	233.48
412.57	233.86
412.95	234.21
413.32	234.65
413.69	235.06
414.07	235.49
414.44	236.00
414.82	236.47
415.19	236.99
415.56	237.55
415.94	238.09
416.31	238.73
416.68	239.34
417.06	240.06
417.43	240.73
417.81	241.53
418.18	242.27
418.55	243.11
418.93	243.97
419.30	244.86
419.67	245.79
420.04	246.74
420.42	247.73
420.79	248.90
421.16	250.01
421.54	251.18
421.91	252.39
422.28	253.60
422.66	254.95
423.03	256.23
423.40	257.56
423.77	258.95
424.15	260.36
424.52	261.83
424.89	263.44
425.26	264.98
425.64	266.41
426.01	267.96
426.38	269.58
426.75	271.26
427.13	272.99
427.50	274.77
427.87	276.63
428.24	278.48
428.61	280.17
428.99	282.14
429.36	284.25
429.73	286.29
430.10	288.26
430.47	290.28
430.85	292.41
431.22	294.65
431.59	297.01
431.96	299.24
432.33	301.74
432.70	304.08
433.08	306.94
433.45	309.59
433.82	312.23
434.19	315.15
434.56	317.94
434.93	320.59
435.30	323.21
435.68	326.12
436.05	328.94
436.42	331.75
436.79	334.26
437.16	336.99
437.53	339.89
437.90	342.76
438.27	345.50
438.64	348.36
439.01	350.96
439.38	353.22
439.75	355.38
440.13	357.86
440.50	360.22
440.87	362.02
441.24	363.95
441.61	366.13
441.98	367.62
442.35	369.43
442.72	371.30
443.09	373.13
443.46	374.15
443.83	374.77
444.20	375.27
444.57	376.11
444.94	376.40
445.31	376.72
445.68	377.11
446.05	377.23
446.42	376.83
446.79	376.42
447.16	375.97
447.53	375.67
447.90	374.53
448.27	373.34
448.64	371.79
449.01	370.66
449.37	368.71
449.74	366.79
450.11	364.55
450.48	362.08
450.85	359.56
451.22	357.42
451.59	355.39
451.96	353.49
452.33	350.91
452.70	348.54
453.07	345.70
453.43	342.75
453.80	339.95
454.17	337.30
454.54	334.74
454.91	332.05
455.28	329.36
455.65	326.88
456.02	324.48
456.38	322.33
456.75	319.66
457.12	317.39
457.49	315.20
457.86	313.03
458.23	311.21
458.59	309.16
458.96	307.02
459.33	305.17
459.70	303.29
460.07	301.78
460.43	300.05
460.80	298.44
461.17	297.04
461.54	295.58
461.91	294.14
462.27	292.65
462.64	291.41
463.01	290.09
463.38	288.77
463.74	287.40
464.11	286.21
464.48	285.19
464.85	284.08
465.21	283.18
465.58	282.24
465.95	281.09
466.32	280.17
466.68	279.27
467.05	278.40
467.42	277.48
467.78	276.57
468.15	275.70
468.52	275.03
468.88	274.14
469.25	273.32
469.62	272.67
469.98	272.00
470.35	271.30
470.72	270.69
471.08	270.07
471.45	269.49
471.82	268.94
472.18	268.33
472.55	267.88
472.92	267.34
473.28	266.86
473.65	266.40
474.02	265.96
474.38	265.56
474.75	265.17
475.11	264.82
475.48	264.48
475.85	264.22
476.21	263.92
476.58	263.72
476.94	263.53
477.31	263.34
477.67	263.15
478.04	262.99
478.41	262.91
478.77	262.92
479.14	262.84
479.50	262.83
479.87	262.89
480.23	262.93
480.60	263.00
480.96	263.10
481.33	263.31
481.69	263.48
482.06	263.66
482.42	263.89
482.79	264.15
483.15	264.47
483.52	264.83
483.88	265.19
484.25	265.58
484.61	266.03
484.98	266.50
485.34	267.06
485.71	267.69
486.07	268.31
486.44	268.90
486.80	269.63
487.17	270.38
487.53	271.18
487.90	272.01
488.26	272.92
488.62	273.89
488.99	274.84
489.35	275.84
489.72	276.97
490.08	278.15
490.44	279.35
490.81	280.65
491.17	282.00
491.54	283.49
491.90	285.02
492.26	286.66
492.63	288.35
492.99	290.14
493.36	292.02
493.72	294.00
494.08	296.08
494.45	298.29
494.81	300.59
495.17	303.00
495.54	305.60
495.90	308.30
496.26	311.06
496.63	314.04
496.99	317.14
497.35	320.39
497.72	323.78
498.08	327.28
498.44	330.96
498.80	334.84
499.17	338.86
499.53	343.00
499.89	347.34
500.26	351.83
500.62	356.51
500.98	361.46
501.34	366.49
501.71	371.79
502.07	377.21
502.43	382.87
502.79	388.65
503.16	394.67
503.52	400.90
503.88	407.33
504.24	413.94
504.60	420.83
504.97	427.94
505.33	435.20
505.69	442.88
506.05	450.61
506.41	458.51
506.78	466.62
507.14	475.03
507.50	483.74
507.86	492.82
508.22	501.92
508.59	511.13
508.95	520.72
509.31	530.45
509.67	540.52
510.03	550.74
510.39	561.25
510.75	572.05
511.12	582.97
511.48	594.20
511.84	605.68
512.20	617.22
512.56	629.12
512.92	641.32
513.28	653.59
513.64	666.13
514.00	678.81
514.37	691.73
514.73	704.82
515.09	717.88
515.45	731.15
515.81	744.81
516.17	758.75
516.53	772.86
516.89	787.08
517.25	801.27
517.61	815.75
517.97	830.28
518.33	844.70
518.69	859.49
519.05	874.53
519.41	889.61
519.77	905.13
520.13	920.59
520.49	935.98
520.85	951.57
521.21	967.19
521.57	983.44
521.93	999.30
522.29	1015.78
522.65	1032.09
523.01	1048.31
523.37	1064.37
523.73	1080.58
524.09	1096.75
524.45	1113.14
524.81	1129.92
525.17	1146.77
525.53	1163.77
525.89	1180.73
526.25	1197.59
526.61	1214.12
526.97	1230.99
527.33	1247.50
527.68	1264.24
528.04	1280.91
528.40	1297.51
528.76	1314.74
529.12	1331.33
529.48	1348.24
529.84	1364.27
530.20	1381.00
530.56	1398.09
530.91	1415.46
531.27	1432.29
531.63	1448.87
531.99	1465.55
532.35	1481.51
532.71	1497.50
533.07	1513.82
533.42	1529.71
533.78	1545.76
534.14	1562.11
534.50	1577.50
534.86	1593.51
535.21	1608.75
535.57	1624.74
535.93	1640.43
536.29	1655.30
536.65	1670.68
537.00	1685.63
537.36	1701.11
537.72	1715.73
538.08	1730.26
538.44	1744.31
538.79	1758.41
539.15	1772.23
539.51	1786.05
539.87	1800.45
540.22	1814.26
540.58	1828.13
540.94	1841.77
541.29	1854.91
541.65	1867.65
542.01	1881.01
542.37	1893.45
542.72	1905.96
543.08	1917.72
543.44	1930.08
543.79	1941.36
544.15	1952.34
544.51	1963.87
544.87	1974.87
545.22	1985.70
545.58	1995.94
545.94	2005.63
546.29	2015.53
546.65	2025.28
547.01	2034.55
547.36	2043.44
547.72	2052.00
548.07	2059.90
548.43	2068.03
548.79	2076.11
549.14	2083.64
549.50	2091.12
549.86	2098.76
550.21	2106.12
550.57	2113.22
550.92	2119.87
551.28	2127.08
551.64	2134.07
551.99	2140.58
552.35	2146.72
552.70	2152.71
553.06	2158.68
553.41	2165.06
553.77	2171.05
554.13	2177.23
554.48	2183.12
554.84	2188.33
555.19	2193.62
555.55	2198.64
555.90	2202.93
556.26	2207.57
556.61	2212.21
556.97	2216.15
557.32	2220.32
557.68	2224.28
558.03	2228.79
558.39	2232.53
558.74	2236.98
559.10	2240.83
559.45	2244.52
559.81	2248.79
560.16	2252.58
560.52	2255.71
560.87	2259.10
561.23	2261.64
561.58	2264.49
561.94	2267.11
562.29	2269.60
562.64	2272.20
563.00	2274.88
563.35	2278.44
563.71	2281.60
564.06	2284.82
564.42	2287.81
564.77	2290.13
565.12	2292.26
565.48	2293.87
565.83	2295.42
566.19	2296.41
566.54	2297.27
566.89	2298.21
567.25	2298.71
567.60	2299.95
567.96	2301.43
568.31	2302.14
568.66	2302.98
569.02	2303.43
569.37	2303.51
569.72	2304.12
570.08	2303.99
570.43	2303.60
570.78	2302.73
571.14	2301.07
571.49	2299.52
571.84	2298.93
572.20	2297.60
572.55	2296.49
572.90	2294.80
573.26	2293.25
573.61	2291.51
573.96	2289.47
574.31	2286.32
574.67	2283.03
575.02	2279.36
575.37	2275.78
575.72	2271.81
576.08	2268.50
576.43	2265.06
576.78	2261.27
577.13	2258.18
577.49	2255.04
577.84	2251.48
578.19	2247.66
578.54	2243.85
578.90	2239.41
579.25	2233.86
579.60	2228.77
579.95	2223.57
580.30	2218.41
580.66	2213.21
581.01	2208.16
581.36	2203.06
581.71	2198.82
582.06	2194.25
582.42	2189.46
582.77	2184.22
583.12	2179.56
583.47	2174.72
583.82	2169.40
584.17	2164.07
584.53	2158.24
584.88	2152.55
585.23	2146.53
585.58	2140.99
585.93	2135.43
586.28	2130.71
586.63	2125.44
586.98	2120.32
587.34	2115.71
587.69	2110.77
588.04	2105.39
588.39	2099.67
588.74	2093.30
589.09	2087.05
589.44	2080.02
589.79	2074.02
590.14	2068.41
590.49	2061.65
590.84	2055.05
591.19	2048.99
591.54	2042.50
591.89	2035.11
592.25	2028.09
592.60	2021.00
592.95	2013.43
593.30	2005.90
593.65	1998.12
594.00	1990.94
594.35	1983.49
594.70	1975.31
595.05	1967.90
595.40	1960.45
595.75	1952.87
596.10	1946.47
596.45	1939.50
596.80	1933.25
597.15	1926.52
597.50	1919.25
597.85	1912.78
598.19	1906.11
598.54	1899.01
598.89	1892.28
599.24	1886.09
599.59	1879.31
599.94	1872.99
600.29	1866.43
600.64	1859.97
600.99	1852.40
601.34	1845.60
601.69	1838.63
602.04	1831.49
602.39	1824.07
602.74	1817.27
603.08	1810.50
603.43	1803.74
603.78	1796.51
604.13	1789.43
604.48	1782.04
604.83	1775.17
605.18	1768.15
605.53	1760.14
605.87	1752.18
606.22	1744.98
606.57	1737.17
606.92	1729.92
607.27	1722.66
607.62	1715.69
607.96	1708.25
608.31	1701.65
608.66	1693.93
609.01	1686.31
609.36	1678.93
609.70	1671.02
610.05	1662.95
610.40	1655.31
610.75	1647.11
611.10	1639.57
611.44	1631.22
611.79	1623.28
612.14	1614.64
612.49	1605.47
612.83	1597.08
613.18	1588.80
613.53	1580.64
613.88	1572.12
614.22	1563.84
614.57	1555.32
614.92	1547.38
615.27	1539.88
615.61	1531.60
615.96	1523.67
616.31	1516.13
616.65	1508.75
617.00	1501.09
617.35	1493.45
617.70	1485.01
618.04	1476.40
618.39	1468.08
618.74	1460.51
619.08	1452.27
619.43	1444.69
619.78	1437.97
620.12	1430.76
620.47	1423.39
620.82	1415.36
621.16	1408.15
621.51	1400.55
621.85	1393.16
622.20	1384.72
622.55	1376.36
622.89	1368.56
623.24	1361.03
623.59	1353.73
623.93	1346.28
624.28	1339.14
624.62	1331.58
624.97	1324.51
625.32	1317.77
625.66	1310.83
626.01	1303.58
626.35	1296.14
626.70	1288.51
627.04	1280.71
627.39	1273.12
627.73	1265.77
628.08	1258.88
628.43	1251.48
628.77	1244.19
629.12	1236.43
629.46	1229.33
629.81	1222.07
630.15	1214.95
630.50	1207.54
630.84	1199.37
631.19	1191.48
631.53	1184.09
631.88	1176.65
632.22	1169.05
632.57	1161.79
632.91	1154.32
633.26	1146.97
633.60	1139.79
633.95	1132.73
634.29	1125.72
634.64	1119.09
634.98	1111.69
635.32	1104.58
635.67	1098.13
636.01	1091.53
636.36	1084.86
636.70	1078.37
637.05	1071.80
637.39	1065.36
637.73	1058.93
638.08	1053.17
638.42	1047.24
638.77	1040.85
639.11	1034.32
639.45	1028.08
639.80	1021.43
640.14	1014.94
640.49	1008.52
640.83	1002.26
641.17	996.02
641.52	989.75
641.86	983.40
642.20	977.74
642.55	971.48
642.89	964.91
643.23	958.45
643.58	952.71
643.92	946.57
644.26	940.52
644.61	934.48
644.95	928.44
645.29	921.82
645.64	915.17
645.98	908.83
646.32	903.04
646.66	896.98
647.01	891.32
647.35	885.71
647.69	879.92
648.04	874.41
648.38	868.65
648.72	862.65
649.06	856.55
649.41	850.65
649.75	844.72
650.09	838.83
650.43	833.05
650.78	826.87
651.12	820.93
651.46	815.15
651.80	809.51
652.14	804.13
652.49	798.81
652.83	793.57
653.17	787.93
653.51	782.18
653.85	776.82
654.20	771.10
654.54	765.09
654.88	759.37
655.22	753.49
655.56	747.80
655.90	742.38
656.25	737.13
656.59	731.70
656.93	726.58
657.27	721.45
657.61	715.96
657.95	710.93
658.29	705.84
658.64	700.70
658.98	695.34
659.32	689.90
659.66	684.74
660.00	679.43
660.34	674.53
660.68	669.66
661.02	664.65
661.36	660.10
661.70	655.63
662.05	651.26
662.39	646.92
662.73	642.49
663.07	638.20
663.41	633.75
663.75	629.30
664.09	624.72
664.43	620.40
664.77	616.37
665.11	612.19
665.45	608.12
665.79	604.08
666.13	600.01
666.47	596.00
666.81	591.81
667.15	587.82
667.49	583.94
667.83	580.19
668.17	576.23
668.51	572.15
668.85	568.25
669.19	564.44
669.53	560.62
669.87	556.86
670.21	553.14
670.55	549.62
670.89	546.29
671.23	542.99
671.57	539.50
671.91	535.98
672.25	532.52
672.58	529.03
672.92	525.72
673.26	522.58
673.60	519.45
673.94	516.40
674.28	513.50
674.62	510.56
674.96	507.47
675.30	504.63
675.64	501.72
675.97	498.94
676.31	496.10
676.65	493.25
676.99	490.49
677.33	487.69
677.67	484.89
678.01	481.81
678.34	478.81
678.68	475.91
679.02	473.14
679.36	470.38
679.70	467.69
680.04	464.87
680.37	462.00
680.71	459.23
681.05	456.66
681.39	453.95
681.73	451.31
682.06	448.84
682.40	446.30
682.74	443.84
683.08	441.35
683.42	438.78
683.75	436.30
684.09	433.75
684.43	431.29
684.77	428.83
685.10	426.53
685.44	424.25
685.78	422.02
686.12	419.80
686.45	417.53
686.79	415.29
687.13	413.18
687.46	411.10
687.80	408.94
688.14	406.77
688.48	404.79
688.81	402.59
689.15	400.43
689.49	398.32
689.82	396.20
690.16	394.04
690.50	392.08
690.83	390.14
691.17	388.21
691.51	386.30
691.84	384.40
692.18	382.42
692.52	380.47
692.85	378.56
693.19	376.67
693.52	374.84
693.86	372.99
694.20	371.19
694.53	369.39
694.87	367.59
695.21	365.79
695.54	363.91
695.88	362.23
696.21	360.49
696.55	358.81
696.88	357.12
697.22	355.51
697.56	353.90
697.89	352.23
698.23	350.57
698.56	348.98
698.90	347.40
699.23	345.83
699.57	344.28
699.90	342.71
700.24	341.16
700.58	339.63
700.91	338.15
701.25	336.70
701.58	335.31
701.92	333.97
702.25	332.59
702.59	331.21
702.92	329.83
703.26	328.54
703.59	327.26
703.93	326.10
704.26	324.86
704.60	323.55
704.93	322.32
705.26	321.11
705.60	319.96
705.93	318.84
706.27	317.79
706.60	316.73
706.94	315.69
707.27	314.57
707.61	313.50
707.94	312.46
708.27	311.35
708.61	310.28
708.94	309.25
709.28	308.26
709.61	307.32
709.94	306.41
710.28	305.39
710.61	304.41
710.95	303.35
711.28	302.47
711.61	301.58
711.95	300.64
712.28	299.68
712.61	298.69
712.95	297.76
713.28	296.88
713.61	296.00
713.95	295.08
714.28	294.29
714.61	293.44
714.95	292.62
715.28	291.79
715.61	290.91
715.95	290.05
716.28	289.20
716.61	288.41
716.95	287.61
717.28	286.92
717.61	286.14
717.94	285.42
718.28	284.64
718.61	283.91
718.94	283.26
719.27	282.65
719.61	282.01
719.94	281.36
720.27	280.67
720.60	280.04
720.94	279.48
721.27	278.89
721.60	278.32
721.93	277.73
722.27	277.24
722.60	276.76
722.93	276.19
723.26	275.71
723.59	275.13
723.93	274.63
724.26	274.03
724.59	273.54
724.92	273.01
725.25	272.52
725.59	272.02
725.92	271.50
726.25	271.03
726.58	270.57
726.91	270.11
727.24	269.68
727.57	269.21
727.91	268.70
728.24	268.20
728.57	267.73
728.90	267.31
729.23	266.79
729.56	266.33
729.89	265.89
730.22	265.38
730.55	264.91
730.89	264.46
731.22	264.07
731.55	263.58
731.88	263.16
732.21	262.70
732.54	262.24
732.87	261.82
733.20	261.42
733.53	261.00
733.86	260.60
734.19	260.17
734.52	259.77
734.85	259.45
735.18	259.04
735.51	258.70
735.84	258.29
736.17	257.92
736.50	257.50
736.83	257.29
737.16	256.93
737.49	256.63
737.82	256.23
738.15	255.85
738.48	255.51
738.81	255.19
739.14	254.86
739.47	254.55
739.80	254.21
740.13	253.87
740.46	253.52
740.79	253.15
741.12	252.86
741.45	252.54
741.78	252.17
742.11	251.85
742.44	251.51
742.77	251.20
743.10	250.90
743.43	250.57
743.75	250.13
744.08	249.99
744.41	249.68
744.74	249.43
745.07	249.12
745.40	248.89
745.73	248.66
746.06	248.41
746.39	248.13
746.71	247.89
747.04	247.58
747.37	247.32
747.70	247.13
748.03	246.84
748.36	246.63
748.68	246.40
749.01	246.17
749.34	245.95
749.67	245.76
750.00	245.55
750.33	245.45
750.65	245.27
750.98	244.95
751.31	244.75
751.64	244.54
751.97	244.39
752.29	244.17
752.62	243.91
752.95	243.71
753.28	243.53
753.60	243.34
753.93	243.20
754.26	243.03
754.59	242.81
754.91	242.67
755.24	242.49
755.57	242.30
755.90	242.13
756.22	241.94
756.55	241.77
756.88	241.56
757.20	241.33
757.53	241.15
757.86	241.00
758.19	240.88
758.51	240.72
758.84	240.54
759.17	240.41
759.49	240.31
759.82	240.18
760.15	240.09
760.47	239.94
760.80	239.81
761.13	239.71
761.45	239.58
761.78	239.42
762.11	239.27
762.43	239.15
762.76	239.05
763.08	238.91
763.41	238.77
763.74	238.67
764.06	238.55
764.39	238.40
764.71	238.25
765.04	238.10
765.37	237.99
765.69	237.88
766.02	237.74
766.34	237.57
766.67	237.41
767.00	237.28
767.32	237.21
767.65	237.14
767.97	237.00
768.30	236.90
768.62	236.81
768.95	236.72
769.27	236.62
769.60	236.52
769.92	236.40
770.25	236.27
770.57	236.14
770.90	236.02
771.22	235.93
771.55	235.84
771.87	235.77
772.20	235.65
772.52	235.62
772.85	235.63
773.17	235.52
773.50	235.44
773.82	235.34
774.15	235.20
774.47	235.03
774.80	234.95
775.12	234.80
775.45	234.67
775.77	234.58
776.09	234.47
776.42	234.37
776.74	234.33
777.07	234.23
777.39	234.14
777.72	234.04
778.04	233.99
778.36	233.89
778.69	233.79
779.01	233.73
779.33	233.55
779.66	233.38
779.98	233.27
780.31	233.17
780.63	233.13
780.95	233.10
781.28	233.04
781.60	232.94
781.92	232.91
782.25	232.85
782.57	232.73
782.89	232.66
783.22	232.55
783.54	232.44
783.86	232.38
784.19	232.30
784.51	232.27
784.83	232.15
785.16	232.10
785.48	232.04
785.80	231.96
786.12	231.92
786.45	231.87
786.77	231.86
787.09	231.80
787.42	231.70
787.74	231.63
788.06	231.59
788.38	231.52
788.71	231.46
789.03	231.41
789.35	231.40
789.67	231.33
789.99	231.34
790.32	231.30
790.64	231.26
790.96	231.30
791.28	231.21
791.61	231.22
791.93	231.18
792.25	231.15
792.57	231.18
792.89	231.11
793.21	231.10
793.54	231.01
793.86	231.00
794.18	230.95
794.50	230.91
794.82	230.87
795.14	230.85
795.47	230.83
795.79	230.81
796.11	230.76
796.43	230.74
796.75	230.69
797.07	230.67
797.39	230.65
797.71	230.55
798.04	230.58
798.36	230.54
798.68	230.50
799.00	230.50
799.32	230.45
799.64	230.50
799.96	230.44
800.28	230.47
800.60	230.41
800.92	230.41
801.24	230.37
801.56	230.36
801.89	230.30
802.21	230.29
802.53	230.25
802.85	230.27
803.17	230.30
803.49	230.28
803.81	230.25
804.13	230.25
804.45	230.24
804.77	230.20
805.09	230.19
805.41	230.19
805.73	230.13
806.05	230.08
806.37	230.03
806.69	230.02
807.01	230.00
807.33	230.02
807.65	229.97
807.97	230.01
808.28	229.97
808.60	229.99
808.92	229.97
809.24	230.01
809.56	229.95
809.88	229.89
810.20	229.90
810.52	229.90
810.84	229.87
811.16	229.87
811.48	229.83
811.80	229.82
812.12	229.78
812.43	229.78
812.75	229.77
813.07	229.73
813.39	229.72
813.71	229.69
814.03	229.65
814.35	229.65
814.67	229.58
814.98	229.56
815.30	229.54
815.62	229.45
815.94	229.38
816.26	229.38
816.58	229.33
816.89	229.29
817.21	229.23
817.53	229.21
817.85	229.16
818.17	229.15
818.48	229.09
818.80	229.07
819.12	229.00
819.44	228.97
819.76	228.94
820.07	228.93
820.39	228.88
820.71	228.85
821.03	228.82
821.34	228.81
821.66	228.78
821.98	228.77
822.30	228.74
822.61	228.73
822.93	228.67
823.25	228.64
823.57	228.61
823.88	228.60
824.20	228.55
824.52	228.56
824.83	228.52
825.15	228.50
825.47	228.46
825.79	228.45
826.10	228.41
826.42	228.37
826.74	228.31
827.05	228.30
827.37	228.27
827.69	228.25
828.00	228.21
828.32	228.19
828.64	228.16
828.95	228.21
829.27	228.19
829.58	228.19
829.90	228.21
830.22	228.23
830.53	228.17
830.85	228.17
831.17	228.13
831.48	228.10
831.80	228.08
832.11	228.09
832.43	228.10
832.75	228.11
833.06	228.17
833.38	228.16
833.69	228.17
834.01	228.15
834.32	228.14
834.64	228.08
834.96	228.08
835.27	228.05
835.59	228.04
835.90	228.04
836.22	228.01
836.53	227.97
836.85	227.94
837.16	228.09
837.48	228.08
837.79	228.11
838.11	228.16
838.42	228.17
838.74	228.19
839.05	228.17
839.37	228.18
839.68	228.12
840.00	228.12
840.31	228.14
840.63	228.17
840.94	228.18
841.26	228.21
841.57	228.23
841.88	228.25
842.20	228.25
842.51	228.25
842.83	228.29
843.14	228.37
843.46	228.37
843.77	228.28
844.08	228.28
844.40	228.25
844.71	228.21
845.03	228.21
845.34	228.22
845.65	228.19
845.97	228.16
846.28	228.15
846.60	228.17
846.91	228.15
847.22	228.12
847.54	228.12
847.85	228.13
848.16	228.13
848.48	228.13
848.79	228.15
849.10	228.14
849.42	228.13
849.73	228.03
850.04	228.02
850.36	227.99
850.67	227.99
850.98	227.96
851.30	227.99
851.61	227.96
851.92	227.93
852.23	227.96
852.55	227.97
852.86	227.97
853.17	227.96
853.49	227.96
853.80	227.97
854.11	228.00
854.42	228.00
854.74	227.94
855.05	227.90
855.36	227.85
855.67	227.84
855.99	227.86
856.30	227.99
856.61	227.99
856.92	227.98
857.23	227.99
857.55	228.02
857.86	227.99
858.17	228.02
858.48	227.98
858.79	227.95
859.11	227.96
859.42	227.96
859.73	227.93
860.04	227.93
860.35	227.90
860.66	227.85
860.98	227.82
861.29	227.85
861.60	227.90
861.91	227.91
862.22	227.90
862.53	227.84
862.84	227.71
863.16	227.73
863.47	227.70
863.78	227.71
864.09	227.68
864.40	227.67
864.71	227.66
865.02	227.70
865.33	227.72
865.64	227.70
865.95	227.69
866.27	227.79
866.58	227.75
866.89	227.79
867.20	227.78
867.51	227.79
867.82	227.77
868.13	227.77
868.44	227.75
868.75	227.77
869.06	227.79
869.37	227.81
869.68	227.80
869.99	227.85
870.30	227.83
870.61	227.85
870.92	227.84
871.23	227.82
871.54	227.83
871.85	227.87
872.16	227.87
872.47	227.87
872.78	227.77
873.09	227.80
873.40	227.74
873.71	227.75
874.02	227.75
874.33	227.77
874.64	227.71
874.95	227.73
875.26	227.71
875.56	227.72
875.87	227.72
876.18	227.70
876.49	227.78
876.80	227.76
877.11	227.73
877.42	227.75
877.73	227.74
878.04	227.70
878.35	227.69
878.66	227.67
878.96	227.68
879.27	227.69
879.58	227.68
879.89	227.71
880.20	227.74
880.51	227.76
880.82	227.76
881.12	227.77
881.43	227.75
881.74	227.75
882.05	227.75
882.36	227.75
882.67	227.76
882.97	227.66
883.28	227.68
883.59	227.71
883.90	227.71
884.21	227.73
884.51	227.72
884.82	227.65
885.13	227.67
885.44	227.68
885.74	227.67
886.05	227.64
886.36	227.64
886.67	227.58
886.98	227.59
887.28	227.59
887.59	227.62
887.90	227.61
888.20	227.60
888.51	227.59
888.82	227.60
889.13	227.61
889.43	227.67
889.74	227.61
890.05	227.60
890.35	227.57
890.66	227.54
890.97	227.60
891.28	227.58
891.58	227.57
891.89	227.55
892.20	227.57
892.50	227.57
892.81	227.57
893.12	227.57
893.42	227.53
893.73	227.53
894.04	227.52
894.34	227.51
894.65	227.50
894.95	227.47
895.26	227.44
895.57	227.50
895.87	227.42
896.18	227.46
896.48	227.48
896.79	227.48
897.10	227.51
897.40	227.47
897.71	227.49
898.01	227.51
898.32	227.51
898.63	227.49
898.93	227.47
899.24	227.45
899.54	227.44
899.85	227.42
900.15	227.43
900.46	227.37
900.76	227.41
901.07	227.42
901.38	227.42
901.68	227.43
901.99	227.35
902.29	227.33
902.60	227.31
902.90	227.27
903.21	227.29
903.51	227.24
903.82	227.25
904.12	227.23
904.43	227.21
904.73	227.23
905.03	227.24
905.34	227.38
905.64	227.35
905.95	227.37
906.25	227.38
906.56	227.37
906.86	227.40
907.17	227.38
907.47	227.36
907.77	227.36
908.08	227.32
908.38	227.30
908.69	227.30
908.99	227.34
909.30	227.36
909.60	227.33
909.90	227.35
910.21	227.35
910.51	227.35
910.81	227.37
911.12	227.35
911.42	227.36
911.73	227.25
912.03	227.29
912.33	227.33
912.64	227.31
912.94	227.29
913.24	227.28
913.55	227.29
913.85	227.29
914.15	227.34
914.46	227.36
914.76	227.40
915.06	227.42
915.37	227.36
915.67	227.33
915.97	227.33
916.27	227.31
916.58	227.30
916.88	227.29
917.18	227.29
917.49	227.36
917.79	227.35
918.09	227.36
918.39	227.38
918.70	227.37
919.00	227.37
919.30	227.41
919.60	227.42
919.91	227.42
920.21	227.42
920.51	227.41
920.81	227.43
921.12	227.45
921.42	227.46
921.72	227.47
922.02	227.47
922.32	227.50
922.63	227.49
922.93	227.54
923.23	227.58
923.53	227.55
923.83	227.46
924.13	227.47
924.44	227.46
924.74	227.45
925.04	227.45
925.34	227.45
925.64	227.41
925.94	227.41
926.24	227.47
926.55	227.51
926.85	227.48
927.15	227.43
927.45	227.45
927.75	227.42
928.05	227.42
928.35	227.41
928.65	227.42
928.95	227.45
929.26	227.40
929.56	227.40
929.86	227.41
930.16	227.39
930.46	227.35
930.76	227.36
931.06	227.31
931.36	227.28
931.66	227.29
931.96	227.31
932.26	227.30
932.56	227.24
932.86	227.19
933.16	227.17
933.46	227.18
933.76	227.11
934.06	227.13
934.36	227.19
934.66	227.21
934.96	227.17
935.26	227.13
935.56	227.15
935.86	227.11
936.16	227.10
936.46	227.11
936.76	227.12
937.06	227.09
937.36	227.08
937.66	227.10
937.96	227.12
938.26	227.08
938.56	227.07
938.86	227.10
939.16	227.15
939.46	227.19
939.76	227.21
940.06	227.22
940.35	227.18
940.65	227.12
940.95	227.11
941.25	227.12
941.55	227.12
941.85	227.10
942.15	227.12
942.45	227.13
942.75	227.15
943.04	227.14
943.34	227.17
943.64	227.19
943.94	227.18
944.24	227.15
944.54	227.18
944.84	227.17
945.13	227.14
945.43	227.11
945.73	227.11
946.03	227.11
946.33	227.09
946.62	227.08
946.92	227.08
947.22	227.10
947.52	227.10
947.82	227.11
948.11	227.12
948.41	227.10
948.71	227.12
949.01	227.12
949.31	227.14
949.60	227.13
949.90	227.14
950.20	227.12
950.50	227.16
950.79	227.16
951.09	227.19
951.39	227.18
951.69	227.17
951.98	227.16
952.28	227.15
952.58	227.16
952.87	227.21
953.17	227.26
953.47	227.26
953.76	227.30
954.06	227.28
954.36	227.26
954.66	227.29
954.95	227.31
955.25	227.33
955.55	227.36
955.84	227.36
956.14	227.38
956.44	227.41
956.73	227.37
957.03	227.35
957.32	227.34
957.62	227.35
957.92	227.36
958.21	227.41
958.51	227.52
958.81	227.54
959.10	227.52
959.40	227.48
959.69	227.47
959.99	227.46
960.29	227.46
960.58	227.49
960.88	227.50
961.17	227.46
961.47	227.47
961.76	227.49
962.06	227.48
962.36	227.44
962.65	227.42
962.95	227.41
963.24	227.42
963.54	227.42
963.83	227.44
964.13	227.44
964.42	227.39
964.72	227.32
965.01	227.34
965.31	227.34
965.60	227.32
965.90	227.41
966.19	227.40
966.49	227.43
966.78	227.40
967.08	227.40
967.37	227.39
967.67	227.32
967.96	227.29
968.26	227.30
968.55	227.30
968.85	227.31
969.14	227.33
969.43	227.33
969.73	227.33
970.02	227.33
970.32	227.31
970.61	227.30
970.91	227.27
971.20	227.24
971.49	227.22
971.79	227.24
972.08	227.18
972.38	227.16
972.67	227.14
972.96	227.16
973.26	227.13
973.55	227.17
973.85	227.19
974.14	227.18
974.43	227.18
974.73	227.19
975.02	227.19
975.31	227.19
975.61	227.18
975.90	227.19
976.19	227.16
976.49	227.16
976.78	227.15
977.07	227.15
977.37	227.13
977.66	227.16
977.95	227.14
978.24	227.12
978.54	227.14
978.83	227.12
979.12	227.12
979.42	227.14
979.71	227.12
980.00	227.11
980.29	227.15
980.59	227.11
980.88	227.12
981.17	227.11
981.46	227.09
981.76	227.08
982.05	227.08
982.34	227.06
982.63	227.08
982.93	227.10
983.22	227.15
983.51	227.16
983.80	227.19
984.09	227.18
984.39	227.16
984.68	227.18
984.97	227.18
985.26	227.19
985.55	227.18
985.85	227.17
986.14	227.19
986.43	227.18
986.72	227.18
987.01	227.12
987.30	227.13
987.59	227.13
987.89	227.14
988.18	227.12
988.47	227.14
988.76	227.09
989.05	227.10
989.34	227.05
989.63	227.09
989.92	227.03
990.22	227.05
990.51	227.05
990.80	227.02
991.09	227.04
991.38	227.05
991.67	227.04
991.96	227.05
992.25	227.04
992.54	227.01
992.83	226.99
993.12	227.03
993.41	227.02
993.70	227.08
993.99	227.12
994.28	227.14
994.58	227.18
994.87	227.18
995.16	227.17
995.45	227.16
995.74	227.11
996.03	227.16
996.32	227.15
996.61	227.16
996.90	227.15
997.19	227.17
997.48	227.15
997.77	227.13
998.06	227.10
998.34	227.09
998.63	227.07
998.92	227.08
999.21	227.11
999.50	227.14
999.79	227.09
1000.08	227.07
1000.37	227.04
1000.66	226.97
1000.95	227.02
1001.24	227.00
1001.53	227.06
1001.82	227.05
1002.11	227.00
1002.40	227.03
1002.68	227.06
1002.97	227.14
1003.26	227.09
1003.55	227.07
1003.84	227.07
1004.13	227.14
1004.42	227.18
1004.71	227.22
1004.99	227.23
1005.28	227.23
1005.57	227.22
1005.86	227.23
1006.15	227.23
1006.44	227.25
1006.72	227.31
1007.01	227.26
1007.30	227.26
1007.59	227.23
1007.88	227.24
1008.17	227.26
1008.45	227.22
1008.74	227.19
1009.03	227.14
1009.32	227.15
1009.60	227.18
1009.89	227.19
1010.18	227.17
1010.47	227.14
1010.76	227.14
1011.04	227.11
1011.33	227.12
1011.62	227.14
1011.91	227.12
1012.19	227.12
1012.48	227.09
1012.77	227.08
1013.05	227.13
1013.34	227.15
1013.63	227.15
1013.92	227.20
1014.20	227.18
1014.49	227.20
1014.78	227.21
1015.06	227.17
1015.35	227.18
1015.64	227.18
1015.92	227.20
1016.21	227.18
1016.50	227.19
1016.78	227.17
1017.07	227.23
1017.36	227.21
1017.64	227.19
1017.93	227.19
1018.22	227.20
1018.50	227.21
1018.79	227.19
1019.08	227.15
1019.36	227.17
1019.65	227.16
1019.93	227.17
1020.22	227.19
1020.51	227.23
1020.79	227.21
1021.08	227.26
1021.36	226.51
1021.65	226.90
1021.94	227.19
1022.22	227.42
1022.51	227.24
1022.79	227.98
1023.08	227.22
1023.36	227.99
1023.65	226.66
>>>>>End Processed Spectral Data<<<<<
