SpectraSuite Data File
++++++++++++++++++++++++++++++++++++
Date: Fri Feb 01 16:31:32 EST 2013
User: group
Dark Spectrum Present: No
Reference Spectrum Present: No
Number of Sampled Component Spectra: 1
Spectrometers: USB2E7196
Integration Time (usec): 35000 (USB2E7196)
Spectra Averaged: 100 (USB2E7196)
Boxcar Smoothing: 10 (USB2E7196)
Correct for Electrical Dark: No (USB2E7196)
Strobe/Lamp Enabled: No (USB2E7196)
Correct for Detector Non-linearity: No (USB2E7196)
Correct for Stray Light: No (USB2E7196)
Number of Pixels in Processed Spectrum: 2048
>>>>>Begin Processed Spectral Data<<<<<
339.09	0.00
339.48	214.16
339.86	215.46
340.24	216.85
340.63	217.94
341.01	220.91
341.39	221.20
341.78	221.96
342.16	223.91
342.54	224.23
342.93	212.36
343.31	223.08
343.69	223.60
344.07	224.05
344.46	224.45
344.84	224.84
345.22	225.06
345.60	225.28
345.99	225.48
346.37	225.60
346.75	225.67
347.13	225.75
347.52	225.78
347.90	225.83
348.28	225.85
348.66	225.89
349.05	225.88
349.43	225.92
349.81	225.96
350.19	226.01
350.57	226.04
350.96	226.12
351.34	226.23
351.72	226.32
352.10	226.42
352.48	226.53
352.87	226.59
353.25	226.64
353.63	226.74
354.01	226.79
354.39	226.87
354.77	226.96
355.15	227.05
355.54	227.12
355.92	227.16
356.30	227.21
356.68	227.36
357.06	227.42
357.44	227.48
357.82	227.55
358.20	227.59
358.58	227.66
358.97	227.71
359.35	227.75
359.73	227.81
360.11	227.88
360.49	227.92
360.87	227.96
361.25	228.06
361.63	228.11
362.01	228.19
362.39	228.23
362.77	228.27
363.15	228.32
363.53	228.36
363.91	228.42
364.29	228.49
364.67	228.41
365.05	228.43
365.43	228.43
365.81	228.48
366.19	228.57
366.57	228.63
366.95	228.62
367.33	228.61
367.71	228.63
368.09	228.65
368.47	228.61
368.85	228.60
369.23	228.59
369.61	228.55
369.99	228.55
370.37	228.52
370.75	228.54
371.13	228.48
371.51	228.45
371.89	228.43
372.27	228.36
372.65	228.33
373.03	228.30
373.41	228.28
373.78	228.18
374.16	228.07
374.54	227.99
374.92	227.95
375.30	227.89
375.68	227.81
376.06	227.75
376.44	227.70
376.82	227.64
377.19	227.58
377.57	227.50
377.95	227.37
378.33	227.30
378.71	227.19
379.09	227.13
379.47	227.05
379.84	226.98
380.22	226.91
380.60	226.85
380.98	226.77
381.36	226.70
381.73	226.62
382.11	226.56
382.49	226.50
382.87	226.42
383.25	226.37
383.62	226.45
384.00	226.34
384.38	226.27
384.76	226.27
385.13	226.23
385.51	226.15
385.89	226.12
386.27	226.07
386.64	226.03
387.02	225.98
387.40	225.95
387.78	225.92
388.15	225.88
388.53	225.83
388.91	225.82
389.29	225.76
389.66	225.79
390.04	225.77
390.42	225.77
390.79	225.75
391.17	225.72
391.55	225.57
391.92	225.57
392.30	225.60
392.68	225.53
393.05	225.54
393.43	225.57
393.81	225.56
394.18	225.55
394.56	225.55
394.94	225.59
395.31	225.60
395.69	225.60
396.06	225.64
396.44	225.66
396.82	225.67
397.19	225.78
397.57	225.79
397.95	225.85
398.32	225.87
398.70	225.92
399.07	226.01
399.45	226.08
399.82	226.17
400.20	226.22
400.58	226.28
400.95	226.30
401.33	226.38
401.70	226.53
402.08	226.61
402.45	226.66
402.83	226.77
403.20	226.85
403.58	226.95
403.95	227.04
404.33	227.18
404.71	227.32
405.08	227.47
405.46	227.60
405.83	227.71
406.21	227.86
406.58	228.03
406.96	228.15
407.33	228.33
407.70	228.47
408.08	228.74
408.45	228.97
408.83	229.21
409.20	229.43
409.58	229.60
409.95	229.86
410.33	230.12
410.70	230.36
411.08	230.68
411.45	230.99
411.82	231.33
412.20	231.66
412.57	232.04
412.95	232.34
413.32	232.75
413.69	233.18
414.07	233.61
414.44	234.07
414.82	234.54
415.19	235.08
415.56	235.64
415.94	236.16
416.31	236.82
416.68	237.45
417.06	238.13
417.43	238.82
417.81	239.59
418.18	240.37
418.55	241.15
418.93	242.01
419.30	242.87
419.67	243.82
420.04	244.79
420.42	245.77
420.79	246.96
421.16	248.08
421.54	249.25
421.91	250.48
422.28	251.72
422.66	253.04
423.03	254.37
423.40	255.72
423.77	257.13
424.15	258.52
424.52	259.98
424.89	261.59
425.26	263.15
425.64	264.58
426.01	266.23
426.38	267.94
426.75	269.58
427.13	271.37
427.50	273.13
427.87	275.01
428.24	276.86
428.61	278.60
428.99	280.51
429.36	282.60
429.73	284.62
430.10	286.61
430.47	288.64
430.85	290.72
431.22	292.96
431.59	295.33
431.96	297.58
432.33	300.07
432.70	302.46
433.08	305.24
433.45	307.86
433.82	310.42
434.19	313.26
434.56	316.09
434.93	318.66
435.30	321.29
435.68	324.17
436.05	327.02
436.42	329.74
436.79	332.23
437.16	334.90
437.53	337.74
437.90	340.58
438.27	343.34
438.64	346.15
439.01	348.71
439.38	350.91
439.75	353.06
440.13	355.53
440.50	357.81
440.87	359.62
441.24	361.57
441.61	363.72
441.98	365.20
442.35	366.97
442.72	368.82
443.09	370.63
443.46	371.60
443.83	372.14
444.20	372.66
444.57	373.50
444.94	373.80
445.31	374.15
445.68	374.50
446.05	374.55
446.42	374.16
446.79	373.71
447.16	373.22
447.53	372.90
447.90	371.72
448.27	370.56
448.64	369.01
449.01	367.87
449.37	365.94
449.74	364.06
450.11	361.84
450.48	359.40
450.85	356.88
451.22	354.76
451.59	352.79
451.96	350.88
452.33	348.33
452.70	345.98
453.07	343.16
453.43	340.27
453.80	337.54
454.17	334.87
454.54	332.35
454.91	329.68
455.28	327.04
455.65	324.59
456.02	322.18
456.38	320.06
456.75	317.42
457.12	315.15
457.49	312.92
457.86	310.77
458.23	308.91
458.59	306.88
458.96	304.77
459.33	302.91
459.70	301.07
460.07	299.55
460.43	297.86
460.80	296.22
461.17	294.79
461.54	293.31
461.91	291.93
462.27	290.49
462.64	289.23
463.01	287.85
463.38	286.57
463.74	285.21
464.11	284.06
464.48	283.00
464.85	281.94
465.21	281.08
465.58	280.17
465.95	279.10
466.32	278.15
466.68	277.29
467.05	276.41
467.42	275.54
467.78	274.63
468.15	273.75
468.52	273.12
468.88	272.28
469.25	271.49
469.62	270.85
469.98	270.22
470.35	269.66
470.72	269.06
471.08	268.42
471.45	267.92
471.82	267.38
472.18	266.83
472.55	266.39
472.92	265.92
473.28	265.44
473.65	264.98
474.02	264.57
474.38	264.20
474.75	263.89
475.11	263.52
475.48	263.26
475.85	263.04
476.21	262.80
476.58	262.65
476.94	262.51
477.31	262.36
477.67	262.23
478.04	262.11
478.41	262.07
478.77	262.14
479.14	262.07
479.50	262.08
479.87	262.17
480.23	262.28
480.60	262.35
480.96	262.46
481.33	262.70
481.69	262.95
482.06	263.17
482.42	263.36
482.79	263.67
483.15	264.00
483.52	264.36
483.88	264.74
484.25	265.10
484.61	265.55
484.98	266.02
485.34	266.57
485.71	267.17
486.07	267.80
486.44	268.37
486.80	269.10
487.17	269.86
487.53	270.64
487.90	271.43
488.26	272.41
488.62	273.38
488.99	274.39
489.35	275.42
489.72	276.56
490.08	277.79
490.44	279.03
490.81	280.38
491.17	281.75
491.54	283.24
491.90	284.77
492.26	286.45
492.63	288.17
492.99	289.93
493.36	291.83
493.72	293.88
494.08	295.99
494.45	298.24
494.81	300.62
495.17	303.08
495.54	305.69
495.90	308.35
496.26	311.21
496.63	314.16
496.99	317.29
497.35	320.51
497.72	323.90
498.08	327.40
498.44	331.06
498.80	334.97
499.17	339.00
499.53	343.19
499.89	347.63
500.26	352.14
500.62	356.82
500.98	361.80
501.34	366.89
501.71	372.18
502.07	377.63
502.43	383.19
502.79	389.04
503.16	395.10
503.52	401.34
503.88	407.74
504.24	414.38
504.60	421.25
504.97	428.37
505.33	435.70
505.69	443.45
506.05	451.26
506.41	459.10
506.78	467.27
507.14	475.75
507.50	484.35
507.86	493.45
508.22	502.69
508.59	511.89
508.95	521.50
509.31	531.36
509.67	541.42
510.03	551.70
510.39	562.24
510.75	573.05
511.12	583.98
511.48	595.32
511.84	606.76
512.20	618.22
512.56	630.19
512.92	642.41
513.28	654.70
513.64	667.16
514.00	679.91
514.37	692.86
514.73	705.91
515.09	718.97
515.45	732.21
515.81	745.72
516.17	759.70
516.53	773.74
516.89	787.86
517.25	801.97
517.61	816.37
517.97	830.76
518.33	845.12
518.69	859.87
519.05	874.64
519.41	889.80
519.77	905.33
520.13	920.75
520.49	936.04
520.85	951.44
521.21	967.08
521.57	983.21
521.93	998.80
522.29	1015.11
522.65	1031.35
523.01	1047.37
523.37	1063.37
523.73	1079.45
524.09	1095.49
524.45	1111.64
524.81	1128.32
525.17	1145.22
525.53	1162.10
525.89	1178.95
526.25	1195.68
526.61	1212.06
526.97	1228.66
527.33	1245.03
527.68	1261.49
528.04	1277.95
528.40	1294.43
528.76	1311.31
529.12	1327.92
529.48	1344.87
529.84	1360.74
530.20	1377.34
530.56	1394.35
530.91	1411.70
531.27	1428.36
531.63	1444.80
531.99	1461.36
532.35	1477.06
532.71	1492.73
533.07	1508.85
533.42	1524.59
533.78	1540.50
534.14	1556.73
534.50	1572.00
534.86	1587.85
535.21	1602.91
535.57	1618.68
535.93	1634.05
536.29	1648.81
536.65	1663.58
537.00	1678.11
537.36	1693.29
537.72	1707.50
538.08	1721.83
538.44	1735.47
538.79	1749.31
539.15	1762.80
539.51	1776.41
539.87	1790.70
540.22	1804.35
540.58	1817.99
540.94	1831.19
541.29	1844.09
541.65	1856.55
542.01	1869.64
542.37	1881.70
542.72	1894.09
543.08	1905.81
543.44	1918.19
543.79	1929.29
544.15	1940.38
544.51	1951.92
544.87	1962.84
545.22	1973.70
545.58	1983.92
545.94	1993.54
546.29	2003.18
546.65	2012.94
547.01	2022.09
547.36	2030.77
547.72	2039.13
548.07	2046.92
548.43	2054.94
548.79	2062.86
549.14	2070.59
549.50	2077.76
549.86	2085.55
550.21	2092.91
550.57	2100.03
550.92	2106.46
551.28	2113.56
551.64	2120.54
551.99	2126.92
552.35	2133.15
552.70	2139.27
553.06	2145.00
553.41	2151.31
553.77	2157.38
554.13	2163.46
554.48	2169.71
554.84	2175.20
555.19	2180.39
555.55	2185.52
555.90	2190.16
556.26	2195.06
556.61	2199.53
556.97	2203.98
557.32	2208.05
557.68	2212.00
558.03	2216.35
558.39	2220.05
558.74	2224.64
559.10	2228.40
559.45	2232.13
559.81	2236.29
560.16	2240.10
560.52	2243.49
560.87	2246.92
561.23	2249.58
561.58	2252.71
561.94	2255.17
562.29	2257.47
562.64	2260.25
563.00	2262.73
563.35	2266.25
563.71	2269.19
564.06	2272.62
564.42	2275.40
564.77	2277.91
565.12	2280.23
565.48	2282.07
565.83	2283.90
566.19	2285.25
566.54	2286.19
566.89	2287.43
567.25	2288.04
567.60	2289.39
567.96	2291.18
568.31	2292.01
568.66	2293.26
569.02	2293.67
569.37	2294.06
569.72	2295.08
570.08	2295.21
570.43	2295.49
570.78	2294.98
571.14	2293.61
571.49	2292.18
571.84	2292.13
572.20	2291.16
572.55	2290.15
572.90	2288.69
573.26	2287.50
573.61	2285.96
573.96	2284.43
574.31	2281.55
574.67	2278.60
575.02	2275.04
575.37	2271.55
575.72	2267.88
576.08	2264.47
576.43	2261.27
576.78	2257.58
577.13	2254.39
577.49	2251.46
577.84	2247.97
578.19	2244.26
578.54	2240.89
578.90	2236.81
579.25	2231.08
579.60	2226.07
579.95	2221.23
580.30	2216.21
580.66	2211.17
581.01	2206.20
581.36	2201.29
581.71	2197.20
582.06	2192.88
582.42	2188.60
582.77	2183.57
583.12	2179.14
583.47	2174.47
583.82	2169.56
584.17	2164.52
584.53	2159.13
584.88	2153.53
585.23	2147.93
585.58	2142.41
585.93	2136.92
586.28	2132.12
586.63	2127.25
586.98	2122.25
587.34	2117.53
587.69	2112.82
588.04	2107.52
588.39	2101.88
588.74	2095.39
589.09	2089.32
589.44	2082.69
589.79	2076.64
590.14	2071.04
590.49	2064.57
590.84	2058.30
591.19	2052.22
591.54	2045.76
591.89	2038.41
592.25	2031.65
592.60	2024.44
592.95	2016.96
593.30	2009.62
593.65	2002.19
594.00	1995.18
594.35	1988.07
594.70	1980.15
595.05	1972.96
595.40	1965.82
595.75	1958.36
596.10	1952.33
596.45	1945.64
596.80	1939.40
597.15	1932.76
597.50	1925.72
597.85	1919.24
598.19	1912.68
598.54	1905.70
598.89	1899.17
599.24	1893.41
599.59	1886.81
599.94	1880.67
600.29	1874.44
600.64	1867.94
600.99	1860.55
601.34	1853.82
601.69	1846.84
602.04	1840.00
602.39	1832.80
602.74	1825.99
603.08	1819.33
603.43	1812.48
603.78	1805.24
604.13	1798.07
604.48	1790.84
604.83	1784.06
605.18	1777.21
605.53	1769.15
605.87	1761.15
606.22	1753.88
606.57	1745.89
606.92	1738.62
607.27	1731.53
607.62	1724.73
607.96	1717.51
608.31	1710.92
608.66	1703.23
609.01	1695.76
609.36	1688.25
609.70	1680.02
610.05	1671.99
610.40	1664.40
610.75	1656.24
611.10	1648.59
611.44	1640.24
611.79	1632.24
612.14	1623.65
612.49	1614.44
612.83	1606.20
613.18	1598.10
613.53	1590.03
613.88	1581.43
614.22	1573.06
614.57	1564.41
614.92	1556.27
615.27	1548.65
615.61	1540.37
615.96	1532.38
616.31	1524.74
616.65	1517.25
617.00	1509.80
617.35	1502.02
617.70	1493.68
618.04	1485.20
618.39	1476.88
618.74	1469.31
619.08	1461.03
619.43	1453.33
619.78	1446.38
620.12	1439.21
620.47	1431.65
620.82	1423.41
621.16	1416.13
621.51	1408.66
621.85	1401.05
622.20	1392.51
622.55	1384.18
622.89	1376.25
623.24	1368.60
623.59	1361.21
623.93	1353.73
624.28	1346.48
624.62	1338.99
624.97	1331.69
625.32	1324.89
625.66	1317.91
626.01	1310.71
626.35	1303.38
626.70	1295.58
627.04	1287.86
627.39	1280.06
627.73	1272.60
628.08	1265.75
628.43	1258.40
628.77	1250.83
629.12	1243.30
629.46	1236.14
629.81	1228.63
630.15	1221.39
630.50	1213.97
630.84	1205.72
631.19	1197.87
631.53	1190.36
631.88	1182.75
632.22	1175.18
632.57	1167.82
632.91	1160.20
633.26	1152.75
633.60	1145.30
633.95	1138.20
634.29	1131.20
634.64	1124.53
634.98	1117.18
635.32	1110.07
635.67	1103.52
636.01	1097.04
636.36	1090.10
636.70	1083.58
637.05	1077.16
637.39	1070.70
637.73	1064.16
638.08	1058.27
638.42	1052.21
638.77	1045.80
639.11	1039.22
639.45	1032.79
639.80	1026.13
640.14	1019.75
640.49	1013.19
640.83	1006.82
641.17	1000.57
641.52	994.14
641.86	987.63
642.20	981.84
642.55	975.45
642.89	968.91
643.23	962.26
643.58	956.58
643.92	950.44
644.26	944.32
644.61	938.35
644.95	932.33
645.29	925.77
645.64	919.08
645.98	912.75
646.32	906.94
646.66	900.90
647.01	895.14
647.35	889.45
647.69	883.59
648.04	878.06
648.38	872.29
648.72	866.38
649.06	860.33
649.41	854.43
649.75	848.46
650.09	842.49
650.43	836.73
650.78	830.55
651.12	824.58
651.46	818.80
651.80	812.95
652.14	807.57
652.49	802.18
652.83	796.99
653.17	791.22
653.51	785.54
653.85	780.16
654.20	774.48
654.54	768.44
654.88	762.74
655.22	756.84
655.56	751.16
655.90	745.70
656.25	740.47
656.59	735.09
656.93	730.02
657.27	724.85
657.61	719.48
657.95	714.34
658.29	709.22
658.64	704.03
658.98	698.71
659.32	693.26
659.66	688.10
660.00	682.75
660.34	677.85
660.68	672.93
661.02	667.92
661.36	663.18
661.70	658.66
662.05	654.33
662.39	650.05
662.73	645.58
663.07	641.16
663.41	636.70
663.75	632.16
664.09	627.59
664.43	623.17
664.77	618.99
665.11	614.76
665.45	610.64
665.79	606.56
666.13	602.47
666.47	598.30
666.81	594.16
667.15	590.07
667.49	586.17
667.83	582.37
668.17	578.41
668.51	574.36
668.85	570.36
669.19	566.52
669.53	562.65
669.87	558.80
670.21	555.06
670.55	551.36
670.89	548.00
671.23	544.56
671.57	541.03
671.91	537.48
672.25	533.99
672.58	530.41
672.92	526.95
673.26	523.81
673.60	520.74
673.94	517.57
674.28	514.61
674.62	511.60
674.96	508.40
675.30	505.49
675.64	502.56
675.97	499.80
676.31	496.90
676.65	493.99
676.99	491.21
677.33	488.36
677.67	485.58
678.01	482.53
678.34	479.61
678.68	476.78
679.02	473.98
679.36	471.23
679.70	468.53
680.04	465.79
680.37	462.86
680.71	460.02
681.05	457.38
681.39	454.66
681.73	452.01
682.06	449.49
682.40	446.94
682.74	444.40
683.08	441.77
683.42	439.17
683.75	436.62
684.09	434.12
684.43	431.67
684.77	429.21
685.10	426.84
685.44	424.49
685.78	422.18
686.12	419.86
686.45	417.53
686.79	415.22
687.13	412.97
687.46	410.86
687.80	408.77
688.14	406.55
688.48	404.50
688.81	402.26
689.15	400.10
689.49	397.95
689.82	395.87
690.16	393.83
690.50	391.85
690.83	389.90
691.17	387.87
691.51	385.93
691.84	384.05
692.18	382.13
692.52	380.13
692.85	378.22
693.19	376.40
693.52	374.55
693.86	372.78
694.20	371.04
694.53	369.24
694.87	367.36
695.21	365.61
695.54	363.80
695.88	362.12
696.21	360.39
696.55	358.68
696.88	356.99
697.22	355.27
697.56	353.66
697.89	352.03
698.23	350.44
698.56	348.84
698.90	347.31
699.23	345.62
699.57	344.09
699.90	342.52
700.24	340.95
700.58	339.48
700.91	337.93
701.25	336.48
701.58	335.05
701.92	333.69
702.25	332.32
702.59	330.95
702.92	329.61
703.26	328.35
703.59	327.05
703.93	325.88
704.26	324.69
704.60	323.38
704.93	322.11
705.26	320.90
705.60	319.74
705.93	318.52
706.27	317.52
706.60	316.45
706.94	315.35
707.27	314.25
707.61	313.17
707.94	312.17
708.27	311.04
708.61	309.94
708.94	308.89
709.28	307.91
709.61	306.96
709.94	305.96
710.28	304.92
710.61	303.97
710.95	302.90
711.28	302.03
711.61	301.10
711.95	300.16
712.28	299.19
712.61	298.19
712.95	297.26
713.28	296.36
713.61	295.43
713.95	294.58
714.28	293.69
714.61	292.81
714.95	291.94
715.28	291.08
715.61	290.26
715.95	289.46
716.28	288.57
716.61	287.71
716.95	286.92
717.28	286.19
717.61	285.42
717.94	284.66
718.28	283.81
718.61	283.09
718.94	282.37
719.27	281.72
719.61	281.06
719.94	280.43
720.27	279.73
720.60	279.10
720.94	278.46
721.27	277.90
721.60	277.33
721.93	276.74
722.27	276.22
722.60	275.65
722.93	275.04
723.26	274.49
723.59	273.91
723.93	273.37
724.26	272.79
724.59	272.28
724.92	271.77
725.25	271.29
725.59	270.75
725.92	270.29
726.25	269.78
726.58	269.33
726.91	268.82
727.24	268.35
727.57	267.86
727.91	267.35
728.24	266.90
728.57	266.40
728.90	265.92
729.23	265.41
729.56	264.97
729.89	264.47
730.22	264.00
730.55	263.53
730.89	263.09
731.22	262.64
731.55	262.15
731.88	261.73
732.21	261.31
732.54	260.90
732.87	260.47
733.20	260.08
733.53	259.69
733.86	259.34
734.19	258.93
734.52	258.59
734.85	258.28
735.18	257.83
735.51	257.49
735.84	257.13
736.17	256.80
736.50	256.39
736.83	256.21
737.16	255.91
737.49	255.58
737.82	255.24
738.15	254.91
738.48	254.59
738.81	254.27
739.14	253.91
739.47	253.56
739.80	253.22
740.13	252.89
740.46	252.55
740.79	252.16
741.12	251.86
741.45	251.51
741.78	251.16
742.11	250.89
742.44	250.54
742.77	250.24
743.10	249.91
743.43	249.60
743.75	249.18
744.08	249.01
744.41	248.75
744.74	248.43
745.07	248.14
745.40	247.92
745.73	247.65
746.06	247.39
746.39	247.13
746.71	246.87
747.04	246.57
747.37	246.30
747.70	246.07
748.03	245.81
748.36	245.57
748.68	245.31
749.01	245.08
749.34	244.86
749.67	244.64
750.00	244.45
750.33	244.32
750.65	244.11
750.98	243.79
751.31	243.57
751.64	243.42
751.97	243.28
752.29	243.03
752.62	242.79
752.95	242.56
753.28	242.33
753.60	242.12
753.93	241.96
754.26	241.75
754.59	241.53
754.91	241.31
755.24	241.11
755.57	240.92
755.90	240.73
756.22	240.53
756.55	240.33
756.88	240.09
757.20	239.82
757.53	239.65
757.86	239.46
758.19	239.31
758.51	239.10
758.84	238.88
759.17	238.72
759.49	238.56
759.82	238.47
760.15	238.35
760.47	238.21
760.80	238.04
761.13	237.93
761.45	237.82
761.78	237.69
762.11	237.55
762.43	237.44
762.76	237.27
763.08	237.15
763.41	237.00
763.74	236.89
764.06	236.77
764.39	236.63
764.71	236.51
765.04	236.34
765.37	236.20
765.69	236.08
766.02	235.91
766.34	235.81
766.67	235.64
767.00	235.54
767.32	235.48
767.65	235.44
767.97	235.34
768.30	235.19
768.62	235.07
768.95	234.99
769.27	234.89
769.60	234.83
769.92	234.72
770.25	234.62
770.57	234.50
770.90	234.40
771.22	234.29
771.55	234.17
771.87	234.08
772.20	234.01
772.52	234.04
772.85	234.10
773.17	234.03
773.50	233.94
773.82	233.86
774.15	233.73
774.47	233.56
774.80	233.45
775.12	233.39
775.45	233.36
775.77	233.29
776.09	233.23
776.42	233.13
776.74	233.09
777.07	233.02
777.39	232.96
777.72	232.92
778.04	232.86
778.36	232.81
778.69	232.76
779.01	232.68
779.33	232.53
779.66	232.35
779.98	232.26
780.31	232.24
780.63	232.19
780.95	232.14
781.28	232.09
781.60	232.05
781.92	231.95
782.25	231.88
782.57	231.79
782.89	231.69
783.22	231.65
783.54	231.55
783.86	231.49
784.19	231.43
784.51	231.37
784.83	231.32
785.16	231.27
785.48	231.21
785.80	231.14
786.12	231.07
786.45	230.99
786.77	230.93
787.09	230.84
787.42	230.75
787.74	230.71
788.06	230.67
788.38	230.61
788.71	230.58
789.03	230.54
789.35	230.51
789.67	230.47
789.99	230.42
790.32	230.37
790.64	230.35
790.96	230.41
791.28	230.35
791.61	230.30
791.93	230.29
792.25	230.25
792.57	230.27
792.89	230.21
793.21	230.17
793.54	230.16
793.86	230.13
794.18	230.08
794.50	229.98
794.82	229.95
795.14	229.91
795.47	229.88
795.79	229.84
796.11	229.79
796.43	229.74
796.75	229.71
797.07	229.67
797.39	229.62
797.71	229.50
798.04	229.48
798.36	229.45
798.68	229.39
799.00	229.35
799.32	229.29
799.64	229.31
799.96	229.31
800.28	229.27
800.60	229.22
800.92	229.19
801.24	229.17
801.56	229.12
801.89	229.09
802.21	229.09
802.53	229.01
802.85	228.97
803.17	229.00
803.49	228.94
803.81	228.90
804.13	228.87
804.45	228.82
804.77	228.82
805.09	228.76
805.41	228.73
805.73	228.70
806.05	228.65
806.37	228.61
806.69	228.59
807.01	228.58
807.33	228.57
807.65	228.50
807.97	228.56
808.28	228.51
808.60	228.48
808.92	228.46
809.24	228.54
809.56	228.55
809.88	228.48
810.20	228.47
810.52	228.48
810.84	228.48
811.16	228.46
811.48	228.45
811.80	228.52
812.12	228.48
812.43	228.47
812.75	228.46
813.07	228.39
813.39	228.36
813.71	228.32
814.03	228.29
814.35	228.28
814.67	228.20
814.98	228.21
815.30	228.20
815.62	228.16
815.94	228.07
816.26	228.08
816.58	228.05
816.89	228.03
817.21	227.99
817.53	227.96
817.85	227.95
818.17	227.93
818.48	227.83
818.80	227.84
819.12	227.80
819.44	227.78
819.76	227.78
820.07	227.77
820.39	227.73
820.71	227.71
821.03	227.71
821.34	227.72
821.66	227.72
821.98	227.71
822.30	227.69
822.61	227.74
822.93	227.66
823.25	227.66
823.57	227.65
823.88	227.66
824.20	227.66
824.52	227.67
824.83	227.63
825.15	227.61
825.47	227.58
825.79	227.56
826.10	227.55
826.42	227.54
826.74	227.52
827.05	227.54
827.37	227.53
827.69	227.50
828.00	227.47
828.32	227.44
828.64	227.42
828.95	227.44
829.27	227.41
829.58	227.37
829.90	227.40
830.22	227.38
830.53	227.34
830.85	227.31
831.17	227.23
831.48	227.22
831.80	227.20
832.11	227.20
832.43	227.20
832.75	227.18
833.06	227.23
833.38	227.21
833.69	227.17
834.01	227.17
834.32	227.18
834.64	227.14
834.96	227.14
835.27	227.12
835.59	227.11
835.90	227.07
836.22	227.07
836.53	227.04
836.85	227.02
837.16	227.13
837.48	227.11
837.79	227.17
838.11	227.17
838.42	227.18
838.74	227.18
839.05	227.11
839.37	227.08
839.68	227.03
840.00	227.00
840.31	226.99
840.63	226.96
840.94	226.92
841.26	226.91
841.57	226.89
841.88	226.86
842.20	226.80
842.51	226.78
842.83	226.76
843.14	226.81
843.46	226.79
843.77	226.70
844.08	226.70
844.40	226.64
844.71	226.59
845.03	226.57
845.34	226.56
845.65	226.59
845.97	226.56
846.28	226.51
846.60	226.50
846.91	226.49
847.22	226.46
847.54	226.48
847.85	226.48
848.16	226.48
848.48	226.49
848.79	226.54
849.10	226.55
849.42	226.56
849.73	226.43
850.04	226.42
850.36	226.39
850.67	226.39
850.98	226.40
851.30	226.40
851.61	226.40
851.92	226.39
852.23	226.43
852.55	226.46
852.86	226.51
853.17	226.50
853.49	226.51
853.80	226.54
854.11	226.55
854.42	226.58
854.74	226.55
855.05	226.58
855.36	226.50
855.67	226.49
855.99	226.48
856.30	226.61
856.61	226.64
856.92	226.62
857.23	226.61
857.55	226.61
857.86	226.62
858.17	226.63
858.48	226.61
858.79	226.60
859.11	226.61
859.42	226.61
859.73	226.65
860.04	226.65
860.35	226.63
860.66	226.62
860.98	226.60
861.29	226.62
861.60	226.62
861.91	226.66
862.22	226.65
862.53	226.63
862.84	226.54
863.16	226.57
863.47	226.57
863.78	226.58
864.09	226.58
864.40	226.58
864.71	226.58
865.02	226.62
865.33	226.58
865.64	226.59
865.95	226.56
866.27	226.63
866.58	226.63
866.89	226.63
867.20	226.65
867.51	226.65
867.82	226.65
868.13	226.66
868.44	226.64
868.75	226.68
869.06	226.70
869.37	226.70
869.68	226.67
869.99	226.69
870.30	226.70
870.61	226.72
870.92	226.71
871.23	226.70
871.54	226.68
871.85	226.69
872.16	226.70
872.47	226.67
872.78	226.59
873.09	226.56
873.40	226.56
873.71	226.54
874.02	226.52
874.33	226.51
874.64	226.47
874.95	226.51
875.26	226.46
875.56	226.47
875.87	226.45
876.18	226.42
876.49	226.49
876.80	226.49
877.11	226.43
877.42	226.42
877.73	226.41
878.04	226.40
878.35	226.40
878.66	226.38
878.96	226.39
879.27	226.37
879.58	226.37
879.89	226.35
880.20	226.35
880.51	226.37
880.82	226.35
881.12	226.36
881.43	226.32
881.74	226.30
882.05	226.27
882.36	226.27
882.67	226.30
882.97	226.21
883.28	226.17
883.59	226.20
883.90	226.22
884.21	226.22
884.51	226.20
884.82	226.15
885.13	226.15
885.44	226.13
885.74	226.14
886.05	226.16
886.36	226.14
886.67	226.07
886.98	226.12
887.28	226.11
887.59	226.10
887.90	226.11
888.20	226.12
888.51	226.14
888.82	226.11
889.13	226.10
889.43	226.16
889.74	226.20
890.05	226.19
890.35	226.18
890.66	226.19
890.97	226.19
891.28	226.22
891.58	226.23
891.89	226.25
892.20	226.21
892.50	226.20
892.81	226.20
893.12	226.24
893.42	226.16
893.73	226.17
894.04	226.17
894.34	226.18
894.65	226.18
894.95	226.16
895.26	226.21
895.57	226.21
895.87	226.11
896.18	226.09
896.48	226.12
896.79	226.12
897.10	226.10
897.40	226.11
897.71	226.12
898.01	226.09
898.32	226.12
898.63	226.14
898.93	226.15
899.24	226.19
899.54	226.18
899.85	226.19
900.15	226.20
900.46	226.24
900.76	226.23
901.07	226.21
901.38	226.22
901.68	226.25
901.99	226.21
902.29	226.24
902.60	226.24
902.90	226.23
903.21	226.22
903.51	226.22
903.82	226.24
904.12	226.23
904.43	226.26
904.73	226.21
905.03	226.23
905.34	226.30
905.64	226.23
905.95	226.26
906.25	226.25
906.56	226.26
906.86	226.23
907.17	226.24
907.47	226.24
907.77	226.24
908.08	226.19
908.38	226.23
908.69	226.21
908.99	226.24
909.30	226.19
909.60	226.22
909.90	226.25
910.21	226.23
910.51	226.22
910.81	226.22
911.12	226.25
911.42	226.25
911.73	226.17
912.03	226.23
912.33	226.20
912.64	226.23
912.94	226.22
913.24	226.22
913.55	226.18
913.85	226.14
914.15	226.14
914.46	226.14
914.76	226.11
915.06	226.11
915.37	226.08
915.67	226.07
915.97	226.02
916.27	226.01
916.58	225.98
916.88	225.97
917.18	225.91
917.49	225.98
917.79	225.94
918.09	225.95
918.39	225.94
918.70	225.97
919.00	225.95
919.30	226.00
919.60	225.96
919.91	225.96
920.21	225.99
920.51	225.97
920.81	225.95
921.12	225.98
921.42	225.97
921.72	225.96
922.02	225.98
922.32	226.01
922.63	225.99
922.93	226.03
923.23	226.04
923.53	226.07
923.83	226.02
924.13	226.04
924.44	226.02
924.74	226.04
925.04	226.02
925.34	225.99
925.64	225.91
925.94	225.94
926.24	225.99
926.55	226.00
926.85	226.03
927.15	226.03
927.45	226.01
927.75	226.02
928.05	226.01
928.35	226.00
928.65	225.97
928.95	225.98
929.26	225.96
929.56	225.96
929.86	225.99
930.16	225.97
930.46	225.97
930.76	225.98
931.06	225.95
931.36	225.94
931.66	225.95
931.96	225.96
932.26	225.95
932.56	225.94
932.86	225.95
933.16	225.97
933.46	225.98
933.76	226.00
934.06	226.02
934.36	226.10
934.66	226.12
934.96	226.14
935.26	226.16
935.56	226.18
935.86	226.21
936.16	226.19
936.46	226.17
936.76	226.20
937.06	226.20
937.36	226.21
937.66	226.22
937.96	226.25
938.26	226.25
938.56	226.28
938.86	226.28
939.16	226.25
939.46	226.24
939.76	226.26
940.06	226.26
940.35	226.25
940.65	226.19
940.95	226.21
941.25	226.24
941.55	226.21
941.85	226.22
942.15	226.22
942.45	226.28
942.75	226.31
943.04	226.29
943.34	226.32
943.64	226.30
943.94	226.31
944.24	226.29
944.54	226.32
944.84	226.30
945.13	226.28
945.43	226.27
945.73	226.29
946.03	226.30
946.33	226.28
946.62	226.26
946.92	226.28
947.22	226.26
947.52	226.23
947.82	226.23
948.11	226.20
948.41	226.18
948.71	226.10
949.01	226.11
949.31	226.09
949.60	226.06
949.90	226.07
950.20	226.05
950.50	226.03
950.79	226.02
951.09	226.01
951.39	226.00
951.69	225.97
951.98	225.95
952.28	225.88
952.58	225.85
952.87	225.82
953.17	225.81
953.47	225.80
953.76	225.77
954.06	225.74
954.36	225.70
954.66	225.67
954.95	225.70
955.25	225.66
955.55	225.66
955.84	225.65
956.14	225.66
956.44	225.66
956.73	225.65
957.03	225.64
957.32	225.62
957.62	225.60
957.92	225.69
958.21	225.67
958.51	225.77
958.81	225.78
959.10	225.80
959.40	225.81
959.69	225.81
959.99	225.84
960.29	225.85
960.58	225.85
960.88	225.86
961.17	225.86
961.47	225.90
961.76	225.88
962.06	225.91
962.36	225.87
962.65	225.88
962.95	225.87
963.24	225.87
963.54	225.87
963.83	225.88
964.13	225.82
964.42	225.81
964.72	225.74
965.01	225.77
965.31	225.73
965.60	225.72
965.90	225.78
966.19	225.75
966.49	225.76
966.78	225.77
967.08	225.79
967.37	225.80
967.67	225.75
967.96	225.78
968.26	225.75
968.55	225.78
968.85	225.78
969.14	225.79
969.43	225.80
969.73	225.84
970.02	225.86
970.32	225.90
970.61	225.89
970.91	225.89
971.20	225.86
971.49	225.91
971.79	225.93
972.08	225.87
972.38	225.89
972.67	225.89
972.96	225.91
973.26	225.88
973.55	225.89
973.85	225.92
974.14	225.92
974.43	225.98
974.73	225.98
975.02	225.96
975.31	225.98
975.61	225.98
975.90	225.96
976.19	225.98
976.49	225.96
976.78	225.99
977.07	225.99
977.37	226.02
977.66	226.03
977.95	226.03
978.24	226.03
978.54	226.08
978.83	226.09
979.12	226.09
979.42	226.10
979.71	226.09
980.00	226.11
980.29	226.12
980.59	226.08
980.88	226.13
981.17	226.13
981.46	226.14
981.76	226.14
982.05	226.18
982.34	226.16
982.63	226.18
982.93	226.19
983.22	226.22
983.51	226.21
983.80	226.21
984.09	226.24
984.39	226.23
984.68	226.19
984.97	226.25
985.26	226.22
985.55	226.22
985.85	226.18
986.14	226.17
986.43	226.14
986.72	226.13
987.01	226.03
987.30	226.07
987.59	226.06
987.89	226.05
988.18	225.98
988.47	225.97
988.76	225.93
989.05	225.87
989.34	225.82
989.63	225.84
989.92	225.83
990.22	225.79
990.51	225.79
990.80	225.77
991.09	225.71
991.38	225.73
991.67	225.71
991.96	225.69
992.25	225.70
992.54	225.69
992.83	225.69
993.12	225.70
993.41	225.68
993.70	225.72
993.99	225.74
994.28	225.77
994.58	225.78
994.87	225.78
995.16	225.76
995.45	225.78
995.74	225.72
996.03	225.72
996.32	225.73
996.61	225.77
996.90	225.74
997.19	225.72
997.48	225.73
997.77	225.72
998.06	225.81
998.34	225.77
998.63	225.79
998.92	225.76
999.21	225.78
999.50	225.78
999.79	225.72
1000.08	225.69
1000.37	225.67
1000.66	225.67
1000.95	225.71
1001.24	225.72
1001.53	225.75
1001.82	225.76
1002.11	225.73
1002.40	225.72
1002.68	225.71
1002.97	225.82
1003.26	225.81
1003.55	225.76
1003.84	225.74
1004.13	225.72
1004.42	225.73
1004.71	225.75
1004.99	225.76
1005.28	225.78
1005.57	225.80
1005.86	225.80
1006.15	225.80
1006.44	225.82
1006.72	225.86
1007.01	225.84
1007.30	225.88
1007.59	225.86
1007.88	225.84
1008.17	225.91
1008.45	225.92
1008.74	225.87
1009.03	225.79
1009.32	225.82
1009.60	225.86
1009.89	225.90
1010.18	225.86
1010.47	225.86
1010.76	225.85
1011.04	225.85
1011.33	225.85
1011.62	225.89
1011.91	225.87
1012.19	225.92
1012.48	225.91
1012.77	225.88
1013.05	225.95
1013.34	225.95
1013.63	225.96
1013.92	225.99
1014.20	225.93
1014.49	225.98
1014.78	226.03
1015.06	226.03
1015.35	226.03
1015.64	226.03
1015.92	226.04
1016.21	226.04
1016.50	226.05
1016.78	226.07
1017.07	226.09
1017.36	226.05
1017.64	225.98
1017.93	226.02
1018.22	225.98
1018.50	225.97
1018.79	225.96
1019.08	225.88
1019.36	225.85
1019.65	225.84
1019.93	225.86
1020.22	225.86
1020.51	225.87
1020.79	225.86
1021.08	225.61
1021.36	225.68
1021.65	225.69
1021.94	225.79
1022.22	225.44
1022.51	225.93
1022.79	226.05
1023.08	225.84
1023.36	226.95
1023.65	225.84
>>>>>End Processed Spectral Data<<<<<
