SpectraSuite Data File
++++++++++++++++++++++++++++++++++++
Date: Fri Feb 01 15:43:37 EST 2013
User: group
Dark Spectrum Present: No
Reference Spectrum Present: No
Number of Sampled Component Spectra: 1
Spectrometers: USB2E7196
Integration Time (usec): 35000 (USB2E7196)
Spectra Averaged: 100 (USB2E7196)
Boxcar Smoothing: 10 (USB2E7196)
Correct for Electrical Dark: No (USB2E7196)
Strobe/Lamp Enabled: No (USB2E7196)
Correct for Detector Non-linearity: No (USB2E7196)
Correct for Stray Light: No (USB2E7196)
Number of Pixels in Processed Spectrum: 2048
>>>>>Begin Processed Spectral Data<<<<<
339.09	0.00
339.48	215.15
339.86	216.22
340.24	217.66
340.63	219.32
341.01	222.22
341.39	222.42
341.78	223.31
342.16	224.67
342.54	224.91
342.93	213.38
343.31	224.16
343.69	224.71
344.07	225.21
344.46	225.63
344.84	226.00
345.22	226.25
345.60	226.48
345.99	226.67
346.37	226.81
346.75	226.91
347.13	227.00
347.52	227.06
347.90	227.16
348.28	227.16
348.66	227.19
349.05	227.20
349.43	227.23
349.81	227.26
350.19	227.32
350.57	227.39
350.96	227.48
351.34	227.57
351.72	227.64
352.10	227.72
352.48	227.79
352.87	227.84
353.25	227.90
353.63	227.95
354.01	228.02
354.39	228.06
354.77	228.10
355.15	228.16
355.54	228.19
355.92	228.22
356.30	228.30
356.68	228.46
357.06	228.53
357.44	228.58
357.82	228.62
358.20	228.70
358.58	228.77
358.97	228.79
359.35	228.87
359.73	228.92
360.11	228.95
360.49	229.01
360.87	229.07
361.25	229.09
361.63	229.17
362.01	229.18
362.39	229.22
362.77	229.27
363.15	229.29
363.53	229.34
363.91	229.30
364.29	229.30
364.67	229.18
365.05	229.16
365.43	229.17
365.81	229.20
366.19	229.19
366.57	229.20
366.95	229.19
367.33	229.16
367.71	229.16
368.09	229.18
368.47	229.15
368.85	229.09
369.23	229.08
369.61	229.01
369.99	229.01
370.37	228.98
370.75	228.99
371.13	228.95
371.51	228.90
371.89	228.93
372.27	228.91
372.65	228.89
373.03	228.84
373.41	228.79
373.78	228.71
374.16	228.62
374.54	228.53
374.92	228.48
375.30	228.39
375.68	228.30
376.06	228.22
376.44	228.15
376.82	228.10
377.19	228.02
377.57	227.98
377.95	227.88
378.33	227.83
378.71	227.73
379.09	227.65
379.47	227.59
379.84	227.51
380.22	227.42
380.60	227.30
380.98	227.27
381.36	227.22
381.73	227.15
382.11	227.10
382.49	227.01
382.87	226.94
383.25	226.91
383.62	226.98
384.00	226.91
384.38	226.88
384.76	226.84
385.13	226.87
385.51	226.80
385.89	226.79
386.27	226.70
386.64	226.65
387.02	226.62
387.40	226.59
387.78	226.58
388.15	226.55
388.53	226.51
388.91	226.48
389.29	226.46
389.66	226.45
390.04	226.40
390.42	226.43
390.79	226.42
391.17	226.40
391.55	226.27
391.92	226.30
392.30	226.33
392.68	226.32
393.05	226.29
393.43	226.32
393.81	226.29
394.18	226.33
394.56	226.36
394.94	226.37
395.31	226.40
395.69	226.44
396.06	226.54
396.44	226.60
396.82	226.65
397.19	226.71
397.57	226.76
397.95	226.85
398.32	226.87
398.70	226.94
399.07	227.04
399.45	227.11
399.82	227.14
400.20	227.17
400.58	227.25
400.95	227.31
401.33	227.39
401.70	227.54
402.08	227.64
402.45	227.72
402.83	227.85
403.20	227.94
403.58	228.01
403.95	228.08
404.33	228.26
404.71	228.36
405.08	228.55
405.46	228.68
405.83	228.82
406.21	228.97
406.58	229.14
406.96	229.27
407.33	229.45
407.70	229.64
408.08	229.91
408.45	230.13
408.83	230.31
409.20	230.52
409.58	230.71
409.95	230.96
410.33	231.24
410.70	231.47
411.08	231.76
411.45	232.09
411.82	232.42
412.20	232.75
412.57	233.17
412.95	233.47
413.32	233.90
413.69	234.30
414.07	234.72
414.44	235.19
414.82	235.68
415.19	236.22
415.56	236.80
415.94	237.29
416.31	237.91
416.68	238.56
417.06	239.30
417.43	239.96
417.81	240.73
418.18	241.51
418.55	242.34
418.93	243.17
419.30	244.09
419.67	244.95
420.04	245.89
420.42	246.87
420.79	248.04
421.16	249.15
421.54	250.35
421.91	251.59
422.28	252.82
422.66	254.14
423.03	255.45
423.40	256.74
423.77	258.21
424.15	259.60
424.52	261.10
424.89	262.68
425.26	264.23
425.64	265.67
426.01	267.27
426.38	268.93
426.75	270.65
427.13	272.35
427.50	274.23
427.87	276.12
428.24	277.99
428.61	279.74
428.99	281.66
429.36	283.76
429.73	285.82
430.10	287.82
430.47	289.89
430.85	291.99
431.22	294.25
431.59	296.61
431.96	298.88
432.33	301.36
432.70	303.80
433.08	306.62
433.45	309.32
433.82	311.92
434.19	314.83
434.56	317.64
434.93	320.31
435.30	322.90
435.68	325.78
436.05	328.59
436.42	331.39
436.79	333.94
437.16	336.64
437.53	339.49
437.90	342.33
438.27	345.07
438.64	347.97
439.01	350.61
439.38	352.88
439.75	355.08
440.13	357.58
440.50	359.91
440.87	361.79
441.24	363.70
441.61	365.85
441.98	367.32
442.35	369.18
442.72	371.04
443.09	372.88
443.46	373.90
443.83	374.51
444.20	375.02
444.57	375.84
444.94	376.15
445.31	376.53
445.68	376.89
446.05	376.94
446.42	376.49
446.79	376.06
447.16	375.60
447.53	375.34
447.90	374.20
448.27	373.02
448.64	371.44
449.01	370.28
449.37	368.34
449.74	366.44
450.11	364.15
450.48	361.66
450.85	359.15
451.22	357.00
451.59	354.96
451.96	353.02
452.33	350.42
452.70	348.06
453.07	345.18
453.43	342.27
453.80	339.52
454.17	336.90
454.54	334.34
454.91	331.64
455.28	328.90
455.65	326.38
456.02	323.92
456.38	321.73
456.75	319.06
457.12	316.79
457.49	314.55
457.86	312.36
458.23	310.52
458.59	308.46
458.96	306.36
459.33	304.51
459.70	302.63
460.07	301.16
460.43	299.46
460.80	297.86
461.17	296.43
461.54	294.93
461.91	293.43
462.27	291.96
462.64	290.69
463.01	289.33
463.38	288.05
463.74	286.67
464.11	285.53
464.48	284.50
464.85	283.41
465.21	282.55
465.58	281.66
465.95	280.57
466.32	279.65
466.68	278.73
467.05	277.83
467.42	276.92
467.78	275.94
468.15	275.02
468.52	274.34
468.88	273.44
469.25	272.66
469.62	272.05
469.98	271.41
470.35	270.78
470.72	270.19
471.08	269.50
471.45	268.94
471.82	268.38
472.18	267.78
472.55	267.35
472.92	266.80
473.28	266.31
473.65	265.84
474.02	265.39
474.38	265.02
474.75	264.72
475.11	264.37
475.48	264.12
475.85	263.95
476.21	263.71
476.58	263.55
476.94	263.42
477.31	263.27
477.67	263.10
478.04	262.97
478.41	262.91
478.77	262.98
479.14	262.95
479.50	262.97
479.87	263.02
480.23	263.06
480.60	263.15
480.96	263.26
481.33	263.49
481.69	263.71
482.06	263.90
482.42	264.08
482.79	264.38
483.15	264.71
483.52	265.06
483.88	265.42
484.25	265.79
484.61	266.22
484.98	266.67
485.34	267.22
485.71	267.83
486.07	268.43
486.44	269.00
486.80	269.72
487.17	270.46
487.53	271.30
487.90	272.18
488.26	273.15
488.62	274.14
488.99	275.13
489.35	276.19
489.72	277.37
490.08	278.57
490.44	279.81
490.81	281.18
491.17	282.52
491.54	283.99
491.90	285.55
492.26	287.21
492.63	288.94
492.99	290.73
493.36	292.62
493.72	294.69
494.08	296.80
494.45	299.08
494.81	301.47
495.17	303.92
495.54	306.48
495.90	309.16
496.26	311.98
496.63	314.91
496.99	318.00
497.35	321.23
497.72	324.64
498.08	328.16
498.44	331.82
498.80	335.73
499.17	339.75
499.53	343.93
499.89	348.31
500.26	352.83
500.62	357.55
500.98	362.50
501.34	367.61
501.71	372.91
502.07	378.36
502.43	383.98
502.79	389.78
503.16	395.83
503.52	402.12
503.88	408.48
504.24	415.14
504.60	422.05
504.97	429.22
505.33	436.53
505.69	444.23
506.05	452.00
506.41	459.89
506.78	468.10
507.14	476.56
507.50	485.19
507.86	494.26
508.22	503.38
508.59	512.55
508.95	522.09
509.31	531.96
509.67	541.96
510.03	552.21
510.39	562.80
510.75	573.62
511.12	584.53
511.48	595.79
511.84	607.19
512.20	618.64
512.56	630.55
512.92	642.81
513.28	655.06
513.64	667.51
514.00	680.22
514.37	693.05
514.73	706.10
515.09	719.19
515.45	732.51
515.81	746.10
516.17	760.15
516.53	774.21
516.89	788.37
517.25	802.65
517.61	817.11
517.97	831.55
518.33	846.08
518.69	860.83
519.05	875.88
519.41	891.15
519.77	906.71
520.13	922.16
520.49	937.42
520.85	952.92
521.21	968.60
521.57	984.85
521.93	1000.76
522.29	1017.12
522.65	1033.38
523.01	1049.61
523.37	1065.76
523.73	1081.96
524.09	1098.07
524.45	1114.31
524.81	1130.89
525.17	1147.71
525.53	1164.64
525.89	1181.40
526.25	1198.25
526.61	1214.62
526.97	1231.27
527.33	1247.76
527.68	1264.43
528.04	1281.00
528.40	1297.67
528.76	1314.73
529.12	1331.24
529.48	1348.04
529.84	1364.14
530.20	1380.82
530.56	1397.79
530.91	1415.18
531.27	1431.85
531.63	1448.33
531.99	1464.96
532.35	1480.79
532.71	1496.58
533.07	1512.77
533.42	1528.73
533.78	1544.74
534.14	1561.10
534.50	1576.43
534.86	1592.27
535.21	1607.45
535.57	1623.42
535.93	1638.96
536.29	1653.87
536.65	1669.11
537.00	1684.03
537.36	1699.22
537.72	1713.72
538.08	1727.98
538.44	1741.80
538.79	1755.69
539.15	1769.31
539.51	1783.08
539.87	1797.56
540.22	1811.32
540.58	1825.12
540.94	1838.37
541.29	1851.33
541.65	1863.84
542.01	1877.11
542.37	1889.47
542.72	1901.90
543.08	1913.64
543.44	1926.05
543.79	1937.23
544.15	1948.06
544.51	1959.49
544.87	1970.48
545.22	1981.30
545.58	1991.58
545.94	2001.28
546.29	2011.22
546.65	2021.14
547.01	2030.41
547.36	2039.20
547.72	2047.80
548.07	2055.56
548.43	2063.71
548.79	2071.76
549.14	2079.40
549.50	2086.78
549.86	2094.66
550.21	2101.97
550.57	2109.04
550.92	2115.49
551.28	2122.54
551.64	2129.58
551.99	2136.23
552.35	2142.38
552.70	2148.47
553.06	2154.45
553.41	2160.78
553.77	2166.86
554.13	2172.89
554.48	2179.07
554.84	2184.37
555.19	2189.69
555.55	2194.87
555.90	2199.27
556.26	2204.09
556.61	2208.90
556.97	2213.09
557.32	2217.04
557.68	2221.12
558.03	2225.46
558.39	2229.26
558.74	2233.93
559.10	2237.93
559.45	2241.52
559.81	2245.89
560.16	2249.77
560.52	2253.13
560.87	2256.59
561.23	2259.21
561.58	2262.26
561.94	2264.78
562.29	2267.18
562.64	2269.64
563.00	2272.42
563.35	2276.07
563.71	2279.20
564.06	2282.37
564.42	2285.07
564.77	2287.50
565.12	2289.80
565.48	2291.73
565.83	2293.49
566.19	2294.77
566.54	2295.69
566.89	2296.68
567.25	2297.25
567.60	2298.49
567.96	2300.16
568.31	2300.87
568.66	2301.92
569.02	2302.32
569.37	2302.64
569.72	2303.60
570.08	2303.78
570.43	2303.55
570.78	2303.08
571.14	2301.60
571.49	2300.23
571.84	2300.07
572.20	2298.93
572.55	2297.79
572.90	2296.27
573.26	2294.89
573.61	2293.20
573.96	2291.35
574.31	2288.47
574.67	2285.43
575.02	2281.87
575.37	2278.36
575.72	2274.55
576.08	2271.28
576.43	2268.09
576.78	2264.24
577.13	2261.10
577.49	2258.03
577.84	2254.58
578.19	2250.79
578.54	2247.04
578.90	2242.76
579.25	2237.20
579.60	2232.32
579.95	2227.30
580.30	2222.22
580.66	2216.93
581.01	2211.98
581.36	2207.05
581.71	2202.71
582.06	2198.38
582.42	2193.79
582.77	2188.61
583.12	2184.10
583.47	2179.30
583.82	2174.27
584.17	2168.97
584.53	2163.28
584.88	2157.58
585.23	2151.94
585.58	2146.46
585.93	2141.07
586.28	2136.37
586.63	2131.30
586.98	2126.11
587.34	2121.36
587.69	2116.44
588.04	2111.13
588.39	2105.28
588.74	2098.78
589.09	2092.82
589.44	2085.72
589.79	2079.77
590.14	2074.16
590.49	2067.60
590.84	2061.29
591.19	2055.20
591.54	2048.82
591.89	2041.49
592.25	2034.80
592.60	2027.55
592.95	2019.93
593.30	2012.43
593.65	2004.87
594.00	1997.77
594.35	1990.64
594.70	1982.65
595.05	1975.35
595.40	1968.22
595.75	1960.73
596.10	1954.49
596.45	1947.60
596.80	1941.51
597.15	1934.80
597.50	1927.58
597.85	1921.05
598.19	1914.29
598.54	1907.03
598.89	1900.37
599.24	1894.46
599.59	1887.55
599.94	1881.35
600.29	1874.97
600.64	1868.45
600.99	1860.94
601.34	1854.04
601.69	1847.13
602.04	1840.19
602.39	1832.86
602.74	1826.03
603.08	1819.36
603.43	1812.59
603.78	1805.28
604.13	1798.06
604.48	1790.70
604.83	1783.89
605.18	1776.90
605.53	1768.80
605.87	1760.87
606.22	1753.65
606.57	1745.54
606.92	1738.37
607.27	1731.10
607.62	1724.13
607.96	1716.77
608.31	1710.18
608.66	1702.57
609.01	1694.99
609.36	1687.56
609.70	1679.73
610.05	1671.52
610.40	1663.76
610.75	1655.41
611.10	1647.81
611.44	1639.49
611.79	1631.54
612.14	1622.76
612.49	1613.62
612.83	1605.33
613.18	1597.21
613.53	1589.05
613.88	1580.62
614.22	1572.34
614.57	1563.81
614.92	1555.75
615.27	1548.15
615.61	1539.70
615.96	1531.69
616.31	1524.01
616.65	1516.54
617.00	1508.76
617.35	1501.20
617.70	1492.89
618.04	1484.45
618.39	1476.22
618.74	1468.58
619.08	1460.25
619.43	1452.84
619.78	1445.95
620.12	1438.67
620.47	1431.19
620.82	1423.06
621.16	1415.71
621.51	1408.05
621.85	1400.36
622.20	1391.85
622.55	1383.58
622.89	1375.69
623.24	1368.09
623.59	1360.65
623.93	1353.03
624.28	1345.94
624.62	1338.31
624.97	1331.15
625.32	1324.39
625.66	1317.29
626.01	1309.97
626.35	1302.56
626.70	1294.77
627.04	1286.94
627.39	1279.34
627.73	1271.91
628.08	1264.97
628.43	1257.63
628.77	1250.20
629.12	1242.69
629.46	1235.49
629.81	1228.08
630.15	1220.86
630.50	1213.45
630.84	1205.22
631.19	1197.38
631.53	1189.82
631.88	1182.36
632.22	1174.76
632.57	1167.41
632.91	1159.86
633.26	1152.58
633.60	1145.25
633.95	1138.16
634.29	1131.22
634.64	1124.54
634.98	1117.14
635.32	1110.06
635.67	1103.47
636.01	1096.86
636.36	1090.02
636.70	1083.54
637.05	1076.86
637.39	1070.39
637.73	1063.91
638.08	1057.96
638.42	1051.91
638.77	1045.44
639.11	1038.82
639.45	1032.45
639.80	1025.87
640.14	1019.49
640.49	1012.92
640.83	1006.65
641.17	1000.27
641.52	993.87
641.86	987.38
642.20	981.44
642.55	975.20
642.89	968.68
643.23	962.21
643.58	956.37
643.92	950.14
644.26	944.14
644.61	938.21
644.95	932.12
645.29	925.59
645.64	918.89
645.98	912.53
646.32	906.56
646.66	900.46
647.01	894.63
647.35	889.02
647.69	883.17
648.04	877.60
648.38	871.77
648.72	865.85
649.06	859.75
649.41	854.06
649.75	848.05
650.09	842.12
650.43	836.33
650.78	830.20
651.12	824.25
651.46	818.53
651.80	812.73
652.14	807.38
652.49	802.00
652.83	796.85
653.17	791.14
653.51	785.49
653.85	780.18
654.20	774.49
654.54	768.41
654.88	762.70
655.22	756.84
655.56	751.16
655.90	745.69
656.25	740.41
656.59	735.04
656.93	729.89
657.27	724.77
657.61	719.29
657.95	714.27
658.29	709.24
658.64	703.99
658.98	698.68
659.32	693.17
659.66	687.92
660.00	682.58
660.34	677.71
660.68	672.84
661.02	667.75
661.36	663.01
661.70	658.46
662.05	654.08
662.39	649.78
662.73	645.37
663.07	640.99
663.41	636.54
663.75	632.07
664.09	627.56
664.43	623.15
664.77	619.02
665.11	614.68
665.45	610.51
665.79	606.47
666.13	602.44
666.47	598.37
666.81	594.24
667.15	590.19
667.49	586.25
667.83	582.47
668.17	578.56
668.51	574.55
668.85	570.59
669.19	566.77
669.53	562.91
669.87	559.05
670.21	555.39
670.55	551.81
670.89	548.32
671.23	544.87
671.57	541.30
671.91	537.78
672.25	534.34
672.58	530.87
672.92	527.48
673.26	524.25
673.60	521.10
673.94	518.01
674.28	515.06
674.62	512.13
674.96	509.00
675.30	506.10
675.64	503.16
675.97	500.38
676.31	497.57
676.65	494.61
676.99	491.94
677.33	489.01
677.67	486.16
678.01	483.11
678.34	480.10
678.68	477.28
679.02	474.44
679.36	471.69
679.70	468.96
680.04	466.14
680.37	463.24
680.71	460.44
681.05	457.83
681.39	455.10
681.73	452.48
682.06	449.95
682.40	447.34
682.74	444.81
683.08	442.23
683.42	439.59
683.75	437.10
684.09	434.54
684.43	432.12
684.77	429.69
685.10	427.37
685.44	425.09
685.78	422.76
686.12	420.52
686.45	418.19
686.79	415.86
687.13	413.67
687.46	411.48
687.80	409.36
688.14	407.09
688.48	405.04
688.81	402.74
689.15	400.58
689.49	398.43
689.82	396.40
690.16	394.31
690.50	392.35
690.83	390.40
691.17	388.40
691.51	386.50
691.84	384.65
692.18	382.69
692.52	380.66
692.85	378.71
693.19	376.83
693.52	375.02
693.86	373.24
694.20	371.50
694.53	369.74
694.87	367.85
695.21	366.14
695.54	364.29
695.88	362.60
696.21	360.87
696.55	359.20
696.88	357.49
697.22	355.83
697.56	354.19
697.89	352.52
698.23	350.92
698.56	349.28
698.90	347.65
699.23	345.98
699.57	344.45
699.90	343.00
700.24	341.44
700.58	339.90
700.91	338.37
701.25	336.89
701.58	335.52
701.92	334.18
702.25	332.71
702.59	331.31
702.92	329.99
703.26	328.73
703.59	327.47
703.93	326.28
704.26	325.08
704.60	323.79
704.93	322.54
705.26	321.31
705.60	320.16
705.93	319.00
706.27	318.01
706.60	316.96
706.94	315.87
707.27	314.79
707.61	313.75
707.94	312.73
708.27	311.69
708.61	310.67
708.94	309.71
709.28	308.82
709.61	307.94
709.94	306.96
710.28	305.94
710.61	304.96
710.95	303.87
711.28	302.96
711.61	302.06
711.95	301.15
712.28	300.23
712.61	299.22
712.95	298.35
713.28	297.48
713.61	296.62
713.95	295.73
714.28	294.87
714.61	294.02
714.95	293.20
715.28	292.29
715.61	291.43
715.95	290.58
716.28	289.72
716.61	288.88
716.95	288.10
717.28	287.32
717.61	286.57
717.94	285.85
718.28	285.00
718.61	284.28
718.94	283.61
719.27	282.95
719.61	282.33
719.94	281.62
720.27	280.88
720.60	280.21
720.94	279.57
721.27	278.99
721.60	278.38
721.93	277.77
722.27	277.24
722.60	276.66
722.93	276.08
723.26	275.53
723.59	274.97
723.93	274.44
724.26	273.90
724.59	273.32
724.92	272.80
725.25	272.33
725.59	271.80
725.92	271.25
726.25	270.70
726.58	270.24
726.91	269.73
727.24	269.28
727.57	268.80
727.91	268.30
728.24	267.82
728.57	267.29
728.90	266.83
729.23	266.35
729.56	265.88
729.89	265.39
730.22	264.88
730.55	264.43
730.89	263.97
731.22	263.53
731.55	263.10
731.88	262.66
732.21	262.22
732.54	261.76
732.87	261.36
733.20	260.96
733.53	260.53
733.86	260.17
734.19	259.76
734.52	259.36
734.85	259.05
735.18	258.63
735.51	258.28
735.84	257.90
736.17	257.53
736.50	257.16
736.83	256.96
737.16	256.64
737.49	256.28
737.82	255.90
738.15	255.54
738.48	255.19
738.81	254.87
739.14	254.55
739.47	254.23
739.80	253.92
740.13	253.59
740.46	253.27
740.79	252.96
741.12	252.66
741.45	252.35
741.78	252.01
742.11	251.74
742.44	251.44
742.77	251.15
743.10	250.88
743.43	250.60
743.75	250.21
744.08	250.08
744.41	249.83
744.74	249.57
745.07	249.32
745.40	249.09
745.73	248.84
746.06	248.58
746.39	248.32
746.71	248.05
747.04	247.80
747.37	247.53
747.70	247.28
748.03	247.01
748.36	246.80
748.68	246.57
749.01	246.29
749.34	246.06
749.67	245.84
750.00	245.60
750.33	245.43
750.65	245.19
750.98	244.83
751.31	244.61
751.64	244.42
751.97	244.27
752.29	244.04
752.62	243.81
752.95	243.58
753.28	243.39
753.60	243.20
753.93	243.05
754.26	242.88
754.59	242.66
754.91	242.47
755.24	242.29
755.57	242.09
755.90	241.92
756.22	241.73
756.55	241.53
756.88	241.34
757.20	241.10
757.53	240.92
757.86	240.76
758.19	240.65
758.51	240.47
758.84	240.23
759.17	240.08
759.49	239.93
759.82	239.84
760.15	239.68
760.47	239.52
760.80	239.35
761.13	239.21
761.45	239.04
761.78	238.90
762.11	238.73
762.43	238.60
762.76	238.47
763.08	238.34
763.41	238.25
763.74	238.11
764.06	237.96
764.39	237.85
764.71	237.70
765.04	237.53
765.37	237.40
765.69	237.28
766.02	237.12
766.34	236.97
766.67	236.81
767.00	236.72
767.32	236.66
767.65	236.58
767.97	236.45
768.30	236.40
768.62	236.26
768.95	236.15
769.27	236.02
769.60	235.93
769.92	235.83
770.25	235.67
770.57	235.55
770.90	235.44
771.22	235.33
771.55	235.23
771.87	235.13
772.20	235.05
772.52	235.06
772.85	235.10
773.17	235.03
773.50	234.92
773.82	234.83
774.15	234.68
774.47	234.53
774.80	234.43
775.12	234.28
775.45	234.21
775.77	234.09
776.09	234.02
776.42	233.94
776.74	233.87
777.07	233.79
777.39	233.72
777.72	233.64
778.04	233.56
778.36	233.49
778.69	233.43
779.01	233.38
779.33	233.20
779.66	233.03
779.98	232.96
780.31	232.90
780.63	232.86
780.95	232.80
781.28	232.75
781.60	232.66
781.92	232.58
782.25	232.55
782.57	232.53
782.89	232.44
783.22	232.35
783.54	232.27
783.86	232.23
784.19	232.16
784.51	232.12
784.83	232.07
785.16	232.04
785.48	232.00
785.80	231.93
786.12	231.89
786.45	231.82
786.77	231.77
787.09	231.74
787.42	231.67
787.74	231.61
788.06	231.58
788.38	231.57
788.71	231.57
789.03	231.52
789.35	231.51
789.67	231.45
789.99	231.42
790.32	231.39
790.64	231.34
790.96	231.41
791.28	231.36
791.61	231.31
791.93	231.24
792.25	231.17
792.57	231.20
792.89	231.15
793.21	231.15
793.54	231.09
793.86	231.02
794.18	230.96
794.50	230.95
794.82	230.94
795.14	230.89
795.47	230.88
795.79	230.83
796.11	230.74
796.43	230.71
796.75	230.71
797.07	230.70
797.39	230.70
797.71	230.57
798.04	230.52
798.36	230.51
798.68	230.51
799.00	230.50
799.32	230.41
799.64	230.41
799.96	230.34
800.28	230.32
800.60	230.31
800.92	230.32
801.24	230.27
801.56	230.22
801.89	230.18
802.21	230.17
802.53	230.15
802.85	230.18
803.17	230.20
803.49	230.17
803.81	230.13
804.13	230.11
804.45	230.11
804.77	230.11
805.09	230.08
805.41	230.02
805.73	229.98
806.05	229.94
806.37	229.89
806.69	229.88
807.01	229.87
807.33	229.83
807.65	229.74
807.97	229.78
808.28	229.75
808.60	229.75
808.92	229.67
809.24	229.70
809.56	229.63
809.88	229.59
810.20	229.54
810.52	229.56
810.84	229.47
811.16	229.42
811.48	229.39
811.80	229.38
812.12	229.38
812.43	229.36
812.75	229.37
813.07	229.36
813.39	229.36
813.71	229.31
814.03	229.28
814.35	229.29
814.67	229.21
814.98	229.13
815.30	229.08
815.62	229.06
815.94	228.96
816.26	229.00
816.58	228.95
816.89	228.94
817.21	228.86
817.53	228.86
817.85	228.85
818.17	228.82
818.48	228.79
818.80	228.79
819.12	228.76
819.44	228.69
819.76	228.63
820.07	228.59
820.39	228.57
820.71	228.56
821.03	228.52
821.34	228.51
821.66	228.56
821.98	228.53
822.30	228.52
822.61	228.57
822.93	228.49
823.25	228.47
823.57	228.44
823.88	228.45
824.20	228.41
824.52	228.40
824.83	228.34
825.15	228.32
825.47	228.29
825.79	228.28
826.10	228.26
826.42	228.25
826.74	228.24
827.05	228.21
827.37	228.23
827.69	228.21
828.00	228.20
828.32	228.16
828.64	228.15
828.95	228.20
829.27	228.17
829.58	228.16
829.90	228.15
830.22	228.16
830.53	228.11
830.85	228.12
831.17	228.10
831.48	228.10
831.80	228.07
832.11	228.05
832.43	228.01
832.75	228.02
833.06	228.06
833.38	228.07
833.69	228.06
834.01	228.01
834.32	227.97
834.64	227.96
834.96	227.95
835.27	227.97
835.59	227.91
835.90	227.86
836.22	227.83
836.53	227.81
836.85	227.77
837.16	227.89
837.48	227.88
837.79	227.91
838.11	227.92
838.42	227.90
838.74	227.90
839.05	227.91
839.37	227.88
839.68	227.83
840.00	227.77
840.31	227.80
840.63	227.81
840.94	227.85
841.26	227.83
841.57	227.82
841.88	227.79
842.20	227.77
842.51	227.75
842.83	227.75
843.14	227.84
843.46	227.86
843.77	227.79
844.08	227.77
844.40	227.75
844.71	227.75
845.03	227.73
845.34	227.74
845.65	227.72
845.97	227.73
846.28	227.73
846.60	227.76
846.91	227.74
847.22	227.74
847.54	227.76
847.85	227.75
848.16	227.73
848.48	227.74
848.79	227.79
849.10	227.82
849.42	227.83
849.73	227.73
850.04	227.73
850.36	227.69
850.67	227.71
850.98	227.67
851.30	227.67
851.61	227.67
851.92	227.64
852.23	227.68
852.55	227.69
852.86	227.70
853.17	227.71
853.49	227.71
853.80	227.71
854.11	227.72
854.42	227.73
854.74	227.74
855.05	227.74
855.36	227.68
855.67	227.69
855.99	227.72
856.30	227.81
856.61	227.81
856.92	227.81
857.23	227.82
857.55	227.82
857.86	227.83
858.17	227.87
858.48	227.85
858.79	227.80
859.11	227.82
859.42	227.80
859.73	227.80
860.04	227.82
860.35	227.79
860.66	227.74
860.98	227.74
861.29	227.74
861.60	227.71
861.91	227.74
862.22	227.71
862.53	227.67
862.84	227.58
863.16	227.58
863.47	227.55
863.78	227.55
864.09	227.58
864.40	227.56
864.71	227.53
865.02	227.54
865.33	227.56
865.64	227.55
865.95	227.54
866.27	227.59
866.58	227.55
866.89	227.58
867.20	227.57
867.51	227.54
867.82	227.54
868.13	227.58
868.44	227.55
868.75	227.56
869.06	227.54
869.37	227.54
869.68	227.50
869.99	227.54
870.30	227.51
870.61	227.49
870.92	227.44
871.23	227.43
871.54	227.44
871.85	227.42
872.16	227.42
872.47	227.39
872.78	227.32
873.09	227.34
873.40	227.31
873.71	227.31
874.02	227.33
874.33	227.30
874.64	227.24
874.95	227.30
875.26	227.27
875.56	227.27
875.87	227.24
876.18	227.22
876.49	227.27
876.80	227.26
877.11	227.21
877.42	227.24
877.73	227.26
878.04	227.24
878.35	227.25
878.66	227.23
878.96	227.26
879.27	227.23
879.58	227.22
879.89	227.22
880.20	227.24
880.51	227.23
880.82	227.28
881.12	227.30
881.43	227.27
881.74	227.25
882.05	227.26
882.36	227.29
882.67	227.32
882.97	227.24
883.28	227.25
883.59	227.29
883.90	227.27
884.21	227.25
884.51	227.26
884.82	227.25
885.13	227.26
885.44	227.22
885.74	227.26
886.05	227.23
886.36	227.22
886.67	227.17
886.98	227.22
887.28	227.19
887.59	227.19
887.90	227.18
888.20	227.21
888.51	227.22
888.82	227.20
889.13	227.21
889.43	227.28
889.74	227.28
890.05	227.26
890.35	227.25
890.66	227.26
890.97	227.26
891.28	227.24
891.58	227.24
891.89	227.27
892.20	227.22
892.50	227.22
892.81	227.24
893.12	227.24
893.42	227.20
893.73	227.21
894.04	227.21
894.34	227.21
894.65	227.19
894.95	227.20
895.26	227.23
895.57	227.28
895.87	227.17
896.18	227.16
896.48	227.18
896.79	227.19
897.10	227.22
897.40	227.22
897.71	227.26
898.01	227.26
898.32	227.25
898.63	227.25
898.93	227.24
899.24	227.23
899.54	227.25
899.85	227.24
900.15	227.24
900.46	227.24
900.76	227.24
901.07	227.24
901.38	227.22
901.68	227.22
901.99	227.17
902.29	227.21
902.60	227.22
902.90	227.21
903.21	227.21
903.51	227.17
903.82	227.21
904.12	227.17
904.43	227.15
904.73	227.19
905.03	227.20
905.34	227.31
905.64	227.31
905.95	227.33
906.25	227.34
906.56	227.31
906.86	227.29
907.17	227.30
907.47	227.30
907.77	227.30
908.08	227.28
908.38	227.27
908.69	227.27
908.99	227.29
909.30	227.30
909.60	227.32
909.90	227.34
910.21	227.26
910.51	227.26
910.81	227.28
911.12	227.25
911.42	227.27
911.73	227.17
912.03	227.19
912.33	227.15
912.64	227.12
912.94	227.12
913.24	227.12
913.55	227.11
913.85	227.11
914.15	227.12
914.46	227.08
914.76	227.07
915.06	227.04
915.37	227.02
915.67	227.02
915.97	227.02
916.27	226.98
916.58	226.99
916.88	227.00
917.18	226.98
917.49	227.04
917.79	227.04
918.09	227.03
918.39	227.04
918.70	227.06
919.00	227.07
919.30	227.10
919.60	227.07
919.91	227.04
920.21	227.02
920.51	227.01
920.81	227.01
921.12	227.03
921.42	227.04
921.72	227.02
922.02	227.02
922.32	226.97
922.63	226.96
922.93	227.02
923.23	227.01
923.53	226.98
923.83	226.88
924.13	226.87
924.44	226.88
924.74	226.88
925.04	226.91
925.34	226.89
925.64	226.85
925.94	226.87
926.24	226.94
926.55	226.92
926.85	226.92
927.15	226.94
927.45	226.91
927.75	226.91
928.05	226.95
928.35	226.94
928.65	227.00
928.95	227.03
929.26	227.01
929.56	227.02
929.86	227.04
930.16	227.05
930.46	227.08
930.76	227.09
931.06	227.04
931.36	227.00
931.66	227.04
931.96	227.09
932.26	227.09
932.56	227.06
932.86	227.08
933.16	227.12
933.46	227.11
933.76	227.12
934.06	227.14
934.36	227.16
934.66	227.18
934.96	227.14
935.26	227.14
935.56	227.14
935.86	227.16
936.16	227.16
936.46	227.15
936.76	227.13
937.06	227.10
937.36	227.11
937.66	227.10
937.96	227.09
938.26	227.05
938.56	227.04
938.86	227.04
939.16	227.06
939.46	227.04
939.76	227.06
940.06	227.07
940.35	227.03
940.65	226.98
940.95	226.98
941.25	226.98
941.55	226.96
941.85	226.93
942.15	226.91
942.45	226.90
942.75	226.91
943.04	226.90
943.34	226.92
943.64	226.91
943.94	226.90
944.24	226.89
944.54	226.89
944.84	226.88
945.13	226.87
945.43	226.85
945.73	226.86
946.03	226.86
946.33	226.85
946.62	226.85
946.92	226.87
947.22	226.85
947.52	226.88
947.82	226.88
948.11	226.90
948.41	226.91
948.71	226.88
949.01	226.90
949.31	226.90
949.60	226.89
949.90	226.90
950.20	226.89
950.50	226.90
950.79	226.90
951.09	226.94
951.39	226.94
951.69	226.94
951.98	226.91
952.28	226.92
952.58	226.92
952.87	226.94
953.17	226.98
953.47	226.97
953.76	226.95
954.06	226.95
954.36	226.95
954.66	226.95
954.95	227.02
955.25	227.03
955.55	227.05
955.84	227.03
956.14	227.05
956.44	227.08
956.73	227.08
957.03	227.08
957.32	227.06
957.62	227.03
957.92	227.08
958.21	227.09
958.51	227.17
958.81	227.20
959.10	227.19
959.40	227.16
959.69	227.18
959.99	227.19
960.29	227.22
960.58	227.21
960.88	227.24
961.17	227.23
961.47	227.21
961.76	227.21
962.06	227.26
962.36	227.27
962.65	227.29
962.95	227.29
963.24	227.29
963.54	227.31
963.83	227.35
964.13	227.32
964.42	227.31
964.72	227.24
965.01	227.22
965.31	227.21
965.60	227.20
965.90	227.26
966.19	227.23
966.49	227.23
966.78	227.24
967.08	227.23
967.37	227.20
967.67	227.20
967.96	227.20
968.26	227.18
968.55	227.17
968.85	227.14
969.14	227.12
969.43	227.11
969.73	227.07
970.02	227.06
970.32	227.03
970.61	227.05
970.91	227.03
971.20	227.03
971.49	227.02
971.79	227.04
972.08	226.97
972.38	226.95
972.67	226.94
972.96	226.93
973.26	226.89
973.55	226.91
973.85	226.90
974.14	226.90
974.43	226.92
974.73	226.90
975.02	226.90
975.31	226.92
975.61	226.95
975.90	226.95
976.19	226.91
976.49	226.91
976.78	226.91
977.07	226.91
977.37	226.88
977.66	226.91
977.95	226.88
978.24	226.88
978.54	226.91
978.83	226.90
979.12	226.93
979.42	226.94
979.71	226.93
980.00	226.93
980.29	226.91
980.59	226.90
980.88	226.95
981.17	226.94
981.46	226.92
981.76	226.91
982.05	226.92
982.34	226.95
982.63	226.94
982.93	226.93
983.22	226.93
983.51	226.94
983.80	226.90
984.09	226.92
984.39	226.94
984.68	226.92
984.97	226.93
985.26	226.88
985.55	226.87
985.85	226.87
986.14	226.86
986.43	226.90
986.72	226.85
987.01	226.79
987.30	226.81
987.59	226.80
987.89	226.80
988.18	226.79
988.47	226.78
988.76	226.77
989.05	226.76
989.34	226.75
989.63	226.76
989.92	226.75
990.22	226.72
990.51	226.71
990.80	226.71
991.09	226.70
991.38	226.74
991.67	226.74
991.96	226.70
992.25	226.72
992.54	226.70
992.83	226.73
993.12	226.69
993.41	226.69
993.70	226.74
993.99	226.73
994.28	226.73
994.58	226.72
994.87	226.71
995.16	226.68
995.45	226.66
995.74	226.66
996.03	226.67
996.32	226.69
996.61	226.70
996.90	226.68
997.19	226.69
997.48	226.64
997.77	226.64
998.06	226.64
998.34	226.63
998.63	226.62
998.92	226.65
999.21	226.67
999.50	226.67
999.79	226.64
1000.08	226.67
1000.37	226.67
1000.66	226.67
1000.95	226.70
1001.24	226.75
1001.53	226.81
1001.82	226.80
1002.11	226.78
1002.40	226.78
1002.68	226.80
1002.97	226.87
1003.26	226.88
1003.55	226.91
1003.84	226.91
1004.13	226.92
1004.42	226.94
1004.71	226.94
1004.99	226.90
1005.28	226.96
1005.57	226.98
1005.86	226.96
1006.15	226.93
1006.44	226.93
1006.72	226.96
1007.01	226.93
1007.30	226.92
1007.59	226.89
1007.88	226.86
1008.17	226.88
1008.45	226.86
1008.74	226.84
1009.03	226.84
1009.32	226.81
1009.60	226.81
1009.89	226.79
1010.18	226.79
1010.47	226.78
1010.76	226.76
1011.04	226.75
1011.33	226.74
1011.62	226.72
1011.91	226.73
1012.19	226.76
1012.48	226.74
1012.77	226.75
1013.05	226.78
1013.34	226.79
1013.63	226.82
1013.92	226.83
1014.20	226.81
1014.49	226.83
1014.78	226.82
1015.06	226.79
1015.35	226.80
1015.64	226.79
1015.92	226.82
1016.21	226.82
1016.50	226.83
1016.78	226.86
1017.07	226.86
1017.36	226.81
1017.64	226.80
1017.93	226.81
1018.22	226.80
1018.50	226.83
1018.79	226.81
1019.08	226.77
1019.36	226.78
1019.65	226.71
1019.93	226.75
1020.22	226.76
1020.51	226.83
1020.79	226.81
1021.08	226.81
1021.36	226.75
1021.65	226.88
1021.94	226.51
1022.22	227.02
1022.51	225.81
1022.79	227.24
1023.08	226.77
1023.36	228.35
1023.65	226.38
>>>>>End Processed Spectral Data<<<<<
