SpectraSuite Data File
++++++++++++++++++++++++++++++++++++
Date: Fri Feb 01 15:31:13 EST 2013
User: group
Dark Spectrum Present: No
Reference Spectrum Present: No
Number of Sampled Component Spectra: 1
Spectrometers: USB2E7196
Integration Time (usec): 35000 (USB2E7196)
Spectra Averaged: 100 (USB2E7196)
Boxcar Smoothing: 10 (USB2E7196)
Correct for Electrical Dark: No (USB2E7196)
Strobe/Lamp Enabled: No (USB2E7196)
Correct for Detector Non-linearity: No (USB2E7196)
Correct for Stray Light: No (USB2E7196)
Number of Pixels in Processed Spectrum: 2048
>>>>>Begin Processed Spectral Data<<<<<
339.09	0.00
339.48	215.19
339.86	216.57
340.24	218.22
340.63	218.78
341.01	221.76
341.39	221.83
341.78	223.76
342.16	225.28
342.54	224.95
342.93	213.42
343.31	224.16
343.69	224.70
344.07	225.17
344.46	225.57
344.84	225.96
345.22	226.21
345.60	226.45
345.99	226.59
346.37	226.69
346.75	226.77
347.13	226.81
347.52	226.83
347.90	226.82
348.28	226.80
348.66	226.86
349.05	226.82
349.43	226.86
349.81	226.91
350.19	226.99
350.57	227.01
350.96	227.08
351.34	227.19
351.72	227.22
352.10	227.30
352.48	227.35
352.87	227.41
353.25	227.47
353.63	227.54
354.01	227.63
354.39	227.66
354.77	227.76
355.15	227.88
355.54	227.92
355.92	227.98
356.30	228.09
356.68	228.21
357.06	228.29
357.44	228.34
357.82	228.39
358.20	228.47
358.58	228.56
358.97	228.63
359.35	228.71
359.73	228.81
360.11	228.85
360.49	228.91
360.87	228.94
361.25	229.01
361.63	229.07
362.01	229.12
362.39	229.17
362.77	229.20
363.15	229.21
363.53	229.26
363.91	229.28
364.29	229.27
364.67	229.21
365.05	229.24
365.43	229.22
365.81	229.27
366.19	229.28
366.57	229.31
366.95	229.30
367.33	229.28
367.71	229.28
368.09	229.31
368.47	229.31
368.85	229.31
369.23	229.30
369.61	229.28
369.99	229.28
370.37	229.24
370.75	229.24
371.13	229.18
371.51	229.16
371.89	229.13
372.27	229.12
372.65	229.08
373.03	229.02
373.41	228.98
373.78	228.89
374.16	228.83
374.54	228.74
374.92	228.70
375.30	228.65
375.68	228.57
376.06	228.51
376.44	228.43
376.82	228.36
377.19	228.29
377.57	228.21
377.95	228.11
378.33	228.07
378.71	227.97
379.09	227.94
379.47	227.84
379.84	227.75
380.22	227.69
380.60	227.61
380.98	227.53
381.36	227.48
381.73	227.42
382.11	227.35
382.49	227.30
382.87	227.22
383.25	227.17
383.62	227.25
384.00	227.18
384.38	227.12
384.76	227.08
385.13	227.06
385.51	227.04
385.89	226.99
386.27	226.92
386.64	226.91
387.02	226.84
387.40	226.81
387.78	226.79
388.15	226.74
388.53	226.70
388.91	226.68
389.29	226.63
389.66	226.63
390.04	226.61
390.42	226.60
390.79	226.59
391.17	226.55
391.55	226.41
391.92	226.41
392.30	226.42
392.68	226.40
393.05	226.39
393.43	226.33
393.81	226.36
394.18	226.36
394.56	226.35
394.94	226.40
395.31	226.41
395.69	226.46
396.06	226.49
396.44	226.55
396.82	226.58
397.19	226.68
397.57	226.71
397.95	226.74
398.32	226.78
398.70	226.85
399.07	226.92
399.45	226.94
399.82	227.01
400.20	227.08
400.58	227.17
400.95	227.17
401.33	227.29
401.70	227.42
402.08	227.52
402.45	227.59
402.83	227.70
403.20	227.82
403.58	227.93
403.95	228.07
404.33	228.21
404.71	228.35
405.08	228.52
405.46	228.66
405.83	228.82
406.21	228.98
406.58	229.16
406.96	229.32
407.33	229.54
407.70	229.74
408.08	229.99
408.45	230.19
408.83	230.46
409.20	230.65
409.58	230.85
409.95	231.10
410.33	231.38
410.70	231.64
411.08	231.95
411.45	232.26
411.82	232.55
412.20	232.92
412.57	233.32
412.95	233.62
413.32	234.01
413.69	234.41
414.07	234.84
414.44	235.30
414.82	235.78
415.19	236.35
415.56	236.90
415.94	237.45
416.31	238.08
416.68	238.71
417.06	239.47
417.43	240.16
417.81	240.94
418.18	241.73
418.55	242.54
418.93	243.41
419.30	244.30
419.67	245.27
420.04	246.18
420.42	247.16
420.79	248.35
421.16	249.48
421.54	250.68
421.91	251.86
422.28	253.10
422.66	254.44
423.03	255.71
423.40	257.04
423.77	258.49
424.15	259.91
424.52	261.39
424.89	262.98
425.26	264.51
425.64	265.96
426.01	267.56
426.38	269.22
426.75	270.91
427.13	272.65
427.50	274.46
427.87	276.36
428.24	278.25
428.61	280.01
428.99	281.98
429.36	284.07
429.73	286.15
430.10	288.19
430.47	290.27
430.85	292.43
431.22	294.64
431.59	297.01
431.96	299.27
432.33	301.80
432.70	304.17
433.08	307.01
433.45	309.66
433.82	312.34
434.19	315.27
434.56	318.09
434.93	320.76
435.30	323.37
435.68	326.29
436.05	329.10
436.42	331.91
436.79	334.47
437.16	337.21
437.53	340.07
437.90	342.87
438.27	345.58
438.64	348.40
439.01	350.99
439.38	353.25
439.75	355.44
440.13	357.95
440.50	360.28
440.87	362.12
441.24	364.05
441.61	366.16
441.98	367.63
442.35	369.42
442.72	371.29
443.09	373.11
443.46	374.13
443.83	374.72
444.20	375.21
444.57	376.03
444.94	376.32
445.31	376.62
445.68	376.99
446.05	377.11
446.42	376.71
446.79	376.29
447.16	375.82
447.53	375.50
447.90	374.32
448.27	373.16
448.64	371.57
449.01	370.44
449.37	368.49
449.74	366.58
450.11	364.31
450.48	361.80
450.85	359.26
451.22	357.06
451.59	355.06
451.96	353.10
452.33	350.45
452.70	348.09
453.07	345.27
453.43	342.31
453.80	339.51
454.17	336.83
454.54	334.30
454.91	331.53
455.28	328.85
455.65	326.32
456.02	323.89
456.38	321.73
456.75	319.05
457.12	316.77
457.49	314.55
457.86	312.37
458.23	310.49
458.59	308.42
458.96	306.32
459.33	304.44
459.70	302.57
460.07	301.06
460.43	299.34
460.80	297.74
461.17	296.35
461.54	294.87
461.91	293.42
462.27	291.98
462.64	290.79
463.01	289.42
463.38	288.14
463.74	286.76
464.11	285.60
464.48	284.55
464.85	283.44
465.21	282.58
465.58	281.67
465.95	280.57
466.32	279.63
466.68	278.74
467.05	277.84
467.42	276.96
467.78	276.06
468.15	275.16
468.52	274.47
468.88	273.62
469.25	272.83
469.62	272.23
469.98	271.55
470.35	270.87
470.72	270.25
471.08	269.57
471.45	269.04
471.82	268.50
472.18	267.92
472.55	267.46
472.92	266.94
473.28	266.45
473.65	266.01
474.02	265.61
474.38	265.25
474.75	264.91
475.11	264.53
475.48	264.25
475.85	264.05
476.21	263.82
476.58	263.63
476.94	263.48
477.31	263.26
477.67	263.11
478.04	263.02
478.41	263.00
478.77	263.07
479.14	263.01
479.50	262.99
479.87	263.08
480.23	263.20
480.60	263.27
480.96	263.38
481.33	263.59
481.69	263.79
482.06	263.96
482.42	264.16
482.79	264.46
483.15	264.79
483.52	265.16
483.88	265.49
484.25	265.88
484.61	266.30
484.98	266.75
485.34	267.27
485.71	267.84
486.07	268.46
486.44	269.02
486.80	269.71
487.17	270.47
487.53	271.26
487.90	272.08
488.26	272.97
488.62	273.96
488.99	274.94
489.35	275.98
489.72	277.14
490.08	278.33
490.44	279.57
490.81	280.86
491.17	282.20
491.54	283.68
491.90	285.19
492.26	286.80
492.63	288.59
492.99	290.40
493.36	292.29
493.72	294.28
494.08	296.38
494.45	298.62
494.81	301.01
495.17	303.43
495.54	306.01
495.90	308.69
496.26	311.47
496.63	314.42
496.99	317.50
497.35	320.74
497.72	324.19
498.08	327.68
498.44	331.36
498.80	335.27
499.17	339.30
499.53	343.48
499.89	347.91
500.26	352.34
500.62	357.00
500.98	361.96
501.34	367.05
501.71	372.37
502.07	377.83
502.43	383.41
502.79	389.21
503.16	395.24
503.52	401.48
503.88	407.95
504.24	414.54
504.60	421.39
504.97	428.53
505.33	435.86
505.69	443.55
506.05	451.37
506.41	459.24
506.78	467.39
507.14	475.79
507.50	484.51
507.86	493.56
508.22	502.79
508.59	512.08
508.95	521.66
509.31	531.49
509.67	541.53
510.03	551.85
510.39	562.42
510.75	573.28
511.12	584.17
511.48	595.43
511.84	606.89
512.20	618.45
512.56	630.45
512.92	642.65
513.28	654.93
513.64	667.31
514.00	680.12
514.37	693.07
514.73	706.22
515.09	719.30
515.45	732.65
515.81	746.25
516.17	760.21
516.53	774.29
516.89	788.44
517.25	802.68
517.61	817.06
517.97	831.50
518.33	845.95
518.69	860.87
519.05	875.95
519.41	891.18
519.77	906.73
520.13	922.13
520.49	937.54
520.85	953.09
521.21	968.87
521.57	985.07
521.93	1000.94
522.29	1017.35
522.65	1033.63
523.01	1049.98
523.37	1065.99
523.73	1082.19
524.09	1098.38
524.45	1114.89
524.81	1131.54
525.17	1148.51
525.53	1165.62
525.89	1182.58
526.25	1199.45
526.61	1215.84
526.97	1232.62
527.33	1249.10
527.68	1265.81
528.04	1282.31
528.40	1299.04
528.76	1316.26
529.12	1332.87
529.48	1349.74
529.84	1365.83
530.20	1382.47
530.56	1399.42
530.91	1417.00
531.27	1433.87
531.63	1450.36
531.99	1466.92
532.35	1483.01
532.71	1498.93
533.07	1515.09
533.42	1530.99
533.78	1546.97
534.14	1563.32
534.50	1578.69
534.86	1594.76
535.21	1609.90
535.57	1625.96
535.93	1641.46
536.29	1656.21
536.65	1671.53
537.00	1686.40
537.36	1701.73
537.72	1716.25
538.08	1730.77
538.44	1744.47
538.79	1758.42
539.15	1772.19
539.51	1785.96
539.87	1800.32
540.22	1814.15
540.58	1828.07
540.94	1841.42
541.29	1854.45
541.65	1867.24
542.01	1880.66
542.37	1893.00
542.72	1905.53
543.08	1917.19
543.44	1929.52
543.79	1940.78
544.15	1951.58
544.51	1963.24
544.87	1974.22
545.22	1985.09
545.58	1995.20
545.94	2005.09
546.29	2014.86
546.65	2024.65
547.01	2034.04
547.36	2042.83
547.72	2051.23
548.07	2059.15
548.43	2067.39
548.79	2075.40
549.14	2082.86
549.50	2090.00
549.86	2097.73
550.21	2105.09
550.57	2112.34
550.92	2118.96
551.28	2126.16
551.64	2133.39
551.99	2139.71
552.35	2145.97
552.70	2152.19
553.06	2158.20
553.41	2164.63
553.77	2170.79
554.13	2177.03
554.48	2183.07
554.84	2188.49
555.19	2193.95
555.55	2198.98
555.90	2203.52
556.26	2208.50
556.61	2213.19
556.97	2217.46
557.32	2221.53
557.68	2225.77
558.03	2230.05
558.39	2233.85
558.74	2238.33
559.10	2242.08
559.45	2245.94
559.81	2250.29
560.16	2254.12
560.52	2257.36
560.87	2260.66
561.23	2263.15
561.58	2266.04
561.94	2268.56
562.29	2270.98
562.64	2273.60
563.00	2276.34
563.35	2279.87
563.71	2283.05
564.06	2286.29
564.42	2289.27
564.77	2291.75
565.12	2293.81
565.48	2295.71
565.83	2297.55
566.19	2298.86
566.54	2299.92
566.89	2300.89
567.25	2301.36
567.60	2302.75
567.96	2304.55
568.31	2305.52
568.66	2306.71
569.02	2307.25
569.37	2307.49
569.72	2308.32
570.08	2308.34
570.43	2308.19
570.78	2307.47
571.14	2305.88
571.49	2304.50
571.84	2304.05
572.20	2302.81
572.55	2301.81
572.90	2300.19
573.26	2298.79
573.61	2297.14
573.96	2295.25
574.31	2292.29
574.67	2289.24
575.02	2285.42
575.37	2281.76
575.72	2277.68
576.08	2274.23
576.43	2270.89
576.78	2267.14
577.13	2263.87
577.49	2260.83
577.84	2257.22
578.19	2253.38
578.54	2249.62
578.90	2245.43
579.25	2239.86
579.60	2234.86
579.95	2229.78
580.30	2224.73
580.66	2219.42
581.01	2214.29
581.36	2209.24
581.71	2205.05
582.06	2200.45
582.42	2195.91
582.77	2190.82
583.12	2186.22
583.47	2181.45
583.82	2176.22
584.17	2170.94
584.53	2165.36
584.88	2159.60
585.23	2153.77
585.58	2148.23
585.93	2142.63
586.28	2137.66
586.63	2132.47
586.98	2127.43
587.34	2122.64
587.69	2117.61
588.04	2112.31
588.39	2106.54
588.74	2099.94
589.09	2093.65
589.44	2086.77
589.79	2080.78
590.14	2075.08
590.49	2068.56
590.84	2062.16
591.19	2056.17
591.54	2049.63
591.89	2042.21
592.25	2035.34
592.60	2028.17
592.95	2020.59
593.30	2013.20
593.65	2005.64
594.00	1998.69
594.35	1991.41
594.70	1983.45
595.05	1976.32
595.40	1968.95
595.75	1961.33
596.10	1955.02
596.45	1948.22
596.80	1942.03
597.15	1935.28
597.50	1928.10
597.85	1921.51
598.19	1914.73
598.54	1907.67
598.89	1901.11
599.24	1895.07
599.59	1888.24
599.94	1882.02
600.29	1875.65
600.64	1869.07
600.99	1861.40
601.34	1854.39
601.69	1847.31
602.04	1840.17
602.39	1832.75
602.74	1825.91
603.08	1819.32
603.43	1812.72
603.78	1805.47
604.13	1798.30
604.48	1790.96
604.83	1784.18
605.18	1777.12
605.53	1769.15
605.87	1760.97
606.22	1753.61
606.57	1745.73
606.92	1738.47
607.27	1731.16
607.62	1724.15
607.96	1716.87
608.31	1710.30
608.66	1702.70
609.01	1695.13
609.36	1687.68
609.70	1679.58
610.05	1671.33
610.40	1663.60
610.75	1655.16
611.10	1647.47
611.44	1639.11
611.79	1631.26
612.14	1622.50
612.49	1613.46
612.83	1605.02
613.18	1596.92
613.53	1588.83
613.88	1580.32
614.22	1571.95
614.57	1563.41
614.92	1555.34
615.27	1547.64
615.61	1539.33
615.96	1531.38
616.31	1523.85
616.65	1516.37
617.00	1508.84
617.35	1501.40
617.70	1492.96
618.04	1484.43
618.39	1476.13
618.74	1468.42
619.08	1459.96
619.43	1452.31
619.78	1445.35
620.12	1438.11
620.47	1430.67
620.82	1422.50
621.16	1415.06
621.51	1407.62
621.85	1400.01
622.20	1391.51
622.55	1383.19
622.89	1375.45
623.24	1367.79
623.59	1360.29
623.93	1352.87
624.28	1345.68
624.62	1338.06
624.97	1330.90
625.32	1324.17
625.66	1317.15
626.01	1309.96
626.35	1302.47
626.70	1294.76
627.04	1287.06
627.39	1279.28
627.73	1271.80
628.08	1264.84
628.43	1257.50
628.77	1250.09
629.12	1242.37
629.46	1235.18
629.81	1227.77
630.15	1220.44
630.50	1212.97
630.84	1204.73
631.19	1196.82
631.53	1189.26
631.88	1181.66
632.22	1174.14
632.57	1166.90
632.91	1159.34
633.26	1151.94
633.60	1144.70
633.95	1137.57
634.29	1130.47
634.64	1123.85
634.98	1116.55
635.32	1109.43
635.67	1102.83
636.01	1096.11
636.36	1089.36
636.70	1082.91
637.05	1076.36
637.39	1069.86
637.73	1063.38
638.08	1057.61
638.42	1051.55
638.77	1045.11
639.11	1038.49
639.45	1032.15
639.80	1025.43
640.14	1018.96
640.49	1012.43
640.83	1006.16
641.17	999.82
641.52	993.54
641.86	987.16
642.20	981.25
642.55	974.90
642.89	968.46
643.23	961.89
643.58	956.07
643.92	949.85
644.26	943.81
644.61	937.82
644.95	931.80
645.29	925.12
645.64	918.40
645.98	912.10
646.32	906.39
646.66	900.29
647.01	894.52
647.35	888.83
647.69	882.98
648.04	877.35
648.38	871.59
648.72	865.59
649.06	859.50
649.41	853.62
649.75	847.71
650.09	841.70
650.43	835.90
650.78	829.84
651.12	823.88
651.46	818.12
651.80	812.35
652.14	807.01
652.49	801.67
652.83	796.52
653.17	790.80
653.51	785.04
653.85	779.65
654.20	774.00
654.54	768.08
654.88	762.40
655.22	756.53
655.56	750.93
655.90	745.49
656.25	740.24
656.59	734.92
656.93	729.73
657.27	724.55
657.61	719.16
657.95	714.04
658.29	708.96
658.64	703.80
658.98	698.58
659.32	693.04
659.66	687.79
660.00	682.41
660.34	677.57
660.68	672.66
661.02	667.64
661.36	662.94
661.70	658.47
662.05	654.09
662.39	649.76
662.73	645.26
663.07	640.91
663.41	636.52
663.75	631.98
664.09	627.50
664.43	623.19
664.77	619.13
665.11	614.86
665.45	610.72
665.79	606.56
666.13	602.43
666.47	598.40
666.81	594.31
667.15	590.27
667.49	586.28
667.83	582.51
668.17	578.54
668.51	574.41
668.85	570.37
669.19	566.55
669.53	562.69
669.87	558.81
670.21	555.06
670.55	551.30
670.89	547.87
671.23	544.41
671.57	540.93
671.91	537.36
672.25	533.93
672.58	530.47
672.92	527.11
673.26	523.92
673.60	520.74
673.94	517.62
674.28	514.71
674.62	511.74
674.96	508.58
675.30	505.67
675.64	502.82
675.97	500.05
676.31	497.20
676.65	494.30
676.99	491.64
677.33	488.80
677.67	486.01
678.01	482.99
678.34	480.02
678.68	477.13
679.02	474.26
679.36	471.49
679.70	468.78
680.04	466.01
680.37	463.17
680.71	460.38
681.05	457.77
681.39	455.03
681.73	452.43
682.06	449.96
682.40	447.43
682.74	444.89
683.08	442.35
683.42	439.73
683.75	437.20
684.09	434.67
684.43	432.22
684.77	429.81
685.10	427.49
685.44	425.25
685.78	422.93
686.12	420.73
686.45	418.46
686.79	416.12
687.13	413.93
687.46	411.77
687.80	409.63
688.14	407.43
688.48	405.34
688.81	403.05
689.15	400.90
689.49	398.80
689.82	396.73
690.16	394.63
690.50	392.62
690.83	390.70
691.17	388.68
691.51	386.73
691.84	384.86
692.18	382.94
692.52	380.89
692.85	379.01
693.19	377.12
693.52	375.32
693.86	373.55
694.20	371.74
694.53	369.94
694.87	368.11
695.21	366.31
695.54	364.52
695.88	362.82
696.21	361.07
696.55	359.34
696.88	357.61
697.22	355.96
697.56	354.43
697.89	352.76
698.23	351.15
698.56	349.56
698.90	347.96
699.23	346.29
699.57	344.75
699.90	343.17
700.24	341.63
700.58	340.04
700.91	338.46
701.25	337.04
701.58	335.67
701.92	334.33
702.25	332.94
702.59	331.59
702.92	330.29
703.26	328.98
703.59	327.72
703.93	326.59
704.26	325.36
704.60	324.02
704.93	322.76
705.26	321.53
705.60	320.43
705.93	319.26
706.27	318.25
706.60	317.19
706.94	316.10
707.27	314.99
707.61	313.96
707.94	312.99
708.27	311.89
708.61	310.80
708.94	309.75
709.28	308.74
709.61	307.80
709.94	306.81
710.28	305.76
710.61	304.79
710.95	303.68
711.28	302.76
711.61	301.80
711.95	300.89
712.28	299.90
712.61	298.81
712.95	297.92
713.28	297.05
713.61	296.20
713.95	295.30
714.28	294.45
714.61	293.58
714.95	292.76
715.28	291.90
715.61	291.02
715.95	290.19
716.28	289.35
716.61	288.52
716.95	287.70
717.28	287.04
717.61	286.23
717.94	285.50
718.28	284.69
718.61	284.01
718.94	283.33
719.27	282.66
719.61	282.07
719.94	281.40
720.27	280.72
720.60	280.06
720.94	279.43
721.27	278.88
721.60	278.31
721.93	277.67
722.27	277.15
722.60	276.57
722.93	275.98
723.26	275.44
723.59	274.87
723.93	274.36
724.26	273.78
724.59	273.27
724.92	272.77
725.25	272.27
725.59	271.72
725.92	271.21
726.25	270.75
726.58	270.29
726.91	269.76
727.24	269.26
727.57	268.76
727.91	268.30
728.24	267.81
728.57	267.31
728.90	266.88
729.23	266.38
729.56	265.99
729.89	265.53
730.22	265.06
730.55	264.60
730.89	264.16
731.22	263.68
731.55	263.27
731.88	262.82
732.21	262.42
732.54	261.96
732.87	261.55
733.20	261.15
733.53	260.74
733.86	260.41
734.19	260.02
734.52	259.60
734.85	259.31
735.18	258.90
735.51	258.56
735.84	258.17
736.17	257.84
736.50	257.44
736.83	257.20
737.16	256.85
737.49	256.51
737.82	256.11
738.15	255.82
738.48	255.48
738.81	255.18
739.14	254.84
739.47	254.55
739.80	254.25
740.13	253.93
740.46	253.57
740.79	253.25
741.12	252.91
741.45	252.61
741.78	252.24
742.11	251.98
742.44	251.65
742.77	251.37
743.10	251.06
743.43	250.79
743.75	250.43
744.08	250.28
744.41	250.00
744.74	249.76
745.07	249.43
745.40	249.18
745.73	248.93
746.06	248.67
746.39	248.39
746.71	248.11
747.04	247.82
747.37	247.58
747.70	247.30
748.03	247.05
748.36	246.83
748.68	246.56
749.01	246.28
749.34	246.03
749.67	245.79
750.00	245.57
750.33	245.39
750.65	245.19
750.98	244.85
751.31	244.65
751.64	244.46
751.97	244.33
752.29	244.10
752.62	243.86
752.95	243.64
753.28	243.43
753.60	243.23
753.93	243.09
754.26	242.90
754.59	242.74
754.91	242.57
755.24	242.38
755.57	242.23
755.90	242.08
756.22	241.90
756.55	241.73
756.88	241.54
757.20	241.29
757.53	241.05
757.86	240.90
758.19	240.73
758.51	240.55
758.84	240.38
759.17	240.24
759.49	240.09
759.82	239.99
760.15	239.84
760.47	239.70
760.80	239.52
761.13	239.38
761.45	239.17
761.78	239.05
762.11	238.93
762.43	238.75
762.76	238.57
763.08	238.47
763.41	238.35
763.74	238.23
764.06	238.08
764.39	237.98
764.71	237.82
765.04	237.69
765.37	237.57
765.69	237.42
766.02	237.28
766.34	237.15
766.67	237.00
767.00	236.94
767.32	236.89
767.65	236.86
767.97	236.76
768.30	236.67
768.62	236.51
768.95	236.37
769.27	236.28
769.60	236.17
769.92	236.04
770.25	235.94
770.57	235.83
770.90	235.74
771.22	235.60
771.55	235.54
771.87	235.46
772.20	235.35
772.52	235.34
772.85	235.33
773.17	235.23
773.50	235.13
773.82	235.01
774.15	234.80
774.47	234.63
774.80	234.52
775.12	234.42
775.45	234.34
775.77	234.29
776.09	234.21
776.42	234.15
776.74	234.10
777.07	233.99
777.39	233.88
777.72	233.80
778.04	233.76
778.36	233.67
778.69	233.58
779.01	233.53
779.33	233.36
779.66	233.20
779.98	233.10
780.31	233.03
780.63	233.00
780.95	232.96
781.28	232.92
781.60	232.85
781.92	232.79
782.25	232.72
782.57	232.64
782.89	232.54
783.22	232.46
783.54	232.35
783.86	232.26
784.19	232.20
784.51	232.14
784.83	232.12
785.16	232.06
785.48	232.00
785.80	231.94
786.12	231.89
786.45	231.82
786.77	231.81
787.09	231.78
787.42	231.68
787.74	231.62
788.06	231.55
788.38	231.46
788.71	231.39
789.03	231.34
789.35	231.31
789.67	231.30
789.99	231.23
790.32	231.20
790.64	231.20
790.96	231.23
791.28	231.17
791.61	231.09
791.93	231.05
792.25	231.03
792.57	231.03
792.89	230.97
793.21	230.95
793.54	230.89
793.86	230.82
794.18	230.78
794.50	230.74
794.82	230.73
795.14	230.74
795.47	230.74
795.79	230.70
796.11	230.65
796.43	230.62
796.75	230.62
797.07	230.60
797.39	230.56
797.71	230.50
798.04	230.45
798.36	230.41
798.68	230.43
799.00	230.41
799.32	230.35
799.64	230.37
799.96	230.36
800.28	230.33
800.60	230.31
800.92	230.32
801.24	230.28
801.56	230.24
801.89	230.20
802.21	230.17
802.53	230.16
802.85	230.16
803.17	230.14
803.49	230.09
803.81	230.04
804.13	230.01
804.45	229.94
804.77	229.97
805.09	229.96
805.41	229.90
805.73	229.82
806.05	229.74
806.37	229.71
806.69	229.65
807.01	229.64
807.33	229.64
807.65	229.56
807.97	229.58
808.28	229.56
808.60	229.49
808.92	229.44
809.24	229.47
809.56	229.43
809.88	229.37
810.20	229.35
810.52	229.34
810.84	229.32
811.16	229.29
811.48	229.25
811.80	229.25
812.12	229.23
812.43	229.22
812.75	229.22
813.07	229.18
813.39	229.16
813.71	229.12
814.03	229.07
814.35	229.07
814.67	229.01
814.98	228.99
815.30	228.99
815.62	228.98
815.94	228.86
816.26	228.87
816.58	228.84
816.89	228.85
817.21	228.80
817.53	228.77
817.85	228.75
818.17	228.74
818.48	228.66
818.80	228.64
819.12	228.60
819.44	228.56
819.76	228.51
820.07	228.49
820.39	228.43
820.71	228.41
821.03	228.34
821.34	228.33
821.66	228.31
821.98	228.33
822.30	228.30
822.61	228.35
822.93	228.31
823.25	228.31
823.57	228.26
823.88	228.24
824.20	228.21
824.52	228.20
824.83	228.17
825.15	228.16
825.47	228.14
825.79	228.13
826.10	228.11
826.42	228.08
826.74	228.12
827.05	228.12
827.37	228.12
827.69	228.12
828.00	228.10
828.32	228.07
828.64	228.03
828.95	228.08
829.27	228.08
829.58	228.05
829.90	228.05
830.22	228.09
830.53	228.09
830.85	228.08
831.17	228.07
831.48	228.05
831.80	228.06
832.11	228.07
832.43	228.07
832.75	228.09
833.06	228.16
833.38	228.10
833.69	228.10
834.01	228.14
834.32	228.18
834.64	228.15
834.96	228.17
835.27	228.19
835.59	228.13
835.90	228.07
836.22	228.08
836.53	228.05
836.85	228.03
837.16	228.16
837.48	228.17
837.79	228.21
838.11	228.24
838.42	228.25
838.74	228.25
839.05	228.26
839.37	228.24
839.68	228.16
840.00	228.14
840.31	228.18
840.63	228.14
840.94	228.11
841.26	228.12
841.57	228.10
841.88	228.11
842.20	228.14
842.51	228.16
842.83	228.18
843.14	228.30
843.46	228.28
843.77	228.19
844.08	228.17
844.40	228.14
844.71	228.10
845.03	228.07
845.34	228.06
845.65	228.03
845.97	228.05
846.28	228.08
846.60	228.11
846.91	228.08
847.22	228.10
847.54	228.10
847.85	228.12
848.16	228.11
848.48	228.09
848.79	228.11
849.10	228.09
849.42	228.03
849.73	227.91
850.04	227.89
850.36	227.86
850.67	227.88
850.98	227.87
851.30	227.90
851.61	227.87
851.92	227.85
852.23	227.88
852.55	227.87
852.86	227.83
853.17	227.84
853.49	227.82
853.80	227.82
854.11	227.85
854.42	227.83
854.74	227.80
855.05	227.79
855.36	227.70
855.67	227.72
855.99	227.71
856.30	227.82
856.61	227.80
856.92	227.78
857.23	227.74
857.55	227.69
857.86	227.65
858.17	227.65
858.48	227.65
858.79	227.63
859.11	227.60
859.42	227.61
859.73	227.57
860.04	227.60
860.35	227.53
860.66	227.47
860.98	227.44
861.29	227.44
861.60	227.40
861.91	227.41
862.22	227.36
862.53	227.38
862.84	227.23
863.16	227.25
863.47	227.23
863.78	227.22
864.09	227.23
864.40	227.20
864.71	227.19
865.02	227.23
865.33	227.18
865.64	227.14
865.95	227.13
866.27	227.15
866.58	227.11
866.89	227.12
867.20	227.13
867.51	227.11
867.82	227.11
868.13	227.13
868.44	227.14
868.75	227.15
869.06	227.12
869.37	227.15
869.68	227.13
869.99	227.15
870.30	227.16
870.61	227.17
870.92	227.19
871.23	227.19
871.54	227.18
871.85	227.19
872.16	227.20
872.47	227.19
872.78	227.14
873.09	227.13
873.40	227.13
873.71	227.10
874.02	227.14
874.33	227.14
874.64	227.14
874.95	227.14
875.26	227.15
875.56	227.20
875.87	227.20
876.18	227.19
876.49	227.32
876.80	227.31
877.11	227.30
877.42	227.32
877.73	227.36
878.04	227.36
878.35	227.39
878.66	227.44
878.96	227.44
879.27	227.49
879.58	227.50
879.89	227.52
880.20	227.57
880.51	227.55
880.82	227.58
881.12	227.58
881.43	227.58
881.74	227.58
882.05	227.55
882.36	227.57
882.67	227.59
882.97	227.49
883.28	227.47
883.59	227.49
883.90	227.51
884.21	227.46
884.51	227.47
884.82	227.45
885.13	227.44
885.44	227.45
885.74	227.44
886.05	227.45
886.36	227.46
886.67	227.41
886.98	227.43
887.28	227.42
887.59	227.43
887.90	227.45
888.20	227.42
888.51	227.42
888.82	227.38
889.13	227.39
889.43	227.48
889.74	227.49
890.05	227.50
890.35	227.48
890.66	227.49
890.97	227.47
891.28	227.47
891.58	227.46
891.89	227.47
892.20	227.44
892.50	227.42
892.81	227.41
893.12	227.44
893.42	227.41
893.73	227.42
894.04	227.40
894.34	227.38
894.65	227.38
894.95	227.38
895.26	227.39
895.57	227.42
895.87	227.29
896.18	227.28
896.48	227.26
896.79	227.24
897.10	227.24
897.40	227.22
897.71	227.20
898.01	227.17
898.32	227.18
898.63	227.17
898.93	227.17
899.24	227.14
899.54	227.11
899.85	227.09
900.15	227.08
900.46	227.08
900.76	227.08
901.07	227.07
901.38	227.06
901.68	227.04
901.99	226.96
902.29	226.99
902.60	226.99
902.90	227.00
903.21	227.02
903.51	227.01
903.82	227.02
904.12	227.04
904.43	227.07
904.73	227.04
905.03	227.04
905.34	227.14
905.64	227.13
905.95	227.13
906.25	227.15
906.56	227.13
906.86	227.12
907.17	227.12
907.47	227.12
907.77	227.11
908.08	227.13
908.38	227.16
908.69	227.16
908.99	227.19
909.30	227.18
909.60	227.18
909.90	227.18
910.21	227.17
910.51	227.16
910.81	227.12
911.12	227.15
911.42	227.17
911.73	227.07
912.03	227.09
912.33	227.10
912.64	227.09
912.94	227.11
913.24	227.11
913.55	227.09
913.85	227.10
914.15	227.15
914.46	227.17
914.76	227.16
915.06	227.16
915.37	227.15
915.67	227.13
915.97	227.12
916.27	227.12
916.58	227.15
916.88	227.16
917.18	227.18
917.49	227.25
917.79	227.28
918.09	227.30
918.39	227.32
918.70	227.33
919.00	227.34
919.30	227.36
919.60	227.37
919.91	227.38
920.21	227.38
920.51	227.37
920.81	227.34
921.12	227.38
921.42	227.35
921.72	227.32
922.02	227.33
922.32	227.37
922.63	227.35
922.93	227.35
923.23	227.35
923.53	227.33
923.83	227.28
924.13	227.23
924.44	227.21
924.74	227.23
925.04	227.24
925.34	227.23
925.64	227.20
925.94	227.19
926.24	227.23
926.55	227.23
926.85	227.23
927.15	227.24
927.45	227.22
927.75	227.27
928.05	227.30
928.35	227.27
928.65	227.28
928.95	227.32
929.26	227.28
929.56	227.27
929.86	227.29
930.16	227.30
930.46	227.31
930.76	227.31
931.06	227.28
931.36	227.27
931.66	227.29
931.96	227.28
932.26	227.25
932.56	227.23
932.86	227.22
933.16	227.17
933.46	227.16
933.76	227.13
934.06	227.12
934.36	227.15
934.66	227.15
934.96	227.13
935.26	227.15
935.56	227.16
935.86	227.18
936.16	227.13
936.46	227.09
936.76	227.10
937.06	227.11
937.36	227.11
937.66	227.10
937.96	227.08
938.26	227.09
938.56	227.08
938.86	227.06
939.16	227.08
939.46	227.14
939.76	227.12
940.06	227.11
940.35	227.08
940.65	227.00
940.95	227.03
941.25	226.99
941.55	226.95
941.85	226.96
942.15	226.93
942.45	227.00
942.75	227.01
943.04	226.99
943.34	227.00
943.64	226.96
943.94	226.92
944.24	226.96
944.54	226.94
944.84	226.95
945.13	226.98
945.43	226.96
945.73	226.96
946.03	226.96
946.33	226.96
946.62	226.98
946.92	227.01
947.22	227.00
947.52	227.02
947.82	227.04
948.11	227.00
948.41	226.98
948.71	226.94
949.01	226.94
949.31	226.92
949.60	226.89
949.90	226.93
950.20	226.95
950.50	226.93
950.79	226.94
951.09	226.97
951.39	226.92
951.69	226.92
951.98	226.91
952.28	226.92
952.58	226.93
952.87	226.91
953.17	226.92
953.47	226.92
953.76	226.91
954.06	226.89
954.36	226.91
954.66	226.91
954.95	226.96
955.25	226.98
955.55	227.02
955.84	227.03
956.14	227.01
956.44	227.01
956.73	226.98
957.03	227.02
957.32	227.00
957.62	227.02
957.92	227.06
958.21	227.06
958.51	227.19
958.81	227.20
959.10	227.19
959.40	227.22
959.69	227.21
959.99	227.24
960.29	227.24
960.58	227.21
960.88	227.24
961.17	227.19
961.47	227.19
961.76	227.17
962.06	227.20
962.36	227.18
962.65	227.18
962.95	227.22
963.24	227.16
963.54	227.19
963.83	227.18
964.13	227.14
964.42	227.09
964.72	226.98
965.01	226.98
965.31	226.99
965.60	226.96
965.90	227.05
966.19	226.99
966.49	227.00
966.78	227.01
967.08	227.00
967.37	227.01
967.67	226.98
967.96	226.98
968.26	226.95
968.55	226.99
968.85	227.02
969.14	226.98
969.43	226.99
969.73	226.95
970.02	226.96
970.32	226.94
970.61	226.93
970.91	226.92
971.20	226.91
971.49	226.87
971.79	226.85
972.08	226.73
972.38	226.75
972.67	226.74
972.96	226.76
973.26	226.76
973.55	226.77
973.85	226.77
974.14	226.74
974.43	226.74
974.73	226.69
975.02	226.66
975.31	226.65
975.61	226.66
975.90	226.64
976.19	226.66
976.49	226.64
976.78	226.65
977.07	226.63
977.37	226.63
977.66	226.71
977.95	226.73
978.24	226.75
978.54	226.77
978.83	226.78
979.12	226.79
979.42	226.77
979.71	226.75
980.00	226.78
980.29	226.78
980.59	226.78
980.88	226.83
981.17	226.83
981.46	226.83
981.76	226.84
982.05	226.89
982.34	226.88
982.63	226.90
982.93	226.92
983.22	226.95
983.51	226.96
983.80	226.93
984.09	226.93
984.39	226.94
984.68	226.97
984.97	226.98
985.26	226.99
985.55	227.01
985.85	227.02
986.14	227.03
986.43	227.07
986.72	227.09
987.01	227.04
987.30	227.07
987.59	227.08
987.89	227.10
988.18	227.07
988.47	227.07
988.76	227.10
989.05	227.09
989.34	227.11
989.63	227.14
989.92	227.11
990.22	227.11
990.51	227.12
990.80	227.11
991.09	227.10
991.38	227.08
991.67	227.07
991.96	227.06
992.25	227.07
992.54	227.02
992.83	227.02
993.12	227.03
993.41	227.01
993.70	227.07
993.99	227.09
994.28	227.11
994.58	227.11
994.87	227.08
995.16	227.09
995.45	227.05
995.74	227.03
996.03	227.08
996.32	227.10
996.61	227.09
996.90	227.05
997.19	227.07
997.48	227.11
997.77	227.08
998.06	227.09
998.34	227.07
998.63	227.08
998.92	227.08
999.21	227.10
999.50	227.10
999.79	227.03
1000.08	227.01
1000.37	226.99
1000.66	227.00
1000.95	227.05
1001.24	227.05
1001.53	227.03
1001.82	227.00
1002.11	226.95
1002.40	226.93
1002.68	226.97
1002.97	227.00
1003.26	226.95
1003.55	226.92
1003.84	226.95
1004.13	226.98
1004.42	226.97
1004.71	226.97
1004.99	226.97
1005.28	227.00
1005.57	227.00
1005.86	226.98
1006.15	226.98
1006.44	226.96
1006.72	226.96
1007.01	226.92
1007.30	226.93
1007.59	226.94
1007.88	226.97
1008.17	226.99
1008.45	226.96
1008.74	226.90
1009.03	226.90
1009.32	226.90
1009.60	226.90
1009.89	226.87
1010.18	226.82
1010.47	226.81
1010.76	226.80
1011.04	226.77
1011.33	226.76
1011.62	226.78
1011.91	226.81
1012.19	226.81
1012.48	226.84
1012.77	226.83
1013.05	226.91
1013.34	226.90
1013.63	226.88
1013.92	226.89
1014.20	226.88
1014.49	226.90
1014.78	226.95
1015.06	226.93
1015.35	226.94
1015.64	226.96
1015.92	226.98
1016.21	227.02
1016.50	227.03
1016.78	227.05
1017.07	227.06
1017.36	227.07
1017.64	227.06
1017.93	227.07
1018.22	227.07
1018.50	227.06
1018.79	227.08
1019.08	227.02
1019.36	227.04
1019.65	227.05
1019.93	227.09
1020.22	227.11
1020.51	227.16
1020.79	227.10
1021.08	227.13
1021.36	226.67
1021.65	227.41
1021.94	227.07
1022.22	227.39
1022.51	226.79
1022.79	227.78
1023.08	227.16
1023.36	228.05
1023.65	226.45
>>>>>End Processed Spectral Data<<<<<
