SpectraSuite Data File
++++++++++++++++++++++++++++++++++++
Date: Fri Feb 01 15:30:22 EST 2013
User: group
Dark Spectrum Present: No
Reference Spectrum Present: No
Number of Sampled Component Spectra: 1
Spectrometers: USB2E7196
Integration Time (usec): 35000 (USB2E7196)
Spectra Averaged: 100 (USB2E7196)
Boxcar Smoothing: 10 (USB2E7196)
Correct for Electrical Dark: No (USB2E7196)
Strobe/Lamp Enabled: No (USB2E7196)
Correct for Detector Non-linearity: No (USB2E7196)
Correct for Stray Light: No (USB2E7196)
Number of Pixels in Processed Spectrum: 2048
>>>>>Begin Processed Spectral Data<<<<<
339.09	0.00
339.48	214.90
339.86	216.29
340.24	217.66
340.63	219.26
341.01	222.26
341.39	221.96
341.78	223.21
342.16	224.33
342.54	225.01
342.93	213.32
343.31	224.11
343.69	224.67
344.07	225.15
344.46	225.59
344.84	225.97
345.22	226.21
345.60	226.44
345.99	226.63
346.37	226.76
346.75	226.87
347.13	226.92
347.52	226.98
347.90	227.01
348.28	227.00
348.66	227.05
349.05	227.07
349.43	227.08
349.81	227.12
350.19	227.18
350.57	227.23
350.96	227.33
351.34	227.41
351.72	227.50
352.10	227.59
352.48	227.65
352.87	227.71
353.25	227.78
353.63	227.85
354.01	227.93
354.39	228.00
354.77	228.07
355.15	228.19
355.54	228.25
355.92	228.31
356.30	228.40
356.68	228.52
357.06	228.57
357.44	228.61
357.82	228.68
358.20	228.77
358.58	228.85
358.97	228.93
359.35	229.02
359.73	229.09
360.11	229.12
360.49	229.19
360.87	229.24
361.25	229.31
361.63	229.40
362.01	229.45
362.39	229.49
362.77	229.54
363.15	229.57
363.53	229.62
363.91	229.66
364.29	229.67
364.67	229.63
365.05	229.68
365.43	229.74
365.81	229.76
366.19	229.79
366.57	229.81
366.95	229.82
367.33	229.74
367.71	229.73
368.09	229.73
368.47	229.72
368.85	229.70
369.23	229.65
369.61	229.57
369.99	229.58
370.37	229.56
370.75	229.57
371.13	229.51
371.51	229.44
371.89	229.41
372.27	229.40
372.65	229.32
373.03	229.26
373.41	229.19
373.78	229.13
374.16	229.05
374.54	228.97
374.92	228.87
375.30	228.85
375.68	228.76
376.06	228.72
376.44	228.62
376.82	228.55
377.19	228.48
377.57	228.41
377.95	228.29
378.33	228.20
378.71	228.06
379.09	227.97
379.47	227.89
379.84	227.79
380.22	227.70
380.60	227.61
380.98	227.53
381.36	227.44
381.73	227.36
382.11	227.30
382.49	227.23
382.87	227.14
383.25	227.07
383.62	227.11
384.00	227.03
384.38	227.00
384.76	226.95
385.13	226.95
385.51	226.88
385.89	226.80
386.27	226.75
386.64	226.72
387.02	226.69
387.40	226.68
387.78	226.64
388.15	226.57
388.53	226.55
388.91	226.50
389.29	226.48
389.66	226.44
390.04	226.43
390.42	226.44
390.79	226.43
391.17	226.42
391.55	226.31
391.92	226.30
392.30	226.25
392.68	226.25
393.05	226.23
393.43	226.23
393.81	226.27
394.18	226.27
394.56	226.29
394.94	226.32
395.31	226.30
395.69	226.36
396.06	226.40
396.44	226.40
396.82	226.45
397.19	226.54
397.57	226.56
397.95	226.62
398.32	226.62
398.70	226.71
399.07	226.77
399.45	226.83
399.82	226.92
400.20	227.01
400.58	227.06
400.95	227.16
401.33	227.27
401.70	227.44
402.08	227.57
402.45	227.67
402.83	227.79
403.20	227.95
403.58	228.05
403.95	228.21
404.33	228.37
404.71	228.51
405.08	228.69
405.46	228.87
405.83	229.05
406.21	229.22
406.58	229.37
406.96	229.56
407.33	229.77
407.70	229.97
408.08	230.27
408.45	230.50
408.83	230.72
409.20	230.96
409.58	231.15
409.95	231.40
410.33	231.71
410.70	231.96
411.08	232.26
411.45	232.59
411.82	232.89
412.20	233.25
412.57	233.67
412.95	233.97
413.32	234.40
413.69	234.76
414.07	235.24
414.44	235.72
414.82	236.15
415.19	236.71
415.56	237.24
415.94	237.78
416.31	238.43
416.68	239.05
417.06	239.78
417.43	240.44
417.81	241.22
418.18	241.97
418.55	242.84
418.93	243.72
419.30	244.61
419.67	245.54
420.04	246.48
420.42	247.50
420.79	248.67
421.16	249.80
421.54	251.03
421.91	252.21
422.28	253.44
422.66	254.81
423.03	256.11
423.40	257.45
423.77	258.86
424.15	260.27
424.52	261.74
424.89	263.31
425.26	264.87
425.64	266.28
426.01	267.89
426.38	269.51
426.75	271.16
427.13	272.89
427.50	274.70
427.87	276.60
428.24	278.47
428.61	280.21
428.99	282.15
429.36	284.25
429.73	286.33
430.10	288.40
430.47	290.46
430.85	292.59
431.22	294.82
431.59	297.23
431.96	299.49
432.33	302.00
432.70	304.38
433.08	307.18
433.45	309.84
433.82	312.44
434.19	315.34
434.56	318.18
434.93	320.85
435.30	323.49
435.68	326.42
436.05	329.25
436.42	332.07
436.79	334.57
437.16	337.27
437.53	340.06
437.90	342.84
438.27	345.60
438.64	348.41
439.01	351.06
439.38	353.29
439.75	355.42
440.13	357.92
440.50	360.29
440.87	362.11
441.24	364.09
441.61	366.27
441.98	367.77
442.35	369.57
442.72	371.40
443.09	373.17
443.46	374.12
443.83	374.69
444.20	375.18
444.57	376.04
444.94	376.29
445.31	376.68
445.68	377.07
446.05	377.12
446.42	376.74
446.79	376.27
447.16	375.78
447.53	375.48
447.90	374.31
448.27	373.15
448.64	371.58
449.01	370.41
449.37	368.44
449.74	366.54
450.11	364.26
450.48	361.76
450.85	359.22
451.22	357.07
451.59	355.04
451.96	353.06
452.33	350.41
452.70	348.07
453.07	345.20
453.43	342.25
453.80	339.45
454.17	336.74
454.54	334.23
454.91	331.52
455.28	328.84
455.65	326.31
456.02	323.86
456.38	321.74
456.75	319.08
457.12	316.79
457.49	314.51
457.86	312.32
458.23	310.45
458.59	308.45
458.96	306.38
459.33	304.57
459.70	302.73
460.07	301.28
460.43	299.58
460.80	297.96
461.17	296.52
461.54	295.02
461.91	293.62
462.27	292.19
462.64	290.92
463.01	289.52
463.38	288.24
463.74	286.87
464.11	285.68
464.48	284.61
464.85	283.50
465.21	282.64
465.58	281.73
465.95	280.64
466.32	279.70
466.68	278.81
467.05	277.87
467.42	276.96
467.78	275.98
468.15	275.07
468.52	274.43
468.88	273.58
469.25	272.80
469.62	272.13
469.98	271.39
470.35	270.79
470.72	270.21
471.08	269.57
471.45	268.99
471.82	268.45
472.18	267.87
472.55	267.41
472.92	266.90
473.28	266.43
473.65	266.00
474.02	265.56
474.38	265.16
474.75	264.80
475.11	264.48
475.48	264.24
475.85	264.01
476.21	263.77
476.58	263.57
476.94	263.44
477.31	263.28
477.67	263.16
478.04	263.03
478.41	262.99
478.77	263.03
479.14	262.98
479.50	263.02
479.87	263.08
480.23	263.17
480.60	263.24
480.96	263.33
481.33	263.53
481.69	263.73
482.06	263.95
482.42	264.18
482.79	264.45
483.15	264.74
483.52	265.15
483.88	265.47
484.25	265.87
484.61	266.31
484.98	266.77
485.34	267.32
485.71	267.92
486.07	268.55
486.44	269.07
486.80	269.78
487.17	270.49
487.53	271.33
487.90	272.22
488.26	273.15
488.62	274.15
488.99	275.14
489.35	276.20
489.72	277.35
490.08	278.59
490.44	279.81
490.81	281.14
491.17	282.49
491.54	283.96
491.90	285.50
492.26	287.13
492.63	288.88
492.99	290.68
493.36	292.53
493.72	294.55
494.08	296.69
494.45	298.97
494.81	301.31
495.17	303.74
495.54	306.28
495.90	308.99
496.26	311.79
496.63	314.76
496.99	317.83
497.35	321.06
497.72	324.42
498.08	327.93
498.44	331.56
498.80	335.50
499.17	339.55
499.53	343.71
499.89	348.12
500.26	352.61
500.62	357.26
500.98	362.29
501.34	367.36
501.71	372.69
502.07	378.06
502.43	383.69
502.79	389.52
503.16	395.66
503.52	401.93
503.88	408.39
504.24	415.03
504.60	421.95
504.97	429.09
505.33	436.45
505.69	444.19
506.05	452.04
506.41	459.87
506.78	468.00
507.14	476.39
507.50	485.08
507.86	494.08
508.22	503.29
508.59	512.47
508.95	522.06
509.31	531.94
509.67	542.08
510.03	552.37
510.39	562.86
510.75	573.59
511.12	584.55
511.48	595.77
511.84	607.26
512.20	618.81
512.56	630.67
512.92	642.82
513.28	655.11
513.64	667.60
514.00	680.34
514.37	693.33
514.73	706.59
515.09	719.61
515.45	732.95
515.81	746.51
516.17	760.49
516.53	774.61
516.89	788.70
517.25	802.96
517.61	817.45
517.97	832.02
518.33	846.55
518.69	861.33
519.05	876.42
519.41	891.63
519.77	907.21
520.13	922.75
520.49	938.14
520.85	953.64
521.21	969.28
521.57	985.56
521.93	1001.38
522.29	1017.78
522.65	1034.11
523.01	1050.39
523.37	1066.49
523.73	1082.86
524.09	1099.09
524.45	1115.56
524.81	1132.21
525.17	1149.17
525.53	1166.07
525.89	1182.93
526.25	1199.78
526.61	1216.24
526.97	1232.99
527.33	1249.42
527.68	1266.13
528.04	1282.65
528.40	1299.42
528.76	1316.67
529.12	1333.22
529.48	1350.19
529.84	1366.17
530.20	1382.97
530.56	1400.09
530.91	1417.52
531.27	1434.29
531.63	1450.75
531.99	1467.26
532.35	1483.26
532.71	1499.05
533.07	1515.32
533.42	1531.31
533.78	1547.52
534.14	1563.81
534.50	1579.18
534.86	1595.21
535.21	1610.41
535.57	1626.49
535.93	1641.99
536.29	1656.76
536.65	1671.91
537.00	1686.71
537.36	1702.15
537.72	1716.71
538.08	1731.06
538.44	1744.86
538.79	1758.67
539.15	1772.39
539.51	1786.29
539.87	1800.80
540.22	1814.69
540.58	1828.59
540.94	1842.02
541.29	1854.98
541.65	1867.74
542.01	1881.11
542.37	1893.38
542.72	1906.02
543.08	1917.78
543.44	1930.11
543.79	1941.48
544.15	1952.50
544.51	1964.05
544.87	1975.12
545.22	1985.88
545.58	1996.14
545.94	2006.07
546.29	2016.01
546.65	2025.83
547.01	2035.08
547.36	2043.81
547.72	2052.16
548.07	2060.00
548.43	2068.13
548.79	2076.18
549.14	2083.77
549.50	2091.01
549.86	2098.87
550.21	2106.03
550.57	2113.30
550.92	2119.91
551.28	2126.98
551.64	2134.07
551.99	2140.59
552.35	2146.69
552.70	2152.88
553.06	2158.92
553.41	2165.39
553.77	2171.41
554.13	2177.62
554.48	2183.78
554.84	2188.99
555.19	2194.38
555.55	2199.53
555.90	2203.99
556.26	2208.71
556.61	2213.41
556.97	2217.75
557.32	2221.91
557.68	2226.11
558.03	2230.38
558.39	2234.14
558.74	2238.70
559.10	2242.58
559.45	2246.26
559.81	2250.58
560.16	2254.37
560.52	2257.60
560.87	2260.93
561.23	2263.55
561.58	2266.41
561.94	2268.89
562.29	2271.39
562.64	2274.02
563.00	2276.60
563.35	2280.20
563.71	2283.36
564.06	2286.59
564.42	2289.38
564.77	2291.90
565.12	2294.01
565.48	2295.81
565.83	2297.64
566.19	2298.96
566.54	2299.95
566.89	2301.18
567.25	2301.77
567.60	2303.03
567.96	2304.68
568.31	2305.42
568.66	2306.61
569.02	2307.17
569.37	2307.40
569.72	2308.13
570.08	2308.31
570.43	2308.41
570.78	2307.72
571.14	2306.23
571.49	2304.80
571.84	2304.42
572.20	2302.99
572.55	2302.15
572.90	2300.57
573.26	2299.17
573.61	2297.41
573.96	2295.55
574.31	2292.48
574.67	2289.30
575.02	2285.72
575.37	2282.30
575.72	2278.38
576.08	2274.97
576.43	2271.47
576.78	2267.88
577.13	2264.91
577.49	2261.74
577.84	2258.05
578.19	2254.16
578.54	2250.42
578.90	2246.04
579.25	2240.48
579.60	2235.50
579.95	2230.35
580.30	2225.11
580.66	2219.76
581.01	2214.70
581.36	2209.66
581.71	2205.37
582.06	2200.84
582.42	2196.27
582.77	2190.96
583.12	2186.33
583.47	2181.47
583.82	2176.41
584.17	2171.04
584.53	2165.33
584.88	2159.57
585.23	2153.67
585.58	2148.09
585.93	2142.45
586.28	2137.74
586.63	2132.60
586.98	2127.49
587.34	2122.62
587.69	2117.92
588.04	2112.65
588.39	2106.98
588.74	2100.48
589.09	2094.26
589.44	2087.53
589.79	2081.39
590.14	2075.70
590.49	2069.22
590.84	2062.81
591.19	2056.88
591.54	2050.37
591.89	2042.89
592.25	2036.13
592.60	2029.01
592.95	2021.47
593.30	2014.12
593.65	2006.47
594.00	1999.27
594.35	1992.01
594.70	1983.93
595.05	1976.56
595.40	1969.27
595.75	1961.71
596.10	1955.41
596.45	1948.51
596.80	1942.21
597.15	1935.40
597.50	1928.16
597.85	1921.60
598.19	1914.78
598.54	1907.58
598.89	1901.07
599.24	1895.12
599.59	1888.23
599.94	1881.99
600.29	1875.66
600.64	1869.12
600.99	1861.58
601.34	1854.74
601.69	1847.69
602.04	1840.72
602.39	1833.18
602.74	1826.26
603.08	1819.54
603.43	1812.78
603.78	1805.66
604.13	1798.43
604.48	1791.17
604.83	1784.45
605.18	1777.36
605.53	1769.47
605.87	1761.49
606.22	1754.10
606.57	1746.09
606.92	1738.86
607.27	1731.53
607.62	1724.60
607.96	1717.18
608.31	1710.44
608.66	1702.81
609.01	1695.32
609.36	1687.75
609.70	1679.81
610.05	1671.66
610.40	1663.94
610.75	1655.60
611.10	1647.83
611.44	1639.51
611.79	1631.65
612.14	1622.89
612.49	1613.77
612.83	1605.38
613.18	1597.21
613.53	1589.05
613.88	1580.59
614.22	1572.30
614.57	1563.78
614.92	1555.74
615.27	1548.20
615.61	1539.97
615.96	1531.99
616.31	1524.26
616.65	1516.83
617.00	1509.42
617.35	1501.80
617.70	1493.43
618.04	1484.88
618.39	1476.59
618.74	1468.85
619.08	1460.33
619.43	1452.73
619.78	1445.81
620.12	1438.51
620.47	1430.91
620.82	1422.65
621.16	1415.22
621.51	1407.56
621.85	1399.92
622.20	1391.34
622.55	1382.98
622.89	1375.14
623.24	1367.42
623.59	1359.96
623.93	1352.51
624.28	1345.14
624.62	1337.63
624.97	1330.38
625.32	1323.58
625.66	1316.58
626.01	1309.40
626.35	1302.05
626.70	1294.33
627.04	1286.59
627.39	1278.90
627.73	1271.50
628.08	1264.62
628.43	1257.33
628.77	1249.94
629.12	1242.38
629.46	1235.22
629.81	1227.79
630.15	1220.51
630.50	1213.10
630.84	1205.12
631.19	1197.25
631.53	1189.76
631.88	1182.22
632.22	1174.65
632.57	1167.43
632.91	1159.82
633.26	1152.40
633.60	1145.17
633.95	1138.07
634.29	1131.08
634.64	1124.43
634.98	1117.06
635.32	1110.01
635.67	1103.47
636.01	1096.80
636.36	1090.01
636.70	1083.50
637.05	1076.92
637.39	1070.50
637.73	1064.05
638.08	1058.08
638.42	1052.06
638.77	1045.65
639.11	1039.13
639.45	1032.73
639.80	1026.06
640.14	1019.68
640.49	1013.13
640.83	1006.69
641.17	1000.38
641.52	993.99
641.86	987.54
642.20	981.63
642.55	975.23
642.89	968.67
643.23	962.12
643.58	956.35
643.92	950.08
644.26	943.99
644.61	937.97
644.95	931.90
645.29	925.30
645.64	918.52
645.98	912.17
646.32	906.32
646.66	900.30
647.01	894.49
647.35	888.81
647.69	883.03
648.04	877.55
648.38	871.75
648.72	865.72
649.06	859.68
649.41	853.87
649.75	847.91
650.09	841.98
650.43	836.18
650.78	829.99
651.12	824.06
651.46	818.34
651.80	812.55
652.14	807.19
652.49	801.87
652.83	796.74
653.17	791.02
653.51	785.13
653.85	779.70
654.20	774.04
654.54	768.07
654.88	762.29
655.22	756.38
655.56	750.76
655.90	745.35
656.25	740.06
656.59	734.71
656.93	729.60
657.27	724.39
657.61	719.00
657.95	713.82
658.29	708.73
658.64	703.53
658.98	698.23
659.32	692.78
659.66	687.53
660.00	682.11
660.34	677.27
660.68	672.43
661.02	667.48
661.36	662.80
661.70	658.26
662.05	653.95
662.39	649.60
662.73	645.16
663.07	640.79
663.41	636.33
663.75	631.82
664.09	627.31
664.43	622.96
664.77	618.82
665.11	614.64
665.45	610.55
665.79	606.41
666.13	602.29
666.47	598.21
666.81	594.07
667.15	590.08
667.49	586.16
667.83	582.35
668.17	578.38
668.51	574.30
668.85	570.28
669.19	566.40
669.53	562.60
669.87	558.72
670.21	555.01
670.55	551.41
670.89	548.05
671.23	544.60
671.57	541.08
671.91	537.57
672.25	534.11
672.58	530.65
672.92	527.34
673.26	524.18
673.60	521.07
673.94	517.96
674.28	515.02
674.62	512.02
674.96	508.90
675.30	506.01
675.64	503.09
675.97	500.39
676.31	497.50
676.65	494.57
676.99	491.86
677.33	488.99
677.67	486.13
678.01	482.98
678.34	479.99
678.68	477.14
679.02	474.30
679.36	471.52
679.70	468.76
680.04	465.99
680.37	463.14
680.71	460.30
681.05	457.69
681.39	454.96
681.73	452.31
682.06	449.77
682.40	447.23
682.74	444.71
683.08	442.08
683.42	439.56
683.75	437.03
684.09	434.46
684.43	431.99
684.77	429.51
685.10	427.25
685.44	425.01
685.78	422.77
686.12	420.60
686.45	418.28
686.79	415.98
687.13	413.77
687.46	411.59
687.80	409.47
688.14	407.25
688.48	405.18
688.81	402.88
689.15	400.77
689.49	398.60
689.82	396.51
690.16	394.45
690.50	392.43
690.83	390.50
691.17	388.52
691.51	386.70
691.84	384.90
692.18	382.93
692.52	380.93
692.85	378.98
693.19	377.08
693.52	375.30
693.86	373.50
694.20	371.69
694.53	369.93
694.87	368.07
695.21	366.28
695.54	364.46
695.88	362.74
696.21	361.03
696.55	359.32
696.88	357.64
697.22	356.00
697.56	354.39
697.89	352.76
698.23	351.15
698.56	349.49
698.90	347.88
699.23	346.21
699.57	344.66
699.90	343.11
700.24	341.51
700.58	339.99
700.91	338.48
701.25	337.03
701.58	335.66
701.92	334.30
702.25	332.91
702.59	331.58
702.92	330.33
703.26	329.03
703.59	327.79
703.93	326.62
704.26	325.35
704.60	324.09
704.93	322.84
705.26	321.62
705.60	320.46
705.93	319.29
706.27	318.32
706.60	317.26
706.94	316.18
707.27	315.12
707.61	314.08
707.94	313.06
708.27	312.02
708.61	310.96
708.94	309.97
709.28	309.06
709.61	308.11
709.94	307.16
710.28	306.10
710.61	305.10
710.95	304.01
711.28	303.13
711.61	302.19
711.95	301.24
712.28	300.27
712.61	299.30
712.95	298.36
713.28	297.48
713.61	296.59
713.95	295.72
714.28	294.83
714.61	293.96
714.95	293.13
715.28	292.25
715.61	291.37
715.95	290.51
716.28	289.60
716.61	288.76
716.95	287.93
717.28	287.22
717.61	286.45
717.94	285.76
718.28	284.94
718.61	284.18
718.94	283.48
719.27	282.83
719.61	282.19
719.94	281.55
720.27	280.81
720.60	280.15
720.94	279.54
721.27	278.88
721.60	278.31
721.93	277.68
722.27	277.15
722.60	276.58
722.93	275.99
723.26	275.43
723.59	274.88
723.93	274.32
724.26	273.74
724.59	273.20
724.92	272.66
725.25	272.18
725.59	271.70
725.92	271.21
726.25	270.68
726.58	270.19
726.91	269.69
727.24	269.24
727.57	268.74
727.91	268.22
728.24	267.83
728.57	267.28
728.90	266.82
729.23	266.32
729.56	265.87
729.89	265.37
730.22	264.93
730.55	264.40
730.89	263.97
731.22	263.49
731.55	263.05
731.88	262.62
732.21	262.19
732.54	261.76
732.87	261.35
733.20	260.96
733.53	260.57
733.86	260.16
734.19	259.76
734.52	259.39
734.85	259.07
735.18	258.63
735.51	258.28
735.84	257.92
736.17	257.58
736.50	257.21
736.83	256.98
737.16	256.61
737.49	256.29
737.82	255.93
738.15	255.67
738.48	255.34
738.81	254.99
739.14	254.63
739.47	254.30
739.80	253.97
740.13	253.65
740.46	253.30
740.79	252.97
741.12	252.64
741.45	252.33
741.78	252.01
742.11	251.75
742.44	251.42
742.77	251.14
743.10	250.85
743.43	250.54
743.75	250.18
744.08	250.07
744.41	249.80
744.74	249.52
745.07	249.24
745.40	248.99
745.73	248.78
746.06	248.51
746.39	248.25
746.71	248.01
747.04	247.76
747.37	247.51
747.70	247.34
748.03	247.11
748.36	246.90
748.68	246.65
749.01	246.42
749.34	246.25
749.67	246.02
750.00	245.81
750.33	245.67
750.65	245.49
750.98	245.17
751.31	244.96
751.64	244.79
751.97	244.62
752.29	244.39
752.62	244.11
752.95	243.91
753.28	243.69
753.60	243.47
753.93	243.28
754.26	243.07
754.59	242.81
754.91	242.59
755.24	242.42
755.57	242.23
755.90	242.08
756.22	241.88
756.55	241.67
756.88	241.47
757.20	241.24
757.53	241.00
757.86	240.83
758.19	240.69
758.51	240.55
758.84	240.32
759.17	240.17
759.49	240.01
759.82	239.91
760.15	239.80
760.47	239.68
760.80	239.51
761.13	239.39
761.45	239.23
761.78	239.09
762.11	238.94
762.43	238.82
762.76	238.66
763.08	238.52
763.41	238.40
763.74	238.27
764.06	238.12
764.39	238.01
764.71	237.85
765.04	237.71
765.37	237.58
765.69	237.46
766.02	237.33
766.34	237.24
766.67	237.08
767.00	236.93
767.32	236.88
767.65	236.82
767.97	236.68
768.30	236.59
768.62	236.47
768.95	236.32
769.27	236.14
769.60	236.03
769.92	235.87
770.25	235.75
770.57	235.61
770.90	235.50
771.22	235.40
771.55	235.33
771.87	235.23
772.20	235.10
772.52	235.07
772.85	235.09
773.17	235.00
773.50	234.89
773.82	234.83
774.15	234.65
774.47	234.47
774.80	234.39
775.12	234.32
775.45	234.23
775.77	234.14
776.09	234.09
776.42	233.99
776.74	233.96
777.07	233.86
777.39	233.81
777.72	233.72
778.04	233.65
778.36	233.56
778.69	233.48
779.01	233.42
779.33	233.28
779.66	233.10
779.98	233.03
780.31	232.98
780.63	232.94
780.95	232.91
781.28	232.84
781.60	232.76
781.92	232.65
782.25	232.61
782.57	232.57
782.89	232.52
783.22	232.43
783.54	232.36
783.86	232.31
784.19	232.25
784.51	232.26
784.83	232.20
785.16	232.13
785.48	232.10
785.80	232.06
786.12	232.02
786.45	231.96
786.77	231.91
787.09	231.82
787.42	231.71
787.74	231.64
788.06	231.64
788.38	231.60
788.71	231.58
789.03	231.52
789.35	231.48
789.67	231.44
789.99	231.44
790.32	231.39
790.64	231.35
790.96	231.40
791.28	231.29
791.61	231.24
791.93	231.21
792.25	231.14
792.57	231.14
792.89	231.06
793.21	231.05
793.54	231.02
793.86	230.98
794.18	230.99
794.50	230.94
794.82	230.88
795.14	230.90
795.47	230.88
795.79	230.89
796.11	230.85
796.43	230.81
796.75	230.79
797.07	230.78
797.39	230.77
797.71	230.64
798.04	230.64
798.36	230.62
798.68	230.60
799.00	230.61
799.32	230.54
799.64	230.58
799.96	230.56
800.28	230.53
800.60	230.49
800.92	230.43
801.24	230.39
801.56	230.36
801.89	230.29
802.21	230.28
802.53	230.22
802.85	230.20
803.17	230.21
803.49	230.14
803.81	230.11
804.13	230.08
804.45	230.09
804.77	230.04
805.09	230.02
805.41	229.99
805.73	229.91
806.05	229.87
806.37	229.83
806.69	229.78
807.01	229.76
807.33	229.75
807.65	229.71
807.97	229.75
808.28	229.73
808.60	229.68
808.92	229.63
809.24	229.63
809.56	229.57
809.88	229.48
810.20	229.47
810.52	229.47
810.84	229.42
811.16	229.35
811.48	229.34
811.80	229.34
812.12	229.30
812.43	229.36
812.75	229.31
813.07	229.29
813.39	229.27
813.71	229.22
814.03	229.21
814.35	229.19
814.67	229.11
814.98	229.05
815.30	229.04
815.62	228.97
815.94	228.90
816.26	228.95
816.58	228.94
816.89	228.90
817.21	228.84
817.53	228.83
817.85	228.81
818.17	228.78
818.48	228.71
818.80	228.71
819.12	228.64
819.44	228.61
819.76	228.57
820.07	228.58
820.39	228.55
820.71	228.56
821.03	228.55
821.34	228.54
821.66	228.56
821.98	228.54
822.30	228.57
822.61	228.60
822.93	228.53
823.25	228.52
823.57	228.48
823.88	228.49
824.20	228.46
824.52	228.49
824.83	228.45
825.15	228.44
825.47	228.41
825.79	228.39
826.10	228.38
826.42	228.36
826.74	228.33
827.05	228.32
827.37	228.29
827.69	228.28
828.00	228.26
828.32	228.27
828.64	228.30
828.95	228.31
829.27	228.26
829.58	228.23
829.90	228.24
830.22	228.24
830.53	228.20
830.85	228.20
831.17	228.14
831.48	228.15
831.80	228.14
832.11	228.15
832.43	228.13
832.75	228.15
833.06	228.24
833.38	228.19
833.69	228.19
834.01	228.19
834.32	228.20
834.64	228.19
834.96	228.18
835.27	228.15
835.59	228.14
835.90	228.15
836.22	228.16
836.53	228.13
836.85	228.12
837.16	228.23
837.48	228.20
837.79	228.24
838.11	228.24
838.42	228.21
838.74	228.17
839.05	228.18
839.37	228.15
839.68	228.07
840.00	228.08
840.31	228.05
840.63	228.02
840.94	227.99
841.26	227.98
841.57	227.94
841.88	227.93
842.20	227.89
842.51	227.88
842.83	227.90
843.14	227.98
843.46	228.00
843.77	227.94
844.08	227.96
844.40	227.93
844.71	227.93
845.03	227.93
845.34	227.94
845.65	227.93
845.97	227.93
846.28	227.92
846.60	227.93
846.91	227.93
847.22	227.92
847.54	227.92
847.85	227.94
848.16	227.92
848.48	227.90
848.79	227.95
849.10	227.92
849.42	227.91
849.73	227.84
850.04	227.82
850.36	227.75
850.67	227.77
850.98	227.76
851.30	227.77
851.61	227.78
851.92	227.76
852.23	227.77
852.55	227.77
852.86	227.77
853.17	227.79
853.49	227.80
853.80	227.80
854.11	227.80
854.42	227.77
854.74	227.78
855.05	227.77
855.36	227.70
855.67	227.73
855.99	227.72
856.30	227.81
856.61	227.81
856.92	227.84
857.23	227.81
857.55	227.80
857.86	227.79
858.17	227.79
858.48	227.76
858.79	227.78
859.11	227.77
859.42	227.76
859.73	227.73
860.04	227.71
860.35	227.68
860.66	227.63
860.98	227.63
861.29	227.64
861.60	227.62
861.91	227.65
862.22	227.62
862.53	227.61
862.84	227.50
863.16	227.51
863.47	227.49
863.78	227.51
864.09	227.51
864.40	227.52
864.71	227.53
865.02	227.53
865.33	227.52
865.64	227.49
865.95	227.48
866.27	227.56
866.58	227.59
866.89	227.62
867.20	227.64
867.51	227.62
867.82	227.61
868.13	227.64
868.44	227.62
868.75	227.61
869.06	227.58
869.37	227.58
869.68	227.56
869.99	227.53
870.30	227.52
870.61	227.52
870.92	227.50
871.23	227.45
871.54	227.50
871.85	227.51
872.16	227.51
872.47	227.50
872.78	227.43
873.09	227.41
873.40	227.40
873.71	227.43
874.02	227.46
874.33	227.44
874.64	227.46
874.95	227.49
875.26	227.50
875.56	227.49
875.87	227.51
876.18	227.52
876.49	227.64
876.80	227.61
877.11	227.58
877.42	227.58
877.73	227.61
878.04	227.60
878.35	227.61
878.66	227.63
878.96	227.64
879.27	227.63
879.58	227.62
879.89	227.62
880.20	227.61
880.51	227.59
880.82	227.60
881.12	227.59
881.43	227.56
881.74	227.53
882.05	227.55
882.36	227.53
882.67	227.51
882.97	227.40
883.28	227.41
883.59	227.42
883.90	227.44
884.21	227.43
884.51	227.41
884.82	227.36
885.13	227.37
885.44	227.35
885.74	227.38
886.05	227.38
886.36	227.40
886.67	227.40
886.98	227.46
887.28	227.46
887.59	227.48
887.90	227.47
888.20	227.49
888.51	227.49
888.82	227.50
889.13	227.52
889.43	227.60
889.74	227.61
890.05	227.60
890.35	227.57
890.66	227.56
890.97	227.55
891.28	227.58
891.58	227.57
891.89	227.60
892.20	227.55
892.50	227.53
892.81	227.49
893.12	227.46
893.42	227.42
893.73	227.40
894.04	227.38
894.34	227.38
894.65	227.36
894.95	227.34
895.26	227.35
895.57	227.34
895.87	227.27
896.18	227.28
896.48	227.31
896.79	227.28
897.10	227.27
897.40	227.27
897.71	227.24
898.01	227.19
898.32	227.17
898.63	227.18
898.93	227.20
899.24	227.23
899.54	227.21
899.85	227.20
900.15	227.19
900.46	227.17
900.76	227.19
901.07	227.20
901.38	227.17
901.68	227.15
901.99	227.11
902.29	227.11
902.60	227.08
902.90	227.03
903.21	227.08
903.51	227.08
903.82	227.10
904.12	227.10
904.43	227.12
904.73	227.12
905.03	227.11
905.34	227.20
905.64	227.18
905.95	227.19
906.25	227.18
906.56	227.19
906.86	227.18
907.17	227.16
907.47	227.16
907.77	227.18
908.08	227.14
908.38	227.20
908.69	227.20
908.99	227.20
909.30	227.22
909.60	227.21
909.90	227.21
910.21	227.19
910.51	227.19
910.81	227.20
911.12	227.22
911.42	227.23
911.73	227.13
912.03	227.12
912.33	227.13
912.64	227.14
912.94	227.15
913.24	227.15
913.55	227.12
913.85	227.10
914.15	227.10
914.46	227.13
914.76	227.08
915.06	227.05
915.37	227.03
915.67	227.01
915.97	227.02
916.27	227.01
916.58	227.00
916.88	226.99
917.18	226.99
917.49	227.04
917.79	227.01
918.09	227.03
918.39	227.05
918.70	227.04
919.00	227.06
919.30	227.09
919.60	227.09
919.91	227.11
920.21	227.13
920.51	227.10
920.81	227.12
921.12	227.14
921.42	227.13
921.72	227.17
922.02	227.19
922.32	227.19
922.63	227.19
922.93	227.24
923.23	227.25
923.53	227.19
923.83	227.12
924.13	227.15
924.44	227.15
924.74	227.19
925.04	227.23
925.34	227.20
925.64	227.19
925.94	227.17
926.24	227.23
926.55	227.22
926.85	227.25
927.15	227.24
927.45	227.27
927.75	227.28
928.05	227.26
928.35	227.25
928.65	227.26
928.95	227.27
929.26	227.21
929.56	227.24
929.86	227.28
930.16	227.30
930.46	227.27
930.76	227.28
931.06	227.22
931.36	227.19
931.66	227.22
931.96	227.23
932.26	227.24
932.56	227.19
932.86	227.21
933.16	227.23
933.46	227.21
933.76	227.17
934.06	227.19
934.36	227.23
934.66	227.23
934.96	227.22
935.26	227.26
935.56	227.25
935.86	227.19
936.16	227.21
936.46	227.20
936.76	227.21
937.06	227.19
937.36	227.18
937.66	227.19
937.96	227.17
938.26	227.11
938.56	227.11
938.86	227.09
939.16	227.09
939.46	227.10
939.76	227.08
940.06	227.07
940.35	227.05
940.65	226.98
940.95	227.00
941.25	227.00
941.55	226.96
941.85	226.96
942.15	227.01
942.45	227.02
942.75	227.00
943.04	226.97
943.34	226.98
943.64	226.95
943.94	226.94
944.24	226.92
944.54	226.92
944.84	226.88
945.13	226.88
945.43	226.87
945.73	226.84
946.03	226.85
946.33	226.85
946.62	226.82
946.92	226.84
947.22	226.83
947.52	226.81
947.82	226.82
948.11	226.82
948.41	226.81
948.71	226.78
949.01	226.80
949.31	226.83
949.60	226.82
949.90	226.88
950.20	226.85
950.50	226.87
950.79	226.87
951.09	226.92
951.39	226.91
951.69	226.92
951.98	226.95
952.28	226.95
952.58	226.96
952.87	227.00
953.17	227.00
953.47	227.01
953.76	227.01
954.06	227.00
954.36	226.99
954.66	226.97
954.95	227.04
955.25	227.02
955.55	227.02
955.84	227.03
956.14	227.01
956.44	227.05
956.73	227.03
957.03	227.04
957.32	227.03
957.62	227.05
957.92	227.05
958.21	227.04
958.51	227.14
958.81	227.17
959.10	227.15
959.40	227.18
959.69	227.16
959.99	227.17
960.29	227.15
960.58	227.15
960.88	227.14
961.17	227.11
961.47	227.15
961.76	227.14
962.06	227.17
962.36	227.18
962.65	227.17
962.95	227.16
963.24	227.16
963.54	227.15
963.83	227.15
964.13	227.16
964.42	227.12
964.72	227.05
965.01	227.06
965.31	227.04
965.60	227.00
965.90	227.07
966.19	227.04
966.49	227.06
966.78	227.04
967.08	227.05
967.37	227.06
967.67	227.03
967.96	227.01
968.26	226.98
968.55	226.98
968.85	226.97
969.14	227.02
969.43	227.03
969.73	227.04
970.02	227.02
970.32	227.00
970.61	227.01
970.91	227.01
971.20	227.01
971.49	227.02
971.79	227.05
972.08	226.95
972.38	226.97
972.67	226.97
972.96	226.99
973.26	227.00
973.55	227.02
973.85	226.99
974.14	227.02
974.43	227.00
974.73	226.98
975.02	227.01
975.31	226.96
975.61	226.93
975.90	226.90
976.19	226.88
976.49	226.87
976.78	226.89
977.07	226.86
977.37	226.83
977.66	226.85
977.95	226.84
978.24	226.88
978.54	226.89
978.83	226.90
979.12	226.87
979.42	226.84
979.71	226.80
980.00	226.79
980.29	226.80
980.59	226.81
980.88	226.83
981.17	226.82
981.46	226.81
981.76	226.86
982.05	226.88
982.34	226.89
982.63	226.89
982.93	226.89
983.22	226.93
983.51	226.96
983.80	226.94
984.09	226.97
984.39	226.95
984.68	226.92
984.97	226.95
985.26	226.97
985.55	227.00
985.85	226.97
986.14	227.00
986.43	226.96
986.72	226.96
987.01	226.94
987.30	226.92
987.59	226.91
987.89	226.91
988.18	226.87
988.47	226.87
988.76	226.87
989.05	226.85
989.34	226.83
989.63	226.83
989.92	226.85
990.22	226.80
990.51	226.80
990.80	226.83
991.09	226.80
991.38	226.80
991.67	226.79
991.96	226.84
992.25	226.85
992.54	226.83
992.83	226.84
993.12	226.88
993.41	226.91
993.70	226.94
993.99	226.96
994.28	227.00
994.58	227.05
994.87	227.05
995.16	227.04
995.45	227.03
995.74	227.02
996.03	227.03
996.32	227.07
996.61	227.11
996.90	227.11
997.19	227.13
997.48	227.13
997.77	227.14
998.06	227.11
998.34	227.11
998.63	227.17
998.92	227.16
999.21	227.15
999.50	227.15
999.79	227.18
1000.08	227.13
1000.37	227.11
1000.66	227.08
1000.95	227.10
1001.24	227.13
1001.53	227.13
1001.82	227.13
1002.11	227.10
1002.40	227.12
1002.68	227.10
1002.97	227.15
1003.26	227.14
1003.55	227.14
1003.84	227.14
1004.13	227.18
1004.42	227.19
1004.71	227.15
1004.99	227.15
1005.28	227.16
1005.57	227.18
1005.86	227.16
1006.15	227.17
1006.44	227.17
1006.72	227.20
1007.01	227.18
1007.30	227.18
1007.59	227.18
1007.88	227.16
1008.17	227.15
1008.45	227.13
1008.74	227.09
1009.03	227.04
1009.32	227.01
1009.60	227.02
1009.89	227.00
1010.18	226.99
1010.47	226.94
1010.76	226.95
1011.04	226.92
1011.33	226.93
1011.62	226.92
1011.91	226.92
1012.19	226.91
1012.48	226.91
1012.77	226.89
1013.05	226.93
1013.34	226.91
1013.63	226.88
1013.92	226.89
1014.20	226.87
1014.49	226.87
1014.78	226.87
1015.06	226.84
1015.35	226.87
1015.64	226.87
1015.92	226.88
1016.21	226.87
1016.50	226.90
1016.78	226.91
1017.07	226.92
1017.36	226.90
1017.64	226.87
1017.93	226.88
1018.22	226.89
1018.50	226.91
1018.79	226.92
1019.08	226.86
1019.36	226.89
1019.65	226.90
1019.93	226.95
1020.22	226.99
1020.51	227.05
1020.79	227.07
1021.08	226.97
1021.36	227.02
1021.65	226.99
1021.94	226.78
1022.22	227.08
1022.51	226.87
1022.79	227.55
1023.08	227.31
1023.36	228.41
1023.65	226.91
>>>>>End Processed Spectral Data<<<<<
