SpectraSuite Data File
++++++++++++++++++++++++++++++++++++
Date: Fri Feb 01 15:39:45 EST 2013
User: group
Dark Spectrum Present: No
Reference Spectrum Present: No
Number of Sampled Component Spectra: 1
Spectrometers: USB2E7196
Integration Time (usec): 35000 (USB2E7196)
Spectra Averaged: 100 (USB2E7196)
Boxcar Smoothing: 10 (USB2E7196)
Correct for Electrical Dark: No (USB2E7196)
Strobe/Lamp Enabled: No (USB2E7196)
Correct for Detector Non-linearity: No (USB2E7196)
Correct for Stray Light: No (USB2E7196)
Number of Pixels in Processed Spectrum: 2048
>>>>>Begin Processed Spectral Data<<<<<
339.09	0.00
339.48	214.39
339.86	216.61
340.24	217.46
340.63	219.57
341.01	221.87
341.39	221.66
341.78	222.77
342.16	224.10
342.54	225.47
342.93	213.20
343.31	223.96
343.69	224.52
344.07	224.97
344.46	225.41
344.84	225.76
345.22	226.00
345.60	226.28
345.99	226.50
346.37	226.64
346.75	226.71
347.13	226.76
347.52	226.86
347.90	226.95
348.28	226.96
348.66	227.01
349.05	227.05
349.43	227.09
349.81	227.13
350.19	227.20
350.57	227.27
350.96	227.37
351.34	227.46
351.72	227.57
352.10	227.64
352.48	227.69
352.87	227.77
353.25	227.83
353.63	227.88
354.01	227.94
354.39	228.04
354.77	228.11
355.15	228.22
355.54	228.25
355.92	228.26
356.30	228.34
356.68	228.46
357.06	228.51
357.44	228.56
357.82	228.62
358.20	228.68
358.58	228.69
358.97	228.75
359.35	228.84
359.73	228.89
360.11	228.98
360.49	229.04
360.87	229.06
361.25	229.10
361.63	229.17
362.01	229.20
362.39	229.18
362.77	229.23
363.15	229.24
363.53	229.25
363.91	229.30
364.29	229.31
364.67	229.27
365.05	229.29
365.43	229.33
365.81	229.34
366.19	229.36
366.57	229.39
366.95	229.36
367.33	229.31
367.71	229.26
368.09	229.24
368.47	229.21
368.85	229.21
369.23	229.21
369.61	229.14
369.99	229.15
370.37	229.14
370.75	229.14
371.13	229.08
371.51	229.02
371.89	228.97
372.27	228.93
372.65	228.87
373.03	228.81
373.41	228.68
373.78	228.60
374.16	228.50
374.54	228.43
374.92	228.39
375.30	228.34
375.68	228.25
376.06	228.18
376.44	228.10
376.82	228.02
377.19	227.94
377.57	227.86
377.95	227.72
378.33	227.64
378.71	227.49
379.09	227.44
379.47	227.37
379.84	227.29
380.22	227.19
380.60	227.08
380.98	227.03
381.36	226.98
381.73	226.90
382.11	226.81
382.49	226.76
382.87	226.65
383.25	226.57
383.62	226.66
384.00	226.60
384.38	226.56
384.76	226.52
385.13	226.50
385.51	226.43
385.89	226.41
386.27	226.37
386.64	226.35
387.02	226.30
387.40	226.27
387.78	226.27
388.15	226.27
388.53	226.27
388.91	226.24
389.29	226.25
389.66	226.29
390.04	226.29
390.42	226.29
390.79	226.28
391.17	226.30
391.55	226.21
391.92	226.19
392.30	226.22
392.68	226.18
393.05	226.17
393.43	226.21
393.81	226.21
394.18	226.21
394.56	226.21
394.94	226.26
395.31	226.26
395.69	226.31
396.06	226.34
396.44	226.37
396.82	226.40
397.19	226.49
397.57	226.50
397.95	226.59
398.32	226.60
398.70	226.68
399.07	226.77
399.45	226.80
399.82	226.89
400.20	226.93
400.58	227.04
400.95	227.10
401.33	227.16
401.70	227.33
402.08	227.42
402.45	227.54
402.83	227.66
403.20	227.79
403.58	227.90
403.95	228.03
404.33	228.14
404.71	228.29
405.08	228.47
405.46	228.60
405.83	228.74
406.21	228.89
406.58	229.06
406.96	229.23
407.33	229.41
407.70	229.62
408.08	229.92
408.45	230.13
408.83	230.36
409.20	230.60
409.58	230.78
409.95	231.04
410.33	231.29
410.70	231.53
411.08	231.84
411.45	232.13
411.82	232.43
412.20	232.78
412.57	233.19
412.95	233.47
413.32	233.85
413.69	234.26
414.07	234.71
414.44	235.15
414.82	235.60
415.19	236.16
415.56	236.64
415.94	237.16
416.31	237.80
416.68	238.40
417.06	239.12
417.43	239.79
417.81	240.55
418.18	241.33
418.55	242.17
418.93	243.02
419.30	243.91
419.67	244.84
420.04	245.81
420.42	246.80
420.79	247.95
421.16	249.11
421.54	250.30
421.91	251.51
422.28	252.76
422.66	254.09
423.03	255.39
423.40	256.75
423.77	258.18
424.15	259.63
424.52	261.14
424.89	262.74
425.26	264.30
425.64	265.76
426.01	267.37
426.38	269.00
426.75	270.69
427.13	272.38
427.50	274.18
427.87	276.03
428.24	277.87
428.61	279.65
428.99	281.59
429.36	283.69
429.73	285.74
430.10	287.76
430.47	289.85
430.85	291.97
431.22	294.23
431.59	296.60
431.96	298.83
432.33	301.30
432.70	303.70
433.08	306.54
433.45	309.16
433.82	311.81
434.19	314.70
434.56	317.53
434.93	320.24
435.30	322.87
435.68	325.81
436.05	328.66
436.42	331.45
436.79	333.92
437.16	336.62
437.53	339.52
437.90	342.33
438.27	345.05
438.64	347.91
439.01	350.51
439.38	352.76
439.75	354.91
440.13	357.45
440.50	359.79
440.87	361.66
441.24	363.65
441.61	365.82
441.98	367.35
442.35	369.14
442.72	371.02
443.09	372.80
443.46	373.76
443.83	374.38
444.20	374.91
444.57	375.80
444.94	376.12
445.31	376.45
445.68	376.82
446.05	376.91
446.42	376.52
446.79	376.09
447.16	375.64
447.53	375.33
447.90	374.15
448.27	373.00
448.64	371.39
449.01	370.23
449.37	368.23
449.74	366.27
450.11	364.05
450.48	361.54
450.85	359.01
451.22	356.84
451.59	354.79
451.96	352.83
452.33	350.21
452.70	347.85
453.07	344.97
453.43	342.05
453.80	339.26
454.17	336.60
454.54	334.08
454.91	331.35
455.28	328.64
455.65	326.16
456.02	323.66
456.38	321.49
456.75	318.84
457.12	316.58
457.49	314.41
457.86	312.22
458.23	310.37
458.59	308.36
458.96	306.30
459.33	304.46
459.70	302.60
460.07	301.11
460.43	299.36
460.80	297.76
461.17	296.33
461.54	294.87
461.91	293.41
462.27	291.92
462.64	290.69
463.01	289.39
463.38	288.09
463.74	286.71
464.11	285.59
464.48	284.56
464.85	283.45
465.21	282.57
465.58	281.61
465.95	280.50
466.32	279.59
466.68	278.67
467.05	277.78
467.42	276.89
467.78	275.95
468.15	275.08
468.52	274.38
468.88	273.53
469.25	272.71
469.62	272.07
469.98	271.41
470.35	270.73
470.72	270.11
471.08	269.47
471.45	268.96
471.82	268.38
472.18	267.80
472.55	267.34
472.92	266.84
473.28	266.40
473.65	265.97
474.02	265.51
474.38	265.15
474.75	264.78
475.11	264.44
475.48	264.15
475.85	263.92
476.21	263.70
476.58	263.51
476.94	263.37
477.31	263.19
477.67	263.00
478.04	262.90
478.41	262.82
478.77	262.84
479.14	262.77
479.50	262.81
479.87	262.88
480.23	262.99
480.60	263.06
480.96	263.13
481.33	263.32
481.69	263.53
482.06	263.77
482.42	263.98
482.79	264.23
483.15	264.59
483.52	264.97
483.88	265.33
484.25	265.69
484.61	266.15
484.98	266.62
485.34	267.21
485.71	267.78
486.07	268.43
486.44	269.01
486.80	269.73
487.17	270.43
487.53	271.24
487.90	272.06
488.26	272.99
488.62	273.96
488.99	274.96
489.35	275.99
489.72	277.12
490.08	278.32
490.44	279.56
490.81	280.88
491.17	282.23
491.54	283.70
491.90	285.30
492.26	286.92
492.63	288.67
492.99	290.48
493.36	292.40
493.72	294.41
494.08	296.54
494.45	298.74
494.81	301.06
495.17	303.47
495.54	306.05
495.90	308.73
496.26	311.57
496.63	314.54
496.99	317.67
497.35	320.92
497.72	324.27
498.08	327.81
498.44	331.49
498.80	335.41
499.17	339.47
499.53	343.61
499.89	348.03
500.26	352.53
500.62	357.17
500.98	362.14
501.34	367.23
501.71	372.53
502.07	378.00
502.43	383.68
502.79	389.50
503.16	395.56
503.52	401.85
503.88	408.29
504.24	414.94
504.60	421.84
504.97	428.99
505.33	436.38
505.69	444.04
506.05	451.79
506.41	459.64
506.78	467.74
507.14	476.20
507.50	484.89
507.86	493.89
508.22	503.13
508.59	512.35
508.95	521.89
509.31	531.66
509.67	541.79
510.03	552.06
510.39	562.62
510.75	573.37
511.12	584.28
511.48	595.52
511.84	606.92
512.20	618.39
512.56	630.27
512.92	642.41
513.28	654.72
513.64	667.18
514.00	679.89
514.37	692.88
514.73	705.94
515.09	718.96
515.45	732.32
515.81	745.76
516.17	759.82
516.53	773.96
516.89	788.15
517.25	802.25
517.61	816.66
517.97	831.14
518.33	845.60
518.69	860.38
519.05	875.36
519.41	890.56
519.77	906.14
520.13	921.58
520.49	936.97
520.85	952.45
521.21	968.25
521.57	984.48
521.93	1000.21
522.29	1016.68
522.65	1032.91
523.01	1049.07
523.37	1065.22
523.73	1081.26
524.09	1097.30
524.45	1113.71
524.81	1130.49
525.17	1147.40
525.53	1164.24
525.89	1181.24
526.25	1198.01
526.61	1214.46
526.97	1231.18
527.33	1247.71
527.68	1264.36
528.04	1280.91
528.40	1297.50
528.76	1314.58
529.12	1331.31
529.48	1348.28
529.84	1364.21
530.20	1380.94
530.56	1398.03
530.91	1415.45
531.27	1432.28
531.63	1448.88
531.99	1465.39
532.35	1481.25
532.71	1497.12
533.07	1513.48
533.42	1529.40
533.78	1545.57
534.14	1561.90
534.50	1577.30
534.86	1593.18
535.21	1608.57
535.57	1624.57
535.93	1640.19
536.29	1654.91
536.65	1669.95
537.00	1684.62
537.36	1699.99
537.72	1714.49
538.08	1728.86
538.44	1742.54
538.79	1756.51
539.15	1770.15
539.51	1783.98
539.87	1798.38
540.22	1812.05
540.58	1825.89
540.94	1839.19
541.29	1852.09
541.65	1864.66
542.01	1877.96
542.37	1890.25
542.72	1902.50
543.08	1914.17
543.44	1926.54
543.79	1937.89
544.15	1948.91
544.51	1960.55
544.87	1971.45
545.22	1982.22
545.58	1992.44
545.94	2002.39
546.29	2012.32
546.65	2022.15
547.01	2031.29
547.36	2040.17
547.72	2048.83
548.07	2056.66
548.43	2064.83
548.79	2072.88
549.14	2080.46
549.50	2087.80
549.86	2095.52
550.21	2102.89
550.57	2110.06
550.92	2116.63
551.28	2123.65
551.64	2130.79
551.99	2137.33
552.35	2143.46
552.70	2149.62
553.06	2155.67
553.41	2161.97
553.77	2167.87
554.13	2174.08
554.48	2180.36
554.84	2185.68
555.19	2190.85
555.55	2195.82
555.90	2200.17
556.26	2204.98
556.61	2209.78
556.97	2213.79
557.32	2217.86
557.68	2222.01
558.03	2226.42
558.39	2230.11
558.74	2234.85
559.10	2238.51
559.45	2242.16
559.81	2246.62
560.16	2250.47
560.52	2253.56
560.87	2257.04
561.23	2259.66
561.58	2262.62
561.94	2265.05
562.29	2267.44
562.64	2270.04
563.00	2272.79
563.35	2276.36
563.71	2279.61
564.06	2282.80
564.42	2285.73
564.77	2288.26
565.12	2290.35
565.48	2292.15
565.83	2294.05
566.19	2295.13
566.54	2296.12
566.89	2297.14
567.25	2297.64
567.60	2298.92
567.96	2300.69
568.31	2301.47
568.66	2302.59
569.02	2303.06
569.37	2303.34
569.72	2304.08
570.08	2304.23
570.43	2304.29
570.78	2303.66
571.14	2302.05
571.49	2300.59
571.84	2300.43
572.20	2299.22
572.55	2298.22
572.90	2296.56
573.26	2295.23
573.61	2293.58
573.96	2291.84
574.31	2288.87
574.67	2285.81
575.02	2282.32
575.37	2278.82
575.72	2274.98
576.08	2271.66
576.43	2268.11
576.78	2264.43
577.13	2261.29
577.49	2258.27
577.84	2254.62
578.19	2250.84
578.54	2247.21
578.90	2242.93
579.25	2237.34
579.60	2232.37
579.95	2227.49
580.30	2222.54
580.66	2217.18
581.01	2212.27
581.36	2207.29
581.71	2203.23
582.06	2198.68
582.42	2194.06
582.77	2188.86
583.12	2184.21
583.47	2179.41
583.82	2174.40
584.17	2169.20
584.53	2163.63
584.88	2157.92
585.23	2152.25
585.58	2146.93
585.93	2141.40
586.28	2136.75
586.63	2131.62
586.98	2126.47
587.34	2121.65
587.69	2116.68
588.04	2111.33
588.39	2105.59
588.74	2099.10
589.09	2092.82
589.44	2086.03
589.79	2080.02
590.14	2074.44
590.49	2067.92
590.84	2061.57
591.19	2055.69
591.54	2049.21
591.89	2041.71
592.25	2034.83
592.60	2027.53
592.95	2019.78
593.30	2012.35
593.65	2004.73
594.00	1997.71
594.35	1990.56
594.70	1982.57
595.05	1975.33
595.40	1968.08
595.75	1960.54
596.10	1954.29
596.45	1947.54
596.80	1941.40
597.15	1934.67
597.50	1927.47
597.85	1920.98
598.19	1914.09
598.54	1906.85
598.89	1900.18
599.24	1894.45
599.59	1887.74
599.94	1881.53
600.29	1875.10
600.64	1868.53
600.99	1860.92
601.34	1853.98
601.69	1847.02
602.04	1839.99
602.39	1832.66
602.74	1825.79
603.08	1819.02
603.43	1812.29
603.78	1804.91
604.13	1797.60
604.48	1790.21
604.83	1783.43
605.18	1776.38
605.53	1768.55
605.87	1760.54
606.22	1753.26
606.57	1745.25
606.92	1737.94
607.27	1730.74
607.62	1723.88
607.96	1716.57
608.31	1710.03
608.66	1702.34
609.01	1694.60
609.36	1687.02
609.70	1678.94
610.05	1670.80
610.40	1663.06
610.75	1654.61
611.10	1646.92
611.44	1638.61
611.79	1630.73
612.14	1621.92
612.49	1612.81
612.83	1604.42
613.18	1596.42
613.53	1588.36
613.88	1579.79
614.22	1571.46
614.57	1562.70
614.92	1554.68
615.27	1547.04
615.61	1538.68
615.96	1530.69
616.31	1523.19
616.65	1515.85
617.00	1508.43
617.35	1500.87
617.70	1492.53
618.04	1484.11
618.39	1475.94
618.74	1468.28
619.08	1459.96
619.43	1452.49
619.78	1445.56
620.12	1438.33
620.47	1430.72
620.82	1422.51
621.16	1415.19
621.51	1407.64
621.85	1400.10
622.20	1391.58
622.55	1383.29
622.89	1375.47
623.24	1367.96
623.59	1360.61
623.93	1353.09
624.28	1345.73
624.62	1338.25
624.97	1331.10
625.32	1324.47
625.66	1317.54
626.01	1310.41
626.35	1302.93
626.70	1295.14
627.04	1287.41
627.39	1279.67
627.73	1272.29
628.08	1265.33
628.43	1257.98
628.77	1250.58
629.12	1243.03
629.46	1235.78
629.81	1228.40
630.15	1221.15
630.50	1213.64
630.84	1205.36
631.19	1197.39
631.53	1190.01
631.88	1182.36
632.22	1174.74
632.57	1167.28
632.91	1159.61
633.26	1152.19
633.60	1144.89
633.95	1137.83
634.29	1130.83
634.64	1124.20
634.98	1116.84
635.32	1109.82
635.67	1103.20
636.01	1096.64
636.36	1089.84
636.70	1083.47
637.05	1076.91
637.39	1070.45
637.73	1063.94
638.08	1058.05
638.42	1052.14
638.77	1045.63
639.11	1039.12
639.45	1032.78
639.80	1026.19
640.14	1019.81
640.49	1013.26
640.83	1006.92
641.17	1000.60
641.52	994.21
641.86	987.75
642.20	981.83
642.55	975.45
642.89	968.96
643.23	962.38
643.58	956.58
643.92	950.32
644.26	944.14
644.61	938.15
644.95	932.16
645.29	925.60
645.64	918.82
645.98	912.41
646.32	906.53
646.66	900.46
647.01	894.55
647.35	888.83
647.69	882.99
648.04	877.47
648.38	871.70
648.72	865.69
649.06	859.55
649.41	853.69
649.75	847.66
650.09	841.66
650.43	835.88
650.78	829.74
651.12	823.77
651.46	818.08
651.80	812.23
652.14	806.79
652.49	801.39
652.83	796.22
653.17	790.54
653.51	784.69
653.85	779.33
654.20	773.69
654.54	767.64
654.88	761.93
655.22	756.08
655.56	750.40
655.90	745.01
656.25	739.84
656.59	734.48
656.93	729.42
657.27	724.30
657.61	718.82
657.95	713.79
658.29	708.75
658.64	703.48
658.98	698.25
659.32	692.85
659.66	687.62
660.00	682.28
660.34	677.37
660.68	672.55
661.02	667.54
661.36	662.91
661.70	658.50
662.05	654.15
662.39	649.78
662.73	645.32
663.07	640.94
663.41	636.48
663.75	631.96
664.09	627.42
664.43	623.08
664.77	619.00
665.11	614.63
665.45	610.48
665.79	606.47
666.13	602.36
666.47	598.29
666.81	594.24
667.15	590.20
667.49	586.32
667.83	582.54
668.17	578.53
668.51	574.45
668.85	570.36
669.19	566.50
669.53	562.69
669.87	558.84
670.21	555.10
670.55	551.47
670.89	548.10
671.23	544.71
671.57	541.18
671.91	537.66
672.25	534.24
672.58	530.80
672.92	527.42
673.26	524.20
673.60	521.01
673.94	517.87
674.28	514.94
674.62	511.97
674.96	508.88
675.30	505.95
675.64	503.09
675.97	500.32
676.31	497.47
676.65	494.55
676.99	491.82
677.33	489.02
677.67	486.21
678.01	483.18
678.34	480.15
678.68	477.26
679.02	474.37
679.36	471.62
679.70	468.88
680.04	466.11
680.37	463.24
680.71	460.44
681.05	457.89
681.39	455.18
681.73	452.55
682.06	450.00
682.40	447.55
682.74	444.97
683.08	442.43
683.42	439.82
683.75	437.30
684.09	434.79
684.43	432.25
684.77	429.74
685.10	427.39
685.44	425.11
685.78	422.84
686.12	420.65
686.45	418.34
686.79	415.97
687.13	413.75
687.46	411.56
687.80	409.41
688.14	407.11
688.48	405.06
688.81	402.81
689.15	400.68
689.49	398.48
689.82	396.39
690.16	394.34
690.50	392.37
690.83	390.43
691.17	388.45
691.51	386.54
691.84	384.70
692.18	382.74
692.52	380.76
692.85	378.81
693.19	376.90
693.52	375.11
693.86	373.34
694.20	371.58
694.53	369.85
694.87	367.99
695.21	366.24
695.54	364.37
695.88	362.67
696.21	360.93
696.55	359.29
696.88	357.62
697.22	355.97
697.56	354.37
697.89	352.70
698.23	351.07
698.56	349.48
698.90	347.90
699.23	346.23
699.57	344.69
699.90	343.17
700.24	341.63
700.58	340.07
700.91	338.60
701.25	337.14
701.58	335.75
701.92	334.40
702.25	333.03
702.59	331.67
702.92	330.29
703.26	329.02
703.59	327.71
703.93	326.50
704.26	325.28
704.60	323.96
704.93	322.75
705.26	321.50
705.60	320.34
705.93	319.21
706.27	318.21
706.60	317.12
706.94	316.05
707.27	314.93
707.61	313.87
707.94	312.80
708.27	311.71
708.61	310.64
708.94	309.61
709.28	308.62
709.61	307.65
709.94	306.74
710.28	305.68
710.61	304.71
710.95	303.65
711.28	302.66
711.61	301.74
711.95	300.80
712.28	299.87
712.61	298.89
712.95	297.96
713.28	297.09
713.61	296.22
713.95	295.31
714.28	294.52
714.61	293.68
714.95	292.85
715.28	292.00
715.61	291.14
715.95	290.31
716.28	289.43
716.61	288.62
716.95	287.84
717.28	287.09
717.61	286.34
717.94	285.60
718.28	284.86
718.61	284.12
718.94	283.41
719.27	282.74
719.61	282.09
719.94	281.38
720.27	280.66
720.60	280.00
720.94	279.40
721.27	278.79
721.60	278.24
721.93	277.64
722.27	277.11
722.60	276.55
722.93	275.97
723.26	275.45
723.59	274.89
723.93	274.32
724.26	273.77
724.59	273.21
724.92	272.68
725.25	272.17
725.59	271.66
725.92	271.16
726.25	270.63
726.58	270.11
726.91	269.63
727.24	269.19
727.57	268.74
727.91	268.24
728.24	267.76
728.57	267.25
728.90	266.81
729.23	266.27
729.56	265.81
729.89	265.35
730.22	264.85
730.55	264.39
730.89	263.94
731.22	263.49
731.55	263.04
731.88	262.61
732.21	262.18
732.54	261.73
732.87	261.31
733.20	260.88
733.53	260.50
733.86	260.14
734.19	259.73
734.52	259.31
734.85	258.99
735.18	258.55
735.51	258.19
735.84	257.80
736.17	257.49
736.50	257.09
736.83	256.86
737.16	256.52
737.49	256.18
737.82	255.80
738.15	255.47
738.48	255.16
738.81	254.85
739.14	254.53
739.47	254.23
739.80	253.90
740.13	253.62
740.46	253.30
740.79	252.96
741.12	252.62
741.45	252.32
741.78	251.96
742.11	251.68
742.44	251.31
742.77	251.05
743.10	250.72
743.43	250.42
743.75	250.05
744.08	249.93
744.41	249.66
744.74	249.42
745.07	249.09
745.40	248.82
745.73	248.56
746.06	248.28
746.39	248.01
746.71	247.76
747.04	247.50
747.37	247.28
747.70	247.02
748.03	246.78
748.36	246.54
748.68	246.32
749.01	246.10
749.34	245.91
749.67	245.63
750.00	245.44
750.33	245.33
750.65	245.09
750.98	244.75
751.31	244.50
751.64	244.28
751.97	244.16
752.29	243.95
752.62	243.71
752.95	243.52
753.28	243.30
753.60	243.09
753.93	242.91
754.26	242.69
754.59	242.47
754.91	242.27
755.24	242.06
755.57	241.88
755.90	241.68
756.22	241.50
756.55	241.31
756.88	241.11
757.20	240.83
757.53	240.65
757.86	240.48
758.19	240.32
758.51	240.15
758.84	239.94
759.17	239.73
759.49	239.59
759.82	239.47
760.15	239.33
760.47	239.18
760.80	239.01
761.13	238.87
761.45	238.75
761.78	238.62
762.11	238.50
762.43	238.30
762.76	238.15
763.08	237.99
763.41	237.85
763.74	237.73
764.06	237.61
764.39	237.46
764.71	237.34
765.04	237.23
765.37	237.12
765.69	237.00
766.02	236.91
766.34	236.79
766.67	236.64
767.00	236.55
767.32	236.48
767.65	236.44
767.97	236.32
768.30	236.19
768.62	236.07
768.95	235.98
769.27	235.88
769.60	235.80
769.92	235.69
770.25	235.59
770.57	235.48
770.90	235.36
771.22	235.27
771.55	235.12
771.87	235.02
772.20	234.96
772.52	234.94
772.85	234.95
773.17	234.83
773.50	234.76
773.82	234.63
774.15	234.50
774.47	234.34
774.80	234.26
775.12	234.19
775.45	234.10
775.77	234.00
776.09	233.99
776.42	233.90
776.74	233.84
777.07	233.73
777.39	233.65
777.72	233.59
778.04	233.53
778.36	233.48
778.69	233.39
779.01	233.28
779.33	233.13
779.66	232.95
779.98	232.88
780.31	232.80
780.63	232.76
780.95	232.72
781.28	232.63
781.60	232.57
781.92	232.49
782.25	232.45
782.57	232.36
782.89	232.28
783.22	232.21
783.54	232.19
783.86	232.17
784.19	232.09
784.51	232.04
784.83	231.98
785.16	231.95
785.48	231.92
785.80	231.88
786.12	231.85
786.45	231.81
786.77	231.81
787.09	231.70
787.42	231.62
787.74	231.57
788.06	231.59
788.38	231.52
788.71	231.44
789.03	231.40
789.35	231.36
789.67	231.28
789.99	231.23
790.32	231.15
790.64	231.11
790.96	231.18
791.28	231.10
791.61	231.05
791.93	231.00
792.25	230.94
792.57	230.98
792.89	230.92
793.21	230.85
793.54	230.80
793.86	230.80
794.18	230.77
794.50	230.70
794.82	230.65
795.14	230.62
795.47	230.64
795.79	230.59
796.11	230.55
796.43	230.51
796.75	230.48
797.07	230.45
797.39	230.42
797.71	230.29
798.04	230.28
798.36	230.25
798.68	230.21
799.00	230.17
799.32	230.03
799.64	230.03
799.96	230.00
800.28	229.99
800.60	229.95
800.92	229.93
801.24	229.89
801.56	229.87
801.89	229.79
802.21	229.77
802.53	229.70
802.85	229.67
803.17	229.68
803.49	229.65
803.81	229.60
804.13	229.56
804.45	229.52
804.77	229.48
805.09	229.42
805.41	229.38
805.73	229.34
806.05	229.33
806.37	229.30
806.69	229.28
807.01	229.21
807.33	229.18
807.65	229.15
807.97	229.17
808.28	229.13
808.60	229.12
808.92	229.10
809.24	229.16
809.56	229.11
809.88	229.07
810.20	229.05
810.52	229.02
810.84	228.99
811.16	228.96
811.48	228.91
811.80	228.94
812.12	228.90
812.43	228.92
812.75	228.93
813.07	228.88
813.39	228.87
813.71	228.86
814.03	228.82
814.35	228.78
814.67	228.73
814.98	228.71
815.30	228.67
815.62	228.64
815.94	228.57
816.26	228.64
816.58	228.59
816.89	228.60
817.21	228.62
817.53	228.60
817.85	228.59
818.17	228.58
818.48	228.54
818.80	228.55
819.12	228.48
819.44	228.47
819.76	228.46
820.07	228.45
820.39	228.42
820.71	228.43
821.03	228.43
821.34	228.42
821.66	228.42
821.98	228.43
822.30	228.40
822.61	228.41
822.93	228.31
823.25	228.32
823.57	228.28
823.88	228.25
824.20	228.23
824.52	228.23
824.83	228.25
825.15	228.23
825.47	228.21
825.79	228.22
826.10	228.17
826.42	228.15
826.74	228.17
827.05	228.17
827.37	228.14
827.69	228.14
828.00	228.15
828.32	228.13
828.64	228.09
828.95	228.14
829.27	228.13
829.58	228.16
829.90	228.16
830.22	228.16
830.53	228.15
830.85	228.14
831.17	228.09
831.48	228.06
831.80	228.05
832.11	228.06
832.43	228.05
832.75	228.01
833.06	228.06
833.38	228.01
833.69	227.99
834.01	228.01
834.32	227.98
834.64	227.92
834.96	227.90
835.27	227.90
835.59	227.85
835.90	227.83
836.22	227.80
836.53	227.74
836.85	227.72
837.16	227.81
837.48	227.79
837.79	227.83
838.11	227.81
838.42	227.81
838.74	227.78
839.05	227.79
839.37	227.79
839.68	227.76
840.00	227.71
840.31	227.74
840.63	227.73
840.94	227.71
841.26	227.70
841.57	227.73
841.88	227.74
842.20	227.72
842.51	227.70
842.83	227.70
843.14	227.78
843.46	227.76
843.77	227.67
844.08	227.67
844.40	227.63
844.71	227.62
845.03	227.61
845.34	227.61
845.65	227.60
845.97	227.63
846.28	227.60
846.60	227.61
846.91	227.57
847.22	227.52
847.54	227.53
847.85	227.55
848.16	227.52
848.48	227.49
848.79	227.49
849.10	227.51
849.42	227.50
849.73	227.44
850.04	227.48
850.36	227.48
850.67	227.49
850.98	227.52
851.30	227.54
851.61	227.57
851.92	227.52
852.23	227.57
852.55	227.56
852.86	227.56
853.17	227.58
853.49	227.62
853.80	227.68
854.11	227.67
854.42	227.67
854.74	227.68
855.05	227.71
855.36	227.68
855.67	227.66
855.99	227.66
856.30	227.79
856.61	227.75
856.92	227.75
857.23	227.77
857.55	227.73
857.86	227.72
858.17	227.69
858.48	227.73
858.79	227.65
859.11	227.65
859.42	227.65
859.73	227.65
860.04	227.63
860.35	227.60
860.66	227.61
860.98	227.60
861.29	227.59
861.60	227.61
861.91	227.63
862.22	227.64
862.53	227.63
862.84	227.50
863.16	227.57
863.47	227.54
863.78	227.52
864.09	227.55
864.40	227.56
864.71	227.60
865.02	227.59
865.33	227.62
865.64	227.61
865.95	227.60
866.27	227.62
866.58	227.61
866.89	227.66
867.20	227.64
867.51	227.62
867.82	227.65
868.13	227.63
868.44	227.63
868.75	227.64
869.06	227.64
869.37	227.62
869.68	227.60
869.99	227.61
870.30	227.60
870.61	227.58
870.92	227.56
871.23	227.50
871.54	227.50
871.85	227.51
872.16	227.50
872.47	227.51
872.78	227.48
873.09	227.48
873.40	227.40
873.71	227.39
874.02	227.42
874.33	227.38
874.64	227.36
874.95	227.33
875.26	227.30
875.56	227.27
875.87	227.28
876.18	227.25
876.49	227.34
876.80	227.32
877.11	227.29
877.42	227.27
877.73	227.26
878.04	227.26
878.35	227.28
878.66	227.27
878.96	227.23
879.27	227.18
879.58	227.19
879.89	227.21
880.20	227.20
880.51	227.16
880.82	227.15
881.12	227.13
881.43	227.09
881.74	227.08
882.05	227.07
882.36	227.05
882.67	227.03
882.97	226.89
883.28	226.88
883.59	226.86
883.90	226.90
884.21	226.92
884.51	226.91
884.82	226.86
885.13	226.87
885.44	226.87
885.74	226.90
886.05	226.88
886.36	226.86
886.67	226.84
886.98	226.87
887.28	226.89
887.59	226.89
887.90	226.92
888.20	226.89
888.51	226.92
888.82	226.92
889.13	226.94
889.43	227.03
889.74	227.05
890.05	227.07
890.35	227.04
890.66	227.05
890.97	227.05
891.28	227.04
891.58	227.04
891.89	227.03
892.20	227.00
892.50	227.00
892.81	226.99
893.12	226.99
893.42	226.99
893.73	226.98
894.04	226.98
894.34	227.00
894.65	227.02
894.95	227.00
895.26	226.99
895.57	227.03
895.87	226.94
896.18	226.96
896.48	226.97
896.79	226.98
897.10	226.98
897.40	226.98
897.71	227.00
898.01	226.98
898.32	226.99
898.63	227.00
898.93	227.05
899.24	227.12
899.54	227.12
899.85	227.08
900.15	227.10
900.46	227.11
900.76	227.14
901.07	227.17
901.38	227.20
901.68	227.21
901.99	227.18
902.29	227.19
902.60	227.14
902.90	227.18
903.21	227.20
903.51	227.18
903.82	227.19
904.12	227.21
904.43	227.23
904.73	227.24
905.03	227.25
905.34	227.30
905.64	227.23
905.95	227.22
906.25	227.24
906.56	227.24
906.86	227.23
907.17	227.20
907.47	227.18
907.77	227.16
908.08	227.11
908.38	227.07
908.69	227.07
908.99	227.12
909.30	227.08
909.60	227.08
909.90	227.12
910.21	227.11
910.51	227.09
910.81	227.10
911.12	227.12
911.42	227.10
911.73	227.01
912.03	227.03
912.33	227.07
912.64	227.05
912.94	227.04
913.24	227.02
913.55	227.01
913.85	226.99
914.15	227.01
914.46	227.06
914.76	227.08
915.06	227.08
915.37	227.07
915.67	227.05
915.97	227.02
916.27	226.97
916.58	226.97
916.88	226.96
917.18	226.91
917.49	226.92
917.79	226.91
918.09	226.92
918.39	226.94
918.70	226.92
919.00	226.90
919.30	226.93
919.60	226.93
919.91	226.90
920.21	226.89
920.51	226.86
920.81	226.84
921.12	226.83
921.42	226.82
921.72	226.77
922.02	226.77
922.32	226.77
922.63	226.76
922.93	226.76
923.23	226.73
923.53	226.73
923.83	226.69
924.13	226.71
924.44	226.71
924.74	226.68
925.04	226.70
925.34	226.69
925.64	226.63
925.94	226.62
926.24	226.67
926.55	226.66
926.85	226.66
927.15	226.66
927.45	226.70
927.75	226.68
928.05	226.67
928.35	226.67
928.65	226.69
928.95	226.74
929.26	226.73
929.56	226.77
929.86	226.78
930.16	226.78
930.46	226.78
930.76	226.79
931.06	226.77
931.36	226.76
931.66	226.78
931.96	226.81
932.26	226.84
932.56	226.79
932.86	226.84
933.16	226.84
933.46	226.84
933.76	226.80
934.06	226.85
934.36	226.92
934.66	226.93
934.96	226.92
935.26	226.92
935.56	226.93
935.86	226.91
936.16	226.92
936.46	226.92
936.76	226.93
937.06	226.90
937.36	226.93
937.66	226.95
937.96	226.97
938.26	226.93
938.56	226.93
938.86	226.98
939.16	227.01
939.46	227.01
939.76	227.01
940.06	227.01
940.35	226.98
940.65	226.94
940.95	226.95
941.25	226.93
941.55	226.91
941.85	226.89
942.15	226.93
942.45	226.94
942.75	226.95
943.04	226.97
943.34	227.00
943.64	226.99
943.94	226.96
944.24	226.98
944.54	227.00
944.84	226.99
945.13	226.96
945.43	226.93
945.73	226.93
946.03	226.93
946.33	226.90
946.62	226.91
946.92	226.89
947.22	226.90
947.52	226.93
947.82	226.93
948.11	226.94
948.41	226.92
948.71	226.90
949.01	226.88
949.31	226.85
949.60	226.80
949.90	226.82
950.20	226.81
950.50	226.77
950.79	226.77
951.09	226.76
951.39	226.76
951.69	226.76
951.98	226.79
952.28	226.80
952.58	226.80
952.87	226.78
953.17	226.80
953.47	226.73
953.76	226.71
954.06	226.69
954.36	226.65
954.66	226.64
954.95	226.62
955.25	226.63
955.55	226.64
955.84	226.65
956.14	226.64
956.44	226.62
956.73	226.62
957.03	226.61
957.32	226.60
957.62	226.59
957.92	226.58
958.21	226.54
958.51	226.64
958.81	226.63
959.10	226.65
959.40	226.66
959.69	226.71
959.99	226.68
960.29	226.70
960.58	226.69
960.88	226.70
961.17	226.71
961.47	226.69
961.76	226.65
962.06	226.63
962.36	226.62
962.65	226.61
962.95	226.60
963.24	226.58
963.54	226.58
963.83	226.58
964.13	226.57
964.42	226.53
964.72	226.45
965.01	226.50
965.31	226.50
965.60	226.45
965.90	226.50
966.19	226.51
966.49	226.49
966.78	226.51
967.08	226.49
967.37	226.53
967.67	226.51
967.96	226.56
968.26	226.57
968.55	226.56
968.85	226.59
969.14	226.60
969.43	226.60
969.73	226.61
970.02	226.65
970.32	226.67
970.61	226.69
970.91	226.65
971.20	226.62
971.49	226.65
971.79	226.69
972.08	226.61
972.38	226.61
972.67	226.66
972.96	226.67
973.26	226.67
973.55	226.70
973.85	226.72
974.14	226.67
974.43	226.74
974.73	226.72
975.02	226.72
975.31	226.74
975.61	226.80
975.90	226.80
976.19	226.75
976.49	226.77
976.78	226.79
977.07	226.81
977.37	226.83
977.66	226.85
977.95	226.84
978.24	226.87
978.54	226.93
978.83	226.88
979.12	226.89
979.42	226.92
979.71	226.90
980.00	226.94
980.29	226.97
980.59	226.90
980.88	226.96
981.17	226.96
981.46	226.97
981.76	226.92
982.05	226.97
982.34	226.98
982.63	226.97
982.93	226.95
983.22	226.97
983.51	226.95
983.80	226.94
984.09	226.99
984.39	226.96
984.68	226.93
984.97	226.95
985.26	226.93
985.55	226.92
985.85	226.90
986.14	226.90
986.43	226.90
986.72	226.92
987.01	226.87
987.30	226.88
987.59	226.86
987.89	226.87
988.18	226.81
988.47	226.81
988.76	226.79
989.05	226.79
989.34	226.79
989.63	226.85
989.92	226.79
990.22	226.75
990.51	226.77
990.80	226.77
991.09	226.74
991.38	226.74
991.67	226.71
991.96	226.68
992.25	226.65
992.54	226.65
992.83	226.61
993.12	226.62
993.41	226.63
993.70	226.65
993.99	226.65
994.28	226.67
994.58	226.67
994.87	226.65
995.16	226.62
995.45	226.57
995.74	226.50
996.03	226.52
996.32	226.51
996.61	226.52
996.90	226.51
997.19	226.51
997.48	226.55
997.77	226.52
998.06	226.54
998.34	226.52
998.63	226.50
998.92	226.51
999.21	226.50
999.50	226.49
999.79	226.42
1000.08	226.42
1000.37	226.41
1000.66	226.37
1000.95	226.39
1001.24	226.39
1001.53	226.40
1001.82	226.39
1002.11	226.39
1002.40	226.39
1002.68	226.40
1002.97	226.47
1003.26	226.46
1003.55	226.41
1003.84	226.44
1004.13	226.45
1004.42	226.46
1004.71	226.45
1004.99	226.47
1005.28	226.49
1005.57	226.50
1005.86	226.50
1006.15	226.50
1006.44	226.50
1006.72	226.53
1007.01	226.52
1007.30	226.54
1007.59	226.55
1007.88	226.57
1008.17	226.58
1008.45	226.56
1008.74	226.51
1009.03	226.49
1009.32	226.50
1009.60	226.50
1009.89	226.53
1010.18	226.51
1010.47	226.49
1010.76	226.52
1011.04	226.52
1011.33	226.55
1011.62	226.52
1011.91	226.56
1012.19	226.56
1012.48	226.55
1012.77	226.57
1013.05	226.65
1013.34	226.67
1013.63	226.70
1013.92	226.68
1014.20	226.67
1014.49	226.72
1014.78	226.75
1015.06	226.69
1015.35	226.68
1015.64	226.70
1015.92	226.69
1016.21	226.70
1016.50	226.73
1016.78	226.76
1017.07	226.79
1017.36	226.75
1017.64	226.76
1017.93	226.78
1018.22	226.77
1018.50	226.78
1018.79	226.81
1019.08	226.76
1019.36	226.74
1019.65	226.73
1019.93	226.77
1020.22	226.80
1020.51	226.85
1020.79	226.85
1021.08	226.44
1021.36	226.61
1021.65	227.58
1021.94	226.74
1022.22	226.66
1022.51	226.70
1022.79	227.26
1023.08	227.02
1023.36	228.13
1023.65	226.78
>>>>>End Processed Spectral Data<<<<<
