SpectraSuite Data File
++++++++++++++++++++++++++++++++++++
Date: Fri Feb 01 15:10:58 EST 2013
User: group
Dark Spectrum Present: No
Reference Spectrum Present: No
Number of Sampled Component Spectra: 1
Spectrometers: USB2E7196
Integration Time (usec): 35000 (USB2E7196)
Spectra Averaged: 100 (USB2E7196)
Boxcar Smoothing: 10 (USB2E7196)
Correct for Electrical Dark: No (USB2E7196)
Strobe/Lamp Enabled: No (USB2E7196)
Correct for Detector Non-linearity: No (USB2E7196)
Correct for Stray Light: No (USB2E7196)
Number of Pixels in Processed Spectrum: 2048
>>>>>Begin Processed Spectral Data<<<<<
339.09	0.00
339.48	215.04
339.86	216.73
340.24	218.35
340.63	219.29
341.01	222.10
341.39	221.94
341.78	223.47
342.16	224.95
342.54	225.68
342.93	213.52
343.31	224.31
343.69	224.86
344.07	225.33
344.46	225.75
344.84	226.11
345.22	226.34
345.60	226.61
345.99	226.76
346.37	226.89
346.75	226.96
347.13	227.02
347.52	227.07
347.90	227.13
348.28	227.18
348.66	227.23
349.05	227.22
349.43	227.25
349.81	227.29
350.19	227.34
350.57	227.39
350.96	227.43
351.34	227.49
351.72	227.55
352.10	227.65
352.48	227.71
352.87	227.78
353.25	227.87
353.63	227.89
354.01	227.97
354.39	228.01
354.77	228.09
355.15	228.20
355.54	228.26
355.92	228.29
356.30	228.36
356.68	228.46
357.06	228.56
357.44	228.60
357.82	228.64
358.20	228.72
358.58	228.79
358.97	228.87
359.35	228.98
359.73	229.05
360.11	229.11
360.49	229.16
360.87	229.23
361.25	229.26
361.63	229.37
362.01	229.48
362.39	229.49
362.77	229.53
363.15	229.54
363.53	229.56
363.91	229.57
364.29	229.57
364.67	229.52
365.05	229.51
365.43	229.52
365.81	229.53
366.19	229.57
366.57	229.59
366.95	229.59
367.33	229.53
367.71	229.54
368.09	229.50
368.47	229.49
368.85	229.46
369.23	229.43
369.61	229.35
369.99	229.32
370.37	229.31
370.75	229.33
371.13	229.28
371.51	229.25
371.89	229.23
372.27	229.21
372.65	229.15
373.03	229.09
373.41	229.06
373.78	229.00
374.16	228.86
374.54	228.78
374.92	228.70
375.30	228.66
375.68	228.56
376.06	228.49
376.44	228.37
376.82	228.28
377.19	228.22
377.57	228.15
377.95	228.02
378.33	227.92
378.71	227.79
379.09	227.74
379.47	227.67
379.84	227.57
380.22	227.47
380.60	227.40
380.98	227.33
381.36	227.24
381.73	227.13
382.11	227.08
382.49	227.02
382.87	226.93
383.25	226.85
383.62	226.89
384.00	226.82
384.38	226.80
384.76	226.78
385.13	226.75
385.51	226.71
385.89	226.64
386.27	226.62
386.64	226.60
387.02	226.56
387.40	226.50
387.78	226.48
388.15	226.47
388.53	226.46
388.91	226.43
389.29	226.38
389.66	226.40
390.04	226.38
390.42	226.33
390.79	226.35
391.17	226.33
391.55	226.21
391.92	226.24
392.30	226.22
392.68	226.22
393.05	226.21
393.43	226.20
393.81	226.24
394.18	226.23
394.56	226.23
394.94	226.28
395.31	226.29
395.69	226.35
396.06	226.41
396.44	226.44
396.82	226.49
397.19	226.63
397.57	226.69
397.95	226.75
398.32	226.82
398.70	226.86
399.07	226.95
399.45	227.02
399.82	227.07
400.20	227.16
400.58	227.22
400.95	227.30
401.33	227.41
401.70	227.57
402.08	227.72
402.45	227.82
402.83	227.94
403.20	228.08
403.58	228.19
403.95	228.30
404.33	228.45
404.71	228.58
405.08	228.75
405.46	228.92
405.83	229.12
406.21	229.28
406.58	229.48
406.96	229.67
407.33	229.87
407.70	230.11
408.08	230.38
408.45	230.62
408.83	230.84
409.20	231.06
409.58	231.26
409.95	231.51
410.33	231.83
410.70	232.06
411.08	232.37
411.45	232.67
411.82	232.99
412.20	233.35
412.57	233.79
412.95	234.06
413.32	234.46
413.69	234.86
414.07	235.29
414.44	235.76
414.82	236.28
415.19	236.83
415.56	237.36
415.94	237.92
416.31	238.57
416.68	239.22
417.06	239.94
417.43	240.61
417.81	241.38
418.18	242.14
418.55	242.98
418.93	243.83
419.30	244.75
419.67	245.68
420.04	246.63
420.42	247.59
420.79	248.79
421.16	249.94
421.54	251.14
421.91	252.33
422.28	253.56
422.66	254.84
423.03	256.15
423.40	257.48
423.77	258.88
424.15	260.31
424.52	261.79
424.89	263.40
425.26	264.94
425.64	266.37
426.01	267.96
426.38	269.60
426.75	271.30
427.13	273.01
427.50	274.81
427.87	276.70
428.24	278.57
428.61	280.32
428.99	282.24
429.36	284.34
429.73	286.43
430.10	288.48
430.47	290.53
430.85	292.67
431.22	294.94
431.59	297.32
431.96	299.58
432.33	302.09
432.70	304.47
433.08	307.30
433.45	309.95
433.82	312.56
434.19	315.45
434.56	318.28
434.93	320.94
435.30	323.58
435.68	326.47
436.05	329.33
436.42	332.10
436.79	334.63
437.16	337.29
437.53	340.17
437.90	342.99
438.27	345.76
438.64	348.58
439.01	351.19
439.38	353.42
439.75	355.61
440.13	358.11
440.50	360.47
440.87	362.34
441.24	364.30
441.61	366.45
441.98	367.97
442.35	369.80
442.72	371.68
443.09	373.51
443.46	374.50
443.83	375.07
444.20	375.64
444.57	376.48
444.94	376.79
445.31	377.12
445.68	377.49
446.05	377.54
446.42	377.13
446.79	376.71
447.16	376.27
447.53	375.91
447.90	374.75
448.27	373.58
448.64	372.00
449.01	370.86
449.37	368.93
449.74	367.00
450.11	364.71
450.48	362.22
450.85	359.64
451.22	357.51
451.59	355.47
451.96	353.50
452.33	350.88
452.70	348.52
453.07	345.66
453.43	342.74
453.80	339.98
454.17	337.33
454.54	334.74
454.91	331.99
455.28	329.34
455.65	326.84
456.02	324.37
456.38	322.18
456.75	319.51
457.12	317.23
457.49	315.03
457.86	312.83
458.23	310.97
458.59	308.95
458.96	306.84
459.33	304.99
459.70	303.09
460.07	301.56
460.43	299.83
460.80	298.22
461.17	296.77
461.54	295.27
461.91	293.85
462.27	292.40
462.64	291.16
463.01	289.79
463.38	288.45
463.74	287.07
464.11	285.92
464.48	284.88
464.85	283.73
465.21	282.84
465.58	281.92
465.95	280.79
466.32	279.84
466.68	278.92
467.05	277.99
467.42	277.11
467.78	276.18
468.15	275.30
468.52	274.57
468.88	273.69
469.25	272.90
469.62	272.24
469.98	271.56
470.35	270.90
470.72	270.30
471.08	269.61
471.45	269.06
471.82	268.45
472.18	267.82
472.55	267.36
472.92	266.83
473.28	266.34
473.65	265.87
474.02	265.44
474.38	265.06
474.75	264.75
475.11	264.37
475.48	264.07
475.85	263.82
476.21	263.59
476.58	263.43
476.94	263.30
477.31	263.12
477.67	262.94
478.04	262.82
478.41	262.76
478.77	262.83
479.14	262.76
479.50	262.83
479.87	262.95
480.23	263.02
480.60	263.07
480.96	263.19
481.33	263.39
481.69	263.56
482.06	263.75
482.42	263.93
482.79	264.18
483.15	264.52
483.52	264.87
483.88	265.24
484.25	265.59
484.61	266.02
484.98	266.50
485.34	267.12
485.71	267.75
486.07	268.33
486.44	268.90
486.80	269.59
487.17	270.28
487.53	271.05
487.90	271.89
488.26	272.84
488.62	273.83
488.99	274.83
489.35	275.87
489.72	277.02
490.08	278.23
490.44	279.50
490.81	280.82
491.17	282.18
491.54	283.66
491.90	285.20
492.26	286.81
492.63	288.51
492.99	290.22
493.36	292.06
493.72	294.10
494.08	296.20
494.45	298.45
494.81	300.85
495.17	303.28
495.54	305.85
495.90	308.49
496.26	311.27
496.63	314.22
496.99	317.37
497.35	320.62
497.72	324.02
498.08	327.55
498.44	331.21
498.80	335.15
499.17	339.14
499.53	343.27
499.89	347.64
500.26	352.18
500.62	356.87
500.98	361.84
501.34	366.89
501.71	372.15
502.07	377.61
502.43	383.22
502.79	389.06
503.16	395.13
503.52	401.42
503.88	407.82
504.24	414.42
504.60	421.34
504.97	428.47
505.33	435.81
505.69	443.49
506.05	451.23
506.41	459.06
506.78	467.27
507.14	475.77
507.50	484.44
507.86	493.43
508.22	502.60
508.59	511.73
508.95	521.36
509.31	531.16
509.67	541.21
510.03	551.47
510.39	561.96
510.75	572.75
511.12	583.72
511.48	595.07
511.84	606.50
512.20	617.98
512.56	629.91
512.92	642.08
513.28	654.36
513.64	666.92
514.00	679.63
514.37	692.51
514.73	705.59
515.09	718.65
515.45	731.91
515.81	745.51
516.17	759.55
516.53	773.64
516.89	787.90
517.25	802.17
517.61	816.58
517.97	831.12
518.33	845.66
518.69	860.48
519.05	875.44
519.41	890.60
519.77	906.13
520.13	921.54
520.49	936.92
520.85	952.48
521.21	968.19
521.57	984.50
521.93	1000.38
522.29	1016.77
522.65	1033.17
523.01	1049.45
523.37	1065.61
523.73	1081.87
524.09	1098.00
524.45	1114.35
524.81	1130.96
525.17	1147.81
525.53	1164.80
525.89	1181.55
526.25	1198.33
526.61	1214.70
526.97	1231.52
527.33	1248.01
527.68	1264.77
528.04	1281.40
528.40	1298.04
528.76	1315.21
529.12	1331.83
529.48	1348.77
529.84	1364.82
530.20	1381.42
530.56	1398.56
530.91	1416.00
531.27	1432.80
531.63	1449.39
531.99	1465.95
532.35	1482.03
532.71	1497.93
533.07	1514.14
533.42	1530.26
533.78	1546.45
534.14	1562.89
534.50	1578.42
534.86	1594.49
535.21	1609.61
535.57	1625.49
535.93	1641.00
536.29	1655.85
536.65	1671.03
537.00	1686.00
537.36	1701.36
537.72	1716.12
538.08	1730.60
538.44	1744.53
538.79	1758.52
539.15	1772.37
539.51	1786.37
539.87	1800.72
540.22	1814.61
540.58	1828.63
540.94	1842.00
541.29	1855.04
541.65	1867.83
542.01	1881.06
542.37	1893.43
542.72	1906.02
543.08	1917.92
543.44	1930.58
543.79	1941.83
544.15	1952.89
544.51	1964.43
544.87	1975.58
545.22	1986.31
545.58	1996.48
545.94	2006.18
546.29	2016.20
546.65	2025.93
547.01	2035.10
547.36	2044.01
547.72	2052.55
548.07	2060.29
548.43	2068.45
548.79	2076.55
549.14	2084.04
549.50	2091.44
549.86	2099.15
550.21	2106.53
550.57	2113.71
550.92	2120.22
551.28	2127.36
551.64	2134.53
551.99	2141.10
552.35	2147.22
552.70	2153.41
553.06	2159.39
553.41	2165.73
553.77	2171.79
554.13	2177.86
554.48	2184.08
554.84	2189.37
555.19	2194.70
555.55	2199.80
555.90	2204.33
556.26	2209.10
556.61	2213.87
556.97	2217.93
557.32	2222.10
557.68	2226.27
558.03	2230.61
558.39	2234.32
558.74	2238.87
559.10	2242.61
559.45	2246.17
559.81	2250.46
560.16	2254.22
560.52	2257.65
560.87	2261.12
561.23	2263.55
561.58	2266.58
561.94	2269.01
562.29	2271.58
562.64	2274.32
563.00	2277.09
563.35	2280.62
563.71	2283.69
564.06	2287.06
564.42	2290.04
564.77	2292.41
565.12	2294.38
565.48	2296.14
565.83	2297.84
566.19	2299.01
566.54	2299.95
566.89	2301.05
567.25	2301.62
567.60	2302.88
567.96	2304.34
568.31	2305.11
568.66	2306.25
569.02	2306.77
569.37	2307.04
569.72	2307.65
570.08	2307.42
570.43	2307.25
570.78	2306.37
571.14	2304.75
571.49	2303.20
571.84	2302.71
572.20	2301.43
572.55	2300.40
572.90	2298.72
573.26	2297.23
573.61	2295.45
573.96	2293.48
574.31	2290.34
574.67	2287.18
575.02	2283.40
575.37	2279.87
575.72	2275.93
576.08	2272.32
576.43	2268.75
576.78	2265.00
577.13	2261.66
577.49	2258.62
577.84	2254.98
578.19	2251.30
578.54	2247.49
578.90	2243.13
579.25	2237.43
579.60	2232.24
579.95	2227.13
580.30	2222.08
580.66	2216.72
581.01	2211.77
581.36	2206.74
581.71	2202.34
582.06	2197.77
582.42	2193.12
582.77	2187.79
583.12	2182.94
583.47	2178.20
583.82	2172.98
584.17	2167.61
584.53	2162.04
584.88	2156.23
585.23	2150.33
585.58	2144.75
585.93	2139.27
586.28	2134.32
586.63	2129.13
586.98	2124.01
587.34	2119.26
587.69	2114.17
588.04	2108.89
588.39	2103.00
588.74	2096.47
589.09	2090.43
589.44	2083.62
589.79	2077.67
590.14	2072.02
590.49	2065.34
590.84	2059.04
591.19	2052.95
591.54	2046.45
591.89	2038.85
592.25	2031.97
592.60	2024.76
592.95	2017.04
593.30	2009.59
593.65	2001.92
594.00	1994.94
594.35	1987.75
594.70	1979.73
595.05	1972.46
595.40	1965.22
595.75	1957.82
596.10	1951.51
596.45	1944.49
596.80	1938.08
597.15	1931.30
597.50	1924.04
597.85	1917.80
598.19	1911.13
598.54	1904.10
598.89	1897.35
599.24	1891.62
599.59	1884.87
599.94	1878.63
600.29	1872.26
600.64	1865.56
600.99	1858.09
601.34	1851.05
601.69	1843.96
602.04	1836.81
602.39	1829.46
602.74	1822.54
603.08	1815.83
603.43	1809.06
603.78	1801.87
604.13	1794.65
604.48	1787.27
604.83	1780.43
605.18	1773.23
605.53	1764.99
605.87	1756.85
606.22	1749.59
606.57	1741.53
606.92	1734.24
607.27	1727.00
607.62	1719.98
607.96	1712.84
608.31	1706.23
608.66	1698.59
609.01	1691.12
609.36	1683.59
609.70	1675.56
610.05	1667.48
610.40	1659.66
610.75	1651.35
611.10	1643.68
611.44	1635.43
611.79	1627.43
612.14	1618.73
612.49	1609.64
612.83	1601.26
613.18	1593.25
613.53	1585.12
613.88	1576.51
614.22	1568.25
614.57	1559.65
614.92	1551.73
615.27	1543.98
615.61	1535.46
615.96	1527.59
616.31	1519.84
616.65	1512.64
617.00	1505.13
617.35	1497.51
617.70	1489.13
618.04	1480.49
618.39	1472.21
618.74	1464.57
619.08	1456.36
619.43	1448.78
619.78	1441.93
620.12	1434.79
620.47	1427.25
620.82	1419.00
621.16	1411.68
621.51	1404.10
621.85	1396.51
622.20	1387.95
622.55	1379.81
622.89	1372.15
623.24	1364.54
623.59	1357.28
623.93	1349.62
624.28	1342.37
624.62	1334.78
624.97	1327.62
625.32	1320.99
625.66	1313.99
626.01	1306.67
626.35	1299.10
626.70	1291.38
627.04	1283.57
627.39	1275.82
627.73	1268.44
628.08	1261.66
628.43	1254.31
628.77	1246.89
629.12	1239.31
629.46	1232.18
629.81	1224.70
630.15	1217.48
630.50	1210.15
630.84	1202.02
631.19	1194.18
631.53	1186.71
631.88	1179.14
632.22	1171.53
632.57	1164.30
632.91	1156.85
633.26	1149.50
633.60	1142.31
633.95	1135.35
634.29	1128.41
634.64	1121.78
634.98	1114.45
635.32	1107.35
635.67	1100.88
636.01	1094.28
636.36	1087.50
636.70	1080.98
637.05	1074.38
637.39	1067.96
637.73	1061.46
638.08	1055.57
638.42	1049.67
638.77	1043.13
639.11	1036.57
639.45	1030.27
639.80	1023.57
640.14	1017.14
640.49	1010.63
640.83	1004.40
641.17	998.09
641.52	991.78
641.86	985.39
642.20	979.49
642.55	973.26
642.89	966.77
643.23	960.24
643.58	954.52
643.92	948.34
644.26	942.25
644.61	936.25
644.95	930.26
645.29	923.64
645.64	916.86
645.98	910.62
646.32	904.85
646.66	898.79
647.01	893.03
647.35	887.32
647.69	881.61
648.04	876.03
648.38	870.29
648.72	864.25
649.06	858.16
649.41	852.37
649.75	846.31
650.09	840.36
650.43	834.63
650.78	828.47
651.12	822.49
651.46	816.81
651.80	811.02
652.14	805.57
652.49	800.27
652.83	795.07
653.17	789.35
653.51	783.56
653.85	778.14
654.20	772.50
654.54	766.48
654.88	760.64
655.22	754.78
655.56	749.10
655.90	743.69
656.25	738.48
656.59	733.10
656.93	728.04
657.27	722.86
657.61	717.41
657.95	712.28
658.29	707.26
658.64	702.14
658.98	696.82
659.32	691.33
659.66	686.11
660.00	680.79
660.34	675.89
660.68	671.04
661.02	665.98
661.36	661.28
661.70	656.86
662.05	652.60
662.39	648.29
662.73	643.87
663.07	639.53
663.41	635.07
663.75	630.54
664.09	625.97
664.43	621.63
664.77	617.55
665.11	613.32
665.45	609.23
665.79	605.12
666.13	601.03
666.47	596.98
666.81	592.83
667.15	588.77
667.49	584.94
667.83	581.18
668.17	577.32
668.51	573.23
668.85	569.23
669.19	565.35
669.53	561.46
669.87	557.58
670.21	553.88
670.55	550.27
670.89	546.86
671.23	543.47
671.57	539.96
671.91	536.40
672.25	532.95
672.58	529.41
672.92	526.03
673.26	522.87
673.60	519.80
673.94	516.71
674.28	513.77
674.62	510.85
674.96	507.79
675.30	504.90
675.64	501.98
675.97	499.21
676.31	496.36
676.65	493.49
676.99	490.81
677.33	487.92
677.67	485.10
678.01	482.11
678.34	479.22
678.68	476.41
679.02	473.67
679.36	470.92
679.70	468.25
680.04	465.45
680.37	462.58
680.71	459.80
681.05	457.20
681.39	454.54
681.73	451.86
682.06	449.31
682.40	446.78
682.74	444.32
683.08	441.84
683.42	439.25
683.75	436.74
684.09	434.19
684.43	431.78
684.77	429.36
685.10	427.03
685.44	424.72
685.78	422.47
686.12	420.23
686.45	417.96
686.79	415.67
687.13	413.51
687.46	411.42
687.80	409.28
688.14	407.10
688.48	405.01
688.81	402.78
689.15	400.63
689.49	398.51
689.82	396.41
690.16	394.33
690.50	392.43
690.83	390.47
691.17	388.53
691.51	386.64
691.84	384.75
692.18	382.82
692.52	380.77
692.85	378.76
693.19	376.83
693.52	375.02
693.86	373.23
694.20	371.43
694.53	369.61
694.87	367.74
695.21	365.93
695.54	364.10
695.88	362.40
696.21	360.69
696.55	359.04
696.88	357.37
697.22	355.67
697.56	354.01
697.89	352.37
698.23	350.77
698.56	349.12
698.90	347.54
699.23	345.90
699.57	344.40
699.90	342.89
700.24	341.40
700.58	339.91
700.91	338.40
701.25	336.98
701.58	335.58
701.92	334.23
702.25	332.85
702.59	331.48
702.92	330.14
703.26	328.86
703.59	327.53
703.93	326.34
704.26	325.11
704.60	323.82
704.93	322.53
705.26	321.27
705.60	320.15
705.93	319.00
706.27	317.98
706.60	316.95
706.94	315.84
707.27	314.69
707.61	313.58
707.94	312.55
708.27	311.46
708.61	310.36
708.94	309.37
709.28	308.36
709.61	307.42
709.94	306.47
710.28	305.43
710.61	304.45
710.95	303.41
711.28	302.51
711.61	301.57
711.95	300.70
712.28	299.76
712.61	298.74
712.95	297.84
713.28	296.96
713.61	296.01
713.95	295.15
714.28	294.35
714.61	293.50
714.95	292.64
715.28	291.81
715.61	290.97
715.95	290.13
716.28	289.30
716.61	288.49
716.95	287.72
717.28	286.98
717.61	286.27
717.94	285.53
718.28	284.72
718.61	284.00
718.94	283.30
719.27	282.66
719.61	282.00
719.94	281.32
720.27	280.59
720.60	279.98
720.94	279.39
721.27	278.80
721.60	278.23
721.93	277.65
722.27	277.07
722.60	276.51
722.93	275.91
723.26	275.43
723.59	274.86
723.93	274.31
724.26	273.73
724.59	273.17
724.92	272.65
725.25	272.17
725.59	271.69
725.92	271.20
726.25	270.69
726.58	270.18
726.91	269.69
727.24	269.25
727.57	268.75
727.91	268.24
728.24	267.78
728.57	267.27
728.90	266.82
729.23	266.32
729.56	265.90
729.89	265.49
730.22	264.98
730.55	264.54
730.89	264.10
731.22	263.72
731.55	263.28
731.88	262.85
732.21	262.41
732.54	261.94
732.87	261.50
733.20	261.10
733.53	260.76
733.86	260.39
734.19	259.98
734.52	259.62
734.85	259.30
735.18	258.87
735.51	258.54
735.84	258.17
736.17	257.88
736.50	257.47
736.83	257.19
737.16	256.87
737.49	256.56
737.82	256.23
738.15	255.89
738.48	255.56
738.81	255.22
739.14	254.90
739.47	254.59
739.80	254.32
740.13	254.02
740.46	253.66
740.79	253.36
741.12	253.05
741.45	252.77
741.78	252.40
742.11	252.11
742.44	251.77
742.77	251.49
743.10	251.14
743.43	250.86
743.75	250.54
744.08	250.36
744.41	250.08
744.74	249.78
745.07	249.52
745.40	249.26
745.73	249.01
746.06	248.74
746.39	248.53
746.71	248.23
747.04	247.95
747.37	247.70
747.70	247.46
748.03	247.22
748.36	246.99
748.68	246.78
749.01	246.52
749.34	246.31
749.67	246.06
750.00	245.87
750.33	245.72
750.65	245.45
750.98	245.14
751.31	244.90
751.64	244.68
751.97	244.51
752.29	244.28
752.62	244.08
752.95	243.86
753.28	243.61
753.60	243.41
753.93	243.27
754.26	243.08
754.59	242.83
754.91	242.60
755.24	242.36
755.57	242.18
755.90	242.03
756.22	241.82
756.55	241.62
756.88	241.41
757.20	241.18
757.53	240.97
757.86	240.79
758.19	240.64
758.51	240.46
758.84	240.23
759.17	240.09
759.49	239.91
759.82	239.77
760.15	239.63
760.47	239.48
760.80	239.27
761.13	239.14
761.45	238.97
761.78	238.84
762.11	238.77
762.43	238.63
762.76	238.45
763.08	238.32
763.41	238.21
763.74	238.11
764.06	237.98
764.39	237.86
764.71	237.73
765.04	237.57
765.37	237.43
765.69	237.29
766.02	237.18
766.34	237.05
766.67	236.90
767.00	236.80
767.32	236.72
767.65	236.68
767.97	236.55
768.30	236.43
768.62	236.31
768.95	236.15
769.27	236.01
769.60	235.95
769.92	235.82
770.25	235.69
770.57	235.55
770.90	235.45
771.22	235.35
771.55	235.24
771.87	235.19
772.20	235.07
772.52	235.08
772.85	235.07
773.17	235.00
773.50	234.90
773.82	234.77
774.15	234.66
774.47	234.50
774.80	234.44
775.12	234.37
775.45	234.30
775.77	234.20
776.09	234.14
776.42	234.04
776.74	233.98
777.07	233.93
777.39	233.88
777.72	233.82
778.04	233.75
778.36	233.69
778.69	233.61
779.01	233.59
779.33	233.47
779.66	233.29
779.98	233.23
780.31	233.18
780.63	233.15
780.95	233.08
781.28	233.02
781.60	232.90
781.92	232.86
782.25	232.79
782.57	232.74
782.89	232.65
783.22	232.56
783.54	232.52
783.86	232.44
784.19	232.35
784.51	232.30
784.83	232.27
785.16	232.19
785.48	232.14
785.80	232.06
786.12	231.98
786.45	231.95
786.77	231.89
787.09	231.86
787.42	231.78
787.74	231.70
788.06	231.65
788.38	231.62
788.71	231.54
789.03	231.52
789.35	231.51
789.67	231.48
789.99	231.47
790.32	231.43
790.64	231.38
790.96	231.43
791.28	231.38
791.61	231.30
791.93	231.27
792.25	231.22
792.57	231.26
792.89	231.22
793.21	231.19
793.54	231.13
793.86	231.08
794.18	231.06
794.50	231.06
794.82	231.03
795.14	230.99
795.47	231.00
795.79	230.94
796.11	230.83
796.43	230.78
796.75	230.74
797.07	230.69
797.39	230.68
797.71	230.55
798.04	230.49
798.36	230.46
798.68	230.45
799.00	230.38
799.32	230.30
799.64	230.27
799.96	230.22
800.28	230.20
800.60	230.15
800.92	230.13
801.24	230.07
801.56	230.07
801.89	230.05
802.21	230.01
802.53	229.98
802.85	230.02
803.17	230.05
803.49	230.00
803.81	229.96
804.13	229.92
804.45	229.89
804.77	229.92
805.09	229.91
805.41	229.88
805.73	229.84
806.05	229.79
806.37	229.77
806.69	229.72
807.01	229.69
807.33	229.66
807.65	229.61
807.97	229.63
808.28	229.58
808.60	229.56
808.92	229.53
809.24	229.57
809.56	229.49
809.88	229.44
810.20	229.46
810.52	229.45
810.84	229.41
811.16	229.38
811.48	229.35
811.80	229.35
812.12	229.31
812.43	229.32
812.75	229.31
813.07	229.28
813.39	229.29
813.71	229.26
814.03	229.27
814.35	229.26
814.67	229.20
814.98	229.20
815.30	229.19
815.62	229.14
815.94	229.04
816.26	229.09
816.58	229.02
816.89	228.99
817.21	228.97
817.53	228.96
817.85	228.95
818.17	228.92
818.48	228.87
818.80	228.90
819.12	228.91
819.44	228.89
819.76	228.87
820.07	228.85
820.39	228.84
820.71	228.81
821.03	228.78
821.34	228.75
821.66	228.73
821.98	228.73
822.30	228.69
822.61	228.75
822.93	228.70
823.25	228.69
823.57	228.65
823.88	228.64
824.20	228.64
824.52	228.68
824.83	228.67
825.15	228.66
825.47	228.65
825.79	228.60
826.10	228.59
826.42	228.60
826.74	228.58
827.05	228.57
827.37	228.59
827.69	228.58
828.00	228.57
828.32	228.57
828.64	228.55
828.95	228.61
829.27	228.57
829.58	228.55
829.90	228.57
830.22	228.60
830.53	228.58
830.85	228.56
831.17	228.46
831.48	228.44
831.80	228.42
832.11	228.41
832.43	228.36
832.75	228.35
833.06	228.38
833.38	228.34
833.69	228.31
834.01	228.28
834.32	228.30
834.64	228.30
834.96	228.29
835.27	228.25
835.59	228.22
835.90	228.21
836.22	228.19
836.53	228.16
836.85	228.11
837.16	228.18
837.48	228.14
837.79	228.19
838.11	228.16
838.42	228.16
838.74	228.10
839.05	228.11
839.37	228.08
839.68	228.01
840.00	228.04
840.31	228.08
840.63	228.04
840.94	228.02
841.26	227.99
841.57	227.95
841.88	227.98
842.20	227.95
842.51	227.94
842.83	227.93
843.14	227.99
843.46	227.99
843.77	227.92
844.08	227.92
844.40	227.88
844.71	227.90
845.03	227.89
845.34	227.88
845.65	227.89
845.97	227.90
846.28	227.88
846.60	227.85
846.91	227.80
847.22	227.79
847.54	227.76
847.85	227.77
848.16	227.76
848.48	227.71
848.79	227.75
849.10	227.76
849.42	227.76
849.73	227.69
850.04	227.70
850.36	227.69
850.67	227.70
850.98	227.65
851.30	227.59
851.61	227.58
851.92	227.59
852.23	227.59
852.55	227.59
852.86	227.57
853.17	227.54
853.49	227.56
853.80	227.59
854.11	227.66
854.42	227.65
854.74	227.65
855.05	227.67
855.36	227.60
855.67	227.61
855.99	227.62
856.30	227.73
856.61	227.72
856.92	227.71
857.23	227.73
857.55	227.76
857.86	227.79
858.17	227.79
858.48	227.76
858.79	227.74
859.11	227.75
859.42	227.78
859.73	227.83
860.04	227.82
860.35	227.79
860.66	227.69
860.98	227.70
861.29	227.70
861.60	227.68
861.91	227.71
862.22	227.65
862.53	227.64
862.84	227.53
863.16	227.55
863.47	227.54
863.78	227.53
864.09	227.50
864.40	227.52
864.71	227.55
865.02	227.60
865.33	227.60
865.64	227.61
865.95	227.59
866.27	227.63
866.58	227.63
866.89	227.65
867.20	227.65
867.51	227.63
867.82	227.60
868.13	227.65
868.44	227.65
868.75	227.68
869.06	227.70
869.37	227.70
869.68	227.69
869.99	227.71
870.30	227.72
870.61	227.76
870.92	227.75
871.23	227.70
871.54	227.70
871.85	227.70
872.16	227.69
872.47	227.70
872.78	227.65
873.09	227.67
873.40	227.64
873.71	227.67
874.02	227.67
874.33	227.67
874.64	227.62
874.95	227.62
875.26	227.57
875.56	227.52
875.87	227.52
876.18	227.50
876.49	227.58
876.80	227.56
877.11	227.51
877.42	227.47
877.73	227.49
878.04	227.44
878.35	227.44
878.66	227.39
878.96	227.40
879.27	227.40
879.58	227.37
879.89	227.39
880.20	227.42
880.51	227.44
880.82	227.43
881.12	227.44
881.43	227.38
881.74	227.41
882.05	227.42
882.36	227.43
882.67	227.43
882.97	227.30
883.28	227.28
883.59	227.31
883.90	227.33
884.21	227.33
884.51	227.33
884.82	227.33
885.13	227.37
885.44	227.34
885.74	227.34
886.05	227.30
886.36	227.30
886.67	227.25
886.98	227.24
887.28	227.26
887.59	227.26
887.90	227.30
888.20	227.32
888.51	227.32
888.82	227.29
889.13	227.26
889.43	227.35
889.74	227.32
890.05	227.30
890.35	227.30
890.66	227.31
890.97	227.31
891.28	227.30
891.58	227.28
891.89	227.28
892.20	227.25
892.50	227.25
892.81	227.23
893.12	227.23
893.42	227.20
893.73	227.22
894.04	227.21
894.34	227.21
894.65	227.21
894.95	227.20
895.26	227.20
895.57	227.27
895.87	227.19
896.18	227.24
896.48	227.27
896.79	227.26
897.10	227.27
897.40	227.28
897.71	227.27
898.01	227.26
898.32	227.28
898.63	227.29
898.93	227.32
899.24	227.34
899.54	227.34
899.85	227.35
900.15	227.34
900.46	227.36
900.76	227.34
901.07	227.32
901.38	227.30
901.68	227.32
901.99	227.28
902.29	227.29
902.60	227.26
902.90	227.22
903.21	227.24
903.51	227.26
903.82	227.26
904.12	227.29
904.43	227.32
904.73	227.32
905.03	227.35
905.34	227.43
905.64	227.43
905.95	227.44
906.25	227.47
906.56	227.45
906.86	227.43
907.17	227.44
907.47	227.46
907.77	227.48
908.08	227.47
908.38	227.46
908.69	227.47
908.99	227.53
909.30	227.58
909.60	227.58
909.90	227.57
910.21	227.53
910.51	227.50
910.81	227.50
911.12	227.49
911.42	227.46
911.73	227.35
912.03	227.37
912.33	227.38
912.64	227.33
912.94	227.33
913.24	227.32
913.55	227.29
913.85	227.29
914.15	227.28
914.46	227.31
914.76	227.31
915.06	227.30
915.37	227.26
915.67	227.25
915.97	227.22
916.27	227.19
916.58	227.21
916.88	227.22
917.18	227.20
917.49	227.25
917.79	227.24
918.09	227.31
918.39	227.34
918.70	227.34
919.00	227.39
919.30	227.43
919.60	227.44
919.91	227.45
920.21	227.44
920.51	227.44
920.81	227.40
921.12	227.40
921.42	227.37
921.72	227.41
922.02	227.39
922.32	227.41
922.63	227.40
922.93	227.45
923.23	227.43
923.53	227.44
923.83	227.39
924.13	227.39
924.44	227.34
924.74	227.34
925.04	227.36
925.34	227.33
925.64	227.30
925.94	227.32
926.24	227.36
926.55	227.33
926.85	227.31
927.15	227.32
927.45	227.33
927.75	227.33
928.05	227.30
928.35	227.30
928.65	227.32
928.95	227.32
929.26	227.27
929.56	227.29
929.86	227.27
930.16	227.23
930.46	227.25
930.76	227.24
931.06	227.17
931.36	227.16
931.66	227.18
931.96	227.17
932.26	227.16
932.56	227.13
932.86	227.19
933.16	227.22
933.46	227.22
933.76	227.18
934.06	227.22
934.36	227.26
934.66	227.25
934.96	227.23
935.26	227.26
935.56	227.27
935.86	227.26
936.16	227.28
936.46	227.33
936.76	227.31
937.06	227.30
937.36	227.30
937.66	227.30
937.96	227.27
938.26	227.25
938.56	227.27
938.86	227.26
939.16	227.25
939.46	227.26
939.76	227.26
940.06	227.28
940.35	227.26
940.65	227.21
940.95	227.24
941.25	227.22
941.55	227.20
941.85	227.22
942.15	227.26
942.45	227.27
942.75	227.27
943.04	227.29
943.34	227.31
943.64	227.31
943.94	227.29
944.24	227.30
944.54	227.31
944.84	227.27
945.13	227.26
945.43	227.28
945.73	227.24
946.03	227.23
946.33	227.22
946.62	227.23
946.92	227.24
947.22	227.24
947.52	227.29
947.82	227.30
948.11	227.28
948.41	227.24
948.71	227.22
949.01	227.19
949.31	227.20
949.60	227.17
949.90	227.20
950.20	227.22
950.50	227.23
950.79	227.24
951.09	227.28
951.39	227.27
951.69	227.21
951.98	227.24
952.28	227.25
952.58	227.24
952.87	227.24
953.17	227.24
953.47	227.21
953.76	227.18
954.06	227.14
954.36	227.12
954.66	227.11
954.95	227.15
955.25	227.16
955.55	227.15
955.84	227.17
956.14	227.17
956.44	227.17
956.73	227.13
957.03	227.11
957.32	227.13
957.62	227.17
957.92	227.19
958.21	227.19
958.51	227.27
958.81	227.29
959.10	227.27
959.40	227.29
959.69	227.30
959.99	227.33
960.29	227.35
960.58	227.34
960.88	227.39
961.17	227.36
961.47	227.36
961.76	227.36
962.06	227.34
962.36	227.31
962.65	227.27
962.95	227.30
963.24	227.29
963.54	227.27
963.83	227.23
964.13	227.25
964.42	227.18
964.72	227.12
965.01	227.15
965.31	227.18
965.60	227.15
965.90	227.19
966.19	227.13
966.49	227.13
966.78	227.12
967.08	227.12
967.37	227.12
967.67	227.14
967.96	227.15
968.26	227.18
968.55	227.20
968.85	227.22
969.14	227.20
969.43	227.19
969.73	227.18
970.02	227.19
970.32	227.18
970.61	227.18
970.91	227.16
971.20	227.11
971.49	227.09
971.79	227.08
972.08	227.02
972.38	227.04
972.67	227.00
972.96	227.03
973.26	226.99
973.55	227.02
973.85	226.99
974.14	226.94
974.43	226.95
974.73	226.92
975.02	226.91
975.31	226.92
975.61	226.92
975.90	226.90
976.19	226.88
976.49	226.88
976.78	226.91
977.07	226.90
977.37	226.91
977.66	226.89
977.95	226.88
978.24	226.86
978.54	226.88
978.83	226.92
979.12	226.89
979.42	226.89
979.71	226.86
980.00	226.86
980.29	226.87
980.59	226.82
980.88	226.81
981.17	226.83
981.46	226.85
981.76	226.86
982.05	226.89
982.34	226.92
982.63	226.91
982.93	226.90
983.22	226.92
983.51	226.92
983.80	226.94
984.09	226.96
984.39	226.97
984.68	226.95
984.97	226.93
985.26	226.95
985.55	226.97
985.85	226.95
986.14	226.96
986.43	226.97
986.72	226.99
987.01	227.00
987.30	227.00
987.59	226.94
987.89	226.93
988.18	226.90
988.47	226.92
988.76	226.89
989.05	226.89
989.34	226.89
989.63	226.89
989.92	226.88
990.22	226.88
990.51	226.90
990.80	226.88
991.09	226.89
991.38	226.90
991.67	226.87
991.96	226.87
992.25	226.87
992.54	226.86
992.83	226.84
993.12	226.80
993.41	226.82
993.70	226.87
993.99	226.89
994.28	226.88
994.58	226.90
994.87	226.89
995.16	226.91
995.45	226.90
995.74	226.89
996.03	226.91
996.32	226.93
996.61	226.92
996.90	226.94
997.19	226.93
997.48	226.90
997.77	226.89
998.06	226.91
998.34	226.91
998.63	226.93
998.92	226.95
999.21	226.99
999.50	227.00
999.79	227.00
1000.08	226.99
1000.37	226.97
1000.66	226.93
1000.95	226.95
1001.24	226.95
1001.53	226.97
1001.82	226.97
1002.11	226.94
1002.40	226.93
1002.68	226.96
1002.97	227.02
1003.26	227.03
1003.55	227.04
1003.84	227.07
1004.13	227.04
1004.42	227.03
1004.71	227.03
1004.99	227.03
1005.28	227.04
1005.57	227.03
1005.86	227.00
1006.15	226.97
1006.44	226.98
1006.72	226.98
1007.01	226.98
1007.30	226.99
1007.59	226.99
1007.88	226.98
1008.17	227.01
1008.45	226.99
1008.74	226.98
1009.03	226.95
1009.32	226.96
1009.60	226.99
1009.89	226.96
1010.18	226.99
1010.47	227.00
1010.76	226.99
1011.04	226.97
1011.33	226.98
1011.62	226.98
1011.91	227.00
1012.19	227.04
1012.48	227.03
1012.77	227.05
1013.05	227.05
1013.34	227.09
1013.63	227.07
1013.92	227.05
1014.20	227.00
1014.49	227.01
1014.78	227.01
1015.06	226.93
1015.35	226.91
1015.64	226.93
1015.92	226.98
1016.21	226.95
1016.50	226.94
1016.78	226.98
1017.07	226.98
1017.36	226.96
1017.64	226.95
1017.93	226.98
1018.22	226.96
1018.50	226.97
1018.79	226.97
1019.08	226.97
1019.36	226.94
1019.65	226.92
1019.93	226.97
1020.22	227.01
1020.51	227.05
1020.79	227.04
1021.08	226.93
1021.36	226.61
1021.65	227.04
1021.94	227.15
1022.22	226.94
1022.51	226.65
1022.79	227.52
1023.08	227.20
1023.36	227.77
1023.65	226.87
>>>>>End Processed Spectral Data<<<<<
