SpectraSuite Data File
++++++++++++++++++++++++++++++++++++
Date: Fri Feb 01 15:02:40 EST 2013
User: group
Dark Spectrum Present: No
Reference Spectrum Present: No
Number of Sampled Component Spectra: 1
Spectrometers: USB2E7196
Integration Time (usec): 35000 (USB2E7196)
Spectra Averaged: 100 (USB2E7196)
Boxcar Smoothing: 10 (USB2E7196)
Correct for Electrical Dark: No (USB2E7196)
Strobe/Lamp Enabled: No (USB2E7196)
Correct for Detector Non-linearity: No (USB2E7196)
Correct for Stray Light: No (USB2E7196)
Number of Pixels in Processed Spectrum: 2048
>>>>>Begin Processed Spectral Data<<<<<
339.09	0.00
339.48	214.90
339.86	216.26
340.24	217.34
340.63	218.84
341.01	221.88
341.39	221.77
341.78	223.45
342.16	224.03
342.54	225.07
342.93	213.20
343.31	223.98
343.69	224.53
344.07	225.01
344.46	225.44
344.84	225.85
345.22	226.08
345.60	226.32
345.99	226.47
346.37	226.61
346.75	226.71
347.13	226.80
347.52	226.90
347.90	226.97
348.28	226.98
348.66	227.04
349.05	227.03
349.43	227.06
349.81	227.10
350.19	227.15
350.57	227.24
350.96	227.33
351.34	227.44
351.72	227.52
352.10	227.63
352.48	227.74
352.87	227.78
353.25	227.92
353.63	228.03
354.01	228.14
354.39	228.23
354.77	228.32
355.15	228.42
355.54	228.45
355.92	228.53
356.30	228.60
356.68	228.76
357.06	228.83
357.44	228.87
357.82	228.96
358.20	229.02
358.58	229.08
358.97	229.13
359.35	229.19
359.73	229.32
360.11	229.34
360.49	229.37
360.87	229.41
361.25	229.43
361.63	229.48
362.01	229.50
362.39	229.52
362.77	229.51
363.15	229.50
363.53	229.54
363.91	229.54
364.29	229.57
364.67	229.47
365.05	229.50
365.43	229.51
365.81	229.51
366.19	229.56
366.57	229.56
366.95	229.53
367.33	229.48
367.71	229.43
368.09	229.45
368.47	229.42
368.85	229.40
369.23	229.37
369.61	229.29
369.99	229.28
370.37	229.27
370.75	229.30
371.13	229.24
371.51	229.17
371.89	229.11
372.27	229.07
372.65	229.00
373.03	228.93
373.41	228.87
373.78	228.80
374.16	228.69
374.54	228.61
374.92	228.53
375.30	228.46
375.68	228.33
376.06	228.25
376.44	228.13
376.82	228.04
377.19	227.94
377.57	227.86
377.95	227.76
378.33	227.66
378.71	227.54
379.09	227.45
379.47	227.37
379.84	227.28
380.22	227.20
380.60	227.13
380.98	227.05
381.36	226.97
381.73	226.89
382.11	226.82
382.49	226.75
382.87	226.67
383.25	226.64
383.62	226.66
384.00	226.59
384.38	226.59
384.76	226.56
385.13	226.55
385.51	226.51
385.89	226.45
386.27	226.38
386.64	226.34
387.02	226.29
387.40	226.27
387.78	226.23
388.15	226.18
388.53	226.16
388.91	226.16
389.29	226.15
389.66	226.15
390.04	226.12
390.42	226.10
390.79	226.13
391.17	226.09
391.55	226.00
391.92	225.98
392.30	225.98
392.68	226.00
393.05	226.02
393.43	226.01
393.81	226.02
394.18	226.04
394.56	226.06
394.94	226.10
395.31	226.13
395.69	226.22
396.06	226.28
396.44	226.31
396.82	226.32
397.19	226.43
397.57	226.45
397.95	226.54
398.32	226.59
398.70	226.67
399.07	226.77
399.45	226.85
399.82	226.94
400.20	227.01
400.58	227.07
400.95	227.13
401.33	227.27
401.70	227.45
402.08	227.57
402.45	227.70
402.83	227.88
403.20	228.04
403.58	228.11
403.95	228.25
404.33	228.37
404.71	228.54
405.08	228.76
405.46	228.92
405.83	229.09
406.21	229.25
406.58	229.38
406.96	229.56
407.33	229.75
407.70	229.96
408.08	230.23
408.45	230.45
408.83	230.70
409.20	230.92
409.58	231.11
409.95	231.39
410.33	231.64
410.70	231.89
411.08	232.16
411.45	232.49
411.82	232.82
412.20	233.20
412.57	233.66
412.95	233.90
413.32	234.27
413.69	234.71
414.07	235.14
414.44	235.62
414.82	236.10
415.19	236.65
415.56	237.20
415.94	237.73
416.31	238.35
416.68	238.96
417.06	239.67
417.43	240.35
417.81	241.12
418.18	241.90
418.55	242.69
418.93	243.53
419.30	244.42
419.67	245.31
420.04	246.25
420.42	247.19
420.79	248.34
421.16	249.50
421.54	250.65
421.91	251.86
422.28	253.10
422.66	254.40
423.03	255.68
423.40	257.01
423.77	258.42
424.15	259.84
424.52	261.31
424.89	262.90
425.26	264.42
425.64	265.83
426.01	267.43
426.38	269.11
426.75	270.76
427.13	272.45
427.50	274.27
427.87	276.15
428.24	277.97
428.61	279.72
428.99	281.66
429.36	283.74
429.73	285.79
430.10	287.83
430.47	289.91
430.85	292.04
431.22	294.29
431.59	296.66
431.96	298.92
432.33	301.42
432.70	303.80
433.08	306.64
433.45	309.27
433.82	311.87
434.19	314.75
434.56	317.58
434.93	320.28
435.30	322.94
435.68	325.79
436.05	328.64
436.42	331.46
436.79	334.00
437.16	336.72
437.53	339.56
437.90	342.39
438.27	345.14
438.64	347.97
439.01	350.55
439.38	352.82
439.75	355.00
440.13	357.49
440.50	359.83
440.87	361.67
441.24	363.69
441.61	365.88
441.98	367.39
442.35	369.22
442.72	371.09
443.09	372.87
443.46	373.91
443.83	374.55
444.20	375.05
444.57	375.90
444.94	376.24
445.31	376.64
445.68	376.99
446.05	377.08
446.42	376.70
446.79	376.33
447.16	375.86
447.53	375.54
447.90	374.44
448.27	373.27
448.64	371.68
449.01	370.46
449.37	368.48
449.74	366.60
450.11	364.35
450.48	361.86
450.85	359.34
451.22	357.20
451.59	355.12
451.96	353.15
452.33	350.54
452.70	348.15
453.07	345.28
453.43	342.40
453.80	339.62
454.17	336.94
454.54	334.38
454.91	331.71
455.28	329.04
455.65	326.51
456.02	324.09
456.38	321.95
456.75	319.35
457.12	317.14
457.49	314.92
457.86	312.76
458.23	310.92
458.59	308.86
458.96	306.74
459.33	304.91
459.70	303.09
460.07	301.56
460.43	299.82
460.80	298.22
461.17	296.74
461.54	295.24
461.91	293.85
462.27	292.37
462.64	291.08
463.01	289.70
463.38	288.38
463.74	287.01
464.11	285.81
464.48	284.77
464.85	283.62
465.21	282.74
465.58	281.77
465.95	280.63
466.32	279.70
466.68	278.79
467.05	277.92
467.42	277.00
467.78	276.05
468.15	275.19
468.52	274.51
468.88	273.67
469.25	272.88
469.62	272.19
469.98	271.56
470.35	270.94
470.72	270.33
471.08	269.69
471.45	269.14
471.82	268.57
472.18	267.97
472.55	267.52
472.92	266.96
473.28	266.51
473.65	266.06
474.02	265.64
474.38	265.28
474.75	264.91
475.11	264.55
475.48	264.29
475.85	264.01
476.21	263.74
476.58	263.52
476.94	263.38
477.31	263.20
477.67	263.01
478.04	262.84
478.41	262.76
478.77	262.78
479.14	262.69
479.50	262.74
479.87	262.79
480.23	262.80
480.60	262.87
480.96	262.93
481.33	263.13
481.69	263.31
482.06	263.49
482.42	263.68
482.79	263.98
483.15	264.27
483.52	264.70
483.88	265.05
484.25	265.46
484.61	265.86
484.98	266.31
485.34	266.84
485.71	267.43
486.07	268.01
486.44	268.60
486.80	269.31
487.17	270.00
487.53	270.79
487.90	271.64
488.26	272.62
488.62	273.59
488.99	274.55
489.35	275.60
489.72	276.70
490.08	277.91
490.44	279.13
490.81	280.46
491.17	281.80
491.54	283.26
491.90	284.78
492.26	286.43
492.63	288.15
492.99	289.91
493.36	291.82
493.72	293.87
494.08	295.94
494.45	298.20
494.81	300.58
495.17	303.01
495.54	305.59
495.90	308.20
496.26	311.01
496.63	313.96
496.99	317.03
497.35	320.30
497.72	323.70
498.08	327.21
498.44	330.85
498.80	334.77
499.17	338.79
499.53	342.94
499.89	347.27
500.26	351.78
500.62	356.41
500.98	361.33
501.34	366.41
501.71	371.73
502.07	377.10
502.43	382.68
502.79	388.50
503.16	394.58
503.52	400.88
503.88	407.28
504.24	413.95
504.60	420.85
504.97	427.97
505.33	435.30
505.69	442.93
506.05	450.71
506.41	458.50
506.78	466.66
507.14	475.14
507.50	483.89
507.86	492.87
508.22	502.10
508.59	511.32
508.95	520.84
509.31	530.58
509.67	540.74
510.03	550.97
510.39	561.52
510.75	572.28
511.12	583.14
511.48	594.43
511.84	605.88
512.20	617.40
512.56	629.32
512.92	641.42
513.28	653.75
513.64	666.27
514.00	678.99
514.37	691.88
514.73	704.89
515.09	717.85
515.45	731.19
515.81	744.79
516.17	758.81
516.53	773.00
516.89	787.17
517.25	801.34
517.61	815.83
517.97	830.30
518.33	844.76
518.69	859.59
519.05	874.57
519.41	889.65
519.77	905.20
520.13	920.69
520.49	936.19
520.85	951.63
521.21	967.36
521.57	983.73
521.93	999.64
522.29	1016.16
522.65	1032.47
523.01	1048.66
523.37	1064.80
523.73	1081.00
524.09	1097.13
524.45	1113.57
524.81	1130.21
525.17	1147.19
525.53	1164.11
525.89	1180.97
526.25	1197.93
526.61	1214.44
526.97	1231.32
527.33	1247.80
527.68	1264.47
528.04	1281.00
528.40	1297.77
528.76	1314.83
529.12	1331.43
529.48	1348.32
529.84	1364.30
530.20	1381.10
530.56	1398.26
530.91	1415.73
531.27	1432.55
531.63	1449.04
531.99	1465.79
532.35	1481.95
532.71	1497.84
533.07	1514.16
533.42	1530.26
533.78	1546.31
534.14	1562.67
534.50	1578.12
534.86	1594.10
535.21	1609.34
535.57	1625.33
535.93	1640.95
536.29	1655.88
536.65	1671.12
537.00	1686.11
537.36	1701.61
537.72	1716.20
538.08	1730.64
538.44	1744.59
538.79	1758.60
539.15	1772.50
539.51	1786.22
539.87	1800.74
540.22	1814.47
540.58	1828.33
540.94	1841.76
541.29	1854.79
541.65	1867.54
542.01	1880.93
542.37	1893.30
542.72	1905.83
543.08	1917.75
543.44	1930.23
543.79	1941.61
544.15	1952.63
544.51	1964.14
544.87	1975.29
545.22	1986.13
545.58	1996.43
545.94	2006.23
546.29	2016.19
546.65	2025.93
547.01	2035.21
547.36	2043.97
547.72	2052.52
548.07	2060.40
548.43	2068.58
548.79	2076.63
549.14	2084.10
549.50	2091.51
549.86	2099.34
550.21	2106.64
550.57	2113.78
550.92	2120.40
551.28	2127.40
551.64	2134.43
551.99	2141.00
552.35	2146.91
552.70	2153.02
553.06	2159.03
553.41	2165.26
553.77	2171.29
554.13	2177.50
554.48	2183.48
554.84	2188.74
555.19	2194.04
555.55	2199.08
555.90	2203.54
556.26	2208.29
556.61	2213.05
556.97	2217.07
557.32	2221.13
557.68	2225.22
558.03	2229.57
558.39	2233.09
558.74	2237.80
559.10	2241.54
559.45	2245.15
559.81	2249.57
560.16	2253.37
560.52	2256.54
560.87	2259.96
561.23	2262.40
561.58	2265.21
561.94	2267.83
562.29	2270.33
562.64	2272.93
563.00	2275.65
563.35	2279.22
563.71	2282.33
564.06	2285.47
564.42	2288.27
564.77	2290.56
565.12	2292.66
565.48	2294.38
565.83	2296.21
566.19	2297.24
566.54	2298.23
566.89	2299.21
567.25	2299.63
567.60	2300.85
567.96	2302.36
568.31	2302.90
568.66	2303.90
569.02	2304.36
569.37	2304.54
569.72	2305.12
570.08	2305.05
570.43	2304.84
570.78	2303.97
571.14	2302.24
571.49	2300.71
571.84	2300.33
572.20	2299.00
572.55	2297.92
572.90	2296.19
573.26	2294.71
573.61	2292.99
573.96	2290.95
574.31	2287.88
574.67	2284.58
575.02	2280.78
575.37	2277.24
575.72	2273.59
576.08	2270.21
576.43	2266.79
576.78	2262.92
577.13	2259.55
577.49	2256.47
577.84	2252.87
578.19	2249.08
578.54	2245.28
578.90	2241.03
579.25	2235.38
579.60	2230.35
579.95	2225.22
580.30	2220.14
580.66	2214.80
581.01	2209.77
581.36	2204.63
581.71	2200.19
582.06	2195.62
582.42	2191.05
582.77	2185.72
583.12	2180.79
583.47	2175.87
583.82	2170.60
584.17	2165.37
584.53	2159.74
584.88	2153.87
585.23	2147.94
585.58	2142.36
585.93	2136.84
586.28	2131.99
586.63	2126.75
586.98	2121.57
587.34	2116.77
587.69	2111.85
588.04	2106.52
588.39	2100.56
588.74	2094.06
589.09	2087.90
589.44	2081.08
589.79	2074.96
590.14	2069.28
590.49	2062.71
590.84	2056.30
591.19	2050.23
591.54	2043.56
591.89	2035.98
592.25	2029.18
592.60	2021.91
592.95	2014.09
593.30	2006.69
593.65	1998.88
594.00	1991.75
594.35	1984.48
594.70	1976.23
595.05	1968.83
595.40	1961.34
595.75	1953.86
596.10	1947.51
596.45	1940.61
596.80	1934.34
597.15	1927.67
597.50	1920.40
597.85	1913.97
598.19	1907.20
598.54	1900.03
598.89	1893.36
599.24	1887.48
599.59	1880.54
599.94	1874.30
600.29	1867.98
600.64	1861.34
600.99	1853.80
601.34	1846.86
601.69	1839.90
602.04	1833.03
602.39	1825.65
602.74	1818.77
603.08	1811.95
603.43	1805.32
603.78	1798.00
604.13	1790.75
604.48	1783.36
604.83	1776.47
605.18	1769.18
605.53	1761.11
605.87	1753.11
606.22	1745.83
606.57	1737.93
606.92	1730.74
607.27	1723.37
607.62	1716.51
607.96	1709.14
608.31	1702.49
608.66	1694.86
609.01	1687.17
609.36	1679.65
609.70	1671.61
610.05	1663.58
610.40	1655.77
610.75	1647.38
611.10	1639.78
611.44	1631.51
611.79	1623.57
612.14	1614.99
612.49	1606.00
612.83	1597.61
613.18	1589.47
613.53	1581.48
613.88	1572.97
614.22	1564.72
614.57	1556.31
614.92	1548.17
615.27	1540.67
615.61	1532.43
615.96	1524.54
616.31	1517.04
616.65	1509.70
617.00	1502.17
617.35	1494.49
617.70	1486.23
618.04	1477.62
618.39	1469.47
618.74	1461.85
619.08	1453.56
619.43	1446.01
619.78	1439.15
620.12	1432.04
620.47	1424.61
620.82	1416.36
621.16	1409.04
621.51	1401.52
621.85	1393.94
622.20	1385.46
622.55	1377.22
622.89	1369.45
623.24	1361.91
623.59	1354.59
623.93	1347.05
624.28	1339.90
624.62	1332.43
624.97	1325.30
625.32	1318.73
625.66	1311.74
626.01	1304.56
626.35	1297.19
626.70	1289.45
627.04	1281.78
627.39	1274.05
627.73	1266.61
628.08	1259.71
628.43	1252.41
628.77	1245.00
629.12	1237.44
629.46	1230.32
629.81	1222.94
630.15	1215.74
630.50	1208.20
630.84	1200.06
631.19	1192.27
631.53	1184.72
631.88	1177.32
632.22	1169.75
632.57	1162.59
632.91	1155.08
633.26	1147.70
633.60	1140.40
633.95	1133.39
634.29	1126.43
634.64	1119.80
634.98	1112.53
635.32	1105.51
635.67	1099.00
636.01	1092.42
636.36	1085.66
636.70	1079.18
637.05	1072.62
637.39	1066.18
637.73	1059.78
638.08	1053.96
638.42	1047.99
638.77	1041.60
639.11	1034.90
639.45	1028.57
639.80	1021.87
640.14	1015.37
640.49	1008.82
640.83	1002.51
641.17	996.23
641.52	989.89
641.86	983.53
642.20	977.76
642.55	971.52
642.89	964.98
643.23	958.52
643.58	952.81
643.92	946.60
644.26	940.52
644.61	934.52
644.95	928.53
645.29	921.90
645.64	915.18
645.98	908.82
646.32	903.11
646.66	897.07
647.01	891.21
647.35	885.62
647.69	879.87
648.04	874.35
648.38	868.69
648.72	862.68
649.06	856.55
649.41	850.66
649.75	844.61
650.09	838.71
650.43	832.85
650.78	826.63
651.12	820.63
651.46	814.94
651.80	809.19
652.14	803.78
652.49	798.43
652.83	793.25
653.17	787.58
653.51	781.83
653.85	776.51
654.20	770.87
654.54	764.84
654.88	759.13
655.22	753.30
655.56	747.57
655.90	742.20
656.25	736.99
656.59	731.67
656.93	726.63
657.27	721.43
657.61	716.03
657.95	710.96
658.29	705.96
658.64	700.77
658.98	695.47
659.32	690.04
659.66	684.86
660.00	679.59
660.34	674.74
660.68	669.84
661.02	664.83
661.36	660.16
661.70	655.75
662.05	651.41
662.39	647.13
662.73	642.73
663.07	638.40
663.41	634.02
663.75	629.55
664.09	625.02
664.43	620.71
664.77	616.62
665.11	612.44
665.45	608.36
665.79	604.33
666.13	600.26
666.47	596.22
666.81	592.05
667.15	587.96
667.49	584.05
667.83	580.34
668.17	576.44
668.51	572.43
668.85	568.41
669.19	564.58
669.53	560.71
669.87	556.85
670.21	553.17
670.55	549.58
670.89	546.20
671.23	542.83
671.57	539.40
671.91	535.92
672.25	532.50
672.58	528.97
672.92	525.57
673.26	522.45
673.60	519.32
673.94	516.26
674.28	513.39
674.62	510.47
674.96	507.36
675.30	504.49
675.64	501.59
675.97	498.93
676.31	496.08
676.65	493.17
676.99	490.48
677.33	487.59
677.67	484.76
678.01	481.63
678.34	478.67
678.68	475.81
679.02	473.03
679.36	470.31
679.70	467.62
680.04	464.86
680.37	461.98
680.71	459.21
681.05	456.65
681.39	453.92
681.73	451.29
682.06	448.75
682.40	446.23
682.74	443.76
683.08	441.18
683.42	438.62
683.75	436.14
684.09	433.61
684.43	431.18
684.77	428.74
685.10	426.47
685.44	424.14
685.78	421.88
686.12	419.60
686.45	417.29
686.79	415.02
687.13	412.86
687.46	410.73
687.80	408.60
688.14	406.42
688.48	404.36
688.81	402.09
689.15	399.90
689.49	397.74
689.82	395.62
690.16	393.52
690.50	391.55
690.83	389.59
691.17	387.63
691.51	385.72
691.84	383.86
692.18	381.93
692.52	379.94
692.85	378.02
693.19	376.17
693.52	374.34
693.86	372.54
694.20	370.76
694.53	368.97
694.87	367.13
695.21	365.31
695.54	363.54
695.88	361.88
696.21	360.21
696.55	358.57
696.88	356.93
697.22	355.34
697.56	353.74
697.89	352.12
698.23	350.48
698.56	348.87
698.90	347.31
699.23	345.69
699.57	344.16
699.90	342.63
700.24	341.09
700.58	339.58
700.91	338.14
701.25	336.70
701.58	335.31
701.92	333.98
702.25	332.61
702.59	331.24
702.92	329.92
703.26	328.63
703.59	327.33
703.93	326.13
704.26	324.86
704.60	323.54
704.93	322.29
705.26	321.08
705.60	319.94
705.93	318.80
706.27	317.79
706.60	316.80
706.94	315.74
707.27	314.66
707.61	313.64
707.94	312.58
708.27	311.50
708.61	310.46
708.94	309.44
709.28	308.48
709.61	307.54
709.94	306.58
710.28	305.56
710.61	304.66
710.95	303.60
711.28	302.76
711.61	301.85
711.95	300.96
712.28	300.02
712.61	299.05
712.95	298.13
713.28	297.23
713.61	296.28
713.95	295.37
714.28	294.54
714.61	293.68
714.95	292.87
715.28	292.03
715.61	291.16
715.95	290.28
716.28	289.42
716.61	288.54
716.95	287.74
717.28	287.02
717.61	286.19
717.94	285.45
718.28	284.62
718.61	283.90
718.94	283.19
719.27	282.54
719.61	281.89
719.94	281.24
720.27	280.53
720.60	279.90
720.94	279.29
721.27	278.67
721.60	278.07
721.93	277.45
722.27	276.90
722.60	276.35
722.93	275.80
723.26	275.26
723.59	274.75
723.93	274.19
724.26	273.62
724.59	273.05
724.92	272.53
725.25	271.99
725.59	271.47
725.92	270.93
726.25	270.44
726.58	269.96
726.91	269.45
727.24	268.99
727.57	268.53
727.91	268.03
728.24	267.57
728.57	267.08
728.90	266.64
729.23	266.14
729.56	265.70
729.89	265.24
730.22	264.76
730.55	264.31
730.89	263.86
731.22	263.46
731.55	263.04
731.88	262.61
732.21	262.20
732.54	261.75
732.87	261.35
733.20	260.94
733.53	260.57
733.86	260.21
734.19	259.80
734.52	259.39
734.85	259.09
735.18	258.66
735.51	258.32
735.84	257.94
736.17	257.62
736.50	257.23
736.83	257.01
737.16	256.71
737.49	256.39
737.82	256.05
738.15	255.69
738.48	255.36
738.81	255.07
739.14	254.76
739.47	254.48
739.80	254.18
740.13	253.89
740.46	253.52
740.79	253.15
741.12	252.85
741.45	252.52
741.78	252.16
742.11	251.91
742.44	251.54
742.77	251.24
743.10	250.90
743.43	250.63
743.75	250.22
744.08	250.06
744.41	249.74
744.74	249.47
745.07	249.20
745.40	248.94
745.73	248.67
746.06	248.36
746.39	248.10
746.71	247.82
747.04	247.53
747.37	247.29
747.70	247.06
748.03	246.83
748.36	246.64
748.68	246.38
749.01	246.11
749.34	245.93
749.67	245.72
750.00	245.52
750.33	245.38
750.65	245.18
750.98	244.82
751.31	244.62
751.64	244.42
751.97	244.26
752.29	244.06
752.62	243.82
752.95	243.65
753.28	243.41
753.60	243.20
753.93	243.00
754.26	242.82
754.59	242.60
754.91	242.41
755.24	242.21
755.57	242.02
755.90	241.85
756.22	241.63
756.55	241.41
756.88	241.21
757.20	240.97
757.53	240.77
757.86	240.62
758.19	240.47
758.51	240.32
758.84	240.12
759.17	239.94
759.49	239.76
759.82	239.65
760.15	239.53
760.47	239.42
760.80	239.24
761.13	239.10
761.45	238.96
761.78	238.80
762.11	238.63
762.43	238.47
762.76	238.33
763.08	238.24
763.41	238.09
763.74	237.94
764.06	237.81
764.39	237.66
764.71	237.51
765.04	237.37
765.37	237.22
765.69	237.11
766.02	236.99
766.34	236.87
766.67	236.69
767.00	236.59
767.32	236.47
767.65	236.45
767.97	236.35
768.30	236.23
768.62	236.10
768.95	235.98
769.27	235.88
769.60	235.78
769.92	235.63
770.25	235.51
770.57	235.43
770.90	235.32
771.22	235.21
771.55	235.13
771.87	235.01
772.20	234.89
772.52	234.88
772.85	234.89
773.17	234.79
773.50	234.73
773.82	234.65
774.15	234.55
774.47	234.38
774.80	234.27
775.12	234.20
775.45	234.15
775.77	234.10
776.09	234.03
776.42	233.92
776.74	233.87
777.07	233.78
777.39	233.69
777.72	233.59
778.04	233.53
778.36	233.44
778.69	233.40
779.01	233.36
779.33	233.15
779.66	233.01
779.98	232.92
780.31	232.82
780.63	232.77
780.95	232.72
781.28	232.67
781.60	232.62
781.92	232.54
782.25	232.45
782.57	232.39
782.89	232.33
783.22	232.28
783.54	232.19
783.86	232.20
784.19	232.15
784.51	232.13
784.83	232.06
785.16	232.01
785.48	231.93
785.80	231.87
786.12	231.87
786.45	231.79
786.77	231.76
787.09	231.71
787.42	231.63
787.74	231.55
788.06	231.51
788.38	231.46
788.71	231.40
789.03	231.41
789.35	231.40
789.67	231.35
789.99	231.34
790.32	231.29
790.64	231.24
790.96	231.25
791.28	231.21
791.61	231.15
791.93	231.11
792.25	231.11
792.57	231.15
792.89	231.08
793.21	231.06
793.54	231.02
793.86	230.95
794.18	230.91
794.50	230.87
794.82	230.84
795.14	230.78
795.47	230.78
795.79	230.72
796.11	230.65
796.43	230.59
796.75	230.54
797.07	230.55
797.39	230.51
797.71	230.44
798.04	230.35
798.36	230.37
798.68	230.32
799.00	230.27
799.32	230.21
799.64	230.19
799.96	230.18
800.28	230.16
800.60	230.14
800.92	230.13
801.24	230.11
801.56	230.09
801.89	230.08
802.21	230.04
802.53	230.02
802.85	229.99
803.17	230.04
803.49	230.01
803.81	229.97
804.13	229.95
804.45	229.92
804.77	229.94
805.09	229.89
805.41	229.89
805.73	229.87
806.05	229.79
806.37	229.79
806.69	229.75
807.01	229.71
807.33	229.73
807.65	229.69
807.97	229.71
808.28	229.69
808.60	229.68
808.92	229.64
809.24	229.65
809.56	229.63
809.88	229.56
810.20	229.50
810.52	229.49
810.84	229.44
811.16	229.38
811.48	229.36
811.80	229.35
812.12	229.29
812.43	229.27
812.75	229.29
813.07	229.24
813.39	229.22
813.71	229.22
814.03	229.19
814.35	229.17
814.67	229.11
814.98	229.07
815.30	229.05
815.62	229.03
815.94	228.95
816.26	228.96
816.58	228.91
816.89	228.93
817.21	228.90
817.53	228.89
817.85	228.87
818.17	228.84
818.48	228.82
818.80	228.83
819.12	228.79
819.44	228.75
819.76	228.72
820.07	228.70
820.39	228.67
820.71	228.64
821.03	228.63
821.34	228.58
821.66	228.57
821.98	228.56
822.30	228.55
822.61	228.59
822.93	228.53
823.25	228.54
823.57	228.51
823.88	228.51
824.20	228.48
824.52	228.52
824.83	228.51
825.15	228.50
825.47	228.49
825.79	228.48
826.10	228.46
826.42	228.45
826.74	228.48
827.05	228.47
827.37	228.49
827.69	228.47
828.00	228.49
828.32	228.49
828.64	228.46
828.95	228.47
829.27	228.41
829.58	228.43
829.90	228.45
830.22	228.46
830.53	228.44
830.85	228.41
831.17	228.38
831.48	228.36
831.80	228.35
832.11	228.35
832.43	228.33
832.75	228.34
833.06	228.39
833.38	228.33
833.69	228.31
834.01	228.26
834.32	228.24
834.64	228.23
834.96	228.19
835.27	228.18
835.59	228.15
835.90	228.15
836.22	228.13
836.53	228.06
836.85	228.04
837.16	228.12
837.48	228.14
837.79	228.13
838.11	228.11
838.42	228.09
838.74	228.08
839.05	228.06
839.37	228.03
839.68	227.94
840.00	227.93
840.31	227.94
840.63	227.93
840.94	227.88
841.26	227.84
841.57	227.87
841.88	227.86
842.20	227.84
842.51	227.80
842.83	227.79
843.14	227.88
843.46	227.86
843.77	227.76
844.08	227.75
844.40	227.72
844.71	227.72
845.03	227.70
845.34	227.69
845.65	227.68
845.97	227.67
846.28	227.68
846.60	227.68
846.91	227.68
847.22	227.69
847.54	227.73
847.85	227.75
848.16	227.72
848.48	227.71
848.79	227.73
849.10	227.76
849.42	227.75
849.73	227.63
850.04	227.63
850.36	227.61
850.67	227.60
850.98	227.62
851.30	227.65
851.61	227.65
851.92	227.65
852.23	227.66
852.55	227.65
852.86	227.65
853.17	227.66
853.49	227.66
853.80	227.68
854.11	227.71
854.42	227.70
854.74	227.67
855.05	227.63
855.36	227.58
855.67	227.57
855.99	227.58
856.30	227.72
856.61	227.72
856.92	227.75
857.23	227.75
857.55	227.73
857.86	227.69
858.17	227.69
858.48	227.63
858.79	227.64
859.11	227.66
859.42	227.63
859.73	227.61
860.04	227.62
860.35	227.57
860.66	227.53
860.98	227.52
861.29	227.55
861.60	227.57
861.91	227.58
862.22	227.53
862.53	227.51
862.84	227.37
863.16	227.40
863.47	227.37
863.78	227.35
864.09	227.35
864.40	227.36
864.71	227.40
865.02	227.44
865.33	227.42
865.64	227.42
865.95	227.45
866.27	227.53
866.58	227.48
866.89	227.50
867.20	227.50
867.51	227.51
867.82	227.51
868.13	227.54
868.44	227.53
868.75	227.58
869.06	227.60
869.37	227.60
869.68	227.59
869.99	227.60
870.30	227.63
870.61	227.63
870.92	227.62
871.23	227.54
871.54	227.57
871.85	227.58
872.16	227.54
872.47	227.51
872.78	227.45
873.09	227.46
873.40	227.46
873.71	227.45
874.02	227.44
874.33	227.43
874.64	227.41
874.95	227.39
875.26	227.36
875.56	227.31
875.87	227.33
876.18	227.29
876.49	227.37
876.80	227.33
877.11	227.30
877.42	227.30
877.73	227.28
878.04	227.24
878.35	227.23
878.66	227.24
878.96	227.21
879.27	227.16
879.58	227.18
879.89	227.14
880.20	227.15
880.51	227.12
880.82	227.09
881.12	227.06
881.43	227.05
881.74	227.04
882.05	227.03
882.36	227.00
882.67	227.01
882.97	226.90
883.28	226.91
883.59	226.89
883.90	226.88
884.21	226.91
884.51	226.90
884.82	226.88
885.13	226.88
885.44	226.90
885.74	226.91
886.05	226.88
886.36	226.87
886.67	226.83
886.98	226.88
887.28	226.92
887.59	226.94
887.90	226.96
888.20	226.96
888.51	227.00
888.82	226.99
889.13	227.02
889.43	227.08
889.74	227.07
890.05	227.06
890.35	227.05
890.66	227.04
890.97	227.02
891.28	227.01
891.58	227.01
891.89	226.99
892.20	227.00
892.50	227.00
892.81	227.01
893.12	227.00
893.42	226.96
893.73	226.95
894.04	226.95
894.34	226.95
894.65	226.94
894.95	226.93
895.26	226.95
895.57	227.01
895.87	226.90
896.18	226.93
896.48	226.94
896.79	226.95
897.10	226.98
897.40	227.03
897.71	227.05
898.01	227.06
898.32	227.08
898.63	227.07
898.93	227.09
899.24	227.09
899.54	227.14
899.85	227.13
900.15	227.13
900.46	227.13
900.76	227.15
901.07	227.15
901.38	227.17
901.68	227.21
901.99	227.15
902.29	227.20
902.60	227.20
902.90	227.21
903.21	227.23
903.51	227.23
903.82	227.24
904.12	227.25
904.43	227.24
904.73	227.25
905.03	227.26
905.34	227.38
905.64	227.38
905.95	227.36
906.25	227.39
906.56	227.40
906.86	227.40
907.17	227.40
907.47	227.42
907.77	227.40
908.08	227.35
908.38	227.36
908.69	227.37
908.99	227.40
909.30	227.38
909.60	227.38
909.90	227.37
910.21	227.32
910.51	227.31
910.81	227.35
911.12	227.35
911.42	227.35
911.73	227.24
912.03	227.23
912.33	227.24
912.64	227.24
912.94	227.22
913.24	227.20
913.55	227.19
913.85	227.16
914.15	227.17
914.46	227.17
914.76	227.17
915.06	227.17
915.37	227.11
915.67	227.12
915.97	227.11
916.27	227.10
916.58	227.10
916.88	227.10
917.18	227.05
917.49	227.09
917.79	227.08
918.09	227.05
918.39	227.05
918.70	227.02
919.00	227.04
919.30	227.09
919.60	227.08
919.91	227.02
920.21	227.03
920.51	227.01
920.81	226.99
921.12	226.99
921.42	226.96
921.72	226.99
922.02	226.95
922.32	226.95
922.63	226.93
922.93	227.00
923.23	227.00
923.53	226.98
923.83	226.90
924.13	226.89
924.44	226.93
924.74	226.96
925.04	226.97
925.34	226.93
925.64	226.87
925.94	226.91
926.24	226.98
926.55	226.97
926.85	227.00
927.15	227.02
927.45	227.02
927.75	227.00
928.05	226.99
928.35	227.02
928.65	227.05
928.95	227.10
929.26	227.02
929.56	227.03
929.86	227.05
930.16	227.09
930.46	227.10
930.76	227.07
931.06	227.05
931.36	227.04
931.66	227.07
931.96	227.09
932.26	227.05
932.56	227.01
932.86	227.04
933.16	227.01
933.46	227.01
933.76	226.98
934.06	227.02
934.36	227.07
934.66	227.09
934.96	227.08
935.26	227.09
935.56	227.13
935.86	227.15
936.16	227.15
936.46	227.12
936.76	227.12
937.06	227.13
937.36	227.15
937.66	227.15
937.96	227.14
938.26	227.13
938.56	227.15
938.86	227.17
939.16	227.17
939.46	227.21
939.76	227.22
940.06	227.24
940.35	227.23
940.65	227.18
940.95	227.19
941.25	227.17
941.55	227.13
941.85	227.12
942.15	227.12
942.45	227.17
942.75	227.17
943.04	227.17
943.34	227.17
943.64	227.15
943.94	227.17
944.24	227.17
944.54	227.15
944.84	227.12
945.13	227.10
945.43	227.12
945.73	227.11
946.03	227.10
946.33	227.07
946.62	227.05
946.92	227.05
947.22	226.99
947.52	227.02
947.82	227.01
948.11	227.01
948.41	226.98
948.71	226.97
949.01	226.98
949.31	226.99
949.60	226.99
949.90	227.02
950.20	227.01
950.50	227.01
950.79	227.01
951.09	227.03
951.39	227.01
951.69	226.96
951.98	226.99
952.28	227.00
952.58	226.99
952.87	226.98
953.17	226.96
953.47	226.99
953.76	226.96
954.06	226.94
954.36	226.91
954.66	226.90
954.95	226.91
955.25	226.89
955.55	226.88
955.84	226.86
956.14	226.86
956.44	226.86
956.73	226.84
957.03	226.85
957.32	226.85
957.62	226.84
957.92	226.87
958.21	226.82
958.51	226.91
958.81	226.91
959.10	226.92
959.40	226.96
959.69	226.97
959.99	226.97
960.29	226.99
960.58	226.99
960.88	227.02
961.17	227.00
961.47	227.00
961.76	226.97
962.06	226.98
962.36	226.94
962.65	226.92
962.95	226.96
963.24	226.91
963.54	226.91
963.83	226.94
964.13	226.91
964.42	226.89
964.72	226.81
965.01	226.84
965.31	226.85
965.60	226.80
965.90	226.86
966.19	226.84
966.49	226.83
966.78	226.82
967.08	226.82
967.37	226.84
967.67	226.86
967.96	226.89
968.26	226.90
968.55	226.93
968.85	226.94
969.14	226.90
969.43	226.94
969.73	226.93
970.02	226.93
970.32	226.95
970.61	226.98
970.91	227.00
971.20	226.97
971.49	226.95
971.79	227.02
972.08	226.97
972.38	226.98
972.67	226.99
972.96	227.01
973.26	227.00
973.55	227.03
973.85	227.01
974.14	227.02
974.43	227.03
974.73	227.00
975.02	226.98
975.31	227.03
975.61	227.05
975.90	227.07
976.19	227.08
976.49	227.08
976.78	227.08
977.07	227.06
977.37	227.06
977.66	227.08
977.95	227.00
978.24	227.03
978.54	227.06
978.83	227.08
979.12	227.06
979.42	227.05
979.71	227.00
980.00	227.01
980.29	227.01
980.59	226.96
980.88	226.98
981.17	226.98
981.46	226.92
981.76	226.89
982.05	226.89
982.34	226.89
982.63	226.88
982.93	226.89
983.22	226.90
983.51	226.93
983.80	226.94
984.09	226.98
984.39	226.91
984.68	226.88
984.97	226.88
985.26	226.88
985.55	226.89
985.85	226.88
986.14	226.86
986.43	226.87
986.72	226.88
987.01	226.84
987.30	226.84
987.59	226.86
987.89	226.86
988.18	226.81
988.47	226.78
988.76	226.77
989.05	226.74
989.34	226.69
989.63	226.70
989.92	226.67
990.22	226.62
990.51	226.65
990.80	226.66
991.09	226.64
991.38	226.66
991.67	226.62
991.96	226.60
992.25	226.61
992.54	226.57
992.83	226.58
993.12	226.58
993.41	226.59
993.70	226.64
993.99	226.69
994.28	226.70
994.58	226.72
994.87	226.72
995.16	226.70
995.45	226.72
995.74	226.66
996.03	226.68
996.32	226.73
996.61	226.72
996.90	226.72
997.19	226.69
997.48	226.69
997.77	226.71
998.06	226.71
998.34	226.72
998.63	226.72
998.92	226.75
999.21	226.78
999.50	226.78
999.79	226.73
1000.08	226.72
1000.37	226.72
1000.66	226.72
1000.95	226.75
1001.24	226.77
1001.53	226.81
1001.82	226.86
1002.11	226.85
1002.40	226.85
1002.68	226.86
1002.97	226.96
1003.26	226.96
1003.55	226.99
1003.84	227.02
1004.13	227.05
1004.42	227.02
1004.71	227.03
1004.99	227.03
1005.28	227.07
1005.57	227.06
1005.86	227.07
1006.15	227.04
1006.44	227.05
1006.72	227.09
1007.01	227.09
1007.30	227.11
1007.59	227.11
1007.88	227.07
1008.17	227.06
1008.45	227.06
1008.74	227.04
1009.03	227.00
1009.32	226.99
1009.60	226.96
1009.89	226.97
1010.18	226.92
1010.47	226.96
1010.76	226.99
1011.04	226.99
1011.33	226.99
1011.62	226.99
1011.91	227.04
1012.19	227.05
1012.48	227.04
1012.77	227.03
1013.05	227.10
1013.34	227.11
1013.63	227.11
1013.92	227.12
1014.20	227.12
1014.49	227.11
1014.78	227.13
1015.06	227.07
1015.35	227.08
1015.64	227.10
1015.92	227.10
1016.21	227.11
1016.50	227.09
1016.78	227.06
1017.07	227.03
1017.36	226.99
1017.64	226.98
1017.93	226.93
1018.22	226.91
1018.50	226.90
1018.79	226.90
1019.08	226.81
1019.36	226.78
1019.65	226.76
1019.93	226.77
1020.22	226.76
1020.51	226.81
1020.79	226.79
1021.08	226.95
1021.36	226.23
1021.65	227.19
1021.94	226.66
1022.22	226.37
1022.51	227.06
1022.79	226.92
1023.08	226.68
1023.36	227.93
1023.65	226.40
>>>>>End Processed Spectral Data<<<<<
