SpectraSuite Data File
++++++++++++++++++++++++++++++++++++
Date: Fri Feb 01 15:11:49 EST 2013
User: group
Dark Spectrum Present: No
Reference Spectrum Present: No
Number of Sampled Component Spectra: 1
Spectrometers: USB2E7196
Integration Time (usec): 35000 (USB2E7196)
Spectra Averaged: 100 (USB2E7196)
Boxcar Smoothing: 10 (USB2E7196)
Correct for Electrical Dark: No (USB2E7196)
Strobe/Lamp Enabled: No (USB2E7196)
Correct for Detector Non-linearity: No (USB2E7196)
Correct for Stray Light: No (USB2E7196)
Number of Pixels in Processed Spectrum: 2048
>>>>>Begin Processed Spectral Data<<<<<
339.09	0.00
339.48	215.55
339.86	216.40
340.24	218.47
340.63	219.84
341.01	222.13
341.39	221.97
341.78	224.20
342.16	224.64
342.54	225.30
342.93	213.72
343.31	224.53
343.69	225.09
344.07	225.56
344.46	225.98
344.84	226.33
345.22	226.57
345.60	226.82
345.99	226.99
346.37	227.11
346.75	227.21
347.13	227.27
347.52	227.33
347.90	227.38
348.28	227.40
348.66	227.43
349.05	227.39
349.43	227.39
349.81	227.42
350.19	227.43
350.57	227.46
350.96	227.53
351.34	227.58
351.72	227.62
352.10	227.74
352.48	227.77
352.87	227.84
353.25	227.89
353.63	227.97
354.01	227.98
354.39	228.05
354.77	228.10
355.15	228.18
355.54	228.24
355.92	228.25
356.30	228.29
356.68	228.42
357.06	228.50
357.44	228.53
357.82	228.60
358.20	228.68
358.58	228.73
358.97	228.79
359.35	228.87
359.73	228.92
360.11	228.93
360.49	228.99
360.87	229.00
361.25	229.06
361.63	229.10
362.01	229.16
362.39	229.16
362.77	229.20
363.15	229.20
363.53	229.19
363.91	229.22
364.29	229.25
364.67	229.18
365.05	229.17
365.43	229.23
365.81	229.24
366.19	229.25
366.57	229.28
366.95	229.27
367.33	229.22
367.71	229.22
368.09	229.25
368.47	229.23
368.85	229.21
369.23	229.19
369.61	229.15
369.99	229.13
370.37	229.14
370.75	229.16
371.13	229.12
371.51	229.09
371.89	229.06
372.27	229.00
372.65	228.97
373.03	228.91
373.41	228.83
373.78	228.77
374.16	228.64
374.54	228.59
374.92	228.49
375.30	228.46
375.68	228.38
376.06	228.30
376.44	228.22
376.82	228.20
377.19	228.14
377.57	228.09
377.95	228.03
378.33	227.95
378.71	227.81
379.09	227.76
379.47	227.72
379.84	227.64
380.22	227.58
380.60	227.49
380.98	227.45
381.36	227.36
381.73	227.28
382.11	227.30
382.49	227.21
382.87	227.15
383.25	227.06
383.62	227.12
384.00	227.05
384.38	226.98
384.76	226.93
385.13	226.92
385.51	226.86
385.89	226.81
386.27	226.79
386.64	226.78
387.02	226.74
387.40	226.68
387.78	226.63
388.15	226.61
388.53	226.60
388.91	226.54
389.29	226.54
389.66	226.53
390.04	226.47
390.42	226.51
390.79	226.48
391.17	226.48
391.55	226.39
391.92	226.36
392.30	226.39
392.68	226.36
393.05	226.36
393.43	226.37
393.81	226.36
394.18	226.35
394.56	226.37
394.94	226.41
395.31	226.43
395.69	226.51
396.06	226.55
396.44	226.58
396.82	226.62
397.19	226.72
397.57	226.78
397.95	226.84
398.32	226.85
398.70	226.96
399.07	227.06
399.45	227.09
399.82	227.15
400.20	227.24
400.58	227.31
400.95	227.33
401.33	227.44
401.70	227.59
402.08	227.71
402.45	227.79
402.83	227.91
403.20	228.02
403.58	228.13
403.95	228.28
404.33	228.41
404.71	228.53
405.08	228.69
405.46	228.81
405.83	228.96
406.21	229.13
406.58	229.29
406.96	229.44
407.33	229.63
407.70	229.85
408.08	230.08
408.45	230.32
408.83	230.59
409.20	230.79
409.58	230.95
409.95	231.20
410.33	231.48
410.70	231.72
411.08	232.03
411.45	232.33
411.82	232.59
412.20	232.96
412.57	233.39
412.95	233.69
413.32	234.12
413.69	234.54
414.07	234.98
414.44	235.42
414.82	235.92
415.19	236.47
415.56	237.03
415.94	237.59
416.31	238.23
416.68	238.83
417.06	239.56
417.43	240.25
417.81	241.00
418.18	241.80
418.55	242.63
418.93	243.50
419.30	244.38
419.67	245.33
420.04	246.27
420.42	247.23
420.79	248.43
421.16	249.57
421.54	250.76
421.91	251.96
422.28	253.20
422.66	254.50
423.03	255.82
423.40	257.16
423.77	258.57
424.15	259.98
424.52	261.47
424.89	263.05
425.26	264.58
425.64	266.05
426.01	267.65
426.38	269.33
426.75	271.01
427.13	272.70
427.50	274.49
427.87	276.42
428.24	278.30
428.61	280.06
428.99	282.02
429.36	284.10
429.73	286.19
430.10	288.25
430.47	290.31
430.85	292.42
431.22	294.70
431.59	297.11
431.96	299.39
432.33	301.90
432.70	304.31
433.08	307.16
433.45	309.82
433.82	312.43
434.19	315.32
434.56	318.16
434.93	320.88
435.30	323.55
435.68	326.42
436.05	329.28
436.42	332.07
436.79	334.58
437.16	337.27
437.53	340.07
437.90	342.89
438.27	345.72
438.64	348.57
439.01	351.16
439.38	353.39
439.75	355.60
440.13	358.07
440.50	360.40
440.87	362.29
441.24	364.24
441.61	366.43
441.98	367.93
442.35	369.73
442.72	371.58
443.09	373.40
443.46	374.42
443.83	374.96
444.20	375.50
444.57	376.35
444.94	376.71
445.31	377.07
445.68	377.39
446.05	377.47
446.42	377.11
446.79	376.70
447.16	376.22
447.53	375.80
447.90	374.64
448.27	373.49
448.64	371.86
449.01	370.68
449.37	368.65
449.74	366.76
450.11	364.45
450.48	361.98
450.85	359.39
451.22	357.20
451.59	355.20
451.96	353.26
452.33	350.64
452.70	348.32
453.07	345.48
453.43	342.60
453.80	339.78
454.17	337.07
454.54	334.52
454.91	331.84
455.28	329.20
455.65	326.74
456.02	324.30
456.38	322.19
456.75	319.52
457.12	317.29
457.49	315.02
457.86	312.88
458.23	311.02
458.59	308.99
458.96	306.90
459.33	305.08
459.70	303.14
460.07	301.65
460.43	299.85
460.80	298.20
461.17	296.75
461.54	295.25
461.91	293.84
462.27	292.37
462.64	291.11
463.01	289.74
463.38	288.42
463.74	287.04
464.11	285.88
464.48	284.86
464.85	283.73
465.21	282.88
465.58	282.00
465.95	280.89
466.32	279.99
466.68	279.08
467.05	278.16
467.42	277.30
467.78	276.35
468.15	275.46
468.52	274.81
468.88	273.91
469.25	273.09
469.62	272.44
469.98	271.73
470.35	271.07
470.72	270.48
471.08	269.82
471.45	269.25
471.82	268.68
472.18	268.06
472.55	267.61
472.92	267.07
473.28	266.54
473.65	266.09
474.02	265.66
474.38	265.28
474.75	264.90
475.11	264.53
475.48	264.24
475.85	264.02
476.21	263.73
476.58	263.57
476.94	263.41
477.31	263.21
477.67	263.07
478.04	262.97
478.41	262.87
478.77	262.89
479.14	262.84
479.50	262.82
479.87	262.88
480.23	262.96
480.60	263.03
480.96	263.12
481.33	263.29
481.69	263.46
482.06	263.66
482.42	263.89
482.79	264.14
483.15	264.47
483.52	264.82
483.88	265.18
484.25	265.57
484.61	266.03
484.98	266.52
485.34	267.06
485.71	267.59
486.07	268.22
486.44	268.74
486.80	269.45
487.17	270.18
487.53	270.98
487.90	271.82
488.26	272.75
488.62	273.77
488.99	274.74
489.35	275.78
489.72	276.90
490.08	278.10
490.44	279.33
490.81	280.66
491.17	282.00
491.54	283.50
491.90	285.04
492.26	286.68
492.63	288.38
492.99	290.19
493.36	292.12
493.72	294.17
494.08	296.29
494.45	298.54
494.81	300.90
495.17	303.35
495.54	305.95
495.90	308.62
496.26	311.38
496.63	314.32
496.99	317.42
497.35	320.69
497.72	324.10
498.08	327.61
498.44	331.31
498.80	335.22
499.17	339.26
499.53	343.42
499.89	347.73
500.26	352.18
500.62	356.82
500.98	361.76
501.34	366.84
501.71	372.18
502.07	377.60
502.43	383.18
502.79	388.92
503.16	394.96
503.52	401.21
503.88	407.65
504.24	414.29
504.60	421.21
504.97	428.29
505.33	435.63
505.69	443.28
506.05	451.01
506.41	458.91
506.78	467.06
507.14	475.47
507.50	484.26
507.86	493.29
508.22	502.49
508.59	511.71
508.95	521.30
509.31	531.10
509.67	541.22
510.03	551.53
510.39	562.16
510.75	572.97
511.12	583.92
511.48	595.23
511.84	606.70
512.20	618.23
512.56	630.17
512.92	642.31
513.28	654.66
513.64	667.20
514.00	679.94
514.37	692.92
514.73	705.98
515.09	719.01
515.45	732.37
515.81	745.95
516.17	759.92
516.53	773.98
516.89	788.16
517.25	802.34
517.61	816.73
517.97	831.27
518.33	845.73
518.69	860.49
519.05	875.50
519.41	890.66
519.77	906.15
520.13	921.61
520.49	937.04
520.85	952.53
521.21	968.31
521.57	984.48
521.93	1000.26
522.29	1016.72
522.65	1032.85
523.01	1049.09
523.37	1065.22
523.73	1081.39
524.09	1097.57
524.45	1113.89
524.81	1130.61
525.17	1147.58
525.53	1164.40
525.89	1181.28
526.25	1198.11
526.61	1214.53
526.97	1231.36
527.33	1247.91
527.68	1264.55
528.04	1281.08
528.40	1297.72
528.76	1314.78
529.12	1331.61
529.48	1348.52
529.84	1364.60
530.20	1381.50
530.56	1398.62
530.91	1416.08
531.27	1432.91
531.63	1449.32
531.99	1466.01
532.35	1481.99
532.71	1498.00
533.07	1514.45
533.42	1530.35
533.78	1546.59
534.14	1562.96
534.50	1578.38
534.86	1594.34
535.21	1609.60
535.57	1625.60
535.93	1641.25
536.29	1656.04
536.65	1671.19
537.00	1686.18
537.36	1701.65
537.72	1716.17
538.08	1730.59
538.44	1744.46
538.79	1758.50
539.15	1772.57
539.51	1786.37
539.87	1800.85
540.22	1814.57
540.58	1828.29
540.94	1841.85
541.29	1854.87
541.65	1867.58
542.01	1880.89
542.37	1893.22
542.72	1905.82
543.08	1917.71
543.44	1930.15
543.79	1941.54
544.15	1952.51
544.51	1964.00
544.87	1974.90
545.22	1985.69
545.58	1996.06
545.94	2005.89
546.29	2015.84
546.65	2025.55
547.01	2034.91
547.36	2043.70
547.72	2052.24
548.07	2060.20
548.43	2068.38
548.79	2076.39
549.14	2084.06
549.50	2091.52
549.86	2099.31
550.21	2106.54
550.57	2113.69
550.92	2120.41
551.28	2127.59
551.64	2134.76
551.99	2141.54
552.35	2147.77
552.70	2154.02
553.06	2159.89
553.41	2166.25
553.77	2172.22
554.13	2178.29
554.48	2184.28
554.84	2189.51
555.19	2194.90
555.55	2200.06
555.90	2204.36
556.26	2209.05
556.61	2213.87
556.97	2218.06
557.32	2222.26
557.68	2226.57
558.03	2230.97
558.39	2234.60
558.74	2239.09
559.10	2242.83
559.45	2246.25
559.81	2250.65
560.16	2254.35
560.52	2257.62
560.87	2261.13
561.23	2263.82
561.58	2266.71
561.94	2269.38
562.29	2272.00
562.64	2274.45
563.00	2277.04
563.35	2280.68
563.71	2283.99
564.06	2287.06
564.42	2289.94
564.77	2292.08
565.12	2294.11
565.48	2295.77
565.83	2297.41
566.19	2298.66
566.54	2299.48
566.89	2300.57
567.25	2300.93
567.60	2302.39
567.96	2303.96
568.31	2304.63
568.66	2305.49
569.02	2306.06
569.37	2306.19
569.72	2306.85
570.08	2306.88
570.43	2306.76
570.78	2305.88
571.14	2304.19
571.49	2302.82
571.84	2302.28
572.20	2301.19
572.55	2300.06
572.90	2298.53
573.26	2297.15
573.61	2295.35
573.96	2293.43
574.31	2290.23
574.67	2287.06
575.02	2283.21
575.37	2279.62
575.72	2275.63
576.08	2272.28
576.43	2268.91
576.78	2265.19
577.13	2262.03
577.49	2258.91
577.84	2255.29
578.19	2251.45
578.54	2247.59
578.90	2243.20
579.25	2237.65
579.60	2232.57
579.95	2227.54
580.30	2222.38
580.66	2217.04
581.01	2211.90
581.36	2206.98
581.71	2202.81
582.06	2198.38
582.42	2193.82
582.77	2188.70
583.12	2183.92
583.47	2178.97
583.82	2173.71
584.17	2168.30
584.53	2162.62
584.88	2156.90
585.23	2150.92
585.58	2145.48
585.93	2140.08
586.28	2135.23
586.63	2130.01
586.98	2124.86
587.34	2120.12
587.69	2115.11
588.04	2109.65
588.39	2104.01
588.74	2097.41
589.09	2091.12
589.44	2084.08
589.79	2078.08
590.14	2072.14
590.49	2065.57
590.84	2059.28
591.19	2053.22
591.54	2046.71
591.89	2039.14
592.25	2032.32
592.60	2025.16
592.95	2017.42
593.30	2009.95
593.65	2002.17
594.00	1995.13
594.35	1987.89
594.70	1979.73
595.05	1972.44
595.40	1965.22
595.75	1957.58
596.10	1951.36
596.45	1944.53
596.80	1938.45
597.15	1931.63
597.50	1924.49
597.85	1918.21
598.19	1911.42
598.54	1904.16
598.89	1897.51
599.24	1891.59
599.59	1884.74
599.94	1878.56
600.29	1872.35
600.64	1865.77
600.99	1858.38
601.34	1851.34
601.69	1844.39
602.04	1837.38
602.39	1829.92
602.74	1823.00
603.08	1816.29
603.43	1809.50
603.78	1802.24
604.13	1795.02
604.48	1787.71
604.83	1780.96
605.18	1773.68
605.53	1765.63
605.87	1757.79
606.22	1750.46
606.57	1742.54
606.92	1735.25
607.27	1727.93
607.62	1720.91
607.96	1713.52
608.31	1706.81
608.66	1699.16
609.01	1691.48
609.36	1683.91
609.70	1675.92
610.05	1667.81
610.40	1660.06
610.75	1651.75
611.10	1644.11
611.44	1635.66
611.79	1627.64
612.14	1618.91
612.49	1609.94
612.83	1601.58
613.18	1593.35
613.53	1585.34
613.88	1576.73
614.22	1568.45
614.57	1560.00
614.92	1551.95
615.27	1544.36
615.61	1535.98
615.96	1528.05
616.31	1520.48
616.65	1513.17
617.00	1505.65
617.35	1497.88
617.70	1489.42
618.04	1480.82
618.39	1472.49
618.74	1464.97
619.08	1456.67
619.43	1449.09
619.78	1442.15
620.12	1434.98
620.47	1427.49
620.82	1419.29
621.16	1412.03
621.51	1404.37
621.85	1396.73
622.20	1388.20
622.55	1379.94
622.89	1372.12
623.24	1364.48
623.59	1357.13
623.93	1349.50
624.28	1342.24
624.62	1334.82
624.97	1327.80
625.32	1321.09
625.66	1314.08
626.01	1306.81
626.35	1299.35
626.70	1291.63
627.04	1283.77
627.39	1276.00
627.73	1268.57
628.08	1261.67
628.43	1254.23
628.77	1246.83
629.12	1239.20
629.46	1232.05
629.81	1224.70
630.15	1217.57
630.50	1210.20
630.84	1201.99
631.19	1194.17
631.53	1186.77
631.88	1179.31
632.22	1171.78
632.57	1164.48
632.91	1156.96
633.26	1149.62
633.60	1142.30
633.95	1135.19
634.29	1128.23
634.64	1121.64
634.98	1114.39
635.32	1107.29
635.67	1100.83
636.01	1094.31
636.36	1087.62
636.70	1081.18
637.05	1074.60
637.39	1068.19
637.73	1061.69
638.08	1055.94
638.42	1049.98
638.77	1043.57
639.11	1036.91
639.45	1030.50
639.80	1023.87
640.14	1017.46
640.49	1010.92
640.83	1004.58
641.17	998.40
641.52	992.19
641.86	985.77
642.20	979.87
642.55	973.57
642.89	967.02
643.23	960.47
643.58	954.69
643.92	948.48
644.26	942.37
644.61	936.29
644.95	930.31
645.29	923.53
645.64	916.79
645.98	910.37
646.32	904.69
646.66	898.54
647.01	892.81
647.35	887.22
647.69	881.43
648.04	875.95
648.38	870.11
648.72	864.06
649.06	858.00
649.41	852.16
649.75	846.24
650.09	840.34
650.43	834.54
650.78	828.32
651.12	822.32
651.46	816.63
651.80	810.93
652.14	805.52
652.49	800.30
652.83	795.15
653.17	789.50
653.51	783.67
653.85	778.47
654.20	772.79
654.54	766.73
654.88	761.05
655.22	755.23
655.56	749.62
655.90	744.16
656.25	738.89
656.59	733.59
656.93	728.40
657.27	723.26
657.61	717.84
657.95	712.74
658.29	707.73
658.64	702.53
658.98	697.19
659.32	691.75
659.66	686.49
660.00	681.14
660.34	676.24
660.68	671.39
661.02	666.29
661.36	661.60
661.70	657.20
662.05	652.74
662.39	648.37
662.73	643.87
663.07	639.50
663.41	635.03
663.75	630.47
664.09	625.97
664.43	621.58
664.77	617.48
665.11	613.29
665.45	609.19
665.79	605.09
666.13	600.97
666.47	596.85
666.81	592.68
667.15	588.62
667.49	584.72
667.83	580.93
668.17	577.05
668.51	572.98
668.85	568.93
669.19	565.16
669.53	561.32
669.87	557.52
670.21	553.86
670.55	550.27
670.89	546.89
671.23	543.47
671.57	540.03
671.91	536.53
672.25	533.07
672.58	529.54
672.92	526.17
673.26	523.04
673.60	519.94
673.94	516.89
674.28	513.98
674.62	511.05
674.96	508.01
675.30	505.07
675.64	502.17
675.97	499.41
676.31	496.55
676.65	493.67
676.99	490.92
677.33	488.06
677.67	485.23
678.01	482.24
678.34	479.24
678.68	476.37
679.02	473.55
679.36	470.82
679.70	468.12
680.04	465.35
680.37	462.49
680.71	459.69
681.05	457.06
681.39	454.35
681.73	451.74
682.06	449.20
682.40	446.68
682.74	444.16
683.08	441.64
683.42	439.10
683.75	436.64
684.09	434.14
684.43	431.68
684.77	429.28
685.10	426.91
685.44	424.69
685.78	422.41
686.12	420.20
686.45	417.88
686.79	415.58
687.13	413.40
687.46	411.28
687.80	409.18
688.14	406.99
688.48	404.96
688.81	402.74
689.15	400.62
689.49	398.47
689.82	396.39
690.16	394.34
690.50	392.35
690.83	390.40
691.17	388.41
691.51	386.58
691.84	384.71
692.18	382.80
692.52	380.80
692.85	378.92
693.19	377.03
693.52	375.28
693.86	373.53
694.20	371.77
694.53	369.94
694.87	368.11
695.21	366.36
695.54	364.59
695.88	362.83
696.21	361.11
696.55	359.45
696.88	357.80
697.22	356.16
697.56	354.57
697.89	352.86
698.23	351.30
698.56	349.65
698.90	348.07
699.23	346.41
699.57	344.87
699.90	343.28
700.24	341.76
700.58	340.20
700.91	338.69
701.25	337.26
701.58	335.93
701.92	334.52
702.25	333.14
702.59	331.71
702.92	330.42
703.26	329.08
703.59	327.83
703.93	326.62
704.26	325.37
704.60	324.03
704.93	322.82
705.26	321.57
705.60	320.44
705.93	319.29
706.27	318.31
706.60	317.27
706.94	316.22
707.27	315.08
707.61	314.00
707.94	312.98
708.27	311.87
708.61	310.77
708.94	309.76
709.28	308.76
709.61	307.82
709.94	306.85
710.28	305.83
710.61	304.84
710.95	303.78
711.28	302.81
711.61	301.88
711.95	300.99
712.28	300.00
712.61	298.97
712.95	298.04
713.28	297.13
713.61	296.21
713.95	295.31
714.28	294.50
714.61	293.64
714.95	292.78
715.28	291.91
715.61	291.06
715.95	290.25
716.28	289.42
716.61	288.62
716.95	287.83
717.28	287.12
717.61	286.31
717.94	285.63
718.28	284.86
718.61	284.16
718.94	283.49
719.27	282.86
719.61	282.23
719.94	281.60
720.27	280.89
720.60	280.22
720.94	279.62
721.27	279.01
721.60	278.43
721.93	277.83
722.27	277.33
722.60	276.76
722.93	276.18
723.26	275.62
723.59	275.05
723.93	274.50
724.26	273.94
724.59	273.41
724.92	272.86
725.25	272.39
725.59	271.87
725.92	271.31
726.25	270.82
726.58	270.36
726.91	269.84
727.24	269.36
727.57	268.91
727.91	268.39
728.24	267.94
728.57	267.47
728.90	266.99
729.23	266.49
729.56	266.06
729.89	265.59
730.22	265.14
730.55	264.67
730.89	264.24
731.22	263.81
731.55	263.38
731.88	262.94
732.21	262.48
732.54	262.08
732.87	261.64
733.20	261.27
733.53	260.87
733.86	260.48
734.19	260.09
734.52	259.71
734.85	259.43
735.18	258.98
735.51	258.61
735.84	258.28
736.17	257.96
736.50	257.57
736.83	257.33
737.16	257.00
737.49	256.65
737.82	256.29
738.15	255.93
738.48	255.58
738.81	255.23
739.14	254.91
739.47	254.57
739.80	254.26
740.13	253.90
740.46	253.55
740.79	253.26
741.12	252.92
741.45	252.59
741.78	252.20
742.11	251.97
742.44	251.62
742.77	251.31
743.10	250.96
743.43	250.67
743.75	250.26
744.08	250.09
744.41	249.82
744.74	249.55
745.07	249.26
745.40	249.03
745.73	248.82
746.06	248.55
746.39	248.30
746.71	248.02
747.04	247.75
747.37	247.49
747.70	247.23
748.03	246.99
748.36	246.78
748.68	246.53
749.01	246.24
749.34	245.99
749.67	245.76
750.00	245.54
750.33	245.43
750.65	245.23
750.98	244.86
751.31	244.64
751.64	244.41
751.97	244.28
752.29	244.09
752.62	243.82
752.95	243.60
753.28	243.33
753.60	243.14
753.93	243.00
754.26	242.78
754.59	242.54
754.91	242.35
755.24	242.15
755.57	241.98
755.90	241.81
756.22	241.66
756.55	241.45
756.88	241.27
757.20	241.00
757.53	240.80
757.86	240.68
758.19	240.55
758.51	240.39
758.84	240.16
759.17	239.97
759.49	239.84
759.82	239.76
760.15	239.65
760.47	239.51
760.80	239.32
761.13	239.24
761.45	239.10
761.78	238.95
762.11	238.83
762.43	238.69
762.76	238.54
763.08	238.42
763.41	238.30
763.74	238.16
764.06	238.01
764.39	237.88
764.71	237.73
765.04	237.60
765.37	237.47
765.69	237.34
766.02	237.23
766.34	237.08
766.67	236.93
767.00	236.86
767.32	236.80
767.65	236.73
767.97	236.61
768.30	236.51
768.62	236.38
768.95	236.26
769.27	236.15
769.60	236.06
769.92	235.94
770.25	235.80
770.57	235.69
770.90	235.57
771.22	235.47
771.55	235.34
771.87	235.25
772.20	235.14
772.52	235.13
772.85	235.13
773.17	235.03
773.50	234.91
773.82	234.79
774.15	234.62
774.47	234.49
774.80	234.37
775.12	234.28
775.45	234.22
775.77	234.12
776.09	234.01
776.42	233.93
776.74	233.89
777.07	233.83
777.39	233.76
777.72	233.70
778.04	233.61
778.36	233.56
778.69	233.48
779.01	233.42
779.33	233.27
779.66	233.09
779.98	233.00
780.31	232.96
780.63	232.92
780.95	232.89
781.28	232.82
781.60	232.76
781.92	232.69
782.25	232.62
782.57	232.53
782.89	232.51
783.22	232.45
783.54	232.37
783.86	232.33
784.19	232.26
784.51	232.22
784.83	232.16
785.16	232.08
785.48	232.03
785.80	231.97
786.12	231.92
786.45	231.90
786.77	231.88
787.09	231.80
787.42	231.72
787.74	231.67
788.06	231.61
788.38	231.57
788.71	231.52
789.03	231.52
789.35	231.51
789.67	231.45
789.99	231.44
790.32	231.36
790.64	231.30
790.96	231.35
791.28	231.30
791.61	231.26
791.93	231.27
792.25	231.20
792.57	231.23
792.89	231.18
793.21	231.13
793.54	231.05
793.86	231.03
794.18	230.99
794.50	230.92
794.82	230.91
795.14	230.91
795.47	230.88
795.79	230.81
796.11	230.78
796.43	230.73
796.75	230.68
797.07	230.67
797.39	230.63
797.71	230.54
798.04	230.49
798.36	230.47
798.68	230.44
799.00	230.41
799.32	230.33
799.64	230.35
799.96	230.29
800.28	230.30
800.60	230.26
800.92	230.23
801.24	230.22
801.56	230.19
801.89	230.13
802.21	230.08
802.53	230.05
802.85	230.03
803.17	230.05
803.49	229.98
803.81	229.97
804.13	229.97
804.45	229.94
804.77	229.93
805.09	229.91
805.41	229.86
805.73	229.83
806.05	229.81
806.37	229.79
806.69	229.82
807.01	229.80
807.33	229.78
807.65	229.75
807.97	229.75
808.28	229.75
808.60	229.75
808.92	229.74
809.24	229.78
809.56	229.75
809.88	229.70
810.20	229.69
810.52	229.67
810.84	229.66
811.16	229.59
811.48	229.56
811.80	229.58
812.12	229.58
812.43	229.57
812.75	229.54
813.07	229.49
813.39	229.44
813.71	229.38
814.03	229.33
814.35	229.31
814.67	229.23
814.98	229.16
815.30	229.14
815.62	229.11
815.94	229.03
816.26	229.05
816.58	229.01
816.89	229.04
817.21	228.99
817.53	228.94
817.85	228.97
818.17	228.99
818.48	228.90
818.80	228.91
819.12	228.88
819.44	228.83
819.76	228.85
820.07	228.85
820.39	228.86
820.71	228.87
821.03	228.85
821.34	228.86
821.66	228.87
821.98	228.86
822.30	228.87
822.61	228.93
822.93	228.86
823.25	228.84
823.57	228.78
823.88	228.80
824.20	228.78
824.52	228.77
824.83	228.72
825.15	228.72
825.47	228.68
825.79	228.66
826.10	228.64
826.42	228.59
826.74	228.60
827.05	228.61
827.37	228.61
827.69	228.60
828.00	228.60
828.32	228.57
828.64	228.54
828.95	228.58
829.27	228.52
829.58	228.51
829.90	228.52
830.22	228.53
830.53	228.52
830.85	228.51
831.17	228.47
831.48	228.48
831.80	228.47
832.11	228.44
832.43	228.44
832.75	228.45
833.06	228.48
833.38	228.40
833.69	228.37
834.01	228.35
834.32	228.33
834.64	228.32
834.96	228.34
835.27	228.33
835.59	228.26
835.90	228.22
836.22	228.25
836.53	228.22
836.85	228.23
837.16	228.32
837.48	228.32
837.79	228.36
838.11	228.36
838.42	228.37
838.74	228.37
839.05	228.36
839.37	228.36
839.68	228.31
840.00	228.30
840.31	228.33
840.63	228.30
840.94	228.29
841.26	228.26
841.57	228.24
841.88	228.26
842.20	228.28
842.51	228.26
842.83	228.22
843.14	228.29
843.46	228.27
843.77	228.19
844.08	228.19
844.40	228.13
844.71	228.11
845.03	228.09
845.34	228.08
845.65	228.09
845.97	228.08
846.28	228.08
846.60	228.09
846.91	228.03
847.22	228.02
847.54	228.05
847.85	228.06
848.16	228.02
848.48	227.98
848.79	227.99
849.10	228.01
849.42	228.01
849.73	227.92
850.04	227.90
850.36	227.86
850.67	227.87
850.98	227.85
851.30	227.82
851.61	227.81
851.92	227.77
852.23	227.76
852.55	227.76
852.86	227.75
853.17	227.74
853.49	227.78
853.80	227.75
854.11	227.78
854.42	227.77
854.74	227.81
855.05	227.77
855.36	227.68
855.67	227.65
855.99	227.65
856.30	227.78
856.61	227.75
856.92	227.73
857.23	227.71
857.55	227.71
857.86	227.71
858.17	227.73
858.48	227.71
858.79	227.72
859.11	227.70
859.42	227.70
859.73	227.72
860.04	227.68
860.35	227.65
860.66	227.60
860.98	227.61
861.29	227.57
861.60	227.58
861.91	227.63
862.22	227.59
862.53	227.56
862.84	227.42
863.16	227.46
863.47	227.44
863.78	227.43
864.09	227.44
864.40	227.44
864.71	227.43
865.02	227.44
865.33	227.43
865.64	227.43
865.95	227.41
866.27	227.46
866.58	227.45
866.89	227.46
867.20	227.45
867.51	227.42
867.82	227.42
868.13	227.46
868.44	227.41
868.75	227.47
869.06	227.49
869.37	227.52
869.68	227.51
869.99	227.53
870.30	227.54
870.61	227.54
870.92	227.55
871.23	227.52
871.54	227.55
871.85	227.55
872.16	227.56
872.47	227.57
872.78	227.54
873.09	227.56
873.40	227.57
873.71	227.57
874.02	227.59
874.33	227.56
874.64	227.57
874.95	227.59
875.26	227.58
875.56	227.56
875.87	227.55
876.18	227.53
876.49	227.63
876.80	227.60
877.11	227.60
877.42	227.58
877.73	227.60
878.04	227.62
878.35	227.64
878.66	227.63
878.96	227.64
879.27	227.59
879.58	227.57
879.89	227.59
880.20	227.63
880.51	227.61
880.82	227.63
881.12	227.59
881.43	227.58
881.74	227.54
882.05	227.52
882.36	227.52
882.67	227.53
882.97	227.40
883.28	227.40
883.59	227.38
883.90	227.39
884.21	227.38
884.51	227.36
884.82	227.33
885.13	227.36
885.44	227.33
885.74	227.35
886.05	227.35
886.36	227.34
886.67	227.30
886.98	227.36
887.28	227.36
887.59	227.37
887.90	227.36
888.20	227.36
888.51	227.39
888.82	227.38
889.13	227.36
889.43	227.46
889.74	227.48
890.05	227.46
890.35	227.46
890.66	227.43
890.97	227.44
891.28	227.41
891.58	227.38
891.89	227.37
892.20	227.35
892.50	227.35
892.81	227.33
893.12	227.35
893.42	227.28
893.73	227.27
894.04	227.26
894.34	227.23
894.65	227.25
894.95	227.23
895.26	227.23
895.57	227.27
895.87	227.17
896.18	227.15
896.48	227.15
896.79	227.15
897.10	227.17
897.40	227.15
897.71	227.16
898.01	227.13
898.32	227.14
898.63	227.11
898.93	227.10
899.24	227.10
899.54	227.10
899.85	227.13
900.15	227.15
900.46	227.13
900.76	227.16
901.07	227.16
901.38	227.17
901.68	227.16
901.99	227.11
902.29	227.13
902.60	227.14
902.90	227.16
903.21	227.16
903.51	227.16
903.82	227.18
904.12	227.20
904.43	227.21
904.73	227.24
905.03	227.25
905.34	227.37
905.64	227.39
905.95	227.38
906.25	227.33
906.56	227.35
906.86	227.38
907.17	227.41
907.47	227.39
907.77	227.38
908.08	227.38
908.38	227.41
908.69	227.42
908.99	227.43
909.30	227.43
909.60	227.42
909.90	227.46
910.21	227.43
910.51	227.45
910.81	227.44
911.12	227.43
911.42	227.46
911.73	227.34
912.03	227.32
912.33	227.34
912.64	227.37
912.94	227.36
913.24	227.32
913.55	227.32
913.85	227.35
914.15	227.34
914.46	227.37
914.76	227.35
915.06	227.34
915.37	227.31
915.67	227.29
915.97	227.29
916.27	227.25
916.58	227.25
916.88	227.22
917.18	227.23
917.49	227.28
917.79	227.25
918.09	227.25
918.39	227.30
918.70	227.30
919.00	227.28
919.30	227.32
919.60	227.33
919.91	227.29
920.21	227.27
920.51	227.28
920.81	227.26
921.12	227.27
921.42	227.28
921.72	227.29
922.02	227.32
922.32	227.34
922.63	227.36
922.93	227.42
923.23	227.42
923.53	227.41
923.83	227.35
924.13	227.35
924.44	227.40
924.74	227.39
925.04	227.41
925.34	227.42
925.64	227.36
925.94	227.36
926.24	227.43
926.55	227.40
926.85	227.39
927.15	227.40
927.45	227.37
927.75	227.36
928.05	227.35
928.35	227.33
928.65	227.33
928.95	227.32
929.26	227.26
929.56	227.27
929.86	227.27
930.16	227.27
930.46	227.29
930.76	227.25
931.06	227.20
931.36	227.17
931.66	227.17
931.96	227.17
932.26	227.16
932.56	227.10
932.86	227.12
933.16	227.12
933.46	227.08
933.76	227.09
934.06	227.12
934.36	227.14
934.66	227.16
934.96	227.16
935.26	227.15
935.56	227.13
935.86	227.11
936.16	227.11
936.46	227.11
936.76	227.08
937.06	227.06
937.36	227.06
937.66	227.05
937.96	227.03
938.26	227.03
938.56	227.03
938.86	227.03
939.16	227.05
939.46	227.06
939.76	227.08
940.06	227.07
940.35	227.04
940.65	227.02
940.95	227.01
941.25	226.98
941.55	226.95
941.85	226.95
942.15	227.00
942.45	227.01
942.75	227.01
943.04	226.99
943.34	227.04
943.64	227.06
943.94	227.07
944.24	227.09
944.54	227.09
944.84	227.12
945.13	227.09
945.43	227.08
945.73	227.07
946.03	227.05
946.33	227.05
946.62	227.01
946.92	226.98
947.22	227.00
947.52	227.02
947.82	227.05
948.11	227.05
948.41	227.02
948.71	227.01
949.01	227.00
949.31	227.00
949.60	226.99
949.90	227.00
950.20	226.98
950.50	227.00
950.79	227.00
951.09	226.99
951.39	227.02
951.69	227.00
951.98	227.02
952.28	227.05
952.58	227.06
952.87	227.09
953.17	227.17
953.47	227.12
953.76	227.11
954.06	227.14
954.36	227.14
954.66	227.13
954.95	227.20
955.25	227.21
955.55	227.22
955.84	227.21
956.14	227.24
956.44	227.27
956.73	227.24
957.03	227.25
957.32	227.24
957.62	227.25
957.92	227.28
958.21	227.28
958.51	227.39
958.81	227.40
959.10	227.41
959.40	227.41
959.69	227.46
959.99	227.49
960.29	227.45
960.58	227.48
960.88	227.50
961.17	227.44
961.47	227.42
961.76	227.41
962.06	227.42
962.36	227.39
962.65	227.38
962.95	227.38
963.24	227.38
963.54	227.38
963.83	227.37
964.13	227.35
964.42	227.34
964.72	227.25
965.01	227.23
965.31	227.21
965.60	227.18
965.90	227.21
966.19	227.18
966.49	227.23
966.78	227.20
967.08	227.23
967.37	227.27
967.67	227.27
967.96	227.30
968.26	227.27
968.55	227.30
968.85	227.31
969.14	227.33
969.43	227.31
969.73	227.32
970.02	227.29
970.32	227.28
970.61	227.24
970.91	227.22
971.20	227.20
971.49	227.21
971.79	227.21
972.08	227.13
972.38	227.14
972.67	227.10
972.96	227.10
973.26	227.03
973.55	227.02
973.85	226.99
974.14	226.97
974.43	226.99
974.73	226.95
975.02	226.90
975.31	226.93
975.61	226.90
975.90	226.90
976.19	226.90
976.49	226.93
976.78	226.97
977.07	226.96
977.37	226.97
977.66	226.97
977.95	226.96
978.24	226.94
978.54	226.97
978.83	226.95
979.12	226.92
979.42	226.91
979.71	226.91
980.00	226.92
980.29	226.93
980.59	226.91
980.88	226.91
981.17	226.92
981.46	226.89
981.76	226.90
982.05	226.93
982.34	226.92
982.63	226.90
982.93	226.88
983.22	226.90
983.51	226.90
983.80	226.89
984.09	226.89
984.39	226.91
984.68	226.88
984.97	226.89
985.26	226.91
985.55	226.94
985.85	226.91
986.14	226.92
986.43	226.92
986.72	226.92
987.01	226.86
987.30	226.87
987.59	226.86
987.89	226.86
988.18	226.82
988.47	226.84
988.76	226.83
989.05	226.81
989.34	226.82
989.63	226.87
989.92	226.88
990.22	226.86
990.51	226.91
990.80	226.90
991.09	226.90
991.38	226.92
991.67	226.91
991.96	226.90
992.25	226.93
992.54	226.94
992.83	226.94
993.12	227.00
993.41	227.03
993.70	227.08
993.99	227.11
994.28	227.14
994.58	227.15
994.87	227.16
995.16	227.19
995.45	227.19
995.74	227.17
996.03	227.19
996.32	227.23
996.61	227.21
996.90	227.21
997.19	227.21
997.48	227.20
997.77	227.21
998.06	227.23
998.34	227.21
998.63	227.21
998.92	227.24
999.21	227.23
999.50	227.22
999.79	227.18
1000.08	227.19
1000.37	227.20
1000.66	227.19
1000.95	227.21
1001.24	227.22
1001.53	227.22
1001.82	227.22
1002.11	227.21
1002.40	227.22
1002.68	227.26
1002.97	227.33
1003.26	227.32
1003.55	227.34
1003.84	227.36
1004.13	227.38
1004.42	227.40
1004.71	227.37
1004.99	227.36
1005.28	227.39
1005.57	227.37
1005.86	227.40
1006.15	227.37
1006.44	227.36
1006.72	227.41
1007.01	227.37
1007.30	227.36
1007.59	227.34
1007.88	227.33
1008.17	227.33
1008.45	227.30
1008.74	227.24
1009.03	227.19
1009.32	227.18
1009.60	227.15
1009.89	227.10
1010.18	227.07
1010.47	227.05
1010.76	227.05
1011.04	227.03
1011.33	227.02
1011.62	227.02
1011.91	227.00
1012.19	226.99
1012.48	226.97
1012.77	226.92
1013.05	226.99
1013.34	226.98
1013.63	226.98
1013.92	226.98
1014.20	226.97
1014.49	226.94
1014.78	226.94
1015.06	226.87
1015.35	226.89
1015.64	226.90
1015.92	226.91
1016.21	226.88
1016.50	226.87
1016.78	226.88
1017.07	226.88
1017.36	226.85
1017.64	226.86
1017.93	226.87
1018.22	226.87
1018.50	226.86
1018.79	226.85
1019.08	226.79
1019.36	226.76
1019.65	226.71
1019.93	226.75
1020.22	226.75
1020.51	226.78
1020.79	226.79
1021.08	226.82
1021.36	226.29
1021.65	227.02
1021.94	226.67
1022.22	226.01
1022.51	226.24
1022.79	227.68
1023.08	226.86
1023.36	227.37
1023.65	227.15
>>>>>End Processed Spectral Data<<<<<
