SpectraSuite Data File
++++++++++++++++++++++++++++++++++++
Date: Fri Feb 01 17:22:06 EST 2013
User: group
Dark Spectrum Present: No
Reference Spectrum Present: No
Number of Sampled Component Spectra: 1
Spectrometers: USB2E7196
Integration Time (usec): 35000 (USB2E7196)
Spectra Averaged: 100 (USB2E7196)
Boxcar Smoothing: 10 (USB2E7196)
Correct for Electrical Dark: No (USB2E7196)
Strobe/Lamp Enabled: No (USB2E7196)
Correct for Detector Non-linearity: No (USB2E7196)
Correct for Stray Light: No (USB2E7196)
Number of Pixels in Processed Spectrum: 2048
>>>>>Begin Processed Spectral Data<<<<<
339.09	0.00
339.48	212.40
339.86	214.03
340.24	215.61
340.63	217.13
341.01	220.13
341.39	220.09
341.78	221.21
342.16	222.23
342.54	222.77
342.93	211.24
343.31	221.93
343.69	222.49
344.07	222.97
344.46	223.38
344.84	223.76
345.22	223.99
345.60	224.23
345.99	224.43
346.37	224.56
346.75	224.68
347.13	224.79
347.52	224.86
347.90	224.93
348.28	224.97
348.66	224.97
349.05	224.98
349.43	225.02
349.81	225.06
350.19	225.10
350.57	225.14
350.96	225.19
351.34	225.25
351.72	225.33
352.10	225.42
352.48	225.50
352.87	225.55
353.25	225.62
353.63	225.68
354.01	225.72
354.39	225.78
354.77	225.84
355.15	225.92
355.54	225.96
355.92	226.00
356.30	226.06
356.68	226.22
357.06	226.28
357.44	226.34
357.82	226.37
358.20	226.42
358.58	226.49
358.97	226.57
359.35	226.64
359.73	226.71
360.11	226.76
360.49	226.82
360.87	226.88
361.25	226.93
361.63	226.99
362.01	227.06
362.39	227.12
362.77	227.16
363.15	227.20
363.53	227.24
363.91	227.28
364.29	227.31
364.67	227.24
365.05	227.25
365.43	227.29
365.81	227.35
366.19	227.46
366.57	227.50
366.95	227.52
367.33	227.52
367.71	227.51
368.09	227.52
368.47	227.50
368.85	227.49
369.23	227.48
369.61	227.43
369.99	227.42
370.37	227.39
370.75	227.41
371.13	227.32
371.51	227.25
371.89	227.22
372.27	227.18
372.65	227.14
373.03	227.10
373.41	227.05
373.78	226.98
374.16	226.86
374.54	226.76
374.92	226.72
375.30	226.67
375.68	226.60
376.06	226.55
376.44	226.48
376.82	226.43
377.19	226.35
377.57	226.30
377.95	226.20
378.33	226.11
378.71	225.97
379.09	225.94
379.47	225.89
379.84	225.81
380.22	225.75
380.60	225.68
380.98	225.60
381.36	225.50
381.73	225.45
382.11	225.41
382.49	225.38
382.87	225.28
383.25	225.22
383.62	225.27
384.00	225.20
384.38	225.16
384.76	225.13
385.13	225.13
385.51	225.05
385.89	225.01
386.27	225.00
386.64	225.00
387.02	224.94
387.40	224.91
387.78	224.85
388.15	224.81
388.53	224.76
388.91	224.73
389.29	224.74
389.66	224.72
390.04	224.67
390.42	224.63
390.79	224.64
391.17	224.59
391.55	224.49
391.92	224.48
392.30	224.50
392.68	224.48
393.05	224.46
393.43	224.48
393.81	224.49
394.18	224.48
394.56	224.48
394.94	224.53
395.31	224.55
395.69	224.60
396.06	224.64
396.44	224.68
396.82	224.70
397.19	224.76
397.57	224.79
397.95	224.84
398.32	224.87
398.70	224.89
399.07	225.00
399.45	225.05
399.82	225.11
400.20	225.14
400.58	225.19
400.95	225.23
401.33	225.33
401.70	225.46
402.08	225.54
402.45	225.61
402.83	225.73
403.20	225.82
403.58	225.92
403.95	226.05
404.33	226.18
404.71	226.28
405.08	226.45
405.46	226.56
405.83	226.71
406.21	226.85
406.58	227.05
406.96	227.18
407.33	227.34
407.70	227.58
408.08	227.82
408.45	227.99
408.83	228.23
409.20	228.41
409.58	228.58
409.95	228.83
410.33	229.12
410.70	229.34
411.08	229.63
411.45	229.92
411.82	230.20
412.20	230.55
412.57	230.99
412.95	231.25
413.32	231.66
413.69	232.06
414.07	232.50
414.44	232.94
414.82	233.44
415.19	234.02
415.56	234.56
415.94	235.16
416.31	235.85
416.68	236.50
417.06	237.25
417.43	237.95
417.81	238.72
418.18	239.50
418.55	240.39
418.93	241.28
419.30	242.20
419.67	243.19
420.04	244.21
420.42	245.23
420.79	246.49
421.16	247.69
421.54	248.94
421.91	250.19
422.28	251.52
422.66	252.88
423.03	254.23
423.40	255.56
423.77	257.00
424.15	258.48
424.52	260.01
424.89	261.72
425.26	263.37
425.64	264.90
426.01	266.56
426.38	268.27
426.75	270.00
427.13	271.79
427.50	273.69
427.87	275.58
428.24	277.49
428.61	279.31
428.99	281.32
429.36	283.48
429.73	285.67
430.10	287.76
430.47	289.90
430.85	292.11
431.22	294.47
431.59	296.92
431.96	299.25
432.33	301.83
432.70	304.24
433.08	307.11
433.45	309.85
433.82	312.53
434.19	315.50
434.56	318.44
434.93	321.19
435.30	323.88
435.68	326.89
436.05	329.82
436.42	332.69
436.79	335.31
437.16	338.11
437.53	341.01
437.90	343.95
438.27	346.77
438.64	349.65
439.01	352.30
439.38	354.61
439.75	356.83
440.13	359.41
440.50	361.80
440.87	363.74
441.24	365.77
441.61	368.01
441.98	369.55
442.35	371.44
442.72	373.36
443.09	375.23
443.46	376.29
443.83	376.90
444.20	377.49
444.57	378.32
444.94	378.64
445.31	378.99
445.68	379.37
446.05	379.48
446.42	379.14
446.79	378.76
447.16	378.35
447.53	378.06
447.90	376.87
448.27	375.72
448.64	374.10
449.01	372.90
449.37	370.92
449.74	368.97
450.11	366.68
450.48	364.17
450.85	361.59
451.22	359.37
451.59	357.33
451.96	355.29
452.33	352.63
452.70	350.19
453.07	347.26
453.43	344.25
453.80	341.40
454.17	338.61
454.54	335.97
454.91	333.16
455.28	330.39
455.65	327.82
456.02	325.31
456.38	323.11
456.75	320.37
457.12	318.01
457.49	315.71
457.86	313.42
458.23	311.48
458.59	309.36
458.96	307.20
459.33	305.24
459.70	303.33
460.07	301.80
460.43	299.99
460.80	298.30
461.17	296.82
461.54	295.23
461.91	293.75
462.27	292.26
462.64	290.96
463.01	289.57
463.38	288.21
463.74	286.76
464.11	285.52
464.48	284.49
464.85	283.33
465.21	282.50
465.58	281.56
465.95	280.46
466.32	279.48
466.68	278.56
467.05	277.71
467.42	276.76
467.78	275.77
468.15	274.89
468.52	274.23
468.88	273.31
469.25	272.56
469.62	271.91
469.98	271.25
470.35	270.56
470.72	269.96
471.08	269.32
471.45	268.76
471.82	268.21
472.18	267.56
472.55	267.09
472.92	266.50
473.28	266.01
473.65	265.54
474.02	265.12
474.38	264.74
474.75	264.35
475.11	264.02
475.48	263.75
475.85	263.53
476.21	263.27
476.58	263.09
476.94	262.93
477.31	262.78
477.67	262.61
478.04	262.50
478.41	262.41
478.77	262.44
479.14	262.39
479.50	262.38
479.87	262.41
480.23	262.47
480.60	262.56
480.96	262.66
481.33	262.85
481.69	263.01
482.06	263.18
482.42	263.36
482.79	263.63
483.15	263.97
483.52	264.38
483.88	264.74
484.25	265.15
484.61	265.56
484.98	265.99
485.34	266.53
485.71	267.15
486.07	267.74
486.44	268.31
486.80	268.99
487.17	269.74
487.53	270.60
487.90	271.48
488.26	272.44
488.62	273.44
488.99	274.43
489.35	275.43
489.72	276.55
490.08	277.76
490.44	279.00
490.81	280.27
491.17	281.57
491.54	283.03
491.90	284.56
492.26	286.21
492.63	287.92
492.99	289.67
493.36	291.54
493.72	293.61
494.08	295.72
494.45	297.98
494.81	300.33
495.17	302.74
495.54	305.30
495.90	307.96
496.26	310.74
496.63	313.66
496.99	316.78
497.35	320.07
497.72	323.47
498.08	326.95
498.44	330.64
498.80	334.54
499.17	338.58
499.53	342.74
499.89	347.11
500.26	351.62
500.62	356.26
500.98	361.23
501.34	366.20
501.71	371.48
502.07	376.90
502.43	382.48
502.79	388.26
503.16	394.28
503.52	400.48
503.88	406.83
504.24	413.38
504.60	420.15
504.97	427.19
505.33	434.40
505.69	441.96
506.05	449.66
506.41	457.41
506.78	465.44
507.14	473.71
507.50	482.21
507.86	491.04
508.22	500.10
508.59	509.13
508.95	518.53
509.31	528.10
509.67	538.08
510.03	548.16
510.39	558.51
510.75	569.07
511.12	579.76
511.48	590.85
511.84	602.08
512.20	613.50
512.56	625.22
512.92	637.12
513.28	649.31
513.64	661.52
514.00	673.98
514.37	686.62
514.73	699.43
515.09	712.32
515.45	725.33
515.81	738.60
516.17	752.25
516.53	766.14
516.89	780.13
517.25	793.80
517.61	807.95
517.97	822.09
518.33	836.18
518.69	850.69
519.05	865.39
519.41	880.20
519.77	895.26
520.13	910.29
520.49	925.39
520.85	940.33
521.21	955.58
521.57	971.35
521.93	986.80
522.29	1002.81
522.65	1018.58
523.01	1034.39
523.37	1050.07
523.73	1065.86
524.09	1081.56
524.45	1097.35
524.81	1113.70
525.17	1129.93
525.53	1146.38
525.89	1162.94
526.25	1179.34
526.61	1195.22
526.97	1211.62
527.33	1227.75
527.68	1243.92
528.04	1259.98
528.40	1276.15
528.76	1292.85
529.12	1309.10
529.48	1325.53
529.84	1341.16
530.20	1357.44
530.56	1374.04
530.91	1390.97
531.27	1407.39
531.63	1423.48
531.99	1439.73
532.35	1455.48
532.71	1471.15
533.07	1487.04
533.42	1502.52
533.78	1518.33
534.14	1534.25
534.50	1549.21
534.86	1564.72
535.21	1579.72
535.57	1595.29
535.93	1610.48
536.29	1625.12
536.65	1639.85
537.00	1654.48
537.36	1669.59
537.72	1683.82
538.08	1698.06
538.44	1711.79
538.79	1725.62
539.15	1738.89
539.51	1752.43
539.87	1766.42
540.22	1779.90
540.58	1793.46
540.94	1806.54
541.29	1819.05
541.65	1831.62
542.01	1844.70
542.37	1856.97
542.72	1869.22
543.08	1881.01
543.44	1893.40
543.79	1904.60
544.15	1915.52
544.51	1926.99
544.87	1937.92
545.22	1948.91
545.58	1959.08
545.94	1968.77
546.29	1978.64
546.65	1988.70
547.01	1998.14
547.36	2006.96
547.72	2015.61
548.07	2023.76
548.43	2032.08
548.79	2040.18
549.14	2047.95
549.50	2055.48
549.86	2063.24
550.21	2070.74
550.57	2078.12
550.92	2085.04
551.28	2092.29
551.64	2099.71
551.99	2106.38
552.35	2112.72
552.70	2119.03
553.06	2125.31
553.41	2131.98
553.77	2138.17
554.13	2144.59
554.48	2150.84
554.84	2156.75
555.19	2162.21
555.55	2167.57
555.90	2172.49
556.26	2177.88
556.61	2182.70
556.97	2187.53
557.32	2191.94
557.68	2196.53
558.03	2200.90
558.39	2204.75
558.74	2209.58
559.10	2213.61
559.45	2217.62
559.81	2222.09
560.16	2226.16
560.52	2229.65
560.87	2233.24
561.23	2236.07
561.58	2239.04
561.94	2242.01
562.29	2244.46
562.64	2247.82
563.00	2250.68
563.35	2254.32
563.71	2257.81
564.06	2261.33
564.42	2264.50
564.77	2267.54
565.12	2270.22
565.48	2272.74
565.83	2275.04
566.19	2276.69
566.54	2278.03
566.89	2279.75
567.25	2280.97
567.60	2282.45
567.96	2284.57
568.31	2285.74
568.66	2287.36
569.02	2288.47
569.37	2289.10
569.72	2290.56
570.08	2290.95
570.43	2291.44
570.78	2291.43
571.14	2290.18
571.49	2289.29
571.84	2289.04
572.20	2288.33
572.55	2287.49
572.90	2286.01
573.26	2285.03
573.61	2283.61
573.96	2282.40
574.31	2279.58
574.67	2276.80
575.02	2273.62
575.37	2270.56
575.72	2267.29
576.08	2264.10
576.43	2260.94
576.78	2257.77
577.13	2254.56
577.49	2251.51
577.84	2248.35
578.19	2244.76
578.54	2241.60
578.90	2237.96
579.25	2232.78
579.60	2228.09
579.95	2223.53
580.30	2218.86
580.66	2213.84
581.01	2209.21
581.36	2204.47
581.71	2200.76
582.06	2196.72
582.42	2192.64
582.77	2187.68
583.12	2183.48
583.47	2179.31
583.82	2174.74
584.17	2169.69
584.53	2164.68
584.88	2159.42
585.23	2153.92
585.58	2148.74
585.93	2143.38
586.28	2138.52
586.63	2133.90
586.98	2128.94
587.34	2124.33
587.69	2119.67
588.04	2114.80
588.39	2109.50
588.74	2103.09
589.09	2097.12
589.44	2090.66
589.79	2084.71
590.14	2079.29
590.49	2072.78
590.84	2066.39
591.19	2060.65
591.54	2054.44
591.89	2047.44
592.25	2040.96
592.60	2033.94
592.95	2026.61
593.30	2019.47
593.65	2012.01
594.00	2004.96
594.35	1997.96
594.70	1990.08
595.05	1983.30
595.40	1976.11
595.75	1968.71
596.10	1962.93
596.45	1956.28
596.80	1950.19
597.15	1943.88
597.50	1937.22
597.85	1930.82
598.19	1924.51
598.54	1917.61
598.89	1911.04
599.24	1905.24
599.59	1898.90
599.94	1892.77
600.29	1886.58
600.64	1880.03
600.99	1872.85
601.34	1866.23
601.69	1859.26
602.04	1852.51
602.39	1845.14
602.74	1838.39
603.08	1831.78
603.43	1824.95
603.78	1817.75
604.13	1810.56
604.48	1803.38
604.83	1796.45
605.18	1789.79
605.53	1781.77
605.87	1773.75
606.22	1766.43
606.57	1758.31
606.92	1750.71
607.27	1743.71
607.62	1736.81
607.96	1729.81
608.31	1723.31
608.66	1715.72
609.01	1708.29
609.36	1700.72
609.70	1692.64
610.05	1684.67
610.40	1676.96
610.75	1668.62
611.10	1660.97
611.44	1652.38
611.79	1644.29
612.14	1635.51
612.49	1626.06
612.83	1617.59
613.18	1609.25
613.53	1601.11
613.88	1592.71
614.22	1584.33
614.57	1575.33
614.92	1567.16
615.27	1559.48
615.61	1551.10
615.96	1542.96
616.31	1535.05
616.65	1527.53
617.00	1519.88
617.35	1512.03
617.70	1503.67
618.04	1495.11
618.39	1486.69
618.74	1479.23
619.08	1470.77
619.43	1463.05
619.78	1456.12
620.12	1448.89
620.47	1441.40
620.82	1433.07
621.16	1425.30
621.51	1417.62
621.85	1410.03
622.20	1401.43
622.55	1392.89
622.89	1384.88
623.24	1377.03
623.59	1369.52
623.93	1361.97
624.28	1354.70
624.62	1347.21
624.97	1339.78
625.32	1332.83
625.66	1325.75
626.01	1318.39
626.35	1310.99
626.70	1303.06
627.04	1295.44
627.39	1287.54
627.73	1279.97
628.08	1273.05
628.43	1265.92
628.77	1258.59
629.12	1250.97
629.46	1243.77
629.81	1236.08
630.15	1228.68
630.50	1221.30
630.84	1213.19
631.19	1205.16
631.53	1197.46
631.88	1189.68
632.22	1182.10
632.57	1174.71
632.91	1167.07
633.26	1159.60
633.60	1151.97
633.95	1144.72
634.29	1137.39
634.64	1130.56
634.98	1123.22
635.32	1116.00
635.67	1109.22
636.01	1102.43
636.36	1095.68
636.70	1089.06
637.05	1082.50
637.39	1076.12
637.73	1069.61
638.08	1063.64
638.42	1057.67
638.77	1051.16
639.11	1044.62
639.45	1038.24
639.80	1031.61
640.14	1025.20
640.49	1018.60
640.83	1012.34
641.17	1006.24
641.52	999.99
641.86	993.55
642.20	987.65
642.55	981.18
642.89	974.72
643.23	968.09
643.58	962.23
643.92	956.00
644.26	950.10
644.61	943.91
644.95	937.82
645.29	931.23
645.64	924.38
645.98	918.09
646.32	912.12
646.66	905.96
647.01	900.05
647.35	894.28
647.69	888.37
648.04	882.76
648.38	876.93
648.72	870.90
649.06	864.86
649.41	858.85
649.75	852.98
650.09	846.97
650.43	841.19
650.78	835.04
651.12	829.05
651.46	823.20
651.80	817.56
652.14	812.14
652.49	806.81
652.83	801.58
653.17	795.93
653.51	790.27
653.85	784.86
654.20	779.28
654.54	773.23
654.88	767.44
655.22	761.44
655.56	755.65
655.90	750.11
656.25	744.73
656.59	739.36
656.93	734.21
657.27	729.09
657.61	723.60
657.95	718.48
658.29	713.41
658.64	708.04
658.98	702.55
659.32	696.96
659.66	691.61
660.00	686.33
660.34	681.30
660.68	676.30
661.02	671.19
661.36	666.43
661.70	661.93
662.05	657.59
662.39	653.30
662.73	648.80
663.07	644.40
663.41	640.01
663.75	635.58
664.09	630.96
664.43	626.49
664.77	622.34
665.11	618.05
665.45	613.73
665.79	609.72
666.13	605.67
666.47	601.59
666.81	597.48
667.15	593.32
667.49	589.28
667.83	585.40
668.17	581.41
668.51	577.34
668.85	573.24
669.19	569.28
669.53	565.46
669.87	561.58
670.21	557.80
670.55	554.10
670.89	550.61
671.23	547.15
671.57	543.59
671.91	540.04
672.25	536.48
672.58	533.03
672.92	529.49
673.26	526.25
673.60	523.02
673.94	519.85
674.28	516.89
674.62	513.99
674.96	510.94
675.30	508.04
675.64	505.13
675.97	502.37
676.31	499.56
676.65	496.57
676.99	493.83
677.33	491.03
677.67	488.20
678.01	485.17
678.34	482.25
678.68	479.30
679.02	476.47
679.36	473.67
679.70	470.91
680.04	468.19
680.37	465.31
680.71	462.53
681.05	459.89
681.39	457.10
681.73	454.42
682.06	451.81
682.40	449.29
682.74	446.67
683.08	444.08
683.42	441.42
683.75	438.90
684.09	436.31
684.43	433.73
684.77	431.27
685.10	428.88
685.44	426.54
685.78	424.26
686.12	421.95
686.45	419.63
686.79	417.33
687.13	415.12
687.46	412.91
687.80	410.70
688.14	408.45
688.48	406.40
688.81	404.17
689.15	402.01
689.49	399.79
689.82	397.71
690.16	395.57
690.50	393.58
690.83	391.62
691.17	389.60
691.51	387.74
691.84	385.87
692.18	383.96
692.52	381.98
692.85	379.96
693.19	378.06
693.52	376.18
693.86	374.31
694.20	372.50
694.53	370.71
694.87	368.83
695.21	367.01
695.54	365.15
695.88	363.39
696.21	361.65
696.55	359.96
696.88	358.22
697.22	356.52
697.56	354.83
697.89	353.16
698.23	351.55
698.56	349.89
698.90	348.29
699.23	346.61
699.57	345.00
699.90	343.46
700.24	341.91
700.58	340.37
700.91	338.91
701.25	337.39
701.58	336.01
701.92	334.62
702.25	333.21
702.59	331.84
702.92	330.52
703.26	329.21
703.59	327.91
703.93	326.73
704.26	325.50
704.60	324.21
704.93	322.96
705.26	321.73
705.60	320.47
705.93	319.27
706.27	318.21
706.60	317.13
706.94	316.08
707.27	314.91
707.61	313.78
707.94	312.71
708.27	311.65
708.61	310.52
708.94	309.53
709.28	308.54
709.61	307.54
709.94	306.52
710.28	305.45
710.61	304.40
710.95	303.27
711.28	302.32
711.61	301.41
711.95	300.43
712.28	299.45
712.61	298.49
712.95	297.52
713.28	296.57
713.61	295.64
713.95	294.71
714.28	293.85
714.61	293.00
714.95	292.14
715.28	291.23
715.61	290.38
715.95	289.48
716.28	288.61
716.61	287.76
716.95	286.89
717.28	286.15
717.61	285.39
717.94	284.64
718.28	283.81
718.61	283.00
718.94	282.26
719.27	281.58
719.61	280.94
719.94	280.26
720.27	279.59
720.60	278.93
720.94	278.29
721.27	277.72
721.60	277.16
721.93	276.58
722.27	275.99
722.60	275.39
722.93	274.84
723.26	274.31
723.59	273.76
723.93	273.26
724.26	272.65
724.59	272.07
724.92	271.52
725.25	271.03
725.59	270.53
725.92	270.05
726.25	269.55
726.58	269.06
726.91	268.56
727.24	268.06
727.57	267.55
727.91	267.02
728.24	266.55
728.57	266.01
728.90	265.57
729.23	265.06
729.56	264.62
729.89	264.14
730.22	263.62
730.55	263.13
730.89	262.67
731.22	262.25
731.55	261.85
731.88	261.44
732.21	261.05
732.54	260.62
732.87	260.16
733.20	259.73
733.53	259.33
733.86	258.97
734.19	258.59
734.52	258.22
734.85	257.90
735.18	257.51
735.51	257.17
735.84	256.76
736.17	256.43
736.50	256.01
736.83	255.79
737.16	255.48
737.49	255.19
737.82	254.80
738.15	254.48
738.48	254.15
738.81	253.81
739.14	253.45
739.47	253.14
739.80	252.84
740.13	252.55
740.46	252.20
740.79	251.85
741.12	251.53
741.45	251.23
741.78	250.88
742.11	250.56
742.44	250.25
742.77	249.94
743.10	249.64
743.43	249.37
743.75	248.95
744.08	248.76
744.41	248.44
744.74	248.18
745.07	247.86
745.40	247.58
745.73	247.37
746.06	247.07
746.39	246.79
746.71	246.50
747.04	246.19
747.37	245.92
747.70	245.66
748.03	245.41
748.36	245.18
748.68	244.95
749.01	244.66
749.34	244.43
749.67	244.21
750.00	243.99
750.33	243.82
750.65	243.60
750.98	243.27
751.31	243.08
751.64	242.86
751.97	242.66
752.29	242.42
752.62	242.10
752.95	241.90
753.28	241.71
753.60	241.50
753.93	241.36
754.26	241.16
754.59	240.94
754.91	240.71
755.24	240.46
755.57	240.21
755.90	240.02
756.22	239.79
756.55	239.58
756.88	239.39
757.20	239.16
757.53	238.96
757.86	238.77
758.19	238.61
758.51	238.44
758.84	238.25
759.17	238.10
759.49	237.97
759.82	237.86
760.15	237.71
760.47	237.55
760.80	237.36
761.13	237.20
761.45	237.04
761.78	236.92
762.11	236.82
762.43	236.70
762.76	236.56
763.08	236.43
763.41	236.32
763.74	236.14
764.06	235.99
764.39	235.85
764.71	235.69
765.04	235.53
765.37	235.41
765.69	235.29
766.02	235.16
766.34	235.05
766.67	234.86
767.00	234.76
767.32	234.70
767.65	234.66
767.97	234.53
768.30	234.43
768.62	234.30
768.95	234.14
769.27	234.02
769.60	233.95
769.92	233.82
770.25	233.68
770.57	233.62
770.90	233.51
771.22	233.42
771.55	233.32
771.87	233.23
772.20	233.19
772.52	233.15
772.85	233.16
773.17	233.06
773.50	232.95
773.82	232.81
774.15	232.67
774.47	232.51
774.80	232.46
775.12	232.36
775.45	232.26
775.77	232.19
776.09	232.13
776.42	232.05
776.74	232.02
777.07	231.96
777.39	231.84
777.72	231.75
778.04	231.68
778.36	231.61
778.69	231.57
779.01	231.46
779.33	231.32
779.66	231.15
779.98	231.06
780.31	231.04
780.63	231.04
780.95	231.01
781.28	230.94
781.60	230.81
781.92	230.74
782.25	230.68
782.57	230.61
782.89	230.52
783.22	230.45
783.54	230.36
783.86	230.32
784.19	230.27
784.51	230.28
784.83	230.21
785.16	230.16
785.48	230.06
785.80	230.02
786.12	229.98
786.45	229.90
786.77	229.87
787.09	229.81
787.42	229.69
787.74	229.66
788.06	229.62
788.38	229.62
788.71	229.60
789.03	229.61
789.35	229.56
789.67	229.51
789.99	229.47
790.32	229.42
790.64	229.37
790.96	229.39
791.28	229.31
791.61	229.26
791.93	229.23
792.25	229.19
792.57	229.21
792.89	229.13
793.21	229.11
793.54	229.06
793.86	229.00
794.18	228.97
794.50	228.91
794.82	228.89
795.14	228.82
795.47	228.76
795.79	228.68
796.11	228.63
796.43	228.60
796.75	228.57
797.07	228.53
797.39	228.50
797.71	228.39
798.04	228.36
798.36	228.34
798.68	228.30
799.00	228.29
799.32	228.20
799.64	228.19
799.96	228.12
800.28	228.11
800.60	228.09
800.92	228.07
801.24	228.00
801.56	227.98
801.89	227.97
802.21	227.96
802.53	227.92
802.85	227.93
803.17	227.95
803.49	227.87
803.81	227.84
804.13	227.80
804.45	227.75
804.77	227.73
805.09	227.69
805.41	227.64
805.73	227.59
806.05	227.55
806.37	227.52
806.69	227.49
807.01	227.44
807.33	227.42
807.65	227.35
807.97	227.37
808.28	227.32
808.60	227.28
808.92	227.23
809.24	227.27
809.56	227.22
809.88	227.18
810.20	227.19
810.52	227.20
810.84	227.16
811.16	227.11
811.48	227.08
811.80	227.09
812.12	227.08
812.43	227.07
812.75	227.04
813.07	227.00
813.39	226.99
813.71	226.94
814.03	226.91
814.35	226.91
814.67	226.85
814.98	226.76
815.30	226.72
815.62	226.69
815.94	226.60
816.26	226.65
816.58	226.58
816.89	226.57
817.21	226.50
817.53	226.47
817.85	226.48
818.17	226.44
818.48	226.40
818.80	226.37
819.12	226.34
819.44	226.32
819.76	226.28
820.07	226.29
820.39	226.29
820.71	226.28
821.03	226.25
821.34	226.26
821.66	226.27
821.98	226.29
822.30	226.27
822.61	226.32
822.93	226.24
823.25	226.22
823.57	226.22
823.88	226.24
824.20	226.25
824.52	226.26
824.83	226.26
825.15	226.24
825.47	226.24
825.79	226.22
826.10	226.21
826.42	226.20
826.74	226.17
827.05	226.20
827.37	226.19
827.69	226.16
828.00	226.13
828.32	226.16
828.64	226.13
828.95	226.16
829.27	226.14
829.58	226.14
829.90	226.16
830.22	226.11
830.53	226.08
830.85	226.07
831.17	226.03
831.48	226.03
831.80	226.01
832.11	226.00
832.43	225.98
832.75	225.95
833.06	226.01
833.38	225.99
833.69	225.93
834.01	225.92
834.32	225.92
834.64	225.92
834.96	225.92
835.27	225.94
835.59	225.91
835.90	225.87
836.22	225.82
836.53	225.80
836.85	225.80
837.16	225.87
837.48	225.85
837.79	225.88
838.11	225.86
838.42	225.88
838.74	225.87
839.05	225.87
839.37	225.87
839.68	225.80
840.00	225.77
840.31	225.78
840.63	225.76
840.94	225.77
841.26	225.77
841.57	225.73
841.88	225.68
842.20	225.67
842.51	225.64
842.83	225.69
843.14	225.76
843.46	225.77
843.77	225.70
844.08	225.71
844.40	225.66
844.71	225.65
845.03	225.63
845.34	225.62
845.65	225.61
845.97	225.62
846.28	225.62
846.60	225.65
846.91	225.66
847.22	225.69
847.54	225.70
847.85	225.68
848.16	225.66
848.48	225.71
848.79	225.73
849.10	225.75
849.42	225.70
849.73	225.61
850.04	225.59
850.36	225.56
850.67	225.55
850.98	225.57
851.30	225.58
851.61	225.54
851.92	225.55
852.23	225.57
852.55	225.56
852.86	225.56
853.17	225.59
853.49	225.61
853.80	225.61
854.11	225.60
854.42	225.64
854.74	225.66
855.05	225.64
855.36	225.58
855.67	225.57
855.99	225.59
856.30	225.72
856.61	225.72
856.92	225.73
857.23	225.73
857.55	225.75
857.86	225.73
858.17	225.79
858.48	225.79
858.79	225.77
859.11	225.82
859.42	225.84
859.73	225.81
860.04	225.79
860.35	225.76
860.66	225.71
860.98	225.66
861.29	225.65
861.60	225.61
861.91	225.65
862.22	225.65
862.53	225.63
862.84	225.52
863.16	225.52
863.47	225.52
863.78	225.51
864.09	225.50
864.40	225.46
864.71	225.46
865.02	225.49
865.33	225.48
865.64	225.44
865.95	225.42
866.27	225.48
866.58	225.43
866.89	225.42
867.20	225.43
867.51	225.42
867.82	225.42
868.13	225.45
868.44	225.43
868.75	225.44
869.06	225.42
869.37	225.41
869.68	225.37
869.99	225.37
870.30	225.37
870.61	225.36
870.92	225.35
871.23	225.29
871.54	225.24
871.85	225.27
872.16	225.25
872.47	225.22
872.78	225.12
873.09	225.14
873.40	225.13
873.71	225.12
874.02	225.10
874.33	225.09
874.64	225.04
874.95	225.05
875.26	225.00
875.56	225.02
875.87	224.98
876.18	224.95
876.49	225.02
876.80	225.00
877.11	224.96
877.42	224.98
877.73	224.96
878.04	224.97
878.35	224.94
878.66	224.93
878.96	224.93
879.27	224.93
879.58	224.92
879.89	224.90
880.20	224.91
880.51	224.92
880.82	224.93
881.12	224.94
881.43	224.87
881.74	224.87
882.05	224.83
882.36	224.84
882.67	224.89
882.97	224.80
883.28	224.80
883.59	224.81
883.90	224.81
884.21	224.85
884.51	224.81
884.82	224.80
885.13	224.83
885.44	224.84
885.74	224.85
886.05	224.83
886.36	224.84
886.67	224.83
886.98	224.89
887.28	224.90
887.59	224.92
887.90	224.95
888.20	224.97
888.51	225.01
888.82	225.01
889.13	225.02
889.43	225.12
889.74	225.14
890.05	225.14
890.35	225.14
890.66	225.18
890.97	225.20
891.28	225.21
891.58	225.17
891.89	225.19
892.20	225.17
892.50	225.19
892.81	225.19
893.12	225.20
893.42	225.14
893.73	225.13
894.04	225.14
894.34	225.20
894.65	225.19
894.95	225.20
895.26	225.20
895.57	225.25
895.87	225.14
896.18	225.14
896.48	225.15
896.79	225.18
897.10	225.16
897.40	225.17
897.71	225.21
898.01	225.24
898.32	225.26
898.63	225.25
898.93	225.28
899.24	225.31
899.54	225.32
899.85	225.35
900.15	225.34
900.46	225.37
900.76	225.34
901.07	225.39
901.38	225.36
901.68	225.38
901.99	225.32
902.29	225.33
902.60	225.33
902.90	225.34
903.21	225.30
903.51	225.29
903.82	225.32
904.12	225.29
904.43	225.29
904.73	225.30
905.03	225.33
905.34	225.42
905.64	225.41
905.95	225.40
906.25	225.35
906.56	225.36
906.86	225.33
907.17	225.33
907.47	225.34
907.77	225.37
908.08	225.34
908.38	225.37
908.69	225.39
908.99	225.42
909.30	225.43
909.60	225.43
909.90	225.44
910.21	225.40
910.51	225.39
910.81	225.37
911.12	225.37
911.42	225.33
911.73	225.23
912.03	225.18
912.33	225.19
912.64	225.22
912.94	225.21
913.24	225.17
913.55	225.15
913.85	225.11
914.15	225.13
914.46	225.15
914.76	225.13
915.06	225.10
915.37	225.07
915.67	225.06
915.97	225.06
916.27	225.04
916.58	225.03
916.88	225.03
917.18	225.03
917.49	225.08
917.79	225.09
918.09	225.07
918.39	225.16
918.70	225.15
919.00	225.12
919.30	225.14
919.60	225.15
919.91	225.11
920.21	225.09
920.51	225.00
920.81	225.00
921.12	224.98
921.42	224.95
921.72	224.94
922.02	224.92
922.32	224.92
922.63	224.92
922.93	224.96
923.23	224.96
923.53	224.95
923.83	224.86
924.13	224.88
924.44	224.86
924.74	224.82
925.04	224.85
925.34	224.83
925.64	224.79
925.94	224.79
926.24	224.86
926.55	224.86
926.85	224.90
927.15	224.90
927.45	224.93
927.75	224.92
928.05	224.90
928.35	224.91
928.65	224.93
928.95	224.94
929.26	224.92
929.56	224.92
929.86	224.90
930.16	224.90
930.46	224.89
930.76	224.93
931.06	224.90
931.36	224.89
931.66	224.91
931.96	224.93
932.26	224.92
932.56	224.85
932.86	224.90
933.16	224.91
933.46	224.89
933.76	224.87
934.06	224.93
934.36	224.98
934.66	224.96
934.96	224.97
935.26	224.94
935.56	224.92
935.86	224.92
936.16	224.93
936.46	224.94
936.76	224.94
937.06	224.91
937.36	224.92
937.66	224.93
937.96	224.94
938.26	224.91
938.56	224.94
938.86	224.94
939.16	224.95
939.46	224.96
939.76	224.99
940.06	225.01
940.35	224.98
940.65	224.91
940.95	224.95
941.25	224.92
941.55	224.93
941.85	224.95
942.15	224.98
942.45	225.02
942.75	225.05
943.04	225.03
943.34	225.04
943.64	225.03
943.94	225.02
944.24	225.01
944.54	225.06
944.84	225.07
945.13	225.11
945.43	225.06
945.73	225.05
946.03	225.04
946.33	225.03
946.62	225.06
946.92	225.07
947.22	225.07
947.52	225.08
947.82	225.10
948.11	225.10
948.41	225.07
948.71	225.00
949.01	225.00
949.31	224.97
949.60	224.95
949.90	224.99
950.20	224.94
950.50	224.94
950.79	224.92
951.09	224.93
951.39	224.87
951.69	224.87
951.98	224.87
952.28	224.86
952.58	224.84
952.87	224.80
953.17	224.80
953.47	224.77
953.76	224.76
954.06	224.73
954.36	224.67
954.66	224.66
954.95	224.69
955.25	224.68
955.55	224.73
955.84	224.72
956.14	224.70
956.44	224.73
956.73	224.69
957.03	224.67
957.32	224.63
957.62	224.63
957.92	224.64
958.21	224.63
958.51	224.74
958.81	224.75
959.10	224.75
959.40	224.77
959.69	224.75
959.99	224.73
960.29	224.74
960.58	224.75
960.88	224.79
961.17	224.76
961.47	224.77
961.76	224.72
962.06	224.76
962.36	224.74
962.65	224.75
962.95	224.76
963.24	224.75
963.54	224.77
963.83	224.78
964.13	224.79
964.42	224.76
964.72	224.68
965.01	224.69
965.31	224.71
965.60	224.68
965.90	224.77
966.19	224.80
966.49	224.81
966.78	224.81
967.08	224.82
967.37	224.86
967.67	224.87
967.96	224.89
968.26	224.89
968.55	224.92
968.85	224.90
969.14	224.90
969.43	224.94
969.73	224.94
970.02	224.96
970.32	224.96
970.61	224.98
970.91	224.95
971.20	224.95
971.49	224.93
971.79	224.97
972.08	224.92
972.38	224.92
972.67	224.92
972.96	224.98
973.26	224.96
973.55	225.01
973.85	224.96
974.14	225.02
974.43	225.03
974.73	225.01
975.02	225.04
975.31	225.05
975.61	225.03
975.90	225.02
976.19	225.00
976.49	225.01
976.78	224.98
977.07	225.00
977.37	225.00
977.66	225.06
977.95	225.01
978.24	225.03
978.54	225.05
978.83	225.02
979.12	225.01
979.42	225.00
979.71	224.98
980.00	225.01
980.29	224.98
980.59	224.93
980.88	224.96
981.17	224.98
981.46	224.98
981.76	225.00
982.05	225.04
982.34	225.06
982.63	225.06
982.93	225.08
983.22	225.08
983.51	225.09
983.80	225.03
984.09	225.05
984.39	225.04
984.68	225.01
984.97	224.99
985.26	224.97
985.55	224.97
985.85	224.93
986.14	224.96
986.43	224.97
986.72	224.96
987.01	224.93
987.30	224.89
987.59	224.88
987.89	224.88
988.18	224.82
988.47	224.79
988.76	224.81
989.05	224.79
989.34	224.77
989.63	224.76
989.92	224.77
990.22	224.75
990.51	224.73
990.80	224.71
991.09	224.73
991.38	224.72
991.67	224.70
991.96	224.67
992.25	224.63
992.54	224.62
992.83	224.64
993.12	224.60
993.41	224.61
993.70	224.66
993.99	224.68
994.28	224.69
994.58	224.71
994.87	224.63
995.16	224.63
995.45	224.61
995.74	224.58
996.03	224.58
996.32	224.55
996.61	224.57
996.90	224.56
997.19	224.55
997.48	224.57
997.77	224.53
998.06	224.57
998.34	224.58
998.63	224.56
998.92	224.54
999.21	224.57
999.50	224.58
999.79	224.56
1000.08	224.52
1000.37	224.56
1000.66	224.56
1000.95	224.62
1001.24	224.63
1001.53	224.70
1001.82	224.71
1002.11	224.69
1002.40	224.76
1002.68	224.78
1002.97	224.88
1003.26	224.91
1003.55	224.88
1003.84	224.89
1004.13	224.91
1004.42	224.88
1004.71	224.90
1004.99	224.89
1005.28	224.91
1005.57	224.88
1005.86	224.87
1006.15	224.88
1006.44	224.82
1006.72	224.82
1007.01	224.81
1007.30	224.80
1007.59	224.77
1007.88	224.76
1008.17	224.77
1008.45	224.75
1008.74	224.71
1009.03	224.66
1009.32	224.63
1009.60	224.65
1009.89	224.69
1010.18	224.65
1010.47	224.66
1010.76	224.67
1011.04	224.68
1011.33	224.67
1011.62	224.69
1011.91	224.70
1012.19	224.70
1012.48	224.74
1012.77	224.76
1013.05	224.81
1013.34	224.84
1013.63	224.83
1013.92	224.88
1014.20	224.87
1014.49	224.86
1014.78	224.89
1015.06	224.86
1015.35	224.90
1015.64	224.91
1015.92	224.92
1016.21	224.94
1016.50	224.98
1016.78	225.00
1017.07	225.02
1017.36	225.01
1017.64	225.01
1017.93	225.00
1018.22	225.00
1018.50	224.97
1018.79	224.93
1019.08	224.86
1019.36	224.89
1019.65	224.87
1019.93	224.88
1020.22	224.90
1020.51	224.96
1020.79	224.93
1021.08	224.72
1021.36	224.49
1021.65	224.46
1021.94	224.29
1022.22	225.65
1022.51	224.51
1022.79	225.35
1023.08	224.94
1023.36	225.90
1023.65	224.49
>>>>>End Processed Spectral Data<<<<<
