SpectraSuite Data File
++++++++++++++++++++++++++++++++++++
Date: Fri Feb 01 17:41:33 EST 2013
User: group
Dark Spectrum Present: No
Reference Spectrum Present: No
Number of Sampled Component Spectra: 1
Spectrometers: USB2E7196
Integration Time (usec): 35000 (USB2E7196)
Spectra Averaged: 100 (USB2E7196)
Boxcar Smoothing: 10 (USB2E7196)
Correct for Electrical Dark: No (USB2E7196)
Strobe/Lamp Enabled: No (USB2E7196)
Correct for Detector Non-linearity: No (USB2E7196)
Correct for Stray Light: No (USB2E7196)
Number of Pixels in Processed Spectrum: 2048
>>>>>Begin Processed Spectral Data<<<<<
339.09	0.00
339.48	212.90
339.86	213.43
340.24	215.72
340.63	217.48
341.01	219.41
341.39	219.86
341.78	220.87
342.16	221.61
342.54	222.93
342.93	210.97
343.31	221.64
343.69	222.19
344.07	222.69
344.46	223.09
344.84	223.45
345.22	223.70
345.60	223.93
345.99	224.13
346.37	224.27
346.75	224.35
347.13	224.44
347.52	224.52
347.90	224.61
348.28	224.61
348.66	224.69
349.05	224.69
349.43	224.75
349.81	224.83
350.19	224.89
350.57	224.99
350.96	225.11
351.34	225.20
351.72	225.24
352.10	225.33
352.48	225.41
352.87	225.42
353.25	225.48
353.63	225.54
354.01	225.59
354.39	225.68
354.77	225.74
355.15	225.84
355.54	225.90
355.92	225.96
356.30	226.04
356.68	226.14
357.06	226.25
357.44	226.30
357.82	226.34
358.20	226.41
358.58	226.46
358.97	226.50
359.35	226.56
359.73	226.67
360.11	226.74
360.49	226.81
360.87	226.89
361.25	226.96
361.63	227.05
362.01	227.10
362.39	227.15
362.77	227.22
363.15	227.23
363.53	227.26
363.91	227.25
364.29	227.31
364.67	227.27
365.05	227.30
365.43	227.33
365.81	227.35
366.19	227.39
366.57	227.44
366.95	227.43
367.33	227.43
367.71	227.43
368.09	227.44
368.47	227.44
368.85	227.43
369.23	227.45
369.61	227.38
369.99	227.41
370.37	227.41
370.75	227.45
371.13	227.40
371.51	227.36
371.89	227.36
372.27	227.32
372.65	227.27
373.03	227.22
373.41	227.14
373.78	227.11
374.16	227.02
374.54	226.92
374.92	226.87
375.30	226.83
375.68	226.74
376.06	226.68
376.44	226.61
376.82	226.56
377.19	226.49
377.57	226.44
377.95	226.34
378.33	226.26
378.71	226.14
379.09	226.10
379.47	226.06
379.84	225.95
380.22	225.88
380.60	225.81
380.98	225.72
381.36	225.66
381.73	225.59
382.11	225.56
382.49	225.51
382.87	225.42
383.25	225.36
383.62	225.43
384.00	225.35
384.38	225.30
384.76	225.24
385.13	225.22
385.51	225.17
385.89	225.09
386.27	225.04
386.64	224.97
387.02	224.92
387.40	224.86
387.78	224.86
388.15	224.81
388.53	224.76
388.91	224.72
389.29	224.70
389.66	224.69
390.04	224.66
390.42	224.64
390.79	224.63
391.17	224.58
391.55	224.45
391.92	224.42
392.30	224.43
392.68	224.42
393.05	224.41
393.43	224.38
393.81	224.40
394.18	224.37
394.56	224.36
394.94	224.41
395.31	224.42
395.69	224.47
396.06	224.53
396.44	224.57
396.82	224.59
397.19	224.67
397.57	224.67
397.95	224.71
398.32	224.74
398.70	224.82
399.07	224.94
399.45	225.01
399.82	225.09
400.20	225.13
400.58	225.20
400.95	225.22
401.33	225.32
401.70	225.47
402.08	225.58
402.45	225.69
402.83	225.74
403.20	225.85
403.58	225.92
403.95	226.01
404.33	226.15
404.71	226.28
405.08	226.46
405.46	226.63
405.83	226.78
406.21	226.89
406.58	227.06
406.96	227.19
407.33	227.35
407.70	227.55
408.08	227.80
408.45	228.06
408.83	228.30
409.20	228.52
409.58	228.72
409.95	229.00
410.33	229.27
410.70	229.56
411.08	229.85
411.45	230.18
411.82	230.53
412.20	230.90
412.57	231.37
412.95	231.66
413.32	232.11
413.69	232.54
414.07	233.04
414.44	233.55
414.82	234.10
415.19	234.73
415.56	235.36
415.94	235.98
416.31	236.69
416.68	237.43
417.06	238.24
417.43	238.98
417.81	239.84
418.18	240.74
418.55	241.70
418.93	242.71
419.30	243.73
419.67	244.81
420.04	245.92
420.42	247.03
420.79	248.36
421.16	249.67
421.54	251.04
421.91	252.45
422.28	253.88
422.66	255.41
423.03	256.88
423.40	258.34
423.77	259.95
424.15	261.57
424.52	263.23
424.89	265.08
425.26	266.87
425.64	268.53
426.01	270.39
426.38	272.24
426.75	274.15
427.13	276.12
427.50	278.17
427.87	280.31
428.24	282.42
428.61	284.42
428.99	286.61
429.36	289.02
429.73	291.37
430.10	293.68
430.47	296.05
430.85	298.47
431.22	301.05
431.59	303.79
431.96	306.33
432.33	309.17
432.70	311.88
433.08	315.09
433.45	318.06
433.82	321.02
434.19	324.37
434.56	327.56
434.93	330.59
435.30	333.55
435.68	336.80
436.05	340.05
436.42	343.26
436.79	346.16
437.16	349.22
437.53	352.43
437.90	355.63
438.27	358.76
438.64	362.00
439.01	365.00
439.38	367.55
439.75	370.04
440.13	372.87
440.50	375.54
440.87	377.62
441.24	379.89
441.61	382.34
441.98	384.00
442.35	386.13
442.72	388.25
443.09	390.38
443.46	391.53
443.83	392.21
444.20	392.81
444.57	393.76
444.94	394.14
445.31	394.59
445.68	395.01
446.05	395.06
446.42	394.66
446.79	394.16
447.16	393.64
447.53	393.31
447.90	392.03
448.27	390.70
448.64	388.98
449.01	387.69
449.37	385.46
449.74	383.37
450.11	380.76
450.48	377.98
450.85	375.07
451.22	372.67
451.59	370.36
451.96	368.13
452.33	365.18
452.70	362.48
453.07	359.25
453.43	355.98
453.80	352.83
454.17	349.75
454.54	346.89
454.91	343.81
455.28	340.73
455.65	337.87
456.02	335.07
456.38	332.61
456.75	329.58
457.12	327.01
457.49	324.42
457.86	321.98
458.23	319.85
458.59	317.53
458.96	315.15
459.33	313.03
459.70	310.87
460.07	309.13
460.43	307.14
460.80	305.25
461.17	303.57
461.54	301.85
461.91	300.25
462.27	298.56
462.64	297.13
463.01	295.59
463.38	294.13
463.74	292.58
464.11	291.20
464.48	290.04
464.85	288.77
465.21	287.77
465.58	286.69
465.95	285.44
466.32	284.40
466.68	283.34
467.05	282.33
467.42	281.34
467.78	280.30
468.15	279.30
468.52	278.55
468.88	277.57
469.25	276.70
469.62	275.96
469.98	275.16
470.35	274.43
470.72	273.77
471.08	273.04
471.45	272.44
471.82	271.81
472.18	271.10
472.55	270.60
472.92	270.03
473.28	269.50
473.65	268.98
474.02	268.46
474.38	268.04
474.75	267.65
475.11	267.23
475.48	266.89
475.85	266.63
476.21	266.35
476.58	266.15
476.94	265.95
477.31	265.75
477.67	265.58
478.04	265.41
478.41	265.29
478.77	265.28
479.14	265.19
479.50	265.18
479.87	265.23
480.23	265.29
480.60	265.33
480.96	265.37
481.33	265.57
481.69	265.72
482.06	265.92
482.42	266.08
482.79	266.30
483.15	266.64
483.52	267.01
483.88	267.33
484.25	267.71
484.61	268.14
484.98	268.59
485.34	269.15
485.71	269.80
486.07	270.41
486.44	270.96
486.80	271.65
487.17	272.38
487.53	273.16
487.90	273.98
488.26	274.89
488.62	275.89
488.99	276.82
489.35	277.85
489.72	278.93
490.08	280.21
490.44	281.50
490.81	282.81
491.17	284.17
491.54	285.69
491.90	287.20
492.26	288.83
492.63	290.58
492.99	292.33
493.36	294.19
493.72	296.27
494.08	298.39
494.45	300.64
494.81	303.01
495.17	305.48
495.54	308.07
495.90	310.85
496.26	313.64
496.63	316.65
496.99	319.87
497.35	323.17
497.72	326.55
498.08	330.06
498.44	333.79
498.80	337.70
499.17	341.77
499.53	345.98
499.89	350.41
500.26	354.93
500.62	359.67
500.98	364.67
501.34	369.75
501.71	375.11
502.07	380.65
502.43	386.36
502.79	392.24
503.16	398.40
503.52	404.66
503.88	411.15
504.24	417.81
504.60	424.74
504.97	431.94
505.33	439.33
505.69	447.09
506.05	454.90
506.41	462.87
506.78	471.10
507.14	479.60
507.50	488.38
507.86	497.49
508.22	506.73
508.59	516.07
508.95	525.72
509.31	535.63
509.67	545.76
510.03	556.16
510.39	566.82
510.75	577.66
511.12	588.64
511.48	600.00
511.84	611.55
512.20	623.12
512.56	635.18
512.92	647.37
513.28	659.85
513.64	672.41
514.00	685.20
514.37	698.29
514.73	711.48
515.09	724.57
515.45	737.90
515.81	751.55
516.17	765.51
516.53	779.79
516.89	794.07
517.25	808.36
517.61	822.80
517.97	837.43
518.33	852.03
518.69	866.99
519.05	882.10
519.41	897.45
519.77	913.08
520.13	928.62
520.49	944.26
520.85	959.71
521.21	975.59
521.57	991.94
521.93	1007.89
522.29	1024.34
522.65	1040.92
523.01	1057.30
523.37	1073.56
523.73	1089.95
524.09	1106.32
524.45	1122.79
524.81	1139.61
525.17	1156.57
525.53	1173.51
525.89	1190.52
526.25	1207.57
526.61	1224.25
526.97	1241.19
527.33	1257.94
527.68	1274.76
528.04	1291.51
528.40	1308.30
528.76	1325.61
529.12	1342.47
529.48	1359.61
529.84	1375.99
530.20	1392.80
530.56	1410.07
530.91	1427.76
531.27	1444.97
531.63	1461.66
531.99	1478.63
532.35	1494.95
532.71	1511.31
533.07	1528.16
533.42	1544.55
533.78	1561.04
534.14	1577.68
534.50	1593.42
534.86	1609.70
535.21	1625.27
535.57	1641.66
535.93	1657.71
536.29	1673.02
536.65	1688.59
537.00	1703.82
537.36	1719.72
537.72	1734.77
538.08	1749.91
538.44	1764.29
538.79	1778.70
539.15	1792.84
539.51	1807.09
539.87	1822.18
540.22	1836.41
540.58	1850.56
540.94	1864.25
541.29	1877.61
541.65	1890.85
542.01	1904.78
542.37	1917.88
542.72	1931.04
543.08	1943.51
543.44	1956.57
543.79	1968.59
544.15	1980.37
544.51	1992.67
544.87	2004.18
545.22	2015.80
545.58	2026.68
545.94	2037.18
546.29	2047.81
546.65	2058.49
547.01	2068.68
547.36	2077.99
547.72	2087.28
548.07	2096.04
548.43	2105.24
548.79	2114.00
549.14	2122.46
549.50	2130.45
549.86	2138.72
550.21	2146.84
550.57	2154.90
550.92	2162.27
551.28	2170.00
551.64	2177.84
551.99	2185.18
552.35	2192.43
552.70	2199.29
553.06	2206.09
553.41	2213.22
553.77	2219.99
554.13	2226.93
554.48	2233.67
554.84	2240.06
555.19	2246.08
555.55	2252.13
555.90	2257.41
556.26	2263.40
556.61	2268.80
556.97	2274.06
557.32	2279.09
557.68	2284.05
558.03	2288.86
558.39	2293.34
558.74	2298.80
559.10	2303.49
559.45	2307.87
559.81	2312.59
560.16	2317.18
560.52	2321.18
560.87	2325.27
561.23	2328.64
561.58	2332.20
561.94	2335.55
562.29	2338.44
562.64	2342.17
563.00	2345.20
563.35	2349.31
563.71	2352.97
564.06	2356.82
564.42	2360.48
564.77	2363.80
565.12	2367.06
565.48	2369.91
565.83	2372.57
566.19	2374.61
566.54	2376.02
566.89	2377.94
567.25	2379.39
567.60	2381.23
567.96	2383.70
568.31	2385.19
568.66	2387.03
569.02	2388.36
569.37	2389.24
569.72	2390.80
570.08	2391.41
570.43	2392.09
570.78	2392.12
571.14	2391.19
571.49	2390.33
571.84	2390.21
572.20	2389.48
572.55	2388.66
572.90	2387.22
573.26	2386.40
573.61	2384.80
573.96	2383.63
574.31	2380.99
574.67	2378.38
575.02	2375.20
575.37	2372.04
575.72	2368.78
576.08	2365.62
576.43	2362.27
576.78	2359.08
577.13	2356.14
577.49	2353.13
577.84	2349.95
578.19	2346.30
578.54	2343.03
578.90	2339.39
579.25	2334.22
579.60	2329.65
579.95	2324.97
580.30	2320.32
580.66	2315.28
581.01	2310.54
581.36	2305.61
581.71	2301.71
582.06	2297.48
582.42	2293.30
582.77	2288.12
583.12	2283.66
583.47	2279.24
583.82	2274.67
584.17	2269.46
584.53	2264.16
584.88	2258.66
585.23	2253.12
585.58	2247.82
585.93	2242.27
586.28	2237.09
586.63	2232.06
586.98	2226.82
587.34	2221.86
587.69	2216.85
588.04	2211.70
588.39	2206.12
588.74	2199.62
589.09	2193.36
589.44	2186.49
589.79	2180.05
590.14	2174.44
590.49	2167.63
590.84	2160.93
591.19	2154.75
591.54	2148.12
591.89	2140.83
592.25	2134.25
592.60	2126.88
592.95	2119.20
593.30	2111.71
593.65	2104.15
594.00	2096.84
594.35	2089.50
594.70	2081.15
595.05	2074.05
595.40	2066.36
595.75	2058.67
596.10	2052.49
596.45	2045.49
596.80	2039.10
597.15	2032.54
597.50	2025.44
597.85	2018.85
598.19	2012.06
598.54	2004.95
598.89	1998.15
599.24	1991.90
599.59	1984.97
599.94	1978.42
600.29	1971.88
600.64	1964.97
600.99	1957.21
601.34	1950.18
601.69	1942.76
602.04	1935.81
602.39	1928.10
602.74	1921.06
603.08	1914.24
603.43	1907.01
603.78	1899.41
604.13	1891.81
604.48	1884.46
604.83	1877.22
605.18	1870.03
605.53	1861.75
605.87	1853.32
606.22	1845.62
606.57	1837.24
606.92	1829.12
607.27	1821.82
607.62	1814.58
607.96	1806.95
608.31	1800.29
608.66	1792.35
609.01	1784.61
609.36	1776.78
609.70	1768.50
610.05	1760.13
610.40	1751.91
610.75	1743.25
611.10	1735.23
611.44	1726.37
611.79	1717.55
612.14	1708.29
612.49	1698.54
612.83	1689.61
613.18	1680.85
613.53	1672.26
613.88	1663.28
614.22	1654.64
614.57	1645.29
614.92	1636.63
615.27	1628.83
615.61	1619.98
615.96	1611.39
616.31	1603.12
616.65	1595.17
617.00	1586.90
617.35	1578.55
617.70	1569.78
618.04	1560.85
618.39	1551.91
618.74	1544.03
619.08	1535.17
619.43	1527.11
619.78	1519.69
620.12	1512.16
620.47	1504.17
620.82	1495.47
621.16	1487.36
621.51	1479.22
621.85	1470.96
622.20	1461.94
622.55	1452.89
622.89	1444.46
623.24	1436.21
623.59	1428.15
623.93	1420.12
624.28	1412.30
624.62	1404.41
624.97	1396.69
625.32	1389.24
625.66	1381.72
626.01	1373.94
626.35	1366.37
626.70	1357.99
627.04	1349.86
627.39	1341.49
627.73	1333.50
628.08	1326.16
628.43	1318.53
628.77	1310.81
629.12	1302.96
629.46	1295.36
629.81	1287.29
630.15	1279.43
630.50	1271.70
630.84	1263.10
631.19	1254.54
631.53	1246.51
631.88	1238.36
632.22	1230.19
632.57	1222.39
632.91	1214.42
633.26	1206.44
633.60	1198.28
633.95	1190.73
634.29	1183.16
634.64	1175.96
634.98	1168.27
635.32	1160.67
635.67	1153.61
636.01	1146.40
636.36	1139.18
636.70	1132.15
637.05	1125.25
637.39	1118.31
637.73	1111.38
638.08	1105.17
638.42	1098.90
638.77	1092.05
639.11	1085.18
639.45	1078.52
639.80	1071.53
640.14	1064.78
640.49	1057.87
640.83	1051.27
641.17	1044.68
641.52	1038.01
641.86	1031.05
642.20	1024.81
642.55	1018.02
642.89	1011.08
643.23	1004.08
643.58	997.82
643.92	991.29
644.26	985.03
644.61	978.73
644.95	972.34
645.29	965.43
645.64	958.27
645.98	951.55
646.32	945.11
646.66	938.64
647.01	932.46
647.35	926.40
647.69	920.25
648.04	914.30
648.38	908.23
648.72	901.98
649.06	895.80
649.41	889.46
649.75	883.22
650.09	876.98
650.43	870.95
650.78	864.48
651.12	858.21
651.46	852.06
651.80	846.09
652.14	840.30
652.49	834.66
652.83	829.20
653.17	823.40
653.51	817.59
653.85	811.85
654.20	805.93
654.54	799.61
654.88	793.52
655.22	787.31
655.56	781.22
655.90	775.34
656.25	769.71
656.59	764.08
656.93	758.64
657.27	753.21
657.61	747.47
657.95	742.15
658.29	736.85
658.64	731.24
658.98	725.45
659.32	719.63
659.66	714.13
660.00	708.58
660.34	703.27
660.68	697.98
661.02	692.66
661.36	687.70
661.70	682.91
662.05	678.31
662.39	673.81
662.73	669.12
663.07	664.39
663.41	659.79
663.75	655.08
664.09	650.25
664.43	645.56
664.77	641.23
665.11	636.80
665.45	632.37
665.79	628.15
666.13	623.96
666.47	619.73
666.81	615.39
667.15	611.04
667.49	606.87
667.83	602.79
668.17	598.63
668.51	594.41
668.85	590.16
669.19	586.03
669.53	581.93
669.87	577.90
670.21	574.02
670.55	570.10
670.89	566.47
671.23	562.94
671.57	559.25
671.91	555.53
672.25	551.78
672.58	548.01
672.92	544.36
673.26	540.94
673.60	537.59
673.94	534.27
674.28	531.13
674.62	528.02
674.96	524.82
675.30	521.77
675.64	518.69
675.97	515.73
676.31	512.73
676.65	509.70
676.99	506.76
677.33	503.72
677.67	500.71
678.01	497.55
678.34	494.40
678.68	491.34
679.02	488.36
679.36	485.48
679.70	482.62
680.04	479.76
680.37	476.80
680.71	473.83
681.05	471.08
681.39	468.20
681.73	465.46
682.06	462.78
682.40	460.14
682.74	457.42
683.08	454.70
683.42	451.95
683.75	449.28
684.09	446.59
684.43	443.98
684.77	441.41
685.10	438.88
685.44	436.39
685.78	433.96
686.12	431.54
686.45	429.03
686.79	426.65
687.13	424.29
687.46	421.94
687.80	419.62
688.14	417.20
688.48	415.01
688.81	412.62
689.15	410.34
689.49	407.99
689.82	405.78
690.16	403.55
690.50	401.45
690.83	399.41
691.17	397.28
691.51	395.28
691.84	393.30
692.18	391.30
692.52	389.27
692.85	387.22
693.19	385.25
693.52	383.33
693.86	381.34
694.20	379.40
694.53	377.52
694.87	375.61
695.21	373.71
695.54	371.74
695.88	369.85
696.21	368.00
696.55	366.19
696.88	364.37
697.22	362.60
697.56	360.84
697.89	359.04
698.23	357.36
698.56	355.63
698.90	353.98
699.23	352.24
699.57	350.60
699.90	348.95
700.24	347.32
700.58	345.71
700.91	344.20
701.25	342.68
701.58	341.23
701.92	339.78
702.25	338.31
702.59	336.93
702.92	335.53
703.26	334.15
703.59	332.84
703.93	331.57
704.26	330.35
704.60	329.01
704.93	327.71
705.26	326.39
705.60	325.13
705.93	323.83
706.27	322.73
706.60	321.60
706.94	320.50
707.27	319.27
707.61	318.10
707.94	316.97
708.27	315.78
708.61	314.57
708.94	313.48
709.28	312.47
709.61	311.43
709.94	310.40
710.28	309.32
710.61	308.22
710.95	307.07
711.28	306.02
711.61	305.01
711.95	304.03
712.28	303.05
712.61	302.05
712.95	301.11
713.28	300.17
713.61	299.20
713.95	298.25
714.28	297.40
714.61	296.49
714.95	295.61
715.28	294.75
715.61	293.81
715.95	292.92
716.28	291.99
716.61	291.08
716.95	290.20
717.28	289.44
717.61	288.68
717.94	287.91
718.28	287.10
718.61	286.32
718.94	285.59
719.27	284.90
719.61	284.20
719.94	283.50
720.27	282.70
720.60	281.97
720.94	281.26
721.27	280.59
721.60	279.99
721.93	279.32
722.27	278.67
722.60	278.09
722.93	277.47
723.26	276.91
723.59	276.34
723.93	275.75
724.26	275.13
724.59	274.50
724.92	273.93
725.25	273.37
725.59	272.80
725.92	272.25
726.25	271.66
726.58	271.11
726.91	270.54
727.24	270.01
727.57	269.50
727.91	269.01
728.24	268.48
728.57	267.96
728.90	267.45
729.23	266.92
729.56	266.46
729.89	265.92
730.22	265.36
730.55	264.82
730.89	264.32
731.22	263.82
731.55	263.33
731.88	262.85
732.21	262.36
732.54	261.88
732.87	261.37
733.20	260.93
733.53	260.51
733.86	260.09
734.19	259.66
734.52	259.26
734.85	258.86
735.18	258.41
735.51	257.98
735.84	257.57
736.17	257.23
736.50	256.78
736.83	256.53
737.16	256.17
737.49	255.88
737.82	255.52
738.15	255.22
738.48	254.89
738.81	254.51
739.14	254.18
739.47	253.84
739.80	253.52
740.13	253.19
740.46	252.84
740.79	252.50
741.12	252.17
741.45	251.82
741.78	251.45
742.11	251.16
742.44	250.81
742.77	250.52
743.10	250.16
743.43	249.88
743.75	249.52
744.08	249.34
744.41	249.01
744.74	248.71
745.07	248.38
745.40	248.09
745.73	247.84
746.06	247.53
746.39	247.23
746.71	246.95
747.04	246.68
747.37	246.42
747.70	246.18
748.03	245.88
748.36	245.66
748.68	245.42
749.01	245.16
749.34	244.92
749.67	244.65
750.00	244.37
750.33	244.20
750.65	243.97
750.98	243.64
751.31	243.42
751.64	243.19
751.97	243.01
752.29	242.79
752.62	242.52
752.95	242.28
753.28	242.10
753.60	241.89
753.93	241.72
754.26	241.50
754.59	241.25
754.91	241.08
755.24	240.85
755.57	240.66
755.90	240.45
756.22	240.24
756.55	240.06
756.88	239.90
757.20	239.65
757.53	239.46
757.86	239.26
758.19	239.09
758.51	238.93
758.84	238.72
759.17	238.55
759.49	238.44
759.82	238.32
760.15	238.15
760.47	237.98
760.80	237.77
761.13	237.62
761.45	237.43
761.78	237.27
762.11	237.13
762.43	236.96
762.76	236.81
763.08	236.67
763.41	236.54
763.74	236.38
764.06	236.22
764.39	236.04
764.71	235.84
765.04	235.72
765.37	235.58
765.69	235.42
766.02	235.27
766.34	235.14
766.67	234.99
767.00	234.88
767.32	234.83
767.65	234.75
767.97	234.67
768.30	234.56
768.62	234.41
768.95	234.30
769.27	234.15
769.60	234.06
769.92	233.97
770.25	233.83
770.57	233.71
770.90	233.58
771.22	233.51
771.55	233.43
771.87	233.32
772.20	233.17
772.52	233.14
772.85	233.20
773.17	233.08
773.50	232.97
773.82	232.84
774.15	232.65
774.47	232.53
774.80	232.41
775.12	232.33
775.45	232.26
775.77	232.16
776.09	232.12
776.42	232.04
776.74	231.95
777.07	231.88
777.39	231.81
777.72	231.76
778.04	231.67
778.36	231.58
778.69	231.52
779.01	231.45
779.33	231.30
779.66	231.11
779.98	231.03
780.31	230.99
780.63	230.97
780.95	230.92
781.28	230.84
781.60	230.75
781.92	230.70
782.25	230.61
782.57	230.53
782.89	230.46
783.22	230.38
783.54	230.31
783.86	230.25
784.19	230.20
784.51	230.19
784.83	230.09
785.16	230.05
785.48	229.95
785.80	229.93
786.12	229.88
786.45	229.81
786.77	229.79
787.09	229.71
787.42	229.63
787.74	229.57
788.06	229.51
788.38	229.46
788.71	229.38
789.03	229.35
789.35	229.35
789.67	229.28
789.99	229.24
790.32	229.19
790.64	229.14
790.96	229.17
791.28	229.07
791.61	229.04
791.93	228.99
792.25	228.98
792.57	228.97
792.89	228.93
793.21	228.92
793.54	228.82
793.86	228.76
794.18	228.72
794.50	228.68
794.82	228.64
795.14	228.64
795.47	228.64
795.79	228.59
796.11	228.50
796.43	228.47
796.75	228.41
797.07	228.39
797.39	228.33
797.71	228.21
798.04	228.21
798.36	228.21
798.68	228.18
799.00	228.14
799.32	228.08
799.64	228.09
799.96	228.03
800.28	228.05
800.60	228.01
800.92	227.97
801.24	227.95
801.56	227.93
801.89	227.89
802.21	227.85
802.53	227.81
802.85	227.82
803.17	227.81
803.49	227.80
803.81	227.75
804.13	227.72
804.45	227.68
804.77	227.64
805.09	227.61
805.41	227.57
805.73	227.52
806.05	227.47
806.37	227.43
806.69	227.38
807.01	227.35
807.33	227.35
807.65	227.26
807.97	227.29
808.28	227.23
808.60	227.18
808.92	227.12
809.24	227.15
809.56	227.08
809.88	227.02
810.20	226.96
810.52	226.95
810.84	226.93
811.16	226.91
811.48	226.88
811.80	226.88
812.12	226.82
812.43	226.82
812.75	226.77
813.07	226.74
813.39	226.74
813.71	226.71
814.03	226.69
814.35	226.71
814.67	226.64
814.98	226.62
815.30	226.60
815.62	226.57
815.94	226.51
816.26	226.58
816.58	226.55
816.89	226.56
817.21	226.54
817.53	226.52
817.85	226.50
818.17	226.47
818.48	226.40
818.80	226.42
819.12	226.40
819.44	226.38
819.76	226.34
820.07	226.30
820.39	226.26
820.71	226.24
821.03	226.22
821.34	226.18
821.66	226.17
821.98	226.17
822.30	226.16
822.61	226.17
822.93	226.07
823.25	226.07
823.57	226.03
823.88	226.02
824.20	226.02
824.52	226.04
824.83	226.02
825.15	226.02
825.47	225.98
825.79	225.96
826.10	225.97
826.42	225.97
826.74	225.97
827.05	225.96
827.37	225.96
827.69	225.97
828.00	225.97
828.32	225.97
828.64	225.95
828.95	226.02
829.27	225.99
829.58	226.00
829.90	226.02
830.22	226.02
830.53	225.98
830.85	225.91
831.17	225.86
831.48	225.85
831.80	225.82
832.11	225.82
832.43	225.80
832.75	225.75
833.06	225.82
833.38	225.80
833.69	225.79
834.01	225.79
834.32	225.76
834.64	225.76
834.96	225.75
835.27	225.73
835.59	225.69
835.90	225.69
836.22	225.66
836.53	225.63
836.85	225.66
837.16	225.77
837.48	225.81
837.79	225.88
838.11	225.89
838.42	225.91
838.74	225.95
839.05	225.95
839.37	225.95
839.68	225.85
840.00	225.83
840.31	225.83
840.63	225.79
840.94	225.76
841.26	225.74
841.57	225.74
841.88	225.77
842.20	225.74
842.51	225.70
842.83	225.72
843.14	225.78
843.46	225.76
843.77	225.70
844.08	225.69
844.40	225.62
844.71	225.61
845.03	225.59
845.34	225.55
845.65	225.54
845.97	225.57
846.28	225.54
846.60	225.57
846.91	225.51
847.22	225.51
847.54	225.54
847.85	225.55
848.16	225.50
848.48	225.43
848.79	225.46
849.10	225.48
849.42	225.48
849.73	225.38
850.04	225.36
850.36	225.28
850.67	225.27
850.98	225.30
851.30	225.26
851.61	225.22
851.92	225.24
852.23	225.26
852.55	225.24
852.86	225.26
853.17	225.27
853.49	225.33
853.80	225.35
854.11	225.36
854.42	225.35
854.74	225.39
855.05	225.38
855.36	225.34
855.67	225.32
855.99	225.28
856.30	225.39
856.61	225.37
856.92	225.43
857.23	225.42
857.55	225.37
857.86	225.38
858.17	225.39
858.48	225.34
858.79	225.33
859.11	225.32
859.42	225.30
859.73	225.28
860.04	225.26
860.35	225.21
860.66	225.15
860.98	225.13
861.29	225.14
861.60	225.10
861.91	225.12
862.22	225.11
862.53	225.12
862.84	225.02
863.16	225.06
863.47	225.02
863.78	225.01
864.09	225.00
864.40	225.02
864.71	225.03
865.02	225.04
865.33	225.04
865.64	225.02
865.95	225.03
866.27	225.07
866.58	225.05
866.89	225.06
867.20	225.05
867.51	225.07
867.82	225.05
868.13	225.12
868.44	225.10
868.75	225.13
869.06	225.14
869.37	225.15
869.68	225.15
869.99	225.17
870.30	225.18
870.61	225.22
870.92	225.21
871.23	225.20
871.54	225.24
871.85	225.25
872.16	225.29
872.47	225.31
872.78	225.25
873.09	225.27
873.40	225.30
873.71	225.34
874.02	225.35
874.33	225.33
874.64	225.32
874.95	225.33
875.26	225.30
875.56	225.29
875.87	225.29
876.18	225.26
876.49	225.35
876.80	225.33
877.11	225.34
877.42	225.32
877.73	225.34
878.04	225.31
878.35	225.32
878.66	225.28
878.96	225.29
879.27	225.28
879.58	225.26
879.89	225.25
880.20	225.27
880.51	225.26
880.82	225.27
881.12	225.31
881.43	225.29
881.74	225.30
882.05	225.30
882.36	225.30
882.67	225.31
882.97	225.20
883.28	225.22
883.59	225.20
883.90	225.23
884.21	225.25
884.51	225.25
884.82	225.24
885.13	225.25
885.44	225.23
885.74	225.22
886.05	225.21
886.36	225.18
886.67	225.14
886.98	225.20
887.28	225.18
887.59	225.16
887.90	225.13
888.20	225.13
888.51	225.14
888.82	225.12
889.13	225.14
889.43	225.20
889.74	225.17
890.05	225.15
890.35	225.15
890.66	225.13
890.97	225.12
891.28	225.08
891.58	225.04
891.89	225.07
892.20	225.06
892.50	225.06
892.81	225.04
893.12	225.05
893.42	224.96
893.73	224.97
894.04	224.94
894.34	224.97
894.65	224.99
894.95	224.94
895.26	224.95
895.57	224.97
895.87	224.88
896.18	224.93
896.48	224.94
896.79	224.90
897.10	224.90
897.40	224.89
897.71	224.88
898.01	224.92
898.32	224.87
898.63	224.88
898.93	224.87
899.24	224.87
899.54	224.84
899.85	224.85
900.15	224.82
900.46	224.83
900.76	224.82
901.07	224.78
901.38	224.79
901.68	224.79
901.99	224.75
902.29	224.78
902.60	224.72
902.90	224.72
903.21	224.71
903.51	224.70
903.82	224.69
904.12	224.71
904.43	224.73
904.73	224.73
905.03	224.75
905.34	224.86
905.64	224.88
905.95	224.90
906.25	224.92
906.56	224.94
906.86	224.94
907.17	224.95
907.47	224.94
907.77	224.95
908.08	224.93
908.38	224.92
908.69	224.92
908.99	224.95
909.30	224.92
909.60	224.97
909.90	224.98
910.21	225.00
910.51	225.00
910.81	224.99
911.12	225.00
911.42	225.00
911.73	224.90
912.03	224.91
912.33	224.92
912.64	224.92
912.94	224.94
913.24	224.94
913.55	224.93
913.85	224.95
914.15	224.97
914.46	224.97
914.76	224.97
915.06	224.95
915.37	224.93
915.67	224.98
915.97	224.96
916.27	224.92
916.58	224.91
916.88	224.90
917.18	224.89
917.49	224.97
917.79	224.97
918.09	224.98
918.39	225.01
918.70	224.99
919.00	224.99
919.30	225.03
919.60	225.01
919.91	224.98
920.21	224.97
920.51	224.94
920.81	224.96
921.12	224.97
921.42	224.96
921.72	225.00
922.02	224.97
922.32	224.99
922.63	225.03
922.93	225.07
923.23	225.06
923.53	225.07
923.83	225.02
924.13	225.02
924.44	225.05
924.74	225.05
925.04	225.10
925.34	225.12
925.64	225.04
925.94	225.04
926.24	225.13
926.55	225.10
926.85	225.12
927.15	225.12
927.45	225.14
927.75	225.13
928.05	225.10
928.35	225.12
928.65	225.11
928.95	225.06
929.26	225.02
929.56	225.06
929.86	225.06
930.16	225.01
930.46	224.97
930.76	224.96
931.06	224.90
931.36	224.88
931.66	224.86
931.96	224.86
932.26	224.88
932.56	224.83
932.86	224.85
933.16	224.84
933.46	224.81
933.76	224.76
934.06	224.79
934.36	224.83
934.66	224.79
934.96	224.77
935.26	224.79
935.56	224.79
935.86	224.72
936.16	224.67
936.46	224.68
936.76	224.68
937.06	224.65
937.36	224.64
937.66	224.62
937.96	224.62
938.26	224.62
938.56	224.61
938.86	224.58
939.16	224.60
939.46	224.61
939.76	224.61
940.06	224.59
940.35	224.55
940.65	224.51
940.95	224.51
941.25	224.47
941.55	224.44
941.85	224.44
942.15	224.46
942.45	224.47
942.75	224.46
943.04	224.45
943.34	224.48
943.64	224.47
943.94	224.43
944.24	224.41
944.54	224.37
944.84	224.37
945.13	224.38
945.43	224.33
945.73	224.29
946.03	224.29
946.33	224.28
946.62	224.26
946.92	224.27
947.22	224.29
947.52	224.28
947.82	224.30
948.11	224.28
948.41	224.26
948.71	224.27
949.01	224.30
949.31	224.29
949.60	224.27
949.90	224.30
950.20	224.34
950.50	224.36
950.79	224.39
951.09	224.40
951.39	224.39
951.69	224.40
951.98	224.46
952.28	224.44
952.58	224.46
952.87	224.48
953.17	224.48
953.47	224.48
953.76	224.52
954.06	224.49
954.36	224.49
954.66	224.52
954.95	224.52
955.25	224.50
955.55	224.53
955.84	224.55
956.14	224.56
956.44	224.56
956.73	224.53
957.03	224.57
957.32	224.58
957.62	224.57
957.92	224.61
958.21	224.60
958.51	224.71
958.81	224.76
959.10	224.78
959.40	224.82
959.69	224.84
959.99	224.84
960.29	224.84
960.58	224.88
960.88	224.94
961.17	224.96
961.47	225.01
961.76	225.02
962.06	225.04
962.36	225.04
962.65	225.04
962.95	225.08
963.24	225.09
963.54	225.09
963.83	225.12
964.13	225.11
964.42	225.07
964.72	225.03
965.01	225.04
965.31	225.06
965.60	225.03
965.90	225.11
966.19	225.10
966.49	225.13
966.78	225.10
967.08	225.09
967.37	225.09
967.67	225.07
967.96	225.10
968.26	225.07
968.55	225.09
968.85	225.09
969.14	225.07
969.43	225.04
969.73	225.01
970.02	225.01
970.32	225.01
970.61	225.00
970.91	224.99
971.20	224.97
971.49	224.94
971.79	224.96
972.08	224.88
972.38	224.92
972.67	224.92
972.96	224.94
973.26	224.89
973.55	224.91
973.85	224.89
974.14	224.87
974.43	224.87
974.73	224.82
975.02	224.81
975.31	224.79
975.61	224.76
975.90	224.75
976.19	224.73
976.49	224.70
976.78	224.70
977.07	224.69
977.37	224.68
977.66	224.69
977.95	224.64
978.24	224.64
978.54	224.61
978.83	224.60
979.12	224.57
979.42	224.56
979.71	224.53
980.00	224.54
980.29	224.50
980.59	224.47
980.88	224.50
981.17	224.50
981.46	224.53
981.76	224.54
982.05	224.58
982.34	224.59
982.63	224.57
982.93	224.56
983.22	224.57
983.51	224.57
983.80	224.55
984.09	224.57
984.39	224.53
984.68	224.49
984.97	224.50
985.26	224.49
985.55	224.53
985.85	224.51
986.14	224.51
986.43	224.52
986.72	224.55
987.01	224.47
987.30	224.46
987.59	224.46
987.89	224.44
988.18	224.44
988.47	224.41
988.76	224.41
989.05	224.41
989.34	224.38
989.63	224.37
989.92	224.39
990.22	224.35
990.51	224.36
990.80	224.44
991.09	224.42
991.38	224.43
991.67	224.40
991.96	224.39
992.25	224.40
992.54	224.39
992.83	224.39
993.12	224.46
993.41	224.48
993.70	224.52
993.99	224.53
994.28	224.54
994.58	224.55
994.87	224.59
995.16	224.59
995.45	224.59
995.74	224.59
996.03	224.63
996.32	224.64
996.61	224.65
996.90	224.63
997.19	224.66
997.48	224.65
997.77	224.66
998.06	224.65
998.34	224.64
998.63	224.65
998.92	224.63
999.21	224.61
999.50	224.63
999.79	224.57
1000.08	224.61
1000.37	224.62
1000.66	224.62
1000.95	224.63
1001.24	224.60
1001.53	224.62
1001.82	224.60
1002.11	224.57
1002.40	224.61
1002.68	224.66
1002.97	224.70
1003.26	224.67
1003.55	224.67
1003.84	224.67
1004.13	224.71
1004.42	224.69
1004.71	224.71
1004.99	224.70
1005.28	224.72
1005.57	224.69
1005.86	224.68
1006.15	224.67
1006.44	224.63
1006.72	224.65
1007.01	224.60
1007.30	224.64
1007.59	224.62
1007.88	224.65
1008.17	224.65
1008.45	224.62
1008.74	224.57
1009.03	224.56
1009.32	224.58
1009.60	224.58
1009.89	224.55
1010.18	224.51
1010.47	224.51
1010.76	224.50
1011.04	224.52
1011.33	224.54
1011.62	224.55
1011.91	224.58
1012.19	224.57
1012.48	224.56
1012.77	224.57
1013.05	224.64
1013.34	224.65
1013.63	224.63
1013.92	224.60
1014.20	224.60
1014.49	224.57
1014.78	224.57
1015.06	224.52
1015.35	224.53
1015.64	224.50
1015.92	224.53
1016.21	224.52
1016.50	224.51
1016.78	224.50
1017.07	224.49
1017.36	224.43
1017.64	224.43
1017.93	224.40
1018.22	224.39
1018.50	224.38
1018.79	224.38
1019.08	224.32
1019.36	224.30
1019.65	224.31
1019.93	224.35
1020.22	224.35
1020.51	224.42
1020.79	224.40
1021.08	224.09
1021.36	224.16
1021.65	224.71
1021.94	224.14
1022.22	224.44
1022.51	224.22
1022.79	224.94
1023.08	224.50
1023.36	225.50
1023.65	224.19
>>>>>End Processed Spectral Data<<<<<
