SpectraSuite Data File
++++++++++++++++++++++++++++++++++++
Date: Fri Feb 01 15:41:16 EST 2013
User: group
Dark Spectrum Present: No
Reference Spectrum Present: No
Number of Sampled Component Spectra: 1
Spectrometers: USB2E7196
Integration Time (usec): 35000 (USB2E7196)
Spectra Averaged: 100 (USB2E7196)
Boxcar Smoothing: 10 (USB2E7196)
Correct for Electrical Dark: No (USB2E7196)
Strobe/Lamp Enabled: No (USB2E7196)
Correct for Detector Non-linearity: No (USB2E7196)
Correct for Stray Light: No (USB2E7196)
Number of Pixels in Processed Spectrum: 2048
>>>>>Begin Processed Spectral Data<<<<<
339.09	0.00
339.48	215.23
339.86	216.69
340.24	218.41
340.63	219.37
341.01	222.00
341.39	221.99
341.78	223.24
342.16	224.56
342.54	224.91
342.93	213.39
343.31	224.18
343.69	224.70
344.07	225.14
344.46	225.53
344.84	225.93
345.22	226.17
345.60	226.43
345.99	226.63
346.37	226.74
346.75	226.83
347.13	226.89
347.52	226.93
347.90	226.99
348.28	227.02
348.66	227.06
349.05	227.02
349.43	227.07
349.81	227.08
350.19	227.15
350.57	227.18
350.96	227.26
351.34	227.33
351.72	227.44
352.10	227.55
352.48	227.61
352.87	227.63
353.25	227.69
353.63	227.74
354.01	227.78
354.39	227.85
354.77	227.93
355.15	228.03
355.54	228.08
355.92	228.10
356.30	228.17
356.68	228.30
357.06	228.39
357.44	228.43
357.82	228.48
358.20	228.55
358.58	228.61
358.97	228.67
359.35	228.74
359.73	228.79
360.11	228.80
360.49	228.88
360.87	228.91
361.25	228.94
361.63	228.99
362.01	229.00
362.39	229.04
362.77	229.09
363.15	229.13
363.53	229.17
363.91	229.20
364.29	229.22
364.67	229.17
365.05	229.17
365.43	229.19
365.81	229.26
366.19	229.28
366.57	229.29
366.95	229.29
367.33	229.25
367.71	229.23
368.09	229.25
368.47	229.20
368.85	229.18
369.23	229.19
369.61	229.14
369.99	229.15
370.37	229.13
370.75	229.14
371.13	229.03
371.51	228.96
371.89	228.92
372.27	228.87
372.65	228.81
373.03	228.76
373.41	228.69
373.78	228.55
374.16	228.46
374.54	228.40
374.92	228.33
375.30	228.29
375.68	228.19
376.06	228.14
376.44	228.09
376.82	228.00
377.19	227.94
377.57	227.86
377.95	227.78
378.33	227.69
378.71	227.52
379.09	227.51
379.47	227.48
379.84	227.41
380.22	227.31
380.60	227.22
380.98	227.13
381.36	227.09
381.73	227.05
382.11	226.99
382.49	226.91
382.87	226.81
383.25	226.71
383.62	226.79
384.00	226.71
384.38	226.64
384.76	226.64
385.13	226.61
385.51	226.56
385.89	226.47
386.27	226.45
386.64	226.44
387.02	226.38
387.40	226.32
387.78	226.30
388.15	226.27
388.53	226.23
388.91	226.23
389.29	226.17
389.66	226.15
390.04	226.12
390.42	226.10
390.79	226.10
391.17	226.14
391.55	226.03
391.92	226.00
392.30	226.00
392.68	225.95
393.05	225.96
393.43	225.99
393.81	226.02
394.18	226.02
394.56	226.05
394.94	226.09
395.31	226.09
395.69	226.14
396.06	226.19
396.44	226.22
396.82	226.24
397.19	226.34
397.57	226.36
397.95	226.44
398.32	226.47
398.70	226.52
399.07	226.57
399.45	226.59
399.82	226.67
400.20	226.75
400.58	226.85
400.95	226.87
401.33	226.94
401.70	227.11
402.08	227.19
402.45	227.30
402.83	227.41
403.20	227.49
403.58	227.56
403.95	227.68
404.33	227.83
404.71	227.97
405.08	228.17
405.46	228.32
405.83	228.46
406.21	228.60
406.58	228.82
406.96	228.98
407.33	229.18
407.70	229.41
408.08	229.69
408.45	229.90
408.83	230.13
409.20	230.36
409.58	230.53
409.95	230.80
410.33	231.08
410.70	231.32
411.08	231.69
411.45	232.05
411.82	232.37
412.20	232.75
412.57	233.18
412.95	233.48
413.32	233.90
413.69	234.32
414.07	234.78
414.44	235.25
414.82	235.74
415.19	236.30
415.56	236.82
415.94	237.39
416.31	238.02
416.68	238.69
417.06	239.43
417.43	240.14
417.81	240.94
418.18	241.75
418.55	242.60
418.93	243.47
419.30	244.38
419.67	245.32
420.04	246.28
420.42	247.27
420.79	248.44
421.16	249.59
421.54	250.80
421.91	252.05
422.28	253.28
422.66	254.66
423.03	256.00
423.40	257.35
423.77	258.74
424.15	260.20
424.52	261.68
424.89	263.29
425.26	264.83
425.64	266.22
426.01	267.81
426.38	269.45
426.75	271.12
427.13	272.85
427.50	274.65
427.87	276.52
428.24	278.38
428.61	280.13
428.99	282.08
429.36	284.18
429.73	286.25
430.10	288.32
430.47	290.34
430.85	292.44
431.22	294.66
431.59	297.08
431.96	299.31
432.33	301.80
432.70	304.16
433.08	307.01
433.45	309.66
433.82	312.25
434.19	315.14
434.56	317.97
434.93	320.59
435.30	323.19
435.68	326.11
436.05	328.95
436.42	331.75
436.79	334.25
437.16	336.96
437.53	339.78
437.90	342.59
438.27	345.34
438.64	348.15
439.01	350.78
439.38	352.99
439.75	355.13
440.13	357.59
440.50	359.94
440.87	361.73
441.24	363.68
441.61	365.84
441.98	367.32
442.35	369.08
442.72	370.94
443.09	372.78
443.46	373.71
443.83	374.27
444.20	374.73
444.57	375.57
444.94	375.82
445.31	376.10
445.68	376.40
446.05	376.43
446.42	376.04
446.79	375.61
447.16	375.13
447.53	374.79
447.90	373.65
448.27	372.47
448.64	370.89
449.01	369.75
449.37	367.74
449.74	365.82
450.11	363.57
450.48	361.11
450.85	358.60
451.22	356.47
451.59	354.44
451.96	352.51
452.33	349.92
452.70	347.56
453.07	344.76
453.43	341.85
453.80	339.08
454.17	336.41
454.54	333.87
454.91	331.18
455.28	328.50
455.65	326.03
456.02	323.58
456.38	321.44
456.75	318.77
457.12	316.55
457.49	314.38
457.86	312.24
458.23	310.39
458.59	308.33
458.96	306.27
459.33	304.42
459.70	302.57
460.07	301.10
460.43	299.39
460.80	297.77
461.17	296.36
461.54	294.89
461.91	293.49
462.27	292.04
462.64	290.80
463.01	289.45
463.38	288.13
463.74	286.76
464.11	285.63
464.48	284.60
464.85	283.49
465.21	282.59
465.58	281.65
465.95	280.56
466.32	279.64
466.68	278.71
467.05	277.84
467.42	276.97
467.78	275.98
468.15	275.08
468.52	274.44
468.88	273.57
469.25	272.79
469.62	272.16
469.98	271.48
470.35	270.83
470.72	270.26
471.08	269.62
471.45	269.13
471.82	268.56
472.18	267.98
472.55	267.55
472.92	267.00
473.28	266.53
473.65	266.07
474.02	265.64
474.38	265.30
474.75	264.93
475.11	264.56
475.48	264.31
475.85	264.10
476.21	263.82
476.58	263.63
476.94	263.52
477.31	263.33
477.67	263.20
478.04	263.11
478.41	263.06
478.77	263.09
479.14	262.98
479.50	262.96
479.87	263.02
480.23	263.06
480.60	263.17
480.96	263.27
481.33	263.50
481.69	263.65
482.06	263.79
482.42	264.00
482.79	264.22
483.15	264.52
483.52	264.88
483.88	265.22
484.25	265.60
484.61	265.98
484.98	266.41
485.34	266.93
485.71	267.48
486.07	268.08
486.44	268.64
486.80	269.38
487.17	270.13
487.53	270.92
487.90	271.81
488.26	272.76
488.62	273.72
488.99	274.65
489.35	275.73
489.72	276.86
490.08	278.11
490.44	279.41
490.81	280.76
491.17	282.12
491.54	283.62
491.90	285.20
492.26	286.87
492.63	288.61
492.99	290.40
493.36	292.30
493.72	294.34
494.08	296.45
494.45	298.66
494.81	300.99
495.17	303.41
495.54	305.96
495.90	308.59
496.26	311.44
496.63	314.39
496.99	317.44
497.35	320.71
497.72	324.12
498.08	327.56
498.44	331.19
498.80	335.13
499.17	339.17
499.53	343.35
499.89	347.75
500.26	352.26
500.62	356.94
500.98	361.91
501.34	366.98
501.71	372.33
502.07	377.77
502.43	383.46
502.79	389.32
503.16	395.37
503.52	401.74
503.88	408.05
504.24	414.74
504.60	421.73
504.97	428.91
505.33	436.26
505.69	444.06
506.05	451.90
506.41	459.78
506.78	467.98
507.14	476.46
507.50	485.18
507.86	494.24
508.22	503.47
508.59	512.70
508.95	522.33
509.31	532.10
509.67	542.27
510.03	552.53
510.39	563.07
510.75	573.92
511.12	584.79
511.48	596.14
511.84	607.61
512.20	619.06
512.56	631.03
512.92	643.22
513.28	655.48
513.64	667.92
514.00	680.61
514.37	693.57
514.73	706.58
515.09	719.61
515.45	732.85
515.81	746.43
516.17	760.39
516.53	774.50
516.89	788.71
517.25	802.84
517.61	817.25
517.97	831.74
518.33	846.21
518.69	861.09
519.05	876.09
519.41	891.23
519.77	906.78
520.13	922.28
520.49	937.60
520.85	953.07
521.21	968.75
521.57	984.96
521.93	1000.66
522.29	1017.03
522.65	1033.27
523.01	1049.48
523.37	1065.52
523.73	1081.71
524.09	1097.76
524.45	1114.06
524.81	1130.69
525.17	1147.56
525.53	1164.42
525.89	1181.24
526.25	1198.00
526.61	1214.39
526.97	1231.14
527.33	1247.55
527.68	1264.04
528.04	1280.53
528.40	1297.15
528.76	1314.25
529.12	1330.93
529.48	1347.83
529.84	1363.91
530.20	1380.47
530.56	1397.55
530.91	1414.93
531.27	1431.70
531.63	1448.30
531.99	1464.96
532.35	1481.06
532.71	1496.95
533.07	1513.18
533.42	1528.99
533.78	1545.01
534.14	1561.38
534.50	1576.61
534.86	1592.57
535.21	1607.87
535.57	1623.84
535.93	1639.33
536.29	1654.06
536.65	1669.09
537.00	1683.82
537.36	1699.07
537.72	1713.62
538.08	1728.02
538.44	1741.74
538.79	1755.52
539.15	1769.24
539.51	1782.95
539.87	1797.15
540.22	1810.90
540.58	1824.71
540.94	1838.12
541.29	1851.08
541.65	1863.72
542.01	1877.10
542.37	1889.45
542.72	1901.82
543.08	1913.63
543.44	1926.08
543.79	1937.41
544.15	1948.54
544.51	1960.18
544.87	1971.24
545.22	1982.16
545.58	1992.37
545.94	2002.26
546.29	2012.19
546.65	2021.98
547.01	2031.17
547.36	2039.86
547.72	2048.29
548.07	2056.09
548.43	2064.32
548.79	2072.29
549.14	2079.76
549.50	2087.04
549.86	2094.79
550.21	2102.06
550.57	2109.32
550.92	2115.88
551.28	2123.11
551.64	2130.04
551.99	2136.55
552.35	2142.89
552.70	2148.90
553.06	2154.89
553.41	2161.22
553.77	2167.30
554.13	2173.34
554.48	2179.62
554.84	2185.10
555.19	2190.36
555.55	2195.62
555.90	2200.09
556.26	2204.91
556.61	2209.70
556.97	2213.97
557.32	2218.09
557.68	2222.22
558.03	2226.41
558.39	2230.08
558.74	2234.49
559.10	2238.31
559.45	2242.08
559.81	2246.10
560.16	2250.02
560.52	2253.29
560.87	2256.72
561.23	2259.34
561.58	2262.22
561.94	2264.63
562.29	2267.11
562.64	2269.72
563.00	2272.23
563.35	2275.70
563.71	2278.84
564.06	2281.99
564.42	2284.74
564.77	2287.12
565.12	2289.32
565.48	2291.27
565.83	2292.99
566.19	2294.24
566.54	2295.18
566.89	2296.16
567.25	2296.87
567.60	2298.19
567.96	2299.81
568.31	2300.56
568.66	2301.83
569.02	2302.42
569.37	2302.69
569.72	2303.48
570.08	2303.56
570.43	2303.72
570.78	2303.03
571.14	2301.50
571.49	2300.20
571.84	2300.02
572.20	2298.72
572.55	2297.71
572.90	2296.18
573.26	2294.77
573.61	2293.29
573.96	2291.44
574.31	2288.34
574.67	2285.18
575.02	2281.52
575.37	2278.19
575.72	2274.37
576.08	2270.84
576.43	2267.46
576.78	2263.74
577.13	2260.47
577.49	2257.43
577.84	2253.79
578.19	2250.15
578.54	2246.46
578.90	2242.18
579.25	2236.61
579.60	2231.71
579.95	2226.68
580.30	2221.59
580.66	2216.47
581.01	2211.34
581.36	2206.39
581.71	2202.31
582.06	2197.83
582.42	2193.21
582.77	2187.87
583.12	2183.29
583.47	2178.48
583.82	2173.38
584.17	2168.15
584.53	2162.69
584.88	2157.01
585.23	2151.17
585.58	2145.70
585.93	2140.36
586.28	2135.54
586.63	2130.39
586.98	2125.34
587.34	2120.72
587.69	2115.83
588.04	2110.54
588.39	2104.90
588.74	2098.43
589.09	2092.22
589.44	2085.44
589.79	2079.58
590.14	2073.94
590.49	2067.39
590.84	2061.08
591.19	2055.15
591.54	2048.69
591.89	2041.24
592.25	2034.54
592.60	2027.35
592.95	2019.61
593.30	2012.19
593.65	2004.41
594.00	1997.49
594.35	1990.27
594.70	1982.15
595.05	1974.80
595.40	1967.49
595.75	1959.94
596.10	1953.70
596.45	1946.90
596.80	1940.76
597.15	1933.86
597.50	1926.78
597.85	1920.33
598.19	1913.59
598.54	1906.46
598.89	1899.73
599.24	1893.89
599.59	1887.17
599.94	1880.88
600.29	1874.56
600.64	1867.96
600.99	1860.66
601.34	1853.70
601.69	1846.79
602.04	1839.92
602.39	1832.58
602.74	1825.79
603.08	1819.01
603.43	1812.31
603.78	1804.99
604.13	1797.74
604.48	1790.60
604.83	1783.67
605.18	1776.61
605.53	1768.55
605.87	1760.44
606.22	1753.31
606.57	1745.29
606.92	1737.99
607.27	1730.85
607.62	1723.95
607.96	1716.50
608.31	1709.83
608.66	1702.21
609.01	1694.58
609.36	1687.00
609.70	1678.94
610.05	1670.86
610.40	1663.16
610.75	1654.84
611.10	1647.32
611.44	1638.96
611.79	1630.95
612.14	1622.33
612.49	1613.27
612.83	1605.06
613.18	1596.98
613.53	1588.82
613.88	1580.33
614.22	1571.95
614.57	1563.41
614.92	1555.25
615.27	1547.75
615.61	1539.42
615.96	1531.37
616.31	1523.78
616.65	1516.37
617.00	1508.70
617.35	1501.16
617.70	1492.82
618.04	1484.21
618.39	1475.85
618.74	1468.13
619.08	1459.85
619.43	1452.15
619.78	1445.25
620.12	1437.96
620.47	1430.49
620.82	1422.32
621.16	1414.94
621.51	1407.31
621.85	1399.66
622.20	1391.22
622.55	1382.89
622.89	1375.08
623.24	1367.43
623.59	1360.05
623.93	1352.50
624.28	1345.39
624.62	1337.71
624.97	1330.55
625.32	1323.79
625.66	1316.83
626.01	1309.68
626.35	1302.22
626.70	1294.51
627.04	1286.64
627.39	1278.96
627.73	1271.50
628.08	1264.51
628.43	1257.14
628.77	1249.81
629.12	1242.29
629.46	1235.22
629.81	1227.88
630.15	1220.74
630.50	1213.31
630.84	1204.94
631.19	1197.15
631.53	1189.67
631.88	1182.09
632.22	1174.49
632.57	1167.24
632.91	1159.71
633.26	1152.26
633.60	1144.92
633.95	1137.85
634.29	1130.92
634.64	1124.16
634.98	1116.81
635.32	1109.70
635.67	1103.10
636.01	1096.46
636.36	1089.57
636.70	1082.98
637.05	1076.40
637.39	1069.88
637.73	1063.49
638.08	1057.71
638.42	1051.54
638.77	1045.06
639.11	1038.41
639.45	1032.04
639.80	1025.41
640.14	1018.92
640.49	1012.46
640.83	1006.21
641.17	1000.00
641.52	993.59
641.86	987.17
642.20	981.28
642.55	974.99
642.89	968.48
643.23	961.89
643.58	956.21
643.92	950.06
644.26	943.97
644.61	937.94
644.95	931.84
645.29	925.22
645.64	918.59
645.98	912.29
646.32	906.64
646.66	900.59
647.01	894.80
647.35	889.22
647.69	883.34
648.04	877.68
648.38	871.83
648.72	865.82
649.06	859.82
649.41	853.97
649.75	847.96
650.09	842.00
650.43	836.25
650.78	830.08
651.12	824.12
651.46	818.40
651.80	812.59
652.14	807.19
652.49	801.89
652.83	796.67
653.17	790.90
653.51	785.11
653.85	779.68
654.20	774.03
654.54	767.95
654.88	762.17
655.22	756.38
655.56	750.77
655.90	745.40
656.25	740.15
656.59	734.82
656.93	729.80
657.27	724.67
657.61	719.21
657.95	714.09
658.29	709.01
658.64	703.78
658.98	698.55
659.32	693.16
659.66	687.93
660.00	682.59
660.34	677.75
660.68	672.82
661.02	667.78
661.36	663.12
661.70	658.59
662.05	654.30
662.39	649.95
662.73	645.49
663.07	641.06
663.41	636.57
663.75	632.08
664.09	627.49
664.43	623.08
664.77	619.07
665.11	614.85
665.45	610.75
665.79	606.71
666.13	602.58
666.47	598.43
666.81	594.26
667.15	590.15
667.49	586.24
667.83	582.48
668.17	578.58
668.51	574.47
668.85	570.44
669.19	566.61
669.53	562.69
669.87	558.83
670.21	555.08
670.55	551.42
670.89	547.96
671.23	544.56
671.57	541.06
671.91	537.50
672.25	533.97
672.58	530.42
672.92	526.97
673.26	523.78
673.60	520.68
673.94	517.59
674.28	514.73
674.62	511.73
674.96	508.58
675.30	505.69
675.64	502.77
675.97	500.05
676.31	497.13
676.65	494.29
676.99	491.57
677.33	488.76
677.67	485.96
678.01	482.93
678.34	479.91
678.68	477.09
679.02	474.26
679.36	471.50
679.70	468.80
680.04	466.02
680.37	463.15
680.71	460.34
681.05	457.69
681.39	454.94
681.73	452.32
682.06	449.82
682.40	447.27
682.74	444.72
683.08	442.15
683.42	439.57
683.75	437.06
684.09	434.47
684.43	432.05
684.77	429.63
685.10	427.27
685.44	425.04
685.78	422.77
686.12	420.49
686.45	418.21
686.79	415.92
687.13	413.71
687.46	411.54
687.80	409.38
688.14	407.18
688.48	405.16
688.81	402.91
689.15	400.77
689.49	398.61
689.82	396.55
690.16	394.49
690.50	392.54
690.83	390.58
691.17	388.64
691.51	386.68
691.84	384.81
692.18	382.92
692.52	380.87
692.85	378.93
693.19	377.09
693.52	375.27
693.86	373.46
694.20	371.67
694.53	369.91
694.87	368.10
695.21	366.29
695.54	364.47
695.88	362.77
696.21	360.99
696.55	359.28
696.88	357.59
697.22	355.93
697.56	354.35
697.89	352.72
698.23	351.09
698.56	349.49
698.90	347.88
699.23	346.22
699.57	344.71
699.90	343.20
700.24	341.66
700.58	340.11
700.91	338.58
701.25	337.14
701.58	335.76
701.92	334.41
702.25	333.03
702.59	331.66
702.92	330.31
703.26	329.04
703.59	327.79
703.93	326.64
704.26	325.38
704.60	324.05
704.93	322.77
705.26	321.52
705.60	320.31
705.93	319.18
706.27	318.15
706.60	317.04
706.94	315.92
707.27	314.76
707.61	313.75
707.94	312.75
708.27	311.66
708.61	310.60
708.94	309.57
709.28	308.64
709.61	307.65
709.94	306.73
710.28	305.69
710.61	304.71
710.95	303.65
711.28	302.75
711.61	301.84
711.95	300.91
712.28	300.01
712.61	299.05
712.95	298.09
713.28	297.22
713.61	296.37
713.95	295.50
714.28	294.68
714.61	293.79
714.95	292.94
715.28	292.08
715.61	291.19
715.95	290.30
716.28	289.42
716.61	288.62
716.95	287.77
717.28	287.01
717.61	286.22
717.94	285.48
718.28	284.64
718.61	283.89
718.94	283.19
719.27	282.50
719.61	281.86
719.94	281.23
720.27	280.52
720.60	279.83
720.94	279.20
721.27	278.60
721.60	278.02
721.93	277.40
722.27	276.86
722.60	276.31
722.93	275.77
723.26	275.22
723.59	274.66
723.93	274.13
724.26	273.60
724.59	273.06
724.92	272.50
725.25	272.04
725.59	271.51
725.92	271.02
726.25	270.50
726.58	269.96
726.91	269.47
727.24	269.03
727.57	268.55
727.91	268.06
728.24	267.60
728.57	267.13
728.90	266.71
729.23	266.22
729.56	265.79
729.89	265.34
730.22	264.88
730.55	264.43
730.89	263.96
731.22	263.51
731.55	263.11
731.88	262.72
732.21	262.27
732.54	261.88
732.87	261.46
733.20	261.07
733.53	260.75
733.86	260.37
734.19	259.94
734.52	259.60
734.85	259.26
735.18	258.87
735.51	258.48
735.84	258.12
736.17	257.78
736.50	257.36
736.83	257.12
737.16	256.78
737.49	256.44
737.82	256.11
738.15	255.81
738.48	255.47
738.81	255.13
739.14	254.84
739.47	254.51
739.80	254.22
740.13	253.94
740.46	253.62
740.79	253.28
741.12	252.99
741.45	252.65
741.78	252.31
742.11	251.98
742.44	251.66
742.77	251.36
743.10	251.04
743.43	250.77
743.75	250.38
744.08	250.25
744.41	249.94
744.74	249.69
745.07	249.40
745.40	249.13
745.73	248.88
746.06	248.58
746.39	248.29
746.71	248.02
747.04	247.73
747.37	247.45
747.70	247.21
748.03	246.94
748.36	246.77
748.68	246.55
749.01	246.30
749.34	246.09
749.67	245.84
750.00	245.63
750.33	245.47
750.65	245.27
750.98	244.94
751.31	244.73
751.64	244.51
751.97	244.33
752.29	244.12
752.62	243.89
752.95	243.71
753.28	243.52
753.60	243.34
753.93	243.14
754.26	242.97
754.59	242.75
754.91	242.53
755.24	242.31
755.57	242.13
755.90	241.96
756.22	241.78
756.55	241.59
756.88	241.42
757.20	241.19
757.53	241.00
757.86	240.79
758.19	240.66
758.51	240.47
758.84	240.30
759.17	240.14
759.49	239.98
759.82	239.80
760.15	239.66
760.47	239.51
760.80	239.37
761.13	239.18
761.45	239.04
761.78	238.94
762.11	238.76
762.43	238.59
762.76	238.45
763.08	238.31
763.41	238.17
763.74	238.02
764.06	237.89
764.39	237.78
764.71	237.66
765.04	237.51
765.37	237.38
765.69	237.22
766.02	237.08
766.34	236.93
766.67	236.81
767.00	236.71
767.32	236.60
767.65	236.53
767.97	236.44
768.30	236.34
768.62	236.20
768.95	236.11
769.27	235.98
769.60	235.88
769.92	235.76
770.25	235.64
770.57	235.50
770.90	235.37
771.22	235.21
771.55	235.07
771.87	234.97
772.20	234.87
772.52	234.85
772.85	234.87
773.17	234.80
773.50	234.68
773.82	234.59
774.15	234.45
774.47	234.30
774.80	234.20
775.12	234.10
775.45	234.01
775.77	233.94
776.09	233.89
776.42	233.81
776.74	233.75
777.07	233.66
777.39	233.60
777.72	233.54
778.04	233.50
778.36	233.43
778.69	233.37
779.01	233.32
779.33	233.17
779.66	233.01
779.98	232.94
780.31	232.92
780.63	232.87
780.95	232.84
781.28	232.77
781.60	232.73
781.92	232.68
782.25	232.61
782.57	232.52
782.89	232.44
783.22	232.37
783.54	232.28
783.86	232.26
784.19	232.18
784.51	232.15
784.83	232.12
785.16	232.07
785.48	231.99
785.80	231.91
786.12	231.88
786.45	231.82
786.77	231.79
787.09	231.72
787.42	231.65
787.74	231.60
788.06	231.57
788.38	231.46
788.71	231.41
789.03	231.36
789.35	231.36
789.67	231.32
789.99	231.32
790.32	231.28
790.64	231.24
790.96	231.31
791.28	231.27
791.61	231.20
791.93	231.19
792.25	231.13
792.57	231.19
792.89	231.14
793.21	231.10
793.54	231.05
793.86	230.98
794.18	230.96
794.50	230.90
794.82	230.86
795.14	230.87
795.47	230.84
795.79	230.82
796.11	230.74
796.43	230.68
796.75	230.64
797.07	230.61
797.39	230.58
797.71	230.46
798.04	230.40
798.36	230.38
798.68	230.32
799.00	230.33
799.32	230.25
799.64	230.25
799.96	230.22
800.28	230.20
800.60	230.17
800.92	230.15
801.24	230.09
801.56	230.08
801.89	230.01
802.21	229.99
802.53	229.92
802.85	229.92
803.17	229.92
803.49	229.88
803.81	229.85
804.13	229.80
804.45	229.75
804.77	229.72
805.09	229.67
805.41	229.64
805.73	229.59
806.05	229.53
806.37	229.46
806.69	229.43
807.01	229.37
807.33	229.37
807.65	229.27
807.97	229.34
808.28	229.27
808.60	229.26
808.92	229.22
809.24	229.26
809.56	229.23
809.88	229.18
810.20	229.14
810.52	229.13
810.84	229.09
811.16	229.08
811.48	229.02
811.80	229.04
812.12	229.03
812.43	229.00
812.75	229.00
813.07	228.98
813.39	228.98
813.71	228.95
814.03	228.88
814.35	228.87
814.67	228.79
814.98	228.79
815.30	228.75
815.62	228.71
815.94	228.61
816.26	228.63
816.58	228.56
816.89	228.56
817.21	228.50
817.53	228.48
817.85	228.46
818.17	228.47
818.48	228.38
818.80	228.35
819.12	228.31
819.44	228.29
819.76	228.27
820.07	228.22
820.39	228.20
820.71	228.21
821.03	228.21
821.34	228.18
821.66	228.15
821.98	228.17
822.30	228.12
822.61	228.16
822.93	228.11
823.25	228.14
823.57	228.13
823.88	228.15
824.20	228.17
824.52	228.18
824.83	228.20
825.15	228.24
825.47	228.23
825.79	228.22
826.10	228.21
826.42	228.18
826.74	228.20
827.05	228.19
827.37	228.19
827.69	228.19
828.00	228.19
828.32	228.20
828.64	228.20
828.95	228.29
829.27	228.28
829.58	228.26
829.90	228.26
830.22	228.27
830.53	228.25
830.85	228.24
831.17	228.25
831.48	228.25
831.80	228.24
832.11	228.23
832.43	228.24
832.75	228.23
833.06	228.31
833.38	228.31
833.69	228.32
834.01	228.35
834.32	228.35
834.64	228.35
834.96	228.35
835.27	228.33
835.59	228.30
835.90	228.28
836.22	228.26
836.53	228.23
836.85	228.21
837.16	228.31
837.48	228.28
837.79	228.28
838.11	228.25
838.42	228.26
838.74	228.24
839.05	228.24
839.37	228.22
839.68	228.14
840.00	228.11
840.31	228.10
840.63	228.07
840.94	228.02
841.26	227.97
841.57	227.97
841.88	227.98
842.20	227.94
842.51	227.93
842.83	227.98
843.14	228.07
843.46	228.04
843.77	227.96
844.08	227.91
844.40	227.88
844.71	227.87
845.03	227.82
845.34	227.86
845.65	227.82
845.97	227.83
846.28	227.80
846.60	227.79
846.91	227.77
847.22	227.75
847.54	227.76
847.85	227.78
848.16	227.74
848.48	227.68
848.79	227.73
849.10	227.71
849.42	227.68
849.73	227.57
850.04	227.58
850.36	227.56
850.67	227.59
850.98	227.55
851.30	227.56
851.61	227.57
851.92	227.53
852.23	227.52
852.55	227.50
852.86	227.50
853.17	227.47
853.49	227.47
853.80	227.49
854.11	227.51
854.42	227.53
854.74	227.52
855.05	227.56
855.36	227.48
855.67	227.51
855.99	227.48
856.30	227.60
856.61	227.57
856.92	227.55
857.23	227.58
857.55	227.60
857.86	227.60
858.17	227.61
858.48	227.59
858.79	227.61
859.11	227.62
859.42	227.65
859.73	227.69
860.04	227.65
860.35	227.66
860.66	227.61
860.98	227.62
861.29	227.65
861.60	227.63
861.91	227.67
862.22	227.65
862.53	227.67
862.84	227.53
863.16	227.58
863.47	227.57
863.78	227.54
864.09	227.52
864.40	227.51
864.71	227.53
865.02	227.55
865.33	227.55
865.64	227.55
865.95	227.55
866.27	227.60
866.58	227.63
866.89	227.61
867.20	227.66
867.51	227.63
867.82	227.57
868.13	227.60
868.44	227.58
868.75	227.57
869.06	227.57
869.37	227.60
869.68	227.55
869.99	227.59
870.30	227.61
870.61	227.61
870.92	227.62
871.23	227.59
871.54	227.59
871.85	227.61
872.16	227.61
872.47	227.61
872.78	227.55
873.09	227.58
873.40	227.59
873.71	227.55
874.02	227.58
874.33	227.60
874.64	227.59
874.95	227.61
875.26	227.60
875.56	227.60
875.87	227.62
876.18	227.62
876.49	227.71
876.80	227.69
877.11	227.70
877.42	227.69
877.73	227.70
878.04	227.66
878.35	227.65
878.66	227.64
878.96	227.64
879.27	227.62
879.58	227.57
879.89	227.56
880.20	227.55
880.51	227.54
880.82	227.54
881.12	227.50
881.43	227.48
881.74	227.46
882.05	227.44
882.36	227.41
882.67	227.40
882.97	227.29
883.28	227.26
883.59	227.25
883.90	227.24
884.21	227.26
884.51	227.27
884.82	227.23
885.13	227.22
885.44	227.19
885.74	227.20
886.05	227.20
886.36	227.16
886.67	227.15
886.98	227.16
887.28	227.15
887.59	227.16
887.90	227.15
888.20	227.14
888.51	227.14
888.82	227.12
889.13	227.11
889.43	227.14
889.74	227.14
890.05	227.13
890.35	227.12
890.66	227.06
890.97	227.04
891.28	227.05
891.58	227.02
891.89	227.01
892.20	226.97
892.50	226.95
892.81	226.94
893.12	226.93
893.42	226.84
893.73	226.87
894.04	226.84
894.34	226.84
894.65	226.82
894.95	226.82
895.26	226.79
895.57	226.84
895.87	226.75
896.18	226.77
896.48	226.75
896.79	226.75
897.10	226.77
897.40	226.77
897.71	226.78
898.01	226.78
898.32	226.79
898.63	226.79
898.93	226.83
899.24	226.87
899.54	226.88
899.85	226.90
900.15	226.89
900.46	226.89
900.76	226.92
901.07	226.94
901.38	226.95
901.68	226.98
901.99	226.94
902.29	226.98
902.60	226.97
902.90	226.99
903.21	227.00
903.51	227.01
903.82	227.07
904.12	227.06
904.43	227.10
904.73	227.10
905.03	227.11
905.34	227.22
905.64	227.20
905.95	227.20
906.25	227.18
906.56	227.15
906.86	227.14
907.17	227.09
907.47	227.08
907.77	227.09
908.08	227.06
908.38	227.07
908.69	227.07
908.99	227.06
909.30	227.06
909.60	227.06
909.90	227.06
910.21	227.03
910.51	227.04
910.81	227.03
911.12	227.00
911.42	227.04
911.73	226.92
912.03	226.91
912.33	226.96
912.64	226.98
912.94	227.03
913.24	227.06
913.55	227.07
913.85	227.09
914.15	227.07
914.46	227.09
914.76	227.09
915.06	227.06
915.37	227.06
915.67	227.08
915.97	227.05
916.27	227.04
916.58	227.03
916.88	227.00
917.18	226.99
917.49	227.08
917.79	227.06
918.09	227.07
918.39	227.13
918.70	227.12
919.00	227.11
919.30	227.13
919.60	227.11
919.91	227.13
920.21	227.14
920.51	227.12
920.81	227.13
921.12	227.15
921.42	227.15
921.72	227.16
922.02	227.15
922.32	227.19
922.63	227.18
922.93	227.24
923.23	227.24
923.53	227.22
923.83	227.15
924.13	227.15
924.44	227.15
924.74	227.14
925.04	227.15
925.34	227.12
925.64	227.06
925.94	227.03
926.24	227.11
926.55	227.07
926.85	227.04
927.15	227.03
927.45	227.03
927.75	227.03
928.05	227.04
928.35	227.05
928.65	227.06
928.95	227.02
929.26	226.97
929.56	226.98
929.86	226.99
930.16	227.00
930.46	226.96
930.76	226.94
931.06	226.90
931.36	226.85
931.66	226.87
931.96	226.89
932.26	226.92
932.56	226.84
932.86	226.85
933.16	226.88
933.46	226.87
933.76	226.84
934.06	226.87
934.36	226.87
934.66	226.84
934.96	226.78
935.26	226.82
935.56	226.82
935.86	226.81
936.16	226.79
936.46	226.76
936.76	226.79
937.06	226.78
937.36	226.80
937.66	226.86
937.96	226.86
938.26	226.86
938.56	226.86
938.86	226.86
939.16	226.87
939.46	226.88
939.76	226.90
940.06	226.92
940.35	226.92
940.65	226.87
940.95	226.89
941.25	226.93
941.55	226.90
941.85	226.92
942.15	226.99
942.45	227.03
942.75	227.03
943.04	227.05
943.34	227.06
943.64	227.06
943.94	227.04
944.24	227.03
944.54	227.02
944.84	227.04
945.13	227.02
945.43	227.03
945.73	227.04
946.03	227.03
946.33	227.01
946.62	226.98
946.92	227.01
947.22	227.03
947.52	227.03
947.82	227.08
948.11	227.01
948.41	226.95
948.71	226.87
949.01	226.90
949.31	226.92
949.60	226.93
949.90	226.95
950.20	226.94
950.50	226.93
950.79	226.97
951.09	226.94
951.39	226.97
951.69	226.97
951.98	226.98
952.28	226.98
952.58	227.00
952.87	227.00
953.17	227.02
953.47	226.99
953.76	226.99
954.06	226.99
954.36	227.03
954.66	227.01
954.95	227.12
955.25	227.09
955.55	227.06
955.84	227.04
956.14	227.04
956.44	227.05
956.73	227.04
957.03	227.01
957.32	227.04
957.62	227.02
957.92	227.01
958.21	227.00
958.51	227.11
958.81	227.12
959.10	227.14
959.40	227.11
959.69	227.11
959.99	227.15
960.29	227.10
960.58	227.08
960.88	227.13
961.17	227.09
961.47	227.12
961.76	227.12
962.06	227.16
962.36	227.10
962.65	227.08
962.95	227.08
963.24	227.07
963.54	227.05
963.83	227.03
964.13	227.01
964.42	226.96
964.72	226.86
965.01	226.81
965.31	226.81
965.60	226.80
965.90	226.87
966.19	226.82
966.49	226.86
966.78	226.85
967.08	226.84
967.37	226.85
967.67	226.81
967.96	226.83
968.26	226.78
968.55	226.84
968.85	226.86
969.14	226.84
969.43	226.84
969.73	226.86
970.02	226.87
970.32	226.86
970.61	226.88
970.91	226.88
971.20	226.89
971.49	226.86
971.79	226.85
972.08	226.77
972.38	226.76
972.67	226.74
972.96	226.75
973.26	226.71
973.55	226.72
973.85	226.70
974.14	226.69
974.43	226.70
974.73	226.68
975.02	226.67
975.31	226.68
975.61	226.67
975.90	226.67
976.19	226.69
976.49	226.70
976.78	226.72
977.07	226.70
977.37	226.71
977.66	226.73
977.95	226.72
978.24	226.77
978.54	226.79
978.83	226.77
979.12	226.77
979.42	226.76
979.71	226.77
980.00	226.79
980.29	226.82
980.59	226.81
980.88	226.82
981.17	226.82
981.46	226.85
981.76	226.88
982.05	226.92
982.34	226.93
982.63	226.93
982.93	226.93
983.22	226.98
983.51	226.96
983.80	226.97
984.09	227.00
984.39	226.97
984.68	226.96
984.97	226.97
985.26	226.98
985.55	227.00
985.85	226.97
986.14	227.00
986.43	227.00
986.72	226.98
987.01	226.96
987.30	226.97
987.59	226.97
987.89	226.98
988.18	226.90
988.47	226.92
988.76	226.93
989.05	226.92
989.34	226.88
989.63	226.95
989.92	226.92
990.22	226.91
990.51	226.92
990.80	226.92
991.09	226.91
991.38	226.92
991.67	226.91
991.96	226.90
992.25	226.90
992.54	226.86
992.83	226.85
993.12	226.83
993.41	226.83
993.70	226.81
993.99	226.81
994.28	226.82
994.58	226.79
994.87	226.75
995.16	226.76
995.45	226.76
995.74	226.71
996.03	226.70
996.32	226.71
996.61	226.74
996.90	226.73
997.19	226.74
997.48	226.73
997.77	226.74
998.06	226.71
998.34	226.69
998.63	226.71
998.92	226.70
999.21	226.70
999.50	226.69
999.79	226.69
1000.08	226.69
1000.37	226.69
1000.66	226.68
1000.95	226.70
1001.24	226.67
1001.53	226.67
1001.82	226.65
1002.11	226.65
1002.40	226.64
1002.68	226.63
1002.97	226.68
1003.26	226.70
1003.55	226.67
1003.84	226.69
1004.13	226.75
1004.42	226.71
1004.71	226.67
1004.99	226.67
1005.28	226.72
1005.57	226.72
1005.86	226.69
1006.15	226.67
1006.44	226.65
1006.72	226.70
1007.01	226.68
1007.30	226.70
1007.59	226.69
1007.88	226.72
1008.17	226.73
1008.45	226.71
1008.74	226.68
1009.03	226.67
1009.32	226.65
1009.60	226.65
1009.89	226.64
1010.18	226.59
1010.47	226.62
1010.76	226.63
1011.04	226.64
1011.33	226.61
1011.62	226.63
1011.91	226.67
1012.19	226.69
1012.48	226.70
1012.77	226.66
1013.05	226.71
1013.34	226.69
1013.63	226.68
1013.92	226.66
1014.20	226.65
1014.49	226.66
1014.78	226.67
1015.06	226.64
1015.35	226.62
1015.64	226.65
1015.92	226.68
1016.21	226.70
1016.50	226.70
1016.78	226.72
1017.07	226.73
1017.36	226.74
1017.64	226.72
1017.93	226.73
1018.22	226.72
1018.50	226.73
1018.79	226.73
1019.08	226.71
1019.36	226.73
1019.65	226.77
1019.93	226.82
1020.22	226.86
1020.51	226.94
1020.79	226.93
1021.08	226.73
1021.36	226.70
1021.65	226.82
1021.94	226.70
1022.22	226.87
1022.51	227.22
1022.79	227.30
1023.08	227.33
1023.36	228.25
1023.65	226.74
>>>>>End Processed Spectral Data<<<<<
