SpectraSuite Data File
++++++++++++++++++++++++++++++++++++
Date: Fri Feb 01 16:00:05 EST 2013
User: group
Dark Spectrum Present: No
Reference Spectrum Present: No
Number of Sampled Component Spectra: 1
Spectrometers: USB2E7196
Integration Time (usec): 35000 (USB2E7196)
Spectra Averaged: 100 (USB2E7196)
Boxcar Smoothing: 10 (USB2E7196)
Correct for Electrical Dark: No (USB2E7196)
Strobe/Lamp Enabled: No (USB2E7196)
Correct for Detector Non-linearity: No (USB2E7196)
Correct for Stray Light: No (USB2E7196)
Number of Pixels in Processed Spectrum: 2048
>>>>>Begin Processed Spectral Data<<<<<
339.09	0.00
339.48	215.12
339.86	216.19
340.24	217.54
340.63	218.91
341.01	222.04
341.39	221.59
341.78	222.62
342.16	223.90
342.54	224.12
342.93	213.05
343.31	223.83
343.69	224.36
344.07	224.81
344.46	225.24
344.84	225.63
345.22	225.87
345.60	226.13
345.99	226.34
346.37	226.50
346.75	226.63
347.13	226.73
347.52	226.79
347.90	226.84
348.28	226.84
348.66	226.85
349.05	226.87
349.43	226.91
349.81	226.95
350.19	226.99
350.57	227.06
350.96	227.11
351.34	227.17
351.72	227.24
352.10	227.32
352.48	227.38
352.87	227.46
353.25	227.52
353.63	227.56
354.01	227.62
354.39	227.70
354.77	227.80
355.15	227.87
355.54	227.93
355.92	228.00
356.30	228.11
356.68	228.21
357.06	228.29
357.44	228.34
357.82	228.42
358.20	228.47
358.58	228.53
358.97	228.58
359.35	228.67
359.73	228.79
360.11	228.85
360.49	228.93
360.87	228.95
361.25	229.00
361.63	229.08
362.01	229.12
362.39	229.12
362.77	229.12
363.15	229.12
363.53	229.16
363.91	229.17
364.29	229.17
364.67	229.08
365.05	229.08
365.43	229.11
365.81	229.13
366.19	229.20
366.57	229.22
366.95	229.24
367.33	229.19
367.71	229.15
368.09	229.18
368.47	229.13
368.85	229.11
369.23	229.10
369.61	229.06
369.99	229.06
370.37	229.04
370.75	229.07
371.13	229.05
371.51	228.96
371.89	228.93
372.27	228.91
372.65	228.91
373.03	228.90
373.41	228.83
373.78	228.76
374.16	228.65
374.54	228.54
374.92	228.46
375.30	228.43
375.68	228.35
376.06	228.25
376.44	228.24
376.82	228.15
377.19	228.10
377.57	228.03
377.95	227.92
378.33	227.85
378.71	227.73
379.09	227.70
379.47	227.67
379.84	227.59
380.22	227.49
380.60	227.44
380.98	227.32
381.36	227.28
381.73	227.22
382.11	227.18
382.49	227.15
382.87	227.12
383.25	227.05
383.62	227.13
384.00	227.05
384.38	227.00
384.76	226.98
385.13	226.95
385.51	226.90
385.89	226.87
386.27	226.84
386.64	226.83
387.02	226.74
387.40	226.67
387.78	226.64
388.15	226.61
388.53	226.56
388.91	226.55
389.29	226.49
389.66	226.49
390.04	226.41
390.42	226.38
390.79	226.36
391.17	226.34
391.55	226.21
391.92	226.20
392.30	226.17
392.68	226.13
393.05	226.11
393.43	226.11
393.81	226.10
394.18	226.06
394.56	226.05
394.94	226.07
395.31	226.09
395.69	226.14
396.06	226.19
396.44	226.22
396.82	226.20
397.19	226.29
397.57	226.31
397.95	226.38
398.32	226.41
398.70	226.51
399.07	226.57
399.45	226.59
399.82	226.66
400.20	226.72
400.58	226.80
400.95	226.83
401.33	226.92
401.70	227.04
402.08	227.18
402.45	227.26
402.83	227.37
403.20	227.48
403.58	227.57
403.95	227.68
404.33	227.77
404.71	227.92
405.08	228.09
405.46	228.20
405.83	228.35
406.21	228.48
406.58	228.59
406.96	228.74
407.33	228.94
407.70	229.14
408.08	229.40
408.45	229.61
408.83	229.86
409.20	230.04
409.58	230.22
409.95	230.46
410.33	230.71
410.70	230.98
411.08	231.27
411.45	231.56
411.82	231.87
412.20	232.25
412.57	232.68
412.95	232.97
413.32	233.42
413.69	233.83
414.07	234.28
414.44	234.74
414.82	235.24
415.19	235.78
415.56	236.33
415.94	236.86
416.31	237.52
416.68	238.18
417.06	238.93
417.43	239.63
417.81	240.39
418.18	241.17
418.55	242.01
418.93	242.90
419.30	243.81
419.67	244.76
420.04	245.72
420.42	246.71
420.79	247.90
421.16	249.05
421.54	250.25
421.91	251.49
422.28	252.77
422.66	254.12
423.03	255.41
423.40	256.73
423.77	258.15
424.15	259.55
424.52	261.04
424.89	262.61
425.26	264.15
425.64	265.61
426.01	267.21
426.38	268.88
426.75	270.54
427.13	272.28
427.50	274.08
427.87	275.95
428.24	277.82
428.61	279.53
428.99	281.45
429.36	283.54
429.73	285.58
430.10	287.56
430.47	289.59
430.85	291.74
431.22	294.02
431.59	296.41
431.96	298.67
432.33	301.13
432.70	303.55
433.08	306.38
433.45	309.04
433.82	311.64
434.19	314.49
434.56	317.30
434.93	319.92
435.30	322.54
435.68	325.44
436.05	328.26
436.42	331.11
436.79	333.61
437.16	336.33
437.53	339.18
437.90	342.03
438.27	344.77
438.64	347.58
439.01	350.18
439.38	352.41
439.75	354.53
440.13	357.04
440.50	359.32
440.87	361.15
441.24	363.07
441.61	365.21
441.98	366.70
442.35	368.50
442.72	370.32
443.09	372.06
443.46	373.05
443.83	373.64
444.20	374.12
444.57	374.95
444.94	375.17
445.31	375.45
445.68	375.76
446.05	375.81
446.42	375.41
446.79	374.95
447.16	374.49
447.53	374.17
447.90	373.01
448.27	371.87
448.64	370.28
449.01	369.13
449.37	367.17
449.74	365.30
450.11	363.07
450.48	360.66
450.85	358.18
451.22	356.04
451.59	354.02
451.96	352.08
452.33	349.53
452.70	347.18
453.07	344.43
453.43	341.51
453.80	338.74
454.17	336.08
454.54	333.51
454.91	330.80
455.28	328.11
455.65	325.60
456.02	323.21
456.38	321.08
456.75	318.41
457.12	316.16
457.49	313.98
457.86	311.81
458.23	309.93
458.59	307.87
458.96	305.80
459.33	303.93
459.70	302.04
460.07	300.50
460.43	298.85
460.80	297.22
461.17	295.80
461.54	294.33
461.91	292.89
462.27	291.51
462.64	290.29
463.01	288.95
463.38	287.70
463.74	286.29
464.11	285.11
464.48	284.15
464.85	283.06
465.21	282.17
465.58	281.25
465.95	280.16
466.32	279.30
466.68	278.40
467.05	277.55
467.42	276.69
467.78	275.75
468.15	274.86
468.52	274.21
468.88	273.38
469.25	272.65
469.62	272.06
469.98	271.40
470.35	270.77
470.72	270.21
471.08	269.53
471.45	269.00
471.82	268.50
472.18	267.88
472.55	267.44
472.92	266.93
473.28	266.48
473.65	266.07
474.02	265.65
474.38	265.26
474.75	264.92
475.11	264.60
475.48	264.36
475.85	264.14
476.21	263.90
476.58	263.73
476.94	263.57
477.31	263.40
477.67	263.22
478.04	263.13
478.41	263.07
478.77	263.12
479.14	263.05
479.50	263.06
479.87	263.14
480.23	263.22
480.60	263.26
480.96	263.35
481.33	263.54
481.69	263.69
482.06	263.89
482.42	264.09
482.79	264.31
483.15	264.61
483.52	264.97
483.88	265.31
484.25	265.67
484.61	266.07
484.98	266.52
485.34	267.06
485.71	267.61
486.07	268.21
486.44	268.78
486.80	269.48
487.17	270.20
487.53	270.99
487.90	271.84
488.26	272.79
488.62	273.76
488.99	274.70
489.35	275.75
489.72	276.89
490.08	278.06
490.44	279.33
490.81	280.66
491.17	282.05
491.54	283.57
491.90	285.10
492.26	286.77
492.63	288.48
492.99	290.26
493.36	292.16
493.72	294.20
494.08	296.27
494.45	298.50
494.81	300.83
495.17	303.28
495.54	305.84
495.90	308.52
496.26	311.38
496.63	314.37
496.99	317.49
497.35	320.70
497.72	324.12
498.08	327.64
498.44	331.30
498.80	335.19
499.17	339.17
499.53	343.35
499.89	347.70
500.26	352.22
500.62	356.88
500.98	361.82
501.34	366.90
501.71	372.23
502.07	377.69
502.43	383.30
502.79	389.11
503.16	395.19
503.52	401.48
503.88	407.85
504.24	414.47
504.60	421.32
504.97	428.50
505.33	435.85
505.69	443.56
506.05	451.38
506.41	459.25
506.78	467.43
507.14	475.88
507.50	484.57
507.86	493.63
508.22	502.85
508.59	512.11
508.95	521.69
509.31	531.51
509.67	541.60
510.03	551.96
510.39	562.48
510.75	573.32
511.12	584.31
511.48	595.64
511.84	607.08
512.20	618.70
512.56	630.58
512.92	642.77
513.28	655.08
513.64	667.57
514.00	680.27
514.37	693.24
514.73	706.32
515.09	719.48
515.45	732.80
515.81	746.35
516.17	760.35
516.53	774.45
516.89	788.68
517.25	802.89
517.61	817.24
517.97	831.69
518.33	846.08
518.69	860.77
519.05	875.66
519.41	890.89
519.77	906.41
520.13	921.87
520.49	937.24
520.85	952.68
521.21	968.40
521.57	984.75
521.93	1000.47
522.29	1016.86
522.65	1033.00
523.01	1049.10
523.37	1065.09
523.73	1081.21
524.09	1097.38
524.45	1113.63
524.81	1130.17
525.17	1146.99
525.53	1163.93
525.89	1180.75
526.25	1197.52
526.61	1213.89
526.97	1230.58
527.33	1246.95
527.68	1263.47
528.04	1279.95
528.40	1296.39
528.76	1313.42
529.12	1329.95
529.48	1346.78
529.84	1362.74
530.20	1379.37
530.56	1396.50
530.91	1413.88
531.27	1430.63
531.63	1446.98
531.99	1463.44
532.35	1479.45
532.71	1495.35
533.07	1511.53
533.42	1527.42
533.78	1543.51
534.14	1559.94
534.50	1575.19
534.86	1591.12
535.21	1606.39
535.57	1622.24
535.93	1637.86
536.29	1652.54
536.65	1667.41
537.00	1682.15
537.36	1697.42
537.72	1711.86
538.08	1726.15
538.44	1739.88
538.79	1753.73
539.15	1767.37
539.51	1781.14
539.87	1795.35
540.22	1809.07
540.58	1822.72
540.94	1835.98
541.29	1848.74
541.65	1861.33
542.01	1874.64
542.37	1886.86
542.72	1899.24
543.08	1911.06
543.44	1923.26
543.79	1934.46
544.15	1945.56
544.51	1957.05
544.87	1968.04
545.22	1978.90
545.58	1989.01
545.94	1998.84
546.29	2008.57
546.65	2018.55
547.01	2027.80
547.36	2036.52
547.72	2044.93
548.07	2052.73
548.43	2060.98
548.79	2069.16
549.14	2076.55
549.50	2083.78
549.86	2091.38
550.21	2098.65
550.57	2105.72
550.92	2112.38
551.28	2119.23
551.64	2126.25
551.99	2132.87
552.35	2139.16
552.70	2145.34
553.06	2151.36
553.41	2157.73
553.77	2163.89
554.13	2169.89
554.48	2176.07
554.84	2181.55
555.19	2186.84
555.55	2192.18
555.90	2196.60
556.26	2201.33
556.61	2206.24
556.97	2210.53
557.32	2214.67
557.68	2218.90
558.03	2223.33
558.39	2226.99
558.74	2231.79
559.10	2235.68
559.45	2239.37
559.81	2243.46
560.16	2247.12
560.52	2250.47
560.87	2253.87
561.23	2256.42
561.58	2259.40
561.94	2261.74
562.29	2264.17
562.64	2266.80
563.00	2269.32
563.35	2272.75
563.71	2275.93
564.06	2278.99
564.42	2281.94
564.77	2284.53
565.12	2286.67
565.48	2288.42
565.83	2290.24
566.19	2291.50
566.54	2292.45
566.89	2293.59
567.25	2294.18
567.60	2295.60
567.96	2297.23
568.31	2298.08
568.66	2299.32
569.02	2299.84
569.37	2300.27
569.72	2301.08
570.08	2301.28
570.43	2301.31
570.78	2300.89
571.14	2299.34
571.49	2298.18
571.84	2297.78
572.20	2296.67
572.55	2295.71
572.90	2294.27
573.26	2293.02
573.61	2291.50
573.96	2289.70
574.31	2286.54
574.67	2283.58
575.02	2279.91
575.37	2276.45
575.72	2272.70
576.08	2269.43
576.43	2266.12
576.78	2262.41
577.13	2259.44
577.49	2256.32
577.84	2252.87
578.19	2249.20
578.54	2245.50
578.90	2241.21
579.25	2235.69
579.60	2230.65
579.95	2225.66
580.30	2220.60
580.66	2215.46
581.01	2210.38
581.36	2205.52
581.71	2201.44
582.06	2196.91
582.42	2192.57
582.77	2187.35
583.12	2182.64
583.47	2177.78
583.82	2172.74
584.17	2167.52
584.53	2161.91
584.88	2156.41
585.23	2150.68
585.58	2145.09
585.93	2139.76
586.28	2134.95
586.63	2129.80
586.98	2124.76
587.34	2119.95
587.69	2115.14
588.04	2109.77
588.39	2104.19
588.74	2097.67
589.09	2091.53
589.44	2084.76
589.79	2078.80
590.14	2073.26
590.49	2066.81
590.84	2060.51
591.19	2054.35
591.54	2047.96
591.89	2040.54
592.25	2033.62
592.60	2026.37
592.95	2018.83
593.30	2011.48
593.65	2003.85
594.00	1996.88
594.35	1989.67
594.70	1981.74
595.05	1974.40
595.40	1967.35
595.75	1959.97
596.10	1953.83
596.45	1947.19
596.80	1941.17
597.15	1934.46
597.50	1927.31
597.85	1920.96
598.19	1914.32
598.54	1907.33
598.89	1900.64
599.24	1894.67
599.59	1887.97
599.94	1881.92
600.29	1875.60
600.64	1868.96
600.99	1861.68
601.34	1854.94
601.69	1848.06
602.04	1841.31
602.39	1834.11
602.74	1827.14
603.08	1820.29
603.43	1813.53
603.78	1806.17
604.13	1798.93
604.48	1791.65
604.83	1785.01
605.18	1777.95
605.53	1769.85
605.87	1761.91
606.22	1754.72
606.57	1746.81
606.92	1739.49
607.27	1732.29
607.62	1725.33
607.96	1718.11
608.31	1711.39
608.66	1703.71
609.01	1696.11
609.36	1688.38
609.70	1680.28
610.05	1672.24
610.40	1664.45
610.75	1656.09
611.10	1648.44
611.44	1640.04
611.79	1632.02
612.14	1623.11
612.49	1614.02
612.83	1605.76
613.18	1597.69
613.53	1589.70
613.88	1581.24
614.22	1573.00
614.57	1564.26
614.92	1556.30
615.27	1548.71
615.61	1540.34
615.96	1532.29
616.31	1524.70
616.65	1517.46
617.00	1509.87
617.35	1502.23
617.70	1493.88
618.04	1485.46
618.39	1477.26
618.74	1469.67
619.08	1461.24
619.43	1453.70
619.78	1446.74
620.12	1439.51
620.47	1431.86
620.82	1423.66
621.16	1416.28
621.51	1408.69
621.85	1401.07
622.20	1392.43
622.55	1384.09
622.89	1376.23
623.24	1368.60
623.59	1361.15
623.93	1353.44
624.28	1346.27
624.62	1338.68
624.97	1331.58
625.32	1324.87
625.66	1317.83
626.01	1310.56
626.35	1303.10
626.70	1295.38
627.04	1287.60
627.39	1279.79
627.73	1272.47
628.08	1265.49
628.43	1258.08
628.77	1250.65
629.12	1243.04
629.46	1235.86
629.81	1228.47
630.15	1221.23
630.50	1213.90
630.84	1205.73
631.19	1197.91
631.53	1190.33
631.88	1182.83
632.22	1175.22
632.57	1167.78
632.91	1160.24
633.26	1152.85
633.60	1145.53
633.95	1138.37
634.29	1131.41
634.64	1124.77
634.98	1117.36
635.32	1110.14
635.67	1103.51
636.01	1096.93
636.36	1090.12
636.70	1083.59
637.05	1077.04
637.39	1070.57
637.73	1063.90
638.08	1058.07
638.42	1052.09
638.77	1045.63
639.11	1038.88
639.45	1032.47
639.80	1025.85
640.14	1019.46
640.49	1012.90
640.83	1006.69
641.17	1000.41
641.52	993.98
641.86	987.47
642.20	981.61
642.55	975.39
642.89	969.00
643.23	962.43
643.58	956.68
643.92	950.47
644.26	944.36
644.61	938.36
644.95	932.36
645.29	925.68
645.64	918.88
645.98	912.51
646.32	906.79
646.66	900.81
647.01	894.98
647.35	889.18
647.69	883.43
648.04	877.89
648.38	872.14
648.72	866.17
649.06	860.05
649.41	854.24
649.75	848.25
650.09	842.29
650.43	836.48
650.78	830.44
651.12	824.52
651.46	818.74
651.80	812.95
652.14	807.57
652.49	802.21
652.83	797.11
653.17	791.47
653.51	785.74
653.85	780.33
654.20	774.63
654.54	768.71
654.88	762.97
655.22	757.05
655.56	751.38
655.90	746.01
656.25	740.82
656.59	735.46
656.93	730.41
657.27	725.26
657.61	719.82
657.95	714.60
658.29	709.55
658.64	704.34
658.98	699.07
659.32	693.66
659.66	688.47
660.00	683.07
660.34	678.12
660.68	673.29
661.02	668.30
661.36	663.63
661.70	659.07
662.05	654.67
662.39	650.37
662.73	645.94
663.07	641.46
663.41	637.04
663.75	632.46
664.09	627.86
664.43	623.44
664.77	619.38
665.11	615.16
665.45	611.02
665.79	606.96
666.13	602.86
666.47	598.71
666.81	594.52
667.15	590.47
667.49	586.58
667.83	582.70
668.17	578.73
668.51	574.65
668.85	570.65
669.19	566.79
669.53	562.90
669.87	558.99
670.21	555.40
670.55	551.74
670.89	548.36
671.23	544.93
671.57	541.44
671.91	537.83
672.25	534.34
672.58	530.77
672.92	527.37
673.26	524.20
673.60	521.08
673.94	517.95
674.28	515.05
674.62	512.06
674.96	508.91
675.30	505.97
675.64	503.05
675.97	500.23
676.31	497.35
676.65	494.41
676.99	491.70
677.33	488.80
677.67	486.02
678.01	482.97
678.34	479.93
678.68	477.05
679.02	474.27
679.36	471.52
679.70	468.84
680.04	466.06
680.37	463.12
680.71	460.35
681.05	457.71
681.39	454.96
681.73	452.34
682.06	449.87
682.40	447.35
682.74	444.82
683.08	442.31
683.42	439.73
683.75	437.27
684.09	434.72
684.43	432.21
684.77	429.69
685.10	427.35
685.44	425.13
685.78	422.81
686.12	420.57
686.45	418.28
686.79	415.94
687.13	413.79
687.46	411.67
687.80	409.51
688.14	407.31
688.48	405.24
688.81	402.96
689.15	400.78
689.49	398.64
689.82	396.56
690.16	394.46
690.50	392.52
690.83	390.57
691.17	388.63
691.51	386.76
691.84	384.94
692.18	382.98
692.52	380.96
692.85	379.07
693.19	377.19
693.52	375.33
693.86	373.53
694.20	371.72
694.53	369.89
694.87	368.06
695.21	366.30
695.54	364.44
695.88	362.77
696.21	361.04
696.55	359.33
696.88	357.63
697.22	356.01
697.56	354.40
697.89	352.74
698.23	351.10
698.56	349.45
698.90	347.83
699.23	346.20
699.57	344.66
699.90	343.09
700.24	341.54
700.58	340.03
700.91	338.55
701.25	337.08
701.58	335.71
701.92	334.35
702.25	332.92
702.59	331.58
702.92	330.22
703.26	328.90
703.59	327.61
703.93	326.41
704.26	325.17
704.60	323.81
704.93	322.48
705.26	321.21
705.60	320.04
705.93	318.85
706.27	317.86
706.60	316.79
706.94	315.72
707.27	314.56
707.61	313.44
707.94	312.42
708.27	311.37
708.61	310.31
708.94	309.26
709.28	308.25
709.61	307.31
709.94	306.39
710.28	305.35
710.61	304.39
710.95	303.32
711.28	302.36
711.61	301.45
711.95	300.56
712.28	299.62
712.61	298.66
712.95	297.72
713.28	296.78
713.61	295.89
713.95	294.99
714.28	294.16
714.61	293.32
714.95	292.45
715.28	291.56
715.61	290.66
715.95	289.82
716.28	289.02
716.61	288.18
716.95	287.31
717.28	286.57
717.61	285.78
717.94	285.04
718.28	284.24
718.61	283.51
718.94	282.84
719.27	282.19
719.61	281.52
719.94	280.89
720.27	280.23
720.60	279.57
720.94	278.95
721.27	278.37
721.60	277.80
721.93	277.23
722.27	276.71
722.60	276.21
722.93	275.64
723.26	275.11
723.59	274.56
723.93	274.04
724.26	273.48
724.59	272.93
724.92	272.45
725.25	271.99
725.59	271.47
725.92	270.96
726.25	270.43
726.58	269.96
726.91	269.50
727.24	269.03
727.57	268.57
727.91	268.08
728.24	267.64
728.57	267.17
728.90	266.72
729.23	266.18
729.56	265.72
729.89	265.28
730.22	264.78
730.55	264.35
730.89	263.90
731.22	263.53
731.55	263.13
731.88	262.69
732.21	262.27
732.54	261.83
732.87	261.41
733.20	261.01
733.53	260.62
733.86	260.24
734.19	259.83
734.52	259.43
734.85	259.15
735.18	258.70
735.51	258.35
735.84	257.98
736.17	257.68
736.50	257.31
736.83	257.07
737.16	256.74
737.49	256.41
737.82	256.04
738.15	255.69
738.48	255.35
738.81	254.99
739.14	254.65
739.47	254.36
739.80	254.05
740.13	253.77
740.46	253.42
740.79	253.08
741.12	252.78
741.45	252.45
741.78	252.08
742.11	251.80
742.44	251.47
742.77	251.19
743.10	250.87
743.43	250.54
743.75	250.15
744.08	249.98
744.41	249.67
744.74	249.40
745.07	249.14
745.40	248.88
745.73	248.66
746.06	248.34
746.39	248.03
746.71	247.73
747.04	247.45
747.37	247.18
747.70	246.93
748.03	246.66
748.36	246.43
748.68	246.18
749.01	245.95
749.34	245.73
749.67	245.49
750.00	245.26
750.33	245.12
750.65	244.88
750.98	244.56
751.31	244.34
751.64	244.12
751.97	243.94
752.29	243.73
752.62	243.47
752.95	243.27
753.28	243.09
753.60	242.89
753.93	242.68
754.26	242.51
754.59	242.27
754.91	242.07
755.24	241.89
755.57	241.71
755.90	241.54
756.22	241.32
756.55	241.12
756.88	240.91
757.20	240.65
757.53	240.46
757.86	240.29
758.19	240.11
758.51	239.93
758.84	239.71
759.17	239.51
759.49	239.39
759.82	239.29
760.15	239.14
760.47	239.02
760.80	238.84
761.13	238.72
761.45	238.58
761.78	238.44
762.11	238.31
762.43	238.17
762.76	238.03
763.08	237.94
763.41	237.83
763.74	237.71
764.06	237.59
764.39	237.46
764.71	237.32
765.04	237.24
765.37	237.12
765.69	237.01
766.02	236.93
766.34	236.78
766.67	236.63
767.00	236.56
767.32	236.49
767.65	236.47
767.97	236.34
768.30	236.24
768.62	236.13
768.95	236.01
769.27	235.91
769.60	235.79
769.92	235.66
770.25	235.54
770.57	235.45
770.90	235.34
771.22	235.22
771.55	235.13
771.87	235.02
772.20	234.95
772.52	234.95
772.85	235.00
773.17	234.92
773.50	234.83
773.82	234.68
774.15	234.51
774.47	234.35
774.80	234.25
775.12	234.17
775.45	234.08
775.77	233.98
776.09	233.91
776.42	233.79
776.74	233.71
777.07	233.63
777.39	233.55
777.72	233.48
778.04	233.46
778.36	233.39
778.69	233.35
779.01	233.30
779.33	233.10
779.66	232.92
779.98	232.83
780.31	232.75
780.63	232.74
780.95	232.69
781.28	232.61
781.60	232.53
781.92	232.44
782.25	232.36
782.57	232.31
782.89	232.22
783.22	232.15
783.54	232.08
783.86	231.99
784.19	231.90
784.51	231.87
784.83	231.79
785.16	231.71
785.48	231.63
785.80	231.56
786.12	231.54
786.45	231.47
786.77	231.44
787.09	231.40
787.42	231.30
787.74	231.28
788.06	231.26
788.38	231.22
788.71	231.17
789.03	231.14
789.35	231.10
789.67	231.06
789.99	231.05
790.32	231.04
790.64	231.02
790.96	231.06
791.28	230.96
791.61	230.92
791.93	230.89
792.25	230.88
792.57	230.90
792.89	230.84
793.21	230.76
793.54	230.72
793.86	230.69
794.18	230.68
794.50	230.62
794.82	230.57
795.14	230.55
795.47	230.54
795.79	230.52
796.11	230.49
796.43	230.43
796.75	230.41
797.07	230.36
797.39	230.34
797.71	230.28
798.04	230.28
798.36	230.23
798.68	230.23
799.00	230.19
799.32	230.14
799.64	230.13
799.96	230.14
800.28	230.11
800.60	230.08
800.92	230.05
801.24	230.03
801.56	230.02
801.89	229.99
802.21	229.95
802.53	229.90
802.85	229.90
803.17	229.96
803.49	229.91
803.81	229.89
804.13	229.85
804.45	229.79
804.77	229.78
805.09	229.76
805.41	229.71
805.73	229.64
806.05	229.58
806.37	229.56
806.69	229.54
807.01	229.52
807.33	229.51
807.65	229.48
807.97	229.49
808.28	229.48
808.60	229.50
808.92	229.48
809.24	229.50
809.56	229.43
809.88	229.36
810.20	229.35
810.52	229.36
810.84	229.31
811.16	229.27
811.48	229.23
811.80	229.26
812.12	229.23
812.43	229.21
812.75	229.19
813.07	229.13
813.39	229.11
813.71	229.06
814.03	228.98
814.35	228.94
814.67	228.87
814.98	228.83
815.30	228.79
815.62	228.73
815.94	228.65
816.26	228.66
816.58	228.57
816.89	228.55
817.21	228.51
817.53	228.51
817.85	228.52
818.17	228.51
818.48	228.42
818.80	228.43
819.12	228.43
819.44	228.42
819.76	228.39
820.07	228.34
820.39	228.31
820.71	228.32
821.03	228.28
821.34	228.25
821.66	228.22
821.98	228.21
822.30	228.21
822.61	228.26
822.93	228.22
823.25	228.22
823.57	228.17
823.88	228.16
824.20	228.13
824.52	228.13
824.83	228.08
825.15	228.07
825.47	228.04
825.79	228.01
826.10	227.99
826.42	227.96
826.74	227.94
827.05	227.98
827.37	227.98
827.69	227.97
828.00	227.95
828.32	227.96
828.64	227.91
828.95	227.98
829.27	227.91
829.58	227.90
829.90	227.92
830.22	227.95
830.53	227.92
830.85	227.91
831.17	227.88
831.48	227.89
831.80	227.88
832.11	227.87
832.43	227.86
832.75	227.84
833.06	227.94
833.38	227.93
833.69	227.90
834.01	227.89
834.32	227.91
834.64	227.91
834.96	227.91
835.27	227.92
835.59	227.87
835.90	227.86
836.22	227.86
836.53	227.85
836.85	227.83
837.16	227.90
837.48	227.90
837.79	227.88
838.11	227.87
838.42	227.86
838.74	227.89
839.05	227.88
839.37	227.87
839.68	227.76
840.00	227.77
840.31	227.78
840.63	227.74
840.94	227.72
841.26	227.70
841.57	227.67
841.88	227.68
842.20	227.67
842.51	227.68
842.83	227.67
843.14	227.75
843.46	227.74
843.77	227.70
844.08	227.72
844.40	227.71
844.71	227.69
845.03	227.72
845.34	227.69
845.65	227.71
845.97	227.71
846.28	227.73
846.60	227.71
846.91	227.69
847.22	227.72
847.54	227.73
847.85	227.73
848.16	227.74
848.48	227.70
848.79	227.71
849.10	227.72
849.42	227.72
849.73	227.61
850.04	227.61
850.36	227.59
850.67	227.55
850.98	227.54
851.30	227.53
851.61	227.51
851.92	227.47
852.23	227.44
852.55	227.42
852.86	227.39
853.17	227.39
853.49	227.41
853.80	227.40
854.11	227.41
854.42	227.41
854.74	227.37
855.05	227.38
855.36	227.29
855.67	227.27
855.99	227.26
856.30	227.37
856.61	227.36
856.92	227.33
857.23	227.31
857.55	227.31
857.86	227.32
858.17	227.31
858.48	227.30
858.79	227.29
859.11	227.29
859.42	227.27
859.73	227.24
860.04	227.22
860.35	227.19
860.66	227.17
860.98	227.15
861.29	227.16
861.60	227.16
861.91	227.18
862.22	227.17
862.53	227.17
862.84	227.04
863.16	227.04
863.47	227.02
863.78	227.04
864.09	227.03
864.40	227.02
864.71	227.01
865.02	227.02
865.33	227.03
865.64	227.02
865.95	227.03
866.27	227.11
866.58	227.10
866.89	227.11
867.20	227.10
867.51	227.09
867.82	227.10
868.13	227.11
868.44	227.09
868.75	227.10
869.06	227.08
869.37	227.10
869.68	227.08
869.99	227.11
870.30	227.12
870.61	227.13
870.92	227.10
871.23	227.11
871.54	227.15
871.85	227.15
872.16	227.19
872.47	227.17
872.78	227.10
873.09	227.10
873.40	227.11
873.71	227.12
874.02	227.16
874.33	227.14
874.64	227.10
874.95	227.13
875.26	227.12
875.56	227.14
875.87	227.12
876.18	227.14
876.49	227.22
876.80	227.23
877.11	227.26
877.42	227.30
877.73	227.28
878.04	227.24
878.35	227.24
878.66	227.22
878.96	227.25
879.27	227.27
879.58	227.26
879.89	227.23
880.20	227.23
880.51	227.22
880.82	227.23
881.12	227.23
881.43	227.23
881.74	227.19
882.05	227.22
882.36	227.23
882.67	227.23
882.97	227.13
883.28	227.10
883.59	227.06
883.90	227.06
884.21	227.09
884.51	227.13
884.82	227.15
885.13	227.14
885.44	227.13
885.74	227.13
886.05	227.12
886.36	227.13
886.67	227.09
886.98	227.13
887.28	227.15
887.59	227.15
887.90	227.12
888.20	227.16
888.51	227.15
888.82	227.09
889.13	227.11
889.43	227.18
889.74	227.20
890.05	227.17
890.35	227.14
890.66	227.10
890.97	227.11
891.28	227.06
891.58	227.06
891.89	227.04
892.20	227.02
892.50	227.02
892.81	227.00
893.12	227.02
893.42	226.96
893.73	226.94
894.04	226.96
894.34	226.97
894.65	226.94
894.95	226.90
895.26	226.92
895.57	226.94
895.87	226.83
896.18	226.81
896.48	226.86
896.79	226.85
897.10	226.86
897.40	226.84
897.71	226.87
898.01	226.85
898.32	226.85
898.63	226.85
898.93	226.82
899.24	226.84
899.54	226.82
899.85	226.81
900.15	226.82
900.46	226.78
900.76	226.80
901.07	226.79
901.38	226.78
901.68	226.81
901.99	226.77
902.29	226.79
902.60	226.80
902.90	226.77
903.21	226.75
903.51	226.73
903.82	226.72
904.12	226.68
904.43	226.70
904.73	226.71
905.03	226.67
905.34	226.78
905.64	226.78
905.95	226.78
906.25	226.78
906.56	226.75
906.86	226.77
907.17	226.73
907.47	226.75
907.77	226.76
908.08	226.76
908.38	226.72
908.69	226.74
908.99	226.77
909.30	226.76
909.60	226.78
909.90	226.77
910.21	226.78
910.51	226.77
910.81	226.75
911.12	226.77
911.42	226.81
911.73	226.70
912.03	226.67
912.33	226.70
912.64	226.68
912.94	226.70
913.24	226.72
913.55	226.72
913.85	226.72
914.15	226.73
914.46	226.70
914.76	226.71
915.06	226.69
915.37	226.67
915.67	226.67
915.97	226.67
916.27	226.69
916.58	226.67
916.88	226.67
917.18	226.70
917.49	226.72
917.79	226.69
918.09	226.72
918.39	226.76
918.70	226.77
919.00	226.77
919.30	226.78
919.60	226.78
919.91	226.78
920.21	226.76
920.51	226.75
920.81	226.76
921.12	226.76
921.42	226.76
921.72	226.76
922.02	226.75
922.32	226.80
922.63	226.79
922.93	226.86
923.23	226.91
923.53	226.88
923.83	226.85
924.13	226.91
924.44	226.91
924.74	226.91
925.04	226.94
925.34	226.96
925.64	226.92
925.94	226.92
926.24	226.96
926.55	226.97
926.85	226.98
927.15	227.00
927.45	227.02
927.75	227.01
928.05	227.01
928.35	227.01
928.65	227.01
928.95	226.98
929.26	226.92
929.56	226.88
929.86	226.89
930.16	226.87
930.46	226.82
930.76	226.82
931.06	226.79
931.36	226.77
931.66	226.78
931.96	226.81
932.26	226.80
932.56	226.77
932.86	226.76
933.16	226.77
933.46	226.75
933.76	226.74
934.06	226.75
934.36	226.80
934.66	226.81
934.96	226.78
935.26	226.84
935.56	226.84
935.86	226.82
936.16	226.80
936.46	226.81
936.76	226.86
937.06	226.83
937.36	226.83
937.66	226.82
937.96	226.81
938.26	226.79
938.56	226.80
938.86	226.78
939.16	226.81
939.46	226.79
939.76	226.81
940.06	226.81
940.35	226.79
940.65	226.73
940.95	226.70
941.25	226.71
941.55	226.64
941.85	226.65
942.15	226.68
942.45	226.70
942.75	226.68
943.04	226.68
943.34	226.71
943.64	226.70
943.94	226.68
944.24	226.67
944.54	226.67
944.84	226.66
945.13	226.67
945.43	226.63
945.73	226.65
946.03	226.64
946.33	226.61
946.62	226.62
946.92	226.59
947.22	226.60
947.52	226.58
947.82	226.63
948.11	226.62
948.41	226.61
948.71	226.60
949.01	226.61
949.31	226.55
949.60	226.55
949.90	226.57
950.20	226.57
950.50	226.59
950.79	226.57
951.09	226.60
951.39	226.62
951.69	226.65
951.98	226.70
952.28	226.69
952.58	226.69
952.87	226.69
953.17	226.72
953.47	226.72
953.76	226.73
954.06	226.69
954.36	226.70
954.66	226.70
954.95	226.72
955.25	226.72
955.55	226.77
955.84	226.75
956.14	226.76
956.44	226.77
956.73	226.73
957.03	226.76
957.32	226.72
957.62	226.70
957.92	226.71
958.21	226.67
958.51	226.79
958.81	226.83
959.10	226.84
959.40	226.89
959.69	226.92
959.99	226.91
960.29	226.93
960.58	226.92
960.88	226.95
961.17	226.94
961.47	226.96
961.76	226.90
962.06	226.94
962.36	226.95
962.65	226.93
962.95	226.93
963.24	226.92
963.54	226.93
963.83	226.91
964.13	226.87
964.42	226.87
964.72	226.79
965.01	226.78
965.31	226.74
965.60	226.71
965.90	226.76
966.19	226.71
966.49	226.74
966.78	226.72
967.08	226.72
967.37	226.72
967.67	226.68
967.96	226.72
968.26	226.67
968.55	226.65
968.85	226.66
969.14	226.64
969.43	226.65
969.73	226.62
970.02	226.61
970.32	226.64
970.61	226.60
970.91	226.55
971.20	226.53
971.49	226.56
971.79	226.55
972.08	226.47
972.38	226.51
972.67	226.45
972.96	226.48
973.26	226.47
973.55	226.44
973.85	226.45
974.14	226.44
974.43	226.47
974.73	226.43
975.02	226.44
975.31	226.45
975.61	226.42
975.90	226.43
976.19	226.41
976.49	226.38
976.78	226.36
977.07	226.37
977.37	226.36
977.66	226.34
977.95	226.35
978.24	226.33
978.54	226.33
978.83	226.36
979.12	226.35
979.42	226.34
979.71	226.36
980.00	226.36
980.29	226.37
980.59	226.35
980.88	226.40
981.17	226.38
981.46	226.41
981.76	226.43
982.05	226.41
982.34	226.44
982.63	226.45
982.93	226.47
983.22	226.49
983.51	226.52
983.80	226.53
984.09	226.56
984.39	226.54
984.68	226.54
984.97	226.51
985.26	226.50
985.55	226.50
985.85	226.49
986.14	226.51
986.43	226.50
986.72	226.46
987.01	226.44
987.30	226.45
987.59	226.43
987.89	226.42
988.18	226.42
988.47	226.43
988.76	226.43
989.05	226.43
989.34	226.46
989.63	226.47
989.92	226.45
990.22	226.45
990.51	226.49
990.80	226.46
991.09	226.48
991.38	226.51
991.67	226.51
991.96	226.53
992.25	226.52
992.54	226.52
992.83	226.57
993.12	226.54
993.41	226.56
993.70	226.61
993.99	226.66
994.28	226.67
994.58	226.69
994.87	226.69
995.16	226.73
995.45	226.71
995.74	226.69
996.03	226.72
996.32	226.73
996.61	226.76
996.90	226.77
997.19	226.76
997.48	226.79
997.77	226.76
998.06	226.73
998.34	226.71
998.63	226.70
998.92	226.71
999.21	226.70
999.50	226.69
999.79	226.65
1000.08	226.64
1000.37	226.65
1000.66	226.62
1000.95	226.65
1001.24	226.63
1001.53	226.60
1001.82	226.57
1002.11	226.53
1002.40	226.53
1002.68	226.54
1002.97	226.59
1003.26	226.60
1003.55	226.53
1003.84	226.55
1004.13	226.57
1004.42	226.58
1004.71	226.60
1004.99	226.56
1005.28	226.61
1005.57	226.61
1005.86	226.60
1006.15	226.54
1006.44	226.51
1006.72	226.54
1007.01	226.51
1007.30	226.47
1007.59	226.47
1007.88	226.46
1008.17	226.45
1008.45	226.42
1008.74	226.37
1009.03	226.32
1009.32	226.31
1009.60	226.33
1009.89	226.31
1010.18	226.27
1010.47	226.31
1010.76	226.31
1011.04	226.30
1011.33	226.29
1011.62	226.30
1011.91	226.31
1012.19	226.34
1012.48	226.33
1012.77	226.28
1013.05	226.34
1013.34	226.37
1013.63	226.37
1013.92	226.38
1014.20	226.39
1014.49	226.40
1014.78	226.42
1015.06	226.40
1015.35	226.39
1015.64	226.41
1015.92	226.39
1016.21	226.39
1016.50	226.38
1016.78	226.38
1017.07	226.38
1017.36	226.36
1017.64	226.36
1017.93	226.39
1018.22	226.36
1018.50	226.37
1018.79	226.41
1019.08	226.38
1019.36	226.38
1019.65	226.36
1019.93	226.37
1020.22	226.37
1020.51	226.44
1020.79	226.44
1021.08	225.91
1021.36	226.27
1021.65	226.49
1021.94	226.96
1022.22	226.67
1022.51	225.81
1022.79	226.41
1023.08	226.12
1023.36	228.12
1023.65	226.43
>>>>>End Processed Spectral Data<<<<<
