SpectraSuite Data File
++++++++++++++++++++++++++++++++++++
Date: Fri Feb 01 15:14:15 EST 2013
User: group
Dark Spectrum Present: No
Reference Spectrum Present: No
Number of Sampled Component Spectra: 1
Spectrometers: USB2E7196
Integration Time (usec): 35000 (USB2E7196)
Spectra Averaged: 100 (USB2E7196)
Boxcar Smoothing: 10 (USB2E7196)
Correct for Electrical Dark: No (USB2E7196)
Strobe/Lamp Enabled: No (USB2E7196)
Correct for Detector Non-linearity: No (USB2E7196)
Correct for Stray Light: No (USB2E7196)
Number of Pixels in Processed Spectrum: 2048
>>>>>Begin Processed Spectral Data<<<<<
339.09	0.00
339.48	214.91
339.86	216.47
340.24	218.21
340.63	219.37
341.01	222.33
341.39	222.32
341.78	223.37
342.16	225.01
342.54	225.37
342.93	213.57
343.31	224.36
343.69	224.92
344.07	225.38
344.46	225.81
344.84	226.16
345.22	226.42
345.60	226.68
345.99	226.88
346.37	227.00
346.75	227.10
347.13	227.18
347.52	227.20
347.90	227.27
348.28	227.32
348.66	227.37
349.05	227.37
349.43	227.44
349.81	227.48
350.19	227.56
350.57	227.63
350.96	227.72
351.34	227.80
351.72	227.92
352.10	228.01
352.48	228.05
352.87	228.12
353.25	228.17
353.63	228.23
354.01	228.28
354.39	228.32
354.77	228.38
355.15	228.44
355.54	228.52
355.92	228.57
356.30	228.63
356.68	228.75
357.06	228.81
357.44	228.84
357.82	228.88
358.20	228.91
358.58	228.97
358.97	229.00
359.35	229.09
359.73	229.14
360.11	229.18
360.49	229.25
360.87	229.30
361.25	229.33
361.63	229.40
362.01	229.44
362.39	229.50
362.77	229.50
363.15	229.51
363.53	229.50
363.91	229.48
364.29	229.51
364.67	229.38
365.05	229.37
365.43	229.37
365.81	229.40
366.19	229.44
366.57	229.47
366.95	229.46
367.33	229.40
367.71	229.33
368.09	229.33
368.47	229.27
368.85	229.26
369.23	229.26
369.61	229.17
369.99	229.18
370.37	229.14
370.75	229.15
371.13	229.10
371.51	229.04
371.89	229.00
372.27	228.91
372.65	228.88
373.03	228.82
373.41	228.78
373.78	228.70
374.16	228.59
374.54	228.49
374.92	228.42
375.30	228.36
375.68	228.29
376.06	228.23
376.44	228.15
376.82	228.06
377.19	228.00
377.57	227.91
377.95	227.78
378.33	227.66
378.71	227.54
379.09	227.48
379.47	227.42
379.84	227.35
380.22	227.29
380.60	227.20
380.98	227.14
381.36	227.05
381.73	226.99
382.11	226.93
382.49	226.86
382.87	226.79
383.25	226.71
383.62	226.74
384.00	226.66
384.38	226.64
384.76	226.64
385.13	226.61
385.51	226.56
385.89	226.53
386.27	226.56
386.64	226.54
387.02	226.52
387.40	226.50
387.78	226.48
388.15	226.45
388.53	226.44
388.91	226.41
389.29	226.42
389.66	226.40
390.04	226.38
390.42	226.41
390.79	226.41
391.17	226.43
391.55	226.35
391.92	226.38
392.30	226.39
392.68	226.37
393.05	226.35
393.43	226.39
393.81	226.43
394.18	226.44
394.56	226.46
394.94	226.51
395.31	226.51
395.69	226.59
396.06	226.65
396.44	226.72
396.82	226.77
397.19	226.87
397.57	226.92
397.95	226.96
398.32	227.01
398.70	227.07
399.07	227.14
399.45	227.22
399.82	227.29
400.20	227.37
400.58	227.45
400.95	227.51
401.33	227.60
401.70	227.74
402.08	227.86
402.45	227.94
402.83	228.05
403.20	228.18
403.58	228.27
403.95	228.42
404.33	228.55
404.71	228.70
405.08	228.85
405.46	229.00
405.83	229.19
406.21	229.34
406.58	229.53
406.96	229.68
407.33	229.87
407.70	230.06
408.08	230.34
408.45	230.56
408.83	230.78
409.20	231.01
409.58	231.19
409.95	231.42
410.33	231.70
410.70	231.97
411.08	232.26
411.45	232.58
411.82	232.84
412.20	233.19
412.57	233.61
412.95	233.88
413.32	234.26
413.69	234.61
414.07	235.02
414.44	235.49
414.82	235.99
415.19	236.50
415.56	237.04
415.94	237.55
416.31	238.18
416.68	238.79
417.06	239.48
417.43	240.14
417.81	240.90
418.18	241.68
418.55	242.50
418.93	243.36
419.30	244.18
419.67	245.15
420.04	246.08
420.42	247.07
420.79	248.27
421.16	249.42
421.54	250.64
421.91	251.89
422.28	253.12
422.66	254.43
423.03	255.70
423.40	257.04
423.77	258.46
424.15	259.87
424.52	261.38
424.89	263.02
425.26	264.61
425.64	266.05
426.01	267.66
426.38	269.33
426.75	270.99
427.13	272.75
427.50	274.54
427.87	276.44
428.24	278.29
428.61	280.01
428.99	281.93
429.36	284.01
429.73	286.08
430.10	288.11
430.47	290.20
430.85	292.38
431.22	294.61
431.59	296.99
431.96	299.26
432.33	301.76
432.70	304.11
433.08	306.93
433.45	309.57
433.82	312.18
434.19	315.08
434.56	317.90
434.93	320.58
435.30	323.23
435.68	326.16
436.05	329.02
436.42	331.87
436.79	334.48
437.16	337.23
437.53	340.07
437.90	342.92
438.27	345.66
438.64	348.50
439.01	351.11
439.38	353.37
439.75	355.61
440.13	358.13
440.50	360.51
440.87	362.36
441.24	364.39
441.61	366.60
441.98	368.11
442.35	369.92
442.72	371.81
443.09	373.64
443.46	374.63
443.83	375.19
444.20	375.71
444.57	376.49
444.94	376.75
445.31	377.07
445.68	377.42
446.05	377.50
446.42	377.13
446.79	376.72
447.16	376.22
447.53	375.89
447.90	374.67
448.27	373.49
448.64	371.90
449.01	370.74
449.37	368.72
449.74	366.83
450.11	364.64
450.48	362.15
450.85	359.61
451.22	357.46
451.59	355.44
451.96	353.49
452.33	350.92
452.70	348.56
453.07	345.74
453.43	342.80
453.80	340.02
454.17	337.32
454.54	334.73
454.91	332.03
455.28	329.32
455.65	326.82
456.02	324.34
456.38	322.17
456.75	319.49
457.12	317.20
457.49	314.98
457.86	312.76
458.23	310.87
458.59	308.79
458.96	306.71
459.33	304.85
459.70	302.97
460.07	301.43
460.43	299.71
460.80	298.03
461.17	296.60
461.54	295.09
461.91	293.67
462.27	292.20
462.64	290.95
463.01	289.54
463.38	288.25
463.74	286.89
464.11	285.70
464.48	284.67
464.85	283.55
465.21	282.64
465.58	281.72
465.95	280.66
466.32	279.76
466.68	278.83
467.05	277.89
467.42	276.97
467.78	276.00
468.15	275.11
468.52	274.47
468.88	273.59
469.25	272.83
469.62	272.16
469.98	271.52
470.35	270.91
470.72	270.31
471.08	269.64
471.45	269.07
471.82	268.49
472.18	267.86
472.55	267.44
472.92	266.87
473.28	266.39
473.65	265.92
474.02	265.44
474.38	265.03
474.75	264.70
475.11	264.36
475.48	264.12
475.85	263.88
476.21	263.65
476.58	263.48
476.94	263.33
477.31	263.17
477.67	263.03
478.04	262.89
478.41	262.84
478.77	262.91
479.14	262.88
479.50	262.91
479.87	263.03
480.23	263.12
480.60	263.23
480.96	263.33
481.33	263.51
481.69	263.73
482.06	263.96
482.42	264.14
482.79	264.40
483.15	264.74
483.52	265.12
483.88	265.45
484.25	265.82
484.61	266.23
484.98	266.70
485.34	267.25
485.71	267.87
486.07	268.51
486.44	269.06
486.80	269.74
487.17	270.46
487.53	271.25
487.90	272.11
488.26	273.04
488.62	274.01
488.99	275.00
489.35	276.01
489.72	277.14
490.08	278.35
490.44	279.58
490.81	280.88
491.17	282.23
491.54	283.72
491.90	285.25
492.26	286.89
492.63	288.62
492.99	290.40
493.36	292.21
493.72	294.23
494.08	296.33
494.45	298.54
494.81	300.92
495.17	303.36
495.54	305.91
495.90	308.54
496.26	311.34
496.63	314.27
496.99	317.37
497.35	320.59
497.72	324.02
498.08	327.53
498.44	331.17
498.80	335.05
499.17	339.04
499.53	343.17
499.89	347.54
500.26	351.97
500.62	356.59
500.98	361.61
501.34	366.61
501.71	371.91
502.07	377.32
502.43	382.94
502.79	388.69
503.16	394.74
503.52	401.02
503.88	407.37
504.24	414.02
504.60	420.90
504.97	428.02
505.33	435.32
505.69	443.04
506.05	450.83
506.41	458.69
506.78	466.92
507.14	475.42
507.50	484.08
507.86	493.12
508.22	502.31
508.59	511.55
508.95	521.20
509.31	530.98
509.67	541.09
510.03	551.37
510.39	561.99
510.75	572.85
511.12	583.84
511.48	595.14
511.84	606.58
512.20	618.05
512.56	629.99
512.92	642.18
513.28	654.50
513.64	666.99
514.00	679.79
514.37	692.64
514.73	705.73
515.09	718.79
515.45	732.11
515.81	745.72
516.17	759.69
516.53	773.83
516.89	788.04
517.25	802.31
517.61	816.62
517.97	831.08
518.33	845.46
518.69	860.18
519.05	875.20
519.41	890.40
519.77	906.02
520.13	921.49
520.49	936.92
520.85	952.45
521.21	968.33
521.57	984.63
521.93	1000.47
522.29	1016.98
522.65	1033.40
523.01	1049.79
523.37	1065.95
523.73	1082.14
524.09	1098.25
524.45	1114.63
524.81	1131.34
525.17	1148.36
525.53	1165.28
525.89	1182.24
526.25	1199.16
526.61	1215.58
526.97	1232.34
527.33	1248.94
527.68	1265.63
528.04	1282.11
528.40	1298.71
528.76	1315.77
529.12	1332.40
529.48	1349.38
529.84	1365.42
530.20	1381.96
530.56	1399.03
530.91	1416.35
531.27	1433.17
531.63	1449.76
531.99	1466.49
532.35	1482.55
532.71	1498.60
533.07	1514.98
533.42	1530.91
533.78	1547.00
534.14	1563.46
534.50	1579.03
534.86	1594.97
535.21	1610.22
535.57	1626.26
535.93	1641.92
536.29	1656.75
536.65	1671.86
537.00	1686.64
537.36	1701.94
537.72	1716.74
538.08	1731.10
538.44	1745.04
538.79	1759.11
539.15	1772.88
539.51	1786.61
539.87	1800.98
540.22	1814.67
540.58	1828.52
540.94	1841.96
541.29	1855.12
541.65	1867.85
542.01	1881.06
542.37	1893.36
542.72	1905.92
543.08	1917.77
543.44	1930.19
543.79	1941.41
544.15	1952.44
544.51	1964.07
544.87	1975.18
545.22	1985.86
545.58	1996.19
545.94	2005.96
546.29	2015.74
546.65	2025.42
547.01	2034.64
547.36	2043.48
547.72	2051.99
548.07	2059.89
548.43	2068.12
548.79	2076.14
549.14	2083.64
549.50	2091.00
549.86	2098.80
550.21	2106.15
550.57	2113.37
550.92	2119.89
551.28	2127.09
551.64	2134.20
551.99	2140.78
552.35	2146.83
552.70	2153.06
553.06	2159.09
553.41	2165.52
553.77	2171.48
554.13	2177.61
554.48	2183.79
554.84	2189.04
555.19	2194.47
555.55	2199.59
555.90	2204.01
556.26	2208.66
556.61	2213.60
556.97	2217.77
557.32	2221.89
557.68	2226.01
558.03	2230.36
558.39	2234.24
558.74	2238.71
559.10	2242.56
559.45	2246.16
559.81	2250.64
560.16	2254.33
560.52	2257.48
560.87	2260.90
561.23	2263.57
561.58	2266.64
561.94	2269.13
562.29	2271.60
562.64	2274.14
563.00	2276.74
563.35	2280.22
563.71	2283.46
564.06	2286.42
564.42	2289.32
564.77	2291.65
565.12	2293.66
565.48	2295.37
565.83	2296.96
566.19	2298.23
566.54	2299.04
566.89	2300.19
567.25	2300.46
567.60	2301.93
567.96	2303.49
568.31	2304.19
568.66	2305.20
569.02	2305.62
569.37	2305.94
569.72	2306.55
570.08	2306.44
570.43	2306.36
570.78	2305.58
571.14	2303.87
571.49	2302.53
571.84	2302.10
572.20	2300.88
572.55	2299.92
572.90	2298.34
573.26	2296.94
573.61	2295.16
573.96	2293.23
574.31	2290.22
574.67	2287.11
575.02	2283.39
575.37	2279.97
575.72	2276.07
576.08	2272.79
576.43	2269.43
576.78	2265.60
577.13	2262.57
577.49	2259.58
577.84	2255.97
578.19	2252.30
578.54	2248.50
578.90	2244.06
579.25	2238.45
579.60	2233.42
579.95	2228.34
580.30	2223.21
580.66	2218.00
581.01	2213.20
581.36	2208.28
581.71	2203.87
582.06	2199.35
582.42	2194.67
582.77	2189.24
583.12	2184.55
583.47	2179.67
583.82	2174.50
584.17	2169.21
584.53	2163.53
584.88	2157.75
585.23	2151.83
585.58	2146.25
585.93	2140.82
586.28	2136.11
586.63	2130.86
586.98	2125.73
587.34	2120.87
587.69	2115.83
588.04	2110.43
588.39	2104.40
588.74	2097.81
589.09	2091.60
589.44	2084.72
589.79	2078.73
590.14	2073.11
590.49	2066.41
590.84	2060.03
591.19	2053.92
591.54	2047.38
591.89	2039.76
592.25	2032.87
592.60	2025.75
592.95	2018.00
593.30	2010.57
593.65	2002.88
594.00	1995.86
594.35	1988.48
594.70	1980.54
595.05	1973.24
595.40	1965.94
595.75	1958.53
596.10	1952.18
596.45	1945.34
596.80	1939.10
597.15	1932.18
597.50	1925.00
597.85	1918.65
598.19	1911.79
598.54	1904.67
598.89	1897.93
599.24	1892.06
599.59	1885.17
599.94	1878.82
600.29	1872.49
600.64	1865.90
600.99	1858.40
601.34	1851.53
601.69	1844.55
602.04	1837.42
602.39	1830.10
602.74	1823.12
603.08	1816.23
603.43	1809.54
603.78	1802.29
604.13	1794.93
604.48	1787.64
604.83	1780.76
605.18	1773.68
605.53	1765.67
605.87	1757.59
606.22	1750.34
606.57	1742.49
606.92	1735.27
607.27	1728.00
607.62	1720.93
607.96	1713.63
608.31	1706.90
608.66	1699.17
609.01	1691.65
609.36	1684.02
609.70	1675.95
610.05	1667.80
610.40	1660.11
610.75	1651.79
611.10	1644.06
611.44	1635.97
611.79	1628.11
612.14	1619.38
612.49	1610.34
612.83	1602.01
613.18	1593.91
613.53	1585.86
613.88	1577.29
614.22	1569.02
614.57	1560.51
614.92	1552.57
615.27	1544.84
615.61	1536.49
615.96	1528.46
616.31	1520.92
616.65	1513.69
617.00	1506.13
617.35	1498.63
617.70	1490.19
618.04	1481.54
618.39	1473.28
618.74	1465.58
619.08	1457.15
619.43	1449.69
619.78	1442.71
620.12	1435.50
620.47	1428.03
620.82	1419.81
621.16	1412.40
621.51	1404.84
621.85	1397.16
622.20	1388.60
622.55	1380.29
622.89	1372.60
623.24	1365.17
623.59	1357.71
623.93	1350.22
624.28	1342.94
624.62	1335.37
624.97	1328.36
625.32	1321.77
625.66	1314.81
626.01	1307.58
626.35	1300.11
626.70	1292.29
627.04	1284.45
627.39	1276.66
627.73	1269.22
628.08	1262.30
628.43	1254.96
628.77	1247.51
629.12	1239.98
629.46	1232.83
629.81	1225.61
630.15	1218.30
630.50	1210.83
630.84	1202.65
631.19	1194.73
631.53	1187.39
631.88	1179.83
632.22	1172.20
632.57	1164.94
632.91	1157.40
633.26	1150.00
633.60	1142.76
633.95	1135.68
634.29	1128.83
634.64	1122.23
634.98	1114.94
635.32	1107.89
635.67	1101.38
636.01	1094.85
636.36	1088.14
636.70	1081.69
637.05	1075.00
637.39	1068.54
637.73	1062.03
638.08	1056.18
638.42	1050.12
638.77	1043.64
639.11	1037.08
639.45	1030.72
639.80	1024.08
640.14	1017.64
640.49	1011.14
640.83	1004.89
641.17	998.68
641.52	992.31
641.86	985.94
642.20	980.01
642.55	973.68
642.89	967.06
643.23	960.54
643.58	954.73
643.92	948.54
644.26	942.45
644.61	936.51
644.95	930.52
645.29	923.84
645.64	917.12
645.98	910.79
646.32	904.98
646.66	898.97
647.01	893.03
647.35	887.42
647.69	881.64
648.04	876.08
648.38	870.24
648.72	864.20
649.06	858.18
649.41	852.42
649.75	846.43
650.09	840.53
650.43	834.70
650.78	828.56
651.12	822.63
651.46	816.85
651.80	811.08
652.14	805.65
652.49	800.33
652.83	795.19
653.17	789.53
653.51	783.75
653.85	778.34
654.20	772.72
654.54	766.71
654.88	760.95
655.22	755.05
655.56	749.43
655.90	744.04
656.25	738.73
656.59	733.33
656.93	728.30
657.27	723.18
657.61	717.76
657.95	712.66
658.29	707.55
658.64	702.42
658.98	697.13
659.32	691.71
659.66	686.51
660.00	681.08
660.34	676.19
660.68	671.37
661.02	666.34
661.36	661.66
661.70	657.15
662.05	652.87
662.39	648.57
662.73	644.19
663.07	639.80
663.41	635.41
663.75	630.93
664.09	626.33
664.43	622.03
664.77	617.92
665.11	613.65
665.45	609.60
665.79	605.61
666.13	601.48
666.47	597.43
666.81	593.30
667.15	589.27
667.49	585.32
667.83	581.49
668.17	577.61
668.51	573.61
668.85	569.60
669.19	565.67
669.53	561.86
669.87	557.96
670.21	554.22
670.55	550.54
670.89	547.15
671.23	543.80
671.57	540.30
671.91	536.76
672.25	533.32
672.58	529.77
672.92	526.32
673.26	523.20
673.60	520.05
673.94	516.94
674.28	514.13
674.62	511.19
674.96	508.12
675.30	505.16
675.64	502.24
675.97	499.51
676.31	496.68
676.65	493.73
676.99	491.09
677.33	488.29
677.67	485.50
678.01	482.41
678.34	479.42
678.68	476.56
679.02	473.76
679.36	471.00
679.70	468.32
680.04	465.54
680.37	462.60
680.71	459.79
681.05	457.22
681.39	454.48
681.73	451.88
682.06	449.39
682.40	446.85
682.74	444.33
683.08	441.79
683.42	439.19
683.75	436.68
684.09	434.10
684.43	431.66
684.77	429.18
685.10	426.88
685.44	424.59
685.78	422.28
686.12	420.02
686.45	417.73
686.79	415.40
687.13	413.26
687.46	411.13
687.80	408.98
688.14	406.76
688.48	404.74
688.81	402.46
689.15	400.26
689.49	398.17
689.82	396.12
690.16	394.00
690.50	392.10
690.83	390.23
691.17	388.20
691.51	386.29
691.84	384.51
692.18	382.56
692.52	380.58
692.85	378.72
693.19	376.86
693.52	375.08
693.86	373.31
694.20	371.54
694.53	369.75
694.87	367.95
695.21	366.19
695.54	364.31
695.88	362.66
696.21	360.95
696.55	359.26
696.88	357.57
697.22	355.99
697.56	354.37
697.89	352.68
698.23	351.11
698.56	349.44
698.90	347.83
699.23	346.16
699.57	344.64
699.90	343.04
700.24	341.52
700.58	339.98
700.91	338.53
701.25	337.07
701.58	335.73
701.92	334.37
702.25	332.97
702.59	331.63
702.92	330.28
703.26	328.98
703.59	327.66
703.93	326.46
704.26	325.17
704.60	323.81
704.93	322.53
705.26	321.28
705.60	320.20
705.93	319.05
706.27	318.03
706.60	316.96
706.94	315.89
707.27	314.71
707.61	313.65
707.94	312.54
708.27	311.48
708.61	310.37
708.94	309.36
709.28	308.39
709.61	307.43
709.94	306.45
710.28	305.41
710.61	304.46
710.95	303.41
711.28	302.54
711.61	301.65
711.95	300.73
712.28	299.77
712.61	298.79
712.95	297.84
713.28	296.97
713.61	296.11
713.95	295.24
714.28	294.44
714.61	293.58
714.95	292.79
715.28	291.92
715.61	291.06
715.95	290.23
716.28	289.37
716.61	288.57
716.95	287.78
717.28	287.05
717.61	286.31
717.94	285.56
718.28	284.73
718.61	283.99
718.94	283.31
719.27	282.68
719.61	282.00
719.94	281.37
720.27	280.66
720.60	279.93
720.94	279.31
721.27	278.73
721.60	278.18
721.93	277.60
722.27	277.08
722.60	276.52
722.93	275.94
723.26	275.41
723.59	274.86
723.93	274.34
724.26	273.80
724.59	273.25
724.92	272.74
725.25	272.25
725.59	271.75
725.92	271.28
726.25	270.77
726.58	270.30
726.91	269.79
727.24	269.33
727.57	268.90
727.91	268.39
728.24	267.93
728.57	267.42
728.90	266.96
729.23	266.48
729.56	266.08
729.89	265.64
730.22	265.15
730.55	264.68
730.89	264.22
731.22	263.81
731.55	263.39
731.88	262.98
732.21	262.57
732.54	262.14
732.87	261.71
733.20	261.32
733.53	260.93
733.86	260.58
734.19	260.17
734.52	259.76
734.85	259.47
735.18	259.05
735.51	258.70
735.84	258.34
736.17	257.99
736.50	257.57
736.83	257.33
737.16	256.98
737.49	256.64
737.82	256.30
738.15	255.95
738.48	255.62
738.81	255.28
739.14	254.93
739.47	254.67
739.80	254.36
740.13	254.04
740.46	253.72
740.79	253.37
741.12	253.06
741.45	252.78
741.78	252.43
742.11	252.15
742.44	251.80
742.77	251.50
743.10	251.19
743.43	250.87
743.75	250.48
744.08	250.35
744.41	250.09
744.74	249.82
745.07	249.53
745.40	249.30
745.73	249.05
746.06	248.77
746.39	248.48
746.71	248.21
747.04	247.95
747.37	247.70
747.70	247.48
748.03	247.25
748.36	247.02
748.68	246.78
749.01	246.55
749.34	246.34
749.67	246.11
750.00	245.86
750.33	245.73
750.65	245.51
750.98	245.17
751.31	244.93
751.64	244.72
751.97	244.57
752.29	244.30
752.62	244.06
752.95	243.85
753.28	243.62
753.60	243.38
753.93	243.23
754.26	243.04
754.59	242.81
754.91	242.57
755.24	242.34
755.57	242.13
755.90	241.91
756.22	241.71
756.55	241.55
756.88	241.35
757.20	241.10
757.53	240.89
757.86	240.69
758.19	240.58
758.51	240.39
758.84	240.14
759.17	240.00
759.49	239.83
759.82	239.75
760.15	239.60
760.47	239.46
760.80	239.26
761.13	239.14
761.45	238.98
761.78	238.83
762.11	238.70
762.43	238.56
762.76	238.45
763.08	238.30
763.41	238.11
763.74	238.00
764.06	237.85
764.39	237.72
764.71	237.59
765.04	237.41
765.37	237.28
765.69	237.20
766.02	237.08
766.34	236.94
766.67	236.78
767.00	236.69
767.32	236.64
767.65	236.60
767.97	236.46
768.30	236.36
768.62	236.28
768.95	236.18
769.27	236.09
769.60	236.00
769.92	235.91
770.25	235.80
770.57	235.69
770.90	235.61
771.22	235.56
771.55	235.44
771.87	235.38
772.20	235.33
772.52	235.29
772.85	235.35
773.17	235.28
773.50	235.18
773.82	235.05
774.15	234.91
774.47	234.78
774.80	234.65
775.12	234.58
775.45	234.50
775.77	234.41
776.09	234.33
776.42	234.25
776.74	234.24
777.07	234.19
777.39	234.14
777.72	234.07
778.04	234.04
778.36	233.99
778.69	233.90
779.01	233.83
779.33	233.69
779.66	233.47
779.98	233.42
780.31	233.39
780.63	233.36
780.95	233.32
781.28	233.24
781.60	233.21
781.92	233.15
782.25	233.09
782.57	233.01
782.89	232.96
783.22	232.89
783.54	232.81
783.86	232.76
784.19	232.69
784.51	232.68
784.83	232.57
785.16	232.53
785.48	232.48
785.80	232.39
786.12	232.35
786.45	232.32
786.77	232.23
787.09	232.17
787.42	232.12
787.74	232.06
788.06	232.02
788.38	231.95
788.71	231.89
789.03	231.84
789.35	231.83
789.67	231.73
789.99	231.69
790.32	231.60
790.64	231.56
790.96	231.57
791.28	231.47
791.61	231.44
791.93	231.40
792.25	231.37
792.57	231.38
792.89	231.31
793.21	231.27
793.54	231.23
793.86	231.15
794.18	231.11
794.50	231.02
794.82	231.00
795.14	230.97
795.47	230.94
795.79	230.89
796.11	230.86
796.43	230.83
796.75	230.79
797.07	230.78
797.39	230.72
797.71	230.65
798.04	230.57
798.36	230.54
798.68	230.48
799.00	230.47
799.32	230.38
799.64	230.38
799.96	230.35
800.28	230.36
800.60	230.34
800.92	230.29
801.24	230.30
801.56	230.25
801.89	230.20
802.21	230.19
802.53	230.17
802.85	230.16
803.17	230.18
803.49	230.16
803.81	230.13
804.13	230.10
804.45	230.06
804.77	230.09
805.09	230.06
805.41	230.04
805.73	229.98
806.05	229.95
806.37	229.91
806.69	229.91
807.01	229.86
807.33	229.83
807.65	229.79
807.97	229.80
808.28	229.78
808.60	229.76
808.92	229.72
809.24	229.77
809.56	229.69
809.88	229.66
810.20	229.60
810.52	229.59
810.84	229.58
811.16	229.54
811.48	229.49
811.80	229.48
812.12	229.47
812.43	229.45
812.75	229.45
813.07	229.41
813.39	229.38
813.71	229.34
814.03	229.32
814.35	229.27
814.67	229.23
814.98	229.19
815.30	229.16
815.62	229.12
815.94	228.99
816.26	229.01
816.58	228.95
816.89	228.95
817.21	228.90
817.53	228.85
817.85	228.83
818.17	228.83
818.48	228.77
818.80	228.77
819.12	228.74
819.44	228.71
819.76	228.68
820.07	228.68
820.39	228.65
820.71	228.68
821.03	228.66
821.34	228.63
821.66	228.63
821.98	228.62
822.30	228.58
822.61	228.66
822.93	228.61
823.25	228.59
823.57	228.54
823.88	228.57
824.20	228.58
824.52	228.59
824.83	228.54
825.15	228.55
825.47	228.52
825.79	228.53
826.10	228.50
826.42	228.51
826.74	228.48
827.05	228.48
827.37	228.44
827.69	228.44
828.00	228.41
828.32	228.40
828.64	228.39
828.95	228.43
829.27	228.38
829.58	228.36
829.90	228.37
830.22	228.40
830.53	228.36
830.85	228.33
831.17	228.29
831.48	228.30
831.80	228.27
832.11	228.26
832.43	228.21
832.75	228.21
833.06	228.23
833.38	228.19
833.69	228.18
834.01	228.17
834.32	228.17
834.64	228.17
834.96	228.19
835.27	228.18
835.59	228.15
835.90	228.15
836.22	228.13
836.53	228.12
836.85	228.08
837.16	228.17
837.48	228.17
837.79	228.18
838.11	228.17
838.42	228.16
838.74	228.16
839.05	228.17
839.37	228.16
839.68	228.12
840.00	228.13
840.31	228.12
840.63	228.13
840.94	228.12
841.26	228.09
841.57	228.03
841.88	228.03
842.20	228.05
842.51	228.00
842.83	227.99
843.14	228.06
843.46	228.07
843.77	227.99
844.08	227.97
844.40	227.93
844.71	227.90
845.03	227.90
845.34	227.87
845.65	227.85
845.97	227.83
846.28	227.84
846.60	227.83
846.91	227.82
847.22	227.76
847.54	227.75
847.85	227.78
848.16	227.77
848.48	227.79
848.79	227.82
849.10	227.84
849.42	227.84
849.73	227.72
850.04	227.74
850.36	227.70
850.67	227.72
850.98	227.72
851.30	227.75
851.61	227.71
851.92	227.70
852.23	227.73
852.55	227.73
852.86	227.71
853.17	227.71
853.49	227.71
853.80	227.75
854.11	227.76
854.42	227.78
854.74	227.75
855.05	227.70
855.36	227.62
855.67	227.63
855.99	227.65
856.30	227.77
856.61	227.74
856.92	227.76
857.23	227.74
857.55	227.74
857.86	227.74
858.17	227.79
858.48	227.79
858.79	227.75
859.11	227.75
859.42	227.76
859.73	227.72
860.04	227.72
860.35	227.69
860.66	227.65
860.98	227.63
861.29	227.66
861.60	227.66
861.91	227.71
862.22	227.67
862.53	227.65
862.84	227.55
863.16	227.56
863.47	227.51
863.78	227.52
864.09	227.52
864.40	227.50
864.71	227.51
865.02	227.50
865.33	227.51
865.64	227.51
865.95	227.48
866.27	227.57
866.58	227.59
866.89	227.59
867.20	227.61
867.51	227.61
867.82	227.61
868.13	227.63
868.44	227.61
868.75	227.63
869.06	227.62
869.37	227.64
869.68	227.62
869.99	227.66
870.30	227.69
870.61	227.71
870.92	227.71
871.23	227.70
871.54	227.71
871.85	227.73
872.16	227.74
872.47	227.73
872.78	227.64
873.09	227.64
873.40	227.65
873.71	227.66
874.02	227.64
874.33	227.63
874.64	227.65
874.95	227.63
875.26	227.63
875.56	227.61
875.87	227.60
876.18	227.61
876.49	227.74
876.80	227.72
877.11	227.71
877.42	227.70
877.73	227.70
878.04	227.69
878.35	227.70
878.66	227.69
878.96	227.68
879.27	227.70
879.58	227.70
879.89	227.67
880.20	227.69
880.51	227.69
880.82	227.66
881.12	227.63
881.43	227.62
881.74	227.59
882.05	227.59
882.36	227.58
882.67	227.56
882.97	227.41
883.28	227.39
883.59	227.40
883.90	227.41
884.21	227.44
884.51	227.43
884.82	227.39
885.13	227.42
885.44	227.43
885.74	227.43
886.05	227.43
886.36	227.46
886.67	227.42
886.98	227.47
887.28	227.49
887.59	227.49
887.90	227.50
888.20	227.49
888.51	227.51
888.82	227.51
889.13	227.51
889.43	227.58
889.74	227.56
890.05	227.49
890.35	227.46
890.66	227.42
890.97	227.40
891.28	227.39
891.58	227.37
891.89	227.34
892.20	227.30
892.50	227.30
892.81	227.25
893.12	227.24
893.42	227.18
893.73	227.19
894.04	227.20
894.34	227.19
894.65	227.19
894.95	227.15
895.26	227.16
895.57	227.22
895.87	227.11
896.18	227.13
896.48	227.13
896.79	227.13
897.10	227.15
897.40	227.19
897.71	227.22
898.01	227.20
898.32	227.23
898.63	227.21
898.93	227.21
899.24	227.22
899.54	227.21
899.85	227.20
900.15	227.16
900.46	227.17
900.76	227.18
901.07	227.20
901.38	227.19
901.68	227.22
901.99	227.13
902.29	227.14
902.60	227.12
902.90	227.15
903.21	227.13
903.51	227.11
903.82	227.11
904.12	227.08
904.43	227.09
904.73	227.08
905.03	227.11
905.34	227.18
905.64	227.18
905.95	227.19
906.25	227.19
906.56	227.20
906.86	227.20
907.17	227.20
907.47	227.16
907.77	227.17
908.08	227.13
908.38	227.15
908.69	227.21
908.99	227.26
909.30	227.25
909.60	227.26
909.90	227.29
910.21	227.28
910.51	227.28
910.81	227.27
911.12	227.29
911.42	227.29
911.73	227.21
912.03	227.22
912.33	227.24
912.64	227.24
912.94	227.24
913.24	227.23
913.55	227.22
913.85	227.23
914.15	227.22
914.46	227.25
914.76	227.23
915.06	227.20
915.37	227.16
915.67	227.16
915.97	227.16
916.27	227.11
916.58	227.12
916.88	227.13
917.18	227.13
917.49	227.20
917.79	227.19
918.09	227.21
918.39	227.20
918.70	227.19
919.00	227.22
919.30	227.24
919.60	227.24
919.91	227.26
920.21	227.28
920.51	227.31
920.81	227.30
921.12	227.34
921.42	227.35
921.72	227.36
922.02	227.37
922.32	227.38
922.63	227.38
922.93	227.43
923.23	227.39
923.53	227.39
923.83	227.30
924.13	227.30
924.44	227.32
924.74	227.34
925.04	227.35
925.34	227.34
925.64	227.33
925.94	227.31
926.24	227.35
926.55	227.32
926.85	227.31
927.15	227.28
927.45	227.25
927.75	227.21
928.05	227.19
928.35	227.17
928.65	227.21
928.95	227.22
929.26	227.17
929.56	227.22
929.86	227.23
930.16	227.21
930.46	227.21
930.76	227.21
931.06	227.17
931.36	227.14
931.66	227.13
931.96	227.14
932.26	227.15
932.56	227.12
932.86	227.14
933.16	227.13
933.46	227.17
933.76	227.16
934.06	227.23
934.36	227.28
934.66	227.26
934.96	227.21
935.26	227.21
935.56	227.24
935.86	227.19
936.16	227.19
936.46	227.19
936.76	227.19
937.06	227.14
937.36	227.14
937.66	227.16
937.96	227.17
938.26	227.13
938.56	227.13
938.86	227.10
939.16	227.10
939.46	227.07
939.76	227.05
940.06	227.04
940.35	227.01
940.65	226.96
940.95	226.99
941.25	226.98
941.55	227.01
941.85	227.00
942.15	227.02
942.45	227.01
942.75	227.02
943.04	227.03
943.34	227.07
943.64	227.08
943.94	227.07
944.24	227.06
944.54	227.08
944.84	227.08
945.13	227.06
945.43	227.04
945.73	227.07
946.03	227.06
946.33	227.07
946.62	227.08
946.92	227.08
947.22	227.08
947.52	227.10
947.82	227.07
948.11	227.07
948.41	227.06
948.71	227.03
949.01	227.03
949.31	227.02
949.60	226.97
949.90	226.94
950.20	226.93
950.50	226.93
950.79	226.93
951.09	226.96
951.39	227.00
951.69	227.01
951.98	227.03
952.28	227.04
952.58	227.01
952.87	227.00
953.17	227.00
953.47	227.00
953.76	227.01
954.06	227.01
954.36	226.99
954.66	227.06
954.95	227.11
955.25	227.11
955.55	227.15
955.84	227.16
956.14	227.20
956.44	227.24
956.73	227.24
957.03	227.26
957.32	227.22
957.62	227.21
957.92	227.24
958.21	227.23
958.51	227.34
958.81	227.37
959.10	227.37
959.40	227.42
959.69	227.44
959.99	227.40
960.29	227.37
960.58	227.35
960.88	227.29
961.17	227.25
961.47	227.25
961.76	227.23
962.06	227.25
962.36	227.23
962.65	227.23
962.95	227.23
963.24	227.19
963.54	227.22
963.83	227.18
964.13	227.16
964.42	227.13
964.72	227.03
965.01	227.03
965.31	227.02
965.60	226.97
965.90	227.02
966.19	227.04
966.49	227.06
966.78	227.06
967.08	227.06
967.37	227.09
967.67	227.09
967.96	227.10
968.26	227.09
968.55	227.10
968.85	227.06
969.14	227.07
969.43	227.08
969.73	227.05
970.02	227.09
970.32	227.08
970.61	227.08
970.91	227.07
971.20	227.06
971.49	227.04
971.79	227.06
972.08	226.98
972.38	226.98
972.67	226.98
972.96	226.99
973.26	226.99
973.55	227.00
973.85	227.00
974.14	226.95
974.43	226.95
974.73	226.94
975.02	226.97
975.31	226.96
975.61	226.93
975.90	226.92
976.19	226.88
976.49	226.87
976.78	226.88
977.07	226.87
977.37	226.89
977.66	226.90
977.95	226.86
978.24	226.88
978.54	226.91
978.83	226.90
979.12	226.88
979.42	226.85
979.71	226.82
980.00	226.82
980.29	226.86
980.59	226.83
980.88	226.84
981.17	226.84
981.46	226.82
981.76	226.85
982.05	226.90
982.34	226.91
982.63	226.92
982.93	226.94
983.22	226.99
983.51	226.98
983.80	227.01
984.09	227.03
984.39	227.04
984.68	227.05
984.97	227.06
985.26	227.08
985.55	227.09
985.85	227.08
986.14	227.11
986.43	227.11
986.72	227.13
987.01	227.09
987.30	227.06
987.59	227.08
987.89	227.09
988.18	227.04
988.47	227.04
988.76	227.04
989.05	227.03
989.34	226.99
989.63	227.01
989.92	227.01
990.22	227.02
990.51	226.98
990.80	226.97
991.09	226.98
991.38	226.98
991.67	227.00
991.96	227.02
992.25	227.03
992.54	227.02
992.83	227.05
993.12	227.06
993.41	227.11
993.70	227.15
993.99	227.16
994.28	227.21
994.58	227.22
994.87	227.23
995.16	227.22
995.45	227.22
995.74	227.23
996.03	227.25
996.32	227.26
996.61	227.29
996.90	227.28
997.19	227.29
997.48	227.31
997.77	227.28
998.06	227.28
998.34	227.23
998.63	227.25
998.92	227.23
999.21	227.23
999.50	227.25
999.79	227.23
1000.08	227.23
1000.37	227.19
1000.66	227.21
1000.95	227.22
1001.24	227.26
1001.53	227.24
1001.82	227.21
1002.11	227.19
1002.40	227.19
1002.68	227.21
1002.97	227.28
1003.26	227.23
1003.55	227.23
1003.84	227.24
1004.13	227.28
1004.42	227.29
1004.71	227.27
1004.99	227.25
1005.28	227.24
1005.57	227.21
1005.86	227.15
1006.15	227.13
1006.44	227.13
1006.72	227.11
1007.01	227.09
1007.30	227.04
1007.59	227.06
1007.88	227.04
1008.17	227.04
1008.45	227.00
1008.74	226.96
1009.03	226.91
1009.32	226.93
1009.60	226.92
1009.89	226.92
1010.18	226.88
1010.47	226.87
1010.76	226.86
1011.04	226.87
1011.33	226.91
1011.62	226.91
1011.91	226.95
1012.19	226.94
1012.48	226.94
1012.77	226.93
1013.05	226.99
1013.34	226.99
1013.63	226.98
1013.92	227.00
1014.20	226.97
1014.49	226.96
1014.78	226.99
1015.06	226.94
1015.35	226.94
1015.64	226.95
1015.92	226.96
1016.21	226.95
1016.50	226.96
1016.78	226.98
1017.07	226.99
1017.36	226.93
1017.64	226.91
1017.93	226.92
1018.22	226.89
1018.50	226.88
1018.79	226.91
1019.08	226.86
1019.36	226.86
1019.65	226.88
1019.93	226.89
1020.22	226.86
1020.51	226.92
1020.79	226.90
1021.08	226.26
1021.36	226.55
1021.65	227.42
1021.94	226.95
1022.22	226.84
1022.51	227.11
1022.79	227.19
1023.08	226.21
1023.36	227.64
1023.65	227.00
>>>>>End Processed Spectral Data<<<<<
