SpectraSuite Data File
++++++++++++++++++++++++++++++++++++
Date: Fri Feb 01 15:53:04 EST 2013
User: group
Dark Spectrum Present: No
Reference Spectrum Present: No
Number of Sampled Component Spectra: 1
Spectrometers: USB2E7196
Integration Time (usec): 35000 (USB2E7196)
Spectra Averaged: 100 (USB2E7196)
Boxcar Smoothing: 10 (USB2E7196)
Correct for Electrical Dark: No (USB2E7196)
Strobe/Lamp Enabled: No (USB2E7196)
Correct for Detector Non-linearity: No (USB2E7196)
Correct for Stray Light: No (USB2E7196)
Number of Pixels in Processed Spectrum: 2048
>>>>>Begin Processed Spectral Data<<<<<
339.09	0.00
339.48	214.74
339.86	215.97
340.24	217.54
340.63	219.58
341.01	221.61
341.39	222.09
341.78	222.75
342.16	224.18
342.54	224.57
342.93	212.96
343.31	223.74
343.69	224.27
344.07	224.74
344.46	225.16
344.84	225.52
345.22	225.76
345.60	225.99
345.99	226.18
346.37	226.30
346.75	226.39
347.13	226.45
347.52	226.52
347.90	226.61
348.28	226.66
348.66	226.74
349.05	226.70
349.43	226.75
349.81	226.79
350.19	226.85
350.57	226.90
350.96	226.99
351.34	227.03
351.72	227.14
352.10	227.22
352.48	227.30
352.87	227.32
353.25	227.39
353.63	227.46
354.01	227.52
354.39	227.61
354.77	227.67
355.15	227.79
355.54	227.84
355.92	227.88
356.30	227.93
356.68	228.06
357.06	228.16
357.44	228.19
357.82	228.27
358.20	228.32
358.58	228.39
358.97	228.45
359.35	228.55
359.73	228.62
360.11	228.69
360.49	228.75
360.87	228.83
361.25	228.87
361.63	228.95
362.01	229.00
362.39	229.03
362.77	229.09
363.15	229.11
363.53	229.14
363.91	229.16
364.29	229.20
364.67	229.12
365.05	229.11
365.43	229.18
365.81	229.18
366.19	229.22
366.57	229.30
366.95	229.28
367.33	229.26
367.71	229.22
368.09	229.24
368.47	229.22
368.85	229.18
369.23	229.21
369.61	229.13
369.99	229.13
370.37	229.09
370.75	229.11
371.13	229.04
371.51	228.96
371.89	228.93
372.27	228.90
372.65	228.86
373.03	228.82
373.41	228.74
373.78	228.66
374.16	228.54
374.54	228.45
374.92	228.38
375.30	228.30
375.68	228.24
376.06	228.15
376.44	228.08
376.82	228.01
377.19	227.92
377.57	227.86
377.95	227.75
378.33	227.68
378.71	227.53
379.09	227.49
379.47	227.46
379.84	227.39
380.22	227.30
380.60	227.22
380.98	227.14
381.36	227.06
381.73	227.02
382.11	226.95
382.49	226.88
382.87	226.82
383.25	226.78
383.62	226.81
384.00	226.74
384.38	226.67
384.76	226.66
385.13	226.64
385.51	226.57
385.89	226.56
386.27	226.50
386.64	226.49
387.02	226.42
387.40	226.40
387.78	226.34
388.15	226.33
388.53	226.30
388.91	226.27
389.29	226.25
389.66	226.23
390.04	226.25
390.42	226.23
390.79	226.21
391.17	226.20
391.55	226.06
391.92	226.04
392.30	226.08
392.68	226.04
393.05	226.03
393.43	226.07
393.81	226.06
394.18	226.06
394.56	226.08
394.94	226.14
395.31	226.15
395.69	226.24
396.06	226.28
396.44	226.34
396.82	226.39
397.19	226.51
397.57	226.54
397.95	226.60
398.32	226.64
398.70	226.70
399.07	226.78
399.45	226.91
399.82	226.98
400.20	227.01
400.58	227.11
400.95	227.19
401.33	227.27
401.70	227.43
402.08	227.54
402.45	227.61
402.83	227.72
403.20	227.84
403.58	227.92
403.95	228.00
404.33	228.12
404.71	228.25
405.08	228.40
405.46	228.57
405.83	228.71
406.21	228.84
406.58	229.01
406.96	229.13
407.33	229.27
407.70	229.48
408.08	229.76
408.45	229.96
408.83	230.17
409.20	230.36
409.58	230.53
409.95	230.79
410.33	231.09
410.70	231.34
411.08	231.62
411.45	231.91
411.82	232.24
412.20	232.59
412.57	233.00
412.95	233.28
413.32	233.65
413.69	234.05
414.07	234.52
414.44	234.99
414.82	235.50
415.19	236.11
415.56	236.65
415.94	237.19
416.31	237.81
416.68	238.40
417.06	239.13
417.43	239.84
417.81	240.61
418.18	241.39
418.55	242.24
418.93	243.10
419.30	244.02
419.67	244.94
420.04	245.88
420.42	246.87
420.79	248.03
421.16	249.19
421.54	250.35
421.91	251.54
422.28	252.79
422.66	254.13
423.03	255.37
423.40	256.67
423.77	258.07
424.15	259.49
424.52	261.00
424.89	262.62
425.26	264.16
425.64	265.59
426.01	267.18
426.38	268.84
426.75	270.50
427.13	272.23
427.50	274.05
427.87	275.96
428.24	277.79
428.61	279.55
428.99	281.49
429.36	283.63
429.73	285.69
430.10	287.72
430.47	289.75
430.85	291.92
431.22	294.19
431.59	296.59
431.96	298.86
432.33	301.39
432.70	303.77
433.08	306.61
433.45	309.29
433.82	311.90
434.19	314.76
434.56	317.64
434.93	320.29
435.30	322.90
435.68	325.74
436.05	328.62
436.42	331.45
436.79	333.96
437.16	336.66
437.53	339.50
437.90	342.31
438.27	345.06
438.64	347.91
439.01	350.51
439.38	352.74
439.75	354.91
440.13	357.33
440.50	359.66
440.87	361.46
441.24	363.37
441.61	365.51
441.98	366.99
442.35	368.74
442.72	370.60
443.09	372.44
443.46	373.45
443.83	373.96
444.20	374.46
444.57	375.32
444.94	375.60
445.31	375.98
445.68	376.32
446.05	376.44
446.42	376.00
446.79	375.60
447.16	375.18
447.53	374.84
447.90	373.71
448.27	372.55
448.64	370.96
449.01	369.81
449.37	367.82
449.74	365.93
450.11	363.70
450.48	361.23
450.85	358.66
451.22	356.52
451.59	354.55
451.96	352.62
452.33	349.98
452.70	347.60
453.07	344.71
453.43	341.80
453.80	338.95
454.17	336.29
454.54	333.71
454.91	330.94
455.28	328.25
455.65	325.71
456.02	323.25
456.38	321.13
456.75	318.52
457.12	316.25
457.49	314.06
457.86	311.87
458.23	309.99
458.59	307.92
458.96	305.81
459.33	303.91
459.70	302.00
460.07	300.48
460.43	298.76
460.80	297.13
461.17	295.70
461.54	294.21
461.91	292.76
462.27	291.29
462.64	290.03
463.01	288.68
463.38	287.44
463.74	286.09
464.11	284.88
464.48	283.81
464.85	282.74
465.21	281.87
465.58	280.96
465.95	279.85
466.32	278.95
466.68	278.11
467.05	277.26
467.42	276.41
467.78	275.45
468.15	274.61
468.52	273.96
468.88	273.14
469.25	272.42
469.62	271.79
469.98	271.16
470.35	270.57
470.72	270.01
471.08	269.34
471.45	268.79
471.82	268.28
472.18	267.69
472.55	267.23
472.92	266.70
473.28	266.26
473.65	265.85
474.02	265.44
474.38	265.05
474.75	264.71
475.11	264.39
475.48	264.17
475.85	263.93
476.21	263.71
476.58	263.52
476.94	263.35
477.31	263.20
477.67	263.05
478.04	262.93
478.41	262.87
478.77	262.94
479.14	262.85
479.50	262.91
479.87	263.01
480.23	263.11
480.60	263.20
480.96	263.28
481.33	263.49
481.69	263.70
482.06	263.88
482.42	264.12
482.79	264.35
483.15	264.68
483.52	265.08
483.88	265.44
484.25	265.83
484.61	266.30
484.98	266.73
485.34	267.30
485.71	267.89
486.07	268.46
486.44	269.02
486.80	269.77
487.17	270.48
487.53	271.28
487.90	272.15
488.26	273.09
488.62	274.07
488.99	275.05
489.35	276.09
489.72	277.22
490.08	278.43
490.44	279.70
490.81	281.07
491.17	282.41
491.54	283.88
491.90	285.39
492.26	287.02
492.63	288.75
492.99	290.55
493.36	292.50
493.72	294.58
494.08	296.70
494.45	298.96
494.81	301.34
495.17	303.77
495.54	306.33
495.90	309.02
496.26	311.85
496.63	314.77
496.99	317.85
497.35	321.14
497.72	324.48
498.08	328.00
498.44	331.62
498.80	335.56
499.17	339.61
499.53	343.83
499.89	348.21
500.26	352.71
500.62	357.39
500.98	362.30
501.34	367.37
501.71	372.67
502.07	378.06
502.43	383.68
502.79	389.53
503.16	395.61
503.52	401.90
503.88	408.27
504.24	414.94
504.60	421.87
504.97	428.97
505.33	436.30
505.69	444.02
506.05	451.77
506.41	459.66
506.78	467.78
507.14	476.23
507.50	484.92
507.86	493.97
508.22	503.10
508.59	512.33
508.95	521.95
509.31	531.82
509.67	541.98
510.03	552.24
510.39	562.82
510.75	573.56
511.12	584.46
511.48	595.68
511.84	607.02
512.20	618.52
512.56	630.47
512.92	642.64
513.28	654.96
513.64	667.47
514.00	680.20
514.37	693.15
514.73	706.20
515.09	719.30
515.45	732.64
515.81	746.23
516.17	760.27
516.53	774.31
516.89	788.48
517.25	802.64
517.61	817.13
517.97	831.60
518.33	846.09
518.69	860.89
519.05	875.95
519.41	891.19
519.77	906.76
520.13	922.30
520.49	937.67
520.85	953.05
521.21	968.80
521.57	984.98
521.93	1000.72
522.29	1017.08
522.65	1033.24
523.01	1049.45
523.37	1065.58
523.73	1081.67
524.09	1097.79
524.45	1114.09
524.81	1130.70
525.17	1147.47
525.53	1164.32
525.89	1181.18
526.25	1197.98
526.61	1214.37
526.97	1231.18
527.33	1247.62
527.68	1264.11
528.04	1280.67
528.40	1297.27
528.76	1314.35
529.12	1330.86
529.48	1347.74
529.84	1363.81
530.20	1380.49
530.56	1397.51
530.91	1414.88
531.27	1431.53
531.63	1447.95
531.99	1464.45
532.35	1480.34
532.71	1496.05
533.07	1512.32
533.42	1528.19
533.78	1544.14
534.14	1560.45
534.50	1575.72
534.86	1591.55
535.21	1606.66
535.57	1622.53
535.93	1638.00
536.29	1652.65
536.65	1667.73
537.00	1682.46
537.36	1697.70
537.72	1712.20
538.08	1726.58
538.44	1740.31
538.79	1754.33
539.15	1768.00
539.51	1781.66
539.87	1795.95
540.22	1809.85
540.58	1823.57
540.94	1836.90
541.29	1849.89
541.65	1862.55
542.01	1875.82
542.37	1888.07
542.72	1900.51
543.08	1912.28
543.44	1924.67
543.79	1935.89
544.15	1946.87
544.51	1958.40
544.87	1969.39
545.22	1980.10
545.58	1990.23
545.94	1999.91
546.29	2009.68
546.65	2019.49
547.01	2028.81
547.36	2037.55
547.72	2045.83
548.07	2053.58
548.43	2061.59
548.79	2069.53
549.14	2076.92
549.50	2084.25
549.86	2092.08
550.21	2099.29
550.57	2106.34
550.92	2112.83
551.28	2119.92
551.64	2127.05
551.99	2133.64
552.35	2139.75
552.70	2145.97
553.06	2151.94
553.41	2158.44
553.77	2164.50
554.13	2170.56
554.48	2176.61
554.84	2182.06
555.19	2187.60
555.55	2192.92
555.90	2197.41
556.26	2202.25
556.61	2207.06
556.97	2211.32
557.32	2215.40
557.68	2219.67
558.03	2224.00
558.39	2227.80
558.74	2232.46
559.10	2236.33
559.45	2239.99
559.81	2244.40
560.16	2248.15
560.52	2251.33
560.87	2254.60
561.23	2257.34
561.58	2260.30
561.94	2262.93
562.29	2265.30
562.64	2267.88
563.00	2270.28
563.35	2273.88
563.71	2277.04
564.06	2280.39
564.42	2283.19
564.77	2285.67
565.12	2287.94
565.48	2289.93
565.83	2291.62
566.19	2292.94
566.54	2293.73
566.89	2294.80
567.25	2295.22
567.60	2296.54
567.96	2298.23
568.31	2299.15
568.66	2300.21
569.02	2300.77
569.37	2301.01
569.72	2301.91
570.08	2302.00
570.43	2302.18
570.78	2301.57
571.14	2300.10
571.49	2298.70
571.84	2298.32
572.20	2297.25
572.55	2296.22
572.90	2294.65
573.26	2293.44
573.61	2291.80
573.96	2290.12
574.31	2287.25
574.67	2284.29
575.02	2280.70
575.37	2277.42
575.72	2273.68
576.08	2270.34
576.43	2267.16
576.78	2263.42
577.13	2260.24
577.49	2257.12
577.84	2253.60
578.19	2249.86
578.54	2246.11
578.90	2241.82
579.25	2236.33
579.60	2231.41
579.95	2226.37
580.30	2221.26
580.66	2216.18
581.01	2211.17
581.36	2206.22
581.71	2202.02
582.06	2197.60
582.42	2193.14
582.77	2187.83
583.12	2183.19
583.47	2178.51
583.82	2173.47
584.17	2168.35
584.53	2162.82
584.88	2157.33
585.23	2151.47
585.58	2146.00
585.93	2140.67
586.28	2136.01
586.63	2130.97
586.98	2125.74
587.34	2121.05
587.69	2116.18
588.04	2110.77
588.39	2105.02
588.74	2098.66
589.09	2092.50
589.44	2085.66
589.79	2079.71
590.14	2074.08
590.49	2067.50
590.84	2061.03
591.19	2054.99
591.54	2048.55
591.89	2041.20
592.25	2034.34
592.60	2027.25
592.95	2019.63
593.30	2012.16
593.65	2004.41
594.00	1997.30
594.35	1990.09
594.70	1982.07
595.05	1974.82
595.40	1967.57
595.75	1960.25
596.10	1954.03
596.45	1947.25
596.80	1941.09
597.15	1934.35
597.50	1927.30
597.85	1920.96
598.19	1914.24
598.54	1907.06
598.89	1900.39
599.24	1894.50
599.59	1887.70
599.94	1881.46
600.29	1875.26
600.64	1868.70
600.99	1861.35
601.34	1854.55
601.69	1847.73
602.04	1840.84
602.39	1833.61
602.74	1826.77
603.08	1819.95
603.43	1813.18
603.78	1805.79
604.13	1798.56
604.48	1791.21
604.83	1784.36
605.18	1777.21
605.53	1769.23
605.87	1761.26
606.22	1754.01
606.57	1746.05
606.92	1738.84
607.27	1731.52
607.62	1724.55
607.96	1717.19
608.31	1710.55
608.66	1702.90
609.01	1695.22
609.36	1687.59
609.70	1679.53
610.05	1671.41
610.40	1663.65
610.75	1655.30
611.10	1647.59
611.44	1639.18
611.79	1631.26
612.14	1622.60
612.49	1613.44
612.83	1605.14
613.18	1596.89
613.53	1588.84
613.88	1580.37
614.22	1571.91
614.57	1563.49
614.92	1555.36
615.27	1547.84
615.61	1539.41
615.96	1531.43
616.31	1523.82
616.65	1516.51
617.00	1508.94
617.35	1501.19
617.70	1492.85
618.04	1484.34
618.39	1476.27
618.74	1468.63
619.08	1460.38
619.43	1452.81
619.78	1445.89
620.12	1438.60
620.47	1431.22
620.82	1423.04
621.16	1415.67
621.51	1408.10
621.85	1400.42
622.20	1391.94
622.55	1383.60
622.89	1375.82
623.24	1368.19
623.59	1360.74
623.93	1353.16
624.28	1345.91
624.62	1338.47
624.97	1331.31
625.32	1324.59
625.66	1317.61
626.01	1310.46
626.35	1303.01
626.70	1295.19
627.04	1287.53
627.39	1279.80
627.73	1272.41
628.08	1265.55
628.43	1258.11
628.77	1250.81
629.12	1243.22
629.46	1236.16
629.81	1228.74
630.15	1221.49
630.50	1214.12
630.84	1205.93
631.19	1198.09
631.53	1190.67
631.88	1183.17
632.22	1175.54
632.57	1168.16
632.91	1160.67
633.26	1153.25
633.60	1145.82
633.95	1138.74
634.29	1131.62
634.64	1124.94
634.98	1117.44
635.32	1110.25
635.67	1103.69
636.01	1097.03
636.36	1090.25
636.70	1083.66
637.05	1077.18
637.39	1070.69
637.73	1064.07
638.08	1058.20
638.42	1052.13
638.77	1045.54
639.11	1038.92
639.45	1032.45
639.80	1025.83
640.14	1019.28
640.49	1012.79
640.83	1006.54
641.17	1000.31
641.52	994.03
641.86	987.46
642.20	981.65
642.55	975.40
642.89	968.87
643.23	962.37
643.58	956.59
643.92	950.41
644.26	944.26
644.61	938.22
644.95	932.24
645.29	925.58
645.64	918.89
645.98	912.69
646.32	906.87
646.66	900.86
647.01	895.01
647.35	889.26
647.69	883.41
648.04	877.84
648.38	871.96
648.72	865.91
649.06	859.91
649.41	853.98
649.75	847.93
650.09	842.07
650.43	836.26
650.78	830.03
651.12	824.05
651.46	818.32
651.80	812.56
652.14	807.13
652.49	801.79
652.83	796.61
653.17	790.81
653.51	785.07
653.85	779.78
654.20	774.14
654.54	768.17
654.88	762.41
655.22	756.51
655.56	750.83
655.90	745.43
656.25	740.24
656.59	734.94
656.93	729.84
657.27	724.59
657.61	719.12
657.95	714.17
658.29	709.07
658.64	703.89
658.98	698.61
659.32	693.23
659.66	688.07
660.00	682.74
660.34	677.81
660.68	672.89
661.02	667.73
661.36	662.99
661.70	658.50
662.05	654.09
662.39	649.81
662.73	645.44
663.07	641.01
663.41	636.55
663.75	632.04
664.09	627.52
664.43	623.15
664.77	619.07
665.11	614.75
665.45	610.62
665.79	606.52
666.13	602.45
666.47	598.32
666.81	594.11
667.15	589.99
667.49	586.10
667.83	582.36
668.17	578.50
668.51	574.40
668.85	570.36
669.19	566.53
669.53	562.60
669.87	558.66
670.21	555.01
670.55	551.40
670.89	548.00
671.23	544.53
671.57	541.06
671.91	537.51
672.25	534.06
672.58	530.55
672.92	527.14
673.26	523.92
673.60	520.80
673.94	517.70
674.28	514.83
674.62	511.90
674.96	508.73
675.30	505.83
675.64	502.94
675.97	500.23
676.31	497.42
676.65	494.51
676.99	491.84
677.33	488.97
677.67	486.17
678.01	483.11
678.34	480.15
678.68	477.24
679.02	474.43
679.36	471.61
679.70	468.86
680.04	466.12
680.37	463.27
680.71	460.49
681.05	457.91
681.39	455.13
681.73	452.48
682.06	450.00
682.40	447.43
682.74	444.91
683.08	442.38
683.42	439.78
683.75	437.32
684.09	434.79
684.43	432.34
684.77	429.87
685.10	427.50
685.44	425.28
685.78	423.03
686.12	420.80
686.45	418.55
686.79	416.25
687.13	414.05
687.46	411.90
687.80	409.77
688.14	407.53
688.48	405.48
688.81	403.20
689.15	401.01
689.49	398.87
689.82	396.82
690.16	394.70
690.50	392.74
690.83	390.73
691.17	388.74
691.51	386.86
691.84	385.01
692.18	383.10
692.52	381.05
692.85	379.07
693.19	377.16
693.52	375.32
693.86	373.54
694.20	371.74
694.53	369.89
694.87	368.05
695.21	366.27
695.54	364.45
695.88	362.74
696.21	361.04
696.55	359.37
696.88	357.65
697.22	355.99
697.56	354.35
697.89	352.73
698.23	351.16
698.56	349.55
698.90	347.99
699.23	346.37
699.57	344.82
699.90	343.30
700.24	341.75
700.58	340.24
700.91	338.69
701.25	337.28
701.58	335.93
701.92	334.54
702.25	333.13
702.59	331.78
702.92	330.50
703.26	329.17
703.59	327.86
703.93	326.71
704.26	325.46
704.60	324.19
704.93	322.93
705.26	321.64
705.60	320.43
705.93	319.25
706.27	318.23
706.60	317.16
706.94	316.09
707.27	315.01
707.61	313.93
707.94	312.90
708.27	311.77
708.61	310.67
708.94	309.65
709.28	308.67
709.61	307.71
709.94	306.73
710.28	305.72
710.61	304.75
710.95	303.62
711.28	302.71
711.61	301.75
711.95	300.83
712.28	299.87
712.61	298.86
712.95	297.94
713.28	297.03
713.61	296.14
713.95	295.25
714.28	294.40
714.61	293.56
714.95	292.76
715.28	291.95
715.61	291.08
715.95	290.23
716.28	289.40
716.61	288.56
716.95	287.74
717.28	287.01
717.61	286.27
717.94	285.58
718.28	284.80
718.61	284.09
718.94	283.38
719.27	282.75
719.61	282.13
719.94	281.45
720.27	280.74
720.60	280.11
720.94	279.46
721.27	278.86
721.60	278.28
721.93	277.68
722.27	277.12
722.60	276.59
722.93	276.01
723.26	275.45
723.59	274.90
723.93	274.34
724.26	273.79
724.59	273.22
724.92	272.69
725.25	272.20
725.59	271.67
725.92	271.23
726.25	270.70
726.58	270.22
726.91	269.71
727.24	269.25
727.57	268.75
727.91	268.29
728.24	267.82
728.57	267.31
728.90	266.87
729.23	266.35
729.56	265.95
729.89	265.50
730.22	265.03
730.55	264.53
730.89	264.11
731.22	263.66
731.55	263.22
731.88	262.79
732.21	262.34
732.54	261.91
732.87	261.44
733.20	261.06
733.53	260.70
733.86	260.33
734.19	259.93
734.52	259.59
734.85	259.26
735.18	258.80
735.51	258.43
735.84	258.06
736.17	257.74
736.50	257.31
736.83	257.06
737.16	256.72
737.49	256.41
737.82	256.02
738.15	255.70
738.48	255.37
738.81	255.05
739.14	254.70
739.47	254.39
739.80	254.10
740.13	253.79
740.46	253.42
740.79	253.09
741.12	252.78
741.45	252.44
741.78	252.07
742.11	251.79
742.44	251.52
742.77	251.19
743.10	250.86
743.43	250.55
743.75	250.14
744.08	249.99
744.41	249.73
744.74	249.48
745.07	249.15
745.40	248.87
745.73	248.63
746.06	248.35
746.39	248.09
746.71	247.78
747.04	247.45
747.37	247.19
747.70	246.96
748.03	246.72
748.36	246.47
748.68	246.23
749.01	245.99
749.34	245.73
749.67	245.49
750.00	245.30
750.33	245.16
750.65	244.99
750.98	244.64
751.31	244.39
751.64	244.17
751.97	244.06
752.29	243.84
752.62	243.60
752.95	243.39
753.28	243.16
753.60	242.98
753.93	242.86
754.26	242.65
754.59	242.44
754.91	242.21
755.24	242.00
755.57	241.80
755.90	241.62
756.22	241.40
756.55	241.23
756.88	241.00
757.20	240.75
757.53	240.51
757.86	240.35
758.19	240.23
758.51	240.03
758.84	239.74
759.17	239.61
759.49	239.47
759.82	239.39
760.15	239.25
760.47	239.13
760.80	238.92
761.13	238.80
761.45	238.61
761.78	238.49
762.11	238.37
762.43	238.23
762.76	238.06
763.08	237.98
763.41	237.86
763.74	237.75
764.06	237.60
764.39	237.48
764.71	237.32
765.04	237.15
765.37	237.03
765.69	236.94
766.02	236.79
766.34	236.63
766.67	236.45
767.00	236.34
767.32	236.23
767.65	236.22
767.97	236.09
768.30	235.97
768.62	235.86
768.95	235.74
769.27	235.62
769.60	235.57
769.92	235.42
770.25	235.29
770.57	235.20
770.90	235.11
771.22	235.02
771.55	234.95
771.87	234.89
772.20	234.82
772.52	234.85
772.85	234.88
773.17	234.81
773.50	234.70
773.82	234.60
774.15	234.46
774.47	234.27
774.80	234.18
775.12	234.13
775.45	234.04
775.77	233.97
776.09	233.91
776.42	233.78
776.74	233.72
777.07	233.62
777.39	233.55
777.72	233.47
778.04	233.40
778.36	233.34
778.69	233.27
779.01	233.18
779.33	233.01
779.66	232.83
779.98	232.75
780.31	232.72
780.63	232.69
780.95	232.64
781.28	232.58
781.60	232.54
781.92	232.43
782.25	232.34
782.57	232.25
782.89	232.20
783.22	232.15
783.54	232.08
783.86	232.04
784.19	231.97
784.51	231.95
784.83	231.86
785.16	231.79
785.48	231.72
785.80	231.67
786.12	231.62
786.45	231.58
786.77	231.54
787.09	231.46
787.42	231.36
787.74	231.30
788.06	231.30
788.38	231.20
788.71	231.17
789.03	231.16
789.35	231.15
789.67	231.10
789.99	231.12
790.32	231.05
790.64	230.99
790.96	231.04
791.28	230.96
791.61	230.90
791.93	230.86
792.25	230.80
792.57	230.84
792.89	230.76
793.21	230.71
793.54	230.64
793.86	230.61
794.18	230.57
794.50	230.51
794.82	230.48
795.14	230.47
795.47	230.45
795.79	230.39
796.11	230.33
796.43	230.25
796.75	230.17
797.07	230.14
797.39	230.11
797.71	230.01
798.04	229.98
798.36	229.96
798.68	229.90
799.00	229.88
799.32	229.80
799.64	229.79
799.96	229.77
800.28	229.76
800.60	229.71
800.92	229.71
801.24	229.69
801.56	229.63
801.89	229.60
802.21	229.57
802.53	229.52
802.85	229.48
803.17	229.55
803.49	229.52
803.81	229.49
804.13	229.47
804.45	229.43
804.77	229.40
805.09	229.36
805.41	229.32
805.73	229.28
806.05	229.21
806.37	229.22
806.69	229.17
807.01	229.11
807.33	229.10
807.65	229.04
807.97	229.03
808.28	229.00
808.60	228.96
808.92	228.92
809.24	228.95
809.56	228.92
809.88	228.82
810.20	228.82
810.52	228.82
810.84	228.78
811.16	228.73
811.48	228.70
811.80	228.73
812.12	228.73
812.43	228.70
812.75	228.70
813.07	228.66
813.39	228.67
813.71	228.67
814.03	228.63
814.35	228.62
814.67	228.58
814.98	228.57
815.30	228.59
815.62	228.56
815.94	228.49
816.26	228.53
816.58	228.53
816.89	228.50
817.21	228.45
817.53	228.46
817.85	228.45
818.17	228.41
818.48	228.38
818.80	228.38
819.12	228.39
819.44	228.38
819.76	228.34
820.07	228.35
820.39	228.34
820.71	228.37
821.03	228.36
821.34	228.33
821.66	228.34
821.98	228.28
822.30	228.29
822.61	228.34
822.93	228.30
823.25	228.29
823.57	228.27
823.88	228.31
824.20	228.31
824.52	228.34
824.83	228.34
825.15	228.30
825.47	228.29
825.79	228.29
826.10	228.26
826.42	228.26
826.74	228.24
827.05	228.24
827.37	228.26
827.69	228.23
828.00	228.22
828.32	228.19
828.64	228.21
828.95	228.23
829.27	228.17
829.58	228.17
829.90	228.19
830.22	228.20
830.53	228.14
830.85	228.09
831.17	228.03
831.48	228.03
831.80	228.04
832.11	228.03
832.43	228.02
832.75	228.00
833.06	228.02
833.38	227.97
833.69	227.94
834.01	227.91
834.32	227.91
834.64	227.92
834.96	227.89
835.27	227.85
835.59	227.84
835.90	227.81
836.22	227.76
836.53	227.68
836.85	227.65
837.16	227.74
837.48	227.77
837.79	227.82
838.11	227.81
838.42	227.80
838.74	227.78
839.05	227.75
839.37	227.74
839.68	227.70
840.00	227.66
840.31	227.63
840.63	227.62
840.94	227.62
841.26	227.59
841.57	227.59
841.88	227.57
842.20	227.52
842.51	227.51
842.83	227.51
843.14	227.60
843.46	227.58
843.77	227.54
844.08	227.50
844.40	227.46
844.71	227.43
845.03	227.44
845.34	227.42
845.65	227.44
845.97	227.44
846.28	227.44
846.60	227.49
846.91	227.50
847.22	227.45
847.54	227.45
847.85	227.49
848.16	227.51
848.48	227.50
848.79	227.54
849.10	227.56
849.42	227.56
849.73	227.48
850.04	227.48
850.36	227.43
850.67	227.44
850.98	227.42
851.30	227.43
851.61	227.43
851.92	227.42
852.23	227.43
852.55	227.42
852.86	227.40
853.17	227.37
853.49	227.40
853.80	227.43
854.11	227.42
854.42	227.41
854.74	227.38
855.05	227.40
855.36	227.38
855.67	227.37
855.99	227.39
856.30	227.49
856.61	227.51
856.92	227.50
857.23	227.47
857.55	227.46
857.86	227.48
858.17	227.46
858.48	227.45
858.79	227.42
859.11	227.42
859.42	227.47
859.73	227.49
860.04	227.48
860.35	227.48
860.66	227.44
860.98	227.43
861.29	227.42
861.60	227.40
861.91	227.40
862.22	227.39
862.53	227.39
862.84	227.30
863.16	227.33
863.47	227.33
863.78	227.35
864.09	227.36
864.40	227.33
864.71	227.35
865.02	227.36
865.33	227.35
865.64	227.34
865.95	227.29
866.27	227.34
866.58	227.32
866.89	227.33
867.20	227.32
867.51	227.30
867.82	227.32
868.13	227.37
868.44	227.35
868.75	227.35
869.06	227.34
869.37	227.35
869.68	227.30
869.99	227.33
870.30	227.34
870.61	227.35
870.92	227.37
871.23	227.36
871.54	227.38
871.85	227.44
872.16	227.46
872.47	227.48
872.78	227.46
873.09	227.47
873.40	227.45
873.71	227.48
874.02	227.50
874.33	227.45
874.64	227.42
874.95	227.44
875.26	227.44
875.56	227.41
875.87	227.40
876.18	227.43
876.49	227.50
876.80	227.50
877.11	227.46
877.42	227.44
877.73	227.44
878.04	227.43
878.35	227.41
878.66	227.40
878.96	227.39
879.27	227.35
879.58	227.33
879.89	227.32
880.20	227.36
880.51	227.35
880.82	227.37
881.12	227.38
881.43	227.34
881.74	227.32
882.05	227.35
882.36	227.35
882.67	227.36
882.97	227.25
883.28	227.25
883.59	227.25
883.90	227.26
884.21	227.27
884.51	227.25
884.82	227.22
885.13	227.18
885.44	227.19
885.74	227.18
886.05	227.18
886.36	227.18
886.67	227.13
886.98	227.17
887.28	227.16
887.59	227.16
887.90	227.16
888.20	227.13
888.51	227.14
888.82	227.13
889.13	227.10
889.43	227.18
889.74	227.14
890.05	227.12
890.35	227.12
890.66	227.10
890.97	227.08
891.28	227.06
891.58	227.10
891.89	227.08
892.20	227.08
892.50	227.07
892.81	227.05
893.12	227.04
893.42	227.01
893.73	227.02
894.04	227.00
894.34	227.02
894.65	227.03
894.95	227.04
895.26	227.00
895.57	227.03
895.87	226.93
896.18	226.96
896.48	226.97
896.79	226.93
897.10	226.92
897.40	226.92
897.71	226.96
898.01	226.93
898.32	226.93
898.63	226.92
898.93	226.90
899.24	226.89
899.54	226.90
899.85	226.82
900.15	226.83
900.46	226.86
900.76	226.86
901.07	226.84
901.38	226.81
901.68	226.83
901.99	226.78
902.29	226.77
902.60	226.76
902.90	226.74
903.21	226.73
903.51	226.74
903.82	226.77
904.12	226.73
904.43	226.76
904.73	226.75
905.03	226.76
905.34	226.88
905.64	226.89
905.95	226.89
906.25	226.95
906.56	226.95
906.86	226.92
907.17	226.89
907.47	226.90
907.77	226.89
908.08	226.88
908.38	226.91
908.69	226.93
908.99	226.91
909.30	226.93
909.60	226.94
909.90	226.91
910.21	226.86
910.51	226.84
910.81	226.83
911.12	226.83
911.42	226.84
911.73	226.74
912.03	226.73
912.33	226.73
912.64	226.71
912.94	226.70
913.24	226.67
913.55	226.68
913.85	226.70
914.15	226.72
914.46	226.74
914.76	226.73
915.06	226.74
915.37	226.74
915.67	226.73
915.97	226.76
916.27	226.79
916.58	226.80
916.88	226.82
917.18	226.81
917.49	226.89
917.79	226.86
918.09	226.87
918.39	226.92
918.70	226.91
919.00	226.92
919.30	226.96
919.60	226.95
919.91	226.96
920.21	226.98
920.51	226.96
920.81	226.95
921.12	226.96
921.42	226.94
921.72	226.95
922.02	226.98
922.32	226.97
922.63	226.97
922.93	227.03
923.23	227.00
923.53	227.02
923.83	226.94
924.13	226.93
924.44	226.92
924.74	226.94
925.04	226.97
925.34	226.96
925.64	226.90
925.94	226.90
926.24	226.92
926.55	226.91
926.85	226.91
927.15	226.91
927.45	226.91
927.75	226.92
928.05	226.95
928.35	226.93
928.65	226.93
928.95	226.93
929.26	226.91
929.56	226.92
929.86	226.91
930.16	226.91
930.46	226.91
930.76	226.90
931.06	226.82
931.36	226.81
931.66	226.85
931.96	226.90
932.26	226.90
932.56	226.85
932.86	226.85
933.16	226.84
933.46	226.81
933.76	226.79
934.06	226.82
934.36	226.81
934.66	226.82
934.96	226.82
935.26	226.80
935.56	226.81
935.86	226.82
936.16	226.81
936.46	226.78
936.76	226.77
937.06	226.76
937.36	226.79
937.66	226.78
937.96	226.75
938.26	226.70
938.56	226.68
938.86	226.68
939.16	226.69
939.46	226.68
939.76	226.72
940.06	226.70
940.35	226.64
940.65	226.62
940.95	226.59
941.25	226.55
941.55	226.52
941.85	226.51
942.15	226.51
942.45	226.53
942.75	226.54
943.04	226.54
943.34	226.54
943.64	226.48
943.94	226.48
944.24	226.48
944.54	226.51
944.84	226.55
945.13	226.54
945.43	226.50
945.73	226.50
946.03	226.49
946.33	226.49
946.62	226.51
946.92	226.45
947.22	226.46
947.52	226.48
947.82	226.52
948.11	226.52
948.41	226.47
948.71	226.45
949.01	226.50
949.31	226.49
949.60	226.48
949.90	226.53
950.20	226.53
950.50	226.54
950.79	226.53
951.09	226.53
951.39	226.56
951.69	226.56
951.98	226.57
952.28	226.54
952.58	226.53
952.87	226.55
953.17	226.59
953.47	226.60
953.76	226.61
954.06	226.59
954.36	226.58
954.66	226.60
954.95	226.62
955.25	226.60
955.55	226.63
955.84	226.63
956.14	226.64
956.44	226.63
956.73	226.61
957.03	226.64
957.32	226.65
957.62	226.63
957.92	226.65
958.21	226.68
958.51	226.80
958.81	226.81
959.10	226.82
959.40	226.85
959.69	226.87
959.99	226.90
960.29	226.93
960.58	226.92
960.88	226.94
961.17	226.92
961.47	226.95
961.76	226.93
962.06	226.95
962.36	226.95
962.65	226.97
962.95	227.00
963.24	226.94
963.54	226.95
963.83	226.94
964.13	226.96
964.42	226.93
964.72	226.88
965.01	226.92
965.31	226.90
965.60	226.90
965.90	226.97
966.19	226.95
966.49	226.92
966.78	226.93
967.08	226.96
967.37	226.94
967.67	226.95
967.96	226.99
968.26	226.95
968.55	226.97
968.85	226.96
969.14	226.93
969.43	226.97
969.73	226.90
970.02	226.93
970.32	226.90
970.61	226.90
970.91	226.86
971.20	226.82
971.49	226.79
971.79	226.78
972.08	226.69
972.38	226.69
972.67	226.71
972.96	226.70
973.26	226.68
973.55	226.72
973.85	226.73
974.14	226.70
974.43	226.75
974.73	226.72
975.02	226.70
975.31	226.73
975.61	226.71
975.90	226.75
976.19	226.74
976.49	226.76
976.78	226.75
977.07	226.75
977.37	226.76
977.66	226.79
977.95	226.75
978.24	226.77
978.54	226.74
978.83	226.71
979.12	226.69
979.42	226.66
979.71	226.65
980.00	226.62
980.29	226.61
980.59	226.56
980.88	226.57
981.17	226.59
981.46	226.54
981.76	226.51
982.05	226.55
982.34	226.52
982.63	226.50
982.93	226.50
983.22	226.50
983.51	226.52
983.80	226.53
984.09	226.55
984.39	226.53
984.68	226.54
984.97	226.52
985.26	226.53
985.55	226.55
985.85	226.56
986.14	226.55
986.43	226.58
986.72	226.58
987.01	226.52
987.30	226.51
987.59	226.49
987.89	226.52
988.18	226.48
988.47	226.49
988.76	226.47
989.05	226.48
989.34	226.46
989.63	226.45
989.92	226.40
990.22	226.39
990.51	226.37
990.80	226.36
991.09	226.38
991.38	226.40
991.67	226.35
991.96	226.30
992.25	226.31
992.54	226.27
992.83	226.26
993.12	226.30
993.41	226.34
993.70	226.39
993.99	226.40
994.28	226.40
994.58	226.40
994.87	226.38
995.16	226.37
995.45	226.36
995.74	226.31
996.03	226.37
996.32	226.39
996.61	226.43
996.90	226.47
997.19	226.46
997.48	226.44
997.77	226.45
998.06	226.47
998.34	226.47
998.63	226.48
998.92	226.53
999.21	226.50
999.50	226.50
999.79	226.47
1000.08	226.46
1000.37	226.49
1000.66	226.47
1000.95	226.51
1001.24	226.55
1001.53	226.56
1001.82	226.55
1002.11	226.54
1002.40	226.54
1002.68	226.56
1002.97	226.60
1003.26	226.61
1003.55	226.60
1003.84	226.63
1004.13	226.66
1004.42	226.65
1004.71	226.67
1004.99	226.66
1005.28	226.74
1005.57	226.73
1005.86	226.74
1006.15	226.75
1006.44	226.70
1006.72	226.74
1007.01	226.73
1007.30	226.69
1007.59	226.73
1007.88	226.79
1008.17	226.77
1008.45	226.76
1008.74	226.74
1009.03	226.70
1009.32	226.71
1009.60	226.75
1009.89	226.74
1010.18	226.70
1010.47	226.71
1010.76	226.69
1011.04	226.71
1011.33	226.69
1011.62	226.69
1011.91	226.72
1012.19	226.72
1012.48	226.77
1012.77	226.77
1013.05	226.83
1013.34	226.83
1013.63	226.79
1013.92	226.82
1014.20	226.81
1014.49	226.81
1014.78	226.78
1015.06	226.77
1015.35	226.73
1015.64	226.74
1015.92	226.79
1016.21	226.80
1016.50	226.77
1016.78	226.75
1017.07	226.70
1017.36	226.71
1017.64	226.66
1017.93	226.64
1018.22	226.62
1018.50	226.59
1018.79	226.57
1019.08	226.53
1019.36	226.53
1019.65	226.49
1019.93	226.46
1020.22	226.50
1020.51	226.55
1020.79	226.54
1021.08	226.41
1021.36	226.12
1021.65	226.59
1021.94	226.78
1022.22	226.34
1022.51	225.54
1022.79	226.84
1023.08	226.93
1023.36	227.89
1023.65	225.86
>>>>>End Processed Spectral Data<<<<<
