SpectraSuite Data File
++++++++++++++++++++++++++++++++++++
Date: Fri Feb 01 15:43:12 EST 2013
User: group
Dark Spectrum Present: No
Reference Spectrum Present: No
Number of Sampled Component Spectra: 1
Spectrometers: USB2E7196
Integration Time (usec): 35000 (USB2E7196)
Spectra Averaged: 100 (USB2E7196)
Boxcar Smoothing: 10 (USB2E7196)
Correct for Electrical Dark: No (USB2E7196)
Strobe/Lamp Enabled: No (USB2E7196)
Correct for Detector Non-linearity: No (USB2E7196)
Correct for Stray Light: No (USB2E7196)
Number of Pixels in Processed Spectrum: 2048
>>>>>Begin Processed Spectral Data<<<<<
339.09	0.00
339.48	214.47
339.86	216.50
340.24	217.77
340.63	219.72
341.01	221.89
341.39	221.56
341.78	223.52
342.16	224.76
342.54	225.18
342.93	213.17
343.31	223.95
343.69	224.51
344.07	224.97
344.46	225.37
344.84	225.72
345.22	225.97
345.60	226.24
345.99	226.40
346.37	226.51
346.75	226.60
347.13	226.71
347.52	226.77
347.90	226.81
348.28	226.86
348.66	226.93
349.05	226.92
349.43	226.94
349.81	227.00
350.19	227.06
350.57	227.11
350.96	227.19
351.34	227.28
351.72	227.36
352.10	227.44
352.48	227.55
352.87	227.60
353.25	227.60
353.63	227.66
354.01	227.72
354.39	227.83
354.77	227.90
355.15	227.99
355.54	228.03
355.92	228.06
356.30	228.18
356.68	228.33
357.06	228.38
357.44	228.47
357.82	228.54
358.20	228.61
358.58	228.67
358.97	228.74
359.35	228.84
359.73	228.93
360.11	229.03
360.49	229.10
360.87	229.14
361.25	229.25
361.63	229.32
362.01	229.38
362.39	229.37
362.77	229.42
363.15	229.45
363.53	229.48
363.91	229.53
364.29	229.50
364.67	229.41
365.05	229.48
365.43	229.50
365.81	229.51
366.19	229.55
366.57	229.59
366.95	229.56
367.33	229.51
367.71	229.49
368.09	229.45
368.47	229.41
368.85	229.37
369.23	229.39
369.61	229.33
369.99	229.35
370.37	229.34
370.75	229.33
371.13	229.23
371.51	229.18
371.89	229.15
372.27	229.10
372.65	229.07
373.03	228.98
373.41	228.92
373.78	228.85
374.16	228.73
374.54	228.62
374.92	228.57
375.30	228.50
375.68	228.38
376.06	228.34
376.44	228.26
376.82	228.21
377.19	228.10
377.57	228.02
377.95	227.88
378.33	227.83
378.71	227.70
379.09	227.66
379.47	227.58
379.84	227.48
380.22	227.42
380.60	227.31
380.98	227.24
381.36	227.19
381.73	227.09
382.11	227.08
382.49	227.05
382.87	226.98
383.25	226.91
383.62	226.98
384.00	226.90
384.38	226.84
384.76	226.82
385.13	226.82
385.51	226.77
385.89	226.75
386.27	226.66
386.64	226.65
387.02	226.59
387.40	226.56
387.78	226.51
388.15	226.45
388.53	226.45
388.91	226.44
389.29	226.39
389.66	226.36
390.04	226.31
390.42	226.29
390.79	226.27
391.17	226.25
391.55	226.14
391.92	226.14
392.30	226.14
392.68	226.13
393.05	226.13
393.43	226.13
393.81	226.14
394.18	226.15
394.56	226.14
394.94	226.21
395.31	226.24
395.69	226.32
396.06	226.40
396.44	226.44
396.82	226.48
397.19	226.56
397.57	226.62
397.95	226.70
398.32	226.75
398.70	226.85
399.07	226.92
399.45	226.99
399.82	227.06
400.20	227.13
400.58	227.20
400.95	227.26
401.33	227.38
401.70	227.54
402.08	227.67
402.45	227.79
402.83	227.91
403.20	228.01
403.58	228.13
403.95	228.27
404.33	228.37
404.71	228.47
405.08	228.65
405.46	228.80
405.83	228.95
406.21	229.10
406.58	229.25
406.96	229.43
407.33	229.60
407.70	229.83
408.08	230.12
408.45	230.32
408.83	230.53
409.20	230.75
409.58	230.93
409.95	231.18
410.33	231.45
410.70	231.71
411.08	232.02
411.45	232.31
411.82	232.61
412.20	233.00
412.57	233.45
412.95	233.76
413.32	234.18
413.69	234.59
414.07	235.00
414.44	235.44
414.82	235.93
415.19	236.48
415.56	236.99
415.94	237.52
416.31	238.12
416.68	238.76
417.06	239.46
417.43	240.14
417.81	240.89
418.18	241.65
418.55	242.47
418.93	243.35
419.30	244.21
419.67	245.16
420.04	246.13
420.42	247.12
420.79	248.26
421.16	249.39
421.54	250.56
421.91	251.78
422.28	253.05
422.66	254.35
423.03	255.67
423.40	257.03
423.77	258.41
424.15	259.86
424.52	261.34
424.89	262.96
425.26	264.49
425.64	265.93
426.01	267.52
426.38	269.16
426.75	270.78
427.13	272.51
427.50	274.24
427.87	276.12
428.24	277.95
428.61	279.73
428.99	281.67
429.36	283.79
429.73	285.86
430.10	287.90
430.47	289.96
430.85	292.07
431.22	294.27
431.59	296.66
431.96	298.89
432.33	301.39
432.70	303.76
433.08	306.57
433.45	309.26
433.82	311.91
434.19	314.81
434.56	317.65
434.93	320.30
435.30	322.96
435.68	325.86
436.05	328.73
436.42	331.48
436.79	333.98
437.16	336.65
437.53	339.47
437.90	342.26
438.27	345.04
438.64	347.88
439.01	350.46
439.38	352.68
439.75	354.86
440.13	357.37
440.50	359.72
440.87	361.55
441.24	363.47
441.61	365.61
441.98	367.08
442.35	368.86
442.72	370.79
443.09	372.59
443.46	373.56
443.83	374.09
444.20	374.60
444.57	375.46
444.94	375.74
445.31	376.08
445.68	376.45
446.05	376.53
446.42	376.15
446.79	375.75
447.16	375.33
447.53	375.03
447.90	373.84
448.27	372.64
448.64	371.06
449.01	369.89
449.37	367.89
449.74	365.99
450.11	363.80
450.48	361.29
450.85	358.76
451.22	356.61
451.59	354.61
451.96	352.71
452.33	350.11
452.70	347.77
453.07	344.95
453.43	342.07
453.80	339.28
454.17	336.59
454.54	334.03
454.91	331.28
455.28	328.62
455.65	326.14
456.02	323.72
456.38	321.58
456.75	318.93
457.12	316.70
457.49	314.50
457.86	312.31
458.23	310.47
458.59	308.47
458.96	306.37
459.33	304.49
459.70	302.60
460.07	301.06
460.43	299.35
460.80	297.75
461.17	296.28
461.54	294.81
461.91	293.40
462.27	291.97
462.64	290.74
463.01	289.36
463.38	288.08
463.74	286.70
464.11	285.57
464.48	284.58
464.85	283.48
465.21	282.59
465.58	281.66
465.95	280.52
466.32	279.57
466.68	278.68
467.05	277.85
467.42	276.98
467.78	276.07
468.15	275.17
468.52	274.51
468.88	273.66
469.25	272.86
469.62	272.20
469.98	271.55
470.35	270.88
470.72	270.32
471.08	269.64
471.45	269.08
471.82	268.52
472.18	267.88
472.55	267.45
472.92	266.95
473.28	266.48
473.65	266.04
474.02	265.61
474.38	265.25
474.75	264.92
475.11	264.53
475.48	264.27
475.85	264.01
476.21	263.75
476.58	263.56
476.94	263.43
477.31	263.26
477.67	263.08
478.04	262.99
478.41	262.92
478.77	262.92
479.14	262.87
479.50	262.87
479.87	262.96
480.23	263.04
480.60	263.08
480.96	263.18
481.33	263.40
481.69	263.60
482.06	263.77
482.42	263.95
482.79	264.25
483.15	264.58
483.52	264.98
483.88	265.32
484.25	265.68
484.61	266.12
484.98	266.57
485.34	267.15
485.71	267.75
486.07	268.33
486.44	268.94
486.80	269.66
487.17	270.40
487.53	271.20
487.90	272.05
488.26	272.98
488.62	273.98
488.99	274.95
489.35	275.98
489.72	277.10
490.08	278.30
490.44	279.53
490.81	280.83
491.17	282.21
491.54	283.74
491.90	285.32
492.26	286.94
492.63	288.69
492.99	290.49
493.36	292.36
493.72	294.41
494.08	296.52
494.45	298.74
494.81	301.12
495.17	303.60
495.54	306.16
495.90	308.85
496.26	311.71
496.63	314.68
496.99	317.82
497.35	321.08
497.72	324.50
498.08	328.04
498.44	331.72
498.80	335.68
499.17	339.72
499.53	343.92
499.89	348.33
500.26	352.83
500.62	357.50
500.98	362.49
501.34	367.57
501.71	372.91
502.07	378.42
502.43	383.99
502.79	389.74
503.16	395.83
503.52	402.18
503.88	408.51
504.24	415.14
504.60	421.98
504.97	429.18
505.33	436.49
505.69	444.18
506.05	451.96
506.41	459.79
506.78	467.93
507.14	476.39
507.50	485.07
507.86	494.08
508.22	503.25
508.59	512.46
508.95	522.04
509.31	531.89
509.67	541.93
510.03	552.20
510.39	562.80
510.75	573.62
511.12	584.56
511.48	595.84
511.84	607.29
512.20	618.87
512.56	630.78
512.92	642.99
513.28	655.32
513.64	667.82
514.00	680.50
514.37	693.40
514.73	706.45
515.09	719.54
515.45	732.86
515.81	746.51
516.17	760.53
516.53	774.59
516.89	788.74
517.25	802.91
517.61	817.30
517.97	831.71
518.33	846.09
518.69	860.80
519.05	875.78
519.41	890.92
519.77	906.36
520.13	921.73
520.49	937.05
520.85	952.43
521.21	968.18
521.57	984.43
521.93	1000.25
522.29	1016.64
522.65	1032.77
523.01	1049.02
523.37	1064.95
523.73	1081.09
524.09	1097.22
524.45	1113.53
524.81	1130.23
525.17	1147.16
525.53	1164.17
525.89	1181.04
526.25	1197.84
526.61	1214.26
526.97	1231.00
527.33	1247.59
527.68	1264.31
528.04	1280.80
528.40	1297.46
528.76	1314.36
529.12	1330.99
529.48	1347.88
529.84	1363.91
530.20	1380.66
530.56	1397.70
530.91	1415.13
531.27	1431.90
531.63	1448.32
531.99	1464.82
532.35	1480.70
532.71	1496.53
533.07	1512.73
533.42	1528.64
533.78	1544.76
534.14	1561.19
534.50	1576.57
534.86	1592.45
535.21	1607.68
535.57	1623.67
535.93	1639.21
536.29	1654.16
536.65	1669.28
537.00	1683.95
537.36	1699.30
537.72	1713.78
538.08	1728.13
538.44	1741.97
538.79	1755.92
539.15	1769.71
539.51	1783.62
539.87	1797.97
540.22	1811.76
540.58	1825.53
540.94	1838.95
541.29	1851.76
541.65	1864.35
542.01	1877.56
542.37	1889.87
542.72	1902.26
543.08	1913.95
543.44	1926.18
543.79	1937.34
544.15	1948.27
544.51	1959.89
544.87	1970.83
545.22	1981.61
545.58	1991.85
545.94	2001.63
546.29	2011.44
546.65	2021.16
547.01	2030.34
547.36	2039.09
547.72	2047.53
548.07	2055.32
548.43	2063.46
548.79	2071.60
549.14	2079.25
549.50	2086.69
549.86	2094.50
550.21	2101.77
550.57	2109.05
550.92	2115.76
551.28	2122.92
551.64	2129.98
551.99	2136.53
552.35	2142.65
552.70	2148.82
553.06	2154.92
553.41	2161.24
553.77	2167.29
554.13	2173.52
554.48	2179.67
554.84	2185.18
555.19	2190.47
555.55	2195.73
555.90	2200.25
556.26	2205.09
556.61	2209.81
556.97	2214.03
557.32	2218.03
557.68	2222.11
558.03	2226.42
558.39	2230.17
558.74	2234.66
559.10	2238.53
559.45	2242.21
559.81	2246.62
560.16	2250.40
560.52	2253.47
560.87	2256.95
561.23	2259.61
561.58	2262.44
561.94	2264.98
562.29	2267.33
562.64	2269.98
563.00	2272.47
563.35	2276.10
563.71	2279.21
564.06	2282.30
564.42	2285.06
564.77	2287.57
565.12	2289.81
565.48	2291.69
565.83	2293.44
566.19	2294.77
566.54	2295.81
566.89	2296.89
567.25	2297.45
567.60	2298.86
567.96	2300.54
568.31	2301.39
568.66	2302.32
569.02	2303.04
569.37	2303.35
569.72	2304.14
570.08	2304.36
570.43	2304.38
570.78	2303.52
571.14	2301.99
571.49	2300.75
571.84	2300.46
572.20	2299.31
572.55	2298.21
572.90	2296.69
573.26	2295.41
573.61	2293.82
573.96	2291.93
574.31	2288.99
574.67	2285.77
575.02	2282.08
575.37	2278.70
575.72	2274.79
576.08	2271.49
576.43	2268.12
576.78	2264.31
577.13	2261.13
577.49	2257.97
577.84	2254.56
578.19	2250.84
578.54	2247.21
578.90	2242.76
579.25	2237.23
579.60	2232.10
579.95	2227.15
580.30	2222.03
580.66	2216.71
581.01	2211.74
581.36	2206.76
581.71	2202.46
582.06	2198.12
582.42	2193.56
582.77	2188.33
583.12	2183.72
583.47	2179.08
583.82	2173.86
584.17	2168.70
584.53	2163.18
584.88	2157.44
585.23	2151.55
585.58	2146.09
585.93	2140.49
586.28	2135.79
586.63	2130.61
586.98	2125.64
587.34	2120.96
587.69	2116.04
588.04	2110.73
588.39	2104.94
588.74	2098.57
589.09	2092.38
589.44	2085.55
589.79	2079.59
590.14	2073.95
590.49	2067.29
590.84	2060.90
591.19	2055.01
591.54	2048.59
591.89	2041.17
592.25	2034.42
592.60	2027.34
592.95	2019.78
593.30	2012.47
593.65	2004.79
594.00	1997.82
594.35	1990.56
594.70	1982.53
595.05	1975.26
595.40	1968.05
595.75	1960.50
596.10	1954.10
596.45	1947.37
596.80	1941.21
597.15	1934.50
597.50	1927.34
597.85	1921.02
598.19	1914.23
598.54	1907.01
598.89	1900.27
599.24	1894.30
599.59	1887.50
599.94	1881.23
600.29	1874.82
600.64	1868.24
600.99	1860.85
601.34	1853.91
601.69	1847.08
602.04	1840.05
602.39	1832.66
602.74	1825.81
603.08	1819.07
603.43	1812.34
603.78	1805.11
604.13	1797.86
604.48	1790.59
604.83	1783.78
605.18	1776.73
605.53	1768.71
605.87	1760.77
606.22	1753.54
606.57	1745.58
606.92	1738.31
607.27	1731.08
607.62	1724.18
607.96	1716.81
608.31	1710.05
608.66	1702.54
609.01	1694.80
609.36	1687.30
609.70	1679.29
610.05	1671.17
610.40	1663.51
610.75	1655.26
611.10	1647.49
611.44	1639.23
611.79	1631.32
612.14	1622.61
612.49	1613.45
612.83	1605.10
613.18	1596.95
613.53	1588.79
613.88	1580.28
614.22	1571.99
614.57	1563.36
614.92	1555.28
615.27	1547.70
615.61	1539.34
615.96	1531.29
616.31	1523.62
616.65	1516.31
617.00	1508.75
617.35	1501.04
617.70	1492.64
618.04	1484.08
618.39	1475.93
618.74	1468.34
619.08	1459.82
619.43	1452.23
619.78	1445.31
620.12	1438.04
620.47	1430.53
620.82	1422.38
621.16	1415.05
621.51	1407.50
621.85	1399.98
622.20	1391.38
622.55	1383.08
622.89	1375.34
623.24	1367.76
623.59	1360.54
623.93	1353.00
624.28	1345.84
624.62	1338.36
624.97	1331.19
625.32	1324.48
625.66	1317.38
626.01	1309.98
626.35	1302.73
626.70	1295.05
627.04	1287.31
627.39	1279.62
627.73	1272.26
628.08	1265.42
628.43	1258.08
628.77	1250.67
629.12	1242.98
629.46	1235.93
629.81	1228.52
630.15	1221.34
630.50	1213.83
630.84	1205.51
631.19	1197.63
631.53	1189.96
631.88	1182.41
632.22	1174.87
632.57	1167.54
632.91	1159.99
633.26	1152.61
633.60	1145.31
633.95	1138.21
634.29	1131.28
634.64	1124.64
634.98	1117.21
635.32	1109.96
635.67	1103.48
636.01	1096.83
636.36	1090.08
636.70	1083.57
637.05	1077.04
637.39	1070.55
637.73	1064.12
638.08	1058.31
638.42	1052.25
638.77	1045.97
639.11	1039.41
639.45	1032.98
639.80	1026.33
640.14	1020.00
640.49	1013.47
640.83	1007.11
641.17	1000.83
641.52	994.34
641.86	987.83
642.20	982.06
642.55	975.96
642.89	969.31
643.23	962.73
643.58	957.02
643.92	950.81
644.26	944.64
644.61	938.61
644.95	932.60
645.29	925.90
645.64	919.24
645.98	912.88
646.32	907.05
646.66	901.11
647.01	895.31
647.35	889.59
647.69	883.77
648.04	878.27
648.38	872.49
648.72	866.49
649.06	860.55
649.41	854.62
649.75	848.47
650.09	842.54
650.43	836.78
650.78	830.56
651.12	824.61
651.46	818.97
651.80	813.22
652.14	807.78
652.49	802.42
652.83	797.17
653.17	791.49
653.51	785.69
653.85	780.24
654.20	774.56
654.54	768.51
654.88	762.76
655.22	756.79
655.56	751.07
655.90	745.72
656.25	740.41
656.59	735.05
656.93	729.96
657.27	724.88
657.61	719.43
657.95	714.35
658.29	709.21
658.64	703.94
658.98	698.63
659.32	693.12
659.66	687.88
660.00	682.52
660.34	677.57
660.68	672.74
661.02	667.67
661.36	663.00
661.70	658.51
662.05	654.13
662.39	649.84
662.73	645.37
663.07	640.92
663.41	636.48
663.75	631.91
664.09	627.38
664.43	622.91
664.77	618.82
665.11	614.51
665.45	610.44
665.79	606.37
666.13	602.22
666.47	598.23
666.81	594.12
667.15	590.03
667.49	586.13
667.83	582.32
668.17	578.41
668.51	574.27
668.85	570.25
669.19	566.47
669.53	562.61
669.87	558.74
670.21	555.08
670.55	551.39
670.89	547.99
671.23	544.60
671.57	541.13
671.91	537.53
672.25	534.11
672.58	530.55
672.92	527.24
673.26	524.05
673.60	520.83
673.94	517.68
674.28	514.79
674.62	511.80
674.96	508.68
675.30	505.74
675.64	502.93
675.97	500.22
676.31	497.35
676.65	494.39
676.99	491.73
677.33	488.85
677.67	486.12
678.01	483.12
678.34	480.12
678.68	477.28
679.02	474.52
679.36	471.72
679.70	469.01
680.04	466.16
680.37	463.29
680.71	460.50
681.05	457.93
681.39	455.24
681.73	452.57
682.06	449.98
682.40	447.49
682.74	444.93
683.08	442.35
683.42	439.77
683.75	437.34
684.09	434.80
684.43	432.30
684.77	429.84
685.10	427.50
685.44	425.21
685.78	422.91
686.12	420.69
686.45	418.44
686.79	416.13
687.13	413.94
687.46	411.81
687.80	409.69
688.14	407.49
688.48	405.41
688.81	403.20
689.15	401.13
689.49	398.94
689.82	396.84
690.16	394.76
690.50	392.76
690.83	390.78
691.17	388.77
691.51	386.89
691.84	385.04
692.18	383.10
692.52	381.10
692.85	379.14
693.19	377.21
693.52	375.35
693.86	373.59
694.20	371.79
694.53	369.94
694.87	368.11
695.21	366.39
695.54	364.56
695.88	362.85
696.21	361.10
696.55	359.42
696.88	357.73
697.22	356.07
697.56	354.47
697.89	352.81
698.23	351.17
698.56	349.53
698.90	347.90
699.23	346.22
699.57	344.66
699.90	343.13
700.24	341.62
700.58	340.10
700.91	338.56
701.25	337.13
701.58	335.80
701.92	334.40
702.25	332.98
702.59	331.62
702.92	330.27
703.26	329.00
703.59	327.70
703.93	326.51
704.26	325.27
704.60	323.92
704.93	322.65
705.26	321.42
705.60	320.30
705.93	319.14
706.27	318.11
706.60	317.07
706.94	316.01
707.27	314.87
707.61	313.85
707.94	312.89
708.27	311.81
708.61	310.72
708.94	309.75
709.28	308.78
709.61	307.79
709.94	306.84
710.28	305.79
710.61	304.84
710.95	303.77
711.28	302.89
711.61	301.98
711.95	301.06
712.28	300.13
712.61	299.14
712.95	298.20
713.28	297.34
713.61	296.44
713.95	295.53
714.28	294.66
714.61	293.75
714.95	292.86
715.28	291.96
715.61	291.10
715.95	290.23
716.28	289.34
716.61	288.55
716.95	287.74
717.28	287.04
717.61	286.26
717.94	285.53
718.28	284.72
718.61	284.01
718.94	283.32
719.27	282.65
719.61	282.02
719.94	281.37
720.27	280.64
720.60	279.96
720.94	279.34
721.27	278.80
721.60	278.25
721.93	277.66
722.27	277.17
722.60	276.63
722.93	276.05
723.26	275.54
723.59	274.95
723.93	274.39
724.26	273.83
724.59	273.27
724.92	272.71
725.25	272.19
725.59	271.65
725.92	271.16
726.25	270.66
726.58	270.12
726.91	269.64
727.24	269.17
727.57	268.74
727.91	268.21
728.24	267.75
728.57	267.26
728.90	266.82
729.23	266.27
729.56	265.82
729.89	265.35
730.22	264.88
730.55	264.44
730.89	263.98
731.22	263.50
731.55	263.07
731.88	262.65
732.21	262.24
732.54	261.83
732.87	261.40
733.20	261.01
733.53	260.63
733.86	260.27
734.19	259.89
734.52	259.49
734.85	259.16
735.18	258.74
735.51	258.40
735.84	258.02
736.17	257.74
736.50	257.32
736.83	257.09
737.16	256.75
737.49	256.40
737.82	256.07
738.15	255.75
738.48	255.41
738.81	255.09
739.14	254.73
739.47	254.41
739.80	254.09
740.13	253.77
740.46	253.42
740.79	253.08
741.12	252.79
741.45	252.47
741.78	252.17
742.11	251.88
742.44	251.52
742.77	251.22
743.10	250.91
743.43	250.67
743.75	250.29
744.08	250.13
744.41	249.87
744.74	249.63
745.07	249.37
745.40	249.12
745.73	248.88
746.06	248.62
746.39	248.34
746.71	248.06
747.04	247.78
747.37	247.55
747.70	247.31
748.03	247.06
748.36	246.83
748.68	246.58
749.01	246.32
749.34	246.10
749.67	245.85
750.00	245.62
750.33	245.47
750.65	245.26
750.98	244.90
751.31	244.67
751.64	244.46
751.97	244.29
752.29	244.09
752.62	243.85
752.95	243.64
753.28	243.45
753.60	243.24
753.93	243.06
754.26	242.88
754.59	242.62
754.91	242.42
755.24	242.22
755.57	242.03
755.90	241.85
756.22	241.67
756.55	241.47
756.88	241.26
757.20	240.99
757.53	240.79
757.86	240.68
758.19	240.49
758.51	240.31
758.84	240.08
759.17	239.91
759.49	239.74
759.82	239.60
760.15	239.45
760.47	239.32
760.80	239.15
761.13	239.00
761.45	238.88
761.78	238.71
762.11	238.57
762.43	238.44
762.76	238.31
763.08	238.19
763.41	238.08
763.74	237.93
764.06	237.79
764.39	237.65
764.71	237.47
765.04	237.36
765.37	237.22
765.69	237.13
766.02	237.01
766.34	236.88
766.67	236.76
767.00	236.64
767.32	236.57
767.65	236.50
767.97	236.39
768.30	236.27
768.62	236.18
768.95	236.03
769.27	235.91
769.60	235.80
769.92	235.67
770.25	235.53
770.57	235.41
770.90	235.31
771.22	235.21
771.55	235.12
771.87	235.02
772.20	234.93
772.52	234.90
772.85	234.92
773.17	234.83
773.50	234.74
773.82	234.62
774.15	234.50
774.47	234.34
774.80	234.26
775.12	234.17
775.45	234.09
775.77	234.02
776.09	233.94
776.42	233.87
776.74	233.81
777.07	233.75
777.39	233.71
777.72	233.61
778.04	233.54
778.36	233.49
778.69	233.42
779.01	233.35
779.33	233.20
779.66	233.01
779.98	232.95
780.31	232.88
780.63	232.88
780.95	232.83
781.28	232.78
781.60	232.67
781.92	232.62
782.25	232.55
782.57	232.53
782.89	232.46
783.22	232.38
783.54	232.31
783.86	232.25
784.19	232.21
784.51	232.18
784.83	232.15
785.16	232.05
785.48	232.00
785.80	231.96
786.12	231.93
786.45	231.88
786.77	231.79
787.09	231.75
787.42	231.67
787.74	231.61
788.06	231.56
788.38	231.55
788.71	231.52
789.03	231.49
789.35	231.45
789.67	231.37
789.99	231.34
790.32	231.27
790.64	231.26
790.96	231.27
791.28	231.21
791.61	231.17
791.93	231.20
792.25	231.16
792.57	231.16
792.89	231.10
793.21	231.08
793.54	231.06
793.86	231.03
794.18	230.99
794.50	230.94
794.82	230.91
795.14	230.89
795.47	230.84
795.79	230.75
796.11	230.68
796.43	230.65
796.75	230.62
797.07	230.58
797.39	230.54
797.71	230.46
798.04	230.41
798.36	230.38
798.68	230.33
799.00	230.29
799.32	230.22
799.64	230.16
799.96	230.12
800.28	230.10
800.60	230.05
800.92	230.07
801.24	230.01
801.56	229.99
801.89	229.96
802.21	229.97
802.53	229.94
802.85	229.94
803.17	229.98
803.49	229.93
803.81	229.90
804.13	229.88
804.45	229.84
804.77	229.84
805.09	229.78
805.41	229.74
805.73	229.69
806.05	229.65
806.37	229.67
806.69	229.65
807.01	229.62
807.33	229.62
807.65	229.56
807.97	229.58
808.28	229.56
808.60	229.50
808.92	229.45
809.24	229.50
809.56	229.46
809.88	229.40
810.20	229.38
810.52	229.39
810.84	229.34
811.16	229.27
811.48	229.25
811.80	229.25
812.12	229.24
812.43	229.27
812.75	229.22
813.07	229.18
813.39	229.19
813.71	229.15
814.03	229.11
814.35	229.06
814.67	229.02
814.98	228.98
815.30	228.95
815.62	228.90
815.94	228.82
816.26	228.85
816.58	228.80
816.89	228.82
817.21	228.79
817.53	228.78
817.85	228.80
818.17	228.78
818.48	228.76
818.80	228.72
819.12	228.66
819.44	228.67
819.76	228.65
820.07	228.59
820.39	228.58
820.71	228.57
821.03	228.55
821.34	228.53
821.66	228.55
821.98	228.56
822.30	228.54
822.61	228.60
822.93	228.54
823.25	228.54
823.57	228.48
823.88	228.47
824.20	228.45
824.52	228.44
824.83	228.43
825.15	228.41
825.47	228.40
825.79	228.42
826.10	228.36
826.42	228.33
826.74	228.31
827.05	228.33
827.37	228.31
827.69	228.31
828.00	228.26
828.32	228.23
828.64	228.23
828.95	228.26
829.27	228.21
829.58	228.21
829.90	228.20
830.22	228.20
830.53	228.16
830.85	228.15
831.17	228.13
831.48	228.10
831.80	228.05
832.11	228.05
832.43	228.02
832.75	228.06
833.06	228.11
833.38	228.08
833.69	228.06
834.01	228.03
834.32	227.99
834.64	228.02
834.96	228.02
835.27	227.99
835.59	227.93
835.90	227.92
836.22	227.89
836.53	227.83
836.85	227.83
837.16	227.94
837.48	227.92
837.79	227.92
838.11	227.94
838.42	227.98
838.74	227.94
839.05	227.92
839.37	227.88
839.68	227.80
840.00	227.77
840.31	227.76
840.63	227.73
840.94	227.72
841.26	227.69
841.57	227.66
841.88	227.66
842.20	227.67
842.51	227.62
842.83	227.62
843.14	227.75
843.46	227.75
843.77	227.68
844.08	227.65
844.40	227.63
844.71	227.56
845.03	227.53
845.34	227.54
845.65	227.52
845.97	227.53
846.28	227.55
846.60	227.55
846.91	227.55
847.22	227.58
847.54	227.64
847.85	227.64
848.16	227.63
848.48	227.60
848.79	227.64
849.10	227.67
849.42	227.67
849.73	227.57
850.04	227.55
850.36	227.49
850.67	227.54
850.98	227.53
851.30	227.54
851.61	227.54
851.92	227.54
852.23	227.57
852.55	227.57
852.86	227.58
853.17	227.61
853.49	227.61
853.80	227.62
854.11	227.61
854.42	227.64
854.74	227.66
855.05	227.66
855.36	227.60
855.67	227.60
855.99	227.64
856.30	227.72
856.61	227.73
856.92	227.75
857.23	227.73
857.55	227.73
857.86	227.73
858.17	227.75
858.48	227.74
858.79	227.72
859.11	227.73
859.42	227.71
859.73	227.69
860.04	227.70
860.35	227.67
860.66	227.62
860.98	227.60
861.29	227.65
861.60	227.64
861.91	227.64
862.22	227.61
862.53	227.57
862.84	227.44
863.16	227.45
863.47	227.44
863.78	227.44
864.09	227.42
864.40	227.46
864.71	227.43
865.02	227.45
865.33	227.45
865.64	227.45
865.95	227.45
866.27	227.53
866.58	227.50
866.89	227.51
867.20	227.54
867.51	227.52
867.82	227.45
868.13	227.51
868.44	227.47
868.75	227.52
869.06	227.49
869.37	227.52
869.68	227.48
869.99	227.48
870.30	227.47
870.61	227.46
870.92	227.42
871.23	227.42
871.54	227.41
871.85	227.42
872.16	227.42
872.47	227.38
872.78	227.30
873.09	227.30
873.40	227.29
873.71	227.24
874.02	227.24
874.33	227.25
874.64	227.21
874.95	227.22
875.26	227.17
875.56	227.19
875.87	227.17
876.18	227.14
876.49	227.26
876.80	227.23
877.11	227.23
877.42	227.23
877.73	227.26
878.04	227.23
878.35	227.22
878.66	227.24
878.96	227.23
879.27	227.20
879.58	227.16
879.89	227.19
880.20	227.22
880.51	227.25
880.82	227.22
881.12	227.20
881.43	227.19
881.74	227.19
882.05	227.17
882.36	227.18
882.67	227.17
882.97	227.04
883.28	227.03
883.59	227.02
883.90	227.03
884.21	227.02
884.51	227.01
884.82	226.98
885.13	226.94
885.44	226.95
885.74	226.97
886.05	226.96
886.36	226.92
886.67	226.93
886.98	226.97
887.28	226.97
887.59	226.97
887.90	226.95
888.20	226.95
888.51	226.95
888.82	226.96
889.13	227.00
889.43	227.09
889.74	227.09
890.05	227.11
890.35	227.10
890.66	227.11
890.97	227.12
891.28	227.13
891.58	227.13
891.89	227.14
892.20	227.14
892.50	227.15
892.81	227.15
893.12	227.12
893.42	227.05
893.73	227.05
894.04	227.07
894.34	227.11
894.65	227.11
894.95	227.12
895.26	227.11
895.57	227.13
895.87	227.09
896.18	227.12
896.48	227.11
896.79	227.10
897.10	227.07
897.40	227.05
897.71	227.06
898.01	227.07
898.32	227.08
898.63	227.09
898.93	227.08
899.24	227.08
899.54	227.07
899.85	227.07
900.15	227.08
900.46	227.08
900.76	227.11
901.07	227.10
901.38	227.14
901.68	227.15
901.99	227.13
902.29	227.10
902.60	227.08
902.90	227.08
903.21	227.08
903.51	227.07
903.82	227.11
904.12	227.13
904.43	227.14
904.73	227.13
905.03	227.12
905.34	227.26
905.64	227.31
905.95	227.33
906.25	227.32
906.56	227.32
906.86	227.33
907.17	227.30
907.47	227.31
907.77	227.28
908.08	227.25
908.38	227.25
908.69	227.28
908.99	227.30
909.30	227.31
909.60	227.35
909.90	227.39
910.21	227.35
910.51	227.36
910.81	227.37
911.12	227.36
911.42	227.38
911.73	227.26
912.03	227.23
912.33	227.26
912.64	227.28
912.94	227.29
913.24	227.29
913.55	227.26
913.85	227.26
914.15	227.29
914.46	227.32
914.76	227.32
915.06	227.27
915.37	227.30
915.67	227.29
915.97	227.28
916.27	227.25
916.58	227.26
916.88	227.24
917.18	227.22
917.49	227.30
917.79	227.30
918.09	227.33
918.39	227.37
918.70	227.38
919.00	227.37
919.30	227.40
919.60	227.36
919.91	227.37
920.21	227.36
920.51	227.34
920.81	227.35
921.12	227.37
921.42	227.37
921.72	227.36
922.02	227.34
922.32	227.39
922.63	227.37
922.93	227.40
923.23	227.38
923.53	227.40
923.83	227.37
924.13	227.35
924.44	227.36
924.74	227.33
925.04	227.33
925.34	227.31
925.64	227.24
925.94	227.26
926.24	227.31
926.55	227.31
926.85	227.31
927.15	227.30
927.45	227.28
927.75	227.29
928.05	227.27
928.35	227.26
928.65	227.20
928.95	227.21
929.26	227.18
929.56	227.21
929.86	227.19
930.16	227.15
930.46	227.16
930.76	227.13
931.06	227.10
931.36	227.07
931.66	227.10
931.96	227.13
932.26	227.11
932.56	227.05
932.86	227.09
933.16	227.06
933.46	227.03
933.76	227.00
934.06	227.01
934.36	227.05
934.66	227.06
934.96	227.05
935.26	227.08
935.56	227.09
935.86	227.07
936.16	227.06
936.46	227.06
936.76	227.03
937.06	227.01
937.36	227.00
937.66	227.01
937.96	226.95
938.26	226.93
938.56	226.92
938.86	226.94
939.16	226.94
939.46	226.96
939.76	226.97
940.06	226.97
940.35	226.97
940.65	226.92
940.95	226.94
941.25	226.94
941.55	226.91
941.85	226.91
942.15	226.90
942.45	226.95
942.75	226.96
943.04	226.97
943.34	227.01
943.64	227.00
943.94	227.00
944.24	227.00
944.54	227.02
944.84	227.03
945.13	227.03
945.43	227.01
945.73	227.01
946.03	227.03
946.33	227.01
946.62	226.95
946.92	226.95
947.22	226.95
947.52	226.93
947.82	226.95
948.11	226.96
948.41	226.97
948.71	226.93
949.01	226.88
949.31	226.85
949.60	226.86
949.90	226.87
950.20	226.88
950.50	226.93
950.79	226.91
951.09	226.90
951.39	226.87
951.69	226.86
951.98	226.87
952.28	226.87
952.58	226.89
952.87	226.95
953.17	226.95
953.47	226.94
953.76	226.96
954.06	226.95
954.36	226.93
954.66	226.93
954.95	226.95
955.25	227.01
955.55	227.04
955.84	226.97
956.14	226.99
956.44	226.97
956.73	226.95
957.03	226.95
957.32	226.97
957.62	226.99
957.92	227.00
958.21	227.00
958.51	227.09
958.81	227.11
959.10	227.10
959.40	227.10
959.69	227.13
959.99	227.16
960.29	227.18
960.58	227.17
960.88	227.20
961.17	227.18
961.47	227.17
961.76	227.16
962.06	227.20
962.36	227.20
962.65	227.20
962.95	227.21
963.24	227.21
963.54	227.20
963.83	227.20
964.13	227.18
964.42	227.12
964.72	227.06
965.01	227.01
965.31	227.01
965.60	226.98
965.90	227.03
966.19	226.97
966.49	226.97
966.78	226.94
967.08	226.93
967.37	226.94
967.67	226.92
967.96	226.94
968.26	226.93
968.55	226.95
968.85	226.96
969.14	226.93
969.43	226.92
969.73	226.92
970.02	226.92
970.32	226.94
970.61	226.97
970.91	226.92
971.20	226.93
971.49	226.93
971.79	226.95
972.08	226.87
972.38	226.89
972.67	226.86
972.96	226.88
973.26	226.84
973.55	226.86
973.85	226.86
974.14	226.82
974.43	226.81
974.73	226.80
975.02	226.75
975.31	226.74
975.61	226.75
975.90	226.76
976.19	226.77
976.49	226.77
976.78	226.78
977.07	226.81
977.37	226.80
977.66	226.83
977.95	226.79
978.24	226.78
978.54	226.79
978.83	226.79
979.12	226.76
979.42	226.74
979.71	226.70
980.00	226.71
980.29	226.74
980.59	226.72
980.88	226.73
981.17	226.73
981.46	226.72
981.76	226.71
982.05	226.71
982.34	226.68
982.63	226.65
982.93	226.64
983.22	226.65
983.51	226.64
983.80	226.64
984.09	226.66
984.39	226.65
984.68	226.65
984.97	226.63
985.26	226.63
985.55	226.68
985.85	226.66
986.14	226.65
986.43	226.66
986.72	226.67
987.01	226.64
987.30	226.66
987.59	226.70
987.89	226.68
988.18	226.65
988.47	226.65
988.76	226.67
989.05	226.67
989.34	226.68
989.63	226.71
989.92	226.72
990.22	226.72
990.51	226.71
990.80	226.70
991.09	226.73
991.38	226.77
991.67	226.72
991.96	226.74
992.25	226.75
992.54	226.71
992.83	226.71
993.12	226.70
993.41	226.71
993.70	226.73
993.99	226.81
994.28	226.82
994.58	226.83
994.87	226.83
995.16	226.83
995.45	226.82
995.74	226.80
996.03	226.82
996.32	226.81
996.61	226.87
996.90	226.91
997.19	226.91
997.48	226.91
997.77	226.90
998.06	226.90
998.34	226.90
998.63	226.94
998.92	226.91
999.21	226.93
999.50	226.91
999.79	226.90
1000.08	226.86
1000.37	226.89
1000.66	226.89
1000.95	226.92
1001.24	226.94
1001.53	226.95
1001.82	226.95
1002.11	226.92
1002.40	226.94
1002.68	226.96
1002.97	226.95
1003.26	226.93
1003.55	226.89
1003.84	226.91
1004.13	226.95
1004.42	226.96
1004.71	226.93
1004.99	226.94
1005.28	226.97
1005.57	226.98
1005.86	226.96
1006.15	226.97
1006.44	226.94
1006.72	226.96
1007.01	226.93
1007.30	226.92
1007.59	226.86
1007.88	226.85
1008.17	226.82
1008.45	226.78
1008.74	226.72
1009.03	226.71
1009.32	226.71
1009.60	226.73
1009.89	226.73
1010.18	226.68
1010.47	226.64
1010.76	226.63
1011.04	226.63
1011.33	226.62
1011.62	226.62
1011.91	226.61
1012.19	226.59
1012.48	226.58
1012.77	226.56
1013.05	226.58
1013.34	226.56
1013.63	226.59
1013.92	226.60
1014.20	226.61
1014.49	226.62
1014.78	226.65
1015.06	226.59
1015.35	226.59
1015.64	226.59
1015.92	226.63
1016.21	226.63
1016.50	226.62
1016.78	226.65
1017.07	226.67
1017.36	226.67
1017.64	226.64
1017.93	226.68
1018.22	226.65
1018.50	226.63
1018.79	226.62
1019.08	226.57
1019.36	226.58
1019.65	226.59
1019.93	226.61
1020.22	226.60
1020.51	226.65
1020.79	226.63
1021.08	226.06
1021.36	226.01
1021.65	226.55
1021.94	226.27
1022.22	226.18
1022.51	227.02
1022.79	227.35
1023.08	226.24
1023.36	227.58
1023.65	226.45
>>>>>End Processed Spectral Data<<<<<
