SpectraSuite Data File
++++++++++++++++++++++++++++++++++++
Date: Fri Feb 01 17:26:49 EST 2013
User: group
Dark Spectrum Present: No
Reference Spectrum Present: No
Number of Sampled Component Spectra: 1
Spectrometers: USB2E7196
Integration Time (usec): 35000 (USB2E7196)
Spectra Averaged: 100 (USB2E7196)
Boxcar Smoothing: 10 (USB2E7196)
Correct for Electrical Dark: No (USB2E7196)
Strobe/Lamp Enabled: No (USB2E7196)
Correct for Detector Non-linearity: No (USB2E7196)
Correct for Stray Light: No (USB2E7196)
Number of Pixels in Processed Spectrum: 2048
>>>>>Begin Processed Spectral Data<<<<<
339.09	0.00
339.48	213.02
339.86	214.36
340.24	215.90
340.63	217.13
341.01	220.44
341.39	219.45
341.78	221.19
342.16	222.57
342.54	222.81
342.93	211.27
343.31	221.95
343.69	222.49
344.07	222.96
344.46	223.36
344.84	223.73
345.22	223.92
345.60	224.16
345.99	224.34
346.37	224.47
346.75	224.55
347.13	224.62
347.52	224.67
347.90	224.74
348.28	224.78
348.66	224.79
349.05	224.82
349.43	224.89
349.81	224.94
350.19	224.99
350.57	225.05
350.96	225.09
351.34	225.17
351.72	225.23
352.10	225.32
352.48	225.41
352.87	225.46
353.25	225.52
353.63	225.60
354.01	225.65
354.39	225.70
354.77	225.82
355.15	225.94
355.54	226.01
355.92	226.04
356.30	226.12
356.68	226.25
357.06	226.31
357.44	226.36
357.82	226.44
358.20	226.46
358.58	226.54
358.97	226.60
359.35	226.67
359.73	226.75
360.11	226.79
360.49	226.83
360.87	226.89
361.25	226.96
361.63	227.04
362.01	227.10
362.39	227.11
362.77	227.14
363.15	227.16
363.53	227.20
363.91	227.20
364.29	227.22
364.67	227.15
365.05	227.15
365.43	227.18
365.81	227.19
366.19	227.26
366.57	227.26
366.95	227.26
367.33	227.20
367.71	227.20
368.09	227.20
368.47	227.18
368.85	227.15
369.23	227.16
369.61	227.12
369.99	227.13
370.37	227.13
370.75	227.17
371.13	227.11
371.51	227.04
371.89	227.03
372.27	226.97
372.65	226.97
373.03	226.92
373.41	226.87
373.78	226.83
374.16	226.76
374.54	226.71
374.92	226.64
375.30	226.63
375.68	226.57
376.06	226.54
376.44	226.50
376.82	226.46
377.19	226.40
377.57	226.30
377.95	226.18
378.33	226.11
378.71	225.95
379.09	225.90
379.47	225.91
379.84	225.86
380.22	225.80
380.60	225.73
380.98	225.70
381.36	225.61
381.73	225.51
382.11	225.44
382.49	225.37
382.87	225.31
383.25	225.24
383.62	225.29
384.00	225.21
384.38	225.14
384.76	225.08
385.13	225.05
385.51	225.00
385.89	224.96
386.27	224.96
386.64	224.94
387.02	224.91
387.40	224.85
387.78	224.77
388.15	224.75
388.53	224.69
388.91	224.63
389.29	224.59
389.66	224.56
390.04	224.53
390.42	224.52
390.79	224.54
391.17	224.54
391.55	224.39
391.92	224.33
392.30	224.35
392.68	224.29
393.05	224.25
393.43	224.27
393.81	224.29
394.18	224.25
394.56	224.26
394.94	224.27
395.31	224.24
395.69	224.29
396.06	224.33
396.44	224.34
396.82	224.40
397.19	224.46
397.57	224.53
397.95	224.58
398.32	224.57
398.70	224.60
399.07	224.67
399.45	224.74
399.82	224.82
400.20	224.85
400.58	224.96
400.95	225.04
401.33	225.15
401.70	225.27
402.08	225.33
402.45	225.45
402.83	225.60
403.20	225.70
403.58	225.79
403.95	225.92
404.33	226.04
404.71	226.11
405.08	226.29
405.46	226.40
405.83	226.58
406.21	226.74
406.58	226.91
406.96	227.05
407.33	227.25
407.70	227.44
408.08	227.70
408.45	227.92
408.83	228.15
409.20	228.37
409.58	228.55
409.95	228.81
410.33	229.05
410.70	229.30
411.08	229.60
411.45	229.94
411.82	230.24
412.20	230.65
412.57	231.11
412.95	231.42
413.32	231.86
413.69	232.22
414.07	232.68
414.44	233.16
414.82	233.66
415.19	234.22
415.56	234.78
415.94	235.36
416.31	236.03
416.68	236.68
417.06	237.39
417.43	238.13
417.81	238.96
418.18	239.79
418.55	240.61
418.93	241.54
419.30	242.49
419.67	243.48
420.04	244.46
420.42	245.46
420.79	246.69
421.16	247.89
421.54	249.15
421.91	250.42
422.28	251.73
422.66	253.11
423.03	254.44
423.40	255.85
423.77	257.32
424.15	258.81
424.52	260.32
424.89	262.04
425.26	263.65
425.64	265.15
426.01	266.83
426.38	268.60
426.75	270.32
427.13	272.11
427.50	273.96
427.87	275.89
428.24	277.85
428.61	279.67
428.99	281.68
429.36	283.85
429.73	285.98
430.10	288.11
430.47	290.21
430.85	292.43
431.22	294.77
431.59	297.18
431.96	299.52
432.33	302.12
432.70	304.56
433.08	307.46
433.45	310.22
433.82	312.90
434.19	315.90
434.56	318.81
434.93	321.56
435.30	324.23
435.68	327.26
436.05	330.20
436.42	333.11
436.79	335.73
437.16	338.59
437.53	341.56
437.90	344.47
438.27	347.34
438.64	350.27
439.01	352.97
439.38	355.33
439.75	357.58
440.13	360.16
440.50	362.61
440.87	364.55
441.24	366.53
441.61	368.80
441.98	370.28
442.35	372.17
442.72	374.10
443.09	376.07
443.46	377.07
443.83	377.72
444.20	378.24
444.57	379.12
444.94	379.41
445.31	379.71
445.68	380.07
446.05	380.20
446.42	379.85
446.79	379.43
447.16	378.98
447.53	378.64
447.90	377.51
448.27	376.30
448.64	374.64
449.01	373.49
449.37	371.44
449.74	369.51
450.11	367.21
450.48	364.66
450.85	361.97
451.22	359.79
451.59	357.66
451.96	355.65
452.33	352.94
452.70	350.47
453.07	347.59
453.43	344.56
453.80	341.63
454.17	338.85
454.54	336.18
454.91	333.36
455.28	330.63
455.65	327.95
456.02	325.41
456.38	323.19
456.75	320.48
457.12	318.13
457.49	315.76
457.86	313.45
458.23	311.54
458.59	309.42
458.96	307.25
459.33	305.35
459.70	303.41
460.07	301.87
460.43	300.09
460.80	298.38
461.17	296.89
461.54	295.34
461.91	293.84
462.27	292.33
462.64	290.99
463.01	289.58
463.38	288.26
463.74	286.84
464.11	285.63
464.48	284.53
464.85	283.39
465.21	282.53
465.58	281.62
465.95	280.47
466.32	279.54
466.68	278.58
467.05	277.63
467.42	276.68
467.78	275.68
468.15	274.80
468.52	274.11
468.88	273.24
469.25	272.44
469.62	271.83
469.98	271.12
470.35	270.49
470.72	269.85
471.08	269.18
471.45	268.62
471.82	268.06
472.18	267.45
472.55	266.99
472.92	266.49
473.28	265.99
473.65	265.55
474.02	265.12
474.38	264.75
474.75	264.42
475.11	264.06
475.48	263.82
475.85	263.56
476.21	263.31
476.58	263.14
476.94	263.00
477.31	262.80
477.67	262.67
478.04	262.52
478.41	262.46
478.77	262.53
479.14	262.48
479.50	262.49
479.87	262.53
480.23	262.59
480.60	262.66
480.96	262.77
481.33	262.96
481.69	263.15
482.06	263.34
482.42	263.55
482.79	263.85
483.15	264.16
483.52	264.55
483.88	264.91
484.25	265.26
484.61	265.72
484.98	266.16
485.34	266.73
485.71	267.37
486.07	267.95
486.44	268.48
486.80	269.17
487.17	269.89
487.53	270.74
487.90	271.63
488.26	272.58
488.62	273.56
488.99	274.52
489.35	275.60
489.72	276.75
490.08	277.95
490.44	279.16
490.81	280.51
491.17	281.86
491.54	283.35
491.90	284.89
492.26	286.51
492.63	288.23
492.99	290.02
493.36	291.87
493.72	293.94
494.08	296.05
494.45	298.23
494.81	300.59
495.17	303.00
495.54	305.50
495.90	308.13
496.26	310.87
496.63	313.81
496.99	316.87
497.35	320.09
497.72	323.49
498.08	327.00
498.44	330.61
498.80	334.48
499.17	338.49
499.53	342.62
499.89	346.97
500.26	351.48
500.62	356.07
500.98	361.01
501.34	365.99
501.71	371.21
502.07	376.62
502.43	382.14
502.79	387.88
503.16	393.87
503.52	400.02
503.88	406.35
504.24	412.88
504.60	419.69
504.97	426.72
505.33	433.90
505.69	441.47
506.05	449.13
506.41	456.84
506.78	464.82
507.14	473.15
507.50	481.69
507.86	490.44
508.22	499.44
508.59	508.50
508.95	517.88
509.31	527.56
509.67	537.48
510.03	547.60
510.39	557.96
510.75	568.56
511.12	579.29
511.48	590.34
511.84	601.54
512.20	612.81
512.56	624.41
512.92	636.26
513.28	648.39
513.64	660.55
514.00	673.00
514.37	685.63
514.73	698.35
515.09	711.16
515.45	724.18
515.81	737.56
516.17	751.18
516.53	765.07
516.89	778.85
517.25	792.72
517.61	806.75
517.97	820.92
518.33	834.92
518.69	849.28
519.05	863.82
519.41	878.61
519.77	893.68
520.13	908.81
520.49	923.79
520.85	938.67
521.21	953.99
521.57	969.78
521.93	985.11
522.29	1001.00
522.65	1016.78
523.01	1032.45
523.37	1048.05
523.73	1063.68
524.09	1079.29
524.45	1095.13
524.81	1111.17
525.17	1127.41
525.53	1143.73
525.89	1160.19
526.25	1176.58
526.61	1192.53
526.97	1208.82
527.33	1224.91
527.68	1240.95
528.04	1257.04
528.40	1273.18
528.76	1289.77
529.12	1306.02
529.48	1322.56
529.84	1338.18
530.20	1354.31
530.56	1370.79
530.91	1387.62
531.27	1404.09
531.63	1420.00
531.99	1436.19
532.35	1451.88
532.71	1467.49
533.07	1483.40
533.42	1499.10
533.78	1514.89
534.14	1530.81
534.50	1545.80
534.86	1561.27
535.21	1576.32
535.57	1591.92
535.93	1607.04
536.29	1621.50
536.65	1636.25
537.00	1650.58
537.36	1665.65
537.72	1679.97
538.08	1694.31
538.44	1707.92
538.79	1721.59
539.15	1735.02
539.51	1748.56
539.87	1762.58
540.22	1776.03
540.58	1789.57
540.94	1802.54
541.29	1815.01
541.65	1827.46
542.01	1840.57
542.37	1852.80
542.72	1865.05
543.08	1876.78
543.44	1889.17
543.79	1900.43
544.15	1911.18
544.51	1922.70
544.87	1933.54
545.22	1944.32
545.58	1954.55
545.94	1964.42
546.29	1974.31
546.65	1984.46
547.01	1993.81
547.36	2002.71
547.72	2011.46
548.07	2019.50
548.43	2027.66
548.79	2035.66
549.14	2043.71
549.50	2051.15
549.86	2058.88
550.21	2066.20
550.57	2073.48
550.92	2080.22
551.28	2087.44
551.64	2094.90
551.99	2101.64
552.35	2108.15
552.70	2114.44
553.06	2120.77
553.41	2127.35
553.77	2133.58
554.13	2139.73
554.48	2146.10
554.84	2152.00
555.19	2157.30
555.55	2162.79
555.90	2167.77
556.26	2173.26
556.61	2178.17
556.97	2182.90
557.32	2187.42
557.68	2192.08
558.03	2196.58
558.39	2200.63
558.74	2205.50
559.10	2209.67
559.45	2213.68
559.81	2218.23
560.16	2222.42
560.52	2225.92
560.87	2229.51
561.23	2232.33
561.58	2235.48
561.94	2238.33
562.29	2240.99
562.64	2244.33
563.00	2247.07
563.35	2250.75
563.71	2254.27
564.06	2257.67
564.42	2260.86
564.77	2263.82
565.12	2266.52
565.48	2269.02
565.83	2271.40
566.19	2273.24
566.54	2274.36
566.89	2276.05
567.25	2277.15
567.60	2278.83
567.96	2281.07
568.31	2282.41
568.66	2284.09
569.02	2285.25
569.37	2286.02
569.72	2287.19
570.08	2287.69
570.43	2288.21
570.78	2288.09
571.14	2286.91
571.49	2285.93
571.84	2285.86
572.20	2285.08
572.55	2284.28
572.90	2282.99
573.26	2282.01
573.61	2280.43
573.96	2279.28
574.31	2276.56
574.67	2273.91
575.02	2270.70
575.37	2267.55
575.72	2264.15
576.08	2261.15
576.43	2258.17
576.78	2255.02
577.13	2252.19
577.49	2249.17
577.84	2246.11
578.19	2242.78
578.54	2239.57
578.90	2235.91
579.25	2230.80
579.60	2226.24
579.95	2221.67
580.30	2216.88
580.66	2211.98
581.01	2207.46
581.36	2202.82
581.71	2199.12
582.06	2195.08
582.42	2191.07
582.77	2186.22
583.12	2181.98
583.47	2177.71
583.82	2173.19
584.17	2168.15
584.53	2162.97
584.88	2157.80
585.23	2152.27
585.58	2147.04
585.93	2141.77
586.28	2136.93
586.63	2132.08
586.98	2127.34
587.34	2122.79
587.69	2118.21
588.04	2113.47
588.39	2108.11
588.74	2101.94
589.09	2096.01
589.44	2089.40
589.79	2083.38
590.14	2077.87
590.49	2071.49
590.84	2065.14
591.19	2059.32
591.54	2053.08
591.89	2046.14
592.25	2039.74
592.60	2032.85
592.95	2025.50
593.30	2018.41
593.65	2011.14
594.00	2004.32
594.35	1997.18
594.70	1989.29
595.05	1982.39
595.40	1974.99
595.75	1967.60
596.10	1961.58
596.45	1954.91
596.80	1948.99
597.15	1942.61
597.50	1935.86
597.85	1929.56
598.19	1923.09
598.54	1916.19
598.89	1909.73
599.24	1903.82
599.59	1897.42
599.94	1891.22
600.29	1885.05
600.64	1878.43
600.99	1871.13
601.34	1864.41
601.69	1857.49
602.04	1850.89
602.39	1843.61
602.74	1836.87
603.08	1830.36
603.43	1823.61
603.78	1816.54
604.13	1809.35
604.48	1802.18
604.83	1795.18
605.18	1788.48
605.53	1780.79
605.87	1772.78
606.22	1765.40
606.57	1757.38
606.92	1749.67
607.27	1742.51
607.62	1735.62
607.96	1728.64
608.31	1722.24
608.66	1714.72
609.01	1707.23
609.36	1699.73
609.70	1691.83
610.05	1683.87
610.40	1676.20
610.75	1667.96
611.10	1660.24
611.44	1651.71
611.79	1643.61
612.14	1635.03
612.49	1625.67
612.83	1616.97
613.18	1608.63
613.53	1600.55
613.88	1591.98
614.22	1583.74
614.57	1575.11
614.92	1567.09
615.27	1559.49
615.61	1551.06
615.96	1542.89
616.31	1535.11
616.65	1527.56
617.00	1519.83
617.35	1511.94
617.70	1503.68
618.04	1494.97
618.39	1486.54
618.74	1478.99
619.08	1470.63
619.43	1462.94
619.78	1455.84
620.12	1448.74
620.47	1441.22
620.82	1433.00
621.16	1425.47
621.51	1417.77
621.85	1410.04
622.20	1401.43
622.55	1392.86
622.89	1384.89
623.24	1377.23
623.59	1369.67
623.93	1362.03
624.28	1354.76
624.62	1347.30
624.97	1339.86
625.32	1333.01
625.66	1325.88
626.01	1318.63
626.35	1311.29
626.70	1303.46
627.04	1295.72
627.39	1287.77
627.73	1280.30
628.08	1273.26
628.43	1266.04
628.77	1258.61
629.12	1251.02
629.46	1243.75
629.81	1236.13
630.15	1228.79
630.50	1221.24
630.84	1213.07
631.19	1204.94
631.53	1197.31
631.88	1189.51
632.22	1181.89
632.57	1174.42
632.91	1166.81
633.26	1159.23
633.60	1151.67
633.95	1144.40
634.29	1137.19
634.64	1130.39
634.98	1122.97
635.32	1115.78
635.67	1109.02
636.01	1102.30
636.36	1095.46
636.70	1088.79
637.05	1082.26
637.39	1075.72
637.73	1069.26
638.08	1063.22
638.42	1057.25
638.77	1050.68
639.11	1044.14
639.45	1037.63
639.80	1031.03
640.14	1024.61
640.49	1018.11
640.83	1011.70
641.17	1005.53
641.52	999.34
641.86	992.89
642.20	986.96
642.55	980.51
642.89	973.99
643.23	967.29
643.58	961.56
643.92	955.37
644.26	949.34
644.61	943.26
644.95	937.20
645.29	930.66
645.64	923.93
645.98	917.57
646.32	911.64
646.66	905.53
647.01	899.70
647.35	893.98
647.69	888.03
648.04	882.44
648.38	876.54
648.72	870.54
649.06	864.42
649.41	858.46
649.75	852.53
650.09	846.55
650.43	840.81
650.78	834.59
651.12	828.53
651.46	822.75
651.80	817.02
652.14	811.56
652.49	806.16
652.83	800.94
653.17	795.33
653.51	789.71
653.85	784.31
654.20	778.67
654.54	772.65
654.88	766.89
655.22	760.96
655.56	755.18
655.90	749.60
656.25	744.35
656.59	738.98
656.93	733.90
657.27	728.76
657.61	723.29
657.95	718.10
658.29	713.07
658.64	707.72
658.98	702.32
659.32	696.81
659.66	691.67
660.00	686.34
660.34	681.33
660.68	676.33
661.02	671.30
661.36	666.53
661.70	662.00
662.05	657.60
662.39	653.39
662.73	648.99
663.07	644.56
663.41	640.07
663.75	635.61
664.09	630.99
664.43	626.55
664.77	622.52
665.11	618.28
665.45	614.15
665.79	610.14
666.13	606.09
666.47	602.00
666.81	597.81
667.15	593.66
667.49	589.67
667.83	585.76
668.17	581.78
668.51	577.72
668.85	573.64
669.19	569.78
669.53	565.86
669.87	561.99
670.21	558.31
670.55	554.68
670.89	551.26
671.23	547.80
671.57	544.25
671.91	540.69
672.25	537.14
672.58	533.57
672.92	530.06
673.26	526.82
673.60	523.55
673.94	520.40
674.28	517.40
674.62	514.47
674.96	511.41
675.30	508.48
675.64	505.50
675.97	502.72
676.31	499.86
676.65	496.90
676.99	494.13
677.33	491.27
677.67	488.39
678.01	485.30
678.34	482.34
678.68	479.39
679.02	476.50
679.36	473.72
679.70	470.93
680.04	468.14
680.37	465.28
680.71	462.49
681.05	459.86
681.39	457.13
681.73	454.45
682.06	451.90
682.40	449.34
682.74	446.78
683.08	444.12
683.42	441.49
683.75	439.01
684.09	436.38
684.43	433.86
684.77	431.39
685.10	428.95
685.44	426.57
685.78	424.29
686.12	422.00
686.45	419.70
686.79	417.38
687.13	415.19
687.46	412.97
687.80	410.83
688.14	408.57
688.48	406.51
688.81	404.27
689.15	402.08
689.49	399.91
689.82	397.75
690.16	395.69
690.50	393.69
690.83	391.69
691.17	389.68
691.51	387.74
691.84	385.90
692.18	383.99
692.52	382.05
692.85	380.11
693.19	378.21
693.52	376.30
693.86	374.50
694.20	372.65
694.53	370.85
694.87	368.96
695.21	367.12
695.54	365.24
695.88	363.43
696.21	361.68
696.55	359.95
696.88	358.31
697.22	356.63
697.56	354.96
697.89	353.29
698.23	351.69
698.56	350.04
698.90	348.38
699.23	346.73
699.57	345.12
699.90	343.54
700.24	341.98
700.58	340.52
700.91	339.02
701.25	337.55
701.58	336.13
701.92	334.72
702.25	333.32
702.59	331.96
702.92	330.63
703.26	329.29
703.59	328.03
703.93	326.80
704.26	325.55
704.60	324.25
704.93	323.00
705.26	321.75
705.60	320.52
705.93	319.35
706.27	318.27
706.60	317.21
706.94	316.14
707.27	314.99
707.61	313.88
707.94	312.81
708.27	311.70
708.61	310.64
708.94	309.62
709.28	308.64
709.61	307.64
709.94	306.70
710.28	305.66
710.61	304.68
710.95	303.60
711.28	302.63
711.61	301.63
711.95	300.67
712.28	299.71
712.61	298.77
712.95	297.84
713.28	296.91
713.61	295.96
713.95	295.06
714.28	294.20
714.61	293.32
714.95	292.45
715.28	291.60
715.61	290.66
715.95	289.83
716.28	288.98
716.61	288.13
716.95	287.23
717.28	286.49
717.61	285.66
717.94	284.90
718.28	284.08
718.61	283.37
718.94	282.65
719.27	281.95
719.61	281.28
719.94	280.59
720.27	279.88
720.60	279.25
720.94	278.58
721.27	277.95
721.60	277.37
721.93	276.76
722.27	276.18
722.60	275.62
722.93	275.03
723.26	274.44
723.59	273.89
723.93	273.38
724.26	272.78
724.59	272.20
724.92	271.69
725.25	271.20
725.59	270.66
725.92	270.14
726.25	269.60
726.58	269.09
726.91	268.57
727.24	268.07
727.57	267.57
727.91	267.07
728.24	266.60
728.57	266.07
728.90	265.57
729.23	265.08
729.56	264.68
729.89	264.19
730.22	263.71
730.55	263.23
730.89	262.73
731.22	262.31
731.55	261.87
731.88	261.43
732.21	260.97
732.54	260.52
732.87	260.05
733.20	259.68
733.53	259.28
733.86	258.91
734.19	258.54
734.52	258.14
734.85	257.81
735.18	257.39
735.51	257.03
735.84	256.64
736.17	256.26
736.50	255.80
736.83	255.57
737.16	255.23
737.49	254.90
737.82	254.57
738.15	254.23
738.48	253.86
738.81	253.53
739.14	253.24
739.47	252.94
739.80	252.65
740.13	252.34
740.46	252.03
740.79	251.70
741.12	251.36
741.45	251.04
741.78	250.70
742.11	250.38
742.44	250.06
742.77	249.79
743.10	249.49
743.43	249.18
743.75	248.75
744.08	248.61
744.41	248.33
744.74	248.05
745.07	247.76
745.40	247.55
745.73	247.32
746.06	247.03
746.39	246.78
746.71	246.49
747.04	246.21
747.37	245.93
747.70	245.68
748.03	245.43
748.36	245.22
748.68	244.96
749.01	244.74
749.34	244.50
749.67	244.24
750.00	244.04
750.33	243.90
750.65	243.68
750.98	243.31
751.31	243.07
751.64	242.85
751.97	242.66
752.29	242.40
752.62	242.12
752.95	241.88
753.28	241.64
753.60	241.44
753.93	241.24
754.26	241.04
754.59	240.79
754.91	240.59
755.24	240.38
755.57	240.16
755.90	239.97
756.22	239.74
756.55	239.57
756.88	239.36
757.20	239.13
757.53	238.96
757.86	238.80
758.19	238.64
758.51	238.43
758.84	238.23
759.17	238.06
759.49	237.92
759.82	237.81
760.15	237.64
760.47	237.48
760.80	237.31
761.13	237.18
761.45	237.02
761.78	236.85
762.11	236.70
762.43	236.56
762.76	236.42
763.08	236.32
763.41	236.19
763.74	236.07
764.06	235.92
764.39	235.74
764.71	235.56
765.04	235.43
765.37	235.33
765.69	235.21
766.02	235.10
766.34	234.95
766.67	234.78
767.00	234.69
767.32	234.59
767.65	234.53
767.97	234.38
768.30	234.25
768.62	234.15
768.95	234.02
769.27	233.89
769.60	233.75
769.92	233.62
770.25	233.48
770.57	233.36
770.90	233.23
771.22	233.18
771.55	233.08
771.87	232.99
772.20	232.90
772.52	232.90
772.85	232.91
773.17	232.82
773.50	232.73
773.82	232.65
774.15	232.53
774.47	232.40
774.80	232.29
775.12	232.22
775.45	232.16
775.77	232.07
776.09	231.99
776.42	231.92
776.74	231.88
777.07	231.82
777.39	231.75
777.72	231.68
778.04	231.57
778.36	231.50
778.69	231.44
779.01	231.33
779.33	231.18
779.66	230.99
779.98	230.91
780.31	230.84
780.63	230.81
780.95	230.78
781.28	230.69
781.60	230.63
781.92	230.59
782.25	230.50
782.57	230.43
782.89	230.40
783.22	230.31
783.54	230.22
783.86	230.16
784.19	230.08
784.51	230.06
784.83	230.00
785.16	229.96
785.48	229.87
785.80	229.82
786.12	229.76
786.45	229.70
786.77	229.69
787.09	229.68
787.42	229.57
787.74	229.51
788.06	229.48
788.38	229.43
788.71	229.37
789.03	229.32
789.35	229.31
789.67	229.24
789.99	229.22
790.32	229.17
790.64	229.11
790.96	229.15
791.28	229.08
791.61	229.05
791.93	229.05
792.25	229.01
792.57	229.07
792.89	229.03
793.21	229.02
793.54	228.97
793.86	228.86
794.18	228.83
794.50	228.80
794.82	228.77
795.14	228.76
795.47	228.73
795.79	228.72
796.11	228.66
796.43	228.61
796.75	228.56
797.07	228.56
797.39	228.54
797.71	228.47
798.04	228.45
798.36	228.42
798.68	228.37
799.00	228.34
799.32	228.28
799.64	228.27
799.96	228.21
800.28	228.20
800.60	228.18
800.92	228.17
801.24	228.14
801.56	228.11
801.89	228.04
802.21	228.01
802.53	227.96
802.85	227.98
803.17	228.01
803.49	227.98
803.81	227.91
804.13	227.90
804.45	227.82
804.77	227.80
805.09	227.74
805.41	227.71
805.73	227.68
806.05	227.57
806.37	227.52
806.69	227.47
807.01	227.42
807.33	227.42
807.65	227.33
807.97	227.33
808.28	227.32
808.60	227.31
808.92	227.29
809.24	227.34
809.56	227.27
809.88	227.22
810.20	227.20
810.52	227.22
810.84	227.18
811.16	227.13
811.48	227.09
811.80	227.10
812.12	227.05
812.43	227.02
812.75	227.04
813.07	227.01
813.39	227.03
813.71	226.99
814.03	226.94
814.35	226.96
814.67	226.92
814.98	226.84
815.30	226.82
815.62	226.77
815.94	226.67
816.26	226.71
816.58	226.66
816.89	226.65
817.21	226.64
817.53	226.64
817.85	226.64
818.17	226.61
818.48	226.56
818.80	226.61
819.12	226.61
819.44	226.60
819.76	226.57
820.07	226.55
820.39	226.53
820.71	226.53
821.03	226.53
821.34	226.50
821.66	226.53
821.98	226.55
822.30	226.57
822.61	226.61
822.93	226.54
823.25	226.55
823.57	226.54
823.88	226.52
824.20	226.51
824.52	226.50
824.83	226.53
825.15	226.51
825.47	226.47
825.79	226.47
826.10	226.43
826.42	226.41
826.74	226.38
827.05	226.41
827.37	226.42
827.69	226.38
828.00	226.35
828.32	226.34
828.64	226.30
828.95	226.31
829.27	226.27
829.58	226.28
829.90	226.28
830.22	226.29
830.53	226.24
830.85	226.19
831.17	226.19
831.48	226.13
831.80	226.15
832.11	226.12
832.43	226.05
832.75	226.08
833.06	226.15
833.38	226.12
833.69	226.06
834.01	226.02
834.32	225.96
834.64	225.96
834.96	225.94
835.27	225.91
835.59	225.90
835.90	225.86
836.22	225.82
836.53	225.78
836.85	225.73
837.16	225.80
837.48	225.81
837.79	225.80
838.11	225.80
838.42	225.79
838.74	225.81
839.05	225.83
839.37	225.80
839.68	225.69
840.00	225.68
840.31	225.69
840.63	225.68
840.94	225.69
841.26	225.66
841.57	225.63
841.88	225.66
842.20	225.62
842.51	225.63
842.83	225.64
843.14	225.72
843.46	225.72
843.77	225.66
844.08	225.70
844.40	225.69
844.71	225.67
845.03	225.65
845.34	225.66
845.65	225.65
845.97	225.64
846.28	225.63
846.60	225.64
846.91	225.63
847.22	225.65
847.54	225.68
847.85	225.68
848.16	225.68
848.48	225.65
848.79	225.67
849.10	225.64
849.42	225.63
849.73	225.55
850.04	225.55
850.36	225.52
850.67	225.49
850.98	225.47
851.30	225.49
851.61	225.48
851.92	225.45
852.23	225.48
852.55	225.48
852.86	225.53
853.17	225.51
853.49	225.53
853.80	225.53
854.11	225.54
854.42	225.56
854.74	225.52
855.05	225.51
855.36	225.47
855.67	225.46
855.99	225.48
856.30	225.56
856.61	225.54
856.92	225.53
857.23	225.53
857.55	225.53
857.86	225.53
858.17	225.58
858.48	225.54
858.79	225.50
859.11	225.52
859.42	225.50
859.73	225.49
860.04	225.50
860.35	225.48
860.66	225.46
860.98	225.45
861.29	225.47
861.60	225.48
861.91	225.52
862.22	225.53
862.53	225.49
862.84	225.41
863.16	225.45
863.47	225.43
863.78	225.42
864.09	225.44
864.40	225.43
864.71	225.39
865.02	225.41
865.33	225.43
865.64	225.40
865.95	225.43
866.27	225.49
866.58	225.49
866.89	225.48
867.20	225.49
867.51	225.45
867.82	225.47
868.13	225.52
868.44	225.50
868.75	225.52
869.06	225.53
869.37	225.53
869.68	225.47
869.99	225.50
870.30	225.50
870.61	225.49
870.92	225.46
871.23	225.49
871.54	225.48
871.85	225.49
872.16	225.51
872.47	225.47
872.78	225.40
873.09	225.37
873.40	225.38
873.71	225.37
874.02	225.37
874.33	225.35
874.64	225.28
874.95	225.31
875.26	225.27
875.56	225.26
875.87	225.24
876.18	225.24
876.49	225.33
876.80	225.31
877.11	225.26
877.42	225.27
877.73	225.26
878.04	225.24
878.35	225.20
878.66	225.17
878.96	225.16
879.27	225.17
879.58	225.18
879.89	225.15
880.20	225.18
880.51	225.17
880.82	225.15
881.12	225.11
881.43	225.02
881.74	224.99
882.05	224.99
882.36	224.98
882.67	224.98
882.97	224.86
883.28	224.83
883.59	224.83
883.90	224.84
884.21	224.87
884.51	224.85
884.82	224.83
885.13	224.84
885.44	224.83
885.74	224.79
886.05	224.76
886.36	224.77
886.67	224.69
886.98	224.76
887.28	224.80
887.59	224.82
887.90	224.84
888.20	224.82
888.51	224.83
888.82	224.84
889.13	224.88
889.43	224.96
889.74	224.96
890.05	224.95
890.35	224.91
890.66	224.84
890.97	224.84
891.28	224.85
891.58	224.85
891.89	224.87
892.20	224.90
892.50	224.90
892.81	224.86
893.12	224.87
893.42	224.83
893.73	224.83
894.04	224.84
894.34	224.88
894.65	224.92
894.95	224.88
895.26	224.88
895.57	224.90
895.87	224.84
896.18	224.87
896.48	224.90
896.79	224.91
897.10	224.93
897.40	224.96
897.71	224.96
898.01	224.95
898.32	224.96
898.63	224.95
898.93	224.96
899.24	224.98
899.54	224.99
899.85	224.97
900.15	224.95
900.46	224.94
900.76	224.90
901.07	224.88
901.38	224.90
901.68	224.90
901.99	224.86
902.29	224.86
902.60	224.87
902.90	224.83
903.21	224.85
903.51	224.84
903.82	224.87
904.12	224.92
904.43	224.94
904.73	224.92
905.03	224.94
905.34	225.06
905.64	225.07
905.95	225.04
906.25	225.06
906.56	225.07
906.86	225.07
907.17	225.11
907.47	225.11
907.77	225.10
908.08	225.07
908.38	225.04
908.69	225.03
908.99	225.03
909.30	225.04
909.60	225.03
909.90	225.04
910.21	224.97
910.51	224.91
910.81	224.88
911.12	224.91
911.42	224.87
911.73	224.76
912.03	224.74
912.33	224.80
912.64	224.78
912.94	224.79
913.24	224.78
913.55	224.74
913.85	224.73
914.15	224.71
914.46	224.74
914.76	224.74
915.06	224.73
915.37	224.75
915.67	224.73
915.97	224.74
916.27	224.75
916.58	224.78
916.88	224.79
917.18	224.84
917.49	224.85
917.79	224.86
918.09	224.84
918.39	224.90
918.70	224.86
919.00	224.87
919.30	224.90
919.60	224.89
919.91	224.91
920.21	224.95
920.51	224.97
920.81	224.93
921.12	224.96
921.42	224.99
921.72	224.98
922.02	225.01
922.32	225.01
922.63	225.02
922.93	225.09
923.23	225.09
923.53	225.07
923.83	225.03
924.13	225.04
924.44	225.07
924.74	225.09
925.04	225.15
925.34	225.13
925.64	225.10
925.94	225.11
926.24	225.18
926.55	225.16
926.85	225.19
927.15	225.21
927.45	225.22
927.75	225.20
928.05	225.20
928.35	225.18
928.65	225.17
928.95	225.16
929.26	225.10
929.56	225.12
929.86	225.13
930.16	225.14
930.46	225.14
930.76	225.16
931.06	225.08
931.36	225.07
931.66	225.10
931.96	225.08
932.26	225.09
932.56	225.06
932.86	225.08
933.16	225.09
933.46	225.11
933.76	225.09
934.06	225.13
934.36	225.16
934.66	225.18
934.96	225.20
935.26	225.22
935.56	225.22
935.86	225.23
936.16	225.23
936.46	225.21
936.76	225.21
937.06	225.18
937.36	225.19
937.66	225.17
937.96	225.19
938.26	225.17
938.56	225.21
938.86	225.19
939.16	225.21
939.46	225.22
939.76	225.23
940.06	225.22
940.35	225.18
940.65	225.14
940.95	225.15
941.25	225.14
941.55	225.12
941.85	225.13
942.15	225.10
942.45	225.11
942.75	225.12
943.04	225.11
943.34	225.14
943.64	225.16
943.94	225.15
944.24	225.16
944.54	225.19
944.84	225.13
945.13	225.11
945.43	225.07
945.73	225.05
946.03	225.02
946.33	225.01
946.62	225.01
946.92	224.99
947.22	224.99
947.52	224.98
947.82	225.02
948.11	225.00
948.41	225.02
948.71	224.99
949.01	224.98
949.31	224.98
949.60	224.99
949.90	225.02
950.20	225.02
950.50	224.98
950.79	224.94
951.09	224.97
951.39	224.98
951.69	224.97
951.98	224.99
952.28	225.01
952.58	225.00
952.87	225.01
953.17	225.02
953.47	224.99
953.76	224.98
954.06	224.93
954.36	224.93
954.66	224.89
954.95	224.93
955.25	224.92
955.55	224.93
955.84	224.92
956.14	224.88
956.44	224.86
956.73	224.84
957.03	224.85
957.32	224.82
957.62	224.80
957.92	224.80
958.21	224.80
958.51	224.89
958.81	224.89
959.10	224.93
959.40	224.95
959.69	224.95
959.99	224.96
960.29	224.98
960.58	224.99
960.88	225.04
961.17	225.05
961.47	225.07
961.76	225.04
962.06	225.03
962.36	225.05
962.65	225.08
962.95	225.07
963.24	225.08
963.54	225.11
963.83	225.15
964.13	225.17
964.42	225.12
964.72	225.07
965.01	225.06
965.31	225.02
965.60	225.00
965.90	225.09
966.19	225.07
966.49	225.08
966.78	225.07
967.08	225.02
967.37	224.98
967.67	224.97
967.96	224.98
968.26	224.96
968.55	224.98
968.85	224.95
969.14	224.99
969.43	224.99
969.73	224.98
970.02	224.97
970.32	224.95
970.61	224.94
970.91	224.90
971.20	224.90
971.49	224.92
971.79	224.94
972.08	224.90
972.38	224.91
972.67	224.90
972.96	224.88
973.26	224.89
973.55	224.91
973.85	224.89
974.14	224.90
974.43	224.95
974.73	224.92
975.02	224.93
975.31	224.91
975.61	224.91
975.90	224.89
976.19	224.87
976.49	224.89
976.78	224.91
977.07	224.89
977.37	224.87
977.66	224.86
977.95	224.84
978.24	224.81
978.54	224.84
978.83	224.82
979.12	224.83
979.42	224.80
979.71	224.80
980.00	224.78
980.29	224.79
980.59	224.75
980.88	224.75
981.17	224.72
981.46	224.72
981.76	224.72
982.05	224.74
982.34	224.73
982.63	224.72
982.93	224.74
983.22	224.75
983.51	224.76
983.80	224.76
984.09	224.75
984.39	224.73
984.68	224.68
984.97	224.68
985.26	224.66
985.55	224.68
985.85	224.64
986.14	224.67
986.43	224.67
986.72	224.65
987.01	224.62
987.30	224.61
987.59	224.62
987.89	224.62
988.18	224.59
988.47	224.59
988.76	224.58
989.05	224.58
989.34	224.59
989.63	224.62
989.92	224.62
990.22	224.61
990.51	224.62
990.80	224.64
991.09	224.64
991.38	224.68
991.67	224.67
991.96	224.67
992.25	224.66
992.54	224.63
992.83	224.66
993.12	224.68
993.41	224.72
993.70	224.74
993.99	224.73
994.28	224.74
994.58	224.75
994.87	224.75
995.16	224.71
995.45	224.71
995.74	224.69
996.03	224.69
996.32	224.70
996.61	224.76
996.90	224.76
997.19	224.75
997.48	224.75
997.77	224.76
998.06	224.76
998.34	224.79
998.63	224.81
998.92	224.82
999.21	224.82
999.50	224.80
999.79	224.78
1000.08	224.80
1000.37	224.82
1000.66	224.80
1000.95	224.85
1001.24	224.88
1001.53	224.91
1001.82	224.89
1002.11	224.88
1002.40	224.88
1002.68	224.90
1002.97	224.98
1003.26	224.97
1003.55	224.96
1003.84	224.97
1004.13	225.04
1004.42	225.03
1004.71	225.00
1004.99	225.02
1005.28	225.06
1005.57	225.07
1005.86	225.07
1006.15	225.07
1006.44	225.04
1006.72	225.07
1007.01	225.05
1007.30	225.06
1007.59	225.03
1007.88	225.04
1008.17	225.04
1008.45	225.02
1008.74	224.95
1009.03	224.92
1009.32	224.98
1009.60	224.98
1009.89	224.99
1010.18	224.93
1010.47	224.93
1010.76	224.94
1011.04	224.90
1011.33	224.85
1011.62	224.85
1011.91	224.85
1012.19	224.83
1012.48	224.80
1012.77	224.80
1013.05	224.85
1013.34	224.81
1013.63	224.79
1013.92	224.80
1014.20	224.78
1014.49	224.77
1014.78	224.77
1015.06	224.73
1015.35	224.67
1015.64	224.67
1015.92	224.66
1016.21	224.66
1016.50	224.64
1016.78	224.63
1017.07	224.63
1017.36	224.63
1017.64	224.61
1017.93	224.60
1018.22	224.61
1018.50	224.63
1018.79	224.60
1019.08	224.51
1019.36	224.51
1019.65	224.52
1019.93	224.54
1020.22	224.57
1020.51	224.60
1020.79	224.62
1021.08	224.70
1021.36	224.31
1021.65	224.43
1021.94	224.30
1022.22	224.22
1022.51	224.68
1022.79	225.11
1023.08	224.93
1023.36	225.28
1023.65	224.81
>>>>>End Processed Spectral Data<<<<<
