SpectraSuite Data File
++++++++++++++++++++++++++++++++++++
Date: Fri Feb 01 14:51:37 EST 2013
User: group
Dark Spectrum Present: No
Reference Spectrum Present: No
Number of Sampled Component Spectra: 1
Spectrometers: USB2E7196
Integration Time (usec): 35000 (USB2E7196)
Spectra Averaged: 100 (USB2E7196)
Boxcar Smoothing: 10 (USB2E7196)
Correct for Electrical Dark: No (USB2E7196)
Strobe/Lamp Enabled: No (USB2E7196)
Correct for Detector Non-linearity: No (USB2E7196)
Correct for Stray Light: No (USB2E7196)
Number of Pixels in Processed Spectrum: 2048
>>>>>Begin Processed Spectral Data<<<<<
339.09	0.00
339.48	215.48
339.86	218.02
340.24	218.21
340.63	219.31
341.01	222.14
341.39	221.73
341.78	223.79
342.16	224.59
342.54	224.98
342.93	213.70
343.31	224.52
343.69	225.04
344.07	225.45
344.46	225.87
344.84	226.26
345.22	226.50
345.60	226.79
345.99	226.94
346.37	227.07
346.75	227.18
347.13	227.26
347.52	227.33
347.90	227.41
348.28	227.45
348.66	227.46
349.05	227.45
349.43	227.48
349.81	227.53
350.19	227.55
350.57	227.59
350.96	227.68
351.34	227.75
351.72	227.86
352.10	227.93
352.48	228.00
352.87	228.07
353.25	228.15
353.63	228.22
354.01	228.29
354.39	228.42
354.77	228.50
355.15	228.59
355.54	228.66
355.92	228.71
356.30	228.80
356.68	228.95
357.06	229.01
357.44	229.09
357.82	229.16
358.20	229.25
358.58	229.33
358.97	229.41
359.35	229.47
359.73	229.57
360.11	229.64
360.49	229.72
360.87	229.83
361.25	229.90
361.63	229.98
362.01	230.10
362.39	230.09
362.77	230.16
363.15	230.18
363.53	230.20
363.91	230.20
364.29	230.19
364.67	230.14
365.05	230.16
365.43	230.16
365.81	230.18
366.19	230.21
366.57	230.27
366.95	230.25
367.33	230.25
367.71	230.20
368.09	230.20
368.47	230.18
368.85	230.11
369.23	230.09
369.61	230.02
369.99	229.96
370.37	229.95
370.75	229.96
371.13	229.90
371.51	229.85
371.89	229.82
372.27	229.79
372.65	229.73
373.03	229.66
373.41	229.63
373.78	229.54
374.16	229.42
374.54	229.29
374.92	229.22
375.30	229.11
375.68	229.04
376.06	228.96
376.44	228.86
376.82	228.78
377.19	228.69
377.57	228.60
377.95	228.50
378.33	228.40
378.71	228.23
379.09	228.15
379.47	228.05
379.84	227.95
380.22	227.84
380.60	227.76
380.98	227.68
381.36	227.58
381.73	227.51
382.11	227.47
382.49	227.40
382.87	227.34
383.25	227.28
383.62	227.30
384.00	227.24
384.38	227.18
384.76	227.13
385.13	227.07
385.51	227.01
385.89	226.96
386.27	226.88
386.64	226.85
387.02	226.80
387.40	226.79
387.78	226.77
388.15	226.74
388.53	226.70
388.91	226.66
389.29	226.64
389.66	226.63
390.04	226.59
390.42	226.57
390.79	226.51
391.17	226.50
391.55	226.40
391.92	226.39
392.30	226.42
392.68	226.43
393.05	226.43
393.43	226.45
393.81	226.45
394.18	226.48
394.56	226.49
394.94	226.55
395.31	226.56
395.69	226.64
396.06	226.67
396.44	226.72
396.82	226.78
397.19	226.88
397.57	226.94
397.95	227.02
398.32	227.08
398.70	227.18
399.07	227.28
399.45	227.35
399.82	227.41
400.20	227.50
400.58	227.58
400.95	227.66
401.33	227.76
401.70	227.96
402.08	228.05
402.45	228.17
402.83	228.30
403.20	228.44
403.58	228.54
403.95	228.71
404.33	228.84
404.71	229.00
405.08	229.18
405.46	229.31
405.83	229.45
406.21	229.65
406.58	229.83
406.96	229.99
407.33	230.17
407.70	230.42
408.08	230.69
408.45	230.94
408.83	231.17
409.20	231.40
409.58	231.58
409.95	231.88
410.33	232.17
410.70	232.43
411.08	232.71
411.45	233.02
411.82	233.35
412.20	233.69
412.57	234.09
412.95	234.40
413.32	234.82
413.69	235.25
414.07	235.68
414.44	236.16
414.82	236.65
415.19	237.22
415.56	237.74
415.94	238.24
416.31	238.88
416.68	239.50
417.06	240.25
417.43	240.92
417.81	241.67
418.18	242.47
418.55	243.29
418.93	244.17
419.30	245.06
419.67	245.95
420.04	246.92
420.42	247.91
420.79	249.08
421.16	250.23
421.54	251.43
421.91	252.63
422.28	253.89
422.66	255.21
423.03	256.49
423.40	257.80
423.77	259.24
424.15	260.61
424.52	262.13
424.89	263.71
425.26	265.24
425.64	266.69
426.01	268.27
426.38	269.93
426.75	271.57
427.13	273.25
427.50	275.04
427.87	276.90
428.24	278.74
428.61	280.46
428.99	282.39
429.36	284.46
429.73	286.51
430.10	288.50
430.47	290.55
430.85	292.68
431.22	294.89
431.59	297.25
431.96	299.47
432.33	301.95
432.70	304.32
433.08	307.16
433.45	309.81
433.82	312.40
434.19	315.30
434.56	318.15
434.93	320.84
435.30	323.49
435.68	326.41
436.05	329.24
436.42	332.02
436.79	334.55
437.16	337.23
437.53	340.05
437.90	342.82
438.27	345.60
438.64	348.40
439.01	351.08
439.38	353.34
439.75	355.53
440.13	357.96
440.50	360.29
440.87	362.11
441.24	363.99
441.61	366.11
441.98	367.54
442.35	369.32
442.72	371.17
443.09	372.92
443.46	373.89
443.83	374.48
444.20	374.99
444.57	375.82
444.94	376.14
445.31	376.52
445.68	376.92
446.05	376.97
446.42	376.57
446.79	376.10
447.16	375.68
447.53	375.37
447.90	374.21
448.27	373.02
448.64	371.46
449.01	370.36
449.37	368.39
449.74	366.55
450.11	364.29
450.48	361.83
450.85	359.34
451.22	357.22
451.59	355.19
451.96	353.28
452.33	350.70
452.70	348.31
453.07	345.45
453.43	342.52
453.80	339.78
454.17	337.16
454.54	334.61
454.91	331.83
455.28	329.12
455.65	326.65
456.02	324.26
456.38	322.09
456.75	319.42
457.12	317.17
457.49	314.92
457.86	312.73
458.23	310.89
458.59	308.83
458.96	306.74
459.33	304.92
459.70	303.04
460.07	301.50
460.43	299.80
460.80	298.18
461.17	296.79
461.54	295.27
461.91	293.85
462.27	292.41
462.64	291.16
463.01	289.87
463.38	288.58
463.74	287.17
464.11	286.00
464.48	285.00
464.85	283.93
465.21	283.05
465.58	282.16
465.95	281.05
466.32	280.15
466.68	279.22
467.05	278.30
467.42	277.40
467.78	276.47
468.15	275.56
468.52	274.87
468.88	273.96
469.25	273.18
469.62	272.53
469.98	271.87
470.35	271.26
470.72	270.57
471.08	269.92
471.45	269.39
471.82	268.85
472.18	268.21
472.55	267.73
472.92	267.19
473.28	266.69
473.65	266.22
474.02	265.79
474.38	265.40
474.75	265.05
475.11	264.67
475.48	264.41
475.85	264.18
476.21	263.95
476.58	263.71
476.94	263.56
477.31	263.38
477.67	263.20
478.04	263.08
478.41	263.05
478.77	263.08
479.14	262.97
479.50	263.00
479.87	263.07
480.23	263.16
480.60	263.23
480.96	263.33
481.33	263.53
481.69	263.74
482.06	263.93
482.42	264.11
482.79	264.36
483.15	264.67
483.52	265.01
483.88	265.37
484.25	265.80
484.61	266.18
484.98	266.62
485.34	267.19
485.71	267.75
486.07	268.33
486.44	268.88
486.80	269.58
487.17	270.25
487.53	271.06
487.90	271.89
488.26	272.78
488.62	273.77
488.99	274.78
489.35	275.78
489.72	276.92
490.08	278.16
490.44	279.39
490.81	280.68
491.17	282.02
491.54	283.45
491.90	284.99
492.26	286.63
492.63	288.33
492.99	290.08
493.36	291.96
493.72	294.01
494.08	296.08
494.45	298.30
494.81	300.67
495.17	303.10
495.54	305.60
495.90	308.28
496.26	311.05
496.63	313.97
496.99	317.03
497.35	320.26
497.72	323.63
498.08	327.13
498.44	330.79
498.80	334.72
499.17	338.73
499.53	342.84
499.89	347.18
500.26	351.65
500.62	356.27
500.98	361.17
501.34	366.21
501.71	371.52
502.07	376.89
502.43	382.45
502.79	388.20
503.16	394.20
503.52	400.43
503.88	406.80
504.24	413.38
504.60	420.21
504.97	427.25
505.33	434.51
505.69	442.17
506.05	449.89
506.41	457.73
506.78	465.87
507.14	474.28
507.50	482.93
507.86	491.93
508.22	501.06
508.59	510.17
508.95	519.71
509.31	529.47
509.67	539.62
510.03	549.82
510.39	560.39
510.75	571.24
511.12	582.16
511.48	593.36
511.84	604.79
512.20	616.30
512.56	628.23
512.92	640.37
513.28	652.68
513.64	665.14
514.00	677.80
514.37	690.71
514.73	703.71
515.09	716.74
515.45	729.99
515.81	743.62
516.17	757.60
516.53	771.63
516.89	785.73
517.25	799.83
517.61	814.29
517.97	828.65
518.33	843.07
518.69	857.90
519.05	872.90
519.41	888.15
519.77	903.65
520.13	919.15
520.49	934.59
520.85	950.10
521.21	965.88
521.57	982.19
521.93	998.12
522.29	1014.62
522.65	1031.00
523.01	1047.31
523.37	1063.39
523.73	1079.63
524.09	1095.77
524.45	1112.22
524.81	1129.02
525.17	1145.99
525.53	1163.11
525.89	1180.02
526.25	1196.82
526.61	1213.29
526.97	1230.05
527.33	1246.70
527.68	1263.40
528.04	1279.98
528.40	1296.60
528.76	1313.68
529.12	1330.22
529.48	1346.96
529.84	1363.02
530.20	1379.60
530.56	1396.70
530.91	1414.08
531.27	1431.01
531.63	1447.55
531.99	1464.19
532.35	1480.22
532.71	1496.07
533.07	1512.32
533.42	1528.29
533.78	1544.44
534.14	1560.75
534.50	1576.09
534.86	1592.02
535.21	1607.16
535.57	1623.10
535.93	1638.62
536.29	1653.50
536.65	1668.78
537.00	1683.74
537.36	1699.12
537.72	1713.85
538.08	1728.23
538.44	1742.14
538.79	1755.97
539.15	1769.74
539.51	1783.60
539.87	1797.98
540.22	1811.81
540.58	1825.69
540.94	1839.20
541.29	1852.18
541.65	1864.97
542.01	1878.34
542.37	1890.60
542.72	1903.20
543.08	1915.17
543.44	1927.63
543.79	1938.89
544.15	1949.77
544.51	1961.26
544.87	1972.26
545.22	1982.95
545.58	1993.16
545.94	2002.95
546.29	2012.97
546.65	2022.87
547.01	2032.02
547.36	2040.77
547.72	2049.11
548.07	2056.88
548.43	2064.91
548.79	2072.89
549.14	2080.50
549.50	2087.70
549.86	2095.45
550.21	2102.59
550.57	2109.62
550.92	2116.10
551.28	2123.19
551.64	2130.26
551.99	2136.82
552.35	2142.99
552.70	2149.04
553.06	2154.98
553.41	2161.16
553.77	2167.01
554.13	2172.95
554.48	2178.97
554.84	2184.23
555.19	2189.58
555.55	2194.55
555.90	2198.99
556.26	2203.81
556.61	2208.39
556.97	2212.64
557.32	2216.59
557.68	2220.57
558.03	2224.74
558.39	2228.49
558.74	2232.98
559.10	2236.69
559.45	2240.19
559.81	2244.36
560.16	2248.09
560.52	2251.14
560.87	2254.74
561.23	2257.22
561.58	2260.03
561.94	2262.38
562.29	2264.77
562.64	2267.38
563.00	2270.04
563.35	2273.36
563.71	2276.33
564.06	2279.33
564.42	2282.11
564.77	2284.57
565.12	2286.77
565.48	2288.41
565.83	2289.95
566.19	2291.08
566.54	2291.87
566.89	2292.87
567.25	2293.07
567.60	2294.26
567.96	2295.80
568.31	2296.21
568.66	2297.12
569.02	2297.54
569.37	2297.75
569.72	2298.32
570.08	2298.27
570.43	2297.88
570.78	2296.98
571.14	2295.16
571.49	2293.68
571.84	2293.00
572.20	2291.44
572.55	2290.15
572.90	2288.57
573.26	2286.91
573.61	2285.01
573.96	2283.04
574.31	2279.79
574.67	2276.67
575.02	2272.76
575.37	2269.09
575.72	2265.15
576.08	2261.68
576.43	2258.27
576.78	2254.39
577.13	2250.89
577.49	2247.49
577.84	2243.93
578.19	2240.13
578.54	2236.28
578.90	2231.75
579.25	2226.09
579.60	2221.09
579.95	2215.96
580.30	2210.67
580.66	2205.51
581.01	2200.30
581.36	2195.23
581.71	2190.78
582.06	2186.10
582.42	2181.61
582.77	2176.32
583.12	2171.50
583.47	2166.59
583.82	2161.36
584.17	2156.01
584.53	2150.43
584.88	2144.60
585.23	2138.54
585.58	2133.02
585.93	2127.38
586.28	2122.56
586.63	2117.32
586.98	2112.15
587.34	2107.31
587.69	2102.21
588.04	2096.64
588.39	2090.87
588.74	2084.09
589.09	2077.94
589.44	2071.15
589.79	2064.96
590.14	2059.15
590.49	2052.50
590.84	2046.01
591.19	2039.80
591.54	2033.19
591.89	2025.75
592.25	2018.85
592.60	2011.65
592.95	2003.83
593.30	1996.42
593.65	1988.59
594.00	1981.54
594.35	1974.11
594.70	1965.94
595.05	1958.72
595.40	1951.57
595.75	1943.95
596.10	1937.65
596.45	1930.80
596.80	1924.42
597.15	1917.69
597.50	1910.48
597.85	1903.96
598.19	1897.18
598.54	1890.12
598.89	1883.41
599.24	1877.37
599.59	1870.61
599.94	1864.35
600.29	1857.89
600.64	1851.33
600.99	1843.82
601.34	1836.83
601.69	1829.94
602.04	1822.98
602.39	1815.44
602.74	1808.56
603.08	1801.94
603.43	1795.33
603.78	1788.04
604.13	1780.72
604.48	1773.32
604.83	1766.63
605.18	1759.61
605.53	1751.60
605.87	1743.48
606.22	1736.32
606.57	1728.42
606.92	1721.15
607.27	1713.89
607.62	1707.12
607.96	1699.83
608.31	1693.41
608.66	1685.78
609.01	1678.31
609.36	1670.87
609.70	1663.04
610.05	1654.96
610.40	1647.26
610.75	1639.02
611.10	1631.46
611.44	1623.23
611.79	1615.41
612.14	1606.63
612.49	1597.75
612.83	1589.48
613.18	1581.53
613.53	1573.56
613.88	1565.09
614.22	1556.87
614.57	1548.45
614.92	1540.51
615.27	1533.08
615.61	1524.71
615.96	1516.78
616.31	1509.07
616.65	1501.79
617.00	1494.31
617.35	1486.64
617.70	1478.27
618.04	1469.74
618.39	1461.65
618.74	1454.26
619.08	1446.01
619.43	1438.63
619.78	1431.62
620.12	1424.50
620.47	1417.03
620.82	1408.88
621.16	1401.54
621.51	1394.05
621.85	1386.50
622.20	1378.08
622.55	1369.85
622.89	1362.20
623.24	1354.79
623.59	1347.64
623.93	1340.02
624.28	1332.88
624.62	1325.50
624.97	1318.50
625.32	1312.00
625.66	1304.94
626.01	1297.84
626.35	1290.39
626.70	1282.70
627.04	1275.11
627.39	1267.51
627.73	1260.12
628.08	1253.21
628.43	1245.99
628.77	1238.83
629.12	1231.40
629.46	1224.21
629.81	1216.87
630.15	1209.64
630.50	1202.23
630.84	1194.07
631.19	1186.36
631.53	1179.01
631.88	1171.53
632.22	1164.05
632.57	1156.76
632.91	1149.38
633.26	1142.00
633.60	1134.92
633.95	1127.93
634.29	1121.04
634.64	1114.37
634.98	1107.22
635.32	1100.26
635.67	1093.75
636.01	1087.16
636.36	1080.45
636.70	1074.12
637.05	1067.69
637.39	1061.36
637.73	1055.00
638.08	1049.21
638.42	1043.29
638.77	1036.86
639.11	1030.34
639.45	1024.05
639.80	1017.47
640.14	1011.22
640.49	1004.77
640.83	998.49
641.17	992.33
641.52	986.01
641.86	979.74
642.20	973.94
642.55	967.76
642.89	961.34
643.23	954.88
643.58	949.16
643.92	942.98
644.26	936.96
644.61	931.06
644.95	925.06
645.29	918.51
645.64	911.85
645.98	905.65
646.32	899.88
646.66	893.81
647.01	888.06
647.35	882.28
647.69	876.54
648.04	871.05
648.38	865.33
648.72	859.36
649.06	853.35
649.41	847.55
649.75	841.46
650.09	835.62
650.43	829.78
650.78	823.61
651.12	817.74
651.46	811.95
651.80	806.21
652.14	800.90
652.49	795.57
652.83	790.53
653.17	784.85
653.51	779.12
653.85	773.85
654.20	768.21
654.54	762.31
654.88	756.67
655.22	750.88
655.56	745.22
655.90	739.89
656.25	734.67
656.59	729.37
656.93	724.38
657.27	719.29
657.61	713.95
657.95	708.93
658.29	703.87
658.64	698.74
658.98	693.49
659.32	688.12
659.66	683.07
660.00	677.77
660.34	672.89
660.68	668.17
661.02	663.16
661.36	658.59
661.70	654.10
662.05	649.76
662.39	645.46
662.73	641.07
663.07	636.71
663.41	632.34
663.75	627.89
664.09	623.43
664.43	619.07
664.77	615.01
665.11	610.88
665.45	606.86
665.79	602.86
666.13	598.80
666.47	594.72
666.81	590.52
667.15	586.39
667.49	582.59
667.83	578.85
668.17	575.00
668.51	570.99
668.85	567.07
669.19	563.28
669.53	559.48
669.87	555.68
670.21	552.08
670.55	548.50
670.89	545.08
671.23	541.71
671.57	538.27
671.91	534.80
672.25	531.38
672.58	527.87
672.92	524.50
673.26	521.41
673.60	518.30
673.94	515.24
674.28	512.45
674.62	509.53
674.96	506.40
675.30	503.51
675.64	500.62
675.97	497.90
676.31	495.02
676.65	492.14
676.99	489.46
677.33	486.60
677.67	483.75
678.01	480.73
678.34	477.74
678.68	474.88
679.02	472.06
679.36	469.29
679.70	466.55
680.04	463.84
680.37	461.00
680.71	458.26
681.05	455.70
681.39	452.98
681.73	450.34
682.06	447.86
682.40	445.32
682.74	442.82
683.08	440.28
683.42	437.73
683.75	435.30
684.09	432.80
684.43	430.38
684.77	427.99
685.10	425.67
685.44	423.44
685.78	421.20
686.12	419.00
686.45	416.75
686.79	414.52
687.13	412.35
687.46	410.15
687.80	408.01
688.14	405.83
688.48	403.77
688.81	401.57
689.15	399.46
689.49	397.38
689.82	395.35
690.16	393.25
690.50	391.34
690.83	389.34
691.17	387.36
691.51	385.48
691.84	383.68
692.18	381.85
692.52	379.88
692.85	377.97
693.19	376.11
693.52	374.26
693.86	372.49
694.20	370.69
694.53	369.00
694.87	367.20
695.21	365.36
695.54	363.57
695.88	361.90
696.21	360.16
696.55	358.49
696.88	356.80
697.22	355.23
697.56	353.59
697.89	352.01
698.23	350.42
698.56	348.84
698.90	347.25
699.23	345.58
699.57	344.05
699.90	342.53
700.24	340.99
700.58	339.45
700.91	337.96
701.25	336.51
701.58	335.13
701.92	333.77
702.25	332.45
702.59	331.11
702.92	329.75
703.26	328.48
703.59	327.20
703.93	326.02
704.26	324.78
704.60	323.48
704.93	322.21
705.26	320.99
705.60	319.84
705.93	318.68
706.27	317.67
706.60	316.63
706.94	315.58
707.27	314.49
707.61	313.48
707.94	312.49
708.27	311.43
708.61	310.35
708.94	309.35
709.28	308.39
709.61	307.47
709.94	306.54
710.28	305.48
710.61	304.51
710.95	303.44
711.28	302.52
711.61	301.62
711.95	300.72
712.28	299.74
712.61	298.75
712.95	297.82
713.28	296.94
713.61	296.05
713.95	295.16
714.28	294.35
714.61	293.50
714.95	292.69
715.28	291.85
715.61	290.99
715.95	290.13
716.28	289.26
716.61	288.41
716.95	287.60
717.28	286.90
717.61	286.16
717.94	285.48
718.28	284.71
718.61	284.00
718.94	283.31
719.27	282.72
719.61	282.11
719.94	281.47
720.27	280.74
720.60	280.11
720.94	279.50
721.27	278.90
721.60	278.34
721.93	277.69
722.27	277.15
722.60	276.62
722.93	276.10
723.26	275.57
723.59	275.01
723.93	274.49
724.26	273.96
724.59	273.37
724.92	272.83
725.25	272.32
725.59	271.83
725.92	271.33
726.25	270.80
726.58	270.30
726.91	269.81
727.24	269.38
727.57	268.91
727.91	268.39
728.24	267.93
728.57	267.43
728.90	267.00
729.23	266.51
729.56	266.05
729.89	265.57
730.22	265.12
730.55	264.67
730.89	264.23
731.22	263.81
731.55	263.39
731.88	262.97
732.21	262.56
732.54	262.16
732.87	261.72
733.20	261.36
733.53	260.98
733.86	260.58
734.19	260.18
734.52	259.79
734.85	259.51
735.18	259.10
735.51	258.75
735.84	258.43
736.17	258.09
736.50	257.70
736.83	257.48
737.16	257.20
737.49	256.90
737.82	256.57
738.15	256.23
738.48	255.95
738.81	255.63
739.14	255.30
739.47	254.98
739.80	254.71
740.13	254.40
740.46	254.07
740.79	253.79
741.12	253.50
741.45	253.19
741.78	252.81
742.11	252.54
742.44	252.23
742.77	251.89
743.10	251.58
743.43	251.28
743.75	250.90
744.08	250.68
744.41	250.39
744.74	250.09
745.07	249.81
745.40	249.52
745.73	249.28
746.06	249.01
746.39	248.73
746.71	248.48
747.04	248.20
747.37	247.94
747.70	247.68
748.03	247.41
748.36	247.17
748.68	246.96
749.01	246.70
749.34	246.47
749.67	246.26
750.00	246.03
750.33	245.89
750.65	245.69
750.98	245.39
751.31	245.17
751.64	244.97
751.97	244.81
752.29	244.60
752.62	244.37
752.95	244.18
753.28	243.97
753.60	243.71
753.93	243.51
754.26	243.30
754.59	243.08
754.91	242.90
755.24	242.72
755.57	242.50
755.90	242.32
756.22	242.15
756.55	241.94
756.88	241.79
757.20	241.56
757.53	241.35
757.86	241.18
758.19	241.02
758.51	240.82
758.84	240.59
759.17	240.42
759.49	240.25
759.82	240.11
760.15	239.99
760.47	239.84
760.80	239.70
761.13	239.55
761.45	239.39
761.78	239.24
762.11	239.10
762.43	238.97
762.76	238.82
763.08	238.69
763.41	238.58
763.74	238.43
764.06	238.31
764.39	238.17
764.71	238.00
765.04	237.88
765.37	237.77
765.69	237.68
766.02	237.54
766.34	237.43
766.67	237.26
767.00	237.14
767.32	237.08
767.65	236.99
767.97	236.87
768.30	236.75
768.62	236.65
768.95	236.52
769.27	236.41
769.60	236.34
769.92	236.21
770.25	236.10
770.57	236.01
770.90	235.92
771.22	235.81
771.55	235.74
771.87	235.62
772.20	235.51
772.52	235.49
772.85	235.50
773.17	235.41
773.50	235.32
773.82	235.23
774.15	235.10
774.47	234.95
774.80	234.89
775.12	234.84
775.45	234.75
775.77	234.66
776.09	234.59
776.42	234.52
776.74	234.44
777.07	234.33
777.39	234.23
777.72	234.14
778.04	234.10
778.36	234.00
778.69	233.95
779.01	233.90
779.33	233.75
779.66	233.58
779.98	233.48
780.31	233.43
780.63	233.42
780.95	233.37
781.28	233.34
781.60	233.27
781.92	233.20
782.25	233.13
782.57	233.10
782.89	233.01
783.22	232.90
783.54	232.84
783.86	232.77
784.19	232.70
784.51	232.70
784.83	232.62
785.16	232.58
785.48	232.56
785.80	232.51
786.12	232.44
786.45	232.40
786.77	232.40
787.09	232.36
787.42	232.27
787.74	232.19
788.06	232.13
788.38	232.09
788.71	232.05
789.03	231.97
789.35	231.93
789.67	231.92
789.99	231.91
790.32	231.86
790.64	231.88
790.96	231.93
791.28	231.86
791.61	231.85
791.93	231.80
792.25	231.77
792.57	231.78
792.89	231.77
793.21	231.73
793.54	231.68
793.86	231.59
794.18	231.54
794.50	231.51
794.82	231.47
795.14	231.41
795.47	231.42
795.79	231.40
796.11	231.36
796.43	231.31
796.75	231.25
797.07	231.22
797.39	231.17
797.71	231.08
798.04	231.03
798.36	230.99
798.68	230.96
799.00	230.88
799.32	230.82
799.64	230.76
799.96	230.71
800.28	230.66
800.60	230.63
800.92	230.62
801.24	230.55
801.56	230.54
801.89	230.50
802.21	230.44
802.53	230.40
802.85	230.38
803.17	230.40
803.49	230.39
803.81	230.35
804.13	230.30
804.45	230.25
804.77	230.23
805.09	230.20
805.41	230.16
805.73	230.13
806.05	230.08
806.37	230.05
806.69	230.03
807.01	229.98
807.33	230.00
807.65	229.91
807.97	229.96
808.28	229.94
808.60	229.93
808.92	229.89
809.24	229.93
809.56	229.88
809.88	229.78
810.20	229.74
810.52	229.76
810.84	229.72
811.16	229.71
811.48	229.65
811.80	229.65
812.12	229.63
812.43	229.65
812.75	229.63
813.07	229.59
813.39	229.59
813.71	229.59
814.03	229.56
814.35	229.56
814.67	229.49
814.98	229.44
815.30	229.43
815.62	229.42
815.94	229.33
816.26	229.41
816.58	229.43
816.89	229.44
817.21	229.37
817.53	229.35
817.85	229.35
818.17	229.34
818.48	229.30
818.80	229.29
819.12	229.24
819.44	229.19
819.76	229.20
820.07	229.17
820.39	229.15
820.71	229.13
821.03	229.11
821.34	229.09
821.66	229.09
821.98	229.08
822.30	229.03
822.61	229.08
822.93	228.96
823.25	228.90
823.57	228.85
823.88	228.88
824.20	228.87
824.52	228.84
824.83	228.85
825.15	228.78
825.47	228.76
825.79	228.74
826.10	228.73
826.42	228.72
826.74	228.73
827.05	228.70
827.37	228.70
827.69	228.70
828.00	228.69
828.32	228.66
828.64	228.65
828.95	228.70
829.27	228.65
829.58	228.62
829.90	228.65
830.22	228.69
830.53	228.65
830.85	228.66
831.17	228.64
831.48	228.61
831.80	228.61
832.11	228.61
832.43	228.60
832.75	228.60
833.06	228.67
833.38	228.64
833.69	228.66
834.01	228.65
834.32	228.65
834.64	228.65
834.96	228.67
835.27	228.65
835.59	228.62
835.90	228.62
836.22	228.66
836.53	228.61
836.85	228.57
837.16	228.65
837.48	228.67
837.79	228.69
838.11	228.72
838.42	228.75
838.74	228.76
839.05	228.75
839.37	228.76
839.68	228.67
840.00	228.63
840.31	228.62
840.63	228.60
840.94	228.60
841.26	228.57
841.57	228.56
841.88	228.59
842.20	228.56
842.51	228.54
842.83	228.52
843.14	228.64
843.46	228.63
843.77	228.54
844.08	228.48
844.40	228.45
844.71	228.39
845.03	228.37
845.34	228.36
845.65	228.35
845.97	228.34
846.28	228.33
846.60	228.35
846.91	228.35
847.22	228.35
847.54	228.32
847.85	228.34
848.16	228.30
848.48	228.26
848.79	228.27
849.10	228.31
849.42	228.29
849.73	228.18
850.04	228.17
850.36	228.17
850.67	228.19
850.98	228.20
851.30	228.22
851.61	228.20
851.92	228.17
852.23	228.18
852.55	228.21
852.86	228.23
853.17	228.23
853.49	228.24
853.80	228.22
854.11	228.24
854.42	228.23
854.74	228.25
855.05	228.23
855.36	228.20
855.67	228.18
855.99	228.18
856.30	228.29
856.61	228.28
856.92	228.25
857.23	228.22
857.55	228.20
857.86	228.17
858.17	228.20
858.48	228.20
858.79	228.19
859.11	228.16
859.42	228.15
859.73	228.14
860.04	228.11
860.35	228.09
860.66	228.05
860.98	227.99
861.29	228.01
861.60	228.03
861.91	228.07
862.22	228.06
862.53	228.07
862.84	227.95
863.16	227.97
863.47	227.96
863.78	227.95
864.09	227.97
864.40	227.99
864.71	227.97
865.02	227.97
865.33	227.95
865.64	227.91
865.95	227.91
866.27	227.96
866.58	227.94
866.89	227.97
867.20	227.97
867.51	227.99
867.82	227.97
868.13	228.00
868.44	227.96
868.75	227.99
869.06	227.97
869.37	227.99
869.68	227.94
869.99	227.99
870.30	228.02
870.61	228.01
870.92	227.98
871.23	227.98
871.54	227.99
871.85	227.98
872.16	227.98
872.47	227.99
872.78	227.92
873.09	227.96
873.40	227.95
873.71	227.98
874.02	227.97
874.33	227.94
874.64	227.89
874.95	227.91
875.26	227.87
875.56	227.87
875.87	227.86
876.18	227.90
876.49	227.97
876.80	228.00
877.11	227.98
877.42	227.99
877.73	228.00
878.04	227.99
878.35	228.04
878.66	228.07
878.96	228.05
879.27	228.05
879.58	228.02
879.89	228.00
880.20	228.06
880.51	228.04
880.82	228.04
881.12	228.05
881.43	228.00
881.74	228.00
882.05	228.00
882.36	228.00
882.67	227.98
882.97	227.88
883.28	227.83
883.59	227.81
883.90	227.82
884.21	227.85
884.51	227.87
884.82	227.79
885.13	227.78
885.44	227.80
885.74	227.79
886.05	227.79
886.36	227.81
886.67	227.73
886.98	227.80
887.28	227.81
887.59	227.80
887.90	227.82
888.20	227.80
888.51	227.81
888.82	227.78
889.13	227.79
889.43	227.85
889.74	227.86
890.05	227.90
890.35	227.89
890.66	227.80
890.97	227.80
891.28	227.85
891.58	227.83
891.89	227.79
892.20	227.78
892.50	227.80
892.81	227.79
893.12	227.79
893.42	227.73
893.73	227.71
894.04	227.71
894.34	227.73
894.65	227.73
894.95	227.70
895.26	227.73
895.57	227.77
895.87	227.66
896.18	227.66
896.48	227.65
896.79	227.67
897.10	227.70
897.40	227.68
897.71	227.65
898.01	227.66
898.32	227.65
898.63	227.65
898.93	227.62
899.24	227.63
899.54	227.63
899.85	227.64
900.15	227.66
900.46	227.67
900.76	227.68
901.07	227.67
901.38	227.70
901.68	227.72
901.99	227.65
902.29	227.66
902.60	227.64
902.90	227.62
903.21	227.58
903.51	227.58
903.82	227.61
904.12	227.62
904.43	227.61
904.73	227.63
905.03	227.66
905.34	227.76
905.64	227.71
905.95	227.72
906.25	227.73
906.56	227.70
906.86	227.71
907.17	227.69
907.47	227.70
907.77	227.68
908.08	227.62
908.38	227.63
908.69	227.64
908.99	227.66
909.30	227.63
909.60	227.66
909.90	227.66
910.21	227.61
910.51	227.60
910.81	227.61
911.12	227.60
911.42	227.61
911.73	227.50
912.03	227.52
912.33	227.55
912.64	227.53
912.94	227.53
913.24	227.50
913.55	227.48
913.85	227.47
914.15	227.50
914.46	227.52
914.76	227.51
915.06	227.53
915.37	227.50
915.67	227.52
915.97	227.50
916.27	227.50
916.58	227.52
916.88	227.51
917.18	227.51
917.49	227.57
917.79	227.53
918.09	227.53
918.39	227.54
918.70	227.50
919.00	227.52
919.30	227.58
919.60	227.58
919.91	227.57
920.21	227.56
920.51	227.55
920.81	227.55
921.12	227.56
921.42	227.55
921.72	227.57
922.02	227.59
922.32	227.59
922.63	227.58
922.93	227.64
923.23	227.65
923.53	227.62
923.83	227.57
924.13	227.58
924.44	227.56
924.74	227.64
925.04	227.65
925.34	227.66
925.64	227.60
925.94	227.61
926.24	227.69
926.55	227.69
926.85	227.69
927.15	227.70
927.45	227.70
927.75	227.70
928.05	227.70
928.35	227.68
928.65	227.70
928.95	227.69
929.26	227.63
929.56	227.65
929.86	227.65
930.16	227.64
930.46	227.62
930.76	227.65
931.06	227.57
931.36	227.52
931.66	227.51
931.96	227.53
932.26	227.54
932.56	227.49
932.86	227.50
933.16	227.49
933.46	227.46
933.76	227.44
934.06	227.42
934.36	227.45
934.66	227.43
934.96	227.40
935.26	227.43
935.56	227.49
935.86	227.45
936.16	227.48
936.46	227.47
936.76	227.48
937.06	227.45
937.36	227.43
937.66	227.47
937.96	227.47
938.26	227.45
938.56	227.43
938.86	227.42
939.16	227.45
939.46	227.49
939.76	227.51
940.06	227.54
940.35	227.56
940.65	227.51
940.95	227.53
941.25	227.54
941.55	227.56
941.85	227.49
942.15	227.52
942.45	227.55
942.75	227.56
943.04	227.58
943.34	227.62
943.64	227.66
943.94	227.64
944.24	227.64
944.54	227.59
944.84	227.58
945.13	227.56
945.43	227.52
945.73	227.49
946.03	227.49
946.33	227.46
946.62	227.48
946.92	227.50
947.22	227.52
947.52	227.54
947.82	227.55
948.11	227.57
948.41	227.52
948.71	227.51
949.01	227.50
949.31	227.49
949.60	227.48
949.90	227.47
950.20	227.46
950.50	227.48
950.79	227.53
951.09	227.56
951.39	227.59
951.69	227.58
951.98	227.64
952.28	227.65
952.58	227.65
952.87	227.63
953.17	227.60
953.47	227.58
953.76	227.58
954.06	227.53
954.36	227.52
954.66	227.54
954.95	227.57
955.25	227.56
955.55	227.57
955.84	227.58
956.14	227.57
956.44	227.59
956.73	227.57
957.03	227.56
957.32	227.59
957.62	227.55
957.92	227.59
958.21	227.53
958.51	227.61
958.81	227.64
959.10	227.65
959.40	227.71
959.69	227.69
959.99	227.70
960.29	227.71
960.58	227.70
960.88	227.72
961.17	227.71
961.47	227.72
961.76	227.73
962.06	227.75
962.36	227.75
962.65	227.75
962.95	227.72
963.24	227.73
963.54	227.70
963.83	227.71
964.13	227.71
964.42	227.68
964.72	227.63
965.01	227.62
965.31	227.61
965.60	227.55
965.90	227.64
966.19	227.64
966.49	227.62
966.78	227.64
967.08	227.63
967.37	227.61
967.67	227.58
967.96	227.55
968.26	227.50
968.55	227.52
968.85	227.50
969.14	227.51
969.43	227.50
969.73	227.51
970.02	227.50
970.32	227.46
970.61	227.48
970.91	227.43
971.20	227.42
971.49	227.41
971.79	227.46
972.08	227.40
972.38	227.36
972.67	227.35
972.96	227.33
973.26	227.33
973.55	227.37
973.85	227.39
974.14	227.43
974.43	227.47
974.73	227.43
975.02	227.45
975.31	227.47
975.61	227.47
975.90	227.47
976.19	227.47
976.49	227.51
976.78	227.52
977.07	227.53
977.37	227.52
977.66	227.55
977.95	227.50
978.24	227.48
978.54	227.46
978.83	227.49
979.12	227.51
979.42	227.49
979.71	227.48
980.00	227.43
980.29	227.42
980.59	227.39
980.88	227.45
981.17	227.45
981.46	227.42
981.76	227.42
982.05	227.44
982.34	227.44
982.63	227.42
982.93	227.41
983.22	227.42
983.51	227.41
983.80	227.37
984.09	227.42
984.39	227.40
984.68	227.43
984.97	227.43
985.26	227.41
985.55	227.44
985.85	227.42
986.14	227.49
986.43	227.48
986.72	227.46
987.01	227.42
987.30	227.41
987.59	227.43
987.89	227.41
988.18	227.40
988.47	227.39
988.76	227.39
989.05	227.38
989.34	227.40
989.63	227.43
989.92	227.43
990.22	227.41
990.51	227.43
990.80	227.44
991.09	227.44
991.38	227.44
991.67	227.43
991.96	227.38
992.25	227.41
992.54	227.39
992.83	227.39
993.12	227.40
993.41	227.43
993.70	227.47
993.99	227.51
994.28	227.51
994.58	227.53
994.87	227.51
995.16	227.52
995.45	227.52
995.74	227.50
996.03	227.53
996.32	227.54
996.61	227.54
996.90	227.53
997.19	227.50
997.48	227.50
997.77	227.51
998.06	227.53
998.34	227.48
998.63	227.49
998.92	227.51
999.21	227.52
999.50	227.50
999.79	227.45
1000.08	227.45
1000.37	227.46
1000.66	227.45
1000.95	227.45
1001.24	227.44
1001.53	227.43
1001.82	227.40
1002.11	227.39
1002.40	227.39
1002.68	227.43
1002.97	227.51
1003.26	227.53
1003.55	227.54
1003.84	227.50
1004.13	227.56
1004.42	227.56
1004.71	227.56
1004.99	227.55
1005.28	227.56
1005.57	227.53
1005.86	227.51
1006.15	227.50
1006.44	227.49
1006.72	227.48
1007.01	227.48
1007.30	227.47
1007.59	227.47
1007.88	227.45
1008.17	227.47
1008.45	227.44
1008.74	227.40
1009.03	227.35
1009.32	227.35
1009.60	227.34
1009.89	227.35
1010.18	227.30
1010.47	227.29
1010.76	227.25
1011.04	227.26
1011.33	227.26
1011.62	227.30
1011.91	227.31
1012.19	227.32
1012.48	227.33
1012.77	227.32
1013.05	227.38
1013.34	227.40
1013.63	227.38
1013.92	227.42
1014.20	227.41
1014.49	227.44
1014.78	227.44
1015.06	227.39
1015.35	227.37
1015.64	227.37
1015.92	227.37
1016.21	227.36
1016.50	227.34
1016.78	227.40
1017.07	227.39
1017.36	227.36
1017.64	227.35
1017.93	227.37
1018.22	227.33
1018.50	227.30
1018.79	227.30
1019.08	227.23
1019.36	227.27
1019.65	227.29
1019.93	227.36
1020.22	227.33
1020.51	227.37
1020.79	227.39
1021.08	227.05
1021.36	226.76
1021.65	227.09
1021.94	226.98
1022.22	228.09
1022.51	227.64
1022.79	228.75
1023.08	227.21
1023.36	228.53
1023.65	227.44
>>>>>End Processed Spectral Data<<<<<
