SpectraSuite Data File
++++++++++++++++++++++++++++++++++++
Date: Fri Feb 01 15:43:15 EST 2013
User: group
Dark Spectrum Present: No
Reference Spectrum Present: No
Number of Sampled Component Spectra: 1
Spectrometers: USB2E7196
Integration Time (usec): 35000 (USB2E7196)
Spectra Averaged: 100 (USB2E7196)
Boxcar Smoothing: 10 (USB2E7196)
Correct for Electrical Dark: No (USB2E7196)
Strobe/Lamp Enabled: No (USB2E7196)
Correct for Detector Non-linearity: No (USB2E7196)
Correct for Stray Light: No (USB2E7196)
Number of Pixels in Processed Spectrum: 2048
>>>>>Begin Processed Spectral Data<<<<<
339.09	0.00
339.48	214.91
339.86	216.29
340.24	217.87
340.63	218.90
341.01	221.83
341.39	221.87
341.78	222.96
342.16	224.29
342.54	225.46
342.93	213.27
343.31	224.02
343.69	224.55
344.07	225.00
344.46	225.43
344.84	225.81
345.22	226.02
345.60	226.26
345.99	226.46
346.37	226.57
346.75	226.60
347.13	226.67
347.52	226.70
347.90	226.77
348.28	226.79
348.66	226.83
349.05	226.82
349.43	226.84
349.81	226.88
350.19	226.89
350.57	226.96
350.96	227.00
351.34	227.10
351.72	227.21
352.10	227.33
352.48	227.35
352.87	227.40
353.25	227.51
353.63	227.57
354.01	227.60
354.39	227.67
354.77	227.76
355.15	227.84
355.54	227.88
355.92	227.94
356.30	228.03
356.68	228.18
357.06	228.26
357.44	228.32
357.82	228.39
358.20	228.47
358.58	228.51
358.97	228.56
359.35	228.65
359.73	228.70
360.11	228.75
360.49	228.85
360.87	228.92
361.25	228.94
361.63	229.00
362.01	229.10
362.39	229.13
362.77	229.18
363.15	229.23
363.53	229.28
363.91	229.28
364.29	229.28
364.67	229.18
365.05	229.19
365.43	229.19
365.81	229.20
366.19	229.26
366.57	229.31
366.95	229.31
367.33	229.27
367.71	229.28
368.09	229.28
368.47	229.26
368.85	229.22
369.23	229.24
369.61	229.20
369.99	229.19
370.37	229.18
370.75	229.19
371.13	229.13
371.51	229.10
371.89	229.08
372.27	229.04
372.65	229.02
373.03	228.97
373.41	228.93
373.78	228.88
374.16	228.82
374.54	228.71
374.92	228.67
375.30	228.61
375.68	228.53
376.06	228.46
376.44	228.40
376.82	228.37
377.19	228.27
377.57	228.18
377.95	228.10
378.33	228.03
378.71	227.93
379.09	227.86
379.47	227.80
379.84	227.72
380.22	227.67
380.60	227.57
380.98	227.52
381.36	227.46
381.73	227.39
382.11	227.31
382.49	227.27
382.87	227.18
383.25	227.12
383.62	227.13
384.00	227.07
384.38	227.02
384.76	226.98
385.13	226.99
385.51	226.96
385.89	226.89
386.27	226.86
386.64	226.80
387.02	226.76
387.40	226.68
387.78	226.62
388.15	226.59
388.53	226.55
388.91	226.50
389.29	226.46
389.66	226.44
390.04	226.40
390.42	226.38
390.79	226.35
391.17	226.34
391.55	226.24
391.92	226.23
392.30	226.22
392.68	226.20
393.05	226.17
393.43	226.19
393.81	226.18
394.18	226.18
394.56	226.21
394.94	226.28
395.31	226.30
395.69	226.39
396.06	226.42
396.44	226.46
396.82	226.49
397.19	226.58
397.57	226.59
397.95	226.62
398.32	226.66
398.70	226.74
399.07	226.81
399.45	226.86
399.82	226.93
400.20	226.98
400.58	227.06
400.95	227.13
401.33	227.20
401.70	227.37
402.08	227.48
402.45	227.56
402.83	227.66
403.20	227.77
403.58	227.86
403.95	228.01
404.33	228.15
404.71	228.26
405.08	228.43
405.46	228.57
405.83	228.77
406.21	228.89
406.58	229.04
406.96	229.20
407.33	229.37
407.70	229.52
408.08	229.80
408.45	230.00
408.83	230.23
409.20	230.46
409.58	230.62
409.95	230.86
410.33	231.13
410.70	231.36
411.08	231.65
411.45	231.95
411.82	232.20
412.20	232.59
412.57	233.02
412.95	233.32
413.32	233.75
413.69	234.16
414.07	234.64
414.44	235.13
414.82	235.61
415.19	236.17
415.56	236.73
415.94	237.26
416.31	237.91
416.68	238.53
417.06	239.25
417.43	239.95
417.81	240.72
418.18	241.50
418.55	242.38
418.93	243.26
419.30	244.16
419.67	245.12
420.04	246.05
420.42	247.07
420.79	248.23
421.16	249.39
421.54	250.57
421.91	251.79
422.28	253.03
422.66	254.39
423.03	255.72
423.40	257.06
423.77	258.50
424.15	259.94
424.52	261.40
424.89	263.00
425.26	264.55
425.64	265.97
426.01	267.59
426.38	269.23
426.75	270.90
427.13	272.65
427.50	274.48
427.87	276.35
428.24	278.20
428.61	279.96
428.99	281.92
429.36	284.04
429.73	286.10
430.10	288.13
430.47	290.19
430.85	292.31
431.22	294.58
431.59	296.95
431.96	299.20
432.33	301.71
432.70	304.09
433.08	306.91
433.45	309.63
433.82	312.24
434.19	315.09
434.56	317.91
434.93	320.53
435.30	323.15
435.68	326.06
436.05	328.89
436.42	331.68
436.79	334.20
437.16	336.88
437.53	339.67
437.90	342.49
438.27	345.19
438.64	347.98
439.01	350.54
439.38	352.75
439.75	354.90
440.13	357.40
440.50	359.73
440.87	361.58
441.24	363.45
441.61	365.57
441.98	367.11
442.35	368.91
442.72	370.80
443.09	372.62
443.46	373.61
443.83	374.18
444.20	374.73
444.57	375.53
444.94	375.81
445.31	376.19
445.68	376.49
446.05	376.61
446.42	376.23
446.79	375.86
447.16	375.48
447.53	375.14
447.90	373.98
448.27	372.83
448.64	371.23
449.01	370.11
449.37	368.12
449.74	366.19
450.11	363.93
450.48	361.41
450.85	358.84
451.22	356.67
451.59	354.65
451.96	352.68
452.33	350.07
452.70	347.70
453.07	344.91
453.43	342.02
453.80	339.23
454.17	336.57
454.54	333.95
454.91	331.16
455.28	328.49
455.65	325.99
456.02	323.50
456.38	321.37
456.75	318.71
457.12	316.49
457.49	314.26
457.86	312.07
458.23	310.23
458.59	308.18
458.96	306.10
459.33	304.25
459.70	302.38
460.07	300.89
460.43	299.17
460.80	297.47
461.17	296.03
461.54	294.53
461.91	293.10
462.27	291.69
462.64	290.44
463.01	289.12
463.38	287.82
463.74	286.45
464.11	285.26
464.48	284.22
464.85	283.13
465.21	282.29
465.58	281.42
465.95	280.30
466.32	279.41
466.68	278.53
467.05	277.66
467.42	276.76
467.78	275.81
468.15	274.95
468.52	274.30
468.88	273.47
469.25	272.72
469.62	272.07
469.98	271.41
470.35	270.80
470.72	270.19
471.08	269.57
471.45	269.07
471.82	268.52
472.18	267.94
472.55	267.48
472.92	266.96
473.28	266.50
473.65	266.05
474.02	265.63
474.38	265.26
474.75	264.94
475.11	264.64
475.48	264.40
475.85	264.16
476.21	263.93
476.58	263.77
476.94	263.63
477.31	263.50
477.67	263.35
478.04	263.22
478.41	263.18
478.77	263.22
479.14	263.17
479.50	263.23
479.87	263.32
480.23	263.41
480.60	263.46
480.96	263.54
481.33	263.77
481.69	263.95
482.06	264.13
482.42	264.32
482.79	264.59
483.15	264.91
483.52	265.31
483.88	265.66
484.25	266.03
484.61	266.45
484.98	266.92
485.34	267.49
485.71	268.09
486.07	268.69
486.44	269.23
486.80	269.89
487.17	270.58
487.53	271.40
487.90	272.27
488.26	273.19
488.62	274.21
488.99	275.15
489.35	276.22
489.72	277.35
490.08	278.55
490.44	279.76
490.81	281.10
491.17	282.46
491.54	283.95
491.90	285.51
492.26	287.15
492.63	288.85
492.99	290.63
493.36	292.53
493.72	294.56
494.08	296.70
494.45	298.94
494.81	301.30
495.17	303.70
495.54	306.26
495.90	308.95
496.26	311.70
496.63	314.71
496.99	317.76
497.35	321.03
497.72	324.44
498.08	327.97
498.44	331.59
498.80	335.49
499.17	339.51
499.53	343.65
499.89	348.01
500.26	352.49
500.62	357.13
500.98	362.11
501.34	367.17
501.71	372.48
502.07	377.98
502.43	383.54
502.79	389.39
503.16	395.45
503.52	401.79
503.88	408.27
504.24	414.83
504.60	421.77
504.97	428.87
505.33	436.17
505.69	443.85
506.05	451.70
506.41	459.59
506.78	467.74
507.14	476.21
507.50	484.92
507.86	493.92
508.22	503.12
508.59	512.29
508.95	521.87
509.31	531.67
509.67	541.72
510.03	552.06
510.39	562.63
510.75	573.40
511.12	584.24
511.48	595.47
511.84	606.98
512.20	618.51
512.56	630.40
512.92	642.66
513.28	655.00
513.64	667.45
514.00	680.11
514.37	693.09
514.73	706.11
515.09	719.22
515.45	732.56
515.81	746.13
516.17	760.11
516.53	774.28
516.89	788.51
517.25	802.72
517.61	817.19
517.97	831.58
518.33	846.09
518.69	860.95
519.05	875.99
519.41	891.20
519.77	906.72
520.13	922.22
520.49	937.54
520.85	953.02
521.21	968.73
521.57	985.11
521.93	1000.87
522.29	1017.31
522.65	1033.56
523.01	1049.80
523.37	1065.82
523.73	1082.10
524.09	1098.11
524.45	1114.43
524.81	1130.98
525.17	1147.88
525.53	1164.82
525.89	1181.67
526.25	1198.46
526.61	1214.82
526.97	1231.55
527.33	1248.11
527.68	1264.74
528.04	1281.19
528.40	1297.79
528.76	1314.88
529.12	1331.43
529.48	1348.19
529.84	1364.27
530.20	1380.92
530.56	1398.04
530.91	1415.51
531.27	1432.28
531.63	1448.86
531.99	1465.37
532.35	1481.28
532.71	1497.22
533.07	1513.52
533.42	1529.37
533.78	1545.45
534.14	1561.77
534.50	1577.00
534.86	1592.90
535.21	1608.06
535.57	1624.04
535.93	1639.55
536.29	1654.41
536.65	1669.47
537.00	1684.31
537.36	1699.64
537.72	1714.12
538.08	1728.42
538.44	1742.12
538.79	1755.79
539.15	1769.45
539.51	1783.23
539.87	1797.62
540.22	1811.27
540.58	1824.96
540.94	1838.32
541.29	1851.20
541.65	1863.86
542.01	1877.29
542.37	1889.49
542.72	1902.02
543.08	1913.77
543.44	1926.21
543.79	1937.41
544.15	1948.40
544.51	1959.93
544.87	1970.86
545.22	1981.71
545.58	1991.96
545.94	2001.74
546.29	2011.67
546.65	2021.51
547.01	2030.80
547.36	2039.64
547.72	2048.04
548.07	2055.83
548.43	2063.95
548.79	2072.09
549.14	2079.72
549.50	2086.97
549.86	2094.66
550.21	2101.87
550.57	2109.13
550.92	2115.60
551.28	2122.59
551.64	2129.68
551.99	2136.37
552.35	2142.62
552.70	2148.77
553.06	2154.64
553.41	2161.01
553.77	2167.20
554.13	2173.24
554.48	2179.36
554.84	2184.62
555.19	2189.99
555.55	2195.29
555.90	2199.91
556.26	2204.62
556.61	2209.22
556.97	2213.44
557.32	2217.52
557.68	2221.83
558.03	2226.11
558.39	2229.72
558.74	2234.33
559.10	2238.13
559.45	2241.67
559.81	2245.93
560.16	2249.73
560.52	2253.07
560.87	2256.59
561.23	2259.14
561.58	2262.04
561.94	2264.50
562.29	2267.08
562.64	2269.69
563.00	2272.16
563.35	2275.59
563.71	2278.76
564.06	2282.04
564.42	2284.82
564.77	2287.38
565.12	2289.51
565.48	2291.40
565.83	2293.32
566.19	2294.56
566.54	2295.49
566.89	2296.65
567.25	2297.07
567.60	2298.43
567.96	2299.95
568.31	2300.69
568.66	2301.87
569.02	2302.41
569.37	2302.68
569.72	2303.44
570.08	2303.61
570.43	2303.75
570.78	2303.05
571.14	2301.53
571.49	2300.09
571.84	2299.78
572.20	2298.72
572.55	2297.47
572.90	2295.81
573.26	2294.36
573.61	2292.87
573.96	2291.09
574.31	2288.10
574.67	2285.19
575.02	2281.51
575.37	2278.31
575.72	2274.49
576.08	2271.18
576.43	2267.83
576.78	2264.18
577.13	2261.13
577.49	2257.89
577.84	2254.36
578.19	2250.75
578.54	2246.99
578.90	2242.76
579.25	2237.27
579.60	2232.22
579.95	2227.36
580.30	2222.40
580.66	2217.30
581.01	2212.12
581.36	2207.18
581.71	2202.91
582.06	2198.36
582.42	2193.77
582.77	2188.31
583.12	2183.69
583.47	2178.83
583.82	2173.78
584.17	2168.61
584.53	2162.94
584.88	2157.43
585.23	2151.66
585.58	2146.04
585.93	2140.69
586.28	2135.95
586.63	2130.88
586.98	2126.02
587.34	2121.30
587.69	2116.46
588.04	2111.12
588.39	2105.54
588.74	2099.07
589.09	2093.02
589.44	2086.29
589.79	2080.38
590.14	2074.84
590.49	2068.21
590.84	2061.87
591.19	2055.97
591.54	2049.52
591.89	2042.05
592.25	2035.19
592.60	2027.93
592.95	2020.31
593.30	2012.82
593.65	2005.21
594.00	1998.17
594.35	1990.78
594.70	1982.75
595.05	1975.32
595.40	1968.03
595.75	1960.46
596.10	1954.19
596.45	1947.38
596.80	1941.10
597.15	1934.40
597.50	1927.23
597.85	1920.95
598.19	1914.19
598.54	1906.97
598.89	1900.36
599.24	1894.47
599.59	1887.66
599.94	1881.39
600.29	1875.12
600.64	1868.65
600.99	1861.11
601.34	1854.19
601.69	1846.99
602.04	1839.95
602.39	1832.58
602.74	1825.84
603.08	1819.12
603.43	1812.45
603.78	1805.07
604.13	1797.81
604.48	1790.46
604.83	1783.72
605.18	1776.62
605.53	1768.61
605.87	1760.60
606.22	1753.30
606.57	1745.37
606.92	1738.15
607.27	1730.93
607.62	1724.04
607.96	1716.67
608.31	1710.16
608.66	1702.54
609.01	1695.14
609.36	1687.76
609.70	1679.84
610.05	1671.72
610.40	1663.92
610.75	1655.42
611.10	1647.84
611.44	1639.61
611.79	1631.62
612.14	1622.76
612.49	1613.55
612.83	1605.26
613.18	1597.25
613.53	1589.16
613.88	1580.65
614.22	1572.32
614.57	1563.74
614.92	1555.64
615.27	1547.99
615.61	1539.62
615.96	1531.58
616.31	1523.92
616.65	1516.38
617.00	1508.91
617.35	1501.30
617.70	1493.00
618.04	1484.65
618.39	1476.37
618.74	1468.57
619.08	1460.28
619.43	1452.78
619.78	1446.00
620.12	1438.87
620.47	1431.25
620.82	1423.03
621.16	1415.71
621.51	1408.18
621.85	1400.62
622.20	1392.01
622.55	1383.77
622.89	1375.93
623.24	1368.35
623.59	1360.99
623.93	1353.55
624.28	1346.29
624.62	1338.71
624.97	1331.54
625.32	1324.82
625.66	1317.85
626.01	1310.73
626.35	1303.22
626.70	1295.56
627.04	1287.73
627.39	1279.82
627.73	1272.42
628.08	1265.60
628.43	1258.22
628.77	1250.72
629.12	1243.08
629.46	1236.01
629.81	1228.58
630.15	1221.18
630.50	1213.79
630.84	1205.41
631.19	1197.51
631.53	1189.90
631.88	1182.32
632.22	1174.68
632.57	1167.24
632.91	1159.65
633.26	1152.28
633.60	1144.93
633.95	1137.77
634.29	1130.84
634.64	1124.12
634.98	1116.80
635.32	1109.47
635.67	1102.91
636.01	1096.30
636.36	1089.51
636.70	1083.02
637.05	1076.41
637.39	1070.13
637.73	1063.49
638.08	1057.75
638.42	1051.72
638.77	1045.31
639.11	1038.65
639.45	1032.37
639.80	1025.74
640.14	1019.28
640.49	1012.75
640.83	1006.45
641.17	1000.24
641.52	993.86
641.86	987.42
642.20	981.48
642.55	975.24
642.89	968.65
643.23	962.15
643.58	956.37
643.92	950.13
644.26	944.00
644.61	937.98
644.95	932.07
645.29	925.38
645.64	918.59
645.98	912.22
646.32	906.43
646.66	900.23
647.01	894.41
647.35	888.76
647.69	882.98
648.04	877.53
648.38	871.67
648.72	865.60
649.06	859.55
649.41	853.70
649.75	847.72
650.09	841.86
650.43	836.03
650.78	829.86
651.12	823.93
651.46	818.26
651.80	812.45
652.14	807.06
652.49	801.77
652.83	796.62
653.17	790.93
653.51	785.18
653.85	779.94
654.20	774.28
654.54	768.23
654.88	762.49
655.22	756.57
655.56	750.90
655.90	745.50
656.25	740.26
656.59	734.86
656.93	729.81
657.27	724.64
657.61	719.23
657.95	714.21
658.29	709.08
658.64	703.90
658.98	698.62
659.32	693.14
659.66	687.97
660.00	682.65
660.34	677.70
660.68	672.86
661.02	667.79
661.36	663.11
661.70	658.63
662.05	654.21
662.39	649.84
662.73	645.44
663.07	641.06
663.41	636.61
663.75	632.15
664.09	627.59
664.43	623.14
664.77	619.05
665.11	614.74
665.45	610.65
665.79	606.54
666.13	602.38
666.47	598.24
666.81	594.01
667.15	589.93
667.49	586.06
667.83	582.23
668.17	578.26
668.51	574.11
668.85	570.10
669.19	566.29
669.53	562.48
669.87	558.55
670.21	554.83
670.55	551.23
670.89	547.81
671.23	544.31
671.57	540.82
671.91	537.26
672.25	533.82
672.58	530.36
672.92	526.99
673.26	523.85
673.60	520.71
673.94	517.66
674.28	514.75
674.62	511.82
674.96	508.70
675.30	505.80
675.64	502.91
675.97	500.20
676.31	497.25
676.65	494.28
676.99	491.57
677.33	488.69
677.67	485.90
678.01	482.87
678.34	479.94
678.68	477.15
679.02	474.35
679.36	471.55
679.70	468.76
680.04	465.89
680.37	462.99
680.71	460.21
681.05	457.58
681.39	454.86
681.73	452.18
682.06	449.60
682.40	447.09
682.74	444.60
683.08	441.98
683.42	439.44
683.75	437.00
684.09	434.42
684.43	432.02
684.77	429.52
685.10	427.16
685.44	424.88
685.78	422.57
686.12	420.32
686.45	418.04
686.79	415.76
687.13	413.58
687.46	411.46
687.80	409.34
688.14	407.10
688.48	405.04
688.81	402.80
689.15	400.74
689.49	398.59
689.82	396.46
690.16	394.43
690.50	392.49
690.83	390.48
691.17	388.57
691.51	386.66
691.84	384.80
692.18	382.85
692.52	380.83
692.85	378.90
693.19	376.99
693.52	375.15
693.86	373.34
694.20	371.58
694.53	369.79
694.87	367.92
695.21	366.17
695.54	364.33
695.88	362.64
696.21	360.91
696.55	359.26
696.88	357.57
697.22	355.84
697.56	354.21
697.89	352.59
698.23	350.98
698.56	349.34
698.90	347.77
699.23	346.16
699.57	344.68
699.90	343.14
700.24	341.60
700.58	340.08
700.91	338.64
701.25	337.21
701.58	335.85
701.92	334.48
702.25	333.06
702.59	331.73
702.92	330.38
703.26	329.06
703.59	327.75
703.93	326.62
704.26	325.42
704.60	324.14
704.93	322.85
705.26	321.59
705.60	320.49
705.93	319.32
706.27	318.27
706.60	317.13
706.94	316.07
707.27	314.97
707.61	313.93
707.94	312.90
708.27	311.81
708.61	310.70
708.94	309.71
709.28	308.79
709.61	307.79
709.94	306.84
710.28	305.82
710.61	304.88
710.95	303.81
711.28	302.89
711.61	301.92
711.95	301.01
712.28	300.06
712.61	299.00
712.95	298.08
713.28	297.19
713.61	296.34
713.95	295.43
714.28	294.60
714.61	293.68
714.95	292.79
715.28	291.94
715.61	291.09
715.95	290.23
716.28	289.34
716.61	288.55
716.95	287.75
717.28	287.03
717.61	286.21
717.94	285.46
718.28	284.66
718.61	283.94
718.94	283.28
719.27	282.60
719.61	282.00
719.94	281.32
720.27	280.60
720.60	279.92
720.94	279.28
721.27	278.70
721.60	278.14
721.93	277.52
722.27	276.97
722.60	276.42
722.93	275.84
723.26	275.32
723.59	274.72
723.93	274.16
724.26	273.60
724.59	273.05
724.92	272.52
725.25	272.05
725.59	271.53
725.92	271.01
726.25	270.53
726.58	270.01
726.91	269.51
727.24	269.07
727.57	268.58
727.91	268.09
728.24	267.57
728.57	267.11
728.90	266.72
729.23	266.23
729.56	265.83
729.89	265.38
730.22	264.87
730.55	264.42
730.89	263.95
731.22	263.53
731.55	263.10
731.88	262.71
732.21	262.26
732.54	261.85
732.87	261.39
733.20	260.97
733.53	260.60
733.86	260.24
734.19	259.85
734.52	259.46
734.85	259.15
735.18	258.74
735.51	258.35
735.84	257.95
736.17	257.59
736.50	257.14
736.83	256.90
737.16	256.60
737.49	256.29
737.82	255.98
738.15	255.65
738.48	255.34
738.81	254.99
739.14	254.68
739.47	254.37
739.80	254.09
740.13	253.79
740.46	253.50
740.79	253.13
741.12	252.83
741.45	252.54
741.78	252.16
742.11	251.93
742.44	251.63
742.77	251.37
743.10	251.10
743.43	250.82
743.75	250.44
744.08	250.28
744.41	250.00
744.74	249.74
745.07	249.44
745.40	249.17
745.73	248.96
746.06	248.65
746.39	248.37
746.71	248.13
747.04	247.87
747.37	247.57
747.70	247.35
748.03	247.08
748.36	246.86
748.68	246.64
749.01	246.41
749.34	246.15
749.67	245.89
750.00	245.66
750.33	245.50
750.65	245.30
750.98	244.97
751.31	244.77
751.64	244.54
751.97	244.37
752.29	244.17
752.62	243.90
752.95	243.72
753.28	243.52
753.60	243.30
753.93	243.13
754.26	242.94
754.59	242.76
754.91	242.58
755.24	242.39
755.57	242.22
755.90	241.97
756.22	241.79
756.55	241.61
756.88	241.40
757.20	241.17
757.53	240.98
757.86	240.81
758.19	240.63
758.51	240.47
758.84	240.26
759.17	240.10
759.49	239.93
759.82	239.83
760.15	239.67
760.47	239.53
760.80	239.34
761.13	239.21
761.45	239.04
761.78	238.89
762.11	238.79
762.43	238.60
762.76	238.46
763.08	238.31
763.41	238.18
763.74	238.07
764.06	237.94
764.39	237.76
764.71	237.59
765.04	237.45
765.37	237.31
765.69	237.18
766.02	237.03
766.34	236.91
766.67	236.71
767.00	236.59
767.32	236.50
767.65	236.46
767.97	236.32
768.30	236.22
768.62	236.10
768.95	235.93
769.27	235.85
769.60	235.77
769.92	235.68
770.25	235.60
770.57	235.50
770.90	235.38
771.22	235.32
771.55	235.21
771.87	235.14
772.20	235.05
772.52	235.07
772.85	235.10
773.17	235.02
773.50	234.95
773.82	234.83
774.15	234.68
774.47	234.53
774.80	234.45
775.12	234.38
775.45	234.30
775.77	234.22
776.09	234.15
776.42	234.08
776.74	234.03
777.07	233.92
777.39	233.83
777.72	233.76
778.04	233.70
778.36	233.64
778.69	233.58
779.01	233.48
779.33	233.30
779.66	233.11
779.98	233.10
780.31	233.04
780.63	233.02
780.95	232.99
781.28	232.96
781.60	232.85
781.92	232.79
782.25	232.75
782.57	232.69
782.89	232.60
783.22	232.53
783.54	232.43
783.86	232.37
784.19	232.29
784.51	232.26
784.83	232.21
785.16	232.15
785.48	232.05
785.80	232.04
786.12	232.00
786.45	231.95
786.77	231.85
787.09	231.78
787.42	231.70
787.74	231.67
788.06	231.60
788.38	231.59
788.71	231.53
789.03	231.46
789.35	231.44
789.67	231.37
789.99	231.35
790.32	231.32
790.64	231.29
790.96	231.31
791.28	231.22
791.61	231.19
791.93	231.14
792.25	231.10
792.57	231.10
792.89	231.04
793.21	230.98
793.54	230.95
793.86	230.91
794.18	230.87
794.50	230.80
794.82	230.71
795.14	230.68
795.47	230.64
795.79	230.60
796.11	230.52
796.43	230.51
796.75	230.45
797.07	230.42
797.39	230.37
797.71	230.25
798.04	230.23
798.36	230.15
798.68	230.14
799.00	230.12
799.32	230.02
799.64	230.02
799.96	230.03
800.28	230.01
800.60	230.00
800.92	229.99
801.24	229.94
801.56	229.96
801.89	229.93
802.21	229.91
802.53	229.88
802.85	229.86
803.17	229.87
803.49	229.82
803.81	229.78
804.13	229.74
804.45	229.71
804.77	229.69
805.09	229.69
805.41	229.68
805.73	229.63
806.05	229.58
806.37	229.54
806.69	229.49
807.01	229.44
807.33	229.42
807.65	229.34
807.97	229.39
808.28	229.36
808.60	229.31
808.92	229.27
809.24	229.32
809.56	229.33
809.88	229.29
810.20	229.29
810.52	229.25
810.84	229.21
811.16	229.21
811.48	229.19
811.80	229.19
812.12	229.14
812.43	229.14
812.75	229.12
813.07	229.11
813.39	229.10
813.71	229.10
814.03	229.08
814.35	229.09
814.67	229.01
814.98	228.97
815.30	228.93
815.62	228.91
815.94	228.83
816.26	228.83
816.58	228.80
816.89	228.80
817.21	228.82
817.53	228.84
817.85	228.79
818.17	228.78
818.48	228.74
818.80	228.76
819.12	228.72
819.44	228.71
819.76	228.68
820.07	228.70
820.39	228.68
820.71	228.66
821.03	228.62
821.34	228.62
821.66	228.63
821.98	228.65
822.30	228.61
822.61	228.64
822.93	228.60
823.25	228.58
823.57	228.57
823.88	228.55
824.20	228.56
824.52	228.57
824.83	228.57
825.15	228.51
825.47	228.49
825.79	228.49
826.10	228.47
826.42	228.44
826.74	228.39
827.05	228.34
827.37	228.36
827.69	228.36
828.00	228.37
828.32	228.35
828.64	228.33
828.95	228.35
829.27	228.32
829.58	228.28
829.90	228.31
830.22	228.29
830.53	228.27
830.85	228.18
831.17	228.13
831.48	228.12
831.80	228.13
832.11	228.10
832.43	228.09
832.75	228.10
833.06	228.19
833.38	228.16
833.69	228.15
834.01	228.09
834.32	228.08
834.64	228.01
834.96	228.01
835.27	227.96
835.59	227.92
835.90	227.90
836.22	227.89
836.53	227.84
836.85	227.81
837.16	227.90
837.48	227.91
837.79	227.96
838.11	227.93
838.42	227.95
838.74	227.95
839.05	227.93
839.37	227.90
839.68	227.80
840.00	227.79
840.31	227.77
840.63	227.76
840.94	227.72
841.26	227.71
841.57	227.68
841.88	227.70
842.20	227.72
842.51	227.67
842.83	227.64
843.14	227.72
843.46	227.70
843.77	227.64
844.08	227.65
844.40	227.60
844.71	227.60
845.03	227.52
845.34	227.47
845.65	227.50
845.97	227.47
846.28	227.49
846.60	227.50
846.91	227.51
847.22	227.52
847.54	227.54
847.85	227.56
848.16	227.58
848.48	227.58
848.79	227.58
849.10	227.61
849.42	227.60
849.73	227.52
850.04	227.51
850.36	227.46
850.67	227.46
850.98	227.48
851.30	227.47
851.61	227.47
851.92	227.48
852.23	227.49
852.55	227.53
852.86	227.52
853.17	227.53
853.49	227.55
853.80	227.54
854.11	227.57
854.42	227.56
854.74	227.53
855.05	227.56
855.36	227.52
855.67	227.52
855.99	227.54
856.30	227.62
856.61	227.63
856.92	227.65
857.23	227.65
857.55	227.62
857.86	227.59
858.17	227.63
858.48	227.61
858.79	227.58
859.11	227.58
859.42	227.55
859.73	227.52
860.04	227.53
860.35	227.51
860.66	227.45
860.98	227.41
861.29	227.43
861.60	227.39
861.91	227.39
862.22	227.38
862.53	227.37
862.84	227.27
863.16	227.28
863.47	227.26
863.78	227.26
864.09	227.29
864.40	227.30
864.71	227.31
865.02	227.32
865.33	227.31
865.64	227.28
865.95	227.28
866.27	227.34
866.58	227.33
866.89	227.34
867.20	227.37
867.51	227.40
867.82	227.38
868.13	227.43
868.44	227.42
868.75	227.43
869.06	227.45
869.37	227.48
869.68	227.45
869.99	227.45
870.30	227.44
870.61	227.45
870.92	227.47
871.23	227.46
871.54	227.46
871.85	227.50
872.16	227.51
872.47	227.50
872.78	227.47
873.09	227.48
873.40	227.49
873.71	227.50
874.02	227.50
874.33	227.53
874.64	227.46
874.95	227.48
875.26	227.48
875.56	227.46
875.87	227.45
876.18	227.44
876.49	227.56
876.80	227.53
877.11	227.51
877.42	227.50
877.73	227.48
878.04	227.49
878.35	227.46
878.66	227.47
878.96	227.47
879.27	227.45
879.58	227.41
879.89	227.39
880.20	227.39
880.51	227.36
880.82	227.35
881.12	227.38
881.43	227.35
881.74	227.33
882.05	227.33
882.36	227.32
882.67	227.33
882.97	227.19
883.28	227.20
883.59	227.23
883.90	227.19
884.21	227.20
884.51	227.19
884.82	227.19
885.13	227.18
885.44	227.19
885.74	227.20
886.05	227.22
886.36	227.22
886.67	227.19
886.98	227.25
887.28	227.25
887.59	227.25
887.90	227.25
888.20	227.24
888.51	227.23
888.82	227.21
889.13	227.22
889.43	227.32
889.74	227.30
890.05	227.28
890.35	227.28
890.66	227.28
890.97	227.28
891.28	227.26
891.58	227.24
891.89	227.25
892.20	227.24
892.50	227.23
892.81	227.20
893.12	227.19
893.42	227.14
893.73	227.11
894.04	227.10
894.34	227.12
894.65	227.09
894.95	227.10
895.26	227.08
895.57	227.13
895.87	227.03
896.18	227.05
896.48	227.03
896.79	227.04
897.10	227.07
897.40	227.06
897.71	227.08
898.01	227.08
898.32	227.05
898.63	227.05
898.93	227.05
899.24	227.05
899.54	227.06
899.85	227.06
900.15	227.05
900.46	227.03
900.76	227.04
901.07	227.06
901.38	227.06
901.68	227.08
901.99	227.02
902.29	227.03
902.60	227.00
902.90	227.00
903.21	227.01
903.51	226.97
903.82	227.00
904.12	226.99
904.43	227.00
904.73	227.01
905.03	227.01
905.34	227.08
905.64	227.07
905.95	227.08
906.25	227.06
906.56	227.08
906.86	227.09
907.17	227.08
907.47	227.08
907.77	227.07
908.08	227.05
908.38	227.08
908.69	227.09
908.99	227.11
909.30	227.14
909.60	227.16
909.90	227.18
910.21	227.13
910.51	227.08
910.81	227.08
911.12	227.12
911.42	227.11
911.73	227.00
912.03	227.04
912.33	227.06
912.64	227.10
912.94	227.10
913.24	227.07
913.55	227.06
913.85	227.09
914.15	227.10
914.46	227.12
914.76	227.08
915.06	227.09
915.37	227.08
915.67	227.09
915.97	227.09
916.27	227.06
916.58	227.06
916.88	227.08
917.18	227.06
917.49	227.07
917.79	227.09
918.09	227.12
918.39	227.12
918.70	227.12
919.00	227.10
919.30	227.14
919.60	227.17
919.91	227.17
920.21	227.15
920.51	227.14
920.81	227.12
921.12	227.15
921.42	227.13
921.72	227.15
922.02	227.14
922.32	227.12
922.63	227.14
922.93	227.20
923.23	227.23
923.53	227.25
923.83	227.20
924.13	227.19
924.44	227.17
924.74	227.17
925.04	227.19
925.34	227.20
925.64	227.17
925.94	227.17
926.24	227.23
926.55	227.25
926.85	227.24
927.15	227.28
927.45	227.27
927.75	227.28
928.05	227.26
928.35	227.25
928.65	227.28
928.95	227.27
929.26	227.24
929.56	227.23
929.86	227.23
930.16	227.24
930.46	227.22
930.76	227.26
931.06	227.21
931.36	227.19
931.66	227.19
931.96	227.18
932.26	227.15
932.56	227.10
932.86	227.09
933.16	227.07
933.46	227.05
933.76	227.03
934.06	227.05
934.36	227.10
934.66	227.08
934.96	227.07
935.26	227.07
935.56	227.06
935.86	227.05
936.16	227.05
936.46	227.05
936.76	227.08
937.06	227.04
937.36	227.04
937.66	227.04
937.96	227.06
938.26	227.03
938.56	227.04
938.86	227.04
939.16	227.05
939.46	227.09
939.76	227.07
940.06	227.10
940.35	227.06
940.65	227.00
940.95	227.02
941.25	226.97
941.55	226.93
941.85	226.90
942.15	226.91
942.45	226.92
942.75	226.91
943.04	226.89
943.34	226.92
943.64	226.92
943.94	226.91
944.24	226.88
944.54	226.88
944.84	226.88
945.13	226.86
945.43	226.85
945.73	226.81
946.03	226.81
946.33	226.74
946.62	226.73
946.92	226.71
947.22	226.71
947.52	226.75
947.82	226.81
948.11	226.81
948.41	226.80
948.71	226.75
949.01	226.74
949.31	226.75
949.60	226.73
949.90	226.75
950.20	226.74
950.50	226.74
950.79	226.71
951.09	226.71
951.39	226.69
951.69	226.67
951.98	226.74
952.28	226.76
952.58	226.79
952.87	226.82
953.17	226.86
953.47	226.86
953.76	226.86
954.06	226.82
954.36	226.86
954.66	226.86
954.95	226.88
955.25	226.89
955.55	226.90
955.84	226.88
956.14	226.92
956.44	226.93
956.73	226.90
957.03	226.94
957.32	226.94
957.62	226.97
957.92	226.98
958.21	226.95
958.51	227.08
958.81	227.08
959.10	227.09
959.40	227.12
959.69	227.10
959.99	227.09
960.29	227.10
960.58	227.11
960.88	227.15
961.17	227.17
961.47	227.18
961.76	227.15
962.06	227.19
962.36	227.15
962.65	227.16
962.95	227.20
963.24	227.20
963.54	227.20
963.83	227.20
964.13	227.19
964.42	227.19
964.72	227.09
965.01	227.09
965.31	227.11
965.60	227.10
965.90	227.17
966.19	227.15
966.49	227.17
966.78	227.12
967.08	227.09
967.37	227.09
967.67	227.09
967.96	227.12
968.26	227.12
968.55	227.12
968.85	227.09
969.14	227.07
969.43	227.06
969.73	227.07
970.02	227.03
970.32	227.06
970.61	227.04
970.91	227.01
971.20	226.96
971.49	226.92
971.79	226.91
972.08	226.83
972.38	226.85
972.67	226.84
972.96	226.85
973.26	226.84
973.55	226.85
973.85	226.82
974.14	226.83
974.43	226.83
974.73	226.83
975.02	226.83
975.31	226.84
975.61	226.84
975.90	226.84
976.19	226.87
976.49	226.84
976.78	226.84
977.07	226.85
977.37	226.88
977.66	226.88
977.95	226.85
978.24	226.82
978.54	226.83
978.83	226.82
979.12	226.85
979.42	226.85
979.71	226.79
980.00	226.81
980.29	226.82
980.59	226.80
980.88	226.80
981.17	226.81
981.46	226.81
981.76	226.78
982.05	226.77
982.34	226.77
982.63	226.75
982.93	226.73
983.22	226.76
983.51	226.73
983.80	226.78
984.09	226.80
984.39	226.82
984.68	226.82
984.97	226.79
985.26	226.75
985.55	226.76
985.85	226.78
986.14	226.78
986.43	226.77
986.72	226.74
987.01	226.74
987.30	226.70
987.59	226.68
987.89	226.70
988.18	226.71
988.47	226.72
988.76	226.75
989.05	226.77
989.34	226.75
989.63	226.82
989.92	226.76
990.22	226.72
990.51	226.72
990.80	226.70
991.09	226.73
991.38	226.74
991.67	226.72
991.96	226.70
992.25	226.69
992.54	226.68
992.83	226.70
993.12	226.68
993.41	226.73
993.70	226.76
993.99	226.80
994.28	226.80
994.58	226.80
994.87	226.75
995.16	226.72
995.45	226.70
995.74	226.64
996.03	226.67
996.32	226.70
996.61	226.72
996.90	226.76
997.19	226.77
997.48	226.78
997.77	226.75
998.06	226.79
998.34	226.81
998.63	226.78
998.92	226.79
999.21	226.78
999.50	226.80
999.79	226.76
1000.08	226.70
1000.37	226.69
1000.66	226.69
1000.95	226.75
1001.24	226.77
1001.53	226.77
1001.82	226.80
1002.11	226.78
1002.40	226.78
1002.68	226.80
1002.97	226.85
1003.26	226.83
1003.55	226.81
1003.84	226.84
1004.13	226.90
1004.42	226.88
1004.71	226.91
1004.99	226.90
1005.28	226.92
1005.57	226.88
1005.86	226.91
1006.15	226.93
1006.44	226.93
1006.72	226.94
1007.01	226.92
1007.30	226.93
1007.59	226.93
1007.88	226.90
1008.17	226.90
1008.45	226.90
1008.74	226.85
1009.03	226.77
1009.32	226.77
1009.60	226.77
1009.89	226.76
1010.18	226.64
1010.47	226.66
1010.76	226.67
1011.04	226.62
1011.33	226.65
1011.62	226.69
1011.91	226.68
1012.19	226.65
1012.48	226.66
1012.77	226.65
1013.05	226.67
1013.34	226.65
1013.63	226.63
1013.92	226.65
1014.20	226.64
1014.49	226.60
1014.78	226.60
1015.06	226.58
1015.35	226.58
1015.64	226.60
1015.92	226.61
1016.21	226.63
1016.50	226.62
1016.78	226.59
1017.07	226.63
1017.36	226.62
1017.64	226.56
1017.93	226.58
1018.22	226.60
1018.50	226.57
1018.79	226.57
1019.08	226.53
1019.36	226.55
1019.65	226.56
1019.93	226.57
1020.22	226.57
1020.51	226.63
1020.79	226.64
1021.08	226.76
1021.36	226.33
1021.65	226.66
1021.94	226.41
1022.22	226.87
1022.51	226.45
1022.79	226.87
1023.08	226.53
1023.36	227.45
1023.65	226.35
>>>>>End Processed Spectral Data<<<<<
