SpectraSuite Data File
++++++++++++++++++++++++++++++++++++
Date: Fri Feb 01 14:54:47 EST 2013
User: group
Dark Spectrum Present: No
Reference Spectrum Present: No
Number of Sampled Component Spectra: 1
Spectrometers: USB2E7196
Integration Time (usec): 35000 (USB2E7196)
Spectra Averaged: 100 (USB2E7196)
Boxcar Smoothing: 10 (USB2E7196)
Correct for Electrical Dark: No (USB2E7196)
Strobe/Lamp Enabled: No (USB2E7196)
Correct for Detector Non-linearity: No (USB2E7196)
Correct for Stray Light: No (USB2E7196)
Number of Pixels in Processed Spectrum: 2048
>>>>>Begin Processed Spectral Data<<<<<
339.09	0.00
339.48	215.36
339.86	216.95
340.24	218.55
340.63	219.07
341.01	222.77
341.39	222.77
341.78	223.88
342.16	224.95
342.54	224.73
342.93	213.72
343.31	224.51
343.69	225.08
344.07	225.55
344.46	225.99
344.84	226.43
345.22	226.66
345.60	226.87
345.99	227.05
346.37	227.18
346.75	227.30
347.13	227.38
347.52	227.43
347.90	227.49
348.28	227.54
348.66	227.59
349.05	227.58
349.43	227.61
349.81	227.65
350.19	227.67
350.57	227.75
350.96	227.85
351.34	227.94
351.72	228.01
352.10	228.10
352.48	228.13
352.87	228.17
353.25	228.26
353.63	228.32
354.01	228.40
354.39	228.44
354.77	228.52
355.15	228.64
355.54	228.71
355.92	228.73
356.30	228.77
356.68	228.88
357.06	228.97
357.44	229.04
357.82	229.10
358.20	229.17
358.58	229.21
358.97	229.24
359.35	229.32
359.73	229.37
360.11	229.43
360.49	229.47
360.87	229.50
361.25	229.54
361.63	229.64
362.01	229.65
362.39	229.68
362.77	229.73
363.15	229.73
363.53	229.71
363.91	229.73
364.29	229.73
364.67	229.65
365.05	229.68
365.43	229.65
365.81	229.67
366.19	229.71
366.57	229.68
366.95	229.66
367.33	229.59
367.71	229.58
368.09	229.60
368.47	229.61
368.85	229.57
369.23	229.55
369.61	229.44
369.99	229.46
370.37	229.46
370.75	229.46
371.13	229.42
371.51	229.39
371.89	229.39
372.27	229.36
372.65	229.32
373.03	229.22
373.41	229.15
373.78	229.08
374.16	228.95
374.54	228.87
374.92	228.83
375.30	228.75
375.68	228.66
376.06	228.53
376.44	228.41
376.82	228.35
377.19	228.26
377.57	228.19
377.95	228.06
378.33	227.95
378.71	227.82
379.09	227.74
379.47	227.66
379.84	227.53
380.22	227.45
380.60	227.38
380.98	227.31
381.36	227.26
381.73	227.17
382.11	227.15
382.49	227.11
382.87	227.01
383.25	226.97
383.62	227.01
384.00	226.92
384.38	226.89
384.76	226.83
385.13	226.81
385.51	226.78
385.89	226.73
386.27	226.68
386.64	226.66
387.02	226.60
387.40	226.57
387.78	226.57
388.15	226.53
388.53	226.46
388.91	226.47
389.29	226.44
389.66	226.43
390.04	226.42
390.42	226.42
390.79	226.41
391.17	226.41
391.55	226.31
391.92	226.31
392.30	226.34
392.68	226.31
393.05	226.30
393.43	226.33
393.81	226.38
394.18	226.39
394.56	226.38
394.94	226.46
395.31	226.47
395.69	226.56
396.06	226.62
396.44	226.69
396.82	226.71
397.19	226.81
397.57	226.84
397.95	226.90
398.32	226.93
398.70	227.02
399.07	227.10
399.45	227.19
399.82	227.31
400.20	227.39
400.58	227.50
400.95	227.56
401.33	227.66
401.70	227.80
402.08	227.93
402.45	228.07
402.83	228.20
403.20	228.32
403.58	228.38
403.95	228.54
404.33	228.67
404.71	228.84
405.08	229.04
405.46	229.19
405.83	229.33
406.21	229.47
406.58	229.65
406.96	229.82
407.33	230.02
407.70	230.23
408.08	230.50
408.45	230.75
408.83	231.00
409.20	231.23
409.58	231.41
409.95	231.67
410.33	231.93
410.70	232.15
411.08	232.48
411.45	232.80
411.82	233.10
412.20	233.49
412.57	233.89
412.95	234.15
413.32	234.55
413.69	234.99
414.07	235.47
414.44	235.93
414.82	236.39
415.19	236.95
415.56	237.46
415.94	238.00
416.31	238.61
416.68	239.23
417.06	239.93
417.43	240.60
417.81	241.38
418.18	242.16
418.55	243.00
418.93	243.84
419.30	244.74
419.67	245.68
420.04	246.63
420.42	247.60
420.79	248.78
421.16	249.91
421.54	251.09
421.91	252.27
422.28	253.52
422.66	254.86
423.03	256.12
423.40	257.46
423.77	258.84
424.15	260.27
424.52	261.75
424.89	263.34
425.26	264.83
425.64	266.25
426.01	267.81
426.38	269.46
426.75	271.13
427.13	272.84
427.50	274.62
427.87	276.50
428.24	278.36
428.61	280.08
428.99	282.02
429.36	284.11
429.73	286.18
430.10	288.18
430.47	290.21
430.85	292.32
431.22	294.51
431.59	296.90
431.96	299.12
432.33	301.57
432.70	303.96
433.08	306.83
433.45	309.48
433.82	312.12
434.19	315.02
434.56	317.79
434.93	320.49
435.30	323.13
435.68	326.00
436.05	328.82
436.42	331.63
436.79	334.20
437.16	336.89
437.53	339.73
437.90	342.58
438.27	345.31
438.64	348.21
439.01	350.82
439.38	353.09
439.75	355.30
440.13	357.82
440.50	360.15
440.87	362.02
441.24	363.98
441.61	366.14
441.98	367.63
442.35	369.51
442.72	371.32
443.09	373.18
443.46	374.16
443.83	374.77
444.20	375.32
444.57	376.11
444.94	376.37
445.31	376.74
445.68	377.03
446.05	377.15
446.42	376.74
446.79	376.36
447.16	375.89
447.53	375.62
447.90	374.45
448.27	373.32
448.64	371.74
449.01	370.62
449.37	368.65
449.74	366.75
450.11	364.52
450.48	362.06
450.85	359.51
451.22	357.38
451.59	355.41
451.96	353.48
452.33	350.92
452.70	348.63
453.07	345.79
453.43	342.99
453.80	340.21
454.17	337.57
454.54	335.04
454.91	332.34
455.28	329.60
455.65	327.14
456.02	324.68
456.38	322.53
456.75	319.87
457.12	317.60
457.49	315.39
457.86	313.19
458.23	311.39
458.59	309.31
458.96	307.24
459.33	305.34
459.70	303.46
460.07	301.95
460.43	300.25
460.80	298.59
461.17	297.13
461.54	295.64
461.91	294.16
462.27	292.66
462.64	291.38
463.01	290.03
463.38	288.69
463.74	287.32
464.11	286.12
464.48	285.09
464.85	283.98
465.21	283.11
465.58	282.13
465.95	280.98
466.32	280.07
466.68	279.18
467.05	278.28
467.42	277.37
467.78	276.42
468.15	275.47
468.52	274.83
468.88	273.94
469.25	273.15
469.62	272.51
469.98	271.83
470.35	271.16
470.72	270.59
471.08	269.90
471.45	269.34
471.82	268.80
472.18	268.16
472.55	267.71
472.92	267.12
473.28	266.66
473.65	266.23
474.02	265.75
474.38	265.31
474.75	264.92
475.11	264.55
475.48	264.24
475.85	263.99
476.21	263.71
476.58	263.49
476.94	263.33
477.31	263.13
477.67	262.99
478.04	262.90
478.41	262.75
478.77	262.78
479.14	262.72
479.50	262.70
479.87	262.80
480.23	262.84
480.60	262.93
480.96	263.00
481.33	263.15
481.69	263.33
482.06	263.50
482.42	263.74
482.79	263.97
483.15	264.31
483.52	264.68
483.88	265.02
484.25	265.43
484.61	265.85
484.98	266.32
485.34	266.85
485.71	267.40
486.07	268.05
486.44	268.62
486.80	269.34
487.17	270.05
487.53	270.80
487.90	271.66
488.26	272.58
488.62	273.60
488.99	274.57
489.35	275.63
489.72	276.77
490.08	277.94
490.44	279.19
490.81	280.48
491.17	281.84
491.54	283.32
491.90	284.85
492.26	286.49
492.63	288.20
492.99	289.98
493.36	291.88
493.72	293.84
494.08	295.95
494.45	298.17
494.81	300.56
495.17	302.98
495.54	305.54
495.90	308.22
496.26	310.99
496.63	313.92
496.99	317.01
497.35	320.25
497.72	323.65
498.08	327.14
498.44	330.86
498.80	334.73
499.17	338.73
499.53	342.87
499.89	347.24
500.26	351.73
500.62	356.42
500.98	361.35
501.34	366.48
501.71	371.78
502.07	377.17
502.43	382.73
502.79	388.55
503.16	394.61
503.52	400.79
503.88	407.15
504.24	413.79
504.60	420.62
504.97	427.75
505.33	435.01
505.69	442.67
506.05	450.40
506.41	458.29
506.78	466.46
507.14	474.86
507.50	483.52
507.86	492.53
508.22	501.66
508.59	510.81
508.95	520.34
509.31	530.09
509.67	540.16
510.03	550.41
510.39	560.96
510.75	571.72
511.12	582.74
511.48	594.01
511.84	605.39
512.20	616.93
512.56	628.86
512.92	641.02
513.28	653.34
513.64	665.80
514.00	678.49
514.37	691.37
514.73	704.40
515.09	717.40
515.45	730.74
515.81	744.25
516.17	758.28
516.53	772.38
516.89	786.54
517.25	800.75
517.61	815.11
517.97	829.57
518.33	844.01
518.69	858.69
519.05	873.73
519.41	888.99
519.77	904.47
520.13	919.95
520.49	935.32
520.85	950.74
521.21	966.46
521.57	982.72
521.93	998.51
522.29	1014.98
522.65	1031.33
523.01	1047.50
523.37	1063.65
523.73	1079.87
524.09	1095.95
524.45	1112.37
524.81	1128.97
525.17	1145.97
525.53	1162.96
525.89	1179.82
526.25	1196.79
526.61	1213.39
526.97	1230.19
527.33	1246.79
527.68	1263.42
528.04	1280.09
528.40	1296.88
528.76	1314.17
529.12	1330.82
529.48	1347.80
529.84	1363.88
530.20	1380.59
530.56	1397.85
530.91	1415.35
531.27	1432.08
531.63	1448.68
531.99	1465.26
532.35	1481.39
532.71	1497.34
533.07	1513.65
533.42	1529.68
533.78	1545.74
534.14	1561.85
534.50	1577.26
534.86	1593.20
535.21	1608.38
535.57	1624.34
535.93	1639.83
536.29	1654.60
536.65	1669.84
537.00	1684.77
537.36	1700.19
537.72	1714.79
538.08	1729.25
538.44	1743.11
538.79	1757.30
539.15	1771.22
539.51	1785.14
539.87	1799.65
540.22	1813.49
540.58	1827.27
540.94	1840.74
541.29	1853.79
541.65	1866.66
542.01	1880.04
542.37	1892.44
542.72	1905.05
543.08	1917.05
543.44	1929.51
543.79	1940.81
544.15	1951.72
544.51	1963.24
544.87	1974.26
545.22	1985.09
545.58	1995.22
545.94	2005.07
546.29	2014.85
546.65	2024.60
547.01	2033.77
547.36	2042.52
547.72	2051.02
548.07	2058.81
548.43	2066.92
548.79	2074.96
549.14	2082.36
549.50	2089.71
549.86	2097.55
550.21	2104.79
550.57	2111.84
550.92	2118.39
551.28	2125.43
551.64	2132.56
551.99	2139.12
552.35	2145.18
552.70	2151.21
553.06	2157.13
553.41	2163.33
553.77	2169.33
554.13	2175.29
554.48	2181.40
554.84	2186.73
555.19	2191.94
555.55	2197.06
555.90	2201.43
556.26	2206.19
556.61	2211.06
556.97	2215.00
557.32	2218.94
557.68	2223.03
558.03	2227.24
558.39	2230.95
558.74	2235.52
559.10	2239.24
559.45	2242.70
559.81	2246.92
560.16	2250.67
560.52	2253.97
560.87	2257.30
561.23	2259.84
561.58	2262.74
561.94	2265.12
562.29	2267.42
562.64	2269.99
563.00	2272.52
563.35	2276.02
563.71	2278.95
564.06	2281.90
564.42	2284.80
564.77	2287.19
565.12	2289.26
565.48	2290.93
565.83	2292.54
566.19	2293.47
566.54	2294.30
566.89	2295.40
567.25	2295.83
567.60	2297.14
567.96	2298.59
568.31	2299.30
568.66	2300.23
569.02	2300.66
569.37	2300.93
569.72	2301.60
570.08	2301.52
570.43	2301.40
570.78	2300.57
571.14	2298.86
571.49	2297.34
571.84	2296.77
572.20	2295.25
572.55	2293.95
572.90	2292.31
573.26	2290.73
573.61	2289.02
573.96	2287.05
574.31	2283.88
574.67	2280.74
575.02	2276.92
575.37	2273.20
575.72	2269.11
576.08	2265.60
576.43	2262.17
576.78	2258.34
577.13	2254.93
577.49	2251.71
577.84	2248.14
578.19	2244.29
578.54	2240.48
578.90	2236.08
579.25	2230.47
579.60	2225.53
579.95	2220.47
580.30	2215.24
580.66	2210.02
581.01	2204.88
581.36	2199.70
581.71	2195.38
582.06	2190.76
582.42	2186.02
582.77	2180.75
583.12	2176.13
583.47	2171.13
583.82	2165.91
584.17	2160.38
584.53	2154.84
584.88	2149.04
585.23	2143.03
585.58	2137.39
585.93	2131.91
586.28	2127.05
586.63	2121.90
586.98	2116.50
587.34	2111.81
587.69	2106.85
588.04	2101.37
588.39	2095.63
588.74	2089.21
589.09	2082.86
589.44	2075.95
589.79	2069.90
590.14	2064.10
590.49	2057.46
590.84	2051.03
591.19	2044.83
591.54	2038.28
591.89	2030.60
592.25	2023.65
592.60	2016.30
592.95	2008.56
593.30	2001.11
593.65	1993.38
594.00	1986.08
594.35	1978.88
594.70	1970.65
595.05	1963.33
595.40	1955.99
595.75	1948.48
596.10	1942.01
596.45	1935.09
596.80	1928.76
597.15	1921.96
597.50	1914.77
597.85	1908.36
598.19	1901.60
598.54	1894.51
598.89	1887.98
599.24	1881.99
599.59	1875.22
599.94	1868.99
600.29	1862.66
600.64	1856.03
600.99	1848.54
601.34	1841.69
601.69	1834.71
602.04	1827.58
602.39	1820.12
602.74	1813.29
603.08	1806.46
603.43	1799.77
603.78	1792.65
604.13	1785.46
604.48	1778.09
604.83	1771.29
605.18	1764.08
605.53	1756.01
605.87	1748.03
606.22	1740.62
606.57	1732.88
606.92	1725.60
607.27	1718.45
607.62	1711.50
607.96	1704.19
608.31	1697.47
608.66	1689.85
609.01	1682.35
609.36	1675.07
609.70	1667.15
610.05	1658.99
610.40	1651.32
610.75	1643.00
611.10	1635.26
611.44	1627.02
611.79	1619.13
612.14	1610.46
612.49	1601.55
612.83	1593.43
613.18	1585.22
613.53	1577.33
613.88	1568.80
614.22	1560.57
614.57	1552.08
614.92	1544.11
615.27	1536.61
615.61	1528.51
615.96	1520.60
616.31	1513.04
616.65	1505.58
617.00	1498.14
617.35	1490.64
617.70	1482.30
618.04	1473.81
618.39	1465.68
618.74	1457.95
619.08	1449.76
619.43	1442.36
619.78	1435.45
620.12	1428.15
620.47	1420.73
620.82	1412.51
621.16	1405.23
621.51	1397.76
621.85	1390.15
622.20	1381.75
622.55	1373.58
622.89	1365.79
623.24	1358.17
623.59	1350.79
623.93	1343.37
624.28	1336.10
624.62	1328.60
624.97	1321.60
625.32	1315.02
625.66	1308.08
626.01	1301.03
626.35	1293.58
626.70	1285.91
627.04	1278.17
627.39	1270.59
627.73	1263.26
628.08	1256.43
628.43	1248.98
628.77	1241.62
629.12	1234.13
629.46	1226.94
629.81	1219.50
630.15	1212.30
630.50	1205.00
630.84	1196.92
631.19	1189.10
631.53	1181.68
631.88	1174.33
632.22	1166.74
632.57	1159.59
632.91	1152.16
633.26	1144.74
633.60	1137.52
633.95	1130.43
634.29	1123.50
634.64	1116.91
634.98	1109.55
635.32	1102.51
635.67	1096.12
636.01	1089.54
636.36	1082.82
636.70	1076.45
637.05	1069.92
637.39	1063.54
637.73	1057.24
638.08	1051.48
638.42	1045.54
638.77	1039.14
639.11	1032.51
639.45	1026.13
639.80	1019.37
640.14	1012.90
640.49	1006.43
640.83	1000.19
641.17	993.98
641.52	987.69
641.86	981.31
642.20	975.65
642.55	969.43
642.89	963.01
643.23	956.50
643.58	950.76
643.92	944.58
644.26	938.56
644.61	932.50
644.95	926.38
645.29	919.70
645.64	912.96
645.98	906.71
646.32	900.97
646.66	895.03
647.01	889.27
647.35	883.68
647.69	877.96
648.04	872.43
648.38	866.67
648.72	860.74
649.06	854.64
649.41	848.70
649.75	842.67
650.09	836.69
650.43	830.99
650.78	824.83
651.12	818.88
651.46	813.18
651.80	807.42
652.14	802.16
652.49	796.89
652.83	791.79
653.17	786.06
653.51	780.28
653.85	774.92
654.20	769.35
654.54	763.37
654.88	757.69
655.22	751.86
655.56	746.26
655.90	740.76
656.25	735.63
656.59	730.35
656.93	725.31
657.27	720.20
657.61	714.80
657.95	709.88
658.29	704.87
658.64	699.68
658.98	694.55
659.32	689.05
659.66	683.88
660.00	678.62
660.34	673.82
660.68	669.03
661.02	664.05
661.36	659.38
661.70	654.93
662.05	650.64
662.39	646.35
662.73	641.86
663.07	637.60
663.41	633.18
663.75	628.75
664.09	624.26
664.43	619.97
664.77	615.89
665.11	611.60
665.45	607.57
665.79	603.54
666.13	599.40
666.47	595.34
666.81	591.28
667.15	587.20
667.49	583.30
667.83	579.58
668.17	575.65
668.51	571.63
668.85	567.69
669.19	563.81
669.53	560.02
669.87	556.22
670.21	552.58
670.55	548.95
670.89	545.52
671.23	542.09
671.57	538.58
671.91	535.10
672.25	531.67
672.58	528.15
672.92	524.78
673.26	521.65
673.60	518.55
673.94	515.48
674.28	512.65
674.62	509.69
674.96	506.55
675.30	503.64
675.64	500.76
675.97	498.03
676.31	495.22
676.65	492.34
676.99	489.68
677.33	486.83
677.67	484.00
678.01	481.00
678.34	478.08
678.68	475.29
679.02	472.47
679.36	469.70
679.70	467.00
680.04	464.30
680.37	461.47
680.71	458.75
681.05	456.11
681.39	453.37
681.73	450.76
682.06	448.28
682.40	445.82
682.74	443.29
683.08	440.75
683.42	438.18
683.75	435.72
684.09	433.24
684.43	430.81
684.77	428.39
685.10	426.09
685.44	423.84
685.78	421.53
686.12	419.34
686.45	417.10
686.79	414.84
687.13	412.65
687.46	410.48
687.80	408.34
688.14	406.16
688.48	404.14
688.81	401.90
689.15	399.74
689.49	397.59
689.82	395.53
690.16	393.48
690.50	391.56
690.83	389.63
691.17	387.67
691.51	385.81
691.84	384.00
692.18	382.09
692.52	380.09
692.85	378.18
693.19	376.28
693.52	374.50
693.86	372.68
694.20	370.90
694.53	369.15
694.87	367.27
695.21	365.54
695.54	363.73
695.88	362.00
696.21	360.30
696.55	358.66
696.88	356.98
697.22	355.29
697.56	353.66
697.89	351.96
698.23	350.33
698.56	348.69
698.90	347.12
699.23	345.47
699.57	343.94
699.90	342.43
700.24	340.94
700.58	339.37
700.91	337.90
701.25	336.50
701.58	335.16
701.92	333.86
702.25	332.50
702.59	331.16
702.92	329.89
703.26	328.60
703.59	327.32
703.93	326.18
704.26	325.02
704.60	323.77
704.93	322.58
705.26	321.35
705.60	320.21
705.93	319.12
706.27	318.13
706.60	317.14
706.94	316.06
707.27	314.95
707.61	313.97
707.94	312.95
708.27	311.89
708.61	310.83
708.94	309.84
709.28	308.85
709.61	307.91
709.94	306.98
710.28	305.93
710.61	304.98
710.95	303.91
711.28	302.98
711.61	302.04
711.95	301.11
712.28	300.17
712.61	299.21
712.95	298.23
713.28	297.34
713.61	296.41
713.95	295.56
714.28	294.72
714.61	293.81
714.95	292.95
715.28	292.10
715.61	291.21
715.95	290.36
716.28	289.53
716.61	288.72
716.95	287.90
717.28	287.22
717.61	286.41
717.94	285.69
718.28	284.90
718.61	284.17
718.94	283.49
719.27	282.87
719.61	282.21
719.94	281.59
720.27	280.94
720.60	280.27
720.94	279.62
721.27	279.03
721.60	278.49
721.93	277.91
722.27	277.38
722.60	276.82
722.93	276.27
723.26	275.71
723.59	275.15
723.93	274.61
724.26	274.10
724.59	273.57
724.92	273.04
725.25	272.52
725.59	271.99
725.92	271.44
726.25	270.94
726.58	270.43
726.91	269.86
727.24	269.36
727.57	268.91
727.91	268.40
728.24	267.93
728.57	267.41
728.90	266.99
729.23	266.45
729.56	266.02
729.89	265.55
730.22	265.09
730.55	264.60
730.89	264.15
731.22	263.63
731.55	263.21
731.88	262.80
732.21	262.37
732.54	261.94
732.87	261.55
733.20	261.12
733.53	260.71
733.86	260.39
734.19	259.96
734.52	259.56
734.85	259.29
735.18	258.88
735.51	258.52
735.84	258.11
736.17	257.78
736.50	257.41
736.83	257.17
737.16	256.79
737.49	256.47
737.82	256.12
738.15	255.80
738.48	255.50
738.81	255.16
739.14	254.87
739.47	254.57
739.80	254.25
740.13	253.96
740.46	253.68
740.79	253.34
741.12	253.05
741.45	252.76
741.78	252.37
742.11	252.07
742.44	251.75
742.77	251.48
743.10	251.15
743.43	250.87
743.75	250.49
744.08	250.38
744.41	250.12
744.74	249.82
745.07	249.58
745.40	249.31
745.73	249.04
746.06	248.72
746.39	248.43
746.71	248.13
747.04	247.86
747.37	247.60
747.70	247.35
748.03	247.10
748.36	246.88
748.68	246.67
749.01	246.43
749.34	246.22
749.67	245.99
750.00	245.79
750.33	245.59
750.65	245.38
750.98	245.02
751.31	244.79
751.64	244.63
751.97	244.49
752.29	244.27
752.62	244.05
752.95	243.88
753.28	243.69
753.60	243.50
753.93	243.35
754.26	243.14
754.59	242.91
754.91	242.74
755.24	242.55
755.57	242.34
755.90	242.19
756.22	241.97
756.55	241.80
756.88	241.63
757.20	241.44
757.53	241.22
757.86	241.07
758.19	240.90
758.51	240.72
758.84	240.49
759.17	240.31
759.49	240.16
759.82	240.05
760.15	239.94
760.47	239.80
760.80	239.62
761.13	239.48
761.45	239.34
761.78	239.17
762.11	239.04
762.43	238.88
762.76	238.72
763.08	238.62
763.41	238.52
763.74	238.38
764.06	238.23
764.39	238.12
764.71	237.95
765.04	237.82
765.37	237.70
765.69	237.57
766.02	237.47
766.34	237.35
766.67	237.20
767.00	237.07
767.32	237.03
767.65	236.98
767.97	236.87
768.30	236.77
768.62	236.64
768.95	236.53
769.27	236.43
769.60	236.35
769.92	236.21
770.25	236.05
770.57	235.93
770.90	235.85
771.22	235.72
771.55	235.64
771.87	235.53
772.20	235.41
772.52	235.39
772.85	235.38
773.17	235.25
773.50	235.13
773.82	235.07
774.15	234.92
774.47	234.77
774.80	234.67
775.12	234.58
775.45	234.51
775.77	234.40
776.09	234.33
776.42	234.25
776.74	234.18
777.07	234.09
777.39	234.01
777.72	233.90
778.04	233.86
778.36	233.80
778.69	233.73
779.01	233.67
779.33	233.50
779.66	233.34
779.98	233.28
780.31	233.24
780.63	233.16
780.95	233.07
781.28	233.00
781.60	232.94
781.92	232.85
782.25	232.76
782.57	232.68
782.89	232.64
783.22	232.54
783.54	232.49
783.86	232.45
784.19	232.37
784.51	232.35
784.83	232.30
785.16	232.22
785.48	232.18
785.80	232.14
786.12	232.13
786.45	232.09
786.77	232.04
787.09	231.98
787.42	231.89
787.74	231.90
788.06	231.86
788.38	231.84
788.71	231.78
789.03	231.78
789.35	231.81
789.67	231.75
789.99	231.74
790.32	231.71
790.64	231.67
790.96	231.74
791.28	231.70
791.61	231.65
791.93	231.62
792.25	231.59
792.57	231.61
792.89	231.52
793.21	231.49
793.54	231.45
793.86	231.39
794.18	231.36
794.50	231.31
794.82	231.24
795.14	231.19
795.47	231.21
795.79	231.19
796.11	231.12
796.43	231.05
796.75	231.02
797.07	230.98
797.39	230.95
797.71	230.85
798.04	230.77
798.36	230.72
798.68	230.66
799.00	230.62
799.32	230.53
799.64	230.54
799.96	230.51
800.28	230.50
800.60	230.49
800.92	230.47
801.24	230.42
801.56	230.43
801.89	230.39
802.21	230.36
802.53	230.29
802.85	230.26
803.17	230.28
803.49	230.22
803.81	230.19
804.13	230.15
804.45	230.08
804.77	230.10
805.09	230.11
805.41	230.11
805.73	230.09
806.05	230.05
806.37	230.03
806.69	229.97
807.01	229.93
807.33	229.90
807.65	229.87
807.97	229.91
808.28	229.87
808.60	229.88
808.92	229.83
809.24	229.91
809.56	229.87
809.88	229.87
810.20	229.83
810.52	229.83
810.84	229.82
811.16	229.82
811.48	229.77
811.80	229.74
812.12	229.69
812.43	229.67
812.75	229.67
813.07	229.61
813.39	229.63
813.71	229.62
814.03	229.55
814.35	229.50
814.67	229.41
814.98	229.39
815.30	229.33
815.62	229.31
815.94	229.18
816.26	229.20
816.58	229.14
816.89	229.15
817.21	229.10
817.53	229.06
817.85	229.05
818.17	229.05
818.48	229.00
818.80	229.03
819.12	229.00
819.44	228.97
819.76	228.95
820.07	228.92
820.39	228.90
820.71	228.94
821.03	228.97
821.34	228.97
821.66	228.98
821.98	229.00
822.30	228.99
822.61	229.01
822.93	228.94
823.25	228.92
823.57	228.90
823.88	228.90
824.20	228.88
824.52	228.87
824.83	228.85
825.15	228.86
825.47	228.84
825.79	228.84
826.10	228.83
826.42	228.84
826.74	228.82
827.05	228.80
827.37	228.77
827.69	228.73
828.00	228.72
828.32	228.69
828.64	228.64
828.95	228.70
829.27	228.69
829.58	228.67
829.90	228.70
830.22	228.69
830.53	228.69
830.85	228.69
831.17	228.66
831.48	228.63
831.80	228.63
832.11	228.59
832.43	228.57
832.75	228.54
833.06	228.60
833.38	228.56
833.69	228.56
834.01	228.57
834.32	228.55
834.64	228.56
834.96	228.55
835.27	228.54
835.59	228.48
835.90	228.46
836.22	228.45
836.53	228.41
836.85	228.37
837.16	228.47
837.48	228.48
837.79	228.50
838.11	228.53
838.42	228.51
838.74	228.52
839.05	228.50
839.37	228.49
839.68	228.41
840.00	228.43
840.31	228.40
840.63	228.37
840.94	228.36
841.26	228.33
841.57	228.34
841.88	228.35
842.20	228.31
842.51	228.29
842.83	228.28
843.14	228.38
843.46	228.40
843.77	228.30
844.08	228.27
844.40	228.22
844.71	228.15
845.03	228.12
845.34	228.11
845.65	228.10
845.97	228.09
846.28	228.10
846.60	228.13
846.91	228.13
847.22	228.14
847.54	228.14
847.85	228.15
848.16	228.14
848.48	228.10
848.79	228.16
849.10	228.19
849.42	228.18
849.73	228.08
850.04	228.09
850.36	228.06
850.67	228.04
850.98	228.03
851.30	228.07
851.61	228.09
851.92	228.05
852.23	228.09
852.55	228.13
852.86	228.09
853.17	228.08
853.49	228.06
853.80	228.07
854.11	228.09
854.42	228.06
854.74	228.00
855.05	228.00
855.36	227.93
855.67	227.95
855.99	227.95
856.30	228.05
856.61	228.04
856.92	228.05
857.23	228.06
857.55	228.09
857.86	228.05
858.17	228.05
858.48	228.04
858.79	228.00
859.11	227.95
859.42	227.97
859.73	227.92
860.04	227.95
860.35	227.91
860.66	227.85
860.98	227.88
861.29	227.90
861.60	227.92
861.91	227.95
862.22	227.89
862.53	227.89
862.84	227.80
863.16	227.80
863.47	227.74
863.78	227.76
864.09	227.73
864.40	227.76
864.71	227.76
865.02	227.76
865.33	227.76
865.64	227.77
865.95	227.77
866.27	227.85
866.58	227.83
866.89	227.84
867.20	227.86
867.51	227.81
867.82	227.83
868.13	227.86
868.44	227.82
868.75	227.87
869.06	227.86
869.37	227.84
869.68	227.83
869.99	227.84
870.30	227.85
870.61	227.88
870.92	227.85
871.23	227.84
871.54	227.88
871.85	227.90
872.16	227.93
872.47	227.92
872.78	227.87
873.09	227.90
873.40	227.93
873.71	227.92
874.02	227.90
874.33	227.88
874.64	227.84
874.95	227.86
875.26	227.80
875.56	227.80
875.87	227.78
876.18	227.74
876.49	227.84
876.80	227.81
877.11	227.80
877.42	227.80
877.73	227.82
878.04	227.77
878.35	227.77
878.66	227.77
878.96	227.76
879.27	227.73
879.58	227.69
879.89	227.64
880.20	227.67
880.51	227.70
880.82	227.73
881.12	227.71
881.43	227.68
881.74	227.67
882.05	227.67
882.36	227.69
882.67	227.72
882.97	227.62
883.28	227.61
883.59	227.57
883.90	227.56
884.21	227.54
884.51	227.57
884.82	227.56
885.13	227.52
885.44	227.51
885.74	227.52
886.05	227.52
886.36	227.54
886.67	227.50
886.98	227.54
887.28	227.52
887.59	227.53
887.90	227.55
888.20	227.53
888.51	227.55
888.82	227.51
889.13	227.51
889.43	227.57
889.74	227.56
890.05	227.56
890.35	227.57
890.66	227.56
890.97	227.53
891.28	227.50
891.58	227.49
891.89	227.49
892.20	227.49
892.50	227.48
892.81	227.47
893.12	227.45
893.42	227.40
893.73	227.41
894.04	227.41
894.34	227.40
894.65	227.42
894.95	227.41
895.26	227.41
895.57	227.46
895.87	227.38
896.18	227.40
896.48	227.39
896.79	227.38
897.10	227.38
897.40	227.39
897.71	227.39
898.01	227.41
898.32	227.44
898.63	227.40
898.93	227.41
899.24	227.42
899.54	227.44
899.85	227.44
900.15	227.43
900.46	227.46
900.76	227.48
901.07	227.50
901.38	227.46
901.68	227.47
901.99	227.43
902.29	227.44
902.60	227.45
902.90	227.48
903.21	227.47
903.51	227.48
903.82	227.52
904.12	227.56
904.43	227.57
904.73	227.55
905.03	227.59
905.34	227.68
905.64	227.69
905.95	227.69
906.25	227.67
906.56	227.69
906.86	227.67
907.17	227.68
907.47	227.68
907.77	227.73
908.08	227.75
908.38	227.74
908.69	227.77
908.99	227.78
909.30	227.80
909.60	227.81
909.90	227.82
910.21	227.76
910.51	227.75
910.81	227.75
911.12	227.76
911.42	227.77
911.73	227.70
912.03	227.69
912.33	227.74
912.64	227.75
912.94	227.74
913.24	227.75
913.55	227.74
913.85	227.73
914.15	227.75
914.46	227.75
914.76	227.75
915.06	227.75
915.37	227.74
915.67	227.71
915.97	227.70
916.27	227.69
916.58	227.72
916.88	227.68
917.18	227.67
917.49	227.73
917.79	227.71
918.09	227.72
918.39	227.73
918.70	227.68
919.00	227.71
919.30	227.76
919.60	227.74
919.91	227.73
920.21	227.71
920.51	227.66
920.81	227.61
921.12	227.63
921.42	227.60
921.72	227.60
922.02	227.61
922.32	227.60
922.63	227.62
922.93	227.64
923.23	227.66
923.53	227.64
923.83	227.53
924.13	227.54
924.44	227.53
924.74	227.54
925.04	227.56
925.34	227.54
925.64	227.46
925.94	227.47
926.24	227.51
926.55	227.51
926.85	227.51
927.15	227.54
927.45	227.50
927.75	227.48
928.05	227.46
928.35	227.46
928.65	227.46
928.95	227.45
929.26	227.42
929.56	227.42
929.86	227.44
930.16	227.44
930.46	227.41
930.76	227.38
931.06	227.33
931.36	227.31
931.66	227.31
931.96	227.33
932.26	227.31
932.56	227.29
932.86	227.30
933.16	227.27
933.46	227.23
933.76	227.21
934.06	227.23
934.36	227.28
934.66	227.26
934.96	227.26
935.26	227.26
935.56	227.30
935.86	227.29
936.16	227.29
936.46	227.28
936.76	227.30
937.06	227.28
937.36	227.29
937.66	227.29
937.96	227.31
938.26	227.32
938.56	227.31
938.86	227.29
939.16	227.33
939.46	227.37
939.76	227.38
940.06	227.39
940.35	227.40
940.65	227.37
940.95	227.39
941.25	227.39
941.55	227.38
941.85	227.33
942.15	227.36
942.45	227.37
942.75	227.37
943.04	227.37
943.34	227.42
943.64	227.43
943.94	227.40
944.24	227.38
944.54	227.35
944.84	227.40
945.13	227.37
945.43	227.35
945.73	227.33
946.03	227.35
946.33	227.34
946.62	227.33
946.92	227.30
947.22	227.30
947.52	227.30
947.82	227.34
948.11	227.33
948.41	227.32
948.71	227.29
949.01	227.31
949.31	227.31
949.60	227.29
949.90	227.27
950.20	227.29
950.50	227.29
950.79	227.32
951.09	227.32
951.39	227.34
951.69	227.35
951.98	227.38
952.28	227.38
952.58	227.42
952.87	227.40
953.17	227.39
953.47	227.38
953.76	227.40
954.06	227.37
954.36	227.37
954.66	227.35
954.95	227.38
955.25	227.40
955.55	227.40
955.84	227.38
956.14	227.40
956.44	227.40
956.73	227.38
957.03	227.37
957.32	227.34
957.62	227.31
957.92	227.30
958.21	227.30
958.51	227.39
958.81	227.40
959.10	227.42
959.40	227.45
959.69	227.48
959.99	227.47
960.29	227.45
960.58	227.46
960.88	227.49
961.17	227.48
961.47	227.47
961.76	227.46
962.06	227.49
962.36	227.44
962.65	227.43
962.95	227.46
963.24	227.41
963.54	227.41
963.83	227.44
964.13	227.46
964.42	227.44
964.72	227.38
965.01	227.35
965.31	227.31
965.60	227.34
965.90	227.35
966.19	227.34
966.49	227.32
966.78	227.28
967.08	227.25
967.37	227.24
967.67	227.21
967.96	227.22
968.26	227.18
968.55	227.21
968.85	227.22
969.14	227.20
969.43	227.23
969.73	227.22
970.02	227.18
970.32	227.13
970.61	227.15
970.91	227.07
971.20	227.08
971.49	227.08
971.79	227.03
972.08	226.96
972.38	226.98
972.67	226.98
972.96	227.04
973.26	227.05
973.55	227.06
973.85	227.03
974.14	227.04
974.43	227.06
974.73	227.06
975.02	227.06
975.31	227.05
975.61	227.03
975.90	227.02
976.19	227.03
976.49	227.07
976.78	227.04
977.07	227.07
977.37	227.03
977.66	227.06
977.95	227.05
978.24	227.07
978.54	227.11
978.83	227.12
979.12	227.13
979.42	227.10
979.71	227.09
980.00	227.13
980.29	227.09
980.59	227.11
980.88	227.13
981.17	227.13
981.46	227.19
981.76	227.22
982.05	227.28
982.34	227.31
982.63	227.30
982.93	227.31
983.22	227.35
983.51	227.43
983.80	227.45
984.09	227.48
984.39	227.48
984.68	227.44
984.97	227.47
985.26	227.48
985.55	227.50
985.85	227.48
986.14	227.53
986.43	227.61
986.72	227.58
987.01	227.56
987.30	227.57
987.59	227.56
987.89	227.56
988.18	227.50
988.47	227.48
988.76	227.47
989.05	227.50
989.34	227.49
989.63	227.48
989.92	227.44
990.22	227.42
990.51	227.46
990.80	227.45
991.09	227.46
991.38	227.43
991.67	227.45
991.96	227.43
992.25	227.41
992.54	227.38
992.83	227.40
993.12	227.39
993.41	227.40
993.70	227.42
993.99	227.42
994.28	227.44
994.58	227.43
994.87	227.42
995.16	227.39
995.45	227.40
995.74	227.37
996.03	227.40
996.32	227.41
996.61	227.40
996.90	227.40
997.19	227.36
997.48	227.37
997.77	227.35
998.06	227.36
998.34	227.33
998.63	227.32
998.92	227.33
999.21	227.35
999.50	227.37
999.79	227.29
1000.08	227.27
1000.37	227.26
1000.66	227.25
1000.95	227.26
1001.24	227.24
1001.53	227.25
1001.82	227.22
1002.11	227.21
1002.40	227.22
1002.68	227.24
1002.97	227.27
1003.26	227.24
1003.55	227.18
1003.84	227.18
1004.13	227.21
1004.42	227.19
1004.71	227.16
1004.99	227.10
1005.28	227.10
1005.57	227.06
1005.86	227.08
1006.15	227.10
1006.44	227.09
1006.72	227.13
1007.01	227.13
1007.30	227.15
1007.59	227.11
1007.88	227.11
1008.17	227.10
1008.45	227.07
1008.74	227.03
1009.03	227.02
1009.32	227.06
1009.60	227.06
1009.89	227.05
1010.18	227.01
1010.47	227.01
1010.76	227.01
1011.04	227.02
1011.33	227.03
1011.62	227.02
1011.91	227.06
1012.19	227.05
1012.48	227.06
1012.77	227.05
1013.05	227.10
1013.34	227.10
1013.63	227.10
1013.92	227.16
1014.20	227.15
1014.49	227.16
1014.78	227.16
1015.06	227.13
1015.35	227.11
1015.64	227.15
1015.92	227.16
1016.21	227.18
1016.50	227.21
1016.78	227.26
1017.07	227.27
1017.36	227.26
1017.64	227.27
1017.93	227.29
1018.22	227.27
1018.50	227.24
1018.79	227.25
1019.08	227.20
1019.36	227.21
1019.65	227.19
1019.93	227.18
1020.22	227.20
1020.51	227.26
1020.79	227.28
1021.08	226.83
1021.36	226.60
1021.65	227.41
1021.94	227.10
1022.22	227.13
1022.51	226.98
1022.79	227.60
1023.08	227.19
1023.36	228.59
1023.65	227.48
>>>>>End Processed Spectral Data<<<<<
