SpectraSuite Data File
++++++++++++++++++++++++++++++++++++
Date: Fri Feb 01 16:56:14 EST 2013
User: group
Dark Spectrum Present: No
Reference Spectrum Present: No
Number of Sampled Component Spectra: 1
Spectrometers: USB2E7196
Integration Time (usec): 35000 (USB2E7196)
Spectra Averaged: 100 (USB2E7196)
Boxcar Smoothing: 10 (USB2E7196)
Correct for Electrical Dark: No (USB2E7196)
Strobe/Lamp Enabled: No (USB2E7196)
Correct for Detector Non-linearity: No (USB2E7196)
Correct for Stray Light: No (USB2E7196)
Number of Pixels in Processed Spectrum: 2048
>>>>>Begin Processed Spectral Data<<<<<
339.09	0.00
339.48	213.29
339.86	214.16
340.24	215.78
340.63	217.03
341.01	220.23
341.39	220.04
341.78	221.99
342.16	222.36
342.54	223.19
342.93	211.63
343.31	222.35
343.69	222.89
344.07	223.41
344.46	223.86
344.84	224.28
345.22	224.53
345.60	224.80
345.99	224.97
346.37	225.13
346.75	225.22
347.13	225.26
347.52	225.31
347.90	225.40
348.28	225.42
348.66	225.48
349.05	225.48
349.43	225.54
349.81	225.57
350.19	225.63
350.57	225.72
350.96	225.81
351.34	225.89
351.72	225.99
352.10	226.06
352.48	226.12
352.87	226.17
353.25	226.24
353.63	226.31
354.01	226.39
354.39	226.46
354.77	226.57
355.15	226.69
355.54	226.70
355.92	226.73
356.30	226.84
356.68	226.96
357.06	227.04
357.44	227.06
357.82	227.11
358.20	227.18
358.58	227.25
358.97	227.31
359.35	227.36
359.73	227.41
360.11	227.45
360.49	227.51
360.87	227.55
361.25	227.62
361.63	227.67
362.01	227.70
362.39	227.71
362.77	227.75
363.15	227.75
363.53	227.81
363.91	227.82
364.29	227.81
364.67	227.72
365.05	227.75
365.43	227.77
365.81	227.77
366.19	227.81
366.57	227.81
366.95	227.80
367.33	227.80
367.71	227.75
368.09	227.77
368.47	227.76
368.85	227.70
369.23	227.68
369.61	227.62
369.99	227.63
370.37	227.63
370.75	227.61
371.13	227.56
371.51	227.48
371.89	227.42
372.27	227.39
372.65	227.37
373.03	227.33
373.41	227.27
373.78	227.19
374.16	227.10
374.54	227.02
374.92	226.94
375.30	226.87
375.68	226.82
376.06	226.75
376.44	226.66
376.82	226.64
377.19	226.57
377.57	226.50
377.95	226.39
378.33	226.29
378.71	226.19
379.09	226.15
379.47	226.10
379.84	226.03
380.22	225.92
380.60	225.85
380.98	225.77
381.36	225.70
381.73	225.62
382.11	225.56
382.49	225.48
382.87	225.42
383.25	225.34
383.62	225.40
384.00	225.34
384.38	225.28
384.76	225.22
385.13	225.19
385.51	225.14
385.89	225.10
386.27	225.04
386.64	225.00
387.02	224.95
387.40	224.91
387.78	224.88
388.15	224.90
388.53	224.87
388.91	224.85
389.29	224.84
389.66	224.86
390.04	224.83
390.42	224.85
390.79	224.82
391.17	224.83
391.55	224.73
391.92	224.71
392.30	224.73
392.68	224.75
393.05	224.77
393.43	224.78
393.81	224.76
394.18	224.81
394.56	224.82
394.94	224.86
395.31	224.87
395.69	224.93
396.06	224.96
396.44	225.00
396.82	225.00
397.19	225.07
397.57	225.08
397.95	225.14
398.32	225.13
398.70	225.17
399.07	225.26
399.45	225.29
399.82	225.35
400.20	225.38
400.58	225.38
400.95	225.39
401.33	225.49
401.70	225.64
402.08	225.72
402.45	225.81
402.83	225.90
403.20	226.01
403.58	226.10
403.95	226.22
404.33	226.36
404.71	226.48
405.08	226.63
405.46	226.76
405.83	226.91
406.21	227.07
406.58	227.26
406.96	227.40
407.33	227.56
407.70	227.74
408.08	228.05
408.45	228.27
408.83	228.47
409.20	228.62
409.58	228.79
409.95	229.01
410.33	229.30
410.70	229.49
411.08	229.80
411.45	230.06
411.82	230.33
412.20	230.65
412.57	231.04
412.95	231.33
413.32	231.76
413.69	232.11
414.07	232.54
414.44	232.99
414.82	233.45
415.19	234.00
415.56	234.54
415.94	235.04
416.31	235.69
416.68	236.31
417.06	237.05
417.43	237.75
417.81	238.50
418.18	239.21
418.55	240.06
418.93	240.88
419.30	241.78
419.67	242.73
420.04	243.67
420.42	244.67
420.79	245.84
421.16	246.97
421.54	248.15
421.91	249.39
422.28	250.65
422.66	251.97
423.03	253.26
423.40	254.56
423.77	255.95
424.15	257.34
424.52	258.85
424.89	260.45
425.26	262.00
425.64	263.44
426.01	265.07
426.38	266.75
426.75	268.46
427.13	270.18
427.50	271.97
427.87	273.83
428.24	275.67
428.61	277.41
428.99	279.37
429.36	281.44
429.73	283.49
430.10	285.45
430.47	287.53
430.85	289.63
431.22	291.89
431.59	294.30
431.96	296.58
432.33	299.05
432.70	301.40
433.08	304.14
433.45	306.85
433.82	309.44
434.19	312.32
434.56	315.11
434.93	317.78
435.30	320.38
435.68	323.26
436.05	326.08
436.42	328.89
436.79	331.34
437.16	334.07
437.53	336.85
437.90	339.70
438.27	342.34
438.64	345.20
439.01	347.76
439.38	349.92
439.75	352.06
440.13	354.58
440.50	356.90
440.87	358.81
441.24	360.75
441.61	362.87
441.98	364.31
442.35	366.06
442.72	367.86
443.09	369.65
443.46	370.66
443.83	371.28
444.20	371.77
444.57	372.68
444.94	372.99
445.31	373.42
445.68	373.81
446.05	373.98
446.42	373.56
446.79	373.18
447.16	372.80
447.53	372.50
447.90	371.32
448.27	370.15
448.64	368.58
449.01	367.41
449.37	365.46
449.74	363.64
450.11	361.48
450.48	359.06
450.85	356.59
451.22	354.45
451.59	352.45
451.96	350.55
452.33	347.90
452.70	345.57
453.07	342.71
453.43	339.76
453.80	337.00
454.17	334.37
454.54	331.82
454.91	329.04
455.28	326.34
455.65	323.90
456.02	321.46
456.38	319.31
456.75	316.68
457.12	314.44
457.49	312.19
457.86	309.95
458.23	308.11
458.59	306.06
458.96	303.98
459.33	302.08
459.70	300.19
460.07	298.70
460.43	296.95
460.80	295.31
461.17	293.91
461.54	292.41
461.91	291.00
462.27	289.57
462.64	288.42
463.01	287.08
463.38	285.76
463.74	284.43
464.11	283.28
464.48	282.22
464.85	281.12
465.21	280.25
465.58	279.39
465.95	278.28
466.32	277.39
466.68	276.52
467.05	275.64
467.42	274.78
467.78	273.84
468.15	273.00
468.52	272.36
468.88	271.51
469.25	270.77
469.62	270.17
469.98	269.52
470.35	268.85
470.72	268.30
471.08	267.68
471.45	267.18
471.82	266.62
472.18	266.05
472.55	265.62
472.92	265.16
473.28	264.68
473.65	264.29
474.02	263.88
474.38	263.53
474.75	263.22
475.11	262.91
475.48	262.69
475.85	262.47
476.21	262.27
476.58	262.13
476.94	262.01
477.31	261.85
477.67	261.68
478.04	261.60
478.41	261.57
478.77	261.63
479.14	261.55
479.50	261.60
479.87	261.71
480.23	261.81
480.60	261.89
480.96	262.06
481.33	262.26
481.69	262.48
482.06	262.68
482.42	262.91
482.79	263.19
483.15	263.52
483.52	263.91
483.88	264.27
484.25	264.63
484.61	265.04
484.98	265.53
485.34	266.12
485.71	266.74
486.07	267.33
486.44	267.94
486.80	268.68
487.17	269.39
487.53	270.22
487.90	271.07
488.26	272.04
488.62	273.02
488.99	274.03
489.35	275.07
489.72	276.20
490.08	277.37
490.44	278.58
490.81	279.93
491.17	281.30
491.54	282.77
491.90	284.31
492.26	286.00
492.63	287.73
492.99	289.53
493.36	291.41
493.72	293.44
494.08	295.52
494.45	297.77
494.81	300.14
495.17	302.56
495.54	305.09
495.90	307.76
496.26	310.52
496.63	313.46
496.99	316.56
497.35	319.80
497.72	323.19
498.08	326.67
498.44	330.30
498.80	334.20
499.17	338.21
499.53	342.35
499.89	346.65
500.26	351.06
500.62	355.67
500.98	360.62
501.34	365.67
501.71	370.97
502.07	376.32
502.43	381.88
502.79	387.65
503.16	393.68
503.52	399.89
503.88	406.22
504.24	412.77
504.60	419.59
504.97	426.65
505.33	433.91
505.69	441.62
506.05	449.32
506.41	457.14
506.78	465.26
507.14	473.64
507.50	482.29
507.86	491.29
508.22	500.37
508.59	509.51
508.95	519.00
509.31	528.68
509.67	538.67
510.03	548.89
510.39	559.38
510.75	570.11
511.12	580.90
511.48	592.12
511.84	603.46
512.20	614.84
512.56	626.63
512.92	638.74
513.28	650.96
513.64	663.33
514.00	675.89
514.37	688.61
514.73	701.50
515.09	714.37
515.45	727.52
515.81	741.00
516.17	754.72
516.53	768.74
516.89	782.82
517.25	796.91
517.61	811.16
517.97	825.48
518.33	839.66
518.69	854.23
519.05	868.88
519.41	883.82
519.77	899.20
520.13	914.46
520.49	929.62
520.85	944.62
521.21	960.07
521.57	976.02
521.93	991.48
522.29	1007.58
522.65	1023.61
523.01	1039.40
523.37	1055.21
523.73	1071.20
524.09	1086.94
524.45	1102.82
524.81	1119.07
525.17	1135.48
525.53	1151.99
525.89	1168.56
526.25	1185.15
526.61	1201.42
526.97	1217.91
527.33	1234.09
527.68	1250.40
528.04	1266.57
528.40	1282.99
528.76	1299.76
529.12	1316.10
529.48	1332.84
529.84	1348.57
530.20	1364.84
530.56	1381.53
530.91	1398.57
531.27	1415.00
531.63	1431.19
531.99	1447.56
532.35	1463.25
532.71	1478.91
533.07	1494.89
533.42	1510.59
533.78	1526.42
534.14	1542.40
534.50	1557.46
534.86	1572.90
535.21	1587.82
535.57	1603.43
535.93	1618.64
536.29	1633.17
536.65	1647.90
537.00	1662.37
537.36	1677.44
537.72	1691.75
538.08	1705.97
538.44	1719.51
538.79	1733.07
539.15	1746.48
539.51	1759.89
539.87	1773.98
540.22	1787.38
540.58	1800.76
540.94	1813.60
541.29	1826.08
541.65	1838.42
542.01	1851.27
542.37	1863.65
542.72	1875.78
543.08	1887.39
543.44	1899.58
543.79	1910.64
544.15	1921.35
544.51	1932.74
544.87	1943.46
545.22	1954.10
545.58	1964.22
545.94	1973.84
546.29	1983.54
546.65	1993.24
547.01	2002.43
547.36	2010.97
547.72	2019.45
548.07	2027.24
548.43	2035.47
548.79	2043.32
549.14	2050.95
549.50	2058.20
549.86	2065.50
550.21	2072.83
550.57	2079.90
550.92	2086.39
551.28	2093.35
551.64	2100.30
551.99	2106.82
552.35	2113.05
552.70	2119.07
553.06	2124.98
553.41	2131.31
553.77	2137.29
554.13	2143.40
554.48	2149.40
554.84	2154.99
555.19	2160.12
555.55	2165.46
555.90	2169.97
556.26	2175.01
556.61	2179.60
556.97	2184.10
557.32	2188.37
557.68	2192.38
558.03	2196.69
558.39	2200.44
558.74	2205.04
559.10	2209.01
559.45	2212.55
559.81	2216.72
560.16	2220.66
560.52	2224.01
560.87	2227.55
561.23	2230.43
561.58	2233.27
561.94	2235.99
562.29	2238.34
562.64	2241.31
563.00	2243.81
563.35	2247.42
563.71	2250.58
564.06	2253.87
564.42	2256.77
564.77	2259.47
565.12	2262.16
565.48	2264.36
565.83	2266.40
566.19	2267.88
566.54	2269.02
566.89	2270.34
567.25	2271.08
567.60	2272.46
567.96	2274.35
568.31	2275.04
568.66	2276.24
569.02	2276.98
569.37	2277.54
569.72	2278.62
570.08	2278.85
570.43	2279.11
570.78	2278.71
571.14	2277.38
571.49	2276.32
571.84	2276.16
572.20	2275.22
572.55	2274.11
572.90	2272.44
573.26	2271.18
573.61	2269.62
573.96	2268.07
574.31	2265.31
574.67	2262.68
575.02	2259.27
575.37	2256.15
575.72	2252.73
576.08	2249.38
576.43	2246.22
576.78	2242.77
577.13	2239.66
577.49	2236.60
577.84	2233.30
578.19	2229.66
578.54	2226.25
578.90	2222.14
579.25	2216.70
579.60	2211.94
579.95	2207.16
580.30	2202.51
580.66	2197.56
581.01	2192.84
581.36	2188.05
581.71	2184.11
582.06	2179.81
582.42	2175.60
582.77	2170.49
583.12	2166.17
583.47	2161.91
583.82	2157.22
584.17	2152.07
584.53	2146.74
584.88	2141.35
585.23	2135.78
585.58	2130.44
585.93	2125.14
586.28	2120.54
586.63	2115.68
586.98	2110.82
587.34	2106.25
587.69	2101.31
588.04	2096.19
588.39	2090.72
588.74	2084.48
589.09	2078.48
589.44	2071.82
589.79	2065.86
590.14	2060.28
590.49	2053.79
590.84	2047.41
591.19	2041.50
591.54	2035.15
591.89	2028.08
592.25	2021.53
592.60	2014.55
592.95	2007.24
593.30	2000.06
593.65	1992.66
594.00	1985.93
594.35	1978.76
594.70	1970.90
595.05	1964.12
595.40	1956.98
595.75	1949.56
596.10	1943.56
596.45	1937.05
596.80	1931.12
597.15	1924.70
597.50	1917.82
597.85	1911.51
598.19	1905.02
598.54	1898.14
598.89	1891.60
599.24	1885.76
599.59	1879.37
599.94	1873.12
600.29	1866.86
600.64	1860.40
600.99	1853.08
601.34	1846.25
601.69	1839.30
602.04	1832.66
602.39	1825.33
602.74	1818.72
603.08	1812.00
603.43	1805.20
603.78	1797.81
604.13	1790.58
604.48	1783.44
604.83	1776.54
605.18	1769.75
605.53	1761.88
605.87	1753.87
606.22	1746.79
606.57	1738.94
606.92	1731.39
607.27	1724.53
607.62	1717.74
607.96	1710.66
608.31	1704.14
608.66	1696.68
609.01	1689.26
609.36	1681.67
609.70	1673.62
610.05	1665.65
610.40	1658.10
610.75	1650.04
611.10	1642.48
611.44	1634.16
611.79	1626.13
612.14	1617.68
612.49	1608.58
612.83	1600.25
613.18	1592.20
613.53	1584.18
613.88	1575.77
614.22	1567.63
614.57	1558.86
614.92	1550.89
615.27	1543.27
615.61	1535.05
615.96	1527.04
616.31	1519.38
616.65	1512.03
617.00	1504.58
617.35	1496.80
617.70	1488.61
618.04	1480.08
618.39	1472.04
618.74	1464.40
619.08	1456.03
619.43	1448.45
619.78	1441.57
620.12	1434.51
620.47	1427.00
620.82	1418.84
621.16	1411.36
621.51	1403.84
621.85	1396.32
622.20	1387.88
622.55	1379.59
622.89	1371.74
623.24	1364.14
623.59	1356.86
623.93	1349.38
624.28	1342.26
624.62	1334.86
624.97	1327.64
625.32	1320.82
625.66	1313.63
626.01	1306.62
626.35	1299.35
626.70	1291.63
627.04	1283.96
627.39	1276.09
627.73	1268.74
628.08	1261.91
628.43	1254.78
628.77	1247.40
629.12	1239.84
629.46	1232.79
629.81	1225.26
630.15	1217.94
630.50	1210.53
630.84	1202.32
631.19	1194.41
631.53	1186.76
631.88	1179.15
632.22	1171.66
632.57	1164.35
632.91	1156.90
633.26	1149.47
633.60	1142.01
633.95	1134.82
634.29	1127.62
634.64	1120.98
634.98	1113.68
635.32	1106.45
635.67	1099.73
636.01	1093.04
636.36	1086.40
636.70	1079.71
637.05	1073.22
637.39	1066.85
637.73	1060.44
638.08	1054.52
638.42	1048.50
638.77	1042.22
639.11	1035.73
639.45	1029.38
639.80	1022.82
640.14	1016.52
640.49	1010.07
640.83	1003.80
641.17	997.60
641.52	991.38
641.86	984.89
642.20	979.05
642.55	972.73
642.89	966.46
643.23	959.97
643.58	954.14
643.92	948.02
644.26	942.04
644.61	935.94
644.95	929.87
645.29	923.40
645.64	916.66
645.98	910.26
646.32	904.27
646.66	898.21
647.01	892.41
647.35	886.63
647.69	880.71
648.04	875.22
648.38	869.58
648.72	863.66
649.06	857.74
649.41	851.78
649.75	845.94
650.09	839.87
650.43	834.11
650.78	828.03
651.12	822.11
651.46	816.37
651.80	810.70
652.14	805.32
652.49	799.94
652.83	794.87
653.17	789.30
653.51	783.72
653.85	778.28
654.20	772.63
654.54	766.68
654.88	761.00
655.22	755.12
655.56	749.40
655.90	743.88
656.25	738.60
656.59	733.28
656.93	728.17
657.27	723.02
657.61	717.65
657.95	712.50
658.29	707.39
658.64	702.13
658.98	696.74
659.32	691.25
659.66	686.10
660.00	680.75
660.34	675.76
660.68	670.88
661.02	665.88
661.36	661.22
661.70	656.71
662.05	652.30
662.39	647.97
662.73	643.44
663.07	639.13
663.41	634.70
663.75	630.24
664.09	625.72
664.43	621.36
664.77	617.26
665.11	613.03
665.45	608.84
665.79	604.84
666.13	600.81
666.47	596.77
666.81	592.64
667.15	588.54
667.49	584.61
667.83	580.69
668.17	576.78
668.51	572.73
668.85	568.64
669.19	564.80
669.53	560.99
669.87	557.16
670.21	553.44
670.55	549.82
670.89	546.39
671.23	542.92
671.57	539.40
671.91	535.84
672.25	532.28
672.58	528.81
672.92	525.32
673.26	522.15
673.60	518.96
673.94	515.80
674.28	512.94
674.62	510.04
674.96	507.02
675.30	504.10
675.64	501.21
675.97	498.50
676.31	495.69
676.65	492.78
676.99	490.11
677.33	487.25
677.67	484.44
678.01	481.43
678.34	478.50
678.68	475.66
679.02	472.88
679.36	470.15
679.70	467.47
680.04	464.75
680.37	461.86
680.71	459.08
681.05	456.48
681.39	453.72
681.73	451.10
682.06	448.62
682.40	446.06
682.74	443.52
683.08	440.94
683.42	438.31
683.75	435.81
684.09	433.26
684.43	430.80
684.77	428.33
685.10	425.96
685.44	423.61
685.78	421.36
686.12	419.11
686.45	416.86
686.79	414.55
687.13	412.40
687.46	410.31
687.80	408.14
688.14	405.93
688.48	403.88
688.81	401.59
689.15	399.43
689.49	397.34
689.82	395.25
690.16	393.20
690.50	391.29
690.83	389.40
691.17	387.42
691.51	385.54
691.84	383.73
692.18	381.83
692.52	379.88
692.85	377.90
693.19	376.03
693.52	374.15
693.86	372.31
694.20	370.50
694.53	368.63
694.87	366.83
695.21	365.03
695.54	363.20
695.88	361.47
696.21	359.70
696.55	357.96
696.88	356.25
697.22	354.57
697.56	352.93
697.89	351.27
698.23	349.65
698.56	348.04
698.90	346.45
699.23	344.83
699.57	343.27
699.90	341.72
700.24	340.15
700.58	338.64
700.91	337.15
701.25	335.70
701.58	334.35
701.92	332.91
702.25	331.55
702.59	330.19
702.92	328.88
703.26	327.60
703.59	326.33
703.93	325.13
704.26	323.93
704.60	322.64
704.93	321.34
705.26	320.09
705.60	318.88
705.93	317.70
706.27	316.66
706.60	315.58
706.94	314.54
707.27	313.42
707.61	312.35
707.94	311.35
708.27	310.21
708.61	309.13
708.94	308.17
709.28	307.15
709.61	306.15
709.94	305.21
710.28	304.19
710.61	303.21
710.95	302.17
711.28	301.23
711.61	300.30
711.95	299.39
712.28	298.46
712.61	297.49
712.95	296.50
713.28	295.60
713.61	294.68
713.95	293.78
714.28	292.91
714.61	292.04
714.95	291.21
715.28	290.42
715.61	289.54
715.95	288.66
716.28	287.83
716.61	287.00
716.95	286.15
717.28	285.38
717.61	284.64
717.94	283.88
718.28	283.07
718.61	282.31
718.94	281.59
719.27	280.93
719.61	280.28
719.94	279.64
720.27	278.91
720.60	278.28
720.94	277.65
721.27	277.09
721.60	276.54
721.93	275.94
722.27	275.41
722.60	274.87
722.93	274.36
723.26	273.84
723.59	273.30
723.93	272.77
724.26	272.21
724.59	271.62
724.92	271.06
725.25	270.58
725.59	270.11
725.92	269.65
726.25	269.11
726.58	268.63
726.91	268.14
727.24	267.69
727.57	267.19
727.91	266.63
728.24	266.14
728.57	265.63
728.90	265.18
729.23	264.68
729.56	264.22
729.89	263.73
730.22	263.28
730.55	262.84
730.89	262.41
731.22	262.01
731.55	261.62
731.88	261.24
732.21	260.83
732.54	260.35
732.87	259.91
733.20	259.53
733.53	259.11
733.86	258.78
734.19	258.37
734.52	258.01
734.85	257.74
735.18	257.36
735.51	256.99
735.84	256.60
736.17	256.23
736.50	255.86
736.83	255.61
737.16	255.24
737.49	254.89
737.82	254.55
738.15	254.19
738.48	253.84
738.81	253.51
739.14	253.16
739.47	252.86
739.80	252.54
740.13	252.26
740.46	251.96
740.79	251.60
741.12	251.32
741.45	250.98
741.78	250.64
742.11	250.36
742.44	250.03
742.77	249.75
743.10	249.46
743.43	249.15
743.75	248.77
744.08	248.60
744.41	248.32
744.74	248.03
745.07	247.76
745.40	247.51
745.73	247.28
746.06	247.02
746.39	246.77
746.71	246.49
747.04	246.21
747.37	245.94
747.70	245.69
748.03	245.43
748.36	245.21
748.68	244.97
749.01	244.70
749.34	244.49
749.67	244.25
750.00	244.01
750.33	243.85
750.65	243.63
750.98	243.27
751.31	243.05
751.64	242.87
751.97	242.70
752.29	242.47
752.62	242.21
752.95	242.01
753.28	241.80
753.60	241.60
753.93	241.43
754.26	241.23
754.59	241.03
754.91	240.82
755.24	240.64
755.57	240.45
755.90	240.26
756.22	240.07
756.55	239.84
756.88	239.64
757.20	239.41
757.53	239.21
757.86	239.09
758.19	238.97
758.51	238.81
758.84	238.61
759.17	238.45
759.49	238.27
759.82	238.12
760.15	237.96
760.47	237.81
760.80	237.64
761.13	237.51
761.45	237.34
761.78	237.18
762.11	237.04
762.43	236.91
762.76	236.75
763.08	236.65
763.41	236.53
763.74	236.42
764.06	236.29
764.39	236.15
764.71	236.01
765.04	235.81
765.37	235.62
765.69	235.50
766.02	235.35
766.34	235.22
766.67	235.06
767.00	234.96
767.32	234.90
767.65	234.81
767.97	234.69
768.30	234.55
768.62	234.45
768.95	234.30
769.27	234.17
769.60	234.10
769.92	233.94
770.25	233.81
770.57	233.67
770.90	233.53
771.22	233.46
771.55	233.34
771.87	233.27
772.20	233.20
772.52	233.17
772.85	233.24
773.17	233.15
773.50	233.07
773.82	232.98
774.15	232.84
774.47	232.70
774.80	232.60
775.12	232.58
775.45	232.49
775.77	232.44
776.09	232.35
776.42	232.27
776.74	232.22
777.07	232.17
777.39	232.14
777.72	232.08
778.04	231.98
778.36	231.92
778.69	231.85
779.01	231.80
779.33	231.63
779.66	231.40
779.98	231.33
780.31	231.27
780.63	231.26
780.95	231.21
781.28	231.16
781.60	231.10
781.92	231.01
782.25	230.97
782.57	230.90
782.89	230.83
783.22	230.79
783.54	230.75
783.86	230.71
784.19	230.62
784.51	230.58
784.83	230.53
785.16	230.44
785.48	230.40
785.80	230.32
786.12	230.30
786.45	230.27
786.77	230.23
787.09	230.16
787.42	230.06
787.74	230.05
788.06	230.01
788.38	229.96
788.71	229.91
789.03	229.85
789.35	229.81
789.67	229.77
789.99	229.71
790.32	229.64
790.64	229.61
790.96	229.70
791.28	229.63
791.61	229.58
791.93	229.55
792.25	229.51
792.57	229.54
792.89	229.46
793.21	229.41
793.54	229.40
793.86	229.36
794.18	229.31
794.50	229.25
794.82	229.18
795.14	229.16
795.47	229.13
795.79	229.08
796.11	229.00
796.43	228.94
796.75	228.94
797.07	228.90
797.39	228.83
797.71	228.69
798.04	228.67
798.36	228.67
798.68	228.64
799.00	228.62
799.32	228.57
799.64	228.59
799.96	228.56
800.28	228.50
800.60	228.48
800.92	228.45
801.24	228.40
801.56	228.40
801.89	228.37
802.21	228.34
802.53	228.29
802.85	228.28
803.17	228.32
803.49	228.23
803.81	228.21
804.13	228.15
804.45	228.10
804.77	228.10
805.09	228.06
805.41	228.01
805.73	227.93
806.05	227.88
806.37	227.83
806.69	227.82
807.01	227.78
807.33	227.75
807.65	227.69
807.97	227.75
808.28	227.68
808.60	227.63
808.92	227.59
809.24	227.65
809.56	227.65
809.88	227.61
810.20	227.61
810.52	227.58
810.84	227.55
811.16	227.48
811.48	227.43
811.80	227.42
812.12	227.40
812.43	227.42
812.75	227.35
813.07	227.29
813.39	227.23
813.71	227.22
814.03	227.18
814.35	227.13
814.67	227.03
814.98	227.05
815.30	227.02
815.62	226.98
815.94	226.87
816.26	226.88
816.58	226.78
816.89	226.75
817.21	226.76
817.53	226.77
817.85	226.78
818.17	226.75
818.48	226.72
818.80	226.74
819.12	226.73
819.44	226.72
819.76	226.73
820.07	226.71
820.39	226.68
820.71	226.68
821.03	226.68
821.34	226.64
821.66	226.62
821.98	226.61
822.30	226.59
822.61	226.62
822.93	226.55
823.25	226.57
823.57	226.55
823.88	226.53
824.20	226.52
824.52	226.54
824.83	226.54
825.15	226.50
825.47	226.48
825.79	226.42
826.10	226.42
826.42	226.39
826.74	226.39
827.05	226.36
827.37	226.31
827.69	226.29
828.00	226.29
828.32	226.25
828.64	226.25
828.95	226.30
829.27	226.25
829.58	226.24
829.90	226.24
830.22	226.24
830.53	226.20
830.85	226.19
831.17	226.12
831.48	226.09
831.80	226.08
832.11	226.05
832.43	226.06
832.75	226.04
833.06	226.10
833.38	226.07
833.69	226.09
834.01	226.11
834.32	226.13
834.64	226.13
834.96	226.14
835.27	226.10
835.59	226.06
835.90	226.05
836.22	226.07
836.53	226.03
836.85	225.99
837.16	226.09
837.48	226.07
837.79	226.11
838.11	226.13
838.42	226.12
838.74	226.13
839.05	226.13
839.37	226.13
839.68	226.04
840.00	226.07
840.31	226.10
840.63	226.09
840.94	226.04
841.26	226.01
841.57	226.01
841.88	226.05
842.20	226.03
842.51	226.03
842.83	226.03
843.14	226.10
843.46	226.16
843.77	226.11
844.08	226.12
844.40	226.08
844.71	226.07
845.03	226.06
845.34	226.04
845.65	226.06
845.97	226.05
846.28	226.10
846.60	226.09
846.91	226.06
847.22	226.09
847.54	226.14
847.85	226.14
848.16	226.13
848.48	226.09
848.79	226.14
849.10	226.14
849.42	226.14
849.73	226.08
850.04	226.06
850.36	226.04
850.67	226.03
850.98	226.07
851.30	226.09
851.61	226.08
851.92	226.09
852.23	226.13
852.55	226.14
852.86	226.14
853.17	226.13
853.49	226.14
853.80	226.12
854.11	226.10
854.42	226.12
854.74	226.12
855.05	226.12
855.36	226.06
855.67	226.08
855.99	226.06
856.30	226.17
856.61	226.13
856.92	226.13
857.23	226.15
857.55	226.11
857.86	226.11
858.17	226.13
858.48	226.10
858.79	226.04
859.11	226.00
859.42	225.97
859.73	225.95
860.04	225.97
860.35	225.95
860.66	225.94
860.98	225.92
861.29	225.90
861.60	225.91
861.91	225.97
862.22	225.95
862.53	225.95
862.84	225.84
863.16	225.88
863.47	225.83
863.78	225.80
864.09	225.80
864.40	225.80
864.71	225.80
865.02	225.82
865.33	225.79
865.64	225.84
865.95	225.84
866.27	225.94
866.58	225.90
866.89	225.90
867.20	225.88
867.51	225.88
867.82	225.90
868.13	225.93
868.44	225.88
868.75	225.89
869.06	225.89
869.37	225.88
869.68	225.84
869.99	225.87
870.30	225.87
870.61	225.87
870.92	225.84
871.23	225.82
871.54	225.81
871.85	225.83
872.16	225.83
872.47	225.80
872.78	225.71
873.09	225.74
873.40	225.75
873.71	225.78
874.02	225.79
874.33	225.77
874.64	225.76
874.95	225.74
875.26	225.72
875.56	225.67
875.87	225.66
876.18	225.66
876.49	225.75
876.80	225.72
877.11	225.73
877.42	225.70
877.73	225.69
878.04	225.70
878.35	225.71
878.66	225.71
878.96	225.71
879.27	225.73
879.58	225.73
879.89	225.68
880.20	225.68
880.51	225.63
880.82	225.60
881.12	225.60
881.43	225.62
881.74	225.58
882.05	225.60
882.36	225.61
882.67	225.61
882.97	225.48
883.28	225.47
883.59	225.45
883.90	225.49
884.21	225.53
884.51	225.53
884.82	225.50
885.13	225.48
885.44	225.48
885.74	225.48
886.05	225.49
886.36	225.51
886.67	225.51
886.98	225.57
887.28	225.62
887.59	225.63
887.90	225.60
888.20	225.66
888.51	225.68
888.82	225.68
889.13	225.72
889.43	225.82
889.74	225.83
890.05	225.83
890.35	225.82
890.66	225.75
890.97	225.74
891.28	225.74
891.58	225.77
891.89	225.77
892.20	225.73
892.50	225.72
892.81	225.71
893.12	225.69
893.42	225.66
893.73	225.68
894.04	225.67
894.34	225.68
894.65	225.65
894.95	225.63
895.26	225.62
895.57	225.61
895.87	225.53
896.18	225.54
896.48	225.54
896.79	225.57
897.10	225.61
897.40	225.59
897.71	225.63
898.01	225.64
898.32	225.64
898.63	225.65
898.93	225.66
899.24	225.68
899.54	225.65
899.85	225.63
900.15	225.60
900.46	225.59
900.76	225.60
901.07	225.63
901.38	225.62
901.68	225.64
901.99	225.64
902.29	225.66
902.60	225.66
902.90	225.69
903.21	225.66
903.51	225.67
903.82	225.71
904.12	225.71
904.43	225.69
904.73	225.67
905.03	225.65
905.34	225.73
905.64	225.74
905.95	225.75
906.25	225.75
906.56	225.76
906.86	225.75
907.17	225.76
907.47	225.73
907.77	225.73
908.08	225.73
908.38	225.72
908.69	225.71
908.99	225.74
909.30	225.72
909.60	225.74
909.90	225.72
910.21	225.66
910.51	225.60
910.81	225.61
911.12	225.65
911.42	225.69
911.73	225.55
912.03	225.52
912.33	225.53
912.64	225.54
912.94	225.55
913.24	225.54
913.55	225.48
913.85	225.46
914.15	225.48
914.46	225.46
914.76	225.48
915.06	225.45
915.37	225.40
915.67	225.39
915.97	225.35
916.27	225.36
916.58	225.38
916.88	225.39
917.18	225.37
917.49	225.41
917.79	225.40
918.09	225.44
918.39	225.47
918.70	225.47
919.00	225.44
919.30	225.46
919.60	225.44
919.91	225.46
920.21	225.43
920.51	225.39
920.81	225.37
921.12	225.36
921.42	225.35
921.72	225.34
922.02	225.35
922.32	225.37
922.63	225.37
922.93	225.40
923.23	225.40
923.53	225.40
923.83	225.31
924.13	225.29
924.44	225.27
924.74	225.29
925.04	225.32
925.34	225.33
925.64	225.33
925.94	225.32
926.24	225.37
926.55	225.40
926.85	225.42
927.15	225.37
927.45	225.34
927.75	225.38
928.05	225.36
928.35	225.34
928.65	225.35
928.95	225.36
929.26	225.27
929.56	225.32
929.86	225.32
930.16	225.30
930.46	225.31
930.76	225.32
931.06	225.29
931.36	225.26
931.66	225.30
931.96	225.29
932.26	225.31
932.56	225.23
932.86	225.23
933.16	225.24
933.46	225.30
933.76	225.28
934.06	225.30
934.36	225.35
934.66	225.35
934.96	225.32
935.26	225.30
935.56	225.37
935.86	225.34
936.16	225.36
936.46	225.38
936.76	225.37
937.06	225.39
937.36	225.38
937.66	225.39
937.96	225.38
938.26	225.34
938.56	225.32
938.86	225.36
939.16	225.44
939.46	225.48
939.76	225.46
940.06	225.50
940.35	225.46
940.65	225.42
940.95	225.42
941.25	225.45
941.55	225.45
941.85	225.46
942.15	225.47
942.45	225.46
942.75	225.46
943.04	225.47
943.34	225.46
943.64	225.46
943.94	225.44
944.24	225.43
944.54	225.46
944.84	225.44
945.13	225.44
945.43	225.39
945.73	225.38
946.03	225.40
946.33	225.39
946.62	225.40
946.92	225.43
947.22	225.47
947.52	225.46
947.82	225.51
948.11	225.46
948.41	225.41
948.71	225.39
949.01	225.39
949.31	225.40
949.60	225.42
949.90	225.43
950.20	225.44
950.50	225.46
950.79	225.44
951.09	225.49
951.39	225.45
951.69	225.42
951.98	225.45
952.28	225.44
952.58	225.41
952.87	225.42
953.17	225.41
953.47	225.38
953.76	225.35
954.06	225.31
954.36	225.30
954.66	225.34
954.95	225.35
955.25	225.34
955.55	225.33
955.84	225.28
956.14	225.27
956.44	225.24
956.73	225.22
957.03	225.22
957.32	225.23
957.62	225.23
957.92	225.23
958.21	225.19
958.51	225.27
958.81	225.28
959.10	225.29
959.40	225.28
959.69	225.30
959.99	225.30
960.29	225.28
960.58	225.29
960.88	225.31
961.17	225.31
961.47	225.33
961.76	225.34
962.06	225.34
962.36	225.32
962.65	225.33
962.95	225.32
963.24	225.30
963.54	225.27
963.83	225.27
964.13	225.29
964.42	225.23
964.72	225.16
965.01	225.13
965.31	225.09
965.60	225.07
965.90	225.12
966.19	225.13
966.49	225.16
966.78	225.11
967.08	225.10
967.37	225.11
967.67	225.09
967.96	225.08
968.26	225.08
968.55	225.10
968.85	225.09
969.14	225.09
969.43	225.08
969.73	225.09
970.02	225.12
970.32	225.10
970.61	225.12
970.91	225.07
971.20	225.08
971.49	225.11
971.79	225.11
972.08	225.04
972.38	225.05
972.67	225.02
972.96	225.07
973.26	225.06
973.55	225.06
973.85	225.04
974.14	225.06
974.43	225.05
974.73	225.09
975.02	225.06
975.31	225.08
975.61	225.11
975.90	225.11
976.19	225.09
976.49	225.13
976.78	225.13
977.07	225.19
977.37	225.21
977.66	225.21
977.95	225.20
978.24	225.20
978.54	225.20
978.83	225.20
979.12	225.20
979.42	225.19
979.71	225.18
980.00	225.19
980.29	225.17
980.59	225.19
980.88	225.18
981.17	225.20
981.46	225.20
981.76	225.16
982.05	225.19
982.34	225.21
982.63	225.23
982.93	225.25
983.22	225.27
983.51	225.27
983.80	225.27
984.09	225.32
984.39	225.33
984.68	225.33
984.97	225.34
985.26	225.32
985.55	225.33
985.85	225.33
986.14	225.37
986.43	225.38
986.72	225.35
987.01	225.31
987.30	225.31
987.59	225.29
987.89	225.32
988.18	225.28
988.47	225.25
988.76	225.21
989.05	225.21
989.34	225.19
989.63	225.20
989.92	225.23
990.22	225.18
990.51	225.16
990.80	225.15
991.09	225.16
991.38	225.14
991.67	225.12
991.96	225.10
992.25	225.04
992.54	225.02
992.83	225.05
993.12	225.00
993.41	225.00
993.70	225.02
993.99	225.02
994.28	225.07
994.58	225.07
994.87	225.07
995.16	225.07
995.45	225.06
995.74	225.02
996.03	225.01
996.32	225.04
996.61	225.07
996.90	225.07
997.19	225.05
997.48	225.03
997.77	225.05
998.06	225.09
998.34	225.09
998.63	225.11
998.92	225.10
999.21	225.13
999.50	225.12
999.79	225.11
1000.08	225.12
1000.37	225.08
1000.66	225.08
1000.95	225.08
1001.24	225.07
1001.53	225.09
1001.82	225.08
1002.11	225.04
1002.40	225.03
1002.68	225.03
1002.97	225.08
1003.26	225.08
1003.55	225.09
1003.84	225.05
1004.13	225.06
1004.42	225.05
1004.71	225.04
1004.99	225.02
1005.28	225.04
1005.57	225.09
1005.86	225.06
1006.15	225.05
1006.44	225.05
1006.72	225.05
1007.01	225.01
1007.30	224.99
1007.59	224.95
1007.88	224.96
1008.17	224.94
1008.45	224.94
1008.74	224.89
1009.03	224.86
1009.32	224.83
1009.60	224.82
1009.89	224.82
1010.18	224.77
1010.47	224.81
1010.76	224.80
1011.04	224.82
1011.33	224.84
1011.62	224.82
1011.91	224.82
1012.19	224.82
1012.48	224.83
1012.77	224.82
1013.05	224.92
1013.34	224.94
1013.63	224.95
1013.92	224.92
1014.20	224.94
1014.49	224.95
1014.78	225.00
1015.06	224.97
1015.35	224.99
1015.64	225.02
1015.92	225.05
1016.21	225.06
1016.50	225.03
1016.78	225.07
1017.07	225.07
1017.36	225.02
1017.64	225.02
1017.93	225.03
1018.22	225.03
1018.50	225.01
1018.79	224.99
1019.08	224.94
1019.36	224.94
1019.65	224.95
1019.93	224.99
1020.22	225.01
1020.51	225.05
1020.79	225.02
1021.08	224.96
1021.36	224.59
1021.65	224.61
1021.94	225.39
1022.22	225.11
1022.51	224.93
1022.79	225.25
1023.08	225.37
1023.36	226.03
1023.65	224.65
>>>>>End Processed Spectral Data<<<<<
