SpectraSuite Data File
++++++++++++++++++++++++++++++++++++
Date: Fri Feb 01 16:09:28 EST 2013
User: group
Dark Spectrum Present: No
Reference Spectrum Present: No
Number of Sampled Component Spectra: 1
Spectrometers: USB2E7196
Integration Time (usec): 35000 (USB2E7196)
Spectra Averaged: 100 (USB2E7196)
Boxcar Smoothing: 10 (USB2E7196)
Correct for Electrical Dark: No (USB2E7196)
Strobe/Lamp Enabled: No (USB2E7196)
Correct for Detector Non-linearity: No (USB2E7196)
Correct for Stray Light: No (USB2E7196)
Number of Pixels in Processed Spectrum: 2048
>>>>>Begin Processed Spectral Data<<<<<
339.09	0.00
339.48	213.69
339.86	215.94
340.24	216.90
340.63	218.92
341.01	221.56
341.39	220.98
341.78	222.67
342.16	223.94
342.54	224.16
342.93	212.72
343.31	223.48
343.69	224.07
344.07	224.55
344.46	224.99
344.84	225.39
345.22	225.61
345.60	225.90
345.99	226.07
346.37	226.20
346.75	226.30
347.13	226.38
347.52	226.42
347.90	226.50
348.28	226.58
348.66	226.65
349.05	226.63
349.43	226.67
349.81	226.69
350.19	226.74
350.57	226.80
350.96	226.88
351.34	226.97
351.72	227.02
352.10	227.12
352.48	227.15
352.87	227.22
353.25	227.31
353.63	227.33
354.01	227.42
354.39	227.51
354.77	227.58
355.15	227.69
355.54	227.73
355.92	227.77
356.30	227.78
356.68	227.92
357.06	228.05
357.44	228.13
357.82	228.21
358.20	228.27
358.58	228.34
358.97	228.41
359.35	228.49
359.73	228.59
360.11	228.63
360.49	228.71
360.87	228.75
361.25	228.80
361.63	228.89
362.01	228.93
362.39	228.97
362.77	229.03
363.15	229.06
363.53	229.09
363.91	229.11
364.29	229.13
364.67	229.07
365.05	229.08
365.43	229.08
365.81	229.12
366.19	229.17
366.57	229.20
366.95	229.18
367.33	229.16
367.71	229.13
368.09	229.13
368.47	229.12
368.85	229.06
369.23	229.06
369.61	229.04
369.99	229.04
370.37	228.98
370.75	228.99
371.13	228.91
371.51	228.89
371.89	228.84
372.27	228.81
372.65	228.74
373.03	228.67
373.41	228.63
373.78	228.55
374.16	228.44
374.54	228.36
374.92	228.30
375.30	228.22
375.68	228.16
376.06	228.09
376.44	228.01
376.82	227.96
377.19	227.88
377.57	227.80
377.95	227.68
378.33	227.64
378.71	227.51
379.09	227.44
379.47	227.38
379.84	227.30
380.22	227.23
380.60	227.17
380.98	227.09
381.36	227.02
381.73	226.95
382.11	226.91
382.49	226.84
382.87	226.78
383.25	226.71
383.62	226.75
384.00	226.70
384.38	226.69
384.76	226.66
385.13	226.61
385.51	226.55
385.89	226.54
386.27	226.49
386.64	226.45
387.02	226.41
387.40	226.35
387.78	226.31
388.15	226.29
388.53	226.24
388.91	226.20
389.29	226.13
389.66	226.14
390.04	226.11
390.42	226.08
390.79	226.04
391.17	226.01
391.55	225.89
391.92	225.89
392.30	225.88
392.68	225.83
393.05	225.87
393.43	225.85
393.81	225.83
394.18	225.79
394.56	225.82
394.94	225.85
395.31	225.87
395.69	225.91
396.06	225.95
396.44	226.01
396.82	226.04
397.19	226.15
397.57	226.17
397.95	226.24
398.32	226.27
398.70	226.37
399.07	226.47
399.45	226.56
399.82	226.60
400.20	226.65
400.58	226.75
400.95	226.75
401.33	226.88
401.70	227.02
402.08	227.09
402.45	227.17
402.83	227.31
403.20	227.41
403.58	227.49
403.95	227.62
404.33	227.72
404.71	227.86
405.08	228.03
405.46	228.17
405.83	228.25
406.21	228.42
406.58	228.58
406.96	228.74
407.33	228.89
407.70	229.08
408.08	229.33
408.45	229.53
408.83	229.80
409.20	230.01
409.58	230.24
409.95	230.53
410.33	230.81
410.70	231.07
411.08	231.36
411.45	231.66
411.82	231.95
412.20	232.31
412.57	232.69
412.95	232.97
413.32	233.38
413.69	233.83
414.07	234.26
414.44	234.72
414.82	235.18
415.19	235.74
415.56	236.31
415.94	236.86
416.31	237.51
416.68	238.15
417.06	238.84
417.43	239.50
417.81	240.26
418.18	241.01
418.55	241.79
418.93	242.66
419.30	243.60
419.67	244.55
420.04	245.50
420.42	246.50
420.79	247.71
421.16	248.87
421.54	250.06
421.91	251.26
422.28	252.50
422.66	253.85
423.03	255.13
423.40	256.39
423.77	257.78
424.15	259.17
424.52	260.61
424.89	262.23
425.26	263.79
425.64	265.26
426.01	266.87
426.38	268.52
426.75	270.22
427.13	271.94
427.50	273.77
427.87	275.64
428.24	277.52
428.61	279.23
428.99	281.16
429.36	283.25
429.73	285.31
430.10	287.30
430.47	289.34
430.85	291.47
431.22	293.75
431.59	296.14
431.96	298.41
432.33	300.90
432.70	303.31
433.08	306.13
433.45	308.76
433.82	311.36
434.19	314.27
434.56	317.04
434.93	319.69
435.30	322.29
435.68	325.20
436.05	328.02
436.42	330.79
436.79	333.34
437.16	336.04
437.53	338.86
437.90	341.68
438.27	344.45
438.64	347.30
439.01	349.92
439.38	352.18
439.75	354.32
440.13	356.78
440.50	359.10
440.87	360.89
441.24	362.80
441.61	364.93
441.98	366.40
442.35	368.19
442.72	370.03
443.09	371.83
443.46	372.80
443.83	373.41
444.20	373.92
444.57	374.70
444.94	374.96
445.31	375.29
445.68	375.64
446.05	375.69
446.42	375.28
446.79	374.83
447.16	374.35
447.53	374.00
447.90	372.84
448.27	371.63
448.64	370.08
449.01	368.91
449.37	366.94
449.74	365.05
450.11	362.84
450.48	360.38
450.85	357.81
451.22	355.66
451.59	353.62
451.96	351.71
452.33	349.10
452.70	346.71
453.07	343.89
453.43	341.01
453.80	338.26
454.17	335.58
454.54	333.07
454.91	330.35
455.28	327.72
455.65	325.29
456.02	322.84
456.38	320.70
456.75	318.07
457.12	315.83
457.49	313.63
457.86	311.44
458.23	309.60
458.59	307.59
458.96	305.54
459.33	303.67
459.70	301.80
460.07	300.33
460.43	298.67
460.80	297.07
461.17	295.65
461.54	294.16
461.91	292.73
462.27	291.30
462.64	290.05
463.01	288.71
463.38	287.39
463.74	286.05
464.11	284.91
464.48	283.87
464.85	282.75
465.21	281.87
465.58	280.96
465.95	279.81
466.32	278.89
466.68	277.96
467.05	277.08
467.42	276.18
467.78	275.24
468.15	274.36
468.52	273.71
468.88	272.84
469.25	272.04
469.62	271.45
469.98	270.74
470.35	270.11
470.72	269.47
471.08	268.81
471.45	268.27
471.82	267.73
472.18	267.16
472.55	266.75
472.92	266.27
473.28	265.81
473.65	265.41
474.02	265.00
474.38	264.64
474.75	264.32
475.11	263.99
475.48	263.71
475.85	263.47
476.21	263.24
476.58	263.04
476.94	262.90
477.31	262.70
477.67	262.53
478.04	262.44
478.41	262.39
478.77	262.42
479.14	262.35
479.50	262.35
479.87	262.41
480.23	262.47
480.60	262.53
480.96	262.65
481.33	262.86
481.69	263.03
482.06	263.22
482.42	263.43
482.79	263.68
483.15	264.01
483.52	264.40
483.88	264.74
484.25	265.13
484.61	265.57
484.98	266.06
485.34	266.68
485.71	267.29
486.07	267.91
486.44	268.48
486.80	269.23
487.17	269.94
487.53	270.74
487.90	271.61
488.26	272.58
488.62	273.54
488.99	274.52
489.35	275.59
489.72	276.72
490.08	277.93
490.44	279.20
490.81	280.57
491.17	281.93
491.54	283.41
491.90	284.96
492.26	286.62
492.63	288.36
492.99	290.09
493.36	291.97
493.72	294.02
494.08	296.16
494.45	298.36
494.81	300.80
495.17	303.27
495.54	305.88
495.90	308.52
496.26	311.36
496.63	314.30
496.99	317.38
497.35	320.65
497.72	324.05
498.08	327.58
498.44	331.26
498.80	335.20
499.17	339.25
499.53	343.46
499.89	347.82
500.26	352.33
500.62	357.01
500.98	361.94
501.34	367.04
501.71	372.36
502.07	377.84
502.43	383.41
502.79	389.21
503.16	395.24
503.52	401.57
503.88	407.98
504.24	414.59
504.60	421.55
504.97	428.71
505.33	436.03
505.69	443.72
506.05	451.52
506.41	459.39
506.78	467.57
507.14	476.05
507.50	484.81
507.86	493.85
508.22	503.11
508.59	512.35
508.95	521.93
509.31	531.78
509.67	541.89
510.03	552.10
510.39	562.68
510.75	573.48
511.12	584.44
511.48	595.74
511.84	607.34
512.20	618.79
512.56	630.73
512.92	642.95
513.28	655.34
513.64	667.83
514.00	680.61
514.37	693.54
514.73	706.55
515.09	719.59
515.45	732.91
515.81	746.50
516.17	760.44
516.53	774.60
516.89	788.81
517.25	802.99
517.61	817.53
517.97	831.95
518.33	846.41
518.69	861.17
519.05	876.14
519.41	891.23
519.77	906.81
520.13	922.21
520.49	937.61
520.85	952.85
521.21	968.50
521.57	984.69
521.93	1000.45
522.29	1016.81
522.65	1033.04
523.01	1049.21
523.37	1065.11
523.73	1081.37
524.09	1097.43
524.45	1113.60
524.81	1130.21
525.17	1146.97
525.53	1163.89
525.89	1180.70
526.25	1197.45
526.61	1213.86
526.97	1230.57
527.33	1247.05
527.68	1263.69
528.04	1280.02
528.40	1296.66
528.76	1313.64
529.12	1330.17
529.48	1346.97
529.84	1362.92
530.20	1379.47
530.56	1396.39
530.91	1413.83
531.27	1430.54
531.63	1447.01
531.99	1463.56
532.35	1479.51
532.71	1495.38
533.07	1511.62
533.42	1527.53
533.78	1543.49
534.14	1559.69
534.50	1575.01
534.86	1590.81
535.21	1606.02
535.57	1621.88
535.93	1637.27
536.29	1652.07
536.65	1667.00
537.00	1681.63
537.36	1696.95
537.72	1711.45
538.08	1725.81
538.44	1739.51
538.79	1753.31
539.15	1766.83
539.51	1780.57
539.87	1794.83
540.22	1808.37
540.58	1822.02
540.94	1835.24
541.29	1848.08
541.65	1860.58
542.01	1873.67
542.37	1885.85
542.72	1898.04
543.08	1909.81
543.44	1922.15
543.79	1933.31
544.15	1944.25
544.51	1955.93
544.87	1966.87
545.22	1977.69
545.58	1987.93
545.94	1997.75
546.29	2007.55
546.65	2017.31
547.01	2026.47
547.36	2035.08
547.72	2043.66
548.07	2051.47
548.43	2059.55
548.79	2067.41
549.14	2075.01
549.50	2082.27
549.86	2089.87
550.21	2097.27
550.57	2104.44
550.92	2111.09
551.28	2118.04
551.64	2125.17
551.99	2131.64
552.35	2137.73
552.70	2143.82
553.06	2149.74
553.41	2155.92
553.77	2161.94
554.13	2168.02
554.48	2174.22
554.84	2179.85
555.19	2185.02
555.55	2190.24
555.90	2194.74
556.26	2199.79
556.61	2204.45
556.97	2208.86
557.32	2212.91
557.68	2216.99
558.03	2221.27
558.39	2224.85
558.74	2229.60
559.10	2233.39
559.45	2237.03
559.81	2241.40
560.16	2245.22
560.52	2248.41
560.87	2251.97
561.23	2254.54
561.58	2257.57
561.94	2260.07
562.29	2262.28
562.64	2265.09
563.00	2267.54
563.35	2270.99
563.71	2274.10
564.06	2277.41
564.42	2280.36
564.77	2283.02
565.12	2285.40
565.48	2287.30
565.83	2289.21
566.19	2290.52
566.54	2291.36
566.89	2292.62
567.25	2293.22
567.60	2294.53
567.96	2296.37
568.31	2297.05
568.66	2298.19
569.02	2298.63
569.37	2299.05
569.72	2300.01
570.08	2300.04
570.43	2300.21
570.78	2299.72
571.14	2298.14
571.49	2296.81
571.84	2296.40
572.20	2295.34
572.55	2294.25
572.90	2292.67
573.26	2291.32
573.61	2289.65
573.96	2287.97
574.31	2285.08
574.67	2282.03
575.02	2278.42
575.37	2274.94
575.72	2271.41
576.08	2268.12
576.43	2264.86
576.78	2261.13
577.13	2257.87
577.49	2254.73
577.84	2251.26
578.19	2247.50
578.54	2244.10
578.90	2239.93
579.25	2234.34
579.60	2229.45
579.95	2224.51
580.30	2219.47
580.66	2214.43
581.01	2209.51
581.36	2204.81
581.71	2200.51
582.06	2196.10
582.42	2191.67
582.77	2186.53
583.12	2181.95
583.47	2177.39
583.82	2172.62
584.17	2167.48
584.53	2162.17
584.88	2156.74
585.23	2150.92
585.58	2145.38
585.93	2139.80
586.28	2135.12
586.63	2130.08
586.98	2125.01
587.34	2120.26
587.69	2115.47
588.04	2110.15
588.39	2104.52
588.74	2098.00
589.09	2091.84
589.44	2085.06
589.79	2079.01
590.14	2073.21
590.49	2066.53
590.84	2059.97
591.19	2053.81
591.54	2047.30
591.89	2039.86
592.25	2033.13
592.60	2026.06
592.95	2018.75
593.30	2011.34
593.65	2003.68
594.00	1996.56
594.35	1989.29
594.70	1981.15
595.05	1973.97
595.40	1966.82
595.75	1959.32
596.10	1953.10
596.45	1946.42
596.80	1940.26
597.15	1933.77
597.50	1926.79
597.85	1920.45
598.19	1913.91
598.54	1906.79
598.89	1900.12
599.24	1894.19
599.59	1887.53
599.94	1881.37
600.29	1874.94
600.64	1868.40
600.99	1860.89
601.34	1854.28
601.69	1847.45
602.04	1840.70
602.39	1833.42
602.74	1826.57
603.08	1819.89
603.43	1813.15
603.78	1805.80
604.13	1798.60
604.48	1791.21
604.83	1784.49
605.18	1777.61
605.53	1769.71
605.87	1761.79
606.22	1754.55
606.57	1746.68
606.92	1739.29
607.27	1732.10
607.62	1725.26
607.96	1718.10
608.31	1711.62
608.66	1703.94
609.01	1696.39
609.36	1688.82
609.70	1680.83
610.05	1672.80
610.40	1664.97
610.75	1656.67
611.10	1649.07
611.44	1640.57
611.79	1632.60
612.14	1623.87
612.49	1614.59
612.83	1606.07
613.18	1597.98
613.53	1589.90
613.88	1581.37
614.22	1573.06
614.57	1564.32
614.92	1556.20
615.27	1548.60
615.61	1540.23
615.96	1532.14
616.31	1524.41
616.65	1517.02
617.00	1509.39
617.35	1501.59
617.70	1493.46
618.04	1485.04
618.39	1476.77
618.74	1469.25
619.08	1460.90
619.43	1453.29
619.78	1446.45
620.12	1439.38
620.47	1431.81
620.82	1423.65
621.16	1416.16
621.51	1408.51
621.85	1400.96
622.20	1392.46
622.55	1384.08
622.89	1376.17
623.24	1368.59
623.59	1361.22
623.93	1353.74
624.28	1346.52
624.62	1339.26
624.97	1332.02
625.32	1325.16
625.66	1318.16
626.01	1311.02
626.35	1303.73
626.70	1296.01
627.04	1288.21
627.39	1280.38
627.73	1273.01
628.08	1266.10
628.43	1258.86
628.77	1251.45
629.12	1243.98
629.46	1236.92
629.81	1229.42
630.15	1222.31
630.50	1214.88
630.84	1206.64
631.19	1198.69
631.53	1191.17
631.88	1183.42
632.22	1175.76
632.57	1168.31
632.91	1160.81
633.26	1153.42
633.60	1145.90
633.95	1138.76
634.29	1131.76
634.64	1125.07
634.98	1117.71
635.32	1110.57
635.67	1103.92
636.01	1097.37
636.36	1090.47
636.70	1083.83
637.05	1077.34
637.39	1070.86
637.73	1064.37
638.08	1058.52
638.42	1052.46
638.77	1046.04
639.11	1039.52
639.45	1033.09
639.80	1026.56
640.14	1020.17
640.49	1013.73
640.83	1007.48
641.17	1001.23
641.52	994.83
641.86	988.37
642.20	982.42
642.55	976.04
642.89	969.65
643.23	963.06
643.58	957.34
643.92	951.07
644.26	945.05
644.61	938.96
644.95	932.97
645.29	926.39
645.64	919.62
645.98	913.30
646.32	907.32
646.66	901.37
647.01	895.61
647.35	889.81
647.69	883.85
648.04	878.18
648.38	872.37
648.72	866.44
649.06	860.36
649.41	854.47
649.75	848.56
650.09	842.52
650.43	836.76
650.78	830.59
651.12	824.71
651.46	818.98
651.80	813.30
652.14	807.91
652.49	802.56
652.83	797.44
653.17	791.76
653.51	786.05
653.85	780.61
654.20	774.86
654.54	768.84
654.88	763.11
655.22	757.34
655.56	751.66
655.90	746.15
656.25	740.91
656.59	735.56
656.93	730.53
657.27	725.40
657.61	719.93
657.95	714.75
658.29	709.66
658.64	704.32
658.98	698.91
659.32	693.36
659.66	688.05
660.00	682.76
660.34	677.82
660.68	672.98
661.02	667.95
661.36	663.30
661.70	658.79
662.05	654.40
662.39	650.06
662.73	645.63
663.07	641.27
663.41	636.89
663.75	632.42
664.09	627.78
664.43	623.36
664.77	619.25
665.11	615.01
665.45	610.89
665.79	606.89
666.13	602.71
666.47	598.59
666.81	594.47
667.15	590.33
667.49	586.38
667.83	582.48
668.17	578.53
668.51	574.42
668.85	570.45
669.19	566.63
669.53	562.78
669.87	558.87
670.21	555.15
670.55	551.40
670.89	547.91
671.23	544.47
671.57	540.95
671.91	537.39
672.25	533.91
672.58	530.36
672.92	526.86
673.26	523.77
673.60	520.68
673.94	517.55
674.28	514.59
674.62	511.59
674.96	508.52
675.30	505.63
675.64	502.71
675.97	499.92
676.31	497.06
676.65	494.13
676.99	491.44
677.33	488.54
677.67	485.75
678.01	482.77
678.34	479.80
678.68	477.00
679.02	474.20
679.36	471.44
679.70	468.73
680.04	466.00
680.37	463.15
680.71	460.31
681.05	457.72
681.39	455.01
681.73	452.41
682.06	449.87
682.40	447.29
682.74	444.75
683.08	442.17
683.42	439.55
683.75	437.03
684.09	434.43
684.43	431.97
684.77	429.49
685.10	427.11
685.44	424.79
685.78	422.43
686.12	420.15
686.45	417.87
686.79	415.59
687.13	413.42
687.46	411.20
687.80	409.02
688.14	406.80
688.48	404.80
688.81	402.55
689.15	400.43
689.49	398.28
689.82	396.26
690.16	394.18
690.50	392.23
690.83	390.30
691.17	388.32
691.51	386.44
691.84	384.63
692.18	382.74
692.52	380.83
692.85	378.89
693.19	377.05
693.52	375.22
693.86	373.40
694.20	371.60
694.53	369.83
694.87	368.03
695.21	366.22
695.54	364.35
695.88	362.59
696.21	360.85
696.55	359.19
696.88	357.47
697.22	355.78
697.56	354.12
697.89	352.47
698.23	350.87
698.56	349.24
698.90	347.65
699.23	346.01
699.57	344.46
699.90	342.94
700.24	341.40
700.58	339.89
700.91	338.43
701.25	336.99
701.58	335.64
701.92	334.30
702.25	332.99
702.59	331.67
702.92	330.39
703.26	329.10
703.59	327.82
703.93	326.63
704.26	325.42
704.60	324.16
704.93	322.88
705.26	321.66
705.60	320.51
705.93	319.32
706.27	318.28
706.60	317.22
706.94	316.09
707.27	314.95
707.61	313.86
707.94	312.78
708.27	311.69
708.61	310.62
708.94	309.61
709.28	308.57
709.61	307.56
709.94	306.60
710.28	305.57
710.61	304.54
710.95	303.44
711.28	302.55
711.61	301.59
711.95	300.71
712.28	299.75
712.61	298.73
712.95	297.78
713.28	296.86
713.61	295.93
713.95	295.07
714.28	294.24
714.61	293.35
714.95	292.54
715.28	291.66
715.61	290.73
715.95	289.85
716.28	288.99
716.61	288.15
716.95	287.32
717.28	286.59
717.61	285.83
717.94	285.13
718.28	284.27
718.61	283.52
718.94	282.79
719.27	282.10
719.61	281.48
719.94	280.83
720.27	280.14
720.60	279.47
720.94	278.80
721.27	278.18
721.60	277.61
721.93	276.99
722.27	276.44
722.60	275.92
722.93	275.33
723.26	274.82
723.59	274.29
723.93	273.72
724.26	273.08
724.59	272.52
724.92	271.95
725.25	271.48
725.59	270.97
725.92	270.45
726.25	269.95
726.58	269.43
726.91	268.93
727.24	268.46
727.57	267.99
727.91	267.52
728.24	267.05
728.57	266.58
728.90	266.12
729.23	265.65
729.56	265.18
729.89	264.72
730.22	264.22
730.55	263.73
730.89	263.33
731.22	262.95
731.55	262.51
731.88	262.10
732.21	261.66
732.54	261.22
732.87	260.81
733.20	260.43
733.53	260.10
733.86	259.74
734.19	259.35
734.52	258.98
734.85	258.64
735.18	258.26
735.51	257.88
735.84	257.50
736.17	257.17
736.50	256.79
736.83	256.57
737.16	256.23
737.49	255.95
737.82	255.58
738.15	255.25
738.48	254.93
738.81	254.62
739.14	254.33
739.47	254.05
739.80	253.77
740.13	253.46
740.46	253.13
740.79	252.78
741.12	252.48
741.45	252.16
741.78	251.83
742.11	251.56
742.44	251.24
742.77	250.97
743.10	250.64
743.43	250.36
743.75	250.01
744.08	249.92
744.41	249.63
744.74	249.37
745.07	249.12
745.40	248.89
745.73	248.62
746.06	248.35
746.39	248.09
746.71	247.81
747.04	247.53
747.37	247.23
747.70	247.04
748.03	246.77
748.36	246.59
748.68	246.34
749.01	246.08
749.34	245.86
749.67	245.62
750.00	245.41
750.33	245.25
750.65	245.00
750.98	244.65
751.31	244.45
751.64	244.24
751.97	244.02
752.29	243.79
752.62	243.53
752.95	243.33
753.28	243.13
753.60	242.92
753.93	242.76
754.26	242.56
754.59	242.28
754.91	242.10
755.24	241.86
755.57	241.65
755.90	241.43
756.22	241.25
756.55	241.09
756.88	240.90
757.20	240.68
757.53	240.50
757.86	240.29
758.19	240.10
758.51	239.97
758.84	239.81
759.17	239.60
759.49	239.48
759.82	239.38
760.15	239.17
760.47	239.02
760.80	238.84
761.13	238.70
761.45	238.59
761.78	238.42
762.11	238.29
762.43	238.16
762.76	238.04
763.08	237.89
763.41	237.70
763.74	237.55
764.06	237.38
764.39	237.21
764.71	237.06
765.04	236.90
765.37	236.73
765.69	236.59
766.02	236.46
766.34	236.29
766.67	236.12
767.00	236.01
767.32	235.93
767.65	235.85
767.97	235.73
768.30	235.62
768.62	235.52
768.95	235.39
769.27	235.27
769.60	235.17
769.92	235.03
770.25	234.94
770.57	234.84
770.90	234.76
771.22	234.70
771.55	234.63
771.87	234.57
772.20	234.47
772.52	234.43
772.85	234.47
773.17	234.42
773.50	234.29
773.82	234.20
774.15	234.04
774.47	233.91
774.80	233.81
775.12	233.71
775.45	233.63
775.77	233.54
776.09	233.48
776.42	233.39
776.74	233.35
777.07	233.29
777.39	233.23
777.72	233.14
778.04	233.06
778.36	232.96
778.69	232.90
779.01	232.83
779.33	232.73
779.66	232.58
779.98	232.49
780.31	232.43
780.63	232.41
780.95	232.40
781.28	232.36
781.60	232.32
781.92	232.27
782.25	232.20
782.57	232.12
782.89	232.04
783.22	232.01
783.54	231.94
783.86	231.87
784.19	231.78
784.51	231.77
784.83	231.69
785.16	231.62
785.48	231.55
785.80	231.47
786.12	231.41
786.45	231.33
786.77	231.29
787.09	231.26
787.42	231.19
787.74	231.13
788.06	231.06
788.38	231.00
788.71	230.95
789.03	230.94
789.35	230.93
789.67	230.90
789.99	230.85
790.32	230.81
790.64	230.82
790.96	230.88
791.28	230.78
791.61	230.76
791.93	230.74
792.25	230.69
792.57	230.74
792.89	230.68
793.21	230.65
793.54	230.64
793.86	230.59
794.18	230.54
794.50	230.47
794.82	230.45
795.14	230.42
795.47	230.37
795.79	230.30
796.11	230.23
796.43	230.17
796.75	230.13
797.07	230.07
797.39	229.97
797.71	229.84
798.04	229.83
798.36	229.78
798.68	229.77
799.00	229.73
799.32	229.62
799.64	229.63
799.96	229.60
800.28	229.56
800.60	229.53
800.92	229.49
801.24	229.49
801.56	229.42
801.89	229.38
802.21	229.37
802.53	229.32
802.85	229.31
803.17	229.34
803.49	229.30
803.81	229.25
804.13	229.23
804.45	229.17
804.77	229.10
805.09	229.05
805.41	228.99
805.73	228.95
806.05	228.93
806.37	228.85
806.69	228.80
807.01	228.75
807.33	228.74
807.65	228.68
807.97	228.72
808.28	228.69
808.60	228.66
808.92	228.61
809.24	228.64
809.56	228.62
809.88	228.56
810.20	228.52
810.52	228.54
810.84	228.50
811.16	228.50
811.48	228.49
811.80	228.54
812.12	228.50
812.43	228.51
812.75	228.49
813.07	228.45
813.39	228.48
813.71	228.44
814.03	228.39
814.35	228.43
814.67	228.32
814.98	228.31
815.30	228.31
815.62	228.29
815.94	228.20
816.26	228.23
816.58	228.20
816.89	228.21
817.21	228.18
817.53	228.14
817.85	228.15
818.17	228.14
818.48	228.07
818.80	228.10
819.12	228.06
819.44	228.05
819.76	228.05
820.07	228.00
820.39	228.01
820.71	228.04
821.03	228.00
821.34	228.00
821.66	228.02
821.98	228.01
822.30	228.01
822.61	228.08
822.93	228.01
823.25	228.01
823.57	228.03
823.88	228.05
824.20	228.07
824.52	228.08
824.83	228.07
825.15	228.09
825.47	228.11
825.79	228.12
826.10	228.11
826.42	228.12
826.74	228.12
827.05	228.10
827.37	228.10
827.69	228.09
828.00	228.08
828.32	228.06
828.64	228.06
828.95	228.10
829.27	228.11
829.58	228.13
829.90	228.13
830.22	228.12
830.53	228.07
830.85	228.06
831.17	227.99
831.48	228.02
831.80	227.98
832.11	227.92
832.43	227.90
832.75	227.87
833.06	227.93
833.38	227.90
833.69	227.89
834.01	227.85
834.32	227.82
834.64	227.80
834.96	227.77
835.27	227.76
835.59	227.71
835.90	227.62
836.22	227.59
836.53	227.57
836.85	227.55
837.16	227.62
837.48	227.59
837.79	227.61
838.11	227.56
838.42	227.55
838.74	227.56
839.05	227.52
839.37	227.50
839.68	227.39
840.00	227.39
840.31	227.41
840.63	227.41
840.94	227.41
841.26	227.41
841.57	227.42
841.88	227.41
842.20	227.38
842.51	227.37
842.83	227.38
843.14	227.42
843.46	227.40
843.77	227.33
844.08	227.34
844.40	227.31
844.71	227.30
845.03	227.27
845.34	227.24
845.65	227.24
845.97	227.25
846.28	227.25
846.60	227.19
846.91	227.14
847.22	227.10
847.54	227.08
847.85	227.07
848.16	227.05
848.48	227.01
848.79	227.05
849.10	227.05
849.42	227.02
849.73	226.92
850.04	226.90
850.36	226.87
850.67	226.89
850.98	226.89
851.30	226.92
851.61	226.96
851.92	226.95
852.23	226.98
852.55	226.97
852.86	227.00
853.17	227.05
853.49	227.07
853.80	227.10
854.11	227.16
854.42	227.19
854.74	227.20
855.05	227.19
855.36	227.15
855.67	227.18
855.99	227.17
856.30	227.30
856.61	227.32
856.92	227.35
857.23	227.33
857.55	227.30
857.86	227.30
858.17	227.28
858.48	227.28
858.79	227.24
859.11	227.26
859.42	227.23
859.73	227.23
860.04	227.25
860.35	227.21
860.66	227.15
860.98	227.14
861.29	227.15
861.60	227.17
861.91	227.22
862.22	227.18
862.53	227.19
862.84	227.08
863.16	227.09
863.47	227.10
863.78	227.07
864.09	227.11
864.40	227.10
864.71	227.12
865.02	227.16
865.33	227.20
865.64	227.20
865.95	227.22
866.27	227.26
866.58	227.27
866.89	227.32
867.20	227.33
867.51	227.30
867.82	227.31
868.13	227.34
868.44	227.30
868.75	227.33
869.06	227.34
869.37	227.37
869.68	227.34
869.99	227.33
870.30	227.35
870.61	227.33
870.92	227.29
871.23	227.27
871.54	227.27
871.85	227.26
872.16	227.27
872.47	227.28
872.78	227.21
873.09	227.20
873.40	227.16
873.71	227.16
874.02	227.17
874.33	227.14
874.64	227.09
874.95	227.11
875.26	227.05
875.56	227.02
875.87	227.01
876.18	226.99
876.49	227.07
876.80	227.05
877.11	227.02
877.42	227.04
877.73	227.02
878.04	226.99
878.35	226.95
878.66	226.92
878.96	226.90
879.27	226.91
879.58	226.88
879.89	226.87
880.20	226.90
880.51	226.88
880.82	226.87
881.12	226.84
881.43	226.77
881.74	226.79
882.05	226.77
882.36	226.74
882.67	226.73
882.97	226.64
883.28	226.66
883.59	226.66
883.90	226.65
884.21	226.68
884.51	226.67
884.82	226.63
885.13	226.64
885.44	226.60
885.74	226.61
886.05	226.60
886.36	226.59
886.67	226.53
886.98	226.54
887.28	226.55
887.59	226.57
887.90	226.59
888.20	226.59
888.51	226.60
888.82	226.58
889.13	226.57
889.43	226.60
889.74	226.59
890.05	226.57
890.35	226.55
890.66	226.52
890.97	226.49
891.28	226.48
891.58	226.49
891.89	226.50
892.20	226.49
892.50	226.47
892.81	226.44
893.12	226.44
893.42	226.43
893.73	226.46
894.04	226.42
894.34	226.43
894.65	226.43
894.95	226.42
895.26	226.45
895.57	226.51
895.87	226.46
896.18	226.48
896.48	226.53
896.79	226.56
897.10	226.57
897.40	226.59
897.71	226.64
898.01	226.62
898.32	226.63
898.63	226.62
898.93	226.64
899.24	226.69
899.54	226.71
899.85	226.72
900.15	226.69
900.46	226.74
900.76	226.75
901.07	226.76
901.38	226.79
901.68	226.85
901.99	226.79
902.29	226.83
902.60	226.84
902.90	226.82
903.21	226.83
903.51	226.83
903.82	226.87
904.12	226.87
904.43	226.88
904.73	226.89
905.03	226.88
905.34	227.00
905.64	226.99
905.95	226.96
906.25	226.96
906.56	226.98
906.86	226.96
907.17	226.95
907.47	226.98
907.77	226.96
908.08	226.89
908.38	226.90
908.69	226.89
908.99	226.89
909.30	226.91
909.60	226.92
909.90	226.93
910.21	226.89
910.51	226.87
910.81	226.89
911.12	226.91
911.42	226.94
911.73	226.82
912.03	226.81
912.33	226.85
912.64	226.84
912.94	226.82
913.24	226.83
913.55	226.82
913.85	226.77
914.15	226.77
914.46	226.80
914.76	226.81
915.06	226.79
915.37	226.77
915.67	226.72
915.97	226.69
916.27	226.67
916.58	226.69
916.88	226.68
917.18	226.63
917.49	226.65
917.79	226.65
918.09	226.65
918.39	226.68
918.70	226.70
919.00	226.67
919.30	226.69
919.60	226.65
919.91	226.62
920.21	226.61
920.51	226.60
920.81	226.56
921.12	226.55
921.42	226.52
921.72	226.52
922.02	226.56
922.32	226.56
922.63	226.52
922.93	226.58
923.23	226.58
923.53	226.58
923.83	226.49
924.13	226.45
924.44	226.44
924.74	226.42
925.04	226.38
925.34	226.40
925.64	226.34
925.94	226.36
926.24	226.43
926.55	226.41
926.85	226.42
927.15	226.42
927.45	226.42
927.75	226.44
928.05	226.42
928.35	226.39
928.65	226.42
928.95	226.44
929.26	226.40
929.56	226.40
929.86	226.38
930.16	226.42
930.46	226.44
930.76	226.48
931.06	226.44
931.36	226.43
931.66	226.44
931.96	226.48
932.26	226.51
932.56	226.47
932.86	226.50
933.16	226.47
933.46	226.49
933.76	226.48
934.06	226.50
934.36	226.54
934.66	226.55
934.96	226.50
935.26	226.53
935.56	226.52
935.86	226.50
936.16	226.52
936.46	226.53
936.76	226.52
937.06	226.47
937.36	226.49
937.66	226.46
937.96	226.43
938.26	226.43
938.56	226.38
938.86	226.34
939.16	226.39
939.46	226.44
939.76	226.45
940.06	226.49
940.35	226.47
940.65	226.43
940.95	226.44
941.25	226.48
941.55	226.46
941.85	226.44
942.15	226.47
942.45	226.51
942.75	226.50
943.04	226.50
943.34	226.53
943.64	226.52
943.94	226.56
944.24	226.60
944.54	226.58
944.84	226.59
945.13	226.60
945.43	226.56
945.73	226.52
946.03	226.49
946.33	226.46
946.62	226.44
946.92	226.44
947.22	226.46
947.52	226.42
947.82	226.41
948.11	226.40
948.41	226.40
948.71	226.34
949.01	226.34
949.31	226.34
949.60	226.37
949.90	226.38
950.20	226.38
950.50	226.35
950.79	226.35
951.09	226.38
951.39	226.38
951.69	226.37
951.98	226.41
952.28	226.39
952.58	226.39
952.87	226.38
953.17	226.40
953.47	226.35
953.76	226.38
954.06	226.38
954.36	226.35
954.66	226.33
954.95	226.37
955.25	226.34
955.55	226.34
955.84	226.28
956.14	226.29
956.44	226.28
956.73	226.25
957.03	226.24
957.32	226.19
957.62	226.21
957.92	226.19
958.21	226.15
958.51	226.26
958.81	226.26
959.10	226.26
959.40	226.24
959.69	226.25
959.99	226.23
960.29	226.19
960.58	226.23
960.88	226.26
961.17	226.23
961.47	226.22
961.76	226.23
962.06	226.24
962.36	226.21
962.65	226.20
962.95	226.22
963.24	226.23
963.54	226.24
963.83	226.23
964.13	226.26
964.42	226.22
964.72	226.14
965.01	226.15
965.31	226.13
965.60	226.13
965.90	226.20
966.19	226.16
966.49	226.16
966.78	226.11
967.08	226.07
967.37	226.09
967.67	226.10
967.96	226.09
968.26	226.12
968.55	226.14
968.85	226.13
969.14	226.12
969.43	226.11
969.73	226.17
970.02	226.15
970.32	226.17
970.61	226.19
970.91	226.15
971.20	226.12
971.49	226.14
971.79	226.13
972.08	226.06
972.38	226.11
972.67	226.15
972.96	226.20
973.26	226.21
973.55	226.24
973.85	226.25
974.14	226.25
974.43	226.24
974.73	226.25
975.02	226.24
975.31	226.26
975.61	226.29
975.90	226.25
976.19	226.25
976.49	226.24
976.78	226.26
977.07	226.28
977.37	226.33
977.66	226.36
977.95	226.37
978.24	226.37
978.54	226.37
978.83	226.36
979.12	226.38
979.42	226.39
979.71	226.40
980.00	226.39
980.29	226.40
980.59	226.39
980.88	226.37
981.17	226.36
981.46	226.35
981.76	226.31
982.05	226.33
982.34	226.36
982.63	226.37
982.93	226.39
983.22	226.38
983.51	226.35
983.80	226.37
984.09	226.37
984.39	226.40
984.68	226.39
984.97	226.39
985.26	226.35
985.55	226.36
985.85	226.32
986.14	226.35
986.43	226.36
986.72	226.40
987.01	226.38
987.30	226.39
987.59	226.36
987.89	226.37
988.18	226.33
988.47	226.29
988.76	226.26
989.05	226.24
989.34	226.25
989.63	226.28
989.92	226.29
990.22	226.29
990.51	226.26
990.80	226.24
991.09	226.27
991.38	226.29
991.67	226.26
991.96	226.23
992.25	226.19
992.54	226.18
992.83	226.16
993.12	226.14
993.41	226.17
993.70	226.24
993.99	226.25
994.28	226.27
994.58	226.32
994.87	226.34
995.16	226.34
995.45	226.35
995.74	226.32
996.03	226.28
996.32	226.28
996.61	226.31
996.90	226.31
997.19	226.27
997.48	226.22
997.77	226.23
998.06	226.25
998.34	226.23
998.63	226.21
998.92	226.22
999.21	226.25
999.50	226.25
999.79	226.22
1000.08	226.20
1000.37	226.19
1000.66	226.13
1000.95	226.17
1001.24	226.16
1001.53	226.13
1001.82	226.12
1002.11	226.10
1002.40	226.08
1002.68	226.10
1002.97	226.16
1003.26	226.18
1003.55	226.20
1003.84	226.21
1004.13	226.25
1004.42	226.27
1004.71	226.29
1004.99	226.27
1005.28	226.33
1005.57	226.32
1005.86	226.29
1006.15	226.31
1006.44	226.29
1006.72	226.33
1007.01	226.28
1007.30	226.29
1007.59	226.29
1007.88	226.26
1008.17	226.26
1008.45	226.25
1008.74	226.20
1009.03	226.17
1009.32	226.15
1009.60	226.16
1009.89	226.17
1010.18	226.15
1010.47	226.14
1010.76	226.14
1011.04	226.16
1011.33	226.13
1011.62	226.13
1011.91	226.13
1012.19	226.12
1012.48	226.14
1012.77	226.13
1013.05	226.20
1013.34	226.22
1013.63	226.26
1013.92	226.31
1014.20	226.33
1014.49	226.37
1014.78	226.43
1015.06	226.40
1015.35	226.45
1015.64	226.44
1015.92	226.47
1016.21	226.47
1016.50	226.49
1016.78	226.51
1017.07	226.48
1017.36	226.49
1017.64	226.53
1017.93	226.57
1018.22	226.59
1018.50	226.59
1018.79	226.59
1019.08	226.53
1019.36	226.57
1019.65	226.57
1019.93	226.59
1020.22	226.58
1020.51	226.62
1020.79	226.58
1021.08	226.37
1021.36	226.25
1021.65	226.33
1021.94	226.30
1022.22	227.04
1022.51	226.96
1022.79	226.85
1023.08	226.05
1023.36	227.87
1023.65	225.97
>>>>>End Processed Spectral Data<<<<<
