SpectraSuite Data File
++++++++++++++++++++++++++++++++++++
Date: Fri Feb 01 14:49:55 EST 2013
User: group
Dark Spectrum Present: No
Reference Spectrum Present: No
Number of Sampled Component Spectra: 1
Spectrometers: USB2E7196
Integration Time (usec): 35000 (USB2E7196)
Spectra Averaged: 100 (USB2E7196)
Boxcar Smoothing: 10 (USB2E7196)
Correct for Electrical Dark: No (USB2E7196)
Strobe/Lamp Enabled: No (USB2E7196)
Correct for Detector Non-linearity: No (USB2E7196)
Correct for Stray Light: No (USB2E7196)
Number of Pixels in Processed Spectrum: 2048
>>>>>Begin Processed Spectral Data<<<<<
339.09	0.00
339.48	215.63
339.86	217.66
340.24	218.50
340.63	220.14
341.01	222.72
341.39	223.05
341.78	223.98
342.16	225.66
342.54	225.68
342.93	214.24
343.31	225.07
343.69	225.61
344.07	226.05
344.46	226.45
344.84	226.84
345.22	227.07
345.60	227.31
345.99	227.50
346.37	227.61
346.75	227.72
347.13	227.79
347.52	227.85
347.90	227.89
348.28	227.87
348.66	227.87
349.05	227.88
349.43	227.90
349.81	227.93
350.19	228.00
350.57	228.05
350.96	228.12
351.34	228.21
351.72	228.29
352.10	228.40
352.48	228.51
352.87	228.53
353.25	228.58
353.63	228.62
354.01	228.69
354.39	228.73
354.77	228.80
355.15	228.89
355.54	228.91
355.92	228.96
356.30	229.06
356.68	229.19
357.06	229.22
357.44	229.25
357.82	229.29
358.20	229.33
358.58	229.41
358.97	229.44
359.35	229.48
359.73	229.55
360.11	229.60
360.49	229.61
360.87	229.66
361.25	229.76
361.63	229.84
362.01	229.88
362.39	229.94
362.77	229.97
363.15	229.97
363.53	230.03
363.91	230.06
364.29	230.07
364.67	229.98
365.05	230.04
365.43	230.08
365.81	230.10
366.19	230.13
366.57	230.11
366.95	230.10
367.33	230.05
367.71	230.06
368.09	230.04
368.47	230.03
368.85	229.99
369.23	229.96
369.61	229.89
369.99	229.86
370.37	229.83
370.75	229.84
371.13	229.79
371.51	229.73
371.89	229.67
372.27	229.61
372.65	229.60
373.03	229.51
373.41	229.44
373.78	229.37
374.16	229.27
374.54	229.18
374.92	229.11
375.30	229.05
375.68	228.94
376.06	228.85
376.44	228.77
376.82	228.67
377.19	228.58
377.57	228.47
377.95	228.39
378.33	228.31
378.71	228.18
379.09	228.10
379.47	228.04
379.84	227.96
380.22	227.87
380.60	227.79
380.98	227.69
381.36	227.63
381.73	227.55
382.11	227.51
382.49	227.48
382.87	227.43
383.25	227.38
383.62	227.44
384.00	227.35
384.38	227.30
384.76	227.32
385.13	227.31
385.51	227.33
385.89	227.25
386.27	227.19
386.64	227.12
387.02	227.07
387.40	227.02
387.78	226.99
388.15	226.95
388.53	226.90
388.91	226.91
389.29	226.87
389.66	226.84
390.04	226.78
390.42	226.78
390.79	226.75
391.17	226.72
391.55	226.59
391.92	226.63
392.30	226.64
392.68	226.61
393.05	226.60
393.43	226.55
393.81	226.53
394.18	226.55
394.56	226.61
394.94	226.65
395.31	226.67
395.69	226.69
396.06	226.76
396.44	226.82
396.82	226.88
397.19	227.00
397.57	227.05
397.95	227.12
398.32	227.15
398.70	227.26
399.07	227.35
399.45	227.43
399.82	227.48
400.20	227.56
400.58	227.64
400.95	227.68
401.33	227.81
401.70	228.01
402.08	228.12
402.45	228.22
402.83	228.37
403.20	228.48
403.58	228.62
403.95	228.76
404.33	228.86
404.71	228.96
405.08	229.12
405.46	229.29
405.83	229.44
406.21	229.58
406.58	229.73
406.96	229.92
407.33	230.11
407.70	230.33
408.08	230.58
408.45	230.83
408.83	231.09
409.20	231.30
409.58	231.51
409.95	231.74
410.33	232.02
410.70	232.27
411.08	232.61
411.45	232.93
411.82	233.23
412.20	233.63
412.57	234.05
412.95	234.33
413.32	234.73
413.69	235.15
414.07	235.60
414.44	236.06
414.82	236.53
415.19	237.11
415.56	237.63
415.94	238.18
416.31	238.80
416.68	239.39
417.06	240.13
417.43	240.79
417.81	241.57
418.18	242.35
418.55	243.19
418.93	244.04
419.30	244.93
419.67	245.87
420.04	246.82
420.42	247.81
420.79	249.02
421.16	250.13
421.54	251.31
421.91	252.53
422.28	253.77
422.66	255.09
423.03	256.36
423.40	257.71
423.77	259.14
424.15	260.57
424.52	262.11
424.89	263.72
425.26	265.28
425.64	266.75
426.01	268.34
426.38	269.98
426.75	271.63
427.13	273.33
427.50	275.11
427.87	276.97
428.24	278.83
428.61	280.52
428.99	282.47
429.36	284.60
429.73	286.66
430.10	288.69
430.47	290.75
430.85	292.86
431.22	295.09
431.59	297.45
431.96	299.67
432.33	302.11
432.70	304.46
433.08	307.27
433.45	309.87
433.82	312.46
434.19	315.34
434.56	318.15
434.93	320.79
435.30	323.45
435.68	326.35
436.05	329.13
436.42	331.95
436.79	334.48
437.16	337.15
437.53	339.97
437.90	342.79
438.27	345.56
438.64	348.36
439.01	350.93
439.38	353.13
439.75	355.32
440.13	357.81
440.50	360.14
440.87	361.97
441.24	363.93
441.61	366.07
441.98	367.55
442.35	369.38
442.72	371.25
443.09	372.99
443.46	373.94
443.83	374.61
444.20	375.11
444.57	375.88
444.94	376.20
445.31	376.52
445.68	376.88
446.05	376.88
446.42	376.51
446.79	376.11
447.16	375.66
447.53	375.37
447.90	374.20
448.27	373.02
448.64	371.46
449.01	370.36
449.37	368.39
449.74	366.49
450.11	364.26
450.48	361.77
450.85	359.24
451.22	357.13
451.59	355.07
451.96	353.15
452.33	350.61
452.70	348.23
453.07	345.44
453.43	342.54
453.80	339.84
454.17	337.18
454.54	334.66
454.91	331.99
455.28	329.29
455.65	326.80
456.02	324.37
456.38	322.21
456.75	319.55
457.12	317.27
457.49	315.07
457.86	312.88
458.23	311.07
458.59	309.07
458.96	306.97
459.33	305.15
459.70	303.28
460.07	301.78
460.43	300.07
460.80	298.45
461.17	297.02
461.54	295.54
461.91	294.10
462.27	292.66
462.64	291.40
463.01	290.07
463.38	288.80
463.74	287.44
464.11	286.28
464.48	285.24
464.85	284.14
465.21	283.24
465.58	282.30
465.95	281.18
466.32	280.25
466.68	279.39
467.05	278.46
467.42	277.55
467.78	276.61
468.15	275.73
468.52	275.06
468.88	274.14
469.25	273.33
469.62	272.72
469.98	272.01
470.35	271.36
470.72	270.71
471.08	270.06
471.45	269.49
471.82	268.92
472.18	268.31
472.55	267.89
472.92	267.37
473.28	266.93
473.65	266.48
474.02	266.01
474.38	265.61
474.75	265.25
475.11	264.91
475.48	264.59
475.85	264.36
476.21	264.10
476.58	263.89
476.94	263.72
477.31	263.54
477.67	263.37
478.04	263.26
478.41	263.22
478.77	263.24
479.14	263.18
479.50	263.19
479.87	263.24
480.23	263.30
480.60	263.36
480.96	263.41
481.33	263.56
481.69	263.76
482.06	263.95
482.42	264.17
482.79	264.42
483.15	264.75
483.52	265.11
483.88	265.45
484.25	265.84
484.61	266.26
484.98	266.70
485.34	267.23
485.71	267.77
486.07	268.35
486.44	268.88
486.80	269.55
487.17	270.26
487.53	271.08
487.90	271.89
488.26	272.79
488.62	273.82
488.99	274.86
489.35	275.88
489.72	277.02
490.08	278.22
490.44	279.44
490.81	280.73
491.17	282.03
491.54	283.49
491.90	285.05
492.26	286.66
492.63	288.35
492.99	290.12
493.36	291.99
493.72	294.03
494.08	296.12
494.45	298.34
494.81	300.65
495.17	303.03
495.54	305.61
495.90	308.22
496.26	310.94
496.63	313.80
496.99	316.86
497.35	320.02
497.72	323.37
498.08	326.84
498.44	330.51
498.80	334.40
499.17	338.42
499.53	342.50
499.89	346.85
500.26	351.33
500.62	355.99
500.98	360.94
501.34	365.94
501.71	371.18
502.07	376.58
502.43	382.17
502.79	387.89
503.16	393.85
503.52	400.10
503.88	406.49
504.24	413.09
504.60	419.94
504.97	427.07
505.33	434.37
505.69	441.99
506.05	449.76
506.41	457.56
506.78	465.73
507.14	474.16
507.50	482.85
507.86	491.82
508.22	500.94
508.59	510.02
508.95	519.59
509.31	529.44
509.67	539.46
510.03	549.69
510.39	560.23
510.75	571.04
511.12	581.98
511.48	593.29
511.84	604.70
512.20	616.22
512.56	628.14
512.92	640.31
513.28	652.68
513.64	664.97
514.00	677.70
514.37	690.59
514.73	703.57
515.09	716.61
515.45	729.88
515.81	743.41
516.17	757.46
516.53	771.62
516.89	785.71
517.25	799.92
517.61	814.48
517.97	828.97
518.33	843.42
518.69	858.13
519.05	873.10
519.41	888.26
519.77	903.80
520.13	919.24
520.49	934.66
520.85	950.03
521.21	965.83
521.57	982.13
521.93	997.92
522.29	1014.33
522.65	1030.63
523.01	1046.91
523.37	1063.12
523.73	1079.29
524.09	1095.50
524.45	1111.89
524.81	1128.66
525.17	1145.38
525.53	1162.36
525.89	1179.29
526.25	1196.16
526.61	1212.57
526.97	1229.44
527.33	1245.89
527.68	1262.50
528.04	1278.92
528.40	1295.68
528.76	1312.86
529.12	1329.49
529.48	1346.32
529.84	1362.46
530.20	1379.14
530.56	1396.19
530.91	1413.49
531.27	1430.36
531.63	1446.78
531.99	1463.39
532.35	1479.40
532.71	1495.27
533.07	1511.61
533.42	1527.50
533.78	1543.66
534.14	1559.95
534.50	1575.29
534.86	1591.27
535.21	1606.53
535.57	1622.56
535.93	1637.95
536.29	1652.76
536.65	1667.84
537.00	1682.78
537.36	1698.07
537.72	1712.61
538.08	1727.03
538.44	1741.03
538.79	1754.91
539.15	1768.70
539.51	1782.51
539.87	1796.91
540.22	1810.73
540.58	1824.53
540.94	1837.97
541.29	1850.94
541.65	1863.68
542.01	1876.83
542.37	1889.18
542.72	1901.68
543.08	1913.50
543.44	1925.90
543.79	1937.27
544.15	1948.35
544.51	1959.72
544.87	1970.72
545.22	1981.58
545.58	1991.79
545.94	2001.55
546.29	2011.53
546.65	2021.30
547.01	2030.44
547.36	2039.00
547.72	2047.56
548.07	2055.35
548.43	2063.46
548.79	2071.43
549.14	2078.91
549.50	2086.35
549.86	2094.09
550.21	2101.27
550.57	2108.46
550.92	2115.01
551.28	2121.95
551.64	2128.90
551.99	2135.54
552.35	2141.67
552.70	2147.57
553.06	2153.61
553.41	2159.75
553.77	2165.72
554.13	2171.68
554.48	2177.74
554.84	2183.12
555.19	2188.22
555.55	2193.38
555.90	2197.78
556.26	2202.56
556.61	2207.23
556.97	2211.29
557.32	2215.21
557.68	2219.25
558.03	2223.27
558.39	2226.91
558.74	2231.38
559.10	2235.15
559.45	2238.55
559.81	2242.82
560.16	2246.56
560.52	2249.45
560.87	2252.82
561.23	2255.19
561.58	2257.99
561.94	2260.33
562.29	2262.71
562.64	2265.23
563.00	2267.61
563.35	2271.01
563.71	2273.88
564.06	2276.84
564.42	2279.67
564.77	2281.97
565.12	2284.03
565.48	2285.78
565.83	2287.35
566.19	2288.33
566.54	2289.11
566.89	2290.22
567.25	2290.50
567.60	2291.73
567.96	2293.32
568.31	2293.97
568.66	2294.77
569.02	2295.11
569.37	2295.26
569.72	2295.76
570.08	2295.64
570.43	2295.46
570.78	2294.36
571.14	2292.61
571.49	2291.08
571.84	2290.44
572.20	2288.98
572.55	2287.70
572.90	2285.80
573.26	2284.20
573.61	2282.42
573.96	2280.29
574.31	2277.07
574.67	2273.70
575.02	2269.63
575.37	2265.91
575.72	2261.73
576.08	2258.19
576.43	2254.59
576.78	2250.70
577.13	2247.20
577.49	2243.92
577.84	2240.22
578.19	2236.46
578.54	2232.65
578.90	2228.23
579.25	2222.49
579.60	2217.49
579.95	2212.27
580.30	2207.15
580.66	2201.80
581.01	2196.52
581.36	2191.42
581.71	2187.06
582.06	2182.62
582.42	2178.10
582.77	2172.71
583.12	2167.88
583.47	2163.06
583.82	2157.98
584.17	2152.62
584.53	2147.03
584.88	2141.30
585.23	2135.22
585.58	2129.56
585.93	2123.78
586.28	2118.77
586.63	2113.51
586.98	2108.31
587.34	2103.49
587.69	2098.45
588.04	2093.21
588.39	2087.42
588.74	2080.79
589.09	2074.43
589.44	2067.42
589.79	2061.16
590.14	2055.36
590.49	2048.75
590.84	2042.07
591.19	2035.81
591.54	2029.24
591.89	2021.63
592.25	2014.63
592.60	2007.38
592.95	1999.61
593.30	1992.38
593.65	1984.63
594.00	1977.40
594.35	1969.87
594.70	1961.64
595.05	1954.39
595.40	1947.02
595.75	1939.44
596.10	1933.04
596.45	1926.08
596.80	1919.77
597.15	1913.09
597.50	1906.04
597.85	1899.52
598.19	1892.91
598.54	1885.89
598.89	1879.20
599.24	1873.28
599.59	1866.55
599.94	1860.31
600.29	1854.02
600.64	1847.32
600.99	1839.89
601.34	1833.18
601.69	1826.32
602.04	1819.49
602.39	1812.09
602.74	1805.23
603.08	1798.59
603.43	1791.94
603.78	1784.72
604.13	1777.57
604.48	1770.22
604.83	1763.31
605.18	1756.39
605.53	1748.52
605.87	1740.50
606.22	1733.25
606.57	1725.46
606.92	1718.17
607.27	1710.95
607.62	1704.10
607.96	1696.87
608.31	1690.28
608.66	1682.62
609.01	1675.05
609.36	1667.79
609.70	1659.98
610.05	1651.95
610.40	1644.41
610.75	1636.18
611.10	1628.56
611.44	1620.29
611.79	1612.49
612.14	1603.82
612.49	1594.92
612.83	1586.62
613.18	1578.50
613.53	1570.44
613.88	1562.09
614.22	1553.93
614.57	1545.56
614.92	1537.71
615.27	1530.32
615.61	1522.10
615.96	1514.24
616.31	1506.78
616.65	1499.29
617.00	1491.70
617.35	1484.02
617.70	1475.70
618.04	1467.11
618.39	1459.09
618.74	1451.54
619.08	1443.44
619.43	1436.11
619.78	1429.20
620.12	1422.21
620.47	1414.84
620.82	1406.89
621.16	1399.51
621.51	1392.02
621.85	1384.51
622.20	1376.01
622.55	1367.73
622.89	1360.08
623.24	1352.62
623.59	1345.27
623.93	1337.82
624.28	1330.73
624.62	1323.52
624.97	1316.40
625.32	1309.90
625.66	1302.97
626.01	1295.97
626.35	1288.65
626.70	1280.94
627.04	1273.36
627.39	1265.59
627.73	1258.30
628.08	1251.47
628.43	1244.20
628.77	1236.96
629.12	1229.43
629.46	1222.31
629.81	1214.95
630.15	1207.90
630.50	1200.60
630.84	1192.51
631.19	1184.79
631.53	1177.36
631.88	1169.84
632.22	1162.40
632.57	1155.21
632.91	1147.82
633.26	1140.50
633.60	1133.17
633.95	1126.28
634.29	1119.29
634.64	1112.67
634.98	1105.50
635.32	1098.50
635.67	1092.14
636.01	1085.60
636.36	1078.90
636.70	1072.56
637.05	1066.10
637.39	1059.82
637.73	1053.48
638.08	1047.80
638.42	1041.91
638.77	1035.60
639.11	1029.06
639.45	1022.71
639.80	1016.22
640.14	1009.83
640.49	1003.33
640.83	997.17
641.17	990.94
641.52	984.71
641.86	978.33
642.20	972.55
642.55	966.30
642.89	959.84
643.23	953.40
643.58	947.75
643.92	941.60
644.26	935.63
644.61	929.53
644.95	923.49
645.29	916.97
645.64	910.24
645.98	904.03
646.32	898.32
646.66	892.37
647.01	886.65
647.35	881.09
647.69	875.29
648.04	869.72
648.38	864.05
648.72	858.08
649.06	852.18
649.41	846.33
649.75	840.32
650.09	834.47
650.43	828.74
650.78	822.63
651.12	816.76
651.46	811.09
651.80	805.44
652.14	800.13
652.49	794.76
652.83	789.64
653.17	783.99
653.51	778.38
653.85	773.01
654.20	767.38
654.54	761.37
654.88	755.80
655.22	750.06
655.56	744.39
655.90	739.06
656.25	733.85
656.59	728.56
656.93	723.64
657.27	718.53
657.61	713.14
657.95	708.12
658.29	703.05
658.64	697.89
658.98	692.59
659.32	687.21
659.66	682.13
660.00	676.93
660.34	672.01
660.68	667.18
661.02	662.23
661.36	657.60
661.70	653.20
662.05	648.80
662.39	644.55
662.73	640.14
663.07	635.80
663.41	631.42
663.75	627.04
664.09	622.58
664.43	618.21
664.77	614.16
665.11	609.91
665.45	605.92
665.79	601.93
666.13	597.92
666.47	593.87
666.81	589.73
667.15	585.76
667.49	581.89
667.83	578.02
668.17	574.16
668.51	570.19
668.85	566.26
669.19	562.50
669.53	558.69
669.87	554.96
670.21	551.28
670.55	547.69
670.89	544.28
671.23	540.86
671.57	537.44
671.91	533.94
672.25	530.54
672.58	527.12
672.92	523.76
673.26	520.65
673.60	517.55
673.94	514.47
674.28	511.56
674.62	508.69
674.96	505.65
675.30	502.81
675.64	499.95
675.97	497.23
676.31	494.40
676.65	491.48
676.99	488.81
677.33	486.05
677.67	483.27
678.01	480.22
678.34	477.32
678.68	474.53
679.02	471.78
679.36	469.06
679.70	466.33
680.04	463.56
680.37	460.78
680.71	458.01
681.05	455.45
681.39	452.76
681.73	450.11
682.06	447.60
682.40	445.10
682.74	442.60
683.08	440.07
683.42	437.54
683.75	435.13
684.09	432.56
684.43	430.11
684.77	427.71
685.10	425.45
685.44	423.15
685.78	420.86
686.12	418.67
686.45	416.44
686.79	414.18
687.13	412.06
687.46	409.89
687.80	407.75
688.14	405.58
688.48	403.61
688.81	401.39
689.15	399.27
689.49	397.10
689.82	395.01
690.16	392.92
690.50	390.98
690.83	389.05
691.17	387.12
691.51	385.21
691.84	383.37
692.18	381.44
692.52	379.49
692.85	377.57
693.19	375.72
693.52	373.89
693.86	372.09
694.20	370.32
694.53	368.53
694.87	366.72
695.21	364.96
695.54	363.15
695.88	361.48
696.21	359.76
696.55	358.12
696.88	356.50
697.22	354.88
697.56	353.30
697.89	351.71
698.23	350.14
698.56	348.57
698.90	347.01
699.23	345.40
699.57	343.86
699.90	342.33
700.24	340.81
700.58	339.30
700.91	337.85
701.25	336.39
701.58	335.06
701.92	333.73
702.25	332.38
702.59	330.99
702.92	329.71
703.26	328.46
703.59	327.21
703.93	326.01
704.26	324.78
704.60	323.51
704.93	322.25
705.26	321.02
705.60	319.85
705.93	318.68
706.27	317.67
706.60	316.68
706.94	315.62
707.27	314.52
707.61	313.48
707.94	312.44
708.27	311.40
708.61	310.34
708.94	309.33
709.28	308.36
709.61	307.42
709.94	306.49
710.28	305.51
710.61	304.53
710.95	303.49
711.28	302.62
711.61	301.71
711.95	300.80
712.28	299.86
712.61	298.92
712.95	298.02
713.28	297.15
713.61	296.26
713.95	295.39
714.28	294.55
714.61	293.71
714.95	292.88
715.28	292.04
715.61	291.18
715.95	290.38
716.28	289.51
716.61	288.69
716.95	287.88
717.28	287.12
717.61	286.38
717.94	285.65
718.28	284.84
718.61	284.12
718.94	283.44
719.27	282.81
719.61	282.17
719.94	281.52
720.27	280.78
720.60	280.11
720.94	279.47
721.27	278.88
721.60	278.27
721.93	277.71
722.27	277.20
722.60	276.66
722.93	276.07
723.26	275.57
723.59	275.04
723.93	274.50
724.26	273.97
724.59	273.45
724.92	272.92
725.25	272.45
725.59	271.97
725.92	271.47
726.25	270.94
726.58	270.46
726.91	269.99
727.24	269.55
727.57	269.06
727.91	268.59
728.24	268.13
728.57	267.64
728.90	267.19
729.23	266.67
729.56	266.25
729.89	265.83
730.22	265.37
730.55	264.86
730.89	264.43
731.22	264.00
731.55	263.55
731.88	263.14
732.21	262.70
732.54	262.22
732.87	261.80
733.20	261.42
733.53	261.03
733.86	260.67
734.19	260.26
734.52	259.93
734.85	259.60
735.18	259.21
735.51	258.92
735.84	258.57
736.17	258.22
736.50	257.79
736.83	257.54
737.16	257.21
737.49	256.93
737.82	256.57
738.15	256.25
738.48	255.90
738.81	255.59
739.14	255.26
739.47	254.98
739.80	254.69
740.13	254.38
740.46	254.05
740.79	253.72
741.12	253.46
741.45	253.14
741.78	252.81
742.11	252.56
742.44	252.22
742.77	251.90
743.10	251.62
743.43	251.36
743.75	250.99
744.08	250.83
744.41	250.55
744.74	250.28
745.07	250.01
745.40	249.81
745.73	249.57
746.06	249.31
746.39	249.06
746.71	248.77
747.04	248.52
747.37	248.27
747.70	248.03
748.03	247.76
748.36	247.56
748.68	247.34
749.01	247.07
749.34	246.81
749.67	246.60
750.00	246.39
750.33	246.24
750.65	246.00
750.98	245.66
751.31	245.42
751.64	245.24
751.97	245.08
752.29	244.81
752.62	244.55
752.95	244.35
753.28	244.11
753.60	243.88
753.93	243.68
754.26	243.48
754.59	243.24
754.91	243.04
755.24	242.82
755.57	242.63
755.90	242.44
756.22	242.25
756.55	242.07
756.88	241.84
757.20	241.60
757.53	241.43
757.86	241.29
758.19	241.14
758.51	240.97
758.84	240.74
759.17	240.58
759.49	240.48
759.82	240.33
760.15	240.20
760.47	240.10
760.80	239.92
761.13	239.79
761.45	239.63
761.78	239.49
762.11	239.38
762.43	239.21
762.76	239.10
763.08	238.97
763.41	238.82
763.74	238.70
764.06	238.56
764.39	238.41
764.71	238.27
765.04	238.11
765.37	237.94
765.69	237.79
766.02	237.69
766.34	237.51
766.67	237.36
767.00	237.27
767.32	237.20
767.65	237.16
767.97	237.04
768.30	236.94
768.62	236.79
768.95	236.62
769.27	236.50
769.60	236.36
769.92	236.25
770.25	236.14
770.57	236.02
770.90	235.93
771.22	235.82
771.55	235.72
771.87	235.66
772.20	235.57
772.52	235.57
772.85	235.59
773.17	235.50
773.50	235.38
773.82	235.30
774.15	235.12
774.47	234.97
774.80	234.85
775.12	234.81
775.45	234.75
775.77	234.68
776.09	234.59
776.42	234.50
776.74	234.46
777.07	234.36
777.39	234.28
777.72	234.20
778.04	234.15
778.36	234.06
778.69	234.00
779.01	233.95
779.33	233.83
779.66	233.62
779.98	233.58
780.31	233.54
780.63	233.47
780.95	233.40
781.28	233.33
781.60	233.27
781.92	233.19
782.25	233.12
782.57	233.07
782.89	233.04
783.22	232.96
783.54	232.84
783.86	232.83
784.19	232.78
784.51	232.72
784.83	232.66
785.16	232.61
785.48	232.56
785.80	232.49
786.12	232.43
786.45	232.44
786.77	232.37
787.09	232.36
787.42	232.32
787.74	232.31
788.06	232.32
788.38	232.33
788.71	232.28
789.03	232.26
789.35	232.25
789.67	232.21
789.99	232.20
790.32	232.18
790.64	232.13
790.96	232.17
791.28	232.15
791.61	232.12
791.93	232.11
792.25	232.09
792.57	232.13
792.89	232.08
793.21	232.03
793.54	231.99
793.86	231.92
794.18	231.87
794.50	231.81
794.82	231.75
795.14	231.71
795.47	231.68
795.79	231.65
796.11	231.61
796.43	231.57
796.75	231.55
797.07	231.53
797.39	231.48
797.71	231.38
798.04	231.32
798.36	231.28
798.68	231.22
799.00	231.18
799.32	231.10
799.64	231.06
799.96	231.00
800.28	230.97
800.60	230.94
800.92	230.95
801.24	230.91
801.56	230.90
801.89	230.83
802.21	230.81
802.53	230.77
802.85	230.77
803.17	230.80
803.49	230.75
803.81	230.74
804.13	230.70
804.45	230.69
804.77	230.65
805.09	230.64
805.41	230.60
805.73	230.52
806.05	230.47
806.37	230.46
806.69	230.45
807.01	230.44
807.33	230.40
807.65	230.35
807.97	230.38
808.28	230.33
808.60	230.34
808.92	230.28
809.24	230.27
809.56	230.21
809.88	230.13
810.20	230.10
810.52	230.08
810.84	230.05
811.16	230.00
811.48	229.98
811.80	229.99
812.12	229.97
812.43	229.97
812.75	229.96
813.07	229.92
813.39	229.90
813.71	229.86
814.03	229.84
814.35	229.80
814.67	229.73
814.98	229.71
815.30	229.70
815.62	229.66
815.94	229.60
816.26	229.60
816.58	229.57
816.89	229.58
817.21	229.56
817.53	229.58
817.85	229.55
818.17	229.53
818.48	229.47
818.80	229.46
819.12	229.43
819.44	229.39
819.76	229.37
820.07	229.34
820.39	229.30
820.71	229.29
821.03	229.26
821.34	229.25
821.66	229.22
821.98	229.17
822.30	229.16
822.61	229.20
822.93	229.15
823.25	229.13
823.57	229.08
823.88	229.06
824.20	229.03
824.52	229.05
824.83	229.05
825.15	229.04
825.47	229.00
825.79	229.00
826.10	229.00
826.42	229.01
826.74	229.02
827.05	229.02
827.37	229.01
827.69	228.97
828.00	228.94
828.32	228.94
828.64	228.93
828.95	229.00
829.27	228.97
829.58	228.95
829.90	228.95
830.22	228.94
830.53	228.88
830.85	228.85
831.17	228.78
831.48	228.77
831.80	228.78
832.11	228.79
832.43	228.76
832.75	228.75
833.06	228.78
833.38	228.74
833.69	228.71
834.01	228.71
834.32	228.73
834.64	228.74
834.96	228.74
835.27	228.76
835.59	228.70
835.90	228.68
836.22	228.66
836.53	228.66
836.85	228.69
837.16	228.82
837.48	228.85
837.79	228.88
838.11	228.89
838.42	228.86
838.74	228.89
839.05	228.86
839.37	228.86
839.68	228.80
840.00	228.79
840.31	228.81
840.63	228.77
840.94	228.76
841.26	228.76
841.57	228.76
841.88	228.75
842.20	228.74
842.51	228.74
842.83	228.75
843.14	228.81
843.46	228.78
843.77	228.69
844.08	228.62
844.40	228.57
844.71	228.53
845.03	228.53
845.34	228.50
845.65	228.50
845.97	228.49
846.28	228.48
846.60	228.50
846.91	228.49
847.22	228.48
847.54	228.50
847.85	228.49
848.16	228.49
848.48	228.45
848.79	228.49
849.10	228.48
849.42	228.47
849.73	228.38
850.04	228.36
850.36	228.32
850.67	228.36
850.98	228.37
851.30	228.36
851.61	228.34
851.92	228.34
852.23	228.35
852.55	228.35
852.86	228.36
853.17	228.35
853.49	228.35
853.80	228.34
854.11	228.34
854.42	228.31
854.74	228.27
855.05	228.27
855.36	228.22
855.67	228.21
855.99	228.19
856.30	228.30
856.61	228.26
856.92	228.27
857.23	228.28
857.55	228.25
857.86	228.27
858.17	228.28
858.48	228.25
858.79	228.21
859.11	228.20
859.42	228.18
859.73	228.16
860.04	228.14
860.35	228.15
860.66	228.09
860.98	228.09
861.29	228.06
861.60	228.06
861.91	228.08
862.22	228.06
862.53	228.05
862.84	227.93
863.16	227.98
863.47	227.94
863.78	227.92
864.09	227.95
864.40	227.95
864.71	227.96
865.02	227.94
865.33	227.93
865.64	227.92
865.95	227.93
866.27	227.98
866.58	228.02
866.89	228.01
867.20	228.02
867.51	228.02
867.82	228.05
868.13	228.06
868.44	228.03
868.75	228.05
869.06	228.08
869.37	228.08
869.68	228.05
869.99	228.10
870.30	228.10
870.61	228.12
870.92	228.10
871.23	228.11
871.54	228.11
871.85	228.14
872.16	228.15
872.47	228.14
872.78	228.11
873.09	228.10
873.40	228.12
873.71	228.11
874.02	228.12
874.33	228.11
874.64	228.07
874.95	228.09
875.26	228.09
875.56	228.05
875.87	228.07
876.18	228.08
876.49	228.17
876.80	228.14
877.11	228.11
877.42	228.09
877.73	228.07
878.04	228.05
878.35	228.07
878.66	228.07
878.96	228.10
879.27	228.06
879.58	228.06
879.89	228.07
880.20	228.11
880.51	228.10
880.82	228.10
881.12	228.14
881.43	228.14
881.74	228.12
882.05	228.12
882.36	228.15
882.67	228.12
882.97	228.01
883.28	228.02
883.59	228.00
883.90	228.03
884.21	228.04
884.51	228.07
884.82	228.05
885.13	228.06
885.44	228.04
885.74	228.05
886.05	228.05
886.36	228.02
886.67	227.99
886.98	228.05
887.28	228.09
887.59	228.07
887.90	228.04
888.20	228.04
888.51	228.07
888.82	228.02
889.13	228.03
889.43	228.09
889.74	228.10
890.05	228.08
890.35	228.08
890.66	228.08
890.97	228.07
891.28	228.07
891.58	228.04
891.89	228.04
892.20	228.05
892.50	228.03
892.81	228.02
893.12	227.99
893.42	227.95
893.73	227.90
894.04	227.89
894.34	227.90
894.65	227.88
894.95	227.83
895.26	227.85
895.57	227.90
895.87	227.84
896.18	227.83
896.48	227.88
896.79	227.87
897.10	227.86
897.40	227.88
897.71	227.88
898.01	227.89
898.32	227.88
898.63	227.90
898.93	227.91
899.24	227.92
899.54	227.94
899.85	227.93
900.15	227.96
900.46	227.93
900.76	227.94
901.07	227.94
901.38	227.97
901.68	228.00
901.99	227.93
902.29	227.95
902.60	227.94
902.90	227.92
903.21	227.90
903.51	227.91
903.82	227.92
904.12	227.93
904.43	227.96
904.73	227.99
905.03	227.99
905.34	228.07
905.64	228.09
905.95	228.10
906.25	228.07
906.56	228.08
906.86	228.13
907.17	228.12
907.47	228.12
907.77	228.14
908.08	228.09
908.38	228.11
908.69	228.09
908.99	228.14
909.30	228.15
909.60	228.18
909.90	228.18
910.21	228.17
910.51	228.16
910.81	228.12
911.12	228.11
911.42	228.09
911.73	228.00
912.03	227.98
912.33	228.00
912.64	228.02
912.94	228.00
913.24	227.97
913.55	227.99
913.85	228.03
914.15	228.01
914.46	228.00
914.76	227.99
915.06	227.99
915.37	227.96
915.67	227.97
915.97	227.91
916.27	227.89
916.58	227.88
916.88	227.90
917.18	227.93
917.49	227.97
917.79	227.97
918.09	228.01
918.39	228.00
918.70	227.99
919.00	228.00
919.30	228.05
919.60	228.04
919.91	228.00
920.21	227.99
920.51	227.95
920.81	227.99
921.12	227.99
921.42	227.99
921.72	228.01
922.02	227.99
922.32	228.04
922.63	228.06
922.93	228.13
923.23	228.08
923.53	228.05
923.83	228.02
924.13	228.01
924.44	228.03
924.74	228.07
925.04	228.10
925.34	228.05
925.64	228.00
925.94	227.99
926.24	228.04
926.55	228.01
926.85	228.03
927.15	228.00
927.45	228.00
927.75	227.97
928.05	227.92
928.35	227.92
928.65	227.92
928.95	227.88
929.26	227.82
929.56	227.84
929.86	227.85
930.16	227.82
930.46	227.78
930.76	227.71
931.06	227.63
931.36	227.58
931.66	227.60
931.96	227.61
932.26	227.62
932.56	227.56
932.86	227.58
933.16	227.59
933.46	227.56
933.76	227.56
934.06	227.58
934.36	227.60
934.66	227.61
934.96	227.58
935.26	227.60
935.56	227.60
935.86	227.58
936.16	227.54
936.46	227.55
936.76	227.56
937.06	227.58
937.36	227.61
937.66	227.61
937.96	227.60
938.26	227.56
938.56	227.57
938.86	227.58
939.16	227.59
939.46	227.59
939.76	227.62
940.06	227.61
940.35	227.59
940.65	227.56
940.95	227.57
941.25	227.56
941.55	227.53
941.85	227.52
942.15	227.53
942.45	227.55
942.75	227.53
943.04	227.54
943.34	227.53
943.64	227.52
943.94	227.49
944.24	227.51
944.54	227.51
944.84	227.48
945.13	227.48
945.43	227.43
945.73	227.43
946.03	227.43
946.33	227.42
946.62	227.44
946.92	227.42
947.22	227.42
947.52	227.44
947.82	227.45
948.11	227.45
948.41	227.45
948.71	227.44
949.01	227.46
949.31	227.47
949.60	227.48
949.90	227.50
950.20	227.54
950.50	227.54
950.79	227.56
951.09	227.59
951.39	227.60
951.69	227.62
951.98	227.65
952.28	227.66
952.58	227.68
952.87	227.67
953.17	227.70
953.47	227.70
953.76	227.71
954.06	227.73
954.36	227.74
954.66	227.76
954.95	227.80
955.25	227.80
955.55	227.81
955.84	227.80
956.14	227.85
956.44	227.84
956.73	227.84
957.03	227.84
957.32	227.85
957.62	227.86
957.92	227.91
958.21	227.92
958.51	228.02
958.81	228.02
959.10	228.04
959.40	228.09
959.69	228.11
959.99	228.13
960.29	228.11
960.58	228.09
960.88	228.11
961.17	228.09
961.47	228.09
961.76	228.07
962.06	228.07
962.36	228.00
962.65	227.99
962.95	227.98
963.24	227.96
963.54	227.94
963.83	227.91
964.13	227.89
964.42	227.83
964.72	227.75
965.01	227.73
965.31	227.73
965.60	227.68
965.90	227.72
966.19	227.67
966.49	227.64
966.78	227.62
967.08	227.63
967.37	227.61
967.67	227.62
967.96	227.63
968.26	227.63
968.55	227.67
968.85	227.69
969.14	227.66
969.43	227.65
969.73	227.64
970.02	227.65
970.32	227.61
970.61	227.58
970.91	227.57
971.20	227.54
971.49	227.51
971.79	227.52
972.08	227.44
972.38	227.44
972.67	227.44
972.96	227.48
973.26	227.42
973.55	227.44
973.85	227.41
974.14	227.38
974.43	227.40
974.73	227.37
975.02	227.34
975.31	227.36
975.61	227.36
975.90	227.33
976.19	227.34
976.49	227.37
976.78	227.42
977.07	227.42
977.37	227.43
977.66	227.44
977.95	227.40
978.24	227.40
978.54	227.45
978.83	227.44
979.12	227.42
979.42	227.46
979.71	227.42
980.00	227.41
980.29	227.44
980.59	227.38
980.88	227.37
981.17	227.37
981.46	227.37
981.76	227.39
982.05	227.41
982.34	227.41
982.63	227.38
982.93	227.39
983.22	227.42
983.51	227.42
983.80	227.43
984.09	227.45
984.39	227.47
984.68	227.43
984.97	227.44
985.26	227.42
985.55	227.44
985.85	227.44
986.14	227.47
986.43	227.46
986.72	227.48
987.01	227.48
987.30	227.50
987.59	227.49
987.89	227.48
988.18	227.49
988.47	227.48
988.76	227.50
989.05	227.49
989.34	227.47
989.63	227.50
989.92	227.49
990.22	227.47
990.51	227.45
990.80	227.46
991.09	227.50
991.38	227.51
991.67	227.49
991.96	227.48
992.25	227.51
992.54	227.51
992.83	227.51
993.12	227.51
993.41	227.51
993.70	227.55
993.99	227.59
994.28	227.58
994.58	227.59
994.87	227.58
995.16	227.58
995.45	227.58
995.74	227.59
996.03	227.62
996.32	227.66
996.61	227.69
996.90	227.70
997.19	227.68
997.48	227.69
997.77	227.68
998.06	227.68
998.34	227.63
998.63	227.63
998.92	227.66
999.21	227.68
999.50	227.69
999.79	227.68
1000.08	227.67
1000.37	227.67
1000.66	227.69
1000.95	227.69
1001.24	227.69
1001.53	227.69
1001.82	227.64
1002.11	227.64
1002.40	227.63
1002.68	227.65
1002.97	227.72
1003.26	227.71
1003.55	227.71
1003.84	227.73
1004.13	227.79
1004.42	227.83
1004.71	227.84
1004.99	227.83
1005.28	227.84
1005.57	227.85
1005.86	227.82
1006.15	227.82
1006.44	227.80
1006.72	227.81
1007.01	227.82
1007.30	227.83
1007.59	227.83
1007.88	227.88
1008.17	227.85
1008.45	227.83
1008.74	227.80
1009.03	227.72
1009.32	227.71
1009.60	227.69
1009.89	227.67
1010.18	227.63
1010.47	227.60
1010.76	227.59
1011.04	227.57
1011.33	227.59
1011.62	227.55
1011.91	227.57
1012.19	227.58
1012.48	227.59
1012.77	227.58
1013.05	227.60
1013.34	227.61
1013.63	227.60
1013.92	227.58
1014.20	227.59
1014.49	227.60
1014.78	227.60
1015.06	227.60
1015.35	227.60
1015.64	227.64
1015.92	227.66
1016.21	227.64
1016.50	227.65
1016.78	227.66
1017.07	227.67
1017.36	227.62
1017.64	227.62
1017.93	227.63
1018.22	227.60
1018.50	227.57
1018.79	227.58
1019.08	227.53
1019.36	227.52
1019.65	227.49
1019.93	227.50
1020.22	227.50
1020.51	227.53
1020.79	227.51
1021.08	227.17
1021.36	226.94
1021.65	227.88
1021.94	227.37
1022.22	227.51
1022.51	226.82
1022.79	228.07
1023.08	227.54
1023.36	228.23
1023.65	227.35
>>>>>End Processed Spectral Data<<<<<
