SpectraSuite Data File
++++++++++++++++++++++++++++++++++++
Date: Fri Feb 01 15:11:42 EST 2013
User: group
Dark Spectrum Present: No
Reference Spectrum Present: No
Number of Sampled Component Spectra: 1
Spectrometers: USB2E7196
Integration Time (usec): 35000 (USB2E7196)
Spectra Averaged: 100 (USB2E7196)
Boxcar Smoothing: 10 (USB2E7196)
Correct for Electrical Dark: No (USB2E7196)
Strobe/Lamp Enabled: No (USB2E7196)
Correct for Detector Non-linearity: No (USB2E7196)
Correct for Stray Light: No (USB2E7196)
Number of Pixels in Processed Spectrum: 2048
>>>>>Begin Processed Spectral Data<<<<<
339.09	0.00
339.48	214.87
339.86	215.88
340.24	217.96
340.63	219.42
341.01	222.10
341.39	221.69
341.78	222.94
342.16	224.19
342.54	225.36
342.93	213.21
343.31	223.99
343.69	224.54
344.07	225.06
344.46	225.46
344.84	225.81
345.22	226.02
345.60	226.29
345.99	226.47
346.37	226.61
346.75	226.71
347.13	226.78
347.52	226.86
347.90	226.91
348.28	226.98
348.66	227.01
349.05	227.02
349.43	227.05
349.81	227.10
350.19	227.16
350.57	227.19
350.96	227.28
351.34	227.37
351.72	227.45
352.10	227.52
352.48	227.60
352.87	227.65
353.25	227.73
353.63	227.80
354.01	227.88
354.39	227.97
354.77	228.05
355.15	228.15
355.54	228.19
355.92	228.23
356.30	228.31
356.68	228.46
357.06	228.51
357.44	228.60
357.82	228.67
358.20	228.74
358.58	228.82
358.97	228.89
359.35	228.94
359.73	229.03
360.11	229.09
360.49	229.16
360.87	229.23
361.25	229.30
361.63	229.34
362.01	229.39
362.39	229.40
362.77	229.42
363.15	229.44
363.53	229.48
363.91	229.50
364.29	229.55
364.67	229.47
365.05	229.47
365.43	229.45
365.81	229.42
366.19	229.47
366.57	229.49
366.95	229.51
367.33	229.49
367.71	229.49
368.09	229.48
368.47	229.45
368.85	229.41
369.23	229.42
369.61	229.38
369.99	229.40
370.37	229.37
370.75	229.38
371.13	229.32
371.51	229.24
371.89	229.23
372.27	229.14
372.65	229.07
373.03	229.04
373.41	229.03
373.78	228.97
374.16	228.86
374.54	228.78
374.92	228.69
375.30	228.65
375.68	228.50
376.06	228.44
376.44	228.35
376.82	228.28
377.19	228.18
377.57	228.11
377.95	228.00
378.33	227.94
378.71	227.80
379.09	227.70
379.47	227.69
379.84	227.61
380.22	227.55
380.60	227.47
380.98	227.41
381.36	227.31
381.73	227.26
382.11	227.21
382.49	227.15
382.87	227.07
383.25	226.98
383.62	227.06
384.00	226.97
384.38	226.94
384.76	226.86
385.13	226.86
385.51	226.78
385.89	226.70
386.27	226.64
386.64	226.59
387.02	226.54
387.40	226.46
387.78	226.44
388.15	226.41
388.53	226.39
388.91	226.36
389.29	226.29
389.66	226.26
390.04	226.21
390.42	226.17
390.79	226.16
391.17	226.15
391.55	226.01
391.92	226.02
392.30	226.03
392.68	226.03
393.05	225.99
393.43	226.01
393.81	226.03
394.18	226.01
394.56	226.03
394.94	226.08
395.31	226.09
395.69	226.12
396.06	226.18
396.44	226.22
396.82	226.25
397.19	226.35
397.57	226.42
397.95	226.50
398.32	226.55
398.70	226.67
399.07	226.78
399.45	226.84
399.82	226.89
400.20	226.93
400.58	227.04
400.95	227.13
401.33	227.21
401.70	227.37
402.08	227.49
402.45	227.59
402.83	227.70
403.20	227.83
403.58	227.95
403.95	228.05
404.33	228.18
404.71	228.30
405.08	228.47
405.46	228.60
405.83	228.76
406.21	228.93
406.58	229.04
406.96	229.20
407.33	229.37
407.70	229.57
408.08	229.88
408.45	230.13
408.83	230.35
409.20	230.58
409.58	230.78
409.95	231.05
410.33	231.35
410.70	231.61
411.08	231.93
411.45	232.23
411.82	232.54
412.20	232.89
412.57	233.28
412.95	233.61
413.32	234.04
413.69	234.44
414.07	234.87
414.44	235.33
414.82	235.77
415.19	236.34
415.56	236.93
415.94	237.46
416.31	238.09
416.68	238.69
417.06	239.42
417.43	240.11
417.81	240.86
418.18	241.68
418.55	242.50
418.93	243.36
419.30	244.27
419.67	245.24
420.04	246.21
420.42	247.24
420.79	248.44
421.16	249.59
421.54	250.79
421.91	251.98
422.28	253.27
422.66	254.63
423.03	255.93
423.40	257.26
423.77	258.67
424.15	260.07
424.52	261.59
424.89	263.21
425.26	264.76
425.64	266.20
426.01	267.77
426.38	269.39
426.75	271.07
427.13	272.80
427.50	274.62
427.87	276.51
428.24	278.36
428.61	280.11
428.99	282.04
429.36	284.17
429.73	286.25
430.10	288.28
430.47	290.34
430.85	292.45
431.22	294.71
431.59	297.09
431.96	299.37
432.33	301.89
432.70	304.26
433.08	307.09
433.45	309.79
433.82	312.40
434.19	315.37
434.56	318.20
434.93	320.81
435.30	323.42
435.68	326.29
436.05	329.13
436.42	331.92
436.79	334.47
437.16	337.13
437.53	339.98
437.90	342.81
438.27	345.56
438.64	348.42
439.01	351.00
439.38	353.31
439.75	355.48
440.13	357.95
440.50	360.26
440.87	362.13
441.24	364.10
441.61	366.27
441.98	367.77
442.35	369.56
442.72	371.46
443.09	373.28
443.46	374.28
443.83	374.90
444.20	375.40
444.57	376.24
444.94	376.55
445.31	376.90
445.68	377.28
446.05	377.37
446.42	376.99
446.79	376.55
447.16	376.04
447.53	375.72
447.90	374.54
448.27	373.41
448.64	371.81
449.01	370.61
449.37	368.67
449.74	366.73
450.11	364.48
450.48	361.98
450.85	359.46
451.22	357.31
451.59	355.26
451.96	353.33
452.33	350.72
452.70	348.39
453.07	345.57
453.43	342.62
453.80	339.86
454.17	337.15
454.54	334.62
454.91	331.90
455.28	329.21
455.65	326.71
456.02	324.23
456.38	322.11
456.75	319.48
457.12	317.20
457.49	314.96
457.86	312.79
458.23	310.96
458.59	308.89
458.96	306.80
459.33	304.97
459.70	303.06
460.07	301.54
460.43	299.79
460.80	298.16
461.17	296.70
461.54	295.24
461.91	293.84
462.27	292.39
462.64	291.16
463.01	289.79
463.38	288.56
463.74	287.22
464.11	286.01
464.48	285.00
464.85	283.89
465.21	283.06
465.58	282.15
465.95	281.03
466.32	280.15
466.68	279.25
467.05	278.33
467.42	277.45
467.78	276.52
468.15	275.62
468.52	274.96
468.88	274.13
469.25	273.31
469.62	272.65
469.98	272.00
470.35	271.34
470.72	270.74
471.08	270.03
471.45	269.47
471.82	268.88
472.18	268.22
472.55	267.77
472.92	267.21
473.28	266.74
473.65	266.30
474.02	265.80
474.38	265.40
474.75	265.06
475.11	264.70
475.48	264.42
475.85	264.19
476.21	263.92
476.58	263.69
476.94	263.48
477.31	263.32
477.67	263.13
478.04	263.01
478.41	262.90
478.77	262.94
479.14	262.87
479.50	262.87
479.87	262.97
480.23	263.00
480.60	263.08
480.96	263.14
481.33	263.36
481.69	263.55
482.06	263.74
482.42	263.93
482.79	264.14
483.15	264.49
483.52	264.88
483.88	265.24
484.25	265.65
484.61	266.09
484.98	266.55
485.34	267.14
485.71	267.73
486.07	268.34
486.44	268.89
486.80	269.59
487.17	270.34
487.53	271.14
487.90	271.99
488.26	272.92
488.62	273.89
488.99	274.83
489.35	275.90
489.72	277.02
490.08	278.21
490.44	279.46
490.81	280.76
491.17	282.07
491.54	283.54
491.90	285.07
492.26	286.73
492.63	288.43
492.99	290.17
493.36	292.03
493.72	294.08
494.08	296.19
494.45	298.42
494.81	300.77
495.17	303.18
495.54	305.73
495.90	308.43
496.26	311.24
496.63	314.21
496.99	317.32
497.35	320.56
497.72	323.99
498.08	327.51
498.44	331.14
498.80	335.10
499.17	339.13
499.53	343.26
499.89	347.62
500.26	352.15
500.62	356.83
500.98	361.79
501.34	366.86
501.71	372.23
502.07	377.65
502.43	383.24
502.79	389.07
503.16	395.11
503.52	401.39
503.88	407.76
504.24	414.40
504.60	421.24
504.97	428.43
505.33	435.72
505.69	443.34
506.05	451.13
506.41	459.02
506.78	467.21
507.14	475.66
507.50	484.37
507.86	493.37
508.22	502.52
508.59	511.65
508.95	521.20
509.31	530.98
509.67	541.09
510.03	551.39
510.39	561.95
510.75	572.87
511.12	583.79
511.48	595.10
511.84	606.52
512.20	618.04
512.56	629.98
512.92	642.19
513.28	654.59
513.64	667.13
514.00	679.79
514.37	692.65
514.73	705.72
515.09	718.81
515.45	732.15
515.81	745.80
516.17	759.85
516.53	774.06
516.89	788.30
517.25	802.49
517.61	816.96
517.97	831.43
518.33	845.84
518.69	860.61
519.05	875.58
519.41	890.72
519.77	906.32
520.13	921.74
520.49	937.11
520.85	952.59
521.21	968.31
521.57	984.57
521.93	1000.48
522.29	1016.95
522.65	1033.24
523.01	1049.38
523.37	1065.47
523.73	1081.65
524.09	1097.69
524.45	1114.02
524.81	1130.59
525.17	1147.48
525.53	1164.42
525.89	1181.38
526.25	1198.20
526.61	1214.76
526.97	1231.66
527.33	1248.16
527.68	1264.84
528.04	1281.43
528.40	1298.21
528.76	1315.35
529.12	1332.04
529.48	1348.90
529.84	1364.96
530.20	1381.55
530.56	1398.73
530.91	1416.18
531.27	1433.10
531.63	1449.70
531.99	1466.23
532.35	1482.36
532.71	1498.31
533.07	1514.67
533.42	1530.58
533.78	1546.74
534.14	1563.03
534.50	1578.41
534.86	1594.36
535.21	1609.53
535.57	1625.66
535.93	1641.15
536.29	1655.99
536.65	1671.15
537.00	1686.17
537.36	1701.53
537.72	1716.32
538.08	1730.84
538.44	1744.74
538.79	1758.73
539.15	1772.48
539.51	1786.47
539.87	1801.05
540.22	1814.79
540.58	1828.64
540.94	1842.17
541.29	1855.19
541.65	1868.02
542.01	1881.26
542.37	1893.63
542.72	1906.19
543.08	1917.90
543.44	1930.33
543.79	1941.68
544.15	1952.65
544.51	1964.20
544.87	1975.26
545.22	1986.05
545.58	1996.22
545.94	2005.98
546.29	2015.94
546.65	2025.82
547.01	2034.91
547.36	2043.61
547.72	2052.16
548.07	2059.96
548.43	2068.18
548.79	2076.37
549.14	2083.85
549.50	2091.46
549.86	2099.26
550.21	2106.68
550.57	2113.73
550.92	2120.35
551.28	2127.33
551.64	2134.43
551.99	2140.94
552.35	2147.03
552.70	2153.18
553.06	2159.24
553.41	2165.64
553.77	2171.63
554.13	2177.69
554.48	2183.96
554.84	2189.26
555.19	2194.65
555.55	2199.78
555.90	2204.18
556.26	2208.97
556.61	2213.74
556.97	2217.75
557.32	2221.84
557.68	2225.90
558.03	2230.25
558.39	2233.98
558.74	2238.65
559.10	2242.54
559.45	2246.14
559.81	2250.51
560.16	2254.09
560.52	2257.11
560.87	2260.48
561.23	2263.04
561.58	2265.98
561.94	2268.44
562.29	2270.92
562.64	2273.57
563.00	2276.21
563.35	2279.69
563.71	2282.68
564.06	2285.77
564.42	2288.60
564.77	2290.98
565.12	2293.08
565.48	2294.93
565.83	2296.62
566.19	2297.80
566.54	2298.62
566.89	2299.71
567.25	2300.17
567.60	2301.68
567.96	2303.49
568.31	2304.14
568.66	2305.13
569.02	2305.68
569.37	2305.84
569.72	2306.58
570.08	2306.46
570.43	2306.34
570.78	2305.45
571.14	2303.86
571.49	2302.48
571.84	2302.07
572.20	2300.76
572.55	2299.65
572.90	2298.02
573.26	2296.56
573.61	2294.77
573.96	2292.78
574.31	2289.66
574.67	2286.61
575.02	2282.89
575.37	2279.21
575.72	2275.35
576.08	2272.01
576.43	2268.55
576.78	2264.88
577.13	2261.53
577.49	2258.51
577.84	2254.89
578.19	2251.28
578.54	2247.45
578.90	2243.05
579.25	2237.39
579.60	2232.29
579.95	2227.23
580.30	2222.13
580.66	2216.90
581.01	2211.89
581.36	2207.00
581.71	2202.73
582.06	2198.09
582.42	2193.38
582.77	2188.11
583.12	2183.52
583.47	2178.57
583.82	2173.38
584.17	2167.94
584.53	2162.29
584.88	2156.48
585.23	2150.61
585.58	2144.98
585.93	2139.50
586.28	2134.77
586.63	2129.65
586.98	2124.55
587.34	2119.81
587.69	2114.87
588.04	2109.49
588.39	2103.72
588.74	2097.30
589.09	2091.08
589.44	2084.19
589.79	2078.11
590.14	2072.48
590.49	2065.77
590.84	2059.33
591.19	2053.28
591.54	2046.80
591.89	2039.26
592.25	2032.22
592.60	2024.99
592.95	2017.19
593.30	2009.84
593.65	2002.05
594.00	1994.95
594.35	1987.79
594.70	1979.67
595.05	1972.31
595.40	1964.99
595.75	1957.49
596.10	1951.06
596.45	1944.25
596.80	1938.15
597.15	1931.56
597.50	1924.27
597.85	1917.82
598.19	1911.05
598.54	1903.93
598.89	1897.23
599.24	1891.47
599.59	1884.86
599.94	1878.53
600.29	1872.16
600.64	1865.53
600.99	1857.97
601.34	1850.98
601.69	1843.82
602.04	1836.86
602.39	1829.49
602.74	1822.55
603.08	1815.82
603.43	1809.00
603.78	1801.71
604.13	1794.30
604.48	1786.83
604.83	1780.04
605.18	1772.95
605.53	1764.88
605.87	1756.73
606.22	1749.51
606.57	1741.49
606.92	1734.18
607.27	1727.10
607.62	1720.15
607.96	1712.64
608.31	1706.03
608.66	1698.44
609.01	1690.98
609.36	1683.47
609.70	1675.48
610.05	1667.43
610.40	1659.68
610.75	1651.40
611.10	1643.73
611.44	1635.43
611.79	1627.45
612.14	1618.78
612.49	1609.75
612.83	1601.50
613.18	1593.44
613.53	1585.38
613.88	1576.84
614.22	1568.44
614.57	1559.83
614.92	1551.87
615.27	1544.37
615.61	1536.14
615.96	1528.16
616.31	1520.52
616.65	1513.09
617.00	1505.48
617.35	1497.74
617.70	1489.36
618.04	1480.78
618.39	1472.53
618.74	1464.89
619.08	1456.68
619.43	1449.06
619.78	1442.12
620.12	1434.93
620.47	1427.38
620.82	1419.25
621.16	1411.98
621.51	1404.40
621.85	1396.77
622.20	1388.20
622.55	1379.93
622.89	1372.04
623.24	1364.42
623.59	1357.13
623.93	1349.59
624.28	1342.34
624.62	1334.97
624.97	1327.80
625.32	1321.12
625.66	1314.08
626.01	1306.87
626.35	1299.36
626.70	1291.72
627.04	1283.98
627.39	1276.22
627.73	1268.84
628.08	1261.81
628.43	1254.40
628.77	1247.04
629.12	1239.50
629.46	1232.43
629.81	1225.06
630.15	1217.88
630.50	1210.46
630.84	1202.22
631.19	1194.25
631.53	1186.82
631.88	1179.20
632.22	1171.66
632.57	1164.39
632.91	1156.87
633.26	1149.48
633.60	1142.19
633.95	1135.12
634.29	1128.19
634.64	1121.52
634.98	1114.19
635.32	1107.18
635.67	1100.66
636.01	1094.12
636.36	1087.34
636.70	1080.82
637.05	1074.28
637.39	1067.93
637.73	1061.44
638.08	1055.54
638.42	1049.66
638.77	1043.21
639.11	1036.67
639.45	1030.32
639.80	1023.65
640.14	1017.20
640.49	1010.80
640.83	1004.46
641.17	998.14
641.52	991.76
641.86	985.44
642.20	979.67
642.55	973.39
642.89	966.82
643.23	960.34
643.58	954.62
643.92	948.38
644.26	942.26
644.61	936.18
644.95	930.24
645.29	923.66
645.64	916.97
645.98	910.63
646.32	904.81
646.66	898.76
647.01	892.96
647.35	887.33
647.69	881.47
648.04	876.07
648.38	870.31
648.72	864.25
649.06	858.17
649.41	852.24
649.75	846.15
650.09	840.26
650.43	834.42
650.78	828.22
651.12	822.32
651.46	816.65
651.80	810.83
652.14	805.43
652.49	800.06
652.83	794.81
653.17	789.16
653.51	783.42
653.85	778.00
654.20	772.40
654.54	766.43
654.88	760.70
655.22	754.80
655.56	749.15
655.90	743.78
656.25	738.45
656.59	733.16
656.93	728.15
657.27	722.98
657.61	717.59
657.95	712.47
658.29	707.33
658.64	702.05
658.98	696.73
659.32	691.27
659.66	686.12
660.00	680.82
660.34	675.90
660.68	671.05
661.02	665.99
661.36	661.23
661.70	656.72
662.05	652.39
662.39	648.01
662.73	643.56
663.07	639.21
663.41	634.80
663.75	630.24
664.09	625.65
664.43	621.32
664.77	617.16
665.11	612.93
665.45	608.87
665.79	604.90
666.13	600.87
666.47	596.83
666.81	592.71
667.15	588.67
667.49	584.77
667.83	580.95
668.17	577.08
668.51	573.00
668.85	569.00
669.19	565.17
669.53	561.27
669.87	557.42
670.21	553.72
670.55	550.14
670.89	546.75
671.23	543.37
671.57	539.86
671.91	536.43
672.25	533.03
672.58	529.53
672.92	526.13
673.26	523.01
673.60	519.85
673.94	516.69
674.28	513.73
674.62	510.81
674.96	507.72
675.30	504.82
675.64	501.97
675.97	499.23
676.31	496.38
676.65	493.54
676.99	490.86
677.33	488.11
677.67	485.31
678.01	482.32
678.34	479.39
678.68	476.53
679.02	473.65
679.36	470.90
679.70	468.21
680.04	465.45
680.37	462.53
680.71	459.75
681.05	457.21
681.39	454.55
681.73	451.90
682.06	449.37
682.40	446.82
682.74	444.31
683.08	441.75
683.42	439.16
683.75	436.73
684.09	434.19
684.43	431.67
684.77	429.17
685.10	426.85
685.44	424.59
685.78	422.32
686.12	420.12
686.45	417.86
686.79	415.54
687.13	413.39
687.46	411.28
687.80	409.14
688.14	406.93
688.48	404.89
688.81	402.69
689.15	400.56
689.49	398.43
689.82	396.37
690.16	394.32
690.50	392.36
690.83	390.39
691.17	388.37
691.51	386.44
691.84	384.65
692.18	382.74
692.52	380.74
692.85	378.83
693.19	376.96
693.52	375.09
693.86	373.35
694.20	371.53
694.53	369.73
694.87	367.90
695.21	366.11
695.54	364.32
695.88	362.59
696.21	360.81
696.55	359.15
696.88	357.45
697.22	355.82
697.56	354.30
697.89	352.61
698.23	350.98
698.56	349.39
698.90	347.73
699.23	346.03
699.57	344.47
699.90	342.95
700.24	341.44
700.58	339.91
700.91	338.39
701.25	336.91
701.58	335.59
701.92	334.25
702.25	332.90
702.59	331.51
702.92	330.20
703.26	328.93
703.59	327.64
703.93	326.47
704.26	325.24
704.60	323.86
704.93	322.61
705.26	321.40
705.60	320.21
705.93	319.08
706.27	318.12
706.60	317.04
706.94	315.95
707.27	314.76
707.61	313.73
707.94	312.69
708.27	311.59
708.61	310.46
708.94	309.41
709.28	308.42
709.61	307.50
709.94	306.54
710.28	305.51
710.61	304.52
710.95	303.42
711.28	302.49
711.61	301.55
711.95	300.64
712.28	299.72
712.61	298.77
712.95	297.84
713.28	296.92
713.61	296.03
713.95	295.15
714.28	294.34
714.61	293.48
714.95	292.63
715.28	291.81
715.61	290.94
715.95	290.10
716.28	289.22
716.61	288.38
716.95	287.57
717.28	286.85
717.61	286.12
717.94	285.42
718.28	284.62
718.61	283.93
718.94	283.23
719.27	282.56
719.61	281.91
719.94	281.27
720.27	280.58
720.60	279.92
720.94	279.28
721.27	278.66
721.60	278.10
721.93	277.52
722.27	276.99
722.60	276.47
722.93	275.93
723.26	275.39
723.59	274.84
723.93	274.30
724.26	273.75
724.59	273.15
724.92	272.62
725.25	272.14
725.59	271.61
725.92	271.12
726.25	270.64
726.58	270.17
726.91	269.65
727.24	269.20
727.57	268.74
727.91	268.28
728.24	267.82
728.57	267.31
728.90	266.84
729.23	266.31
729.56	265.88
729.89	265.40
730.22	264.92
730.55	264.47
730.89	264.01
731.22	263.58
731.55	263.16
731.88	262.75
732.21	262.35
732.54	261.94
732.87	261.50
733.20	261.07
733.53	260.68
733.86	260.32
734.19	259.89
734.52	259.46
734.85	259.16
735.18	258.80
735.51	258.44
735.84	258.10
736.17	257.77
736.50	257.38
736.83	257.15
737.16	256.84
737.49	256.52
737.82	256.17
738.15	255.86
738.48	255.54
738.81	255.21
739.14	254.86
739.47	254.53
739.80	254.24
740.13	253.95
740.46	253.60
740.79	253.27
741.12	252.99
741.45	252.70
741.78	252.35
742.11	252.05
742.44	251.71
742.77	251.42
743.10	251.15
743.43	250.84
743.75	250.43
744.08	250.29
744.41	250.02
744.74	249.75
745.07	249.48
745.40	249.23
745.73	248.97
746.06	248.70
746.39	248.44
746.71	248.17
747.04	247.90
747.37	247.65
747.70	247.40
748.03	247.14
748.36	246.94
748.68	246.70
749.01	246.45
749.34	246.24
749.67	245.99
750.00	245.74
750.33	245.56
750.65	245.35
750.98	244.99
751.31	244.74
751.64	244.53
751.97	244.36
752.29	244.13
752.62	243.91
752.95	243.68
753.28	243.46
753.60	243.26
753.93	243.12
754.26	242.90
754.59	242.69
754.91	242.45
755.24	242.24
755.57	242.02
755.90	241.82
756.22	241.62
756.55	241.44
756.88	241.23
757.20	241.01
757.53	240.80
757.86	240.61
758.19	240.44
758.51	240.28
758.84	240.06
759.17	239.88
759.49	239.71
759.82	239.60
760.15	239.45
760.47	239.29
760.80	239.09
761.13	238.97
761.45	238.82
761.78	238.68
762.11	238.54
762.43	238.39
762.76	238.25
763.08	238.13
763.41	238.00
763.74	237.88
764.06	237.74
764.39	237.61
764.71	237.50
765.04	237.36
765.37	237.23
765.69	237.11
766.02	237.04
766.34	236.92
766.67	236.79
767.00	236.68
767.32	236.65
767.65	236.59
767.97	236.51
768.30	236.38
768.62	236.31
768.95	236.20
769.27	236.09
769.60	236.00
769.92	235.87
770.25	235.78
770.57	235.66
770.90	235.57
771.22	235.49
771.55	235.36
771.87	235.30
772.20	235.20
772.52	235.17
772.85	235.16
773.17	235.06
773.50	234.94
773.82	234.83
774.15	234.67
774.47	234.52
774.80	234.44
775.12	234.37
775.45	234.27
775.77	234.20
776.09	234.14
776.42	234.06
776.74	234.05
777.07	233.93
777.39	233.83
777.72	233.75
778.04	233.67
778.36	233.63
778.69	233.54
779.01	233.45
779.33	233.34
779.66	233.14
779.98	233.10
780.31	233.04
780.63	233.02
780.95	232.97
781.28	232.89
781.60	232.80
781.92	232.74
782.25	232.66
782.57	232.60
782.89	232.57
783.22	232.49
783.54	232.39
783.86	232.34
784.19	232.32
784.51	232.30
784.83	232.26
785.16	232.20
785.48	232.15
785.80	232.11
786.12	232.03
786.45	231.98
786.77	231.93
787.09	231.87
787.42	231.82
787.74	231.77
788.06	231.76
788.38	231.71
788.71	231.65
789.03	231.62
789.35	231.59
789.67	231.49
789.99	231.48
790.32	231.40
790.64	231.34
790.96	231.35
791.28	231.28
791.61	231.24
791.93	231.21
792.25	231.18
792.57	231.20
792.89	231.17
793.21	231.15
793.54	231.10
793.86	231.07
794.18	231.04
794.50	230.99
794.82	230.91
795.14	230.91
795.47	230.92
795.79	230.89
796.11	230.84
796.43	230.84
796.75	230.78
797.07	230.76
797.39	230.78
797.71	230.69
798.04	230.65
798.36	230.62
798.68	230.58
799.00	230.57
799.32	230.50
799.64	230.49
799.96	230.45
800.28	230.46
800.60	230.42
800.92	230.37
801.24	230.33
801.56	230.35
801.89	230.29
802.21	230.22
802.53	230.16
802.85	230.17
803.17	230.17
803.49	230.13
803.81	230.11
804.13	230.06
804.45	230.05
804.77	230.04
805.09	230.00
805.41	229.98
805.73	229.95
806.05	229.91
806.37	229.87
806.69	229.83
807.01	229.80
807.33	229.76
807.65	229.71
807.97	229.73
808.28	229.68
808.60	229.65
808.92	229.65
809.24	229.71
809.56	229.68
809.88	229.61
810.20	229.62
810.52	229.62
810.84	229.57
811.16	229.53
811.48	229.49
811.80	229.48
812.12	229.46
812.43	229.44
812.75	229.40
813.07	229.36
813.39	229.34
813.71	229.30
814.03	229.29
814.35	229.28
814.67	229.23
814.98	229.22
815.30	229.22
815.62	229.16
815.94	229.05
816.26	229.04
816.58	229.04
816.89	229.02
817.21	228.96
817.53	228.95
817.85	228.92
818.17	228.90
818.48	228.85
818.80	228.87
819.12	228.82
819.44	228.81
819.76	228.79
820.07	228.76
820.39	228.70
820.71	228.68
821.03	228.67
821.34	228.65
821.66	228.66
821.98	228.63
822.30	228.62
822.61	228.66
822.93	228.59
823.25	228.59
823.57	228.52
823.88	228.55
824.20	228.55
824.52	228.59
824.83	228.57
825.15	228.57
825.47	228.49
825.79	228.49
826.10	228.48
826.42	228.47
826.74	228.51
827.05	228.52
827.37	228.53
827.69	228.53
828.00	228.51
828.32	228.46
828.64	228.44
828.95	228.48
829.27	228.47
829.58	228.47
829.90	228.44
830.22	228.47
830.53	228.41
830.85	228.36
831.17	228.29
831.48	228.30
831.80	228.31
832.11	228.33
832.43	228.34
832.75	228.32
833.06	228.35
833.38	228.28
833.69	228.27
834.01	228.24
834.32	228.22
834.64	228.20
834.96	228.25
835.27	228.27
835.59	228.22
835.90	228.20
836.22	228.18
836.53	228.17
836.85	228.13
837.16	228.21
837.48	228.21
837.79	228.25
838.11	228.25
838.42	228.24
838.74	228.23
839.05	228.18
839.37	228.19
839.68	228.15
840.00	228.17
840.31	228.18
840.63	228.17
840.94	228.11
841.26	228.13
841.57	228.09
841.88	228.06
842.20	228.06
842.51	228.03
842.83	228.03
843.14	228.08
843.46	228.10
843.77	228.11
844.08	228.10
844.40	228.06
844.71	228.03
845.03	227.99
845.34	228.00
845.65	227.98
845.97	227.99
846.28	227.99
846.60	228.00
846.91	227.95
847.22	227.94
847.54	227.96
847.85	227.94
848.16	227.90
848.48	227.89
848.79	227.91
849.10	227.91
849.42	227.95
849.73	227.89
850.04	227.85
850.36	227.79
850.67	227.78
850.98	227.78
851.30	227.75
851.61	227.79
851.92	227.77
852.23	227.79
852.55	227.77
852.86	227.76
853.17	227.76
853.49	227.79
853.80	227.80
854.11	227.83
854.42	227.85
854.74	227.87
855.05	227.88
855.36	227.82
855.67	227.80
855.99	227.78
856.30	227.88
856.61	227.89
856.92	227.87
857.23	227.88
857.55	227.85
857.86	227.87
858.17	227.89
858.48	227.85
858.79	227.87
859.11	227.88
859.42	227.88
859.73	227.86
860.04	227.85
860.35	227.84
860.66	227.79
860.98	227.78
861.29	227.77
861.60	227.74
861.91	227.80
862.22	227.81
862.53	227.74
862.84	227.65
863.16	227.69
863.47	227.69
863.78	227.68
864.09	227.73
864.40	227.71
864.71	227.67
865.02	227.67
865.33	227.62
865.64	227.60
865.95	227.58
866.27	227.64
866.58	227.62
866.89	227.63
867.20	227.61
867.51	227.59
867.82	227.63
868.13	227.65
868.44	227.60
868.75	227.59
869.06	227.62
869.37	227.61
869.68	227.56
869.99	227.58
870.30	227.56
870.61	227.52
870.92	227.52
871.23	227.52
871.54	227.56
871.85	227.59
872.16	227.57
872.47	227.57
872.78	227.54
873.09	227.56
873.40	227.56
873.71	227.56
874.02	227.55
874.33	227.49
874.64	227.47
874.95	227.48
875.26	227.50
875.56	227.47
875.87	227.44
876.18	227.43
876.49	227.51
876.80	227.51
877.11	227.49
877.42	227.48
877.73	227.48
878.04	227.45
878.35	227.45
878.66	227.47
878.96	227.46
879.27	227.40
879.58	227.37
879.89	227.37
880.20	227.41
880.51	227.40
880.82	227.41
881.12	227.41
881.43	227.43
881.74	227.41
882.05	227.44
882.36	227.46
882.67	227.48
882.97	227.38
883.28	227.35
883.59	227.39
883.90	227.42
884.21	227.43
884.51	227.45
884.82	227.43
885.13	227.40
885.44	227.41
885.74	227.42
886.05	227.42
886.36	227.41
886.67	227.37
886.98	227.40
887.28	227.42
887.59	227.39
887.90	227.36
888.20	227.37
888.51	227.37
888.82	227.36
889.13	227.34
889.43	227.42
889.74	227.43
890.05	227.41
890.35	227.42
890.66	227.41
890.97	227.38
891.28	227.41
891.58	227.43
891.89	227.47
892.20	227.42
892.50	227.42
892.81	227.43
893.12	227.44
893.42	227.43
893.73	227.43
894.04	227.44
894.34	227.45
894.65	227.40
894.95	227.40
895.26	227.41
895.57	227.48
895.87	227.39
896.18	227.41
896.48	227.38
896.79	227.40
897.10	227.39
897.40	227.42
897.71	227.41
898.01	227.40
898.32	227.39
898.63	227.40
898.93	227.40
899.24	227.39
899.54	227.41
899.85	227.38
900.15	227.38
900.46	227.37
900.76	227.37
901.07	227.37
901.38	227.37
901.68	227.38
901.99	227.32
902.29	227.31
902.60	227.28
902.90	227.32
903.21	227.29
903.51	227.29
903.82	227.28
904.12	227.30
904.43	227.27
904.73	227.24
905.03	227.27
905.34	227.36
905.64	227.35
905.95	227.35
906.25	227.37
906.56	227.36
906.86	227.37
907.17	227.38
907.47	227.40
907.77	227.36
908.08	227.31
908.38	227.33
908.69	227.34
908.99	227.39
909.30	227.37
909.60	227.39
909.90	227.34
910.21	227.33
910.51	227.26
910.81	227.28
911.12	227.27
911.42	227.26
911.73	227.12
912.03	227.10
912.33	227.10
912.64	227.09
912.94	227.09
913.24	227.07
913.55	227.07
913.85	227.07
914.15	227.10
914.46	227.12
914.76	227.11
915.06	227.10
915.37	227.06
915.67	227.06
915.97	227.02
916.27	227.04
916.58	227.05
916.88	227.05
917.18	227.02
917.49	227.12
917.79	227.12
918.09	227.16
918.39	227.22
918.70	227.20
919.00	227.17
919.30	227.20
919.60	227.20
919.91	227.20
920.21	227.21
920.51	227.22
920.81	227.21
921.12	227.22
921.42	227.22
921.72	227.24
922.02	227.26
922.32	227.31
922.63	227.32
922.93	227.34
923.23	227.36
923.53	227.35
923.83	227.28
924.13	227.27
924.44	227.26
924.74	227.22
925.04	227.22
925.34	227.22
925.64	227.21
925.94	227.21
926.24	227.21
926.55	227.21
926.85	227.19
927.15	227.18
927.45	227.17
927.75	227.18
928.05	227.15
928.35	227.15
928.65	227.14
928.95	227.14
929.26	227.14
929.56	227.18
929.86	227.20
930.16	227.20
930.46	227.20
930.76	227.20
931.06	227.21
931.36	227.19
931.66	227.21
931.96	227.19
932.26	227.20
932.56	227.19
932.86	227.18
933.16	227.18
933.46	227.20
933.76	227.23
934.06	227.25
934.36	227.29
934.66	227.25
934.96	227.25
935.26	227.26
935.56	227.24
935.86	227.22
936.16	227.21
936.46	227.20
936.76	227.21
937.06	227.20
937.36	227.17
937.66	227.20
937.96	227.22
938.26	227.19
938.56	227.17
938.86	227.18
939.16	227.23
939.46	227.24
939.76	227.23
940.06	227.18
940.35	227.17
940.65	227.15
940.95	227.16
941.25	227.11
941.55	227.10
941.85	227.12
942.15	227.15
942.45	227.20
942.75	227.19
943.04	227.20
943.34	227.23
943.64	227.25
943.94	227.25
944.24	227.26
944.54	227.29
944.84	227.28
945.13	227.26
945.43	227.22
945.73	227.21
946.03	227.22
946.33	227.23
946.62	227.19
946.92	227.15
947.22	227.15
947.52	227.20
947.82	227.19
948.11	227.18
948.41	227.10
948.71	227.06
949.01	227.06
949.31	227.05
949.60	227.04
949.90	227.09
950.20	227.06
950.50	227.04
950.79	227.03
951.09	227.06
951.39	227.05
951.69	227.07
951.98	227.06
952.28	227.06
952.58	227.08
952.87	227.10
953.17	227.14
953.47	227.13
953.76	227.12
954.06	227.09
954.36	227.09
954.66	227.13
954.95	227.16
955.25	227.18
955.55	227.20
955.84	227.21
956.14	227.17
956.44	227.17
956.73	227.17
957.03	227.17
957.32	227.17
957.62	227.20
957.92	227.23
958.21	227.25
958.51	227.35
958.81	227.34
959.10	227.34
959.40	227.33
959.69	227.34
959.99	227.33
960.29	227.37
960.58	227.37
960.88	227.36
961.17	227.36
961.47	227.39
961.76	227.32
962.06	227.31
962.36	227.31
962.65	227.32
962.95	227.32
963.24	227.30
963.54	227.30
963.83	227.28
964.13	227.25
964.42	227.22
964.72	227.14
965.01	227.15
965.31	227.15
965.60	227.14
965.90	227.21
966.19	227.20
966.49	227.18
966.78	227.18
967.08	227.16
967.37	227.15
967.67	227.10
967.96	227.14
968.26	227.13
968.55	227.14
968.85	227.13
969.14	227.13
969.43	227.14
969.73	227.11
970.02	227.14
970.32	227.11
970.61	227.11
970.91	227.06
971.20	227.05
971.49	227.05
971.79	227.05
972.08	226.96
972.38	226.98
972.67	226.98
972.96	226.95
973.26	226.94
973.55	226.95
973.85	226.94
974.14	226.91
974.43	226.90
974.73	226.85
975.02	226.82
975.31	226.81
975.61	226.79
975.90	226.79
976.19	226.76
976.49	226.76
976.78	226.78
977.07	226.79
977.37	226.78
977.66	226.76
977.95	226.73
978.24	226.77
978.54	226.75
978.83	226.76
979.12	226.79
979.42	226.78
979.71	226.76
980.00	226.76
980.29	226.77
980.59	226.76
980.88	226.83
981.17	226.83
981.46	226.86
981.76	226.85
982.05	226.84
982.34	226.86
982.63	226.84
982.93	226.84
983.22	226.84
983.51	226.88
983.80	226.93
984.09	226.94
984.39	226.91
984.68	226.89
984.97	226.91
985.26	226.91
985.55	226.92
985.85	226.94
986.14	226.99
986.43	226.99
986.72	227.00
987.01	226.94
987.30	226.98
987.59	226.97
987.89	226.99
988.18	227.00
988.47	226.99
988.76	226.99
989.05	226.98
989.34	227.02
989.63	227.02
989.92	227.00
990.22	226.99
990.51	227.03
990.80	227.05
991.09	227.05
991.38	227.04
991.67	227.08
991.96	227.05
992.25	227.03
992.54	227.02
992.83	227.02
993.12	227.06
993.41	227.06
993.70	227.11
993.99	227.13
994.28	227.14
994.58	227.19
994.87	227.18
995.16	227.18
995.45	227.14
995.74	227.11
996.03	227.10
996.32	227.09
996.61	227.09
996.90	227.10
997.19	227.09
997.48	227.11
997.77	227.09
998.06	227.10
998.34	227.11
998.63	227.12
998.92	227.13
999.21	227.14
999.50	227.14
999.79	227.08
1000.08	227.07
1000.37	227.07
1000.66	227.03
1000.95	227.08
1001.24	227.07
1001.53	227.09
1001.82	227.10
1002.11	227.08
1002.40	227.12
1002.68	227.15
1002.97	227.22
1003.26	227.21
1003.55	227.18
1003.84	227.18
1004.13	227.22
1004.42	227.20
1004.71	227.22
1004.99	227.21
1005.28	227.23
1005.57	227.22
1005.86	227.23
1006.15	227.22
1006.44	227.22
1006.72	227.21
1007.01	227.19
1007.30	227.21
1007.59	227.20
1007.88	227.19
1008.17	227.21
1008.45	227.18
1008.74	227.15
1009.03	227.07
1009.32	227.07
1009.60	227.08
1009.89	227.05
1010.18	227.00
1010.47	226.98
1010.76	226.95
1011.04	226.91
1011.33	226.92
1011.62	226.91
1011.91	226.90
1012.19	226.91
1012.48	226.89
1012.77	226.89
1013.05	226.93
1013.34	226.92
1013.63	226.91
1013.92	226.91
1014.20	226.92
1014.49	226.93
1014.78	226.93
1015.06	226.90
1015.35	226.86
1015.64	226.87
1015.92	226.89
1016.21	226.89
1016.50	226.89
1016.78	226.88
1017.07	226.91
1017.36	226.86
1017.64	226.84
1017.93	226.82
1018.22	226.82
1018.50	226.81
1018.79	226.81
1019.08	226.74
1019.36	226.74
1019.65	226.70
1019.93	226.74
1020.22	226.73
1020.51	226.76
1020.79	226.74
1021.08	227.02
1021.36	226.54
1021.65	226.76
1021.94	226.62
1022.22	226.81
1022.51	226.38
1022.79	227.42
1023.08	226.93
1023.36	228.00
1023.65	226.63
>>>>>End Processed Spectral Data<<<<<
