SpectraSuite Data File
++++++++++++++++++++++++++++++++++++
Date: Fri Feb 01 14:53:09 EST 2013
User: group
Dark Spectrum Present: No
Reference Spectrum Present: No
Number of Sampled Component Spectra: 1
Spectrometers: USB2E7196
Integration Time (usec): 35000 (USB2E7196)
Spectra Averaged: 100 (USB2E7196)
Boxcar Smoothing: 10 (USB2E7196)
Correct for Electrical Dark: No (USB2E7196)
Strobe/Lamp Enabled: No (USB2E7196)
Correct for Detector Non-linearity: No (USB2E7196)
Correct for Stray Light: No (USB2E7196)
Number of Pixels in Processed Spectrum: 2048
>>>>>Begin Processed Spectral Data<<<<<
339.09	0.00
339.48	215.78
339.86	217.02
340.24	217.79
340.63	219.72
341.01	222.83
341.39	222.29
341.78	223.90
342.16	224.77
342.54	225.32
342.93	213.86
343.31	224.65
343.69	225.18
344.07	225.65
344.46	226.11
344.84	226.47
345.22	226.69
345.60	226.97
345.99	227.17
346.37	227.28
346.75	227.39
347.13	227.45
347.52	227.48
347.90	227.52
348.28	227.51
348.66	227.57
349.05	227.55
349.43	227.63
349.81	227.66
350.19	227.69
350.57	227.73
350.96	227.79
351.34	227.88
351.72	227.94
352.10	228.03
352.48	228.09
352.87	228.15
353.25	228.23
353.63	228.27
354.01	228.31
354.39	228.39
354.77	228.49
355.15	228.60
355.54	228.65
355.92	228.70
356.30	228.75
356.68	228.88
357.06	229.00
357.44	229.04
357.82	229.09
358.20	229.16
358.58	229.24
358.97	229.29
359.35	229.38
359.73	229.47
360.11	229.51
360.49	229.54
360.87	229.59
361.25	229.60
361.63	229.64
362.01	229.68
362.39	229.72
362.77	229.73
363.15	229.72
363.53	229.75
363.91	229.75
364.29	229.81
364.67	229.70
365.05	229.66
365.43	229.63
365.81	229.66
366.19	229.69
366.57	229.69
366.95	229.70
367.33	229.63
367.71	229.58
368.09	229.55
368.47	229.50
368.85	229.45
369.23	229.45
369.61	229.38
369.99	229.40
370.37	229.35
370.75	229.32
371.13	229.28
371.51	229.22
371.89	229.16
372.27	229.08
372.65	229.04
373.03	228.97
373.41	228.94
373.78	228.84
374.16	228.70
374.54	228.60
374.92	228.51
375.30	228.43
375.68	228.35
376.06	228.31
376.44	228.26
376.82	228.20
377.19	228.11
377.57	228.03
377.95	227.91
378.33	227.82
378.71	227.70
379.09	227.60
379.47	227.53
379.84	227.44
380.22	227.34
380.60	227.26
380.98	227.18
381.36	227.11
381.73	227.04
382.11	227.02
382.49	226.96
382.87	226.88
383.25	226.84
383.62	226.89
384.00	226.79
384.38	226.76
384.76	226.72
385.13	226.69
385.51	226.66
385.89	226.57
386.27	226.55
386.64	226.54
387.02	226.51
387.40	226.48
387.78	226.46
388.15	226.42
388.53	226.39
388.91	226.38
389.29	226.35
389.66	226.37
390.04	226.32
390.42	226.35
390.79	226.38
391.17	226.37
391.55	226.28
391.92	226.28
392.30	226.30
392.68	226.33
393.05	226.32
393.43	226.35
393.81	226.40
394.18	226.41
394.56	226.42
394.94	226.46
395.31	226.50
395.69	226.54
396.06	226.62
396.44	226.68
396.82	226.72
397.19	226.80
397.57	226.83
397.95	226.93
398.32	226.95
398.70	227.02
399.07	227.11
399.45	227.19
399.82	227.30
400.20	227.37
400.58	227.42
400.95	227.47
401.33	227.60
401.70	227.77
402.08	227.88
402.45	227.98
402.83	228.09
403.20	228.22
403.58	228.37
403.95	228.51
404.33	228.64
404.71	228.77
405.08	229.01
405.46	229.15
405.83	229.28
406.21	229.46
406.58	229.62
406.96	229.80
407.33	229.98
407.70	230.19
408.08	230.46
408.45	230.71
408.83	230.98
409.20	231.18
409.58	231.38
409.95	231.67
410.33	231.95
410.70	232.20
411.08	232.48
411.45	232.77
411.82	233.10
412.20	233.48
412.57	233.93
412.95	234.20
413.32	234.59
413.69	234.99
414.07	235.44
414.44	235.90
414.82	236.38
415.19	236.95
415.56	237.48
415.94	237.99
416.31	238.63
416.68	239.26
417.06	239.94
417.43	240.60
417.81	241.32
418.18	242.13
418.55	243.02
418.93	243.89
419.30	244.82
419.67	245.78
420.04	246.72
420.42	247.65
420.79	248.83
421.16	250.04
421.54	251.28
421.91	252.42
422.28	253.67
422.66	254.98
423.03	256.25
423.40	257.61
423.77	259.03
424.15	260.41
424.52	261.93
424.89	263.56
425.26	265.09
425.64	266.57
426.01	268.15
426.38	269.76
426.75	271.44
427.13	273.14
427.50	274.91
427.87	276.77
428.24	278.64
428.61	280.37
428.99	282.28
429.36	284.36
429.73	286.46
430.10	288.46
430.47	290.49
430.85	292.59
431.22	294.78
431.59	297.15
431.96	299.41
432.33	301.81
432.70	304.17
433.08	307.00
433.45	309.61
433.82	312.20
434.19	315.10
434.56	317.91
434.93	320.55
435.30	323.19
435.68	326.09
436.05	328.96
436.42	331.74
436.79	334.26
437.16	336.96
437.53	339.80
437.90	342.65
438.27	345.43
438.64	348.29
439.01	350.92
439.38	353.14
439.75	355.31
440.13	357.84
440.50	360.20
440.87	362.04
441.24	364.00
441.61	366.18
441.98	367.68
442.35	369.49
442.72	371.33
443.09	373.16
443.46	374.16
443.83	374.72
444.20	375.26
444.57	376.10
444.94	376.37
445.31	376.71
445.68	377.04
446.05	377.10
446.42	376.69
446.79	376.27
447.16	375.85
447.53	375.56
447.90	374.44
448.27	373.25
448.64	371.68
449.01	370.56
449.37	368.59
449.74	366.68
450.11	364.46
450.48	362.04
450.85	359.48
451.22	357.34
451.59	355.32
451.96	353.37
452.33	350.74
452.70	348.42
453.07	345.59
453.43	342.72
453.80	339.96
454.17	337.28
454.54	334.73
454.91	332.00
455.28	329.30
455.65	326.80
456.02	324.42
456.38	322.27
456.75	319.60
457.12	317.35
457.49	315.14
457.86	312.93
458.23	311.07
458.59	309.03
458.96	306.91
459.33	305.06
459.70	303.21
460.07	301.72
460.43	299.95
460.80	298.34
461.17	296.89
461.54	295.38
461.91	293.99
462.27	292.52
462.64	291.27
463.01	289.92
463.38	288.61
463.74	287.20
464.11	286.03
464.48	284.96
464.85	283.84
465.21	282.97
465.58	282.06
465.95	280.96
466.32	280.02
466.68	279.08
467.05	278.18
467.42	277.31
467.78	276.39
468.15	275.52
468.52	274.82
468.88	273.97
469.25	273.22
469.62	272.56
469.98	271.90
470.35	271.24
470.72	270.60
471.08	269.90
471.45	269.37
471.82	268.80
472.18	268.20
472.55	267.74
472.92	267.19
473.28	266.70
473.65	266.24
474.02	265.83
474.38	265.47
474.75	265.13
475.11	264.75
475.48	264.46
475.85	264.22
476.21	263.97
476.58	263.76
476.94	263.61
477.31	263.44
477.67	263.29
478.04	263.15
478.41	263.11
478.77	263.13
479.14	263.03
479.50	263.07
479.87	263.13
480.23	263.21
480.60	263.31
480.96	263.38
481.33	263.55
481.69	263.70
482.06	263.92
482.42	264.09
482.79	264.34
483.15	264.66
483.52	265.03
483.88	265.40
484.25	265.77
484.61	266.14
484.98	266.57
485.34	267.10
485.71	267.70
486.07	268.29
486.44	268.89
486.80	269.60
487.17	270.30
487.53	271.09
487.90	271.88
488.26	272.77
488.62	273.72
488.99	274.72
489.35	275.79
489.72	276.85
490.08	278.06
490.44	279.27
490.81	280.59
491.17	281.92
491.54	283.35
491.90	284.84
492.26	286.48
492.63	288.24
492.99	290.04
493.36	291.90
493.72	293.93
494.08	295.98
494.45	298.22
494.81	300.54
495.17	302.96
495.54	305.53
495.90	308.17
496.26	310.99
496.63	313.90
496.99	316.92
497.35	320.17
497.72	323.55
498.08	327.06
498.44	330.68
498.80	334.57
499.17	338.59
499.53	342.72
499.89	347.05
500.26	351.45
500.62	356.04
500.98	360.97
501.34	366.00
501.71	371.33
502.07	376.73
502.43	382.26
502.79	388.07
503.16	394.11
503.52	400.39
503.88	406.79
504.24	413.41
504.60	420.31
504.97	427.41
505.33	434.70
505.69	442.31
506.05	450.08
506.41	457.92
506.78	466.06
507.14	474.48
507.50	483.17
507.86	492.17
508.22	501.36
508.59	510.57
508.95	520.10
509.31	529.82
509.67	539.95
510.03	550.27
510.39	560.84
510.75	571.63
511.12	582.57
511.48	593.81
511.84	605.21
512.20	616.69
512.56	628.61
512.92	640.80
513.28	653.11
513.64	665.62
514.00	678.34
514.37	691.23
514.73	704.29
515.09	717.35
515.45	730.67
515.81	744.21
516.17	758.22
516.53	772.35
516.89	786.55
517.25	800.61
517.61	815.05
517.97	829.44
518.33	843.83
518.69	858.61
519.05	873.62
519.41	888.78
519.77	904.41
520.13	919.86
520.49	935.16
520.85	950.60
521.21	966.25
521.57	982.55
521.93	998.50
522.29	1014.98
522.65	1031.26
523.01	1047.57
523.37	1063.75
523.73	1079.87
524.09	1096.07
524.45	1112.36
524.81	1129.10
525.17	1145.92
525.53	1162.80
525.89	1179.80
526.25	1196.68
526.61	1213.08
526.97	1229.93
527.33	1246.29
527.68	1262.95
528.04	1279.49
528.40	1296.24
528.76	1313.40
529.12	1330.01
529.48	1346.85
529.84	1363.01
530.20	1379.65
530.56	1396.68
530.91	1413.96
531.27	1430.86
531.63	1447.36
531.99	1464.15
532.35	1480.17
532.71	1496.07
533.07	1512.47
533.42	1528.43
533.78	1544.40
534.14	1560.71
534.50	1576.01
534.86	1592.05
535.21	1607.27
535.57	1623.36
535.93	1638.93
536.29	1653.76
536.65	1668.94
537.00	1683.79
537.36	1699.10
537.72	1713.75
538.08	1728.25
538.44	1742.17
538.79	1756.17
539.15	1769.94
539.51	1783.70
539.87	1798.24
540.22	1812.06
540.58	1825.75
540.94	1839.09
541.29	1852.22
541.65	1865.09
542.01	1878.43
542.37	1890.75
542.72	1903.21
543.08	1915.02
543.44	1927.40
543.79	1938.79
544.15	1949.76
544.51	1961.25
544.87	1972.21
545.22	1983.09
545.58	1993.30
545.94	2003.20
546.29	2013.02
546.65	2022.79
547.01	2032.02
547.36	2040.70
547.72	2049.29
548.07	2057.33
548.43	2065.45
548.79	2073.36
549.14	2080.85
549.50	2088.31
549.86	2096.11
550.21	2103.39
550.57	2110.63
550.92	2117.22
551.28	2124.24
551.64	2131.21
551.99	2137.71
552.35	2143.80
552.70	2149.82
553.06	2155.66
553.41	2161.84
553.77	2167.78
554.13	2173.66
554.48	2179.71
554.84	2185.02
555.19	2190.26
555.55	2195.29
555.90	2199.83
556.26	2204.67
556.61	2209.28
556.97	2213.38
557.32	2217.45
557.68	2221.44
558.03	2225.58
558.39	2229.09
558.74	2233.44
559.10	2237.29
559.45	2240.79
559.81	2245.06
560.16	2248.78
560.52	2251.96
560.87	2255.34
561.23	2257.93
561.58	2260.99
561.94	2263.45
562.29	2265.84
562.64	2268.43
563.00	2271.02
563.35	2274.40
563.71	2277.35
564.06	2280.42
564.42	2283.15
564.77	2285.57
565.12	2287.78
565.48	2289.50
565.83	2291.26
566.19	2292.65
566.54	2293.44
566.89	2294.78
567.25	2295.18
567.60	2296.43
567.96	2298.03
568.31	2298.58
568.66	2299.41
569.02	2299.74
569.37	2299.73
569.72	2300.33
570.08	2300.25
570.43	2299.88
570.78	2298.88
571.14	2297.04
571.49	2295.56
571.84	2295.04
572.20	2293.46
572.55	2292.16
572.90	2290.28
573.26	2288.54
573.61	2286.48
573.96	2284.45
574.31	2280.97
574.67	2277.69
575.02	2273.82
575.37	2270.06
575.72	2266.13
576.08	2262.70
576.43	2259.19
576.78	2255.50
577.13	2252.01
577.49	2248.62
577.84	2245.06
578.19	2241.42
578.54	2237.78
578.90	2233.20
579.25	2227.53
579.60	2222.52
579.95	2217.46
580.30	2212.26
580.66	2207.06
581.01	2201.98
581.36	2196.89
581.71	2192.60
582.06	2188.10
582.42	2183.52
582.77	2178.14
583.12	2173.48
583.47	2168.48
583.82	2163.24
584.17	2157.83
584.53	2152.28
584.88	2146.52
585.23	2140.51
585.58	2134.79
585.93	2129.15
586.28	2124.36
586.63	2119.08
586.98	2113.81
587.34	2108.96
587.69	2104.04
588.04	2098.67
588.39	2092.85
588.74	2086.24
589.09	2079.95
589.44	2072.92
589.79	2066.58
590.14	2060.77
590.49	2053.83
590.84	2047.28
591.19	2041.21
591.54	2034.55
591.89	2027.17
592.25	2020.24
592.60	2013.08
592.95	2005.31
593.30	1997.74
593.65	1989.94
594.00	1982.77
594.35	1975.37
594.70	1967.24
595.05	1959.89
595.40	1952.50
595.75	1944.89
596.10	1938.56
596.45	1931.76
596.80	1925.42
597.15	1918.73
597.50	1911.58
597.85	1905.22
598.19	1898.68
598.54	1891.64
598.89	1884.97
599.24	1878.81
599.59	1872.15
599.94	1865.70
600.29	1859.34
600.64	1852.82
600.99	1845.36
601.34	1838.59
601.69	1831.63
602.04	1824.64
602.39	1817.25
602.74	1810.53
603.08	1803.84
603.43	1797.13
603.78	1789.79
604.13	1782.71
604.48	1775.45
604.83	1768.74
605.18	1761.73
605.53	1753.59
605.87	1745.40
606.22	1738.21
606.57	1730.41
606.92	1723.05
607.27	1715.96
607.62	1709.09
607.96	1701.82
608.31	1695.32
608.66	1687.64
609.01	1680.08
609.36	1672.65
609.70	1664.78
610.05	1656.76
610.40	1649.08
610.75	1640.82
611.10	1633.32
611.44	1625.11
611.79	1617.15
612.14	1608.53
612.49	1599.55
612.83	1591.30
613.18	1583.35
613.53	1575.35
613.88	1566.81
614.22	1558.61
614.57	1550.14
614.92	1542.20
615.27	1534.74
615.61	1526.44
615.96	1518.47
616.31	1510.96
616.65	1503.69
617.00	1496.19
617.35	1488.42
617.70	1480.16
618.04	1471.57
618.39	1463.38
618.74	1455.76
619.08	1447.60
619.43	1440.10
619.78	1433.23
620.12	1426.22
620.47	1418.84
620.82	1410.73
621.16	1403.43
621.51	1396.02
621.85	1388.45
622.20	1380.02
622.55	1371.75
622.89	1363.93
623.24	1356.40
623.59	1349.15
623.93	1341.70
624.28	1334.49
624.62	1327.09
624.97	1319.96
625.32	1313.38
625.66	1306.30
626.01	1299.13
626.35	1291.82
626.70	1284.16
627.04	1276.60
627.39	1268.82
627.73	1261.34
628.08	1254.55
628.43	1247.30
628.77	1239.88
629.12	1232.34
629.46	1225.23
629.81	1217.88
630.15	1210.76
630.50	1203.49
630.84	1195.25
631.19	1187.36
631.53	1179.95
631.88	1172.56
632.22	1165.04
632.57	1157.83
632.91	1150.47
633.26	1143.12
633.60	1135.68
633.95	1128.61
634.29	1121.49
634.64	1114.91
634.98	1107.74
635.32	1100.64
635.67	1094.19
636.01	1087.60
636.36	1080.99
636.70	1074.53
637.05	1068.04
637.39	1061.72
637.73	1055.31
638.08	1049.64
638.42	1043.74
638.77	1037.39
639.11	1030.88
639.45	1024.62
639.80	1018.02
640.14	1011.64
640.49	1005.24
640.83	999.11
641.17	993.01
641.52	986.79
641.86	980.44
642.20	974.68
642.55	968.44
642.89	961.95
643.23	955.48
643.58	949.77
643.92	943.65
644.26	937.71
644.61	931.80
644.95	925.86
645.29	919.36
645.64	912.69
645.98	906.33
646.32	900.58
646.66	894.61
647.01	888.95
647.35	883.35
647.69	877.56
648.04	872.12
648.38	866.35
648.72	860.44
649.06	854.46
649.41	848.51
649.75	842.58
650.09	836.68
650.43	830.96
650.78	824.78
651.12	818.91
651.46	813.25
651.80	807.45
652.14	802.07
652.49	796.69
652.83	791.55
653.17	786.01
653.51	780.27
653.85	774.85
654.20	769.20
654.54	763.22
654.88	757.50
655.22	751.65
655.56	745.98
655.90	740.51
656.25	735.29
656.59	730.00
656.93	724.92
657.27	719.81
657.61	714.42
657.95	709.38
658.29	704.35
658.64	699.08
658.98	693.86
659.32	688.46
659.66	683.28
660.00	678.00
660.34	673.03
660.68	668.17
661.02	663.24
661.36	658.65
661.70	654.18
662.05	649.96
662.39	645.67
662.73	641.25
663.07	636.96
663.41	632.55
663.75	628.12
664.09	623.64
664.43	619.30
664.77	615.20
665.11	610.95
665.45	606.81
665.79	602.84
666.13	598.77
666.47	594.64
666.81	590.56
667.15	586.46
667.49	582.63
667.83	578.84
668.17	574.93
668.51	570.87
668.85	566.86
669.19	562.94
669.53	559.07
669.87	555.34
670.21	551.72
670.55	548.10
670.89	544.72
671.23	541.38
671.57	537.89
671.91	534.41
672.25	531.01
672.58	527.60
672.92	524.19
673.26	521.03
673.60	517.95
673.94	514.89
674.28	512.06
674.62	509.19
674.96	506.14
675.30	503.26
675.64	500.36
675.97	497.67
676.31	494.91
676.65	492.08
676.99	489.37
677.33	486.50
677.67	483.78
678.01	480.77
678.34	477.78
678.68	474.93
679.02	472.17
679.36	469.47
679.70	466.75
680.04	464.05
680.37	461.20
680.71	458.50
681.05	455.91
681.39	453.20
681.73	450.52
682.06	448.03
682.40	445.54
682.74	443.02
683.08	440.52
683.42	437.98
683.75	435.52
684.09	432.98
684.43	430.59
684.77	428.12
685.10	425.83
685.44	423.55
685.78	421.34
686.12	419.13
686.45	416.88
686.79	414.61
687.13	412.42
687.46	410.34
687.80	408.17
688.14	405.99
688.48	404.00
688.81	401.84
689.15	399.71
689.49	397.57
689.82	395.53
690.16	393.46
690.50	391.50
690.83	389.62
691.17	387.66
691.51	385.77
691.84	383.95
692.18	382.06
692.52	380.14
692.85	378.25
693.19	376.41
693.52	374.55
693.86	372.76
694.20	371.01
694.53	369.24
694.87	367.42
695.21	365.66
695.54	363.84
695.88	362.15
696.21	360.48
696.55	358.85
696.88	357.22
697.22	355.60
697.56	353.97
697.89	352.28
698.23	350.68
698.56	349.12
698.90	347.55
699.23	345.94
699.57	344.38
699.90	342.82
700.24	341.28
700.58	339.77
700.91	338.29
701.25	336.83
701.58	335.42
701.92	334.08
702.25	332.70
702.59	331.36
702.92	330.00
703.26	328.71
703.59	327.37
703.93	326.19
704.26	324.93
704.60	323.65
704.93	322.42
705.26	321.21
705.60	320.02
705.93	318.87
706.27	317.81
706.60	316.76
706.94	315.71
707.27	314.59
707.61	313.59
707.94	312.57
708.27	311.52
708.61	310.45
708.94	309.44
709.28	308.52
709.61	307.55
709.94	306.62
710.28	305.59
710.61	304.64
710.95	303.53
711.28	302.63
711.61	301.70
711.95	300.80
712.28	299.83
712.61	298.87
712.95	297.93
713.28	297.06
713.61	296.21
713.95	295.33
714.28	294.48
714.61	293.57
714.95	292.71
715.28	291.88
715.61	291.02
715.95	290.18
716.28	289.30
716.61	288.48
716.95	287.69
717.28	286.98
717.61	286.21
717.94	285.52
718.28	284.72
718.61	283.98
718.94	283.27
719.27	282.64
719.61	281.99
719.94	281.37
720.27	280.65
720.60	280.00
720.94	279.37
721.27	278.78
721.60	278.27
721.93	277.69
722.27	277.10
722.60	276.58
722.93	276.01
723.26	275.46
723.59	274.91
723.93	274.36
724.26	273.77
724.59	273.28
724.92	272.77
725.25	272.29
725.59	271.78
725.92	271.31
726.25	270.83
726.58	270.35
726.91	269.85
727.24	269.41
727.57	268.91
727.91	268.45
728.24	268.00
728.57	267.52
728.90	267.06
729.23	266.60
729.56	266.15
729.89	265.68
730.22	265.24
730.55	264.77
730.89	264.30
731.22	263.88
731.55	263.42
731.88	262.97
732.21	262.56
732.54	262.16
732.87	261.74
733.20	261.35
733.53	260.95
733.86	260.56
734.19	260.17
734.52	259.79
734.85	259.47
735.18	259.05
735.51	258.71
735.84	258.35
736.17	258.01
736.50	257.62
736.83	257.40
737.16	257.07
737.49	256.78
737.82	256.47
738.15	256.15
738.48	255.82
738.81	255.51
739.14	255.19
739.47	254.88
739.80	254.55
740.13	254.24
740.46	253.89
740.79	253.54
741.12	253.22
741.45	252.92
741.78	252.58
742.11	252.33
742.44	251.96
742.77	251.69
743.10	251.38
743.43	251.09
743.75	250.70
744.08	250.54
744.41	250.24
744.74	249.97
745.07	249.69
745.40	249.43
745.73	249.18
746.06	248.89
746.39	248.62
746.71	248.37
747.04	248.08
747.37	247.82
747.70	247.62
748.03	247.38
748.36	247.17
748.68	246.92
749.01	246.63
749.34	246.40
749.67	246.15
750.00	245.93
750.33	245.75
750.65	245.52
750.98	245.17
751.31	244.97
751.64	244.75
751.97	244.58
752.29	244.35
752.62	244.13
752.95	243.90
753.28	243.70
753.60	243.47
753.93	243.29
754.26	243.11
754.59	242.88
754.91	242.65
755.24	242.40
755.57	242.19
755.90	242.01
756.22	241.83
756.55	241.63
756.88	241.45
757.20	241.21
757.53	241.01
757.86	240.84
758.19	240.67
758.51	240.49
758.84	240.29
759.17	240.14
759.49	239.97
759.82	239.86
760.15	239.74
760.47	239.62
760.80	239.44
761.13	239.30
761.45	239.17
761.78	239.02
762.11	238.91
762.43	238.77
762.76	238.62
763.08	238.50
763.41	238.37
763.74	238.19
764.06	238.08
764.39	237.95
764.71	237.82
765.04	237.68
765.37	237.56
765.69	237.43
766.02	237.30
766.34	237.16
766.67	237.01
767.00	236.91
767.32	236.85
767.65	236.81
767.97	236.70
768.30	236.60
768.62	236.51
768.95	236.37
769.27	236.29
769.60	236.19
769.92	236.07
770.25	235.96
770.57	235.88
770.90	235.76
771.22	235.67
771.55	235.59
771.87	235.48
772.20	235.40
772.52	235.40
772.85	235.41
773.17	235.33
773.50	235.22
773.82	235.13
774.15	234.98
774.47	234.84
774.80	234.75
775.12	234.66
775.45	234.58
775.77	234.52
776.09	234.48
776.42	234.41
776.74	234.36
777.07	234.27
777.39	234.19
777.72	234.12
778.04	234.07
778.36	233.98
778.69	233.94
779.01	233.88
779.33	233.71
779.66	233.54
779.98	233.45
780.31	233.42
780.63	233.36
780.95	233.30
781.28	233.25
781.60	233.19
781.92	233.12
782.25	233.06
782.57	233.01
782.89	232.92
783.22	232.87
783.54	232.80
783.86	232.74
784.19	232.72
784.51	232.72
784.83	232.65
785.16	232.62
785.48	232.53
785.80	232.45
786.12	232.40
786.45	232.35
786.77	232.29
787.09	232.24
787.42	232.14
787.74	232.08
788.06	231.98
788.38	231.94
788.71	231.91
789.03	231.88
789.35	231.83
789.67	231.77
789.99	231.75
790.32	231.67
790.64	231.66
790.96	231.65
791.28	231.55
791.61	231.51
791.93	231.45
792.25	231.40
792.57	231.45
792.89	231.41
793.21	231.38
793.54	231.34
793.86	231.28
794.18	231.27
794.50	231.22
794.82	231.21
795.14	231.17
795.47	231.11
795.79	231.06
796.11	231.02
796.43	230.99
796.75	230.94
797.07	230.94
797.39	230.89
797.71	230.78
798.04	230.73
798.36	230.67
798.68	230.64
799.00	230.62
799.32	230.57
799.64	230.56
799.96	230.51
800.28	230.51
800.60	230.49
800.92	230.50
801.24	230.46
801.56	230.46
801.89	230.44
802.21	230.43
802.53	230.37
802.85	230.34
803.17	230.36
803.49	230.30
803.81	230.27
804.13	230.24
804.45	230.22
804.77	230.22
805.09	230.22
805.41	230.19
805.73	230.15
806.05	230.08
806.37	230.06
806.69	230.10
807.01	230.07
807.33	230.06
807.65	229.97
807.97	230.02
808.28	229.97
808.60	229.93
808.92	229.86
809.24	229.92
809.56	229.93
809.88	229.85
810.20	229.87
810.52	229.88
810.84	229.85
811.16	229.83
811.48	229.82
811.80	229.84
812.12	229.79
812.43	229.81
812.75	229.80
813.07	229.74
813.39	229.71
813.71	229.71
814.03	229.68
814.35	229.68
814.67	229.61
814.98	229.59
815.30	229.58
815.62	229.59
815.94	229.50
816.26	229.53
816.58	229.53
816.89	229.54
817.21	229.51
817.53	229.52
817.85	229.52
818.17	229.48
818.48	229.41
818.80	229.43
819.12	229.39
819.44	229.35
819.76	229.36
820.07	229.34
820.39	229.30
820.71	229.30
821.03	229.29
821.34	229.24
821.66	229.25
821.98	229.24
822.30	229.21
822.61	229.25
822.93	229.14
823.25	229.12
823.57	229.07
823.88	229.04
824.20	229.00
824.52	229.01
824.83	229.00
825.15	228.99
825.47	228.96
825.79	228.97
826.10	228.95
826.42	228.91
826.74	228.92
827.05	228.90
827.37	228.88
827.69	228.86
828.00	228.86
828.32	228.83
828.64	228.80
828.95	228.86
829.27	228.83
829.58	228.82
829.90	228.79
830.22	228.77
830.53	228.75
830.85	228.71
831.17	228.65
831.48	228.64
831.80	228.63
832.11	228.61
832.43	228.54
832.75	228.54
833.06	228.53
833.38	228.49
833.69	228.47
834.01	228.47
834.32	228.44
834.64	228.41
834.96	228.38
835.27	228.36
835.59	228.30
835.90	228.27
836.22	228.26
836.53	228.25
836.85	228.24
837.16	228.32
837.48	228.34
837.79	228.35
838.11	228.35
838.42	228.35
838.74	228.35
839.05	228.37
839.37	228.38
839.68	228.35
840.00	228.33
840.31	228.33
840.63	228.32
840.94	228.30
841.26	228.27
841.57	228.27
841.88	228.28
842.20	228.25
842.51	228.22
842.83	228.23
843.14	228.31
843.46	228.31
843.77	228.24
844.08	228.20
844.40	228.21
844.71	228.21
845.03	228.16
845.34	228.16
845.65	228.17
845.97	228.16
846.28	228.17
846.60	228.17
846.91	228.17
847.22	228.14
847.54	228.15
847.85	228.19
848.16	228.20
848.48	228.19
848.79	228.22
849.10	228.22
849.42	228.23
849.73	228.15
850.04	228.13
850.36	228.11
850.67	228.15
850.98	228.15
851.30	228.17
851.61	228.18
851.92	228.19
852.23	228.19
852.55	228.20
852.86	228.17
853.17	228.18
853.49	228.20
853.80	228.24
854.11	228.25
854.42	228.28
854.74	228.25
855.05	228.27
855.36	228.24
855.67	228.24
855.99	228.22
856.30	228.33
856.61	228.33
856.92	228.35
857.23	228.34
857.55	228.29
857.86	228.25
858.17	228.27
858.48	228.23
858.79	228.22
859.11	228.22
859.42	228.23
859.73	228.24
860.04	228.25
860.35	228.25
860.66	228.23
860.98	228.22
861.29	228.22
861.60	228.20
861.91	228.21
862.22	228.22
862.53	228.21
862.84	228.12
863.16	228.16
863.47	228.14
863.78	228.12
864.09	228.12
864.40	228.13
864.71	228.11
865.02	228.13
865.33	228.08
865.64	228.06
865.95	228.02
866.27	228.04
866.58	227.96
866.89	227.91
867.20	227.91
867.51	227.84
867.82	227.86
868.13	227.85
868.44	227.86
868.75	227.87
869.06	227.85
869.37	227.80
869.68	227.75
869.99	227.76
870.30	227.73
870.61	227.74
870.92	227.75
871.23	227.74
871.54	227.74
871.85	227.76
872.16	227.77
872.47	227.79
872.78	227.73
873.09	227.77
873.40	227.78
873.71	227.77
874.02	227.80
874.33	227.74
874.64	227.74
874.95	227.72
875.26	227.71
875.56	227.71
875.87	227.74
876.18	227.73
876.49	227.81
876.80	227.83
877.11	227.82
877.42	227.78
877.73	227.80
878.04	227.75
878.35	227.75
878.66	227.74
878.96	227.74
879.27	227.76
879.58	227.73
879.89	227.72
880.20	227.76
880.51	227.76
880.82	227.78
881.12	227.80
881.43	227.78
881.74	227.75
882.05	227.76
882.36	227.77
882.67	227.78
882.97	227.67
883.28	227.67
883.59	227.66
883.90	227.71
884.21	227.72
884.51	227.77
884.82	227.77
885.13	227.77
885.44	227.77
885.74	227.77
886.05	227.80
886.36	227.80
886.67	227.76
886.98	227.83
887.28	227.84
887.59	227.83
887.90	227.85
888.20	227.89
888.51	227.92
888.82	227.89
889.13	227.89
889.43	227.97
889.74	227.96
890.05	227.95
890.35	227.95
890.66	227.97
890.97	227.97
891.28	227.95
891.58	227.96
891.89	227.96
892.20	227.93
892.50	227.91
892.81	227.92
893.12	227.90
893.42	227.86
893.73	227.86
894.04	227.87
894.34	227.88
894.65	227.85
894.95	227.83
895.26	227.82
895.57	227.86
895.87	227.79
896.18	227.79
896.48	227.82
896.79	227.80
897.10	227.81
897.40	227.79
897.71	227.81
898.01	227.83
898.32	227.85
898.63	227.83
898.93	227.84
899.24	227.83
899.54	227.84
899.85	227.84
900.15	227.83
900.46	227.81
900.76	227.81
901.07	227.80
901.38	227.79
901.68	227.81
901.99	227.78
902.29	227.79
902.60	227.78
902.90	227.76
903.21	227.74
903.51	227.73
903.82	227.74
904.12	227.73
904.43	227.69
904.73	227.68
905.03	227.72
905.34	227.79
905.64	227.78
905.95	227.75
906.25	227.73
906.56	227.73
906.86	227.69
907.17	227.68
907.47	227.67
907.77	227.65
908.08	227.60
908.38	227.60
908.69	227.59
908.99	227.59
909.30	227.58
909.60	227.55
909.90	227.53
910.21	227.50
910.51	227.48
910.81	227.48
911.12	227.44
911.42	227.41
911.73	227.33
912.03	227.36
912.33	227.42
912.64	227.40
912.94	227.38
913.24	227.39
913.55	227.40
913.85	227.38
914.15	227.42
914.46	227.47
914.76	227.48
915.06	227.47
915.37	227.48
915.67	227.48
915.97	227.52
916.27	227.49
916.58	227.50
916.88	227.53
917.18	227.53
917.49	227.63
917.79	227.63
918.09	227.64
918.39	227.66
918.70	227.63
919.00	227.62
919.30	227.67
919.60	227.67
919.91	227.65
920.21	227.67
920.51	227.63
920.81	227.60
921.12	227.60
921.42	227.59
921.72	227.62
922.02	227.64
922.32	227.64
922.63	227.66
922.93	227.73
923.23	227.72
923.53	227.75
923.83	227.68
924.13	227.70
924.44	227.72
924.74	227.73
925.04	227.77
925.34	227.79
925.64	227.76
925.94	227.77
926.24	227.84
926.55	227.89
926.85	227.92
927.15	227.95
927.45	227.92
927.75	227.96
928.05	227.91
928.35	227.90
928.65	227.93
928.95	227.96
929.26	227.93
929.56	227.97
929.86	227.96
930.16	227.98
930.46	227.99
930.76	227.99
931.06	227.94
931.36	227.94
931.66	227.96
931.96	227.97
932.26	227.97
932.56	227.92
932.86	227.92
933.16	227.92
933.46	227.89
933.76	227.92
934.06	227.95
934.36	228.00
934.66	227.99
934.96	227.99
935.26	227.95
935.56	227.95
935.86	227.93
936.16	227.91
936.46	227.93
936.76	227.90
937.06	227.88
937.36	227.87
937.66	227.82
937.96	227.81
938.26	227.82
938.56	227.80
938.86	227.79
939.16	227.81
939.46	227.80
939.76	227.82
940.06	227.80
940.35	227.73
940.65	227.68
940.95	227.69
941.25	227.64
941.55	227.63
941.85	227.63
942.15	227.63
942.45	227.63
942.75	227.58
943.04	227.57
943.34	227.56
943.64	227.56
943.94	227.55
944.24	227.53
944.54	227.49
944.84	227.47
945.13	227.44
945.43	227.40
945.73	227.38
946.03	227.34
946.33	227.36
946.62	227.34
946.92	227.31
947.22	227.30
947.52	227.32
947.82	227.33
948.11	227.29
948.41	227.24
948.71	227.24
949.01	227.23
949.31	227.25
949.60	227.25
949.90	227.24
950.20	227.25
950.50	227.26
950.79	227.27
951.09	227.28
951.39	227.30
951.69	227.27
951.98	227.30
952.28	227.32
952.58	227.28
952.87	227.28
953.17	227.33
953.47	227.31
953.76	227.29
954.06	227.31
954.36	227.30
954.66	227.32
954.95	227.31
955.25	227.32
955.55	227.34
955.84	227.33
956.14	227.36
956.44	227.34
956.73	227.35
957.03	227.34
957.32	227.37
957.62	227.36
957.92	227.41
958.21	227.43
958.51	227.55
958.81	227.55
959.10	227.55
959.40	227.56
959.69	227.60
959.99	227.60
960.29	227.58
960.58	227.60
960.88	227.65
961.17	227.68
961.47	227.69
961.76	227.70
962.06	227.73
962.36	227.70
962.65	227.72
962.95	227.72
963.24	227.75
963.54	227.75
963.83	227.76
964.13	227.73
964.42	227.67
964.72	227.59
965.01	227.64
965.31	227.66
965.60	227.65
965.90	227.70
966.19	227.70
966.49	227.67
966.78	227.68
967.08	227.68
967.37	227.69
967.67	227.69
967.96	227.66
968.26	227.67
968.55	227.70
968.85	227.71
969.14	227.71
969.43	227.67
969.73	227.64
970.02	227.62
970.32	227.62
970.61	227.62
970.91	227.57
971.20	227.57
971.49	227.57
971.79	227.59
972.08	227.51
972.38	227.54
972.67	227.54
972.96	227.54
973.26	227.50
973.55	227.49
973.85	227.49
974.14	227.50
974.43	227.49
974.73	227.41
975.02	227.38
975.31	227.38
975.61	227.38
975.90	227.38
976.19	227.35
976.49	227.35
976.78	227.35
977.07	227.34
977.37	227.33
977.66	227.31
977.95	227.24
978.24	227.23
978.54	227.24
978.83	227.22
979.12	227.20
979.42	227.19
979.71	227.15
980.00	227.13
980.29	227.13
980.59	227.10
980.88	227.14
981.17	227.15
981.46	227.10
981.76	227.10
982.05	227.12
982.34	227.11
982.63	227.10
982.93	227.13
983.22	227.12
983.51	227.10
983.80	227.07
984.09	227.14
984.39	227.14
984.68	227.07
984.97	227.07
985.26	227.06
985.55	227.08
985.85	227.07
986.14	227.06
986.43	227.07
986.72	227.05
987.01	227.03
987.30	227.01
987.59	227.03
987.89	227.02
988.18	226.98
988.47	226.99
988.76	226.95
989.05	226.92
989.34	226.91
989.63	226.92
989.92	226.93
990.22	226.88
990.51	226.89
990.80	226.89
991.09	226.91
991.38	226.90
991.67	226.87
991.96	226.87
992.25	226.88
992.54	226.87
992.83	226.88
993.12	226.86
993.41	226.88
993.70	226.93
993.99	226.95
994.28	226.97
994.58	227.01
994.87	227.04
995.16	227.05
995.45	227.03
995.74	227.04
996.03	227.07
996.32	227.09
996.61	227.10
996.90	227.14
997.19	227.15
997.48	227.18
997.77	227.21
998.06	227.24
998.34	227.26
998.63	227.25
998.92	227.27
999.21	227.32
999.50	227.31
999.79	227.32
1000.08	227.35
1000.37	227.39
1000.66	227.38
1000.95	227.43
1001.24	227.43
1001.53	227.52
1001.82	227.51
1002.11	227.49
1002.40	227.55
1002.68	227.60
1002.97	227.69
1003.26	227.70
1003.55	227.69
1003.84	227.69
1004.13	227.73
1004.42	227.74
1004.71	227.76
1004.99	227.77
1005.28	227.80
1005.57	227.82
1005.86	227.79
1006.15	227.74
1006.44	227.74
1006.72	227.75
1007.01	227.75
1007.30	227.77
1007.59	227.74
1007.88	227.77
1008.17	227.78
1008.45	227.76
1008.74	227.72
1009.03	227.66
1009.32	227.66
1009.60	227.65
1009.89	227.61
1010.18	227.55
1010.47	227.55
1010.76	227.56
1011.04	227.54
1011.33	227.55
1011.62	227.55
1011.91	227.55
1012.19	227.61
1012.48	227.62
1012.77	227.63
1013.05	227.65
1013.34	227.64
1013.63	227.65
1013.92	227.63
1014.20	227.63
1014.49	227.62
1014.78	227.62
1015.06	227.59
1015.35	227.58
1015.64	227.59
1015.92	227.66
1016.21	227.66
1016.50	227.63
1016.78	227.61
1017.07	227.59
1017.36	227.57
1017.64	227.53
1017.93	227.55
1018.22	227.51
1018.50	227.46
1018.79	227.45
1019.08	227.36
1019.36	227.36
1019.65	227.34
1019.93	227.34
1020.22	227.30
1020.51	227.32
1020.79	227.26
1021.08	227.51
1021.36	227.12
1021.65	227.28
1021.94	226.90
1022.22	227.39
1022.51	227.28
1022.79	227.46
1023.08	226.64
1023.36	227.92
1023.65	226.60
>>>>>End Processed Spectral Data<<<<<
