SpectraSuite Data File
++++++++++++++++++++++++++++++++++++
Date: Fri Feb 01 17:27:20 EST 2013
User: group
Dark Spectrum Present: No
Reference Spectrum Present: No
Number of Sampled Component Spectra: 1
Spectrometers: USB2E7196
Integration Time (usec): 35000 (USB2E7196)
Spectra Averaged: 100 (USB2E7196)
Boxcar Smoothing: 10 (USB2E7196)
Correct for Electrical Dark: No (USB2E7196)
Strobe/Lamp Enabled: No (USB2E7196)
Correct for Detector Non-linearity: No (USB2E7196)
Correct for Stray Light: No (USB2E7196)
Number of Pixels in Processed Spectrum: 2048
>>>>>Begin Processed Spectral Data<<<<<
339.09	0.00
339.48	213.03
339.86	214.11
340.24	215.60
340.63	217.37
341.01	219.83
341.39	219.48
341.78	221.06
342.16	222.45
342.54	222.25
342.93	211.24
343.31	221.91
343.69	222.42
344.07	222.92
344.46	223.35
344.84	223.72
345.22	223.97
345.60	224.22
345.99	224.39
346.37	224.50
346.75	224.61
347.13	224.68
347.52	224.73
347.90	224.81
348.28	224.84
348.66	224.86
349.05	224.84
349.43	224.88
349.81	224.90
350.19	224.96
350.57	224.99
350.96	225.04
351.34	225.12
351.72	225.22
352.10	225.28
352.48	225.32
352.87	225.36
353.25	225.41
353.63	225.48
354.01	225.54
354.39	225.63
354.77	225.70
355.15	225.81
355.54	225.83
355.92	225.87
356.30	225.95
356.68	226.08
357.06	226.13
357.44	226.18
357.82	226.25
358.20	226.33
358.58	226.42
358.97	226.47
359.35	226.54
359.73	226.63
360.11	226.70
360.49	226.76
360.87	226.83
361.25	226.87
361.63	226.96
362.01	227.02
362.39	227.02
362.77	227.07
363.15	227.07
363.53	227.14
363.91	227.17
364.29	227.22
364.67	227.18
365.05	227.24
365.43	227.27
365.81	227.29
366.19	227.33
366.57	227.39
366.95	227.39
367.33	227.38
367.71	227.37
368.09	227.40
368.47	227.39
368.85	227.37
369.23	227.40
369.61	227.34
369.99	227.37
370.37	227.39
370.75	227.42
371.13	227.41
371.51	227.37
371.89	227.33
372.27	227.31
372.65	227.25
373.03	227.20
373.41	227.13
373.78	227.05
374.16	226.97
374.54	226.89
374.92	226.82
375.30	226.76
375.68	226.69
376.06	226.62
376.44	226.57
376.82	226.51
377.19	226.44
377.57	226.38
377.95	226.27
378.33	226.18
378.71	226.08
379.09	226.01
379.47	225.97
379.84	225.92
380.22	225.84
380.60	225.78
380.98	225.73
381.36	225.67
381.73	225.61
382.11	225.57
382.49	225.49
382.87	225.45
383.25	225.38
383.62	225.42
384.00	225.34
384.38	225.27
384.76	225.25
385.13	225.22
385.51	225.17
385.89	225.14
386.27	225.10
386.64	225.04
387.02	224.98
387.40	224.91
387.78	224.89
388.15	224.85
388.53	224.79
388.91	224.74
389.29	224.70
389.66	224.71
390.04	224.69
390.42	224.70
390.79	224.68
391.17	224.68
391.55	224.55
391.92	224.53
392.30	224.54
392.68	224.48
393.05	224.51
393.43	224.50
393.81	224.47
394.18	224.46
394.56	224.46
394.94	224.50
395.31	224.53
395.69	224.55
396.06	224.58
396.44	224.61
396.82	224.61
397.19	224.68
397.57	224.68
397.95	224.71
398.32	224.72
398.70	224.75
399.07	224.81
399.45	224.87
399.82	224.97
400.20	225.02
400.58	225.10
400.95	225.12
401.33	225.22
401.70	225.36
402.08	225.45
402.45	225.57
402.83	225.66
403.20	225.72
403.58	225.80
403.95	225.90
404.33	226.00
404.71	226.15
405.08	226.30
405.46	226.45
405.83	226.57
406.21	226.69
406.58	226.85
406.96	227.00
407.33	227.13
407.70	227.29
408.08	227.54
408.45	227.77
408.83	227.98
409.20	228.19
409.58	228.35
409.95	228.61
410.33	228.87
410.70	229.12
411.08	229.42
411.45	229.72
411.82	230.04
412.20	230.43
412.57	230.86
412.95	231.17
413.32	231.58
413.69	232.01
414.07	232.46
414.44	232.95
414.82	233.44
415.19	234.04
415.56	234.62
415.94	235.21
416.31	235.84
416.68	236.49
417.06	237.22
417.43	237.96
417.81	238.74
418.18	239.54
418.55	240.43
418.93	241.36
419.30	242.29
419.67	243.27
420.04	244.28
420.42	245.34
420.79	246.57
421.16	247.78
421.54	249.02
421.91	250.32
422.28	251.64
422.66	253.09
423.03	254.48
423.40	255.89
423.77	257.37
424.15	258.88
424.52	260.42
424.89	262.11
425.26	263.72
425.64	265.25
426.01	266.91
426.38	268.64
426.75	270.39
427.13	272.21
427.50	274.11
427.87	276.04
428.24	277.99
428.61	279.82
428.99	281.84
429.36	284.02
429.73	286.11
430.10	288.23
430.47	290.32
430.85	292.48
431.22	294.78
431.59	297.24
431.96	299.58
432.33	302.22
432.70	304.70
433.08	307.61
433.45	310.36
433.82	313.07
434.19	316.06
434.56	318.98
434.93	321.74
435.30	324.44
435.68	327.44
436.05	330.33
436.42	333.20
436.79	335.83
437.16	338.64
437.53	341.64
437.90	344.58
438.27	347.46
438.64	350.40
439.01	353.11
439.38	355.46
439.75	357.73
440.13	360.29
440.50	362.69
440.87	364.58
441.24	366.58
441.61	368.84
441.98	370.40
442.35	372.27
442.72	374.18
443.09	376.11
443.46	377.15
443.83	377.80
444.20	378.35
444.57	379.25
444.94	379.59
445.31	379.90
445.68	380.24
446.05	380.32
446.42	379.93
446.79	379.53
447.16	379.07
447.53	378.74
447.90	377.51
448.27	376.35
448.64	374.80
449.01	373.62
449.37	371.59
449.74	369.59
450.11	367.29
450.48	364.75
450.85	362.10
451.22	359.91
451.59	357.88
451.96	355.89
452.33	353.14
452.70	350.65
453.07	347.74
453.43	344.72
453.80	341.86
454.17	339.08
454.54	336.41
454.91	333.60
455.28	330.84
455.65	328.27
456.02	325.71
456.38	323.46
456.75	320.71
457.12	318.35
457.49	316.06
457.86	313.79
458.23	311.89
458.59	309.78
458.96	307.58
459.33	305.59
459.70	303.66
460.07	302.11
460.43	300.33
460.80	298.64
461.17	297.14
461.54	295.60
461.91	294.14
462.27	292.63
462.64	291.32
463.01	289.91
463.38	288.57
463.74	287.15
464.11	285.93
464.48	284.87
464.85	283.74
465.21	282.84
465.58	281.88
465.95	280.71
466.32	279.74
466.68	278.82
467.05	277.86
467.42	276.91
467.78	275.90
468.15	275.00
468.52	274.36
468.88	273.46
469.25	272.63
469.62	271.97
469.98	271.31
470.35	270.64
470.72	270.00
471.08	269.32
471.45	268.75
471.82	268.20
472.18	267.58
472.55	267.12
472.92	266.58
473.28	266.11
473.65	265.65
474.02	265.19
474.38	264.82
474.75	264.48
475.11	264.16
475.48	263.89
475.85	263.68
476.21	263.41
476.58	263.24
476.94	263.12
477.31	262.95
477.67	262.76
478.04	262.63
478.41	262.56
478.77	262.59
479.14	262.51
479.50	262.52
479.87	262.60
480.23	262.68
480.60	262.76
480.96	262.88
481.33	263.08
481.69	263.25
482.06	263.44
482.42	263.67
482.79	263.92
483.15	264.27
483.52	264.63
483.88	264.99
484.25	265.39
484.61	265.82
484.98	266.26
485.34	266.84
485.71	267.44
486.07	268.06
486.44	268.66
486.80	269.41
487.17	270.11
487.53	270.91
487.90	271.74
488.26	272.66
488.62	273.65
488.99	274.64
489.35	275.75
489.72	276.87
490.08	278.04
490.44	279.26
490.81	280.56
491.17	281.95
491.54	283.44
491.90	284.95
492.26	286.58
492.63	288.30
492.99	290.11
493.36	291.97
493.72	294.00
494.08	296.04
494.45	298.26
494.81	300.61
495.17	303.04
495.54	305.63
495.90	308.26
496.26	310.98
496.63	313.90
496.99	316.92
497.35	320.19
497.72	323.53
498.08	327.05
498.44	330.66
498.80	334.52
499.17	338.51
499.53	342.63
499.89	346.95
500.26	351.35
500.62	355.90
500.98	360.82
501.34	365.81
501.71	371.08
502.07	376.44
502.43	381.97
502.79	387.69
503.16	393.65
503.52	399.93
503.88	406.25
504.24	412.77
504.60	419.53
504.97	426.51
505.33	433.77
505.69	441.33
506.05	449.02
506.41	456.75
506.78	464.74
507.14	473.08
507.50	481.66
507.86	490.52
508.22	499.59
508.59	508.60
508.95	518.01
509.31	527.66
509.67	537.62
510.03	547.74
510.39	558.12
510.75	568.64
511.12	579.31
511.48	590.35
511.84	601.64
512.20	612.97
512.56	624.61
512.92	636.49
513.28	648.58
513.64	660.81
514.00	673.20
514.37	685.82
514.73	698.49
515.09	711.18
515.45	724.16
515.81	737.38
516.17	750.94
516.53	764.76
516.89	778.60
517.25	792.37
517.61	806.33
517.97	820.37
518.33	834.42
518.69	848.77
519.05	863.40
519.41	878.11
519.77	893.22
520.13	908.28
520.49	923.29
520.85	938.16
521.21	953.30
521.57	969.11
521.93	984.51
522.29	1000.45
522.65	1016.29
523.01	1032.02
523.37	1047.65
523.73	1063.45
524.09	1078.99
524.45	1094.72
524.81	1110.89
525.17	1127.23
525.53	1143.68
525.89	1160.12
526.25	1176.53
526.61	1192.41
526.97	1208.68
527.33	1224.72
527.68	1240.81
528.04	1256.84
528.40	1272.96
528.76	1289.59
529.12	1305.71
529.48	1322.13
529.84	1337.74
530.20	1353.85
530.56	1370.43
530.91	1387.41
531.27	1403.80
531.63	1419.86
531.99	1436.11
532.35	1451.71
532.71	1467.25
533.07	1483.04
533.42	1498.68
533.78	1514.34
534.14	1530.32
534.50	1545.34
534.86	1560.86
535.21	1575.84
535.57	1591.33
535.93	1606.55
536.29	1621.05
536.65	1635.73
537.00	1650.22
537.36	1665.25
537.72	1679.56
538.08	1693.80
538.44	1707.29
538.79	1720.92
539.15	1734.29
539.51	1747.71
539.87	1761.80
540.22	1775.22
540.58	1788.81
540.94	1801.84
541.29	1814.49
541.65	1827.04
542.01	1839.97
542.37	1852.18
542.72	1864.37
543.08	1876.14
543.44	1888.40
543.79	1899.73
544.15	1910.79
544.51	1922.25
544.87	1933.09
545.22	1943.86
545.58	1954.04
545.94	1963.83
546.29	1973.70
546.65	1983.77
547.01	1993.27
547.36	2002.03
547.72	2010.79
548.07	2018.88
548.43	2027.08
548.79	2035.10
549.14	2042.79
549.50	2050.28
549.86	2058.00
550.21	2065.44
550.57	2072.83
550.92	2079.72
551.28	2086.94
551.64	2094.16
551.99	2100.89
552.35	2107.42
552.70	2113.93
553.06	2120.19
553.41	2126.77
553.77	2132.98
554.13	2139.29
554.48	2145.53
554.84	2151.44
555.19	2156.83
555.55	2162.24
555.90	2167.02
556.26	2172.49
556.61	2177.45
556.97	2182.32
557.32	2186.83
557.68	2191.41
558.03	2195.88
558.39	2199.87
558.74	2204.72
559.10	2208.92
559.45	2212.94
559.81	2217.47
560.16	2221.49
560.52	2225.05
560.87	2228.79
561.23	2231.92
561.58	2235.07
561.94	2238.00
562.29	2240.58
562.64	2243.94
563.00	2246.87
563.35	2250.81
563.71	2254.17
564.06	2257.67
564.42	2260.87
564.77	2263.93
565.12	2266.70
565.48	2269.13
565.83	2271.46
566.19	2273.30
566.54	2274.61
566.89	2276.39
567.25	2277.56
567.60	2279.33
567.96	2281.54
568.31	2282.81
568.66	2284.38
569.02	2285.45
569.37	2286.25
569.72	2287.78
570.08	2288.22
570.43	2288.62
570.78	2288.46
571.14	2287.42
571.49	2286.45
571.84	2286.43
572.20	2285.75
572.55	2285.08
572.90	2283.87
573.26	2282.94
573.61	2281.44
573.96	2280.20
574.31	2277.42
574.67	2274.82
575.02	2271.61
575.37	2268.41
575.72	2265.06
576.08	2261.86
576.43	2258.78
576.78	2255.62
577.13	2252.39
577.49	2249.48
577.84	2246.42
578.19	2242.99
578.54	2239.73
578.90	2236.08
579.25	2230.85
579.60	2226.13
579.95	2221.44
580.30	2216.82
580.66	2211.85
581.01	2207.28
581.36	2202.61
581.71	2198.83
582.06	2194.72
582.42	2190.60
582.77	2185.79
583.12	2181.64
583.47	2177.45
583.82	2172.96
584.17	2167.99
584.53	2162.92
584.88	2157.71
585.23	2152.27
585.58	2147.09
585.93	2141.83
586.28	2136.99
586.63	2132.17
586.98	2127.34
587.34	2122.73
587.69	2117.95
588.04	2113.09
588.39	2107.84
588.74	2101.54
589.09	2095.61
589.44	2089.12
589.79	2083.13
590.14	2077.73
590.49	2071.25
590.84	2065.04
591.19	2059.25
591.54	2053.02
591.89	2045.94
592.25	2039.37
592.60	2032.48
592.95	2025.21
593.30	2018.19
593.65	2011.03
594.00	2004.27
594.35	1997.10
594.70	1989.23
595.05	1982.51
595.40	1975.34
595.75	1967.79
596.10	1961.86
596.45	1955.32
596.80	1949.23
597.15	1942.96
597.50	1936.15
597.85	1929.83
598.19	1923.36
598.54	1916.43
598.89	1909.84
599.24	1904.12
599.59	1897.76
599.94	1891.40
600.29	1885.18
600.64	1878.47
600.99	1871.17
601.34	1864.58
601.69	1857.79
602.04	1851.19
602.39	1843.77
602.74	1837.06
603.08	1830.56
603.43	1823.86
603.78	1816.58
604.13	1809.46
604.48	1802.26
604.83	1795.39
605.18	1788.64
605.53	1780.75
605.87	1772.81
606.22	1765.53
606.57	1757.52
606.92	1749.94
607.27	1742.93
607.62	1735.99
607.96	1729.00
608.31	1722.44
608.66	1714.82
609.01	1707.35
609.36	1699.72
609.70	1691.79
610.05	1683.78
610.40	1676.04
610.75	1667.74
611.10	1660.07
611.44	1651.49
611.79	1643.39
612.14	1634.66
612.49	1625.30
612.83	1616.69
613.18	1608.40
613.53	1600.25
613.88	1591.67
614.22	1583.45
614.57	1574.68
614.92	1566.60
615.27	1559.06
615.61	1550.66
615.96	1542.41
616.31	1534.68
616.65	1527.31
617.00	1519.50
617.35	1511.66
617.70	1503.31
618.04	1494.67
618.39	1486.38
618.74	1478.78
619.08	1470.35
619.43	1462.66
619.78	1455.64
620.12	1448.42
620.47	1440.84
620.82	1432.54
621.16	1425.01
621.51	1417.15
621.85	1409.50
622.20	1400.90
622.55	1392.26
622.89	1384.33
623.24	1376.71
623.59	1369.17
623.93	1361.54
624.28	1354.24
624.62	1346.67
624.97	1339.43
625.32	1332.63
625.66	1325.45
626.01	1318.22
626.35	1310.89
626.70	1303.04
627.04	1295.21
627.39	1287.38
627.73	1279.93
628.08	1273.08
628.43	1265.77
628.77	1258.46
629.12	1250.91
629.46	1243.62
629.81	1236.05
630.15	1228.65
630.50	1221.06
630.84	1212.77
631.19	1204.68
631.53	1197.04
631.88	1189.23
632.22	1181.44
632.57	1174.01
632.91	1166.33
633.26	1158.88
633.60	1151.30
633.95	1144.06
634.29	1137.02
634.64	1130.23
634.98	1122.72
635.32	1115.39
635.67	1108.66
636.01	1101.91
636.36	1095.01
636.70	1088.48
637.05	1081.84
637.39	1075.27
637.73	1068.78
638.08	1062.82
638.42	1056.78
638.77	1050.36
639.11	1043.91
639.45	1037.51
639.80	1030.82
640.14	1024.45
640.49	1017.78
640.83	1011.40
641.17	1005.19
641.52	998.78
641.86	992.25
642.20	986.37
642.55	979.97
642.89	973.54
643.23	966.82
643.58	961.00
643.92	954.71
644.26	948.80
644.61	942.74
644.95	936.76
645.29	930.20
645.64	923.47
645.98	917.05
646.32	911.00
646.66	904.86
647.01	899.05
647.35	893.29
647.69	887.39
648.04	881.85
648.38	876.00
648.72	870.04
649.06	864.07
649.41	858.15
649.75	852.25
650.09	846.20
650.43	840.46
650.78	834.26
651.12	828.32
651.46	822.56
651.80	816.89
652.14	811.37
652.49	805.92
652.83	800.64
653.17	795.06
653.51	789.46
653.85	784.06
654.20	778.36
654.54	772.30
654.88	766.54
655.22	760.52
655.56	754.79
655.90	749.33
656.25	744.06
656.59	738.69
656.93	733.59
657.27	728.46
657.61	723.03
657.95	717.92
658.29	712.89
658.64	707.52
658.98	702.05
659.32	696.61
659.66	691.43
660.00	686.20
660.34	681.23
660.68	676.33
661.02	671.28
661.36	666.60
661.70	662.13
662.05	657.82
662.39	653.57
662.73	649.07
663.07	644.65
663.41	640.14
663.75	635.67
664.09	631.04
664.43	626.61
664.77	622.53
665.11	618.26
665.45	614.09
665.79	610.05
666.13	606.02
666.47	601.83
666.81	597.72
667.15	593.58
667.49	589.63
667.83	585.66
668.17	581.70
668.51	577.61
668.85	573.55
669.19	569.57
669.53	565.71
669.87	561.91
670.21	558.13
670.55	554.47
670.89	550.98
671.23	547.53
671.57	543.96
671.91	540.38
672.25	536.82
672.58	533.24
672.92	529.73
673.26	526.44
673.60	523.25
673.94	520.10
674.28	517.06
674.62	514.03
674.96	510.96
675.30	508.06
675.64	505.17
675.97	502.38
676.31	499.52
676.65	496.58
676.99	493.79
677.33	490.89
677.67	488.05
678.01	485.04
678.34	482.09
678.68	479.22
679.02	476.38
679.36	473.54
679.70	470.79
680.04	468.03
680.37	465.24
680.71	462.41
681.05	459.74
681.39	457.07
681.73	454.40
682.06	451.84
682.40	449.29
682.74	446.67
683.08	444.15
683.42	441.53
683.75	439.01
684.09	436.41
684.43	433.93
684.77	431.46
685.10	429.04
685.44	426.63
685.78	424.29
686.12	422.00
686.45	419.74
686.79	417.45
687.13	415.23
687.46	412.99
687.80	410.81
688.14	408.53
688.48	406.42
688.81	404.18
689.15	401.95
689.49	399.71
689.82	397.59
690.16	395.37
690.50	393.37
690.83	391.45
691.17	389.43
691.51	387.53
691.84	385.64
692.18	383.71
692.52	381.81
692.85	379.90
693.19	378.01
693.52	376.17
693.86	374.30
694.20	372.48
694.53	370.69
694.87	368.81
695.21	367.05
695.54	365.20
695.88	363.42
696.21	361.69
696.55	359.98
696.88	358.29
697.22	356.57
697.56	354.90
697.89	353.21
698.23	351.58
698.56	349.91
698.90	348.28
699.23	346.62
699.57	345.01
699.90	343.39
700.24	341.84
700.58	340.27
700.91	338.77
701.25	337.33
701.58	335.97
701.92	334.58
702.25	333.13
702.59	331.75
702.92	330.47
703.26	329.16
703.59	327.92
703.93	326.72
704.26	325.52
704.60	324.25
704.93	322.98
705.26	321.71
705.60	320.51
705.93	319.34
706.27	318.29
706.60	317.19
706.94	316.13
707.27	314.96
707.61	313.89
707.94	312.83
708.27	311.71
708.61	310.57
708.94	309.59
709.28	308.59
709.61	307.59
709.94	306.60
710.28	305.59
710.61	304.56
710.95	303.41
711.28	302.46
711.61	301.51
711.95	300.55
712.28	299.60
712.61	298.65
712.95	297.73
713.28	296.83
713.61	295.90
713.95	294.99
714.28	294.15
714.61	293.23
714.95	292.32
715.28	291.46
715.61	290.56
715.95	289.62
716.28	288.75
716.61	287.93
716.95	287.05
717.28	286.26
717.61	285.50
717.94	284.78
718.28	283.97
718.61	283.25
718.94	282.50
719.27	281.85
719.61	281.14
719.94	280.42
720.27	279.66
720.60	278.95
720.94	278.32
721.27	277.69
721.60	277.09
721.93	276.54
722.27	276.00
722.60	275.43
722.93	274.87
723.26	274.34
723.59	273.75
723.93	273.19
724.26	272.60
724.59	272.03
724.92	271.50
725.25	270.99
725.59	270.42
725.92	269.94
726.25	269.38
726.58	268.91
726.91	268.44
727.24	267.97
727.57	267.50
727.91	266.96
728.24	266.47
728.57	266.00
728.90	265.51
729.23	264.97
729.56	264.55
729.89	264.08
730.22	263.59
730.55	263.10
730.89	262.65
731.22	262.19
731.55	261.70
731.88	261.25
732.21	260.82
732.54	260.37
732.87	259.89
733.20	259.48
733.53	259.04
733.86	258.64
734.19	258.22
734.52	257.88
734.85	257.57
735.18	257.19
735.51	256.85
735.84	256.44
736.17	256.08
736.50	255.66
736.83	255.42
737.16	255.08
737.49	254.73
737.82	254.34
738.15	254.01
738.48	253.68
738.81	253.36
739.14	253.03
739.47	252.70
739.80	252.40
740.13	252.09
740.46	251.76
740.79	251.45
741.12	251.14
741.45	250.78
741.78	250.43
742.11	250.13
742.44	249.77
742.77	249.49
743.10	249.17
743.43	248.87
743.75	248.48
744.08	248.31
744.41	248.06
744.74	247.81
745.07	247.55
745.40	247.32
745.73	247.08
746.06	246.82
746.39	246.55
746.71	246.26
747.04	245.99
747.37	245.73
747.70	245.48
748.03	245.23
748.36	245.00
748.68	244.77
749.01	244.52
749.34	244.27
749.67	244.03
750.00	243.80
750.33	243.64
750.65	243.41
750.98	243.06
751.31	242.81
751.64	242.62
751.97	242.44
752.29	242.19
752.62	241.92
752.95	241.68
753.28	241.45
753.60	241.26
753.93	241.11
754.26	240.88
754.59	240.66
754.91	240.46
755.24	240.23
755.57	240.02
755.90	239.83
756.22	239.65
756.55	239.45
756.88	239.27
757.20	239.01
757.53	238.83
757.86	238.65
758.19	238.50
758.51	238.32
758.84	238.09
759.17	237.91
759.49	237.75
759.82	237.64
760.15	237.52
760.47	237.37
760.80	237.18
761.13	237.07
761.45	236.91
761.78	236.73
762.11	236.62
762.43	236.47
762.76	236.33
763.08	236.19
763.41	236.05
763.74	235.89
764.06	235.79
764.39	235.59
764.71	235.47
765.04	235.32
765.37	235.22
765.69	235.12
766.02	234.97
766.34	234.86
766.67	234.72
767.00	234.60
767.32	234.54
767.65	234.47
767.97	234.34
768.30	234.27
768.62	234.14
768.95	234.02
769.27	233.94
769.60	233.87
769.92	233.76
770.25	233.64
770.57	233.57
770.90	233.46
771.22	233.43
771.55	233.32
771.87	233.24
772.20	233.12
772.52	233.10
772.85	233.15
773.17	233.07
773.50	232.96
773.82	232.84
774.15	232.72
774.47	232.60
774.80	232.52
775.12	232.41
775.45	232.37
775.77	232.27
776.09	232.20
776.42	232.11
776.74	232.06
777.07	232.01
777.39	231.93
777.72	231.85
778.04	231.80
778.36	231.75
778.69	231.68
779.01	231.60
779.33	231.42
779.66	231.27
779.98	231.20
780.31	231.14
780.63	231.11
780.95	231.07
781.28	231.02
781.60	230.97
781.92	230.92
782.25	230.86
782.57	230.81
782.89	230.74
783.22	230.63
783.54	230.56
783.86	230.49
784.19	230.42
784.51	230.38
784.83	230.28
785.16	230.24
785.48	230.19
785.80	230.16
786.12	230.11
786.45	230.05
786.77	229.98
787.09	229.93
787.42	229.88
787.74	229.82
788.06	229.79
788.38	229.71
788.71	229.65
789.03	229.61
789.35	229.55
789.67	229.47
789.99	229.48
790.32	229.41
790.64	229.37
790.96	229.42
791.28	229.34
791.61	229.32
791.93	229.27
792.25	229.21
792.57	229.27
792.89	229.22
793.21	229.19
793.54	229.14
793.86	229.09
794.18	229.06
794.50	229.01
794.82	228.93
795.14	228.93
795.47	228.90
795.79	228.85
796.11	228.80
796.43	228.77
796.75	228.73
797.07	228.71
797.39	228.69
797.71	228.59
798.04	228.55
798.36	228.50
798.68	228.46
799.00	228.44
799.32	228.34
799.64	228.32
799.96	228.28
800.28	228.27
800.60	228.26
800.92	228.21
801.24	228.17
801.56	228.14
801.89	228.06
802.21	228.02
802.53	227.97
802.85	227.97
803.17	227.99
803.49	227.88
803.81	227.85
804.13	227.82
804.45	227.74
804.77	227.71
805.09	227.66
805.41	227.61
805.73	227.58
806.05	227.49
806.37	227.45
806.69	227.40
807.01	227.36
807.33	227.35
807.65	227.27
807.97	227.31
808.28	227.27
808.60	227.27
808.92	227.24
809.24	227.28
809.56	227.24
809.88	227.17
810.20	227.17
810.52	227.15
810.84	227.10
811.16	227.08
811.48	227.05
811.80	227.07
812.12	227.03
812.43	227.03
812.75	227.02
813.07	227.01
813.39	226.99
813.71	226.97
814.03	226.96
814.35	226.97
814.67	226.90
814.98	226.86
815.30	226.84
815.62	226.87
815.94	226.79
816.26	226.82
816.58	226.78
816.89	226.80
817.21	226.74
817.53	226.75
817.85	226.75
818.17	226.75
818.48	226.67
818.80	226.71
819.12	226.63
819.44	226.65
819.76	226.64
820.07	226.64
820.39	226.61
820.71	226.58
821.03	226.56
821.34	226.56
821.66	226.59
821.98	226.60
822.30	226.52
822.61	226.59
822.93	226.54
823.25	226.55
823.57	226.52
823.88	226.56
824.20	226.54
824.52	226.54
824.83	226.55
825.15	226.59
825.47	226.55
825.79	226.59
826.10	226.53
826.42	226.50
826.74	226.48
827.05	226.46
827.37	226.43
827.69	226.42
828.00	226.41
828.32	226.38
828.64	226.31
828.95	226.36
829.27	226.30
829.58	226.30
829.90	226.28
830.22	226.26
830.53	226.23
830.85	226.23
831.17	226.18
831.48	226.14
831.80	226.11
832.11	226.06
832.43	226.04
832.75	226.02
833.06	226.09
833.38	226.05
833.69	226.04
834.01	226.03
834.32	226.02
834.64	225.96
834.96	225.96
835.27	225.96
835.59	225.90
835.90	225.83
836.22	225.77
836.53	225.73
836.85	225.70
837.16	225.78
837.48	225.73
837.79	225.77
838.11	225.74
838.42	225.72
838.74	225.76
839.05	225.72
839.37	225.70
839.68	225.61
840.00	225.60
840.31	225.58
840.63	225.55
840.94	225.51
841.26	225.50
841.57	225.48
841.88	225.47
842.20	225.44
842.51	225.44
842.83	225.44
843.14	225.52
843.46	225.51
843.77	225.43
844.08	225.42
844.40	225.36
844.71	225.34
845.03	225.32
845.34	225.29
845.65	225.29
845.97	225.30
846.28	225.31
846.60	225.30
846.91	225.29
847.22	225.30
847.54	225.32
847.85	225.32
848.16	225.26
848.48	225.25
848.79	225.30
849.10	225.29
849.42	225.30
849.73	225.20
850.04	225.22
850.36	225.17
850.67	225.18
850.98	225.18
851.30	225.19
851.61	225.18
851.92	225.17
852.23	225.19
852.55	225.19
852.86	225.19
853.17	225.22
853.49	225.23
853.80	225.24
854.11	225.27
854.42	225.29
854.74	225.30
855.05	225.30
855.36	225.26
855.67	225.26
855.99	225.26
856.30	225.39
856.61	225.38
856.92	225.41
857.23	225.40
857.55	225.41
857.86	225.38
858.17	225.40
858.48	225.41
858.79	225.36
859.11	225.37
859.42	225.35
859.73	225.34
860.04	225.34
860.35	225.31
860.66	225.26
860.98	225.28
861.29	225.29
861.60	225.29
861.91	225.34
862.22	225.34
862.53	225.33
862.84	225.23
863.16	225.28
863.47	225.26
863.78	225.28
864.09	225.28
864.40	225.36
864.71	225.36
865.02	225.35
865.33	225.38
865.64	225.35
865.95	225.38
866.27	225.41
866.58	225.38
866.89	225.39
867.20	225.38
867.51	225.35
867.82	225.38
868.13	225.42
868.44	225.37
868.75	225.39
869.06	225.41
869.37	225.41
869.68	225.37
869.99	225.38
870.30	225.41
870.61	225.41
870.92	225.37
871.23	225.35
871.54	225.35
871.85	225.37
872.16	225.39
872.47	225.38
872.78	225.34
873.09	225.36
873.40	225.36
873.71	225.37
874.02	225.37
874.33	225.33
874.64	225.28
874.95	225.29
875.26	225.28
875.56	225.27
875.87	225.25
876.18	225.25
876.49	225.33
876.80	225.30
877.11	225.30
877.42	225.31
877.73	225.33
878.04	225.35
878.35	225.35
878.66	225.34
878.96	225.33
879.27	225.32
879.58	225.30
879.89	225.28
880.20	225.28
880.51	225.25
880.82	225.23
881.12	225.22
881.43	225.21
881.74	225.18
882.05	225.15
882.36	225.15
882.67	225.12
882.97	224.99
883.28	224.94
883.59	224.93
883.90	224.93
884.21	224.93
884.51	224.92
884.82	224.89
885.13	224.88
885.44	224.88
885.74	224.88
886.05	224.86
886.36	224.89
886.67	224.88
886.98	224.93
887.28	224.93
887.59	224.93
887.90	224.94
888.20	224.95
888.51	225.00
888.82	224.98
889.13	225.00
889.43	225.08
889.74	225.08
890.05	225.08
890.35	225.04
890.66	225.03
890.97	224.97
891.28	224.96
891.58	224.95
891.89	224.95
892.20	224.94
892.50	224.95
892.81	224.92
893.12	224.90
893.42	224.87
893.73	224.90
894.04	224.92
894.34	224.92
894.65	224.91
894.95	224.88
895.26	224.89
895.57	224.93
895.87	224.88
896.18	224.91
896.48	224.89
896.79	224.91
897.10	224.93
897.40	224.96
897.71	224.95
898.01	224.95
898.32	224.93
898.63	224.94
898.93	224.94
899.24	224.96
899.54	224.99
899.85	225.01
900.15	224.97
900.46	224.97
900.76	225.01
901.07	225.00
901.38	224.99
901.68	225.03
901.99	224.98
902.29	224.96
902.60	224.96
902.90	224.97
903.21	224.97
903.51	224.95
903.82	224.95
904.12	224.96
904.43	224.96
904.73	225.00
905.03	225.00
905.34	225.09
905.64	225.08
905.95	225.04
906.25	225.02
906.56	225.01
906.86	225.01
907.17	225.00
907.47	225.00
907.77	224.99
908.08	224.95
908.38	224.96
908.69	224.95
908.99	224.97
909.30	224.97
909.60	224.98
909.90	225.01
910.21	224.98
910.51	224.97
910.81	224.98
911.12	224.94
911.42	224.92
911.73	224.84
912.03	224.84
912.33	224.86
912.64	224.87
912.94	224.90
913.24	224.86
913.55	224.85
913.85	224.85
914.15	224.90
914.46	224.90
914.76	224.88
915.06	224.89
915.37	224.86
915.67	224.86
915.97	224.82
916.27	224.77
916.58	224.80
916.88	224.81
917.18	224.79
917.49	224.87
917.79	224.86
918.09	224.87
918.39	224.91
918.70	224.90
919.00	224.90
919.30	224.96
919.60	224.98
919.91	224.95
920.21	224.95
920.51	224.92
920.81	224.89
921.12	224.90
921.42	224.89
921.72	224.91
922.02	224.91
922.32	224.96
922.63	224.96
922.93	225.01
923.23	224.99
923.53	224.97
923.83	224.90
924.13	224.95
924.44	224.94
924.74	224.93
925.04	224.94
925.34	224.89
925.64	224.83
925.94	224.81
926.24	224.87
926.55	224.83
926.85	224.84
927.15	224.85
927.45	224.82
927.75	224.85
928.05	224.83
928.35	224.82
928.65	224.82
928.95	224.82
929.26	224.76
929.56	224.78
929.86	224.79
930.16	224.75
930.46	224.73
930.76	224.74
931.06	224.68
931.36	224.63
931.66	224.68
931.96	224.68
932.26	224.67
932.56	224.62
932.86	224.63
933.16	224.65
933.46	224.64
933.76	224.67
934.06	224.70
934.36	224.73
934.66	224.71
934.96	224.68
935.26	224.70
935.56	224.74
935.86	224.72
936.16	224.73
936.46	224.75
936.76	224.74
937.06	224.72
937.36	224.78
937.66	224.83
937.96	224.83
938.26	224.85
938.56	224.88
938.86	224.91
939.16	224.91
939.46	224.88
939.76	224.91
940.06	224.91
940.35	224.87
940.65	224.83
940.95	224.84
941.25	224.85
941.55	224.83
941.85	224.80
942.15	224.83
942.45	224.86
942.75	224.86
943.04	224.86
943.34	224.91
943.64	224.90
943.94	224.87
944.24	224.91
944.54	224.90
944.84	224.92
945.13	224.91
945.43	224.92
945.73	224.92
946.03	224.92
946.33	224.87
946.62	224.86
946.92	224.87
947.22	224.89
947.52	224.89
947.82	224.90
948.11	224.91
948.41	224.89
948.71	224.84
949.01	224.84
949.31	224.81
949.60	224.79
949.90	224.76
950.20	224.76
950.50	224.72
950.79	224.68
951.09	224.64
951.39	224.61
951.69	224.60
951.98	224.60
952.28	224.58
952.58	224.60
952.87	224.63
953.17	224.65
953.47	224.62
953.76	224.64
954.06	224.62
954.36	224.61
954.66	224.62
954.95	224.64
955.25	224.67
955.55	224.69
955.84	224.68
956.14	224.71
956.44	224.75
956.73	224.70
957.03	224.69
957.32	224.71
957.62	224.69
957.92	224.70
958.21	224.71
958.51	224.82
958.81	224.82
959.10	224.79
959.40	224.82
959.69	224.84
959.99	224.82
960.29	224.82
960.58	224.83
960.88	224.85
961.17	224.85
961.47	224.84
961.76	224.81
962.06	224.82
962.36	224.80
962.65	224.76
962.95	224.78
963.24	224.78
963.54	224.75
963.83	224.75
964.13	224.76
964.42	224.76
964.72	224.68
965.01	224.69
965.31	224.72
965.60	224.64
965.90	224.71
966.19	224.68
966.49	224.67
966.78	224.66
967.08	224.64
967.37	224.64
967.67	224.64
967.96	224.64
968.26	224.63
968.55	224.67
968.85	224.69
969.14	224.71
969.43	224.71
969.73	224.73
970.02	224.70
970.32	224.66
970.61	224.63
970.91	224.60
971.20	224.55
971.49	224.53
971.79	224.56
972.08	224.48
972.38	224.51
972.67	224.47
972.96	224.49
973.26	224.46
973.55	224.51
973.85	224.46
974.14	224.49
974.43	224.49
974.73	224.45
975.02	224.42
975.31	224.42
975.61	224.45
975.90	224.44
976.19	224.47
976.49	224.47
976.78	224.51
977.07	224.50
977.37	224.54
977.66	224.53
977.95	224.49
978.24	224.52
978.54	224.55
978.83	224.63
979.12	224.62
979.42	224.65
979.71	224.61
980.00	224.63
980.29	224.63
980.59	224.62
980.88	224.65
981.17	224.65
981.46	224.66
981.76	224.65
982.05	224.70
982.34	224.72
982.63	224.76
982.93	224.73
983.22	224.77
983.51	224.77
983.80	224.80
984.09	224.86
984.39	224.85
984.68	224.82
984.97	224.79
985.26	224.81
985.55	224.81
985.85	224.77
986.14	224.80
986.43	224.79
986.72	224.79
987.01	224.77
987.30	224.80
987.59	224.81
987.89	224.79
988.18	224.74
988.47	224.71
988.76	224.71
989.05	224.73
989.34	224.74
989.63	224.78
989.92	224.77
990.22	224.75
990.51	224.76
990.80	224.73
991.09	224.73
991.38	224.71
991.67	224.69
991.96	224.74
992.25	224.77
992.54	224.76
992.83	224.76
993.12	224.74
993.41	224.76
993.70	224.78
993.99	224.80
994.28	224.85
994.58	224.89
994.87	224.90
995.16	224.87
995.45	224.84
995.74	224.80
996.03	224.85
996.32	224.84
996.61	224.89
996.90	224.91
997.19	224.88
997.48	224.91
997.77	224.90
998.06	224.88
998.34	224.86
998.63	224.86
998.92	224.84
999.21	224.86
999.50	224.84
999.79	224.77
1000.08	224.78
1000.37	224.80
1000.66	224.75
1000.95	224.75
1001.24	224.74
1001.53	224.76
1001.82	224.75
1002.11	224.68
1002.40	224.70
1002.68	224.69
1002.97	224.75
1003.26	224.77
1003.55	224.74
1003.84	224.77
1004.13	224.82
1004.42	224.79
1004.71	224.77
1004.99	224.78
1005.28	224.79
1005.57	224.74
1005.86	224.76
1006.15	224.76
1006.44	224.70
1006.72	224.71
1007.01	224.70
1007.30	224.71
1007.59	224.71
1007.88	224.72
1008.17	224.71
1008.45	224.68
1008.74	224.64
1009.03	224.59
1009.32	224.57
1009.60	224.58
1009.89	224.54
1010.18	224.51
1010.47	224.51
1010.76	224.49
1011.04	224.50
1011.33	224.50
1011.62	224.53
1011.91	224.54
1012.19	224.52
1012.48	224.53
1012.77	224.53
1013.05	224.56
1013.34	224.54
1013.63	224.53
1013.92	224.51
1014.20	224.49
1014.49	224.47
1014.78	224.51
1015.06	224.47
1015.35	224.49
1015.64	224.47
1015.92	224.50
1016.21	224.49
1016.50	224.50
1016.78	224.52
1017.07	224.53
1017.36	224.50
1017.64	224.54
1017.93	224.53
1018.22	224.55
1018.50	224.53
1018.79	224.55
1019.08	224.52
1019.36	224.53
1019.65	224.53
1019.93	224.57
1020.22	224.59
1020.51	224.68
1020.79	224.66
1021.08	224.64
1021.36	224.23
1021.65	224.80
1021.94	224.52
1022.22	224.67
1022.51	224.31
1022.79	224.78
1023.08	224.35
1023.36	226.38
1023.65	224.59
>>>>>End Processed Spectral Data<<<<<
