SpectraSuite Data File
++++++++++++++++++++++++++++++++++++
Date: Fri Feb 01 16:51:40 EST 2013
User: group
Dark Spectrum Present: No
Reference Spectrum Present: No
Number of Sampled Component Spectra: 1
Spectrometers: USB2E7196
Integration Time (usec): 35000 (USB2E7196)
Spectra Averaged: 100 (USB2E7196)
Boxcar Smoothing: 10 (USB2E7196)
Correct for Electrical Dark: No (USB2E7196)
Strobe/Lamp Enabled: No (USB2E7196)
Correct for Detector Non-linearity: No (USB2E7196)
Correct for Stray Light: No (USB2E7196)
Number of Pixels in Processed Spectrum: 2048
>>>>>Begin Processed Spectral Data<<<<<
339.09	0.00
339.48	213.80
339.86	215.05
340.24	216.49
340.63	217.37
341.01	220.21
341.39	220.01
341.78	222.33
342.16	222.56
342.54	223.53
342.93	211.83
343.31	222.53
343.69	223.05
344.07	223.47
344.46	223.85
344.84	224.26
345.22	224.50
345.60	224.74
345.99	224.91
346.37	225.07
346.75	225.15
347.13	225.22
347.52	225.26
347.90	225.29
348.28	225.33
348.66	225.37
349.05	225.36
349.43	225.37
349.81	225.43
350.19	225.47
350.57	225.51
350.96	225.62
351.34	225.68
351.72	225.74
352.10	225.86
352.48	225.95
352.87	225.98
353.25	226.02
353.63	226.10
354.01	226.11
354.39	226.18
354.77	226.24
355.15	226.38
355.54	226.42
355.92	226.44
356.30	226.49
356.68	226.60
357.06	226.65
357.44	226.71
357.82	226.73
358.20	226.81
358.58	226.86
358.97	226.85
359.35	226.90
359.73	227.00
360.11	227.07
360.49	227.09
360.87	227.12
361.25	227.19
361.63	227.24
362.01	227.30
362.39	227.28
362.77	227.34
363.15	227.33
363.53	227.35
363.91	227.35
364.29	227.34
364.67	227.27
365.05	227.30
365.43	227.30
365.81	227.32
366.19	227.34
366.57	227.35
366.95	227.35
367.33	227.33
367.71	227.32
368.09	227.29
368.47	227.31
368.85	227.30
369.23	227.29
369.61	227.26
369.99	227.26
370.37	227.27
370.75	227.27
371.13	227.24
371.51	227.22
371.89	227.22
372.27	227.24
372.65	227.20
373.03	227.15
373.41	227.09
373.78	227.04
374.16	226.96
374.54	226.90
374.92	226.84
375.30	226.78
375.68	226.70
376.06	226.66
376.44	226.57
376.82	226.54
377.19	226.46
377.57	226.38
377.95	226.29
378.33	226.20
378.71	226.07
379.09	226.02
379.47	225.95
379.84	225.87
380.22	225.80
380.60	225.72
380.98	225.65
381.36	225.56
381.73	225.50
382.11	225.44
382.49	225.41
382.87	225.35
383.25	225.33
383.62	225.36
384.00	225.28
384.38	225.26
384.76	225.24
385.13	225.23
385.51	225.18
385.89	225.13
386.27	225.09
386.64	225.09
387.02	225.03
387.40	224.98
387.78	224.94
388.15	224.91
388.53	224.89
388.91	224.86
389.29	224.85
389.66	224.83
390.04	224.81
390.42	224.77
390.79	224.77
391.17	224.73
391.55	224.64
391.92	224.61
392.30	224.59
392.68	224.53
393.05	224.54
393.43	224.55
393.81	224.59
394.18	224.62
394.56	224.62
394.94	224.66
395.31	224.69
395.69	224.76
396.06	224.79
396.44	224.82
396.82	224.86
397.19	224.96
397.57	225.01
397.95	225.06
398.32	225.08
398.70	225.12
399.07	225.22
399.45	225.28
399.82	225.34
400.20	225.40
400.58	225.46
400.95	225.45
401.33	225.55
401.70	225.66
402.08	225.72
402.45	225.79
402.83	225.88
403.20	225.98
403.58	226.05
403.95	226.19
404.33	226.31
404.71	226.43
405.08	226.58
405.46	226.69
405.83	226.82
406.21	226.95
406.58	227.13
406.96	227.27
407.33	227.44
407.70	227.67
408.08	227.96
408.45	228.20
408.83	228.46
409.20	228.67
409.58	228.82
409.95	229.07
410.33	229.34
410.70	229.59
411.08	229.86
411.45	230.19
411.82	230.46
412.20	230.80
412.57	231.20
412.95	231.48
413.32	231.90
413.69	232.30
414.07	232.72
414.44	233.15
414.82	233.61
415.19	234.12
415.56	234.61
415.94	235.15
416.31	235.81
416.68	236.39
417.06	237.10
417.43	237.83
417.81	238.57
418.18	239.35
418.55	240.17
418.93	241.07
419.30	241.96
419.67	242.89
420.04	243.84
420.42	244.82
420.79	246.02
421.16	247.15
421.54	248.33
421.91	249.57
422.28	250.80
422.66	252.14
423.03	253.43
423.40	254.76
423.77	256.15
424.15	257.52
424.52	259.05
424.89	260.64
425.26	262.14
425.64	263.61
426.01	265.22
426.38	266.86
426.75	268.48
427.13	270.17
427.50	271.97
427.87	273.85
428.24	275.69
428.61	277.39
428.99	279.33
429.36	281.44
429.73	283.46
430.10	285.49
430.47	287.54
430.85	289.64
431.22	291.89
431.59	294.22
431.96	296.46
432.33	298.89
432.70	301.25
433.08	304.06
433.45	306.69
433.82	309.27
434.19	312.15
434.56	314.98
434.93	317.61
435.30	320.18
435.68	323.04
436.05	325.84
436.42	328.60
436.79	331.07
437.16	333.72
437.53	336.54
437.90	339.33
438.27	342.03
438.64	344.85
439.01	347.42
439.38	349.67
439.75	351.79
440.13	354.29
440.50	356.63
440.87	358.44
441.24	360.34
441.61	362.49
441.98	363.97
442.35	365.78
442.72	367.61
443.09	369.39
443.46	370.36
443.83	370.97
444.20	371.47
444.57	372.34
444.94	372.64
445.31	372.97
445.68	373.33
446.05	373.43
446.42	373.04
446.79	372.64
447.16	372.20
447.53	371.93
447.90	370.77
448.27	369.57
448.64	368.04
449.01	366.91
449.37	364.93
449.74	363.04
450.11	360.80
450.48	358.37
450.85	355.95
451.22	353.84
451.59	351.84
451.96	349.92
452.33	347.31
452.70	344.95
453.07	342.15
453.43	339.28
453.80	336.55
454.17	333.95
454.54	331.43
454.91	328.74
455.28	326.09
455.65	323.64
456.02	321.25
456.38	319.09
456.75	316.51
457.12	314.30
457.49	312.12
457.86	309.93
458.23	308.13
458.59	306.01
458.96	303.97
459.33	302.14
459.70	300.28
460.07	298.80
460.43	297.13
460.80	295.51
461.17	294.08
461.54	292.57
461.91	291.09
462.27	289.64
462.64	288.42
463.01	287.07
463.38	285.78
463.74	284.45
464.11	283.28
464.48	282.22
464.85	281.10
465.21	280.21
465.58	279.31
465.95	278.20
466.32	277.32
466.68	276.42
467.05	275.55
467.42	274.71
467.78	273.81
468.15	272.94
468.52	272.33
468.88	271.49
469.25	270.72
469.62	270.12
469.98	269.44
470.35	268.78
470.72	268.17
471.08	267.55
471.45	267.02
471.82	266.49
472.18	265.93
472.55	265.54
472.92	265.04
473.28	264.62
473.65	264.18
474.02	263.79
474.38	263.42
474.75	263.08
475.11	262.72
475.48	262.48
475.85	262.24
476.21	261.99
476.58	261.81
476.94	261.68
477.31	261.53
477.67	261.42
478.04	261.35
478.41	261.31
478.77	261.34
479.14	261.23
479.50	261.21
479.87	261.26
480.23	261.37
480.60	261.44
480.96	261.54
481.33	261.76
481.69	262.01
482.06	262.23
482.42	262.45
482.79	262.73
483.15	263.05
483.52	263.46
483.88	263.84
484.25	264.24
484.61	264.66
484.98	265.10
485.34	265.67
485.71	266.24
486.07	266.85
486.44	267.42
486.80	268.18
487.17	268.96
487.53	269.77
487.90	270.56
488.26	271.49
488.62	272.50
488.99	273.47
489.35	274.45
489.72	275.54
490.08	276.73
490.44	278.01
490.81	279.40
491.17	280.76
491.54	282.24
491.90	283.73
492.26	285.41
492.63	287.20
492.99	288.95
493.36	290.83
493.72	292.87
494.08	295.01
494.45	297.24
494.81	299.63
495.17	302.10
495.54	304.69
495.90	307.36
496.26	310.13
496.63	313.06
496.99	316.21
497.35	319.52
497.72	322.94
498.08	326.43
498.44	330.06
498.80	333.97
499.17	338.01
499.53	342.22
499.89	346.60
500.26	351.06
500.62	355.73
500.98	360.75
501.34	365.80
501.71	371.07
502.07	376.52
502.43	382.14
502.79	387.90
503.16	393.93
503.52	400.21
503.88	406.62
504.24	413.30
504.60	420.11
504.97	427.19
505.33	434.48
505.69	442.14
506.05	449.84
506.41	457.70
506.78	465.80
507.14	474.11
507.50	482.75
507.86	491.73
508.22	500.88
508.59	510.00
508.95	519.53
509.31	529.29
509.67	539.28
510.03	549.49
510.39	559.97
510.75	570.72
511.12	581.48
511.48	592.64
511.84	603.93
512.20	615.38
512.56	627.26
512.92	639.36
513.28	651.57
513.64	663.96
514.00	676.60
514.37	689.38
514.73	702.46
515.09	715.41
515.45	728.55
515.81	741.97
516.17	755.70
516.53	769.60
516.89	783.72
517.25	797.79
517.61	811.93
517.97	826.18
518.33	840.45
518.69	855.13
519.05	869.96
519.41	885.00
519.77	900.34
520.13	915.50
520.49	930.62
520.85	945.87
521.21	961.44
521.57	977.31
521.93	992.86
522.29	1008.97
522.65	1024.97
523.01	1040.97
523.37	1056.81
523.73	1072.81
524.09	1088.81
524.45	1104.75
524.81	1121.07
525.17	1137.65
525.53	1154.36
525.89	1171.03
526.25	1187.56
526.61	1203.71
526.97	1220.21
527.33	1236.43
527.68	1252.76
528.04	1269.05
528.40	1285.31
528.76	1302.12
529.12	1318.50
529.48	1335.27
529.84	1351.00
530.20	1367.42
530.56	1384.12
530.91	1401.25
531.27	1417.85
531.63	1433.96
531.99	1450.40
532.35	1466.13
532.71	1481.90
533.07	1497.91
533.42	1513.55
533.78	1529.49
534.14	1545.46
534.50	1560.54
534.86	1576.20
535.21	1591.29
535.57	1606.80
535.93	1622.09
536.29	1636.51
536.65	1651.42
537.00	1665.83
537.36	1681.02
537.72	1695.26
538.08	1709.48
538.44	1723.01
538.79	1736.61
539.15	1749.89
539.51	1763.29
539.87	1777.46
540.22	1790.98
540.58	1804.49
540.94	1817.55
541.29	1830.11
541.65	1842.60
542.01	1855.60
542.37	1867.67
542.72	1879.78
543.08	1891.53
543.44	1903.69
543.79	1914.80
544.15	1925.61
544.51	1936.98
544.87	1947.78
545.22	1958.36
545.58	1968.51
545.94	1978.14
546.29	1987.78
546.65	1997.75
547.01	2006.96
547.36	2015.42
547.72	2023.90
548.07	2031.79
548.43	2039.70
548.79	2047.67
549.14	2055.20
549.50	2062.40
549.86	2069.99
550.21	2077.31
550.57	2084.40
550.92	2090.90
551.28	2098.00
551.64	2104.94
551.99	2111.47
552.35	2117.59
552.70	2123.79
553.06	2129.76
553.41	2136.28
553.77	2142.24
554.13	2148.32
554.48	2154.54
554.84	2160.27
555.19	2165.32
555.55	2170.44
555.90	2175.07
556.26	2180.10
556.61	2184.80
556.97	2189.14
557.32	2193.26
557.68	2197.34
558.03	2201.67
558.39	2205.42
558.74	2210.01
559.10	2213.95
559.45	2217.70
559.81	2221.80
560.16	2225.67
560.52	2228.98
560.87	2232.32
561.23	2235.20
561.58	2238.03
561.94	2240.48
562.29	2242.70
562.64	2245.60
563.00	2248.18
563.35	2251.69
563.71	2254.68
564.06	2257.87
564.42	2260.87
564.77	2263.59
565.12	2266.15
565.48	2268.04
565.83	2270.03
566.19	2271.40
566.54	2272.35
566.89	2273.45
567.25	2274.27
567.60	2275.64
567.96	2277.47
568.31	2278.28
568.66	2279.56
569.02	2280.30
569.37	2280.80
569.72	2281.78
570.08	2281.91
570.43	2282.12
570.78	2281.87
571.14	2280.55
571.49	2279.23
571.84	2279.05
572.20	2278.06
572.55	2277.10
572.90	2275.84
573.26	2274.58
573.61	2272.98
573.96	2271.51
574.31	2268.86
574.67	2266.09
575.02	2262.70
575.37	2259.35
575.72	2255.93
576.08	2252.54
576.43	2249.32
576.78	2245.65
577.13	2242.65
577.49	2239.69
577.84	2236.32
578.19	2232.67
578.54	2229.15
578.90	2225.26
579.25	2219.77
579.60	2215.05
579.95	2210.17
580.30	2205.24
580.66	2200.21
581.01	2195.39
581.36	2190.65
581.71	2186.62
582.06	2182.36
582.42	2178.07
582.77	2173.07
583.12	2168.68
583.47	2164.29
583.82	2159.54
584.17	2154.62
584.53	2149.32
584.88	2143.81
585.23	2138.25
585.58	2132.87
585.93	2127.61
586.28	2122.82
586.63	2118.08
586.98	2113.10
587.34	2108.48
587.69	2103.68
588.04	2098.69
588.39	2093.22
588.74	2086.66
589.09	2080.60
589.44	2073.92
589.79	2067.83
590.14	2062.24
590.49	2055.67
590.84	2049.33
591.19	2043.38
591.54	2037.08
591.89	2030.03
592.25	2023.40
592.60	2016.30
592.95	2008.99
593.30	2001.79
593.65	1994.62
594.00	1987.47
594.35	1980.33
594.70	1972.43
595.05	1965.50
595.40	1958.27
595.75	1950.91
596.10	1945.00
596.45	1938.49
596.80	1932.56
597.15	1926.29
597.50	1919.38
597.85	1913.10
598.19	1906.57
598.54	1899.71
598.89	1893.14
599.24	1887.16
599.59	1880.71
599.94	1874.65
600.29	1868.31
600.64	1861.68
600.99	1854.30
601.34	1847.73
601.69	1840.79
602.04	1834.11
602.39	1826.76
602.74	1820.07
603.08	1813.34
603.43	1806.64
603.78	1799.43
604.13	1792.20
604.48	1785.08
604.83	1778.23
605.18	1771.41
605.53	1763.45
605.87	1755.56
606.22	1748.48
606.57	1740.60
606.92	1733.31
607.27	1726.25
607.62	1719.46
607.96	1712.40
608.31	1706.00
608.66	1698.42
609.01	1691.11
609.36	1683.52
609.70	1675.64
610.05	1667.62
610.40	1660.16
610.75	1651.92
611.10	1644.29
611.44	1635.85
611.79	1627.83
612.14	1619.25
612.49	1610.15
612.83	1601.97
613.18	1593.86
613.53	1585.80
613.88	1577.39
614.22	1569.20
614.57	1560.52
614.92	1552.51
615.27	1544.94
615.61	1536.60
615.96	1528.65
616.31	1520.92
616.65	1513.62
617.00	1506.06
617.35	1498.50
617.70	1490.18
618.04	1481.77
618.39	1473.43
618.74	1465.91
619.08	1457.62
619.43	1450.00
619.78	1442.98
620.12	1435.83
620.47	1428.21
620.82	1419.97
621.16	1412.43
621.51	1404.76
621.85	1397.14
622.20	1388.69
622.55	1380.36
622.89	1372.41
623.24	1364.81
623.59	1357.25
623.93	1349.85
624.28	1342.62
624.62	1335.08
624.97	1327.95
625.32	1321.17
625.66	1314.16
626.01	1307.10
626.35	1299.60
626.70	1291.94
627.04	1284.27
627.39	1276.36
627.73	1268.98
628.08	1262.11
628.43	1254.94
628.77	1247.61
629.12	1240.15
629.46	1232.91
629.81	1225.47
630.15	1218.31
630.50	1210.85
630.84	1202.88
631.19	1194.82
631.53	1187.29
631.88	1179.74
632.22	1172.07
632.57	1164.79
632.91	1157.29
633.26	1149.79
633.60	1142.41
633.95	1135.30
634.29	1128.27
634.64	1121.68
634.98	1114.45
635.32	1107.25
635.67	1100.64
636.01	1094.00
636.36	1087.20
636.70	1080.66
637.05	1074.16
637.39	1067.78
637.73	1061.26
638.08	1055.33
638.42	1049.38
638.77	1042.95
639.11	1036.42
639.45	1030.03
639.80	1023.39
640.14	1016.99
640.49	1010.50
640.83	1004.27
641.17	998.11
641.52	991.75
641.86	985.30
642.20	979.39
642.55	973.08
642.89	966.64
643.23	960.08
643.58	954.29
643.92	948.20
644.26	942.16
644.61	936.01
644.95	930.13
645.29	923.57
645.64	916.88
645.98	910.57
646.32	904.68
646.66	898.75
647.01	893.03
647.35	887.36
647.69	881.56
648.04	876.03
648.38	870.20
648.72	864.28
649.06	858.22
649.41	852.36
649.75	846.49
650.09	840.64
650.43	834.93
650.78	828.78
651.12	822.82
651.46	817.12
651.80	811.47
652.14	806.11
652.49	800.78
652.83	795.61
653.17	790.01
653.51	784.41
653.85	779.03
654.20	773.37
654.54	767.45
654.88	761.68
655.22	755.80
655.56	750.15
655.90	744.72
656.25	739.54
656.59	734.21
656.93	729.09
657.27	723.94
657.61	718.56
657.95	713.58
658.29	708.54
658.64	703.24
658.98	697.88
659.32	692.32
659.66	687.19
660.00	681.87
660.34	676.89
660.68	671.94
661.02	666.89
661.36	662.22
661.70	657.69
662.05	653.42
662.39	649.14
662.73	644.67
663.07	640.33
663.41	635.88
663.75	631.41
664.09	626.87
664.43	622.33
664.77	618.20
665.11	613.93
665.45	609.72
665.79	605.70
666.13	601.61
666.47	597.54
666.81	593.38
667.15	589.22
667.49	585.30
667.83	581.43
668.17	577.44
668.51	573.33
668.85	569.28
669.19	565.32
669.53	561.45
669.87	557.56
670.21	553.79
670.55	550.13
670.89	546.66
671.23	543.28
671.57	539.83
671.91	536.30
672.25	532.72
672.58	529.30
672.92	525.80
673.26	522.56
673.60	519.40
673.94	516.26
674.28	513.36
674.62	510.38
674.96	507.32
675.30	504.42
675.64	501.50
675.97	498.71
676.31	495.89
676.65	492.93
676.99	490.23
677.33	487.32
677.67	484.50
678.01	481.47
678.34	478.43
678.68	475.54
679.02	472.66
679.36	469.91
679.70	467.15
680.04	464.43
680.37	461.56
680.71	458.73
681.05	456.11
681.39	453.39
681.73	450.75
682.06	448.24
682.40	445.68
682.74	443.13
683.08	440.54
683.42	437.89
683.75	435.43
684.09	432.85
684.43	430.44
684.77	428.00
685.10	425.65
685.44	423.38
685.78	421.08
686.12	418.83
686.45	416.56
686.79	414.28
687.13	412.11
687.46	410.03
687.80	407.87
688.14	405.65
688.48	403.62
688.81	401.43
689.15	399.27
689.49	397.15
689.82	395.05
690.16	392.96
690.50	391.05
690.83	389.12
691.17	387.16
691.51	385.27
691.84	383.41
692.18	381.50
692.52	379.56
692.85	377.65
693.19	375.83
693.52	374.01
693.86	372.20
694.20	370.42
694.53	368.64
694.87	366.79
695.21	365.01
695.54	363.19
695.88	361.43
696.21	359.70
696.55	358.00
696.88	356.35
697.22	354.71
697.56	353.08
697.89	351.41
698.23	349.82
698.56	348.19
698.90	346.66
699.23	345.06
699.57	343.49
699.90	341.90
700.24	340.37
700.58	338.85
700.91	337.39
701.25	335.97
701.58	334.56
701.92	333.21
702.25	331.84
702.59	330.46
702.92	329.14
703.26	327.83
703.59	326.56
703.93	325.37
704.26	324.16
704.60	322.82
704.93	321.59
705.26	320.31
705.60	319.11
705.93	317.89
706.27	316.84
706.60	315.81
706.94	314.74
707.27	313.57
707.61	312.52
707.94	311.47
708.27	310.31
708.61	309.21
708.94	308.19
709.28	307.18
709.61	306.21
709.94	305.26
710.28	304.30
710.61	303.29
710.95	302.24
711.28	301.30
711.61	300.37
711.95	299.41
712.28	298.49
712.61	297.52
712.95	296.58
713.28	295.68
713.61	294.72
713.95	293.79
714.28	292.94
714.61	292.05
714.95	291.20
715.28	290.39
715.61	289.52
715.95	288.66
716.28	287.79
716.61	286.96
716.95	286.10
717.28	285.29
717.61	284.53
717.94	283.79
718.28	282.97
718.61	282.27
718.94	281.59
719.27	280.93
719.61	280.28
719.94	279.60
720.27	278.90
720.60	278.27
720.94	277.66
721.27	277.09
721.60	276.49
721.93	275.92
722.27	275.30
722.60	274.76
722.93	274.21
723.26	273.68
723.59	273.14
723.93	272.60
724.26	272.04
724.59	271.44
724.92	270.90
725.25	270.39
725.59	269.87
725.92	269.32
726.25	268.80
726.58	268.28
726.91	267.81
727.24	267.32
727.57	266.80
727.91	266.28
728.24	265.75
728.57	265.27
728.90	264.76
729.23	264.29
729.56	263.84
729.89	263.35
730.22	262.89
730.55	262.39
730.89	261.92
731.22	261.51
731.55	261.11
731.88	260.67
732.21	260.27
732.54	259.82
732.87	259.42
733.20	259.03
733.53	258.63
733.86	258.24
734.19	257.87
734.52	257.52
734.85	257.20
735.18	256.82
735.51	256.46
735.84	256.11
736.17	255.80
736.50	255.39
736.83	255.19
737.16	254.87
737.49	254.58
737.82	254.26
738.15	253.94
738.48	253.59
738.81	253.31
739.14	253.03
739.47	252.77
739.80	252.42
740.13	252.09
740.46	251.80
740.79	251.51
741.12	251.20
741.45	250.93
741.78	250.62
742.11	250.39
742.44	250.09
742.77	249.84
743.10	249.56
743.43	249.32
743.75	248.94
744.08	248.81
744.41	248.49
744.74	248.23
745.07	247.93
745.40	247.70
745.73	247.45
746.06	247.14
746.39	246.86
746.71	246.63
747.04	246.38
747.37	246.12
747.70	245.86
748.03	245.59
748.36	245.38
748.68	245.11
749.01	244.83
749.34	244.59
749.67	244.31
750.00	244.06
750.33	243.90
750.65	243.68
750.98	243.30
751.31	243.11
751.64	242.91
751.97	242.78
752.29	242.57
752.62	242.34
752.95	242.12
753.28	241.89
753.60	241.65
753.93	241.48
754.26	241.29
754.59	241.06
754.91	240.83
755.24	240.59
755.57	240.41
755.90	240.23
756.22	240.04
756.55	239.84
756.88	239.63
757.20	239.39
757.53	239.18
757.86	239.01
758.19	238.83
758.51	238.63
758.84	238.39
759.17	238.16
759.49	237.96
759.82	237.86
760.15	237.69
760.47	237.57
760.80	237.39
761.13	237.27
761.45	237.12
761.78	236.98
762.11	236.83
762.43	236.68
762.76	236.50
763.08	236.36
763.41	236.23
763.74	236.10
764.06	235.93
764.39	235.81
764.71	235.64
765.04	235.49
765.37	235.37
765.69	235.22
766.02	235.13
766.34	235.04
766.67	234.86
767.00	234.80
767.32	234.73
767.65	234.65
767.97	234.49
768.30	234.37
768.62	234.25
768.95	234.12
769.27	234.01
769.60	233.94
769.92	233.86
770.25	233.73
770.57	233.59
770.90	233.49
771.22	233.38
771.55	233.30
771.87	233.24
772.20	233.14
772.52	233.13
772.85	233.15
773.17	233.04
773.50	232.97
773.82	232.86
774.15	232.69
774.47	232.57
774.80	232.48
775.12	232.40
775.45	232.31
775.77	232.24
776.09	232.13
776.42	232.06
776.74	231.99
777.07	231.96
777.39	231.91
777.72	231.81
778.04	231.78
778.36	231.72
778.69	231.63
779.01	231.57
779.33	231.43
779.66	231.21
779.98	231.17
780.31	231.10
780.63	231.06
780.95	231.06
781.28	230.99
781.60	230.95
781.92	230.91
782.25	230.87
782.57	230.83
782.89	230.81
783.22	230.75
783.54	230.68
783.86	230.62
784.19	230.54
784.51	230.54
784.83	230.48
785.16	230.39
785.48	230.35
785.80	230.28
786.12	230.23
786.45	230.23
786.77	230.14
787.09	230.08
787.42	230.02
787.74	229.95
788.06	229.92
788.38	229.87
788.71	229.82
789.03	229.76
789.35	229.70
789.67	229.61
789.99	229.58
790.32	229.52
790.64	229.47
790.96	229.50
791.28	229.43
791.61	229.36
791.93	229.38
792.25	229.33
792.57	229.36
792.89	229.29
793.21	229.25
793.54	229.21
793.86	229.17
794.18	229.13
794.50	229.06
794.82	228.99
795.14	228.92
795.47	228.86
795.79	228.84
796.11	228.79
796.43	228.77
796.75	228.72
797.07	228.67
797.39	228.62
797.71	228.51
798.04	228.45
798.36	228.44
798.68	228.40
799.00	228.35
799.32	228.25
799.64	228.23
799.96	228.16
800.28	228.15
800.60	228.12
800.92	228.09
801.24	228.07
801.56	228.06
801.89	228.02
802.21	228.04
802.53	227.98
802.85	227.96
803.17	227.98
803.49	227.93
803.81	227.90
804.13	227.89
804.45	227.86
804.77	227.85
805.09	227.81
805.41	227.74
805.73	227.70
806.05	227.67
806.37	227.65
806.69	227.62
807.01	227.58
807.33	227.56
807.65	227.48
807.97	227.48
808.28	227.41
808.60	227.40
808.92	227.32
809.24	227.34
809.56	227.29
809.88	227.21
810.20	227.18
810.52	227.16
810.84	227.11
811.16	227.07
811.48	227.03
811.80	227.04
812.12	227.01
812.43	227.03
812.75	227.03
813.07	227.02
813.39	227.01
813.71	226.96
814.03	226.95
814.35	226.96
814.67	226.93
814.98	226.95
815.30	226.92
815.62	226.91
815.94	226.88
816.26	226.94
816.58	226.93
816.89	226.95
817.21	226.91
817.53	226.90
817.85	226.91
818.17	226.90
818.48	226.87
818.80	226.89
819.12	226.85
819.44	226.83
819.76	226.79
820.07	226.78
820.39	226.80
820.71	226.78
821.03	226.73
821.34	226.71
821.66	226.70
821.98	226.72
822.30	226.72
822.61	226.75
822.93	226.69
823.25	226.67
823.57	226.64
823.88	226.67
824.20	226.67
824.52	226.69
824.83	226.68
825.15	226.67
825.47	226.65
825.79	226.64
826.10	226.64
826.42	226.66
826.74	226.67
827.05	226.66
827.37	226.66
827.69	226.70
828.00	226.66
828.32	226.62
828.64	226.59
828.95	226.61
829.27	226.56
829.58	226.54
829.90	226.57
830.22	226.59
830.53	226.55
830.85	226.52
831.17	226.50
831.48	226.47
831.80	226.45
832.11	226.44
832.43	226.43
832.75	226.40
833.06	226.42
833.38	226.37
833.69	226.36
834.01	226.32
834.32	226.29
834.64	226.32
834.96	226.32
835.27	226.33
835.59	226.30
835.90	226.26
836.22	226.25
836.53	226.19
836.85	226.14
837.16	226.23
837.48	226.24
837.79	226.25
838.11	226.25
838.42	226.21
838.74	226.22
839.05	226.20
839.37	226.18
839.68	226.08
840.00	226.06
840.31	226.05
840.63	226.05
840.94	226.03
841.26	225.99
841.57	225.96
841.88	225.91
842.20	225.87
842.51	225.84
842.83	225.83
843.14	225.93
843.46	225.92
843.77	225.85
844.08	225.82
844.40	225.76
844.71	225.74
845.03	225.73
845.34	225.71
845.65	225.70
845.97	225.71
846.28	225.74
846.60	225.72
846.91	225.71
847.22	225.69
847.54	225.68
847.85	225.68
848.16	225.71
848.48	225.73
848.79	225.78
849.10	225.81
849.42	225.79
849.73	225.69
850.04	225.71
850.36	225.68
850.67	225.70
850.98	225.69
851.30	225.68
851.61	225.71
851.92	225.68
852.23	225.72
852.55	225.71
852.86	225.72
853.17	225.78
853.49	225.83
853.80	225.85
854.11	225.86
854.42	225.89
854.74	225.87
855.05	225.89
855.36	225.83
855.67	225.85
855.99	225.83
856.30	225.96
856.61	225.92
856.92	225.93
857.23	225.95
857.55	225.95
857.86	225.97
858.17	225.96
858.48	225.97
858.79	225.98
859.11	225.99
859.42	225.99
859.73	225.93
860.04	225.87
860.35	225.85
860.66	225.81
860.98	225.80
861.29	225.82
861.60	225.77
861.91	225.80
862.22	225.78
862.53	225.81
862.84	225.68
863.16	225.73
863.47	225.70
863.78	225.71
864.09	225.72
864.40	225.74
864.71	225.74
865.02	225.71
865.33	225.66
865.64	225.63
865.95	225.63
866.27	225.73
866.58	225.73
866.89	225.78
867.20	225.81
867.51	225.81
867.82	225.78
868.13	225.81
868.44	225.78
868.75	225.80
869.06	225.79
869.37	225.81
869.68	225.78
869.99	225.80
870.30	225.76
870.61	225.77
870.92	225.74
871.23	225.70
871.54	225.71
871.85	225.74
872.16	225.70
872.47	225.68
872.78	225.56
873.09	225.58
873.40	225.52
873.71	225.47
874.02	225.47
874.33	225.44
874.64	225.41
874.95	225.42
875.26	225.36
875.56	225.32
875.87	225.27
876.18	225.25
876.49	225.32
876.80	225.30
877.11	225.26
877.42	225.25
877.73	225.29
878.04	225.32
878.35	225.31
878.66	225.36
878.96	225.35
879.27	225.40
879.58	225.35
879.89	225.33
880.20	225.37
880.51	225.32
880.82	225.34
881.12	225.32
881.43	225.32
881.74	225.32
882.05	225.31
882.36	225.37
882.67	225.37
882.97	225.25
883.28	225.23
883.59	225.22
883.90	225.27
884.21	225.27
884.51	225.20
884.82	225.18
885.13	225.17
885.44	225.19
885.74	225.15
886.05	225.14
886.36	225.15
886.67	225.12
886.98	225.20
887.28	225.22
887.59	225.23
887.90	225.24
888.20	225.26
888.51	225.29
888.82	225.26
889.13	225.27
889.43	225.36
889.74	225.35
890.05	225.35
890.35	225.36
890.66	225.34
890.97	225.40
891.28	225.40
891.58	225.38
891.89	225.34
892.20	225.34
892.50	225.35
892.81	225.37
893.12	225.40
893.42	225.34
893.73	225.36
894.04	225.37
894.34	225.39
894.65	225.35
894.95	225.35
895.26	225.35
895.57	225.38
895.87	225.33
896.18	225.36
896.48	225.40
896.79	225.35
897.10	225.38
897.40	225.39
897.71	225.40
898.01	225.44
898.32	225.48
898.63	225.50
898.93	225.51
899.24	225.52
899.54	225.52
899.85	225.51
900.15	225.50
900.46	225.52
900.76	225.52
901.07	225.53
901.38	225.54
901.68	225.58
901.99	225.55
902.29	225.55
902.60	225.58
902.90	225.57
903.21	225.60
903.51	225.59
903.82	225.59
904.12	225.59
904.43	225.58
904.73	225.58
905.03	225.57
905.34	225.66
905.64	225.65
905.95	225.61
906.25	225.61
906.56	225.62
906.86	225.61
907.17	225.59
907.47	225.61
907.77	225.62
908.08	225.56
908.38	225.58
908.69	225.55
908.99	225.56
909.30	225.54
909.60	225.54
909.90	225.50
910.21	225.47
910.51	225.43
910.81	225.40
911.12	225.41
911.42	225.42
911.73	225.33
912.03	225.32
912.33	225.34
912.64	225.37
912.94	225.32
913.24	225.32
913.55	225.31
913.85	225.30
914.15	225.28
914.46	225.32
914.76	225.28
915.06	225.30
915.37	225.26
915.67	225.23
915.97	225.22
916.27	225.20
916.58	225.19
916.88	225.21
917.18	225.20
917.49	225.23
917.79	225.20
918.09	225.21
918.39	225.27
918.70	225.26
919.00	225.25
919.30	225.30
919.60	225.28
919.91	225.29
920.21	225.27
920.51	225.27
920.81	225.28
921.12	225.33
921.42	225.32
921.72	225.34
922.02	225.35
922.32	225.38
922.63	225.40
922.93	225.43
923.23	225.44
923.53	225.43
923.83	225.35
924.13	225.36
924.44	225.35
924.74	225.34
925.04	225.38
925.34	225.35
925.64	225.32
925.94	225.32
926.24	225.36
926.55	225.37
926.85	225.33
927.15	225.30
927.45	225.27
927.75	225.21
928.05	225.21
928.35	225.19
928.65	225.21
928.95	225.21
929.26	225.19
929.56	225.20
929.86	225.23
930.16	225.25
930.46	225.22
930.76	225.27
931.06	225.23
931.36	225.20
931.66	225.22
931.96	225.23
932.26	225.23
932.56	225.17
932.86	225.17
933.16	225.21
933.46	225.22
933.76	225.21
934.06	225.28
934.36	225.34
934.66	225.37
934.96	225.32
935.26	225.30
935.56	225.32
935.86	225.31
936.16	225.31
936.46	225.32
936.76	225.35
937.06	225.30
937.36	225.31
937.66	225.31
937.96	225.31
938.26	225.31
938.56	225.30
938.86	225.32
939.16	225.32
939.46	225.36
939.76	225.37
940.06	225.36
940.35	225.35
940.65	225.28
940.95	225.25
941.25	225.23
941.55	225.24
941.85	225.22
942.15	225.24
942.45	225.25
942.75	225.21
943.04	225.20
943.34	225.21
943.64	225.19
943.94	225.16
944.24	225.17
944.54	225.15
944.84	225.20
945.13	225.18
945.43	225.20
945.73	225.15
946.03	225.12
946.33	225.13
946.62	225.09
946.92	225.08
947.22	225.11
947.52	225.13
947.82	225.18
948.11	225.17
948.41	225.11
948.71	225.06
949.01	225.09
949.31	225.11
949.60	225.10
949.90	225.15
950.20	225.17
950.50	225.15
950.79	225.17
951.09	225.17
951.39	225.15
951.69	225.12
951.98	225.17
952.28	225.16
952.58	225.15
952.87	225.19
953.17	225.20
953.47	225.19
953.76	225.15
954.06	225.10
954.36	225.10
954.66	225.12
954.95	225.16
955.25	225.18
955.55	225.13
955.84	225.10
956.14	225.07
956.44	225.07
956.73	225.09
957.03	225.07
957.32	225.05
957.62	225.05
957.92	225.06
958.21	225.04
958.51	225.15
958.81	225.18
959.10	225.15
959.40	225.18
959.69	225.16
959.99	225.22
960.29	225.23
960.58	225.24
960.88	225.28
961.17	225.25
961.47	225.23
961.76	225.23
962.06	225.28
962.36	225.28
962.65	225.25
962.95	225.25
963.24	225.23
963.54	225.23
963.83	225.23
964.13	225.20
964.42	225.18
964.72	225.11
965.01	225.10
965.31	225.10
965.60	225.07
965.90	225.14
966.19	225.10
966.49	225.08
966.78	225.07
967.08	225.03
967.37	225.02
967.67	225.01
967.96	225.03
968.26	225.00
968.55	225.01
968.85	225.00
969.14	224.96
969.43	224.98
969.73	224.99
970.02	224.99
970.32	224.98
970.61	224.97
970.91	224.94
971.20	224.94
971.49	224.94
971.79	224.96
972.08	224.88
972.38	224.91
972.67	224.90
972.96	224.92
973.26	224.93
973.55	225.00
973.85	225.02
974.14	225.00
974.43	225.00
974.73	224.98
975.02	225.01
975.31	225.04
975.61	225.04
975.90	225.03
976.19	224.99
976.49	225.02
976.78	225.01
977.07	225.00
977.37	224.98
977.66	224.99
977.95	224.99
978.24	225.02
978.54	225.04
978.83	225.06
979.12	225.06
979.42	225.07
979.71	225.04
980.00	225.04
980.29	225.07
980.59	225.08
980.88	225.14
981.17	225.12
981.46	225.11
981.76	225.09
982.05	225.15
982.34	225.17
982.63	225.18
982.93	225.21
983.22	225.22
983.51	225.24
983.80	225.23
984.09	225.23
984.39	225.24
984.68	225.20
984.97	225.22
985.26	225.21
985.55	225.20
985.85	225.17
986.14	225.17
986.43	225.16
986.72	225.17
987.01	225.11
987.30	225.16
987.59	225.15
987.89	225.12
988.18	225.08
988.47	225.08
988.76	225.08
989.05	225.09
989.34	225.10
989.63	225.13
989.92	225.17
990.22	225.13
990.51	225.13
990.80	225.12
991.09	225.11
991.38	225.14
991.67	225.14
991.96	225.18
992.25	225.21
992.54	225.20
992.83	225.20
993.12	225.20
993.41	225.18
993.70	225.23
993.99	225.28
994.28	225.31
994.58	225.32
994.87	225.28
995.16	225.24
995.45	225.22
995.74	225.16
996.03	225.13
996.32	225.16
996.61	225.14
996.90	225.17
997.19	225.18
997.48	225.13
997.77	225.12
998.06	225.07
998.34	225.04
998.63	225.03
998.92	225.03
999.21	225.04
999.50	225.02
999.79	224.98
1000.08	224.98
1000.37	224.94
1000.66	224.92
1000.95	224.97
1001.24	224.97
1001.53	224.98
1001.82	224.99
1002.11	224.96
1002.40	224.99
1002.68	225.00
1002.97	225.03
1003.26	224.99
1003.55	224.96
1003.84	224.97
1004.13	225.00
1004.42	225.00
1004.71	224.95
1004.99	224.93
1005.28	224.91
1005.57	224.90
1005.86	224.88
1006.15	224.83
1006.44	224.80
1006.72	224.82
1007.01	224.81
1007.30	224.82
1007.59	224.78
1007.88	224.79
1008.17	224.80
1008.45	224.75
1008.74	224.68
1009.03	224.64
1009.32	224.63
1009.60	224.65
1009.89	224.64
1010.18	224.57
1010.47	224.58
1010.76	224.61
1011.04	224.63
1011.33	224.64
1011.62	224.62
1011.91	224.64
1012.19	224.67
1012.48	224.69
1012.77	224.68
1013.05	224.71
1013.34	224.69
1013.63	224.71
1013.92	224.71
1014.20	224.71
1014.49	224.75
1014.78	224.80
1015.06	224.76
1015.35	224.81
1015.64	224.85
1015.92	224.86
1016.21	224.91
1016.50	224.92
1016.78	224.91
1017.07	224.93
1017.36	224.92
1017.64	224.93
1017.93	224.94
1018.22	224.93
1018.50	224.93
1018.79	224.91
1019.08	224.85
1019.36	224.90
1019.65	224.90
1019.93	224.92
1020.22	224.96
1020.51	224.99
1020.79	224.97
1021.08	224.54
1021.36	224.63
1021.65	224.39
1021.94	224.53
1022.22	225.39
1022.51	224.87
1022.79	225.10
1023.08	225.83
1023.36	226.12
1023.65	224.82
>>>>>End Processed Spectral Data<<<<<
