SpectraSuite Data File
++++++++++++++++++++++++++++++++++++
Date: Fri Feb 01 17:21:58 EST 2013
User: group
Dark Spectrum Present: No
Reference Spectrum Present: No
Number of Sampled Component Spectra: 1
Spectrometers: USB2E7196
Integration Time (usec): 35000 (USB2E7196)
Spectra Averaged: 100 (USB2E7196)
Boxcar Smoothing: 10 (USB2E7196)
Correct for Electrical Dark: No (USB2E7196)
Strobe/Lamp Enabled: No (USB2E7196)
Correct for Detector Non-linearity: No (USB2E7196)
Correct for Stray Light: No (USB2E7196)
Number of Pixels in Processed Spectrum: 2048
>>>>>Begin Processed Spectral Data<<<<<
339.09	0.00
339.48	212.88
339.86	214.47
340.24	215.78
340.63	216.86
341.01	220.20
341.39	219.86
341.78	221.11
342.16	222.16
342.54	223.55
342.93	211.42
343.31	222.08
343.69	222.63
344.07	223.07
344.46	223.46
344.84	223.86
345.22	224.08
345.60	224.33
345.99	224.51
346.37	224.67
346.75	224.76
347.13	224.83
347.52	224.87
347.90	224.92
348.28	224.94
348.66	224.96
349.05	224.95
349.43	224.99
349.81	224.98
350.19	225.03
350.57	225.08
350.96	225.12
351.34	225.20
351.72	225.27
352.10	225.38
352.48	225.50
352.87	225.55
353.25	225.63
353.63	225.69
354.01	225.77
354.39	225.83
354.77	225.88
355.15	226.00
355.54	226.06
355.92	226.10
356.30	226.15
356.68	226.27
357.06	226.35
357.44	226.40
357.82	226.48
358.20	226.55
358.58	226.62
358.97	226.71
359.35	226.81
359.73	226.88
360.11	226.94
360.49	226.98
360.87	227.01
361.25	227.06
361.63	227.14
362.01	227.18
362.39	227.21
362.77	227.27
363.15	227.29
363.53	227.32
363.91	227.36
364.29	227.39
364.67	227.36
365.05	227.40
365.43	227.45
365.81	227.46
366.19	227.51
366.57	227.56
366.95	227.57
367.33	227.55
367.71	227.57
368.09	227.60
368.47	227.59
368.85	227.59
369.23	227.56
369.61	227.49
369.99	227.48
370.37	227.49
370.75	227.49
371.13	227.44
371.51	227.40
371.89	227.40
372.27	227.40
372.65	227.33
373.03	227.25
373.41	227.18
373.78	227.14
374.16	227.04
374.54	226.95
374.92	226.84
375.30	226.78
375.68	226.68
376.06	226.63
376.44	226.58
376.82	226.54
377.19	226.49
377.57	226.46
377.95	226.37
378.33	226.32
378.71	226.22
379.09	226.15
379.47	226.12
379.84	226.02
380.22	225.95
380.60	225.87
380.98	225.84
381.36	225.78
381.73	225.71
382.11	225.67
382.49	225.63
382.87	225.58
383.25	225.54
383.62	225.62
384.00	225.51
384.38	225.43
384.76	225.40
385.13	225.37
385.51	225.31
385.89	225.29
386.27	225.23
386.64	225.19
387.02	225.16
387.40	225.09
387.78	225.07
388.15	224.99
388.53	224.95
388.91	224.93
389.29	224.89
389.66	224.89
390.04	224.84
390.42	224.84
390.79	224.82
391.17	224.79
391.55	224.66
391.92	224.69
392.30	224.69
392.68	224.68
393.05	224.68
393.43	224.68
393.81	224.65
394.18	224.63
394.56	224.59
394.94	224.65
395.31	224.65
395.69	224.68
396.06	224.74
396.44	224.78
396.82	224.77
397.19	224.86
397.57	224.88
397.95	224.94
398.32	224.91
398.70	224.97
399.07	225.05
399.45	225.09
399.82	225.11
400.20	225.13
400.58	225.19
400.95	225.24
401.33	225.32
401.70	225.47
402.08	225.52
402.45	225.66
402.83	225.73
403.20	225.86
403.58	225.97
403.95	226.08
404.33	226.19
404.71	226.33
405.08	226.48
405.46	226.61
405.83	226.74
406.21	226.91
406.58	227.05
406.96	227.20
407.33	227.37
407.70	227.55
408.08	227.81
408.45	228.00
408.83	228.20
409.20	228.42
409.58	228.57
409.95	228.87
410.33	229.13
410.70	229.35
411.08	229.62
411.45	229.89
411.82	230.20
412.20	230.57
412.57	230.98
412.95	231.26
413.32	231.64
413.69	232.04
414.07	232.52
414.44	233.01
414.82	233.49
415.19	234.07
415.56	234.65
415.94	235.22
416.31	235.89
416.68	236.53
417.06	237.28
417.43	237.99
417.81	238.76
418.18	239.54
418.55	240.39
418.93	241.29
419.30	242.25
419.67	243.21
420.04	244.24
420.42	245.29
420.79	246.58
421.16	247.80
421.54	249.02
421.91	250.25
422.28	251.57
422.66	252.98
423.03	254.34
423.40	255.73
423.77	257.25
424.15	258.75
424.52	260.36
424.89	262.04
425.26	263.66
425.64	265.19
426.01	266.90
426.38	268.64
426.75	270.38
427.13	272.17
427.50	274.08
427.87	276.02
428.24	277.94
428.61	279.72
428.99	281.71
429.36	283.95
429.73	286.08
430.10	288.12
430.47	290.23
430.85	292.39
431.22	294.72
431.59	297.15
431.96	299.46
432.33	301.99
432.70	304.44
433.08	307.37
433.45	310.06
433.82	312.77
434.19	315.75
434.56	318.67
434.93	321.38
435.30	324.08
435.68	327.05
436.05	329.99
436.42	332.89
436.79	335.48
437.16	338.27
437.53	341.22
437.90	344.19
438.27	347.01
438.64	349.97
439.01	352.65
439.38	354.97
439.75	357.22
440.13	359.75
440.50	362.17
440.87	364.07
441.24	366.09
441.61	368.28
441.98	369.83
442.35	371.66
442.72	373.62
443.09	375.48
443.46	376.53
443.83	377.15
444.20	377.68
444.57	378.58
444.94	378.85
445.31	379.21
445.68	379.56
446.05	379.64
446.42	379.26
446.79	378.80
447.16	378.38
447.53	378.05
447.90	376.92
448.27	375.74
448.64	374.13
449.01	372.99
449.37	370.98
449.74	369.02
450.11	366.76
450.48	364.19
450.85	361.65
451.22	359.42
451.59	357.32
451.96	355.32
452.33	352.60
452.70	350.21
453.07	347.26
453.43	344.27
453.80	341.48
454.17	338.70
454.54	336.09
454.91	333.22
455.28	330.44
455.65	327.86
456.02	325.28
456.38	323.04
456.75	320.25
457.12	317.87
457.49	315.58
457.86	313.34
458.23	311.39
458.59	309.22
458.96	307.04
459.33	305.11
459.70	303.17
460.07	301.59
460.43	299.75
460.80	298.06
461.17	296.56
461.54	294.95
461.91	293.42
462.27	291.92
462.64	290.62
463.01	289.21
463.38	287.87
463.74	286.48
464.11	285.21
464.48	284.20
464.85	283.08
465.21	282.16
465.58	281.18
465.95	280.08
466.32	279.13
466.68	278.20
467.05	277.28
467.42	276.37
467.78	275.43
468.15	274.52
468.52	273.86
468.88	272.99
469.25	272.24
469.62	271.62
469.98	270.93
470.35	270.32
470.72	269.69
471.08	269.01
471.45	268.47
471.82	267.95
472.18	267.33
472.55	266.89
472.92	266.34
473.28	265.87
473.65	265.42
474.02	265.00
474.38	264.62
474.75	264.32
475.11	263.94
475.48	263.69
475.85	263.53
476.21	263.27
476.58	263.09
476.94	262.92
477.31	262.74
477.67	262.59
478.04	262.45
478.41	262.42
478.77	262.49
479.14	262.43
479.50	262.43
479.87	262.46
480.23	262.54
480.60	262.61
480.96	262.69
481.33	262.86
481.69	263.06
482.06	263.27
482.42	263.44
482.79	263.74
483.15	264.08
483.52	264.42
483.88	264.81
484.25	265.20
484.61	265.61
484.98	266.09
485.34	266.68
485.71	267.29
486.07	267.90
486.44	268.46
486.80	269.14
487.17	269.91
487.53	270.78
487.90	271.64
488.26	272.56
488.62	273.56
488.99	274.55
489.35	275.59
489.72	276.70
490.08	277.93
490.44	279.13
490.81	280.41
491.17	281.75
491.54	283.21
491.90	284.73
492.26	286.38
492.63	288.10
492.99	289.82
493.36	291.71
493.72	293.77
494.08	295.84
494.45	298.08
494.81	300.44
495.17	302.86
495.54	305.41
495.90	308.13
496.26	310.89
496.63	313.84
496.99	316.94
497.35	320.20
497.72	323.59
498.08	327.10
498.44	330.72
498.80	334.58
499.17	338.59
499.53	342.74
499.89	347.07
500.26	351.51
500.62	356.13
500.98	361.07
501.34	366.06
501.71	371.27
502.07	376.67
502.43	382.19
502.79	387.94
503.16	393.91
503.52	400.11
503.88	406.51
504.24	413.09
504.60	419.82
504.97	426.84
505.33	434.03
505.69	441.65
506.05	449.37
506.41	457.18
506.78	465.18
507.14	473.48
507.50	482.07
507.86	490.95
508.22	500.06
508.59	509.12
508.95	518.52
509.31	528.25
509.67	538.14
510.03	548.26
510.39	558.58
510.75	569.17
511.12	579.84
511.48	590.94
511.84	602.17
512.20	613.56
512.56	625.30
512.92	637.23
513.28	649.36
513.64	661.56
514.00	674.06
514.37	686.78
514.73	699.62
515.09	712.43
515.45	725.42
515.81	738.71
516.17	752.34
516.53	766.17
516.89	780.08
517.25	794.03
517.61	808.18
517.97	822.31
518.33	836.43
518.69	851.00
519.05	865.62
519.41	880.46
519.77	895.64
520.13	910.65
520.49	925.74
520.85	940.69
521.21	956.07
521.57	971.78
521.93	987.14
522.29	1003.07
522.65	1018.84
523.01	1034.64
523.37	1050.36
523.73	1066.11
524.09	1081.84
524.45	1097.73
524.81	1113.92
525.17	1130.36
525.53	1146.83
525.89	1163.29
526.25	1179.62
526.61	1195.59
526.97	1211.95
527.33	1228.05
527.68	1244.30
528.04	1260.33
528.40	1276.45
528.76	1293.08
529.12	1309.31
529.48	1325.84
529.84	1341.43
530.20	1357.74
530.56	1374.42
530.91	1391.33
531.27	1407.81
531.63	1423.87
531.99	1439.94
532.35	1455.55
532.71	1471.02
533.07	1486.97
533.42	1502.75
533.78	1518.51
534.14	1534.44
534.50	1549.37
534.86	1564.83
535.21	1579.81
535.57	1595.43
535.93	1610.75
536.29	1625.26
536.65	1640.08
537.00	1654.50
537.36	1669.71
537.72	1684.10
538.08	1698.31
538.44	1711.84
538.79	1725.53
539.15	1738.97
539.51	1752.64
539.87	1766.87
540.22	1780.43
540.58	1793.94
540.94	1806.85
541.29	1819.43
541.65	1832.04
542.01	1845.08
542.37	1857.29
542.72	1869.54
543.08	1881.31
543.44	1893.58
543.79	1904.84
544.15	1915.79
544.51	1927.49
544.87	1938.38
545.22	1949.15
545.58	1959.35
545.94	1969.29
546.29	1979.29
546.65	1989.21
547.01	1998.54
547.36	2007.25
547.72	2015.88
548.07	2024.08
548.43	2032.42
548.79	2040.44
549.14	2048.25
549.50	2055.79
549.86	2063.74
550.21	2071.12
550.57	2078.46
550.92	2085.29
551.28	2092.54
551.64	2099.80
551.99	2106.39
552.35	2112.77
552.70	2119.14
553.06	2125.45
553.41	2131.97
553.77	2138.13
554.13	2144.47
554.48	2150.78
554.84	2156.68
555.19	2162.12
555.55	2167.44
555.90	2172.23
556.26	2177.80
556.61	2182.62
556.97	2187.19
557.32	2191.59
557.68	2196.12
558.03	2200.59
558.39	2204.37
558.74	2209.15
559.10	2213.32
559.45	2217.35
559.81	2221.85
560.16	2226.04
560.52	2229.54
560.87	2233.21
561.23	2236.19
561.58	2239.31
561.94	2242.24
562.29	2244.76
562.64	2247.91
563.00	2250.78
563.35	2254.64
563.71	2257.93
564.06	2261.41
564.42	2264.83
564.77	2267.78
565.12	2270.60
565.48	2273.02
565.83	2275.60
566.19	2277.50
566.54	2278.74
566.89	2280.29
567.25	2281.37
567.60	2282.84
567.96	2285.03
568.31	2286.31
568.66	2287.71
569.02	2288.80
569.37	2289.46
569.72	2290.67
570.08	2291.19
570.43	2291.61
570.78	2291.50
571.14	2290.51
571.49	2289.38
571.84	2289.13
572.20	2288.38
572.55	2287.56
572.90	2286.20
573.26	2285.03
573.61	2283.49
573.96	2282.17
574.31	2279.55
574.67	2276.92
575.02	2273.73
575.37	2270.49
575.72	2267.21
576.08	2264.10
576.43	2261.09
576.78	2257.90
577.13	2255.02
577.49	2252.01
577.84	2248.79
578.19	2245.21
578.54	2241.94
578.90	2238.37
579.25	2233.37
579.60	2228.70
579.95	2224.14
580.30	2219.49
580.66	2214.74
581.01	2210.09
581.36	2205.42
581.71	2201.58
582.06	2197.52
582.42	2193.46
582.77	2188.68
583.12	2184.27
583.47	2180.04
583.82	2175.37
584.17	2170.43
584.53	2165.22
584.88	2160.02
585.23	2154.58
585.58	2149.32
585.93	2144.00
586.28	2139.21
586.63	2134.40
586.98	2129.48
587.34	2124.95
587.69	2120.22
588.04	2115.22
588.39	2109.89
588.74	2103.62
589.09	2097.68
589.44	2091.07
589.79	2084.96
590.14	2079.39
590.49	2072.82
590.84	2066.46
591.19	2060.68
591.54	2054.25
591.89	2047.25
592.25	2040.83
592.60	2033.89
592.95	2026.67
593.30	2019.46
593.65	2012.04
594.00	2005.14
594.35	1998.11
594.70	1989.99
595.05	1983.17
595.40	1975.80
595.75	1968.37
596.10	1962.40
596.45	1955.85
596.80	1949.77
597.15	1943.41
597.50	1936.66
597.85	1930.40
598.19	1923.96
598.54	1917.10
598.89	1910.56
599.24	1904.63
599.59	1898.05
599.94	1891.86
600.29	1885.59
600.64	1879.07
600.99	1871.79
601.34	1864.94
601.69	1857.99
602.04	1851.39
602.39	1844.00
602.74	1837.39
603.08	1830.78
603.43	1824.08
603.78	1816.82
604.13	1809.62
604.48	1802.52
604.83	1795.68
605.18	1789.02
605.53	1781.25
605.87	1773.08
606.22	1765.87
606.57	1757.86
606.92	1750.36
607.27	1743.26
607.62	1736.54
607.96	1729.33
608.31	1722.88
608.66	1715.41
609.01	1707.89
609.36	1700.38
609.70	1692.44
610.05	1684.41
610.40	1676.76
610.75	1668.45
611.10	1660.74
611.44	1652.16
611.79	1643.95
612.14	1635.24
612.49	1625.87
612.83	1617.23
613.18	1609.07
613.53	1600.97
613.88	1592.51
614.22	1584.08
614.57	1575.26
614.92	1566.97
615.27	1559.49
615.61	1551.12
615.96	1542.90
616.31	1535.09
616.65	1527.55
617.00	1519.87
617.35	1512.09
617.70	1503.64
618.04	1495.08
618.39	1486.76
618.74	1479.30
619.08	1470.98
619.43	1463.22
619.78	1456.28
620.12	1449.07
620.47	1441.43
620.82	1433.10
621.16	1425.48
621.51	1417.82
621.85	1410.11
622.20	1401.51
622.55	1392.90
622.89	1384.95
623.24	1377.20
623.59	1369.67
623.93	1362.04
624.28	1354.63
624.62	1347.12
624.97	1339.83
625.32	1332.91
625.66	1325.71
626.01	1318.46
626.35	1311.12
626.70	1303.25
627.04	1295.35
627.39	1287.50
627.73	1280.06
628.08	1273.15
628.43	1265.85
628.77	1258.49
629.12	1250.93
629.46	1243.76
629.81	1236.06
630.15	1228.72
630.50	1221.33
630.84	1213.15
631.19	1204.99
631.53	1197.38
631.88	1189.65
632.22	1181.97
632.57	1174.48
632.91	1166.99
633.26	1159.39
633.60	1151.74
633.95	1144.43
634.29	1137.22
634.64	1130.41
634.98	1123.01
635.32	1115.81
635.67	1109.12
636.01	1102.40
636.36	1095.70
636.70	1089.06
637.05	1082.55
637.39	1076.02
637.73	1069.54
638.08	1063.57
638.42	1057.61
638.77	1051.12
639.11	1044.49
639.45	1038.12
639.80	1031.49
640.14	1025.02
640.49	1018.50
640.83	1012.19
641.17	1006.01
641.52	999.76
641.86	993.23
642.20	987.28
642.55	980.78
642.89	974.37
643.23	967.70
643.58	961.81
643.92	955.48
644.26	949.46
644.61	943.33
644.95	937.17
645.29	930.61
645.64	923.84
645.98	917.43
646.32	911.40
646.66	905.32
647.01	899.44
647.35	893.66
647.69	887.71
648.04	882.10
648.38	876.38
648.72	870.51
649.06	864.52
649.41	858.50
649.75	852.67
650.09	846.69
650.43	840.92
650.78	834.67
651.12	828.79
651.46	823.00
651.80	817.28
652.14	811.84
652.49	806.46
652.83	801.29
653.17	795.77
653.51	790.20
653.85	784.78
654.20	779.23
654.54	773.21
654.88	767.49
655.22	761.61
655.56	755.79
655.90	750.14
656.25	744.84
656.59	739.54
656.93	734.35
657.27	729.18
657.61	723.70
657.95	718.59
658.29	713.49
658.64	708.19
658.98	702.81
659.32	697.36
659.66	692.15
660.00	686.92
660.34	681.89
660.68	676.85
661.02	671.76
661.36	666.96
661.70	662.49
662.05	658.12
662.39	653.80
662.73	649.30
663.07	644.92
663.41	640.50
663.75	636.03
664.09	631.44
664.43	626.98
664.77	622.95
665.11	618.72
665.45	614.45
665.79	610.38
666.13	606.31
666.47	602.11
666.81	597.89
667.15	593.66
667.49	589.74
667.83	585.85
668.17	581.84
668.51	577.77
668.85	573.65
669.19	569.70
669.53	565.84
669.87	561.98
670.21	558.23
670.55	554.52
670.89	551.02
671.23	547.52
671.57	543.94
671.91	540.31
672.25	536.68
672.58	533.21
672.92	529.75
673.26	526.46
673.60	523.29
673.94	520.17
674.28	517.24
674.62	514.22
674.96	511.15
675.30	508.24
675.64	505.29
675.97	502.49
676.31	499.58
676.65	496.60
676.99	493.82
677.33	490.91
677.67	488.09
678.01	485.06
678.34	482.16
678.68	479.20
679.02	476.35
679.36	473.57
679.70	470.82
680.04	468.04
680.37	465.22
680.71	462.39
681.05	459.68
681.39	456.92
681.73	454.21
682.06	451.65
682.40	449.12
682.74	446.54
683.08	443.95
683.42	441.37
683.75	438.83
684.09	436.29
684.43	433.78
684.77	431.24
685.10	428.86
685.44	426.42
685.78	424.19
686.12	421.90
686.45	419.60
686.79	417.28
687.13	415.02
687.46	412.80
687.80	410.61
688.14	408.40
688.48	406.30
688.81	404.06
689.15	401.89
689.49	399.64
689.82	397.53
690.16	395.38
690.50	393.39
690.83	391.45
691.17	389.39
691.51	387.51
691.84	385.67
692.18	383.75
692.52	381.84
692.85	379.82
693.19	377.92
693.52	376.06
693.86	374.18
694.20	372.36
694.53	370.58
694.87	368.69
695.21	366.91
695.54	365.08
695.88	363.30
696.21	361.57
696.55	359.87
696.88	358.17
697.22	356.49
697.56	354.83
697.89	353.15
698.23	351.57
698.56	349.93
698.90	348.32
699.23	346.68
699.57	345.08
699.90	343.55
700.24	341.96
700.58	340.43
700.91	338.93
701.25	337.46
701.58	336.06
701.92	334.70
702.25	333.24
702.59	331.86
702.92	330.54
703.26	329.19
703.59	327.90
703.93	326.70
704.26	325.46
704.60	324.17
704.93	322.89
705.26	321.58
705.60	320.35
705.93	319.14
706.27	318.04
706.60	316.98
706.94	315.91
707.27	314.78
707.61	313.71
707.94	312.66
708.27	311.60
708.61	310.48
708.94	309.43
709.28	308.45
709.61	307.45
709.94	306.46
710.28	305.39
710.61	304.40
710.95	303.25
711.28	302.31
711.61	301.29
711.95	300.37
712.28	299.40
712.61	298.41
712.95	297.46
713.28	296.51
713.61	295.58
713.95	294.65
714.28	293.81
714.61	292.92
714.95	292.03
715.28	291.12
715.61	290.22
715.95	289.35
716.28	288.49
716.61	287.63
716.95	286.79
717.28	286.05
717.61	285.27
717.94	284.53
718.28	283.72
718.61	283.00
718.94	282.28
719.27	281.63
719.61	280.95
719.94	280.27
720.27	279.58
720.60	278.86
720.94	278.20
721.27	277.57
721.60	277.03
721.93	276.45
722.27	275.87
722.60	275.33
722.93	274.78
723.26	274.23
723.59	273.71
723.93	273.16
724.26	272.62
724.59	272.03
724.92	271.51
725.25	270.99
725.59	270.47
725.92	269.89
726.25	269.37
726.58	268.90
726.91	268.41
727.24	267.93
727.57	267.45
727.91	266.94
728.24	266.48
728.57	265.89
728.90	265.40
729.23	264.88
729.56	264.47
729.89	263.96
730.22	263.45
730.55	262.95
730.89	262.48
731.22	261.99
731.55	261.56
731.88	261.10
732.21	260.66
732.54	260.19
732.87	259.79
733.20	259.39
733.53	258.97
733.86	258.59
734.19	258.21
734.52	257.85
734.85	257.51
735.18	257.07
735.51	256.76
735.84	256.44
736.17	256.14
736.50	255.69
736.83	255.47
737.16	255.12
737.49	254.80
737.82	254.43
738.15	254.14
738.48	253.81
738.81	253.49
739.14	253.15
739.47	252.89
739.80	252.59
740.13	252.28
740.46	251.96
740.79	251.64
741.12	251.31
741.45	251.01
741.78	250.66
742.11	250.40
742.44	250.04
742.77	249.71
743.10	249.38
743.43	249.11
743.75	248.76
744.08	248.61
744.41	248.35
744.74	248.08
745.07	247.76
745.40	247.49
745.73	247.27
746.06	246.98
746.39	246.66
746.71	246.40
747.04	246.10
747.37	245.83
747.70	245.56
748.03	245.28
748.36	245.03
748.68	244.77
749.01	244.50
749.34	244.28
749.67	244.07
750.00	243.82
750.33	243.64
750.65	243.39
750.98	243.04
751.31	242.78
751.64	242.59
751.97	242.45
752.29	242.24
752.62	241.93
752.95	241.75
753.28	241.55
753.60	241.30
753.93	241.12
754.26	240.93
754.59	240.71
754.91	240.53
755.24	240.33
755.57	240.15
755.90	239.97
756.22	239.76
756.55	239.54
756.88	239.37
757.20	239.09
757.53	238.90
757.86	238.71
758.19	238.57
758.51	238.38
758.84	238.14
759.17	237.98
759.49	237.86
759.82	237.73
760.15	237.61
760.47	237.47
760.80	237.29
761.13	237.14
761.45	236.99
761.78	236.86
762.11	236.71
762.43	236.56
762.76	236.39
763.08	236.30
763.41	236.15
763.74	235.98
764.06	235.87
764.39	235.74
764.71	235.66
765.04	235.52
765.37	235.37
765.69	235.24
766.02	235.11
766.34	234.99
766.67	234.84
767.00	234.73
767.32	234.66
767.65	234.62
767.97	234.50
768.30	234.42
768.62	234.30
768.95	234.16
769.27	234.05
769.60	233.98
769.92	233.82
770.25	233.72
770.57	233.61
770.90	233.53
771.22	233.40
771.55	233.29
771.87	233.19
772.20	233.10
772.52	233.11
772.85	233.11
773.17	233.01
773.50	232.91
773.82	232.79
774.15	232.65
774.47	232.51
774.80	232.41
775.12	232.30
775.45	232.19
775.77	232.15
776.09	232.05
776.42	231.96
776.74	231.93
777.07	231.84
777.39	231.81
777.72	231.70
778.04	231.64
778.36	231.54
778.69	231.47
779.01	231.41
779.33	231.22
779.66	231.08
779.98	230.99
780.31	230.94
780.63	230.94
780.95	230.91
781.28	230.84
781.60	230.75
781.92	230.68
782.25	230.61
782.57	230.55
782.89	230.48
783.22	230.39
783.54	230.28
783.86	230.21
784.19	230.12
784.51	230.10
784.83	230.03
785.16	229.95
785.48	229.89
785.80	229.84
786.12	229.80
786.45	229.71
786.77	229.68
787.09	229.61
787.42	229.51
787.74	229.43
788.06	229.39
788.38	229.35
788.71	229.32
789.03	229.31
789.35	229.28
789.67	229.26
789.99	229.22
790.32	229.18
790.64	229.16
790.96	229.19
791.28	229.12
791.61	229.07
791.93	229.07
792.25	229.03
792.57	229.08
792.89	229.03
793.21	229.01
793.54	228.95
793.86	228.91
794.18	228.90
794.50	228.84
794.82	228.81
795.14	228.78
795.47	228.73
795.79	228.65
796.11	228.60
796.43	228.55
796.75	228.55
797.07	228.53
797.39	228.48
797.71	228.41
798.04	228.41
798.36	228.38
798.68	228.33
799.00	228.31
799.32	228.22
799.64	228.20
799.96	228.16
800.28	228.13
800.60	228.11
800.92	228.07
801.24	228.03
801.56	228.00
801.89	227.95
802.21	227.92
802.53	227.91
802.85	227.88
803.17	227.90
803.49	227.86
803.81	227.80
804.13	227.79
804.45	227.71
804.77	227.69
805.09	227.65
805.41	227.59
805.73	227.54
806.05	227.49
806.37	227.44
806.69	227.39
807.01	227.38
807.33	227.36
807.65	227.32
807.97	227.36
808.28	227.36
808.60	227.36
808.92	227.35
809.24	227.35
809.56	227.33
809.88	227.26
810.20	227.27
810.52	227.29
810.84	227.27
811.16	227.29
811.48	227.25
811.80	227.25
812.12	227.25
812.43	227.27
812.75	227.25
813.07	227.27
813.39	227.29
813.71	227.27
814.03	227.23
814.35	227.19
814.67	227.11
814.98	227.08
815.30	227.04
815.62	227.02
815.94	226.96
816.26	226.97
816.58	226.97
816.89	226.91
817.21	226.86
817.53	226.85
817.85	226.83
818.17	226.82
818.48	226.75
818.80	226.74
819.12	226.66
819.44	226.62
819.76	226.58
820.07	226.52
820.39	226.48
820.71	226.43
821.03	226.42
821.34	226.42
821.66	226.38
821.98	226.39
822.30	226.36
822.61	226.37
822.93	226.29
823.25	226.25
823.57	226.23
823.88	226.24
824.20	226.21
824.52	226.19
824.83	226.17
825.15	226.19
825.47	226.21
825.79	226.21
826.10	226.21
826.42	226.17
826.74	226.19
827.05	226.18
827.37	226.20
827.69	226.18
828.00	226.16
828.32	226.19
828.64	226.14
828.95	226.18
829.27	226.15
829.58	226.14
829.90	226.12
830.22	226.11
830.53	226.04
830.85	226.04
831.17	226.04
831.48	225.98
831.80	225.96
832.11	225.93
832.43	225.92
832.75	225.89
833.06	225.96
833.38	225.91
833.69	225.91
834.01	225.96
834.32	225.92
834.64	225.91
834.96	225.87
835.27	225.86
835.59	225.79
835.90	225.75
836.22	225.76
836.53	225.77
836.85	225.78
837.16	225.90
837.48	225.87
837.79	225.87
838.11	225.91
838.42	225.90
838.74	225.95
839.05	225.92
839.37	225.91
839.68	225.82
840.00	225.83
840.31	225.82
840.63	225.79
840.94	225.81
841.26	225.79
841.57	225.78
841.88	225.78
842.20	225.82
842.51	225.83
842.83	225.84
843.14	225.91
843.46	225.87
843.77	225.81
844.08	225.84
844.40	225.78
844.71	225.76
845.03	225.76
845.34	225.71
845.65	225.71
845.97	225.72
846.28	225.72
846.60	225.73
846.91	225.72
847.22	225.72
847.54	225.73
847.85	225.72
848.16	225.73
848.48	225.74
848.79	225.78
849.10	225.78
849.42	225.74
849.73	225.65
850.04	225.67
850.36	225.63
850.67	225.63
850.98	225.64
851.30	225.66
851.61	225.65
851.92	225.64
852.23	225.70
852.55	225.71
852.86	225.75
853.17	225.74
853.49	225.74
853.80	225.72
854.11	225.71
854.42	225.73
854.74	225.72
855.05	225.72
855.36	225.63
855.67	225.63
855.99	225.63
856.30	225.75
856.61	225.73
856.92	225.72
857.23	225.70
857.55	225.70
857.86	225.66
858.17	225.66
858.48	225.62
858.79	225.54
859.11	225.52
859.42	225.46
859.73	225.43
860.04	225.42
860.35	225.37
860.66	225.36
860.98	225.35
861.29	225.33
861.60	225.28
861.91	225.30
862.22	225.24
862.53	225.21
862.84	225.11
863.16	225.16
863.47	225.15
863.78	225.16
864.09	225.16
864.40	225.16
864.71	225.16
865.02	225.17
865.33	225.17
865.64	225.18
865.95	225.20
866.27	225.28
866.58	225.26
866.89	225.28
867.20	225.28
867.51	225.26
867.82	225.26
868.13	225.26
868.44	225.26
868.75	225.32
869.06	225.32
869.37	225.34
869.68	225.27
869.99	225.28
870.30	225.24
870.61	225.24
870.92	225.24
871.23	225.22
871.54	225.27
871.85	225.28
872.16	225.28
872.47	225.26
872.78	225.22
873.09	225.23
873.40	225.24
873.71	225.21
874.02	225.23
874.33	225.24
874.64	225.25
874.95	225.25
875.26	225.24
875.56	225.23
875.87	225.20
876.18	225.23
876.49	225.35
876.80	225.37
877.11	225.38
877.42	225.35
877.73	225.34
878.04	225.33
878.35	225.32
878.66	225.32
878.96	225.32
879.27	225.29
879.58	225.29
879.89	225.31
880.20	225.36
880.51	225.30
880.82	225.29
881.12	225.30
881.43	225.31
881.74	225.28
882.05	225.29
882.36	225.28
882.67	225.26
882.97	225.12
883.28	225.14
883.59	225.11
883.90	225.16
884.21	225.20
884.51	225.23
884.82	225.23
885.13	225.23
885.44	225.24
885.74	225.22
886.05	225.20
886.36	225.17
886.67	225.12
886.98	225.21
887.28	225.19
887.59	225.15
887.90	225.13
888.20	225.13
888.51	225.16
888.82	225.17
889.13	225.16
889.43	225.23
889.74	225.20
890.05	225.20
890.35	225.17
890.66	225.12
890.97	225.05
891.28	225.04
891.58	225.02
891.89	224.99
892.20	225.00
892.50	224.99
892.81	224.97
893.12	224.98
893.42	224.89
893.73	224.92
894.04	224.93
894.34	224.92
894.65	224.92
894.95	224.90
895.26	224.87
895.57	224.90
895.87	224.82
896.18	224.82
896.48	224.81
896.79	224.78
897.10	224.80
897.40	224.81
897.71	224.82
898.01	224.81
898.32	224.81
898.63	224.79
898.93	224.83
899.24	224.81
899.54	224.79
899.85	224.79
900.15	224.74
900.46	224.76
900.76	224.78
901.07	224.76
901.38	224.76
901.68	224.81
901.99	224.75
902.29	224.77
902.60	224.80
902.90	224.81
903.21	224.81
903.51	224.78
903.82	224.80
904.12	224.82
904.43	224.82
904.73	224.84
905.03	224.85
905.34	224.92
905.64	224.92
905.95	224.92
906.25	224.96
906.56	224.98
906.86	224.96
907.17	224.94
907.47	224.94
907.77	224.90
908.08	224.88
908.38	224.92
908.69	224.92
908.99	224.92
909.30	224.95
909.60	224.96
909.90	225.00
910.21	224.97
910.51	224.94
910.81	224.94
911.12	224.97
911.42	224.98
911.73	224.91
912.03	224.93
912.33	224.97
912.64	224.95
912.94	224.96
913.24	224.97
913.55	225.00
913.85	224.99
914.15	225.05
914.46	225.05
914.76	225.07
915.06	225.06
915.37	225.06
915.67	225.02
915.97	225.03
916.27	225.03
916.58	225.05
916.88	225.06
917.18	225.06
917.49	225.13
917.79	225.13
918.09	225.18
918.39	225.23
918.70	225.20
919.00	225.23
919.30	225.26
919.60	225.27
919.91	225.25
920.21	225.24
920.51	225.22
920.81	225.24
921.12	225.22
921.42	225.23
921.72	225.23
922.02	225.24
922.32	225.26
922.63	225.25
922.93	225.32
923.23	225.29
923.53	225.27
923.83	225.16
924.13	225.19
924.44	225.16
924.74	225.16
925.04	225.16
925.34	225.15
925.64	225.09
925.94	225.09
926.24	225.15
926.55	225.16
926.85	225.15
927.15	225.13
927.45	225.08
927.75	225.05
928.05	225.02
928.35	224.97
928.65	224.96
928.95	224.95
929.26	224.88
929.56	224.90
929.86	224.91
930.16	224.89
930.46	224.87
930.76	224.85
931.06	224.79
931.36	224.77
931.66	224.78
931.96	224.80
932.26	224.76
932.56	224.71
932.86	224.71
933.16	224.71
933.46	224.69
933.76	224.71
934.06	224.72
934.36	224.76
934.66	224.77
934.96	224.75
935.26	224.75
935.56	224.74
935.86	224.71
936.16	224.70
936.46	224.71
936.76	224.70
937.06	224.67
937.36	224.69
937.66	224.70
937.96	224.69
938.26	224.66
938.56	224.68
938.86	224.65
939.16	224.72
939.46	224.73
939.76	224.77
940.06	224.78
940.35	224.79
940.65	224.78
940.95	224.79
941.25	224.78
941.55	224.77
941.85	224.80
942.15	224.84
942.45	224.90
942.75	224.92
943.04	224.92
943.34	224.97
943.64	224.92
943.94	224.93
944.24	224.92
944.54	224.92
944.84	224.94
945.13	224.97
945.43	224.91
945.73	224.92
946.03	224.91
946.33	224.86
946.62	224.85
946.92	224.86
947.22	224.87
947.52	224.89
947.82	224.93
948.11	224.91
948.41	224.90
948.71	224.86
949.01	224.88
949.31	224.90
949.60	224.91
949.90	225.00
950.20	225.01
950.50	225.05
950.79	225.08
951.09	225.11
951.39	225.08
951.69	225.06
951.98	225.08
952.28	225.09
952.58	225.13
952.87	225.13
953.17	225.14
953.47	225.15
953.76	225.16
954.06	225.13
954.36	225.12
954.66	225.15
954.95	225.16
955.25	225.14
955.55	225.14
955.84	225.13
956.14	225.13
956.44	225.10
956.73	225.08
957.03	225.10
957.32	225.08
957.62	225.11
957.92	225.15
958.21	225.12
958.51	225.22
958.81	225.23
959.10	225.23
959.40	225.25
959.69	225.24
959.99	225.26
960.29	225.27
960.58	225.30
960.88	225.30
961.17	225.31
961.47	225.29
961.76	225.27
962.06	225.28
962.36	225.23
962.65	225.28
962.95	225.28
963.24	225.24
963.54	225.25
963.83	225.24
964.13	225.25
964.42	225.25
964.72	225.15
965.01	225.15
965.31	225.13
965.60	225.12
965.90	225.18
966.19	225.11
966.49	225.09
966.78	225.06
967.08	225.07
967.37	225.04
967.67	225.03
967.96	225.01
968.26	224.99
968.55	225.01
968.85	224.96
969.14	224.97
969.43	224.97
969.73	224.95
970.02	224.95
970.32	224.92
970.61	224.89
970.91	224.85
971.20	224.83
971.49	224.84
971.79	224.84
972.08	224.77
972.38	224.79
972.67	224.82
972.96	224.84
973.26	224.81
973.55	224.87
973.85	224.88
974.14	224.90
974.43	224.90
974.73	224.91
975.02	224.91
975.31	224.87
975.61	224.85
975.90	224.86
976.19	224.85
976.49	224.86
976.78	224.90
977.07	224.91
977.37	224.92
977.66	224.92
977.95	224.88
978.24	224.86
978.54	224.87
978.83	224.86
979.12	224.86
979.42	224.86
979.71	224.83
980.00	224.81
980.29	224.81
980.59	224.81
980.88	224.82
981.17	224.84
981.46	224.85
981.76	224.87
982.05	224.89
982.34	224.89
982.63	224.86
982.93	224.83
983.22	224.85
983.51	224.86
983.80	224.90
984.09	224.93
984.39	224.92
984.68	224.90
984.97	224.90
985.26	224.90
985.55	224.89
985.85	224.87
986.14	224.90
986.43	224.89
986.72	224.89
987.01	224.84
987.30	224.86
987.59	224.86
987.89	224.88
988.18	224.84
988.47	224.79
988.76	224.78
989.05	224.78
989.34	224.80
989.63	224.82
989.92	224.77
990.22	224.74
990.51	224.77
990.80	224.79
991.09	224.79
991.38	224.82
991.67	224.82
991.96	224.83
992.25	224.81
992.54	224.79
992.83	224.78
993.12	224.78
993.41	224.76
993.70	224.81
993.99	224.82
994.28	224.85
994.58	224.90
994.87	224.91
995.16	224.92
995.45	224.90
995.74	224.85
996.03	224.86
996.32	224.87
996.61	224.86
996.90	224.86
997.19	224.88
997.48	224.86
997.77	224.87
998.06	224.85
998.34	224.82
998.63	224.82
998.92	224.82
999.21	224.84
999.50	224.84
999.79	224.79
1000.08	224.74
1000.37	224.74
1000.66	224.71
1000.95	224.71
1001.24	224.68
1001.53	224.68
1001.82	224.63
1002.11	224.61
1002.40	224.63
1002.68	224.66
1002.97	224.69
1003.26	224.68
1003.55	224.64
1003.84	224.61
1004.13	224.64
1004.42	224.65
1004.71	224.68
1004.99	224.69
1005.28	224.72
1005.57	224.70
1005.86	224.69
1006.15	224.70
1006.44	224.67
1006.72	224.69
1007.01	224.68
1007.30	224.70
1007.59	224.66
1007.88	224.72
1008.17	224.73
1008.45	224.72
1008.74	224.67
1009.03	224.65
1009.32	224.63
1009.60	224.63
1009.89	224.65
1010.18	224.62
1010.47	224.60
1010.76	224.58
1011.04	224.56
1011.33	224.55
1011.62	224.58
1011.91	224.58
1012.19	224.62
1012.48	224.62
1012.77	224.61
1013.05	224.67
1013.34	224.67
1013.63	224.72
1013.92	224.73
1014.20	224.73
1014.49	224.72
1014.78	224.73
1015.06	224.69
1015.35	224.71
1015.64	224.74
1015.92	224.73
1016.21	224.71
1016.50	224.75
1016.78	224.79
1017.07	224.78
1017.36	224.77
1017.64	224.74
1017.93	224.73
1018.22	224.68
1018.50	224.71
1018.79	224.71
1019.08	224.66
1019.36	224.68
1019.65	224.66
1019.93	224.70
1020.22	224.74
1020.51	224.79
1020.79	224.79
1021.08	224.26
1021.36	225.01
1021.65	224.55
1021.94	224.55
1022.22	224.85
1022.51	224.68
1022.79	225.98
1023.08	225.28
1023.36	225.75
1023.65	224.32
>>>>>End Processed Spectral Data<<<<<
