SpectraSuite Data File
++++++++++++++++++++++++++++++++++++
Date: Fri Feb 01 16:45:27 EST 2013
User: group
Dark Spectrum Present: No
Reference Spectrum Present: No
Number of Sampled Component Spectra: 1
Spectrometers: USB2E7196
Integration Time (usec): 35000 (USB2E7196)
Spectra Averaged: 100 (USB2E7196)
Boxcar Smoothing: 10 (USB2E7196)
Correct for Electrical Dark: No (USB2E7196)
Strobe/Lamp Enabled: No (USB2E7196)
Correct for Detector Non-linearity: No (USB2E7196)
Correct for Stray Light: No (USB2E7196)
Number of Pixels in Processed Spectrum: 2048
>>>>>Begin Processed Spectral Data<<<<<
339.09	0.00
339.48	213.01
339.86	215.14
340.24	216.65
340.63	217.88
341.01	220.68
341.39	220.30
341.78	221.21
342.16	222.35
342.54	223.11
342.93	211.72
343.31	222.40
343.69	222.94
344.07	223.39
344.46	223.78
344.84	224.12
345.22	224.32
345.60	224.55
345.99	224.73
346.37	224.87
346.75	224.98
347.13	225.01
347.52	225.04
347.90	225.10
348.28	225.13
348.66	225.17
349.05	225.17
349.43	225.21
349.81	225.25
350.19	225.30
350.57	225.33
350.96	225.40
351.34	225.50
351.72	225.59
352.10	225.66
352.48	225.75
352.87	225.83
353.25	225.94
353.63	226.01
354.01	226.09
354.39	226.15
354.77	226.22
355.15	226.34
355.54	226.42
355.92	226.46
356.30	226.54
356.68	226.70
357.06	226.77
357.44	226.81
357.82	226.88
358.20	226.96
358.58	227.02
358.97	227.08
359.35	227.16
359.73	227.23
360.11	227.31
360.49	227.36
360.87	227.39
361.25	227.41
361.63	227.52
362.01	227.55
362.39	227.59
362.77	227.65
363.15	227.70
363.53	227.72
363.91	227.75
364.29	227.76
364.67	227.67
365.05	227.69
365.43	227.74
365.81	227.74
366.19	227.74
366.57	227.79
366.95	227.77
367.33	227.73
367.71	227.73
368.09	227.75
368.47	227.75
368.85	227.76
369.23	227.78
369.61	227.73
369.99	227.75
370.37	227.76
370.75	227.75
371.13	227.69
371.51	227.69
371.89	227.67
372.27	227.65
372.65	227.67
373.03	227.62
373.41	227.60
373.78	227.55
374.16	227.52
374.54	227.45
374.92	227.42
375.30	227.39
375.68	227.31
376.06	227.26
376.44	227.20
376.82	227.16
377.19	227.11
377.57	227.07
377.95	226.99
378.33	226.89
378.71	226.78
379.09	226.78
379.47	226.71
379.84	226.63
380.22	226.57
380.60	226.47
380.98	226.38
381.36	226.30
381.73	226.24
382.11	226.18
382.49	226.13
382.87	226.06
383.25	226.02
383.62	226.12
384.00	226.03
384.38	225.96
384.76	225.92
385.13	225.89
385.51	225.79
385.89	225.73
386.27	225.69
386.64	225.69
387.02	225.63
387.40	225.57
387.78	225.57
388.15	225.53
388.53	225.49
388.91	225.44
389.29	225.41
389.66	225.41
390.04	225.37
390.42	225.33
390.79	225.31
391.17	225.29
391.55	225.15
391.92	225.12
392.30	225.14
392.68	225.08
393.05	225.05
393.43	225.05
393.81	225.05
394.18	225.05
394.56	225.01
394.94	225.00
395.31	224.99
395.69	224.99
396.06	225.01
396.44	225.03
396.82	225.08
397.19	225.11
397.57	225.11
397.95	225.14
398.32	225.16
398.70	225.21
399.07	225.24
399.45	225.29
399.82	225.32
400.20	225.33
400.58	225.40
400.95	225.42
401.33	225.50
401.70	225.62
402.08	225.69
402.45	225.79
402.83	225.93
403.20	226.06
403.58	226.17
403.95	226.27
404.33	226.41
404.71	226.52
405.08	226.71
405.46	226.81
405.83	226.96
406.21	227.11
406.58	227.24
406.96	227.40
407.33	227.58
407.70	227.78
408.08	228.06
408.45	228.27
408.83	228.54
409.20	228.77
409.58	228.92
409.95	229.19
410.33	229.44
410.70	229.63
411.08	229.91
411.45	230.21
411.82	230.54
412.20	230.87
412.57	231.29
412.95	231.55
413.32	232.00
413.69	232.40
414.07	232.84
414.44	233.31
414.82	233.80
415.19	234.36
415.56	234.92
415.94	235.43
416.31	236.05
416.68	236.64
417.06	237.34
417.43	238.06
417.81	238.85
418.18	239.62
418.55	240.51
418.93	241.37
419.30	242.25
419.67	243.17
420.04	244.14
420.42	245.15
420.79	246.35
421.16	247.49
421.54	248.68
421.91	249.86
422.28	251.11
422.66	252.41
423.03	253.68
423.40	255.04
423.77	256.46
424.15	257.89
424.52	259.39
424.89	261.00
425.26	262.54
425.64	263.95
426.01	265.56
426.38	267.18
426.75	268.84
427.13	270.56
427.50	272.34
427.87	274.20
428.24	276.03
428.61	277.74
428.99	279.66
429.36	281.72
429.73	283.82
430.10	285.83
430.47	287.91
430.85	290.04
431.22	292.23
431.59	294.60
431.96	296.82
432.33	299.26
432.70	301.59
433.08	304.38
433.45	307.02
433.82	309.61
434.19	312.47
434.56	315.28
434.93	317.89
435.30	320.52
435.68	323.38
436.05	326.17
436.42	328.97
436.79	331.47
437.16	334.13
437.53	336.91
437.90	339.66
438.27	342.35
438.64	345.12
439.01	347.68
439.38	349.86
439.75	352.03
440.13	354.47
440.50	356.79
440.87	358.58
441.24	360.51
441.61	362.60
441.98	364.06
442.35	365.82
442.72	367.67
443.09	369.43
443.46	370.38
443.83	371.03
444.20	371.48
444.57	372.31
444.94	372.61
445.31	372.96
445.68	373.39
446.05	373.47
446.42	373.14
446.79	372.69
447.16	372.27
447.53	371.97
447.90	370.85
448.27	369.71
448.64	368.17
449.01	367.09
449.37	365.15
449.74	363.30
450.11	361.09
450.48	358.65
450.85	356.18
451.22	354.10
451.59	352.11
451.96	350.22
452.33	347.64
452.70	345.34
453.07	342.54
453.43	339.63
453.80	336.93
454.17	334.27
454.54	331.81
454.91	329.10
455.28	326.47
455.65	323.98
456.02	321.57
456.38	319.46
456.75	316.79
457.12	314.60
457.49	312.37
457.86	310.21
458.23	308.38
458.59	306.36
458.96	304.30
459.33	302.41
459.70	300.57
460.07	299.09
460.43	297.39
460.80	295.79
461.17	294.40
461.54	292.89
461.91	291.47
462.27	290.03
462.64	288.81
463.01	287.43
463.38	286.19
463.74	284.86
464.11	283.71
464.48	282.69
464.85	281.58
465.21	280.73
465.58	279.85
465.95	278.79
466.32	277.85
466.68	276.97
467.05	276.07
467.42	275.16
467.78	274.25
468.15	273.42
468.52	272.73
468.88	271.84
469.25	271.08
469.62	270.49
469.98	269.82
470.35	269.22
470.72	268.64
471.08	267.98
471.45	267.44
471.82	266.92
472.18	266.33
472.55	265.89
472.92	265.39
473.28	264.92
473.65	264.49
474.02	264.06
474.38	263.65
474.75	263.39
475.11	263.11
475.48	262.86
475.85	262.59
476.21	262.37
476.58	262.23
476.94	262.10
477.31	261.95
477.67	261.79
478.04	261.68
478.41	261.61
478.77	261.67
479.14	261.60
479.50	261.61
479.87	261.69
480.23	261.80
480.60	261.87
480.96	261.94
481.33	262.13
481.69	262.38
482.06	262.61
482.42	262.80
482.79	263.06
483.15	263.38
483.52	263.80
483.88	264.17
484.25	264.55
484.61	264.98
484.98	265.41
485.34	266.02
485.71	266.56
486.07	267.17
486.44	267.76
486.80	268.43
487.17	269.16
487.53	269.96
487.90	270.81
488.26	271.77
488.62	272.79
488.99	273.76
489.35	274.80
489.72	275.90
490.08	277.12
490.44	278.35
490.81	279.68
491.17	280.97
491.54	282.46
491.90	283.98
492.26	285.63
492.63	287.35
492.99	289.08
493.36	290.98
493.72	293.04
494.08	295.12
494.45	297.41
494.81	299.77
495.17	302.27
495.54	304.79
495.90	307.49
496.26	310.28
496.63	313.24
496.99	316.33
497.35	319.62
497.72	323.00
498.08	326.52
498.44	330.22
498.80	334.16
499.17	338.21
499.53	342.42
499.89	346.76
500.26	351.24
500.62	355.95
500.98	360.90
501.34	365.95
501.71	371.28
502.07	376.74
502.43	382.35
502.79	388.07
503.16	394.16
503.52	400.35
503.88	406.75
504.24	413.39
504.60	420.25
504.97	427.32
505.33	434.60
505.69	442.33
506.05	450.08
506.41	457.94
506.78	466.05
507.14	474.43
507.50	483.18
507.86	492.16
508.22	501.34
508.59	510.57
508.95	520.18
509.31	529.96
509.67	540.05
510.03	550.26
510.39	560.87
510.75	571.62
511.12	582.48
511.48	593.73
511.84	605.09
512.20	616.62
512.56	628.60
512.92	640.69
513.28	652.98
513.64	665.40
514.00	678.06
514.37	690.90
514.73	703.94
515.09	716.87
515.45	730.11
515.81	743.56
516.17	757.42
516.53	771.47
516.89	785.51
517.25	799.58
517.61	813.92
517.97	828.33
518.33	842.59
518.69	857.19
519.05	872.12
519.41	887.17
519.77	902.56
520.13	917.78
520.49	933.05
520.85	948.16
521.21	963.74
521.57	979.88
521.93	995.54
522.29	1011.69
522.65	1027.86
523.01	1043.87
523.37	1059.75
523.73	1075.77
524.09	1091.75
524.45	1107.91
524.81	1124.37
525.17	1141.02
525.53	1157.74
525.89	1174.63
526.25	1191.48
526.61	1207.71
526.97	1224.25
527.33	1240.58
527.68	1257.12
528.04	1273.42
528.40	1289.89
528.76	1306.75
529.12	1323.07
529.48	1339.82
529.84	1355.63
530.20	1371.99
530.56	1388.93
530.91	1406.24
531.27	1422.86
531.63	1439.10
531.99	1455.50
532.35	1471.29
532.71	1487.07
533.07	1503.09
533.42	1518.70
533.78	1534.62
534.14	1550.67
534.50	1565.86
534.86	1581.47
535.21	1596.45
535.57	1612.25
535.93	1627.72
536.29	1642.35
536.65	1657.44
537.00	1671.99
537.36	1687.23
537.72	1701.64
538.08	1715.75
538.44	1729.26
538.79	1742.97
539.15	1756.41
539.51	1770.07
539.87	1784.23
540.22	1797.69
540.58	1811.21
540.94	1824.29
541.29	1836.88
541.65	1849.48
542.01	1862.57
542.37	1874.83
542.72	1887.16
543.08	1898.69
543.44	1910.85
543.79	1921.98
544.15	1932.75
544.51	1944.21
544.87	1955.08
545.22	1965.88
545.58	1976.04
545.94	1985.66
546.29	1995.43
546.65	2005.30
547.01	2014.44
547.36	2022.97
547.72	2031.46
548.07	2039.33
548.43	2047.47
548.79	2055.41
549.14	2062.73
549.50	2069.80
549.86	2077.36
550.21	2084.57
550.57	2091.88
550.92	2098.46
551.28	2105.44
551.64	2112.34
551.99	2118.91
552.35	2124.95
552.70	2131.09
553.06	2137.03
553.41	2143.41
553.77	2149.40
554.13	2155.32
554.48	2161.44
554.84	2167.06
555.19	2172.27
555.55	2177.32
555.90	2181.76
556.26	2186.76
556.61	2191.46
556.97	2196.07
557.32	2200.15
557.68	2204.27
558.03	2208.40
558.39	2211.99
558.74	2216.58
559.10	2220.49
559.45	2224.03
559.81	2228.29
560.16	2231.97
560.52	2235.31
560.87	2238.71
561.23	2241.32
561.58	2244.30
561.94	2246.74
562.29	2248.88
562.64	2251.68
563.00	2254.37
563.35	2257.93
563.71	2260.93
564.06	2264.23
564.42	2267.10
564.77	2269.82
565.12	2272.23
565.48	2274.26
565.83	2276.34
566.19	2277.89
566.54	2278.84
566.89	2279.99
567.25	2280.71
567.60	2282.03
567.96	2283.78
568.31	2284.75
568.66	2286.06
569.02	2286.64
569.37	2287.17
569.72	2288.32
570.08	2288.44
570.43	2288.44
570.78	2288.03
571.14	2286.61
571.49	2285.30
571.84	2285.09
572.20	2284.06
572.55	2283.08
572.90	2281.51
573.26	2280.16
573.61	2278.31
573.96	2276.77
574.31	2273.96
574.67	2271.08
575.02	2267.67
575.37	2264.27
575.72	2260.63
576.08	2257.31
576.43	2254.04
576.78	2250.50
577.13	2247.38
577.49	2244.33
577.84	2241.01
578.19	2237.34
578.54	2233.79
578.90	2229.77
579.25	2224.15
579.60	2219.33
579.95	2214.40
580.30	2209.46
580.66	2204.29
581.01	2199.49
581.36	2194.51
581.71	2190.41
582.06	2186.12
582.42	2181.82
582.77	2176.70
583.12	2172.20
583.47	2167.69
583.82	2162.95
584.17	2157.76
584.53	2152.31
584.88	2146.88
585.23	2141.35
585.58	2135.93
585.93	2130.68
586.28	2125.96
586.63	2121.06
586.98	2115.88
587.34	2111.16
587.69	2106.53
588.04	2101.50
588.39	2095.95
588.74	2089.66
589.09	2083.67
589.44	2076.88
589.79	2070.78
590.14	2065.25
590.49	2058.66
590.84	2052.37
591.19	2046.35
591.54	2039.93
591.89	2032.75
592.25	2026.09
592.60	2018.90
592.95	2011.39
593.30	2004.05
593.65	1996.52
594.00	1989.53
594.35	1982.48
594.70	1974.63
595.05	1967.51
595.40	1960.31
595.75	1952.84
596.10	1946.86
596.45	1940.28
596.80	1934.35
597.15	1927.96
597.50	1921.13
597.85	1914.78
598.19	1908.07
598.54	1901.01
598.89	1894.48
599.24	1888.57
599.59	1881.89
599.94	1875.71
600.29	1869.51
600.64	1862.92
600.99	1855.70
601.34	1848.99
601.69	1842.15
602.04	1835.45
602.39	1828.10
602.74	1821.32
603.08	1814.70
603.43	1807.96
603.78	1800.54
604.13	1793.27
604.48	1786.03
604.83	1779.06
605.18	1772.31
605.53	1764.46
605.87	1756.65
606.22	1749.47
606.57	1741.68
606.92	1734.37
607.27	1727.32
607.62	1720.52
607.96	1713.37
608.31	1706.80
608.66	1699.32
609.01	1691.92
609.36	1684.37
609.70	1676.48
610.05	1668.48
610.40	1660.82
610.75	1652.56
611.10	1645.07
611.44	1636.66
611.79	1628.59
612.14	1620.01
612.49	1610.85
612.83	1602.48
613.18	1594.38
613.53	1586.29
613.88	1577.83
614.22	1569.53
614.57	1560.92
614.92	1552.90
615.27	1545.42
615.61	1537.08
615.96	1529.03
616.31	1521.17
616.65	1513.77
617.00	1506.19
617.35	1498.62
617.70	1490.30
618.04	1481.86
618.39	1473.64
618.74	1466.15
619.08	1457.95
619.43	1450.47
619.78	1443.66
620.12	1436.57
620.47	1428.98
620.82	1420.89
621.16	1413.36
621.51	1405.89
621.85	1398.33
622.20	1389.85
622.55	1381.53
622.89	1373.68
623.24	1365.99
623.59	1358.69
623.93	1351.18
624.28	1343.97
624.62	1336.44
624.97	1329.36
625.32	1322.50
625.66	1315.50
626.01	1308.36
626.35	1300.98
626.70	1293.17
627.04	1285.38
627.39	1277.56
627.73	1270.26
628.08	1263.37
628.43	1256.12
628.77	1248.72
629.12	1241.16
629.46	1234.04
629.81	1226.54
630.15	1219.39
630.50	1212.07
630.84	1203.84
631.19	1195.88
631.53	1188.30
631.88	1180.68
632.22	1173.07
632.57	1165.79
632.91	1158.11
633.26	1150.60
633.60	1143.09
633.95	1135.96
634.29	1128.89
634.64	1122.17
634.98	1114.84
635.32	1107.61
635.67	1101.03
636.01	1094.40
636.36	1087.66
636.70	1081.02
637.05	1074.54
637.39	1068.05
637.73	1061.50
638.08	1055.69
638.42	1049.69
638.77	1043.37
639.11	1036.92
639.45	1030.50
639.80	1023.90
640.14	1017.67
640.49	1011.23
640.83	1005.03
641.17	998.90
641.52	992.56
641.86	986.15
642.20	980.35
642.55	974.04
642.89	967.57
643.23	960.98
643.58	955.14
643.92	949.00
644.26	943.04
644.61	937.05
644.95	931.04
645.29	924.46
645.64	917.72
645.98	911.35
646.32	905.42
646.66	899.40
647.01	893.62
647.35	887.84
647.69	881.96
648.04	876.41
648.38	870.54
648.72	864.55
649.06	858.58
649.41	852.61
649.75	846.75
650.09	840.79
650.43	835.10
650.78	828.95
651.12	823.00
651.46	817.21
651.80	811.42
652.14	805.99
652.49	800.66
652.83	795.52
653.17	789.84
653.51	784.18
653.85	778.76
654.20	773.13
654.54	767.16
654.88	761.47
655.22	755.63
655.56	750.06
655.90	744.64
656.25	739.35
656.59	734.02
656.93	728.93
657.27	723.84
657.61	718.43
657.95	713.39
658.29	708.33
658.64	703.08
658.98	697.85
659.32	692.45
659.66	687.23
660.00	681.94
660.34	677.02
660.68	672.03
661.02	667.04
661.36	662.35
661.70	657.89
662.05	653.55
662.39	649.19
662.73	644.66
663.07	640.25
663.41	635.83
663.75	631.35
664.09	626.73
664.43	622.33
664.77	618.26
665.11	613.95
665.45	609.84
665.79	605.79
666.13	601.62
666.47	597.53
666.81	593.41
667.15	589.32
667.49	585.41
667.83	581.65
668.17	577.68
668.51	573.58
668.85	569.54
669.19	565.70
669.53	561.92
669.87	558.08
670.21	554.36
670.55	550.72
670.89	547.28
671.23	543.89
671.57	540.34
671.91	536.77
672.25	533.31
672.58	529.82
672.92	526.36
673.26	523.15
673.60	520.01
673.94	516.89
674.28	513.90
674.62	510.96
674.96	507.82
675.30	504.93
675.64	501.98
675.97	499.18
676.31	496.27
676.65	493.31
676.99	490.56
677.33	487.73
677.67	484.88
678.01	481.86
678.34	478.94
678.68	476.07
679.02	473.22
679.36	470.47
679.70	467.76
680.04	465.05
680.37	462.20
680.71	459.39
681.05	456.76
681.39	454.15
681.73	451.48
682.06	449.00
682.40	446.49
682.74	443.94
683.08	441.39
683.42	438.79
683.75	436.32
684.09	433.83
684.43	431.36
684.77	428.93
685.10	426.58
685.44	424.17
685.78	421.90
686.12	419.64
686.45	417.33
686.79	414.99
687.13	412.77
687.46	410.60
687.80	408.43
688.14	406.22
688.48	404.13
688.81	401.92
689.15	399.76
689.49	397.57
689.82	395.45
690.16	393.37
690.50	391.42
690.83	389.41
691.17	387.39
691.51	385.49
691.84	383.64
692.18	381.72
692.52	379.76
692.85	377.79
693.19	375.96
693.52	374.11
693.86	372.27
694.20	370.50
694.53	368.70
694.87	366.84
695.21	365.05
695.54	363.20
695.88	361.47
696.21	359.73
696.55	358.06
696.88	356.42
697.22	354.76
697.56	353.12
697.89	351.53
698.23	349.95
698.56	348.35
698.90	346.81
699.23	345.18
699.57	343.65
699.90	342.10
700.24	340.52
700.58	338.99
700.91	337.50
701.25	336.06
701.58	334.70
701.92	333.31
702.25	331.89
702.59	330.54
702.92	329.20
703.26	327.91
703.59	326.63
703.93	325.45
704.26	324.22
704.60	322.95
704.93	321.65
705.26	320.37
705.60	319.19
705.93	317.98
706.27	316.93
706.60	315.87
706.94	314.82
707.27	313.69
707.61	312.60
707.94	311.58
708.27	310.49
708.61	309.40
708.94	308.45
709.28	307.48
709.61	306.49
709.94	305.52
710.28	304.45
710.61	303.46
710.95	302.35
711.28	301.42
711.61	300.45
711.95	299.55
712.28	298.62
712.61	297.63
712.95	296.67
713.28	295.76
713.61	294.87
713.95	294.02
714.28	293.19
714.61	292.37
714.95	291.54
715.28	290.68
715.61	289.80
715.95	288.92
716.28	288.09
716.61	287.27
716.95	286.42
717.28	285.72
717.61	284.95
717.94	284.22
718.28	283.40
718.61	282.65
718.94	281.94
719.27	281.30
719.61	280.64
719.94	279.99
720.27	279.28
720.60	278.59
720.94	277.94
721.27	277.33
721.60	276.76
721.93	276.16
722.27	275.59
722.60	275.04
722.93	274.50
723.26	273.94
723.59	273.37
723.93	272.83
724.26	272.25
724.59	271.68
724.92	271.15
725.25	270.66
725.59	270.14
725.92	269.61
726.25	269.05
726.58	268.54
726.91	268.05
727.24	267.55
727.57	267.09
727.91	266.56
728.24	266.10
728.57	265.58
728.90	265.04
729.23	264.56
729.56	264.14
729.89	263.63
730.22	263.13
730.55	262.68
730.89	262.21
731.22	261.79
731.55	261.37
731.88	260.93
732.21	260.49
732.54	260.09
732.87	259.67
733.20	259.28
733.53	258.89
733.86	258.54
734.19	258.17
734.52	257.77
734.85	257.44
735.18	257.00
735.51	256.64
735.84	256.29
736.17	255.92
736.50	255.52
736.83	255.33
737.16	255.02
737.49	254.65
737.82	254.35
738.15	254.02
738.48	253.69
738.81	253.39
739.14	253.07
739.47	252.76
739.80	252.51
740.13	252.23
740.46	251.90
740.79	251.53
741.12	251.21
741.45	250.91
741.78	250.58
742.11	250.33
742.44	250.04
742.77	249.80
743.10	249.53
743.43	249.25
743.75	248.87
744.08	248.71
744.41	248.47
744.74	248.17
745.07	247.88
745.40	247.60
745.73	247.33
746.06	247.05
746.39	246.79
746.71	246.49
747.04	246.22
747.37	245.97
747.70	245.74
748.03	245.49
748.36	245.26
748.68	245.05
749.01	244.81
749.34	244.58
749.67	244.36
750.00	244.11
750.33	243.95
750.65	243.70
750.98	243.36
751.31	243.15
751.64	242.97
751.97	242.81
752.29	242.61
752.62	242.36
752.95	242.16
753.28	241.92
753.60	241.68
753.93	241.49
754.26	241.27
754.59	241.04
754.91	240.84
755.24	240.61
755.57	240.38
755.90	240.20
756.22	239.94
756.55	239.71
756.88	239.52
757.20	239.27
757.53	239.06
757.86	238.87
758.19	238.70
758.51	238.49
758.84	238.26
759.17	238.08
759.49	237.94
759.82	237.80
760.15	237.65
760.47	237.51
760.80	237.31
761.13	237.21
761.45	237.05
761.78	236.89
762.11	236.72
762.43	236.57
762.76	236.41
763.08	236.31
763.41	236.19
763.74	236.05
764.06	235.89
764.39	235.76
764.71	235.62
765.04	235.45
765.37	235.33
765.69	235.26
766.02	235.09
766.34	234.96
766.67	234.80
767.00	234.69
767.32	234.65
767.65	234.62
767.97	234.49
768.30	234.40
768.62	234.30
768.95	234.20
769.27	234.12
769.60	234.03
769.92	233.92
770.25	233.80
770.57	233.68
770.90	233.60
771.22	233.52
771.55	233.43
771.87	233.35
772.20	233.27
772.52	233.26
772.85	233.31
773.17	233.25
773.50	233.16
773.82	233.05
774.15	232.89
774.47	232.76
774.80	232.67
775.12	232.58
775.45	232.51
775.77	232.49
776.09	232.40
776.42	232.31
776.74	232.23
777.07	232.17
777.39	232.08
777.72	232.00
778.04	231.93
778.36	231.87
778.69	231.85
779.01	231.80
779.33	231.65
779.66	231.51
779.98	231.40
780.31	231.38
780.63	231.38
780.95	231.35
781.28	231.26
781.60	231.20
781.92	231.15
782.25	231.08
782.57	231.01
782.89	230.97
783.22	230.91
783.54	230.88
783.86	230.82
784.19	230.78
784.51	230.76
784.83	230.73
785.16	230.66
785.48	230.61
785.80	230.58
786.12	230.52
786.45	230.47
786.77	230.45
787.09	230.41
787.42	230.33
787.74	230.31
788.06	230.30
788.38	230.26
788.71	230.23
789.03	230.22
789.35	230.19
789.67	230.14
789.99	230.13
790.32	230.07
790.64	230.06
790.96	230.13
791.28	230.06
791.61	229.99
791.93	229.97
792.25	229.89
792.57	229.88
792.89	229.83
793.21	229.79
793.54	229.77
793.86	229.71
794.18	229.68
794.50	229.62
794.82	229.55
795.14	229.52
795.47	229.50
795.79	229.44
796.11	229.39
796.43	229.34
796.75	229.27
797.07	229.26
797.39	229.24
797.71	229.12
798.04	229.08
798.36	229.09
798.68	229.06
799.00	229.05
799.32	228.98
799.64	228.94
799.96	228.90
800.28	228.88
800.60	228.85
800.92	228.81
801.24	228.74
801.56	228.74
801.89	228.69
802.21	228.67
802.53	228.62
802.85	228.58
803.17	228.59
803.49	228.55
803.81	228.49
804.13	228.47
804.45	228.43
804.77	228.41
805.09	228.37
805.41	228.32
805.73	228.26
806.05	228.20
806.37	228.16
806.69	228.13
807.01	228.08
807.33	228.08
807.65	228.01
807.97	228.06
808.28	228.01
808.60	227.97
808.92	227.93
809.24	227.98
809.56	227.96
809.88	227.90
810.20	227.87
810.52	227.86
810.84	227.78
811.16	227.75
811.48	227.73
811.80	227.71
812.12	227.69
812.43	227.70
812.75	227.65
813.07	227.66
813.39	227.64
813.71	227.62
814.03	227.59
814.35	227.56
814.67	227.51
814.98	227.50
815.30	227.47
815.62	227.41
815.94	227.31
816.26	227.31
816.58	227.29
816.89	227.32
817.21	227.29
817.53	227.28
817.85	227.25
818.17	227.23
818.48	227.17
818.80	227.18
819.12	227.16
819.44	227.14
819.76	227.10
820.07	227.09
820.39	227.00
820.71	226.93
821.03	226.91
821.34	226.87
821.66	226.84
821.98	226.86
822.30	226.84
822.61	226.86
822.93	226.82
823.25	226.81
823.57	226.76
823.88	226.76
824.20	226.73
824.52	226.76
824.83	226.75
825.15	226.76
825.47	226.72
825.79	226.70
826.10	226.70
826.42	226.66
826.74	226.67
827.05	226.69
827.37	226.73
827.69	226.73
828.00	226.73
828.32	226.75
828.64	226.68
828.95	226.76
829.27	226.71
829.58	226.67
829.90	226.67
830.22	226.69
830.53	226.64
830.85	226.65
831.17	226.61
831.48	226.60
831.80	226.56
832.11	226.55
832.43	226.53
832.75	226.54
833.06	226.58
833.38	226.54
833.69	226.54
834.01	226.50
834.32	226.51
834.64	226.51
834.96	226.48
835.27	226.48
835.59	226.43
835.90	226.42
836.22	226.40
836.53	226.35
836.85	226.32
837.16	226.45
837.48	226.45
837.79	226.48
838.11	226.48
838.42	226.49
838.74	226.47
839.05	226.42
839.37	226.40
839.68	226.34
840.00	226.32
840.31	226.30
840.63	226.31
840.94	226.28
841.26	226.24
841.57	226.23
841.88	226.24
842.20	226.22
842.51	226.23
842.83	226.22
843.14	226.30
843.46	226.32
843.77	226.22
844.08	226.19
844.40	226.10
844.71	226.05
845.03	226.03
845.34	226.00
845.65	226.03
845.97	225.99
846.28	225.98
846.60	225.98
846.91	225.99
847.22	225.95
847.54	225.96
847.85	225.95
848.16	225.94
848.48	225.93
848.79	225.93
849.10	225.94
849.42	225.94
849.73	225.84
850.04	225.80
850.36	225.76
850.67	225.77
850.98	225.77
851.30	225.79
851.61	225.75
851.92	225.75
852.23	225.76
852.55	225.78
852.86	225.80
853.17	225.81
853.49	225.77
853.80	225.79
854.11	225.77
854.42	225.77
854.74	225.75
855.05	225.72
855.36	225.70
855.67	225.67
855.99	225.71
856.30	225.81
856.61	225.81
856.92	225.80
857.23	225.78
857.55	225.81
857.86	225.79
858.17	225.80
858.48	225.79
858.79	225.78
859.11	225.77
859.42	225.78
859.73	225.76
860.04	225.78
860.35	225.77
860.66	225.71
860.98	225.72
861.29	225.72
861.60	225.70
861.91	225.68
862.22	225.67
862.53	225.63
862.84	225.52
863.16	225.54
863.47	225.53
863.78	225.53
864.09	225.52
864.40	225.50
864.71	225.53
865.02	225.53
865.33	225.50
865.64	225.49
865.95	225.51
866.27	225.58
866.58	225.59
866.89	225.58
867.20	225.61
867.51	225.59
867.82	225.59
868.13	225.61
868.44	225.60
868.75	225.64
869.06	225.65
869.37	225.67
869.68	225.64
869.99	225.67
870.30	225.66
870.61	225.68
870.92	225.70
871.23	225.67
871.54	225.72
871.85	225.72
872.16	225.72
872.47	225.70
872.78	225.64
873.09	225.62
873.40	225.60
873.71	225.63
874.02	225.66
874.33	225.65
874.64	225.62
874.95	225.62
875.26	225.56
875.56	225.56
875.87	225.55
876.18	225.55
876.49	225.63
876.80	225.65
877.11	225.60
877.42	225.62
877.73	225.64
878.04	225.64
878.35	225.65
878.66	225.71
878.96	225.68
879.27	225.66
879.58	225.68
879.89	225.73
880.20	225.76
880.51	225.76
880.82	225.79
881.12	225.84
881.43	225.86
881.74	225.89
882.05	225.87
882.36	225.89
882.67	225.88
882.97	225.76
883.28	225.75
883.59	225.78
883.90	225.79
884.21	225.80
884.51	225.79
884.82	225.77
885.13	225.72
885.44	225.75
885.74	225.76
886.05	225.75
886.36	225.71
886.67	225.67
886.98	225.70
887.28	225.69
887.59	225.70
887.90	225.67
888.20	225.65
888.51	225.68
888.82	225.63
889.13	225.65
889.43	225.77
889.74	225.78
890.05	225.76
890.35	225.73
890.66	225.72
890.97	225.71
891.28	225.70
891.58	225.72
891.89	225.68
892.20	225.68
892.50	225.68
892.81	225.69
893.12	225.71
893.42	225.64
893.73	225.65
894.04	225.63
894.34	225.66
894.65	225.67
894.95	225.67
895.26	225.70
895.57	225.71
895.87	225.61
896.18	225.61
896.48	225.59
896.79	225.59
897.10	225.56
897.40	225.54
897.71	225.54
898.01	225.52
898.32	225.49
898.63	225.44
898.93	225.43
899.24	225.43
899.54	225.43
899.85	225.44
900.15	225.44
900.46	225.41
900.76	225.37
901.07	225.34
901.38	225.33
901.68	225.35
901.99	225.31
902.29	225.31
902.60	225.32
902.90	225.35
903.21	225.37
903.51	225.40
903.82	225.43
904.12	225.47
904.43	225.46
904.73	225.46
905.03	225.49
905.34	225.59
905.64	225.57
905.95	225.57
906.25	225.56
906.56	225.53
906.86	225.56
907.17	225.59
907.47	225.59
907.77	225.58
908.08	225.52
908.38	225.54
908.69	225.56
908.99	225.54
909.30	225.50
909.60	225.50
909.90	225.52
910.21	225.49
910.51	225.45
910.81	225.49
911.12	225.50
911.42	225.52
911.73	225.42
912.03	225.43
912.33	225.41
912.64	225.42
912.94	225.45
913.24	225.45
913.55	225.45
913.85	225.44
914.15	225.47
914.46	225.51
914.76	225.50
915.06	225.49
915.37	225.49
915.67	225.51
915.97	225.47
916.27	225.46
916.58	225.43
916.88	225.45
917.18	225.45
917.49	225.54
917.79	225.53
918.09	225.53
918.39	225.54
918.70	225.57
919.00	225.59
919.30	225.58
919.60	225.58
919.91	225.55
920.21	225.60
920.51	225.59
920.81	225.59
921.12	225.60
921.42	225.59
921.72	225.60
922.02	225.63
922.32	225.68
922.63	225.66
922.93	225.74
923.23	225.72
923.53	225.71
923.83	225.67
924.13	225.66
924.44	225.68
924.74	225.68
925.04	225.67
925.34	225.62
925.64	225.63
925.94	225.62
926.24	225.67
926.55	225.67
926.85	225.65
927.15	225.62
927.45	225.60
927.75	225.58
928.05	225.56
928.35	225.53
928.65	225.53
928.95	225.55
929.26	225.52
929.56	225.57
929.86	225.59
930.16	225.58
930.46	225.60
930.76	225.58
931.06	225.55
931.36	225.53
931.66	225.56
931.96	225.54
932.26	225.55
932.56	225.51
932.86	225.50
933.16	225.53
933.46	225.55
933.76	225.55
934.06	225.57
934.36	225.63
934.66	225.59
934.96	225.61
935.26	225.58
935.56	225.62
935.86	225.58
936.16	225.52
936.46	225.50
936.76	225.48
937.06	225.50
937.36	225.49
937.66	225.52
937.96	225.52
938.26	225.49
938.56	225.50
938.86	225.52
939.16	225.54
939.46	225.54
939.76	225.53
940.06	225.51
940.35	225.51
940.65	225.45
940.95	225.46
941.25	225.41
941.55	225.39
941.85	225.38
942.15	225.36
942.45	225.41
942.75	225.38
943.04	225.39
943.34	225.41
943.64	225.41
943.94	225.40
944.24	225.39
944.54	225.41
944.84	225.39
945.13	225.40
945.43	225.35
945.73	225.36
946.03	225.34
946.33	225.35
946.62	225.35
946.92	225.33
947.22	225.36
947.52	225.39
947.82	225.40
948.11	225.36
948.41	225.38
948.71	225.34
949.01	225.40
949.31	225.38
949.60	225.35
949.90	225.36
950.20	225.35
950.50	225.35
950.79	225.32
951.09	225.31
951.39	225.29
951.69	225.29
951.98	225.27
952.28	225.30
952.58	225.31
952.87	225.30
953.17	225.33
953.47	225.32
953.76	225.30
954.06	225.31
954.36	225.29
954.66	225.31
954.95	225.34
955.25	225.31
955.55	225.33
955.84	225.35
956.14	225.33
956.44	225.35
956.73	225.33
957.03	225.36
957.32	225.39
957.62	225.39
957.92	225.44
958.21	225.45
958.51	225.52
958.81	225.51
959.10	225.52
959.40	225.54
959.69	225.59
959.99	225.63
960.29	225.61
960.58	225.62
960.88	225.62
961.17	225.59
961.47	225.61
961.76	225.58
962.06	225.55
962.36	225.58
962.65	225.55
962.95	225.58
963.24	225.56
963.54	225.55
963.83	225.53
964.13	225.54
964.42	225.53
964.72	225.48
965.01	225.50
965.31	225.52
965.60	225.48
965.90	225.50
966.19	225.48
966.49	225.49
966.78	225.50
967.08	225.50
967.37	225.52
967.67	225.51
967.96	225.54
968.26	225.55
968.55	225.56
968.85	225.55
969.14	225.52
969.43	225.53
969.73	225.53
970.02	225.56
970.32	225.51
970.61	225.52
970.91	225.47
971.20	225.43
971.49	225.41
971.79	225.43
972.08	225.37
972.38	225.35
972.67	225.35
972.96	225.34
973.26	225.33
973.55	225.37
973.85	225.34
974.14	225.34
974.43	225.32
974.73	225.30
975.02	225.30
975.31	225.30
975.61	225.31
975.90	225.31
976.19	225.30
976.49	225.29
976.78	225.28
977.07	225.26
977.37	225.28
977.66	225.25
977.95	225.24
978.24	225.24
978.54	225.26
978.83	225.25
979.12	225.24
979.42	225.22
979.71	225.19
980.00	225.23
980.29	225.20
980.59	225.19
980.88	225.20
981.17	225.19
981.46	225.18
981.76	225.18
982.05	225.22
982.34	225.20
982.63	225.23
982.93	225.22
983.22	225.28
983.51	225.28
983.80	225.32
984.09	225.35
984.39	225.31
984.68	225.32
984.97	225.33
985.26	225.34
985.55	225.34
985.85	225.31
986.14	225.29
986.43	225.35
986.72	225.34
987.01	225.32
987.30	225.33
987.59	225.31
987.89	225.31
988.18	225.25
988.47	225.26
988.76	225.26
989.05	225.26
989.34	225.25
989.63	225.25
989.92	225.26
990.22	225.26
990.51	225.30
990.80	225.27
991.09	225.29
991.38	225.32
991.67	225.32
991.96	225.31
992.25	225.36
992.54	225.31
992.83	225.32
993.12	225.31
993.41	225.34
993.70	225.42
993.99	225.46
994.28	225.48
994.58	225.51
994.87	225.49
995.16	225.51
995.45	225.48
995.74	225.45
996.03	225.47
996.32	225.47
996.61	225.48
996.90	225.48
997.19	225.47
997.48	225.50
997.77	225.48
998.06	225.53
998.34	225.49
998.63	225.47
998.92	225.49
999.21	225.51
999.50	225.51
999.79	225.45
1000.08	225.44
1000.37	225.43
1000.66	225.40
1000.95	225.40
1001.24	225.40
1001.53	225.40
1001.82	225.40
1002.11	225.34
1002.40	225.34
1002.68	225.34
1002.97	225.41
1003.26	225.40
1003.55	225.35
1003.84	225.34
1004.13	225.32
1004.42	225.32
1004.71	225.35
1004.99	225.34
1005.28	225.37
1005.57	225.35
1005.86	225.36
1006.15	225.32
1006.44	225.29
1006.72	225.32
1007.01	225.30
1007.30	225.28
1007.59	225.29
1007.88	225.30
1008.17	225.33
1008.45	225.32
1008.74	225.28
1009.03	225.24
1009.32	225.23
1009.60	225.25
1009.89	225.25
1010.18	225.19
1010.47	225.17
1010.76	225.14
1011.04	225.12
1011.33	225.11
1011.62	225.13
1011.91	225.13
1012.19	225.15
1012.48	225.17
1012.77	225.16
1013.05	225.21
1013.34	225.26
1013.63	225.25
1013.92	225.26
1014.20	225.21
1014.49	225.17
1014.78	225.17
1015.06	225.11
1015.35	225.12
1015.64	225.12
1015.92	225.15
1016.21	225.18
1016.50	225.20
1016.78	225.20
1017.07	225.21
1017.36	225.18
1017.64	225.15
1017.93	225.16
1018.22	225.15
1018.50	225.14
1018.79	225.13
1019.08	225.09
1019.36	225.08
1019.65	225.05
1019.93	225.09
1020.22	225.12
1020.51	225.19
1020.79	225.17
1021.08	224.96
1021.36	224.87
1021.65	225.38
1021.94	225.24
1022.22	225.57
1022.51	224.66
1022.79	226.01
1023.08	225.26
1023.36	226.14
1023.65	224.56
>>>>>End Processed Spectral Data<<<<<
