SpectraSuite Data File
++++++++++++++++++++++++++++++++++++
Date: Fri Feb 01 16:00:27 EST 2013
User: group
Dark Spectrum Present: No
Reference Spectrum Present: No
Number of Sampled Component Spectra: 1
Spectrometers: USB2E7196
Integration Time (usec): 35000 (USB2E7196)
Spectra Averaged: 100 (USB2E7196)
Boxcar Smoothing: 10 (USB2E7196)
Correct for Electrical Dark: No (USB2E7196)
Strobe/Lamp Enabled: No (USB2E7196)
Correct for Detector Non-linearity: No (USB2E7196)
Correct for Stray Light: No (USB2E7196)
Number of Pixels in Processed Spectrum: 2048
>>>>>Begin Processed Spectral Data<<<<<
339.09	0.00
339.48	214.24
339.86	216.64
340.24	217.47
340.63	219.19
341.01	222.10
341.39	221.34
341.78	223.24
342.16	224.07
342.54	225.10
342.93	213.12
343.31	223.88
343.69	224.43
344.07	224.88
344.46	225.31
344.84	225.67
345.22	225.88
345.60	226.14
345.99	226.32
346.37	226.46
346.75	226.53
347.13	226.60
347.52	226.63
347.90	226.68
348.28	226.71
348.66	226.73
349.05	226.72
349.43	226.81
349.81	226.85
350.19	226.86
350.57	226.93
350.96	226.99
351.34	227.09
351.72	227.14
352.10	227.24
352.48	227.29
352.87	227.35
353.25	227.42
353.63	227.47
354.01	227.55
354.39	227.60
354.77	227.66
355.15	227.79
355.54	227.84
355.92	227.86
356.30	227.92
356.68	228.04
357.06	228.10
357.44	228.10
357.82	228.14
358.20	228.19
358.58	228.27
358.97	228.32
359.35	228.39
359.73	228.51
360.11	228.54
360.49	228.59
360.87	228.68
361.25	228.74
361.63	228.82
362.01	228.83
362.39	228.90
362.77	228.94
363.15	228.94
363.53	228.98
363.91	229.01
364.29	229.03
364.67	228.97
365.05	228.97
365.43	229.01
365.81	229.06
366.19	229.12
366.57	229.14
366.95	229.14
367.33	229.10
367.71	229.09
368.09	229.10
368.47	229.10
368.85	229.04
369.23	229.04
369.61	228.99
369.99	229.00
370.37	228.94
370.75	228.98
371.13	228.92
371.51	228.89
371.89	228.85
372.27	228.82
372.65	228.80
373.03	228.82
373.41	228.79
373.78	228.72
374.16	228.63
374.54	228.52
374.92	228.47
375.30	228.39
375.68	228.32
376.06	228.27
376.44	228.20
376.82	228.13
377.19	228.04
377.57	227.95
377.95	227.86
378.33	227.78
378.71	227.62
379.09	227.55
379.47	227.48
379.84	227.42
380.22	227.31
380.60	227.20
380.98	227.08
381.36	226.98
381.73	226.91
382.11	226.88
382.49	226.84
382.87	226.77
383.25	226.74
383.62	226.74
384.00	226.65
384.38	226.57
384.76	226.52
385.13	226.49
385.51	226.42
385.89	226.35
386.27	226.36
386.64	226.34
387.02	226.31
387.40	226.29
387.78	226.26
388.15	226.27
388.53	226.26
388.91	226.25
389.29	226.23
389.66	226.19
390.04	226.14
390.42	226.12
390.79	226.12
391.17	226.09
391.55	225.98
391.92	225.98
392.30	225.99
392.68	225.96
393.05	225.98
393.43	226.02
393.81	226.00
394.18	225.96
394.56	225.96
394.94	225.99
395.31	225.99
395.69	226.02
396.06	226.04
396.44	226.03
396.82	226.09
397.19	226.18
397.57	226.20
397.95	226.27
398.32	226.32
398.70	226.34
399.07	226.42
399.45	226.47
399.82	226.53
400.20	226.59
400.58	226.71
400.95	226.70
401.33	226.76
401.70	226.94
402.08	227.04
402.45	227.12
402.83	227.25
403.20	227.31
403.58	227.39
403.95	227.54
404.33	227.70
404.71	227.77
405.08	227.92
405.46	228.06
405.83	228.18
406.21	228.33
406.58	228.48
406.96	228.65
407.33	228.85
407.70	229.04
408.08	229.32
408.45	229.52
408.83	229.81
409.20	230.07
409.58	230.26
409.95	230.51
410.33	230.80
410.70	231.02
411.08	231.32
411.45	231.67
411.82	231.95
412.20	232.29
412.57	232.75
412.95	233.03
413.32	233.41
413.69	233.84
414.07	234.25
414.44	234.73
414.82	235.19
415.19	235.73
415.56	236.30
415.94	236.83
416.31	237.47
416.68	238.09
417.06	238.77
417.43	239.44
417.81	240.23
418.18	241.01
418.55	241.90
418.93	242.82
419.30	243.71
419.67	244.64
420.04	245.62
420.42	246.60
420.79	247.80
421.16	248.99
421.54	250.18
421.91	251.42
422.28	252.71
422.66	254.06
423.03	255.37
423.40	256.70
423.77	258.14
424.15	259.56
424.52	261.06
424.89	262.70
425.26	264.22
425.64	265.68
426.01	267.26
426.38	268.90
426.75	270.55
427.13	272.29
427.50	274.14
427.87	276.04
428.24	277.94
428.61	279.69
428.99	281.64
429.36	283.73
429.73	285.79
430.10	287.78
430.47	289.85
430.85	291.96
431.22	294.23
431.59	296.57
431.96	298.79
432.33	301.21
432.70	303.54
433.08	306.38
433.45	308.99
433.82	311.59
434.19	314.46
434.56	317.34
434.93	319.98
435.30	322.60
435.68	325.48
436.05	328.24
436.42	331.04
436.79	333.56
437.16	336.24
437.53	339.09
437.90	341.91
438.27	344.65
438.64	347.50
439.01	350.04
439.38	352.28
439.75	354.49
440.13	357.04
440.50	359.38
440.87	361.21
441.24	363.12
441.61	365.25
441.98	366.73
442.35	368.48
442.72	370.29
443.09	372.07
443.46	373.02
443.83	373.65
444.20	374.15
444.57	374.94
444.94	375.30
445.31	375.60
445.68	375.92
446.05	375.95
446.42	375.56
446.79	375.15
447.16	374.70
447.53	374.34
447.90	373.11
448.27	371.96
448.64	370.39
449.01	369.29
449.37	367.38
449.74	365.47
450.11	363.17
450.48	360.70
450.85	358.17
451.22	356.04
451.59	354.01
451.96	352.03
452.33	349.45
452.70	347.05
453.07	344.25
453.43	341.36
453.80	338.66
454.17	336.00
454.54	333.44
454.91	330.70
455.28	328.05
455.65	325.60
456.02	323.18
456.38	321.06
456.75	318.41
457.12	316.12
457.49	313.91
457.86	311.80
458.23	309.95
458.59	307.93
458.96	305.83
459.33	303.99
459.70	302.16
460.07	300.67
460.43	298.92
460.80	297.29
461.17	295.88
461.54	294.38
461.91	292.89
462.27	291.46
462.64	290.20
463.01	288.85
463.38	287.59
463.74	286.20
464.11	285.00
464.48	283.95
464.85	282.86
465.21	281.99
465.58	281.07
465.95	279.99
466.32	279.09
466.68	278.23
467.05	277.33
467.42	276.43
467.78	275.53
468.15	274.68
468.52	274.04
468.88	273.19
469.25	272.44
469.62	271.86
469.98	271.16
470.35	270.53
470.72	269.96
471.08	269.30
471.45	268.77
471.82	268.24
472.18	267.67
472.55	267.25
472.92	266.76
473.28	266.30
473.65	265.84
474.02	265.40
474.38	265.00
474.75	264.67
475.11	264.32
475.48	264.05
475.85	263.81
476.21	263.55
476.58	263.38
476.94	263.22
477.31	263.06
477.67	262.96
478.04	262.90
478.41	262.81
478.77	262.85
479.14	262.78
479.50	262.83
479.87	262.87
480.23	262.94
480.60	263.01
480.96	263.07
481.33	263.27
481.69	263.48
482.06	263.68
482.42	263.85
482.79	264.11
483.15	264.42
483.52	264.77
483.88	265.12
484.25	265.47
484.61	265.88
484.98	266.34
485.34	266.89
485.71	267.47
486.07	268.07
486.44	268.64
486.80	269.34
487.17	270.07
487.53	270.92
487.90	271.72
488.26	272.67
488.62	273.70
488.99	274.67
489.35	275.71
489.72	276.85
490.08	278.08
490.44	279.39
490.81	280.69
491.17	282.09
491.54	283.61
491.90	285.15
492.26	286.83
492.63	288.54
492.99	290.30
493.36	292.20
493.72	294.28
494.08	296.35
494.45	298.63
494.81	300.97
495.17	303.36
495.54	305.96
495.90	308.64
496.26	311.45
496.63	314.42
496.99	317.54
497.35	320.80
497.72	324.21
498.08	327.66
498.44	331.32
498.80	335.21
499.17	339.26
499.53	343.42
499.89	347.79
500.26	352.28
500.62	356.96
500.98	361.91
501.34	367.01
501.71	372.37
502.07	377.80
502.43	383.46
502.79	389.29
503.16	395.39
503.52	401.66
503.88	408.06
504.24	414.72
504.60	421.57
504.97	428.71
505.33	436.08
505.69	443.79
506.05	451.65
506.41	459.56
506.78	467.70
507.14	476.23
507.50	484.99
507.86	494.06
508.22	503.27
508.59	512.49
508.95	522.11
509.31	531.98
509.67	542.09
510.03	552.39
510.39	563.02
510.75	573.86
511.12	584.80
511.48	596.13
511.84	607.57
512.20	619.13
512.56	631.03
512.92	643.20
513.28	655.57
513.64	668.03
514.00	680.72
514.37	693.72
514.73	706.75
515.09	719.73
515.45	732.92
515.81	746.50
516.17	760.48
516.53	774.47
516.89	788.57
517.25	802.76
517.61	817.13
517.97	831.53
518.33	845.86
518.69	860.61
519.05	875.53
519.41	890.70
519.77	906.24
520.13	921.71
520.49	937.03
520.85	952.42
521.21	968.18
521.57	984.37
521.93	1000.05
522.29	1016.31
522.65	1032.57
523.01	1048.79
523.37	1064.75
523.73	1080.93
524.09	1097.11
524.45	1113.43
524.81	1129.90
525.17	1146.70
525.53	1163.69
525.89	1180.65
526.25	1197.44
526.61	1213.87
526.97	1230.55
527.33	1246.94
527.68	1263.52
528.04	1279.98
528.40	1296.61
528.76	1313.50
529.12	1330.15
529.48	1346.88
529.84	1362.96
530.20	1379.51
530.56	1396.52
530.91	1414.08
531.27	1430.75
531.63	1447.06
531.99	1463.65
532.35	1479.70
532.71	1495.51
533.07	1511.65
533.42	1527.36
533.78	1543.44
534.14	1559.65
534.50	1574.92
534.86	1590.77
535.21	1605.83
535.57	1621.67
535.93	1637.17
536.29	1651.93
536.65	1666.96
537.00	1681.76
537.36	1697.12
537.72	1711.68
538.08	1726.01
538.44	1739.62
538.79	1753.51
539.15	1767.20
539.51	1780.89
539.87	1795.28
540.22	1808.96
540.58	1822.65
540.94	1836.12
541.29	1848.96
541.65	1861.66
542.01	1874.84
542.37	1887.17
542.72	1899.74
543.08	1911.58
543.44	1923.90
543.79	1935.18
544.15	1946.09
544.51	1957.58
544.87	1968.41
545.22	1979.15
545.58	1989.48
545.94	1999.30
546.29	2009.14
546.65	2018.90
547.01	2028.11
547.36	2036.69
547.72	2045.18
548.07	2052.93
548.43	2060.99
548.79	2069.04
549.14	2076.48
549.50	2083.90
549.86	2091.58
550.21	2098.79
550.57	2105.94
550.92	2112.41
551.28	2119.41
551.64	2126.52
551.99	2133.18
552.35	2139.42
552.70	2145.49
553.06	2151.31
553.41	2157.56
553.77	2163.57
554.13	2169.78
554.48	2175.97
554.84	2181.46
555.19	2186.75
555.55	2191.96
555.90	2196.54
556.26	2201.35
556.61	2206.16
556.97	2210.34
557.32	2214.55
557.68	2218.93
558.03	2223.16
558.39	2226.98
558.74	2231.73
559.10	2235.51
559.45	2239.21
559.81	2243.56
560.16	2247.29
560.52	2250.55
560.87	2254.00
561.23	2256.62
561.58	2259.65
561.94	2262.05
562.29	2264.41
562.64	2267.13
563.00	2269.72
563.35	2273.03
563.71	2276.15
564.06	2279.29
564.42	2282.14
564.77	2284.55
565.12	2286.64
565.48	2288.56
565.83	2290.39
566.19	2291.44
566.54	2292.38
566.89	2293.34
567.25	2293.83
567.60	2295.21
567.96	2296.97
568.31	2297.92
568.66	2299.06
569.02	2299.59
569.37	2300.02
569.72	2300.86
570.08	2300.93
570.43	2301.13
570.78	2300.65
571.14	2299.22
571.49	2297.92
571.84	2297.79
572.20	2296.62
572.55	2295.54
572.90	2294.08
573.26	2292.67
573.61	2291.13
573.96	2289.32
574.31	2286.42
574.67	2283.44
575.02	2279.94
575.37	2276.44
575.72	2272.68
576.08	2269.41
576.43	2266.06
576.78	2262.23
577.13	2259.21
577.49	2256.19
577.84	2252.57
578.19	2248.91
578.54	2245.11
578.90	2240.87
579.25	2235.33
579.60	2230.40
579.95	2225.37
580.30	2220.43
580.66	2215.23
581.01	2210.37
581.36	2205.57
581.71	2201.57
582.06	2197.11
582.42	2192.70
582.77	2187.53
583.12	2182.85
583.47	2178.04
583.82	2172.99
584.17	2167.90
584.53	2162.42
584.88	2156.85
585.23	2151.10
585.58	2145.66
585.93	2140.33
586.28	2135.75
586.63	2130.65
586.98	2125.62
587.34	2120.99
587.69	2115.95
588.04	2110.71
588.39	2105.05
588.74	2098.67
589.09	2092.41
589.44	2085.62
589.79	2079.70
590.14	2074.18
590.49	2067.73
590.84	2061.50
591.19	2055.58
591.54	2049.16
591.89	2041.61
592.25	2034.70
592.60	2027.54
592.95	2019.86
593.30	2012.60
593.65	2004.94
594.00	1997.89
594.35	1990.63
594.70	1982.73
595.05	1975.64
595.40	1968.41
595.75	1960.86
596.10	1954.60
596.45	1947.92
596.80	1941.76
597.15	1934.92
597.50	1927.74
597.85	1921.26
598.19	1914.40
598.54	1907.12
598.89	1900.39
599.24	1894.56
599.59	1887.91
599.94	1881.76
600.29	1875.56
600.64	1868.91
600.99	1861.48
601.34	1854.75
601.69	1847.81
602.04	1840.92
602.39	1833.56
602.74	1826.72
603.08	1819.94
603.43	1813.14
603.78	1805.80
604.13	1798.65
604.48	1791.41
604.83	1784.52
605.18	1777.45
605.53	1769.48
605.87	1761.65
606.22	1754.47
606.57	1746.53
606.92	1739.27
607.27	1731.99
607.62	1725.06
607.96	1717.80
608.31	1711.10
608.66	1703.42
609.01	1695.91
609.36	1688.21
609.70	1680.27
610.05	1672.23
610.40	1664.58
610.75	1656.35
611.10	1648.70
611.44	1640.22
611.79	1632.23
612.14	1623.68
612.49	1614.54
612.83	1606.23
613.18	1598.05
613.53	1589.94
613.88	1581.35
614.22	1572.95
614.57	1564.43
614.92	1556.25
615.27	1548.51
615.61	1540.19
615.96	1532.17
616.31	1524.52
616.65	1517.20
617.00	1509.49
617.35	1501.81
617.70	1493.50
618.04	1484.93
618.39	1476.69
618.74	1469.09
619.08	1460.82
619.43	1453.18
619.78	1446.41
620.12	1439.26
620.47	1431.78
620.82	1423.59
621.16	1416.17
621.51	1408.67
621.85	1400.99
622.20	1392.38
622.55	1384.16
622.89	1376.35
623.24	1368.62
623.59	1361.26
623.93	1353.69
624.28	1346.49
624.62	1339.01
624.97	1331.86
625.32	1325.15
625.66	1318.18
626.01	1311.00
626.35	1303.52
626.70	1295.75
627.04	1287.94
627.39	1280.21
627.73	1272.86
628.08	1265.93
628.43	1258.64
628.77	1251.22
629.12	1243.70
629.46	1236.67
629.81	1229.29
630.15	1221.98
630.50	1214.63
630.84	1206.33
631.19	1198.44
631.53	1191.00
631.88	1183.34
632.22	1175.67
632.57	1168.27
632.91	1160.74
633.26	1153.28
633.60	1146.03
633.95	1138.98
634.29	1131.94
634.64	1125.29
634.98	1117.82
635.32	1110.68
635.67	1104.17
636.01	1097.48
636.36	1090.64
636.70	1084.13
637.05	1077.53
637.39	1071.10
637.73	1064.61
638.08	1058.72
638.42	1052.62
638.77	1046.11
639.11	1039.48
639.45	1033.09
639.80	1026.44
640.14	1019.93
640.49	1013.46
640.83	1007.00
641.17	1000.65
641.52	994.29
641.86	987.77
642.20	981.90
642.55	975.58
642.89	969.07
643.23	962.58
643.58	956.83
643.92	950.60
644.26	944.50
644.61	938.42
644.95	932.37
645.29	925.83
645.64	919.09
645.98	912.82
646.32	907.06
646.66	901.07
647.01	895.32
647.35	889.60
647.69	883.74
648.04	878.25
648.38	872.61
648.72	866.60
649.06	860.52
649.41	854.65
649.75	848.67
650.09	842.76
650.43	836.97
650.78	830.81
651.12	824.84
651.46	819.10
651.80	813.35
652.14	807.95
652.49	802.53
652.83	797.40
653.17	791.67
653.51	785.92
653.85	780.47
654.20	774.81
654.54	768.79
654.88	763.07
655.22	757.22
655.56	751.48
655.90	746.06
656.25	740.79
656.59	735.43
656.93	730.41
657.27	725.23
657.61	719.87
657.95	714.75
658.29	709.68
658.64	704.45
658.98	699.18
659.32	693.72
659.66	688.50
660.00	683.22
660.34	678.28
660.68	673.40
661.02	668.33
661.36	663.58
661.70	659.12
662.05	654.69
662.39	650.34
662.73	645.81
663.07	641.34
663.41	636.94
663.75	632.43
664.09	627.89
664.43	623.41
664.77	619.21
665.11	614.96
665.45	610.87
665.79	606.71
666.13	602.58
666.47	598.50
666.81	594.37
667.15	590.21
667.49	586.34
667.83	582.52
668.17	578.61
668.51	574.50
668.85	570.44
669.19	566.72
669.53	562.83
669.87	558.99
670.21	555.37
670.55	551.71
670.89	548.30
671.23	544.82
671.57	541.34
671.91	537.82
672.25	534.31
672.58	530.75
672.92	527.38
673.26	524.15
673.60	521.04
673.94	517.92
674.28	514.95
674.62	511.94
674.96	508.82
675.30	505.89
675.64	502.94
675.97	500.16
676.31	497.23
676.65	494.36
676.99	491.61
677.33	488.69
677.67	485.89
678.01	482.80
678.34	479.83
678.68	476.93
679.02	474.07
679.36	471.34
679.70	468.65
680.04	465.88
680.37	463.05
680.71	460.18
681.05	457.55
681.39	454.88
681.73	452.27
682.06	449.68
682.40	447.16
682.74	444.65
683.08	442.12
683.42	439.53
683.75	437.00
684.09	434.47
684.43	432.00
684.77	429.48
685.10	427.17
685.44	424.87
685.78	422.61
686.12	420.38
686.45	418.01
686.79	415.69
687.13	413.51
687.46	411.32
687.80	409.12
688.14	406.91
688.48	404.84
688.81	402.50
689.15	400.36
689.49	398.26
689.82	396.22
690.16	394.13
690.50	392.15
690.83	390.21
691.17	388.30
691.51	386.39
691.84	384.53
692.18	382.56
692.52	380.53
692.85	378.62
693.19	376.72
693.52	374.96
693.86	373.20
694.20	371.40
694.53	369.68
694.87	367.89
695.21	366.11
695.54	364.30
695.88	362.62
696.21	360.94
696.55	359.21
696.88	357.51
697.22	355.87
697.56	354.27
697.89	352.61
698.23	350.99
698.56	349.42
698.90	347.88
699.23	346.26
699.57	344.74
699.90	343.17
700.24	341.66
700.58	340.13
700.91	338.56
701.25	337.16
701.58	335.79
701.92	334.40
702.25	333.02
702.59	331.63
702.92	330.32
703.26	329.00
703.59	327.71
703.93	326.54
704.26	325.31
704.60	323.96
704.93	322.67
705.26	321.43
705.60	320.22
705.93	319.07
706.27	318.06
706.60	317.00
706.94	315.97
707.27	314.81
707.61	313.76
707.94	312.74
708.27	311.62
708.61	310.52
708.94	309.50
709.28	308.51
709.61	307.55
709.94	306.62
710.28	305.58
710.61	304.63
710.95	303.51
711.28	302.59
711.61	301.67
711.95	300.74
712.28	299.72
712.61	298.78
712.95	297.82
713.28	296.93
713.61	296.03
713.95	295.11
714.28	294.32
714.61	293.40
714.95	292.58
715.28	291.71
715.61	290.83
715.95	289.99
716.28	289.15
716.61	288.30
716.95	287.48
717.28	286.74
717.61	285.96
717.94	285.22
718.28	284.42
718.61	283.72
718.94	283.06
719.27	282.41
719.61	281.77
719.94	281.08
720.27	280.32
720.60	279.62
720.94	278.98
721.27	278.32
721.60	277.77
721.93	277.15
722.27	276.62
722.60	276.09
722.93	275.51
723.26	274.97
723.59	274.43
723.93	273.87
724.26	273.32
724.59	272.77
724.92	272.25
725.25	271.75
725.59	271.24
725.92	270.69
726.25	270.18
726.58	269.63
726.91	269.14
727.24	268.72
727.57	268.28
727.91	267.78
728.24	267.34
728.57	266.87
728.90	266.42
729.23	265.92
729.56	265.47
729.89	265.02
730.22	264.48
730.55	264.01
730.89	263.57
731.22	263.13
731.55	262.67
731.88	262.26
732.21	261.83
732.54	261.36
732.87	260.92
733.20	260.57
733.53	260.23
733.86	259.86
734.19	259.44
734.52	259.06
734.85	258.76
735.18	258.34
735.51	257.98
735.84	257.61
736.17	257.27
736.50	256.88
736.83	256.67
737.16	256.41
737.49	256.06
737.82	255.70
738.15	255.35
738.48	255.03
738.81	254.70
739.14	254.37
739.47	254.09
739.80	253.81
740.13	253.52
740.46	253.16
740.79	252.85
741.12	252.57
741.45	252.27
741.78	251.92
742.11	251.65
742.44	251.30
742.77	251.03
743.10	250.72
743.43	250.41
743.75	250.00
744.08	249.83
744.41	249.58
744.74	249.35
745.07	249.08
745.40	248.85
745.73	248.64
746.06	248.35
746.39	248.06
746.71	247.79
747.04	247.49
747.37	247.25
747.70	247.00
748.03	246.72
748.36	246.49
748.68	246.28
749.01	246.05
749.34	245.85
749.67	245.59
750.00	245.36
750.33	245.21
750.65	244.97
750.98	244.62
751.31	244.40
751.64	244.15
751.97	243.98
752.29	243.73
752.62	243.43
752.95	243.25
753.28	243.09
753.60	242.87
753.93	242.69
754.26	242.49
754.59	242.28
754.91	242.06
755.24	241.83
755.57	241.64
755.90	241.44
756.22	241.24
756.55	241.06
756.88	240.86
757.20	240.65
757.53	240.47
757.86	240.29
758.19	240.11
758.51	239.94
758.84	239.76
759.17	239.60
759.49	239.46
759.82	239.34
760.15	239.17
760.47	239.00
760.80	238.83
761.13	238.70
761.45	238.51
761.78	238.39
762.11	238.26
762.43	238.09
762.76	237.96
763.08	237.81
763.41	237.67
763.74	237.52
764.06	237.34
764.39	237.20
764.71	237.11
765.04	236.99
765.37	236.88
765.69	236.73
766.02	236.61
766.34	236.49
766.67	236.31
767.00	236.22
767.32	236.17
767.65	236.12
767.97	235.95
768.30	235.88
768.62	235.76
768.95	235.62
769.27	235.50
769.60	235.40
769.92	235.29
770.25	235.20
770.57	235.13
770.90	235.04
771.22	234.94
771.55	234.82
771.87	234.73
772.20	234.61
772.52	234.59
772.85	234.59
773.17	234.54
773.50	234.47
773.82	234.31
774.15	234.21
774.47	234.05
774.80	233.98
775.12	233.88
775.45	233.81
775.77	233.74
776.09	233.67
776.42	233.59
776.74	233.56
777.07	233.49
777.39	233.41
777.72	233.35
778.04	233.28
778.36	233.21
778.69	233.14
779.01	233.12
779.33	232.96
779.66	232.81
779.98	232.72
780.31	232.64
780.63	232.63
780.95	232.58
781.28	232.54
781.60	232.49
781.92	232.46
782.25	232.38
782.57	232.33
782.89	232.24
783.22	232.18
783.54	232.09
783.86	232.01
784.19	231.94
784.51	231.90
784.83	231.86
785.16	231.81
785.48	231.76
785.80	231.68
786.12	231.64
786.45	231.59
786.77	231.54
787.09	231.47
787.42	231.37
787.74	231.31
788.06	231.26
788.38	231.18
788.71	231.13
789.03	231.10
789.35	231.07
789.67	231.04
789.99	230.99
790.32	230.92
790.64	230.91
790.96	230.92
791.28	230.86
791.61	230.82
791.93	230.76
792.25	230.69
792.57	230.72
792.89	230.66
793.21	230.62
793.54	230.54
793.86	230.51
794.18	230.52
794.50	230.46
794.82	230.42
795.14	230.42
795.47	230.36
795.79	230.32
796.11	230.26
796.43	230.22
796.75	230.19
797.07	230.18
797.39	230.13
797.71	230.03
798.04	229.97
798.36	229.93
798.68	229.91
799.00	229.90
799.32	229.82
799.64	229.78
799.96	229.73
800.28	229.72
800.60	229.70
800.92	229.68
801.24	229.63
801.56	229.60
801.89	229.59
802.21	229.57
802.53	229.53
802.85	229.48
803.17	229.50
803.49	229.46
803.81	229.39
804.13	229.35
804.45	229.31
804.77	229.30
805.09	229.24
805.41	229.22
805.73	229.18
806.05	229.14
806.37	229.14
806.69	229.12
807.01	229.09
807.33	229.10
807.65	229.03
807.97	229.08
808.28	229.06
808.60	229.03
808.92	229.00
809.24	229.08
809.56	229.10
809.88	229.05
810.20	229.04
810.52	229.06
810.84	229.04
811.16	229.00
811.48	229.01
811.80	229.05
812.12	229.00
812.43	228.97
812.75	228.97
813.07	228.95
813.39	228.97
813.71	228.96
814.03	228.89
814.35	228.88
814.67	228.81
814.98	228.76
815.30	228.74
815.62	228.70
815.94	228.59
816.26	228.62
816.58	228.56
816.89	228.55
817.21	228.53
817.53	228.53
817.85	228.55
818.17	228.53
818.48	228.47
818.80	228.50
819.12	228.48
819.44	228.43
819.76	228.41
820.07	228.37
820.39	228.36
820.71	228.35
821.03	228.35
821.34	228.33
821.66	228.36
821.98	228.40
822.30	228.38
822.61	228.42
822.93	228.33
823.25	228.34
823.57	228.32
823.88	228.33
824.20	228.33
824.52	228.33
824.83	228.31
825.15	228.32
825.47	228.29
825.79	228.29
826.10	228.30
826.42	228.25
826.74	228.22
827.05	228.20
827.37	228.23
827.69	228.19
828.00	228.21
828.32	228.17
828.64	228.12
828.95	228.19
829.27	228.14
829.58	228.14
829.90	228.14
830.22	228.10
830.53	228.04
830.85	228.02
831.17	227.98
831.48	227.95
831.80	227.92
832.11	227.91
832.43	227.87
832.75	227.83
833.06	227.90
833.38	227.89
833.69	227.89
834.01	227.87
834.32	227.85
834.64	227.80
834.96	227.79
835.27	227.78
835.59	227.71
835.90	227.70
836.22	227.68
836.53	227.64
836.85	227.65
837.16	227.74
837.48	227.71
837.79	227.72
838.11	227.74
838.42	227.72
838.74	227.72
839.05	227.69
839.37	227.68
839.68	227.61
840.00	227.55
840.31	227.56
840.63	227.50
840.94	227.50
841.26	227.48
841.57	227.42
841.88	227.37
842.20	227.34
842.51	227.32
842.83	227.32
843.14	227.37
843.46	227.36
843.77	227.30
844.08	227.27
844.40	227.24
844.71	227.19
845.03	227.20
845.34	227.16
845.65	227.16
845.97	227.14
846.28	227.11
846.60	227.17
846.91	227.15
847.22	227.14
847.54	227.13
847.85	227.14
848.16	227.14
848.48	227.14
848.79	227.17
849.10	227.17
849.42	227.16
849.73	227.09
850.04	227.06
850.36	227.05
850.67	227.09
850.98	227.06
851.30	227.05
851.61	227.01
851.92	226.99
852.23	227.00
852.55	227.04
852.86	227.07
853.17	227.04
853.49	227.08
853.80	227.09
854.11	227.11
854.42	227.08
854.74	227.10
855.05	227.13
855.36	227.08
855.67	227.09
855.99	227.09
856.30	227.20
856.61	227.23
856.92	227.19
857.23	227.15
857.55	227.16
857.86	227.21
858.17	227.23
858.48	227.21
858.79	227.25
859.11	227.25
859.42	227.26
859.73	227.25
860.04	227.23
860.35	227.23
860.66	227.20
860.98	227.23
861.29	227.26
861.60	227.24
861.91	227.28
862.22	227.31
862.53	227.29
862.84	227.16
863.16	227.21
863.47	227.23
863.78	227.24
864.09	227.28
864.40	227.30
864.71	227.31
865.02	227.36
865.33	227.35
865.64	227.32
865.95	227.30
866.27	227.37
866.58	227.35
866.89	227.38
867.20	227.36
867.51	227.32
867.82	227.30
868.13	227.34
868.44	227.30
868.75	227.30
869.06	227.28
869.37	227.32
869.68	227.26
869.99	227.27
870.30	227.25
870.61	227.25
870.92	227.20
871.23	227.19
871.54	227.17
871.85	227.18
872.16	227.22
872.47	227.22
872.78	227.15
873.09	227.15
873.40	227.11
873.71	227.10
874.02	227.13
874.33	227.13
874.64	227.09
874.95	227.13
875.26	227.11
875.56	227.12
875.87	227.10
876.18	227.08
876.49	227.16
876.80	227.14
877.11	227.09
877.42	227.09
877.73	227.11
878.04	227.10
878.35	227.07
878.66	227.03
878.96	227.00
879.27	227.01
879.58	227.02
879.89	227.00
880.20	227.03
880.51	227.01
880.82	226.99
881.12	226.96
881.43	226.94
881.74	226.90
882.05	226.88
882.36	226.85
882.67	226.87
882.97	226.76
883.28	226.77
883.59	226.77
883.90	226.75
884.21	226.73
884.51	226.68
884.82	226.67
885.13	226.67
885.44	226.69
885.74	226.64
886.05	226.59
886.36	226.63
886.67	226.59
886.98	226.62
887.28	226.64
887.59	226.65
887.90	226.60
888.20	226.59
888.51	226.60
888.82	226.61
889.13	226.63
889.43	226.69
889.74	226.66
890.05	226.66
890.35	226.68
890.66	226.67
890.97	226.67
891.28	226.67
891.58	226.67
891.89	226.67
892.20	226.67
892.50	226.68
892.81	226.63
893.12	226.63
893.42	226.62
893.73	226.58
894.04	226.58
894.34	226.61
894.65	226.63
894.95	226.62
895.26	226.61
895.57	226.63
895.87	226.55
896.18	226.60
896.48	226.62
896.79	226.62
897.10	226.65
897.40	226.68
897.71	226.68
898.01	226.69
898.32	226.72
898.63	226.75
898.93	226.77
899.24	226.80
899.54	226.81
899.85	226.80
900.15	226.85
900.46	226.84
900.76	226.87
901.07	226.88
901.38	226.89
901.68	226.95
901.99	226.92
902.29	226.95
902.60	226.93
902.90	226.94
903.21	226.93
903.51	226.90
903.82	226.92
904.12	226.93
904.43	226.92
904.73	226.91
905.03	226.93
905.34	227.02
905.64	227.00
905.95	227.02
906.25	227.04
906.56	227.00
906.86	227.02
907.17	227.01
907.47	227.02
907.77	227.03
908.08	226.96
908.38	226.96
908.69	226.96
908.99	226.98
909.30	226.98
909.60	226.97
909.90	227.00
910.21	226.97
910.51	226.95
910.81	226.95
911.12	226.96
911.42	226.94
911.73	226.85
912.03	226.87
912.33	226.89
912.64	226.86
912.94	226.88
913.24	226.89
913.55	226.86
913.85	226.87
914.15	226.90
914.46	226.95
914.76	226.93
915.06	226.92
915.37	226.88
915.67	226.86
915.97	226.87
916.27	226.87
916.58	226.85
916.88	226.85
917.18	226.82
917.49	226.90
917.79	226.89
918.09	226.89
918.39	226.93
918.70	226.90
919.00	226.88
919.30	226.89
919.60	226.88
919.91	226.85
920.21	226.83
920.51	226.78
920.81	226.76
921.12	226.75
921.42	226.75
921.72	226.76
922.02	226.75
922.32	226.76
922.63	226.76
922.93	226.80
923.23	226.82
923.53	226.81
923.83	226.71
924.13	226.72
924.44	226.69
924.74	226.70
925.04	226.72
925.34	226.72
925.64	226.69
925.94	226.65
926.24	226.70
926.55	226.70
926.85	226.70
927.15	226.69
927.45	226.70
927.75	226.70
928.05	226.69
928.35	226.68
928.65	226.65
928.95	226.63
929.26	226.60
929.56	226.60
929.86	226.60
930.16	226.58
930.46	226.57
930.76	226.58
931.06	226.50
931.36	226.48
931.66	226.51
931.96	226.49
932.26	226.49
932.56	226.45
932.86	226.46
933.16	226.48
933.46	226.45
933.76	226.42
934.06	226.41
934.36	226.46
934.66	226.44
934.96	226.44
935.26	226.45
935.56	226.45
935.86	226.40
936.16	226.40
936.46	226.38
936.76	226.36
937.06	226.33
937.36	226.35
937.66	226.31
937.96	226.30
938.26	226.30
938.56	226.30
938.86	226.33
939.16	226.32
939.46	226.30
939.76	226.32
940.06	226.33
940.35	226.32
940.65	226.25
940.95	226.24
941.25	226.22
941.55	226.22
941.85	226.22
942.15	226.25
942.45	226.30
942.75	226.33
943.04	226.34
943.34	226.36
943.64	226.35
943.94	226.35
944.24	226.37
944.54	226.38
944.84	226.36
945.13	226.36
945.43	226.37
945.73	226.35
946.03	226.34
946.33	226.34
946.62	226.35
946.92	226.38
947.22	226.41
947.52	226.40
947.82	226.43
948.11	226.45
948.41	226.46
948.71	226.43
949.01	226.46
949.31	226.44
949.60	226.44
949.90	226.47
950.20	226.51
950.50	226.50
950.79	226.49
951.09	226.54
951.39	226.52
951.69	226.50
951.98	226.54
952.28	226.54
952.58	226.55
952.87	226.54
953.17	226.56
953.47	226.56
953.76	226.56
954.06	226.56
954.36	226.52
954.66	226.52
954.95	226.53
955.25	226.52
955.55	226.54
955.84	226.53
956.14	226.52
956.44	226.51
956.73	226.47
957.03	226.50
957.32	226.48
957.62	226.49
957.92	226.52
958.21	226.54
958.51	226.65
958.81	226.62
959.10	226.63
959.40	226.64
959.69	226.65
959.99	226.66
960.29	226.60
960.58	226.58
960.88	226.59
961.17	226.57
961.47	226.54
961.76	226.54
962.06	226.54
962.36	226.49
962.65	226.52
962.95	226.52
963.24	226.48
963.54	226.49
963.83	226.50
964.13	226.45
964.42	226.38
964.72	226.30
965.01	226.33
965.31	226.29
965.60	226.25
965.90	226.27
966.19	226.25
966.49	226.31
966.78	226.32
967.08	226.28
967.37	226.29
967.67	226.30
967.96	226.31
968.26	226.31
968.55	226.32
968.85	226.28
969.14	226.28
969.43	226.30
969.73	226.30
970.02	226.29
970.32	226.30
970.61	226.31
970.91	226.27
971.20	226.26
971.49	226.29
971.79	226.32
972.08	226.26
972.38	226.25
972.67	226.22
972.96	226.25
973.26	226.21
973.55	226.24
973.85	226.25
974.14	226.24
974.43	226.28
974.73	226.27
975.02	226.25
975.31	226.26
975.61	226.23
975.90	226.21
976.19	226.19
976.49	226.21
976.78	226.24
977.07	226.27
977.37	226.28
977.66	226.28
977.95	226.25
978.24	226.29
978.54	226.35
978.83	226.34
979.12	226.35
979.42	226.39
979.71	226.35
980.00	226.37
980.29	226.35
980.59	226.31
980.88	226.36
981.17	226.39
981.46	226.39
981.76	226.41
982.05	226.49
982.34	226.53
982.63	226.53
982.93	226.47
983.22	226.49
983.51	226.47
983.80	226.49
984.09	226.53
984.39	226.52
984.68	226.50
984.97	226.52
985.26	226.51
985.55	226.53
985.85	226.57
986.14	226.57
986.43	226.63
986.72	226.63
987.01	226.62
987.30	226.64
987.59	226.66
987.89	226.67
988.18	226.63
988.47	226.63
988.76	226.64
989.05	226.73
989.34	226.73
989.63	226.78
989.92	226.77
990.22	226.79
990.51	226.81
990.80	226.82
991.09	226.85
991.38	226.85
991.67	226.84
991.96	226.85
992.25	226.85
992.54	226.83
992.83	226.85
993.12	226.90
993.41	226.92
993.70	226.96
993.99	226.99
994.28	227.01
994.58	227.03
994.87	227.07
995.16	227.04
995.45	227.03
995.74	227.00
996.03	227.04
996.32	227.03
996.61	227.05
996.90	227.04
997.19	227.03
997.48	227.03
997.77	227.04
998.06	227.06
998.34	227.05
998.63	227.05
998.92	227.08
999.21	227.07
999.50	227.06
999.79	226.99
1000.08	226.97
1000.37	226.96
1000.66	226.94
1000.95	226.92
1001.24	226.91
1001.53	226.92
1001.82	226.91
1002.11	226.89
1002.40	226.91
1002.68	226.92
1002.97	226.97
1003.26	226.97
1003.55	226.94
1003.84	226.92
1004.13	226.92
1004.42	226.91
1004.71	226.89
1004.99	226.86
1005.28	226.86
1005.57	226.81
1005.86	226.81
1006.15	226.81
1006.44	226.75
1006.72	226.74
1007.01	226.70
1007.30	226.68
1007.59	226.65
1007.88	226.61
1008.17	226.57
1008.45	226.49
1008.74	226.44
1009.03	226.36
1009.32	226.35
1009.60	226.36
1009.89	226.31
1010.18	226.24
1010.47	226.23
1010.76	226.22
1011.04	226.14
1011.33	226.13
1011.62	226.14
1011.91	226.13
1012.19	226.10
1012.48	226.10
1012.77	226.09
1013.05	226.12
1013.34	226.10
1013.63	226.10
1013.92	226.10
1014.20	226.09
1014.49	226.11
1014.78	226.10
1015.06	226.07
1015.35	226.06
1015.64	226.06
1015.92	226.12
1016.21	226.12
1016.50	226.10
1016.78	226.08
1017.07	226.14
1017.36	226.11
1017.64	226.09
1017.93	226.11
1018.22	226.10
1018.50	226.10
1018.79	226.07
1019.08	226.04
1019.36	226.05
1019.65	226.04
1019.93	226.08
1020.22	226.12
1020.51	226.18
1020.79	226.20
1021.08	225.81
1021.36	225.87
1021.65	225.86
1021.94	226.32
1022.22	226.03
1022.51	226.09
1022.79	226.67
1023.08	226.37
1023.36	227.49
1023.65	226.17
>>>>>End Processed Spectral Data<<<<<
