SpectraSuite Data File
++++++++++++++++++++++++++++++++++++
Date: Fri Feb 01 16:55:13 EST 2013
User: group
Dark Spectrum Present: No
Reference Spectrum Present: No
Number of Sampled Component Spectra: 1
Spectrometers: USB2E7196
Integration Time (usec): 35000 (USB2E7196)
Spectra Averaged: 100 (USB2E7196)
Boxcar Smoothing: 10 (USB2E7196)
Correct for Electrical Dark: No (USB2E7196)
Strobe/Lamp Enabled: No (USB2E7196)
Correct for Detector Non-linearity: No (USB2E7196)
Correct for Stray Light: No (USB2E7196)
Number of Pixels in Processed Spectrum: 2048
>>>>>Begin Processed Spectral Data<<<<<
339.09	0.00
339.48	213.86
339.86	214.62
340.24	215.80
340.63	217.52
341.01	220.21
341.39	220.30
341.78	221.82
342.16	223.01
342.54	223.22
342.93	211.80
343.31	222.52
343.69	223.02
344.07	223.52
344.46	223.97
344.84	224.33
345.22	224.60
345.60	224.83
345.99	225.01
346.37	225.13
346.75	225.19
347.13	225.28
347.52	225.32
347.90	225.38
348.28	225.37
348.66	225.40
349.05	225.41
349.43	225.44
349.81	225.46
350.19	225.47
350.57	225.52
350.96	225.59
351.34	225.62
351.72	225.71
352.10	225.75
352.48	225.82
352.87	225.87
353.25	225.90
353.63	225.96
354.01	226.01
354.39	226.08
354.77	226.18
355.15	226.27
355.54	226.34
355.92	226.38
356.30	226.46
356.68	226.57
357.06	226.66
357.44	226.72
357.82	226.79
358.20	226.88
358.58	226.94
358.97	226.99
359.35	227.09
359.73	227.16
360.11	227.21
360.49	227.23
360.87	227.32
361.25	227.38
361.63	227.49
362.01	227.56
362.39	227.59
362.77	227.64
363.15	227.66
363.53	227.72
363.91	227.76
364.29	227.79
364.67	227.73
365.05	227.73
365.43	227.75
365.81	227.79
366.19	227.88
366.57	227.94
366.95	227.93
367.33	227.93
367.71	227.90
368.09	227.91
368.47	227.93
368.85	227.90
369.23	227.91
369.61	227.83
369.99	227.84
370.37	227.82
370.75	227.82
371.13	227.80
371.51	227.72
371.89	227.68
372.27	227.68
372.65	227.68
373.03	227.62
373.41	227.57
373.78	227.50
374.16	227.37
374.54	227.31
374.92	227.27
375.30	227.19
375.68	227.13
376.06	227.12
376.44	227.04
376.82	226.98
377.19	226.92
377.57	226.84
377.95	226.75
378.33	226.69
378.71	226.55
379.09	226.45
379.47	226.42
379.84	226.36
380.22	226.27
380.60	226.14
380.98	226.07
381.36	226.01
381.73	225.95
382.11	225.92
382.49	225.81
382.87	225.77
383.25	225.71
383.62	225.73
384.00	225.65
384.38	225.61
384.76	225.58
385.13	225.57
385.51	225.54
385.89	225.45
386.27	225.43
386.64	225.42
387.02	225.41
387.40	225.35
387.78	225.30
388.15	225.27
388.53	225.28
388.91	225.27
389.29	225.22
389.66	225.18
390.04	225.13
390.42	225.11
390.79	225.06
391.17	225.04
391.55	224.96
391.92	224.92
392.30	224.89
392.68	224.85
393.05	224.79
393.43	224.78
393.81	224.82
394.18	224.76
394.56	224.78
394.94	224.81
395.31	224.79
395.69	224.84
396.06	224.88
396.44	224.89
396.82	224.88
397.19	224.97
397.57	225.05
397.95	225.11
398.32	225.16
398.70	225.20
399.07	225.28
399.45	225.30
399.82	225.36
400.20	225.41
400.58	225.52
400.95	225.57
401.33	225.65
401.70	225.83
402.08	225.94
402.45	226.01
402.83	226.08
403.20	226.21
403.58	226.31
403.95	226.38
404.33	226.48
404.71	226.62
405.08	226.76
405.46	226.84
405.83	226.98
406.21	227.12
406.58	227.30
406.96	227.43
407.33	227.64
407.70	227.83
408.08	228.09
408.45	228.29
408.83	228.54
409.20	228.74
409.58	228.83
409.95	229.07
410.33	229.33
410.70	229.60
411.08	229.91
411.45	230.21
411.82	230.52
412.20	230.89
412.57	231.33
412.95	231.59
413.32	232.00
413.69	232.41
414.07	232.82
414.44	233.29
414.82	233.76
415.19	234.30
415.56	234.87
415.94	235.44
416.31	236.09
416.68	236.71
417.06	237.43
417.43	238.16
417.81	238.96
418.18	239.72
418.55	240.59
418.93	241.44
419.30	242.32
419.67	243.30
420.04	244.24
420.42	245.22
420.79	246.46
421.16	247.60
421.54	248.77
421.91	249.98
422.28	251.20
422.66	252.57
423.03	253.90
423.40	255.19
423.77	256.59
424.15	257.98
424.52	259.47
424.89	261.09
425.26	262.63
425.64	264.07
426.01	265.64
426.38	267.27
426.75	268.90
427.13	270.63
427.50	272.39
427.87	274.27
428.24	276.09
428.61	277.81
428.99	279.76
429.36	281.81
429.73	283.90
430.10	285.95
430.47	287.97
430.85	290.02
431.22	292.29
431.59	294.67
431.96	296.89
432.33	299.32
432.70	301.67
433.08	304.46
433.45	307.03
433.82	309.65
434.19	312.51
434.56	315.30
434.93	317.93
435.30	320.53
435.68	323.38
436.05	326.20
436.42	328.95
436.79	331.45
437.16	334.16
437.53	336.92
437.90	339.67
438.27	342.36
438.64	345.14
439.01	347.72
439.38	349.85
439.75	352.02
440.13	354.47
440.50	356.78
440.87	358.61
441.24	360.52
441.61	362.66
441.98	364.12
442.35	365.93
442.72	367.72
443.09	369.50
443.46	370.51
443.83	371.07
444.20	371.58
444.57	372.36
444.94	372.63
445.31	372.96
445.68	373.27
446.05	373.37
446.42	373.02
446.79	372.59
447.16	372.21
447.53	371.87
447.90	370.74
448.27	369.62
448.64	368.05
449.01	366.92
449.37	364.95
449.74	363.07
450.11	360.88
450.48	358.47
450.85	355.99
451.22	353.84
451.59	351.90
451.96	350.01
452.33	347.45
452.70	345.11
453.07	342.35
453.43	339.55
453.80	336.82
454.17	334.17
454.54	331.63
454.91	328.90
455.28	326.24
455.65	323.80
456.02	321.34
456.38	319.21
456.75	316.60
457.12	314.40
457.49	312.20
457.86	310.00
458.23	308.19
458.59	306.17
458.96	304.12
459.33	302.24
459.70	300.37
460.07	298.89
460.43	297.20
460.80	295.56
461.17	294.13
461.54	292.67
461.91	291.26
462.27	289.87
462.64	288.64
463.01	287.35
463.38	286.10
463.74	284.75
464.11	283.64
464.48	282.62
464.85	281.56
465.21	280.73
465.58	279.83
465.95	278.77
466.32	277.87
466.68	276.98
467.05	276.11
467.42	275.26
467.78	274.33
468.15	273.49
468.52	272.89
468.88	272.01
469.25	271.22
469.62	270.64
469.98	269.93
470.35	269.33
470.72	268.75
471.08	268.09
471.45	267.59
471.82	267.05
472.18	266.48
472.55	266.00
472.92	265.46
473.28	265.02
473.65	264.56
474.02	264.13
474.38	263.79
474.75	263.49
475.11	263.13
475.48	262.94
475.85	262.71
476.21	262.49
476.58	262.35
476.94	262.24
477.31	262.06
477.67	261.91
478.04	261.82
478.41	261.79
478.77	261.81
479.14	261.75
479.50	261.75
479.87	261.81
480.23	261.93
480.60	262.03
480.96	262.16
481.33	262.39
481.69	262.56
482.06	262.79
482.42	262.99
482.79	263.29
483.15	263.61
483.52	263.98
483.88	264.32
484.25	264.70
484.61	265.11
484.98	265.55
485.34	266.16
485.71	266.72
486.07	267.30
486.44	267.88
486.80	268.57
487.17	269.30
487.53	270.12
487.90	271.00
488.26	271.94
488.62	272.90
488.99	273.84
489.35	274.88
489.72	275.94
490.08	277.12
490.44	278.34
490.81	279.63
491.17	280.98
491.54	282.48
491.90	284.04
492.26	285.69
492.63	287.41
492.99	289.19
493.36	291.05
493.72	293.11
494.08	295.22
494.45	297.48
494.81	299.87
495.17	302.24
495.54	304.78
495.90	307.43
496.26	310.20
496.63	313.17
496.99	316.28
497.35	319.55
497.72	322.99
498.08	326.48
498.44	330.15
498.80	334.10
499.17	338.13
499.53	342.24
499.89	346.60
500.26	351.05
500.62	355.73
500.98	360.70
501.34	365.73
501.71	371.04
502.07	376.44
502.43	381.98
502.79	387.85
503.16	393.87
503.52	400.11
503.88	406.45
504.24	413.10
504.60	419.97
504.97	427.11
505.33	434.31
505.69	442.00
506.05	449.71
506.41	457.51
506.78	465.59
507.14	473.99
507.50	482.69
507.86	491.61
508.22	500.70
508.59	509.84
508.95	519.40
509.31	529.05
509.67	539.08
510.03	549.34
510.39	559.79
510.75	570.52
511.12	581.32
511.48	592.55
511.84	603.91
512.20	615.29
512.56	627.01
512.92	639.13
513.28	651.37
513.64	663.70
514.00	676.29
514.37	689.08
514.73	701.96
515.09	714.78
515.45	727.95
515.81	741.41
516.17	755.22
516.53	769.11
516.89	783.26
517.25	797.23
517.61	811.48
517.97	825.69
518.33	839.90
518.69	854.46
519.05	869.20
519.41	884.10
519.77	899.40
520.13	914.74
520.49	929.83
520.85	945.01
521.21	960.38
521.57	976.43
521.93	991.96
522.29	1008.18
522.65	1024.28
523.01	1040.25
523.37	1056.06
523.73	1071.99
524.09	1087.81
524.45	1103.70
524.81	1120.05
525.17	1136.53
525.53	1153.16
525.89	1169.70
526.25	1186.34
526.61	1202.43
526.97	1218.90
527.33	1235.07
527.68	1251.30
528.04	1267.51
528.40	1283.77
528.76	1300.63
529.12	1316.78
529.48	1333.45
529.84	1349.11
530.20	1365.34
530.56	1382.00
530.91	1399.09
531.27	1415.54
531.63	1431.75
531.99	1448.18
532.35	1463.93
532.71	1479.52
533.07	1495.50
533.42	1511.26
533.78	1527.04
534.14	1543.01
534.50	1557.96
534.86	1573.59
535.21	1588.54
535.57	1604.16
535.93	1619.40
536.29	1633.99
536.65	1648.75
537.00	1663.15
537.36	1678.20
537.72	1692.44
538.08	1706.72
538.44	1720.09
538.79	1733.72
539.15	1747.00
539.51	1760.40
539.87	1774.56
540.22	1788.05
540.58	1801.48
540.94	1814.37
541.29	1826.93
541.65	1839.44
542.01	1852.53
542.37	1864.72
542.72	1876.94
543.08	1888.61
543.44	1900.70
543.79	1911.70
544.15	1922.47
544.51	1933.77
544.87	1944.61
545.22	1955.21
545.58	1965.27
545.94	1975.11
546.29	1984.91
546.65	1994.79
547.01	2003.92
547.36	2012.35
547.72	2020.83
548.07	2028.75
548.43	2036.76
548.79	2044.65
549.14	2052.22
549.50	2059.41
549.86	2066.89
550.21	2074.06
550.57	2081.10
550.92	2087.77
551.28	2094.84
551.64	2102.01
551.99	2108.45
552.35	2114.54
552.70	2120.75
553.06	2126.73
553.41	2132.89
553.77	2138.75
554.13	2144.64
554.48	2150.81
554.84	2156.41
555.19	2161.57
555.55	2166.73
555.90	2171.42
556.26	2176.43
556.61	2181.06
556.97	2185.55
557.32	2189.73
557.68	2193.99
558.03	2198.23
558.39	2201.83
558.74	2206.42
559.10	2210.34
559.45	2214.26
559.81	2218.42
560.16	2222.38
560.52	2225.67
560.87	2229.22
561.23	2232.02
561.58	2235.03
561.94	2237.75
562.29	2240.05
562.64	2242.93
563.00	2245.40
563.35	2248.86
563.71	2252.04
564.06	2255.26
564.42	2258.05
564.77	2260.74
565.12	2263.27
565.48	2265.39
565.83	2267.44
566.19	2268.94
566.54	2269.89
566.89	2271.12
567.25	2272.02
567.60	2273.28
567.96	2275.07
568.31	2276.07
568.66	2277.37
569.02	2278.08
569.37	2278.31
569.72	2279.36
570.08	2279.62
570.43	2279.87
570.78	2279.52
571.14	2278.08
571.49	2276.85
571.84	2276.70
572.20	2275.80
572.55	2274.71
572.90	2273.19
573.26	2272.05
573.61	2270.31
573.96	2268.95
574.31	2266.12
574.67	2263.39
575.02	2259.94
575.37	2256.64
575.72	2252.98
576.08	2249.63
576.43	2246.38
576.78	2243.05
577.13	2239.98
577.49	2236.98
577.84	2233.73
578.19	2230.18
578.54	2226.96
578.90	2223.19
579.25	2217.83
579.60	2212.99
579.95	2208.22
580.30	2203.28
580.66	2198.40
581.01	2193.79
581.36	2188.86
581.71	2184.92
582.06	2180.61
582.42	2176.34
582.77	2171.37
583.12	2167.09
583.47	2162.77
583.82	2158.13
584.17	2152.99
584.53	2147.59
584.88	2142.15
585.23	2136.60
585.58	2131.21
585.93	2125.74
586.28	2120.75
586.63	2116.03
586.98	2111.03
587.34	2106.42
587.69	2101.68
588.04	2096.55
588.39	2090.90
588.74	2084.71
589.09	2078.66
589.44	2072.09
589.79	2066.19
590.14	2060.61
590.49	2054.09
590.84	2047.65
591.19	2041.85
591.54	2035.51
591.89	2028.53
592.25	2022.06
592.60	2014.95
592.95	2007.72
593.30	2000.56
593.65	1993.27
594.00	1986.13
594.35	1979.10
594.70	1971.23
595.05	1964.46
595.40	1957.13
595.75	1949.88
596.10	1943.78
596.45	1937.18
596.80	1931.11
597.15	1924.65
597.50	1917.87
597.85	1911.49
598.19	1905.03
598.54	1898.11
598.89	1891.62
599.24	1885.85
599.59	1879.25
599.94	1873.14
600.29	1866.76
600.64	1860.15
600.99	1853.03
601.34	1846.44
601.69	1839.50
602.04	1832.89
602.39	1825.56
602.74	1818.95
603.08	1812.41
603.43	1805.75
603.78	1798.54
604.13	1791.37
604.48	1784.24
604.83	1777.39
605.18	1770.56
605.53	1762.87
605.87	1754.85
606.22	1747.67
606.57	1739.78
606.92	1732.43
607.27	1725.44
607.62	1718.79
607.96	1711.78
608.31	1705.19
608.66	1697.70
609.01	1690.36
609.36	1682.77
609.70	1674.91
610.05	1666.91
610.40	1659.29
610.75	1651.00
611.10	1643.43
611.44	1635.05
611.79	1627.15
612.14	1618.61
612.49	1609.61
612.83	1601.04
613.18	1592.93
613.53	1584.91
613.88	1576.41
614.22	1568.22
614.57	1559.64
614.92	1551.61
615.27	1544.15
615.61	1535.89
615.96	1527.91
616.31	1520.23
616.65	1512.90
617.00	1505.38
617.35	1497.75
617.70	1489.51
618.04	1481.01
618.39	1472.80
618.74	1465.37
619.08	1457.10
619.43	1449.42
619.78	1442.47
620.12	1435.47
620.47	1428.04
620.82	1419.97
621.16	1412.52
621.51	1404.91
621.85	1397.20
622.20	1388.61
622.55	1380.19
622.89	1372.34
623.24	1364.59
623.59	1357.20
623.93	1349.72
624.28	1342.54
624.62	1335.10
624.97	1327.88
625.32	1321.19
625.66	1314.24
626.01	1307.06
626.35	1299.63
626.70	1292.02
627.04	1284.40
627.39	1276.72
627.73	1269.26
628.08	1262.34
628.43	1255.24
628.77	1247.88
629.12	1240.48
629.46	1233.39
629.81	1225.88
630.15	1218.58
630.50	1211.38
630.84	1203.29
631.19	1195.37
631.53	1187.75
631.88	1180.10
632.22	1172.45
632.57	1165.14
632.91	1157.61
633.26	1150.18
633.60	1142.86
633.95	1135.69
634.29	1128.46
634.64	1121.69
634.98	1114.35
635.32	1107.10
635.67	1100.30
636.01	1093.66
636.36	1086.79
636.70	1080.23
637.05	1073.78
637.39	1067.31
637.73	1060.78
638.08	1054.82
638.42	1048.82
638.77	1042.41
639.11	1035.95
639.45	1029.61
639.80	1022.92
640.14	1016.57
640.49	1010.00
640.83	1003.66
641.17	997.42
641.52	991.21
641.86	984.71
642.20	978.96
642.55	972.63
642.89	966.32
643.23	959.78
643.58	954.07
643.92	947.92
644.26	941.92
644.61	935.91
644.95	929.86
645.29	923.37
645.64	916.63
645.98	910.25
646.32	904.34
646.66	898.31
647.01	892.57
647.35	886.72
647.69	880.90
648.04	875.33
648.38	869.54
648.72	863.58
649.06	857.60
649.41	851.73
649.75	845.88
650.09	839.96
650.43	834.17
650.78	828.03
651.12	822.07
651.46	816.30
651.80	810.65
652.14	805.24
652.49	799.82
652.83	794.64
653.17	789.15
653.51	783.41
653.85	778.01
654.20	772.39
654.54	766.45
654.88	760.72
655.22	754.86
655.56	749.28
655.90	743.76
656.25	738.52
656.59	733.16
656.93	728.09
657.27	722.99
657.61	717.55
657.95	712.50
658.29	707.44
658.64	702.14
658.98	696.79
659.32	691.38
659.66	686.27
660.00	681.02
660.34	676.02
660.68	671.15
661.02	666.11
661.36	661.43
661.70	656.99
662.05	652.69
662.39	648.45
662.73	644.00
663.07	639.70
663.41	635.29
663.75	630.83
664.09	626.23
664.43	621.79
664.77	617.81
665.11	613.50
665.45	609.36
665.79	605.39
666.13	601.33
666.47	597.19
666.81	593.04
667.15	588.93
667.49	584.99
667.83	581.16
668.17	577.27
668.51	573.13
668.85	569.09
669.19	565.22
669.53	561.35
669.87	557.47
670.21	553.78
670.55	550.08
670.89	546.61
671.23	543.23
671.57	539.73
671.91	536.16
672.25	532.65
672.58	529.19
672.92	525.75
673.26	522.61
673.60	519.51
673.94	516.34
674.28	513.39
674.62	510.43
674.96	507.34
675.30	504.45
675.64	501.59
675.97	498.82
676.31	495.98
676.65	493.06
676.99	490.38
677.33	487.54
677.67	484.78
678.01	481.82
678.34	478.85
678.68	475.98
679.02	473.19
679.36	470.46
679.70	467.71
680.04	464.95
680.37	462.08
680.71	459.24
681.05	456.69
681.39	454.00
681.73	451.39
682.06	448.92
682.40	446.31
682.74	443.77
683.08	441.21
683.42	438.57
683.75	436.07
684.09	433.48
684.43	431.01
684.77	428.55
685.10	426.14
685.44	423.83
685.78	421.52
686.12	419.25
686.45	416.97
686.79	414.67
687.13	412.48
687.46	410.32
687.80	408.13
688.14	405.85
688.48	403.83
688.81	401.53
689.15	399.36
689.49	397.19
689.82	395.11
690.16	393.01
690.50	391.06
690.83	389.15
691.17	387.15
691.51	385.24
691.84	383.44
692.18	381.58
692.52	379.60
692.85	377.67
693.19	375.80
693.52	373.97
693.86	372.17
694.20	370.38
694.53	368.57
694.87	366.77
695.21	365.00
695.54	363.14
695.88	361.43
696.21	359.69
696.55	358.08
696.88	356.40
697.22	354.72
697.56	353.08
697.89	351.40
698.23	349.77
698.56	348.14
698.90	346.51
699.23	344.87
699.57	343.34
699.90	341.78
700.24	340.21
700.58	338.68
700.91	337.17
701.25	335.70
701.58	334.33
701.92	332.97
702.25	331.63
702.59	330.25
702.92	328.92
703.26	327.65
703.59	326.39
703.93	325.22
704.26	324.05
704.60	322.76
704.93	321.51
705.26	320.28
705.60	319.09
705.93	317.89
706.27	316.85
706.60	315.75
706.94	314.66
707.27	313.57
707.61	312.52
707.94	311.52
708.27	310.47
708.61	309.42
708.94	308.40
709.28	307.41
709.61	306.50
709.94	305.56
710.28	304.52
710.61	303.50
710.95	302.42
711.28	301.48
711.61	300.58
711.95	299.67
712.28	298.73
712.61	297.76
712.95	296.82
713.28	295.92
713.61	295.07
713.95	294.25
714.28	293.37
714.61	292.51
714.95	291.65
715.28	290.76
715.61	289.85
715.95	288.98
716.28	288.11
716.61	287.24
716.95	286.38
717.28	285.65
717.61	284.89
717.94	284.14
718.28	283.29
718.61	282.53
718.94	281.83
719.27	281.17
719.61	280.53
719.94	279.88
720.27	279.14
720.60	278.46
720.94	277.78
721.27	277.17
721.60	276.59
721.93	276.01
722.27	275.44
722.60	274.91
722.93	274.34
723.26	273.80
723.59	273.26
723.93	272.73
724.26	272.16
724.59	271.58
724.92	271.05
725.25	270.57
725.59	270.05
725.92	269.54
726.25	269.04
726.58	268.54
726.91	268.03
727.24	267.58
727.57	267.13
727.91	266.61
728.24	266.17
728.57	265.62
728.90	265.18
729.23	264.72
729.56	264.29
729.89	263.81
730.22	263.33
730.55	262.89
730.89	262.44
731.22	261.97
731.55	261.55
731.88	261.12
732.21	260.71
732.54	260.30
732.87	259.88
733.20	259.45
733.53	259.08
733.86	258.74
734.19	258.32
734.52	257.92
734.85	257.62
735.18	257.19
735.51	256.86
735.84	256.49
736.17	256.11
736.50	255.75
736.83	255.51
737.16	255.16
737.49	254.80
737.82	254.46
738.15	254.13
738.48	253.81
738.81	253.50
739.14	253.17
739.47	252.86
739.80	252.56
740.13	252.28
740.46	251.97
740.79	251.64
741.12	251.32
741.45	250.97
741.78	250.61
742.11	250.33
742.44	249.98
742.77	249.68
743.10	249.38
743.43	249.05
743.75	248.71
744.08	248.58
744.41	248.34
744.74	248.10
745.07	247.84
745.40	247.61
745.73	247.40
746.06	247.14
746.39	246.88
746.71	246.59
747.04	246.29
747.37	246.04
747.70	245.80
748.03	245.60
748.36	245.42
748.68	245.21
749.01	244.99
749.34	244.80
749.67	244.56
750.00	244.36
750.33	244.22
750.65	243.99
750.98	243.66
751.31	243.45
751.64	243.20
751.97	243.05
752.29	242.79
752.62	242.49
752.95	242.29
753.28	242.10
753.60	241.91
753.93	241.76
754.26	241.54
754.59	241.33
754.91	241.11
755.24	240.92
755.57	240.70
755.90	240.49
756.22	240.30
756.55	240.13
756.88	239.94
757.20	239.69
757.53	239.50
757.86	239.35
758.19	239.19
758.51	239.05
758.84	238.80
759.17	238.67
759.49	238.52
759.82	238.40
760.15	238.25
760.47	238.11
760.80	237.92
761.13	237.76
761.45	237.60
761.78	237.42
762.11	237.24
762.43	237.07
762.76	236.94
763.08	236.80
763.41	236.68
763.74	236.53
764.06	236.37
764.39	236.24
764.71	236.05
765.04	235.90
765.37	235.78
765.69	235.64
766.02	235.49
766.34	235.35
766.67	235.19
767.00	235.05
767.32	234.97
767.65	234.89
767.97	234.81
768.30	234.70
768.62	234.60
768.95	234.49
769.27	234.41
769.60	234.31
769.92	234.16
770.25	234.03
770.57	233.91
770.90	233.83
771.22	233.70
771.55	233.58
771.87	233.46
772.20	233.33
772.52	233.34
772.85	233.37
773.17	233.29
773.50	233.20
773.82	233.09
774.15	232.97
774.47	232.83
774.80	232.68
775.12	232.57
775.45	232.49
775.77	232.40
776.09	232.30
776.42	232.20
776.74	232.17
777.07	232.08
777.39	231.97
777.72	231.88
778.04	231.81
778.36	231.79
778.69	231.72
779.01	231.64
779.33	231.49
779.66	231.31
779.98	231.24
780.31	231.14
780.63	231.11
780.95	231.05
781.28	230.98
781.60	230.95
781.92	230.91
782.25	230.83
782.57	230.77
782.89	230.70
783.22	230.64
783.54	230.57
783.86	230.51
784.19	230.43
784.51	230.42
784.83	230.35
785.16	230.27
785.48	230.24
785.80	230.18
786.12	230.12
786.45	230.05
786.77	229.99
787.09	229.97
787.42	229.90
787.74	229.84
788.06	229.80
788.38	229.72
788.71	229.67
789.03	229.63
789.35	229.61
789.67	229.56
789.99	229.52
790.32	229.49
790.64	229.51
790.96	229.58
791.28	229.48
791.61	229.45
791.93	229.39
792.25	229.32
792.57	229.39
792.89	229.35
793.21	229.35
793.54	229.32
793.86	229.28
794.18	229.26
794.50	229.24
794.82	229.19
795.14	229.21
795.47	229.19
795.79	229.18
796.11	229.11
796.43	229.10
796.75	229.08
797.07	229.04
797.39	228.96
797.71	228.84
798.04	228.85
798.36	228.81
798.68	228.83
799.00	228.84
799.32	228.74
799.64	228.75
799.96	228.70
800.28	228.67
800.60	228.64
800.92	228.61
801.24	228.55
801.56	228.54
801.89	228.50
802.21	228.49
802.53	228.44
802.85	228.45
803.17	228.45
803.49	228.42
803.81	228.35
804.13	228.28
804.45	228.27
804.77	228.22
805.09	228.21
805.41	228.13
805.73	228.07
806.05	228.02
806.37	227.97
806.69	227.94
807.01	227.87
807.33	227.84
807.65	227.75
807.97	227.79
808.28	227.77
808.60	227.75
808.92	227.66
809.24	227.71
809.56	227.65
809.88	227.61
810.20	227.56
810.52	227.59
810.84	227.60
811.16	227.59
811.48	227.55
811.80	227.55
812.12	227.55
812.43	227.55
812.75	227.53
813.07	227.49
813.39	227.45
813.71	227.46
814.03	227.42
814.35	227.42
814.67	227.36
814.98	227.32
815.30	227.27
815.62	227.24
815.94	227.15
816.26	227.18
816.58	227.14
816.89	227.16
817.21	227.13
817.53	227.07
817.85	227.02
818.17	227.03
818.48	226.98
818.80	226.97
819.12	226.92
819.44	226.92
819.76	226.87
820.07	226.89
820.39	226.86
820.71	226.83
821.03	226.81
821.34	226.78
821.66	226.78
821.98	226.80
822.30	226.77
822.61	226.84
822.93	226.78
823.25	226.76
823.57	226.70
823.88	226.68
824.20	226.72
824.52	226.74
824.83	226.74
825.15	226.75
825.47	226.73
825.79	226.74
826.10	226.73
826.42	226.74
826.74	226.75
827.05	226.74
827.37	226.75
827.69	226.71
828.00	226.72
828.32	226.69
828.64	226.70
828.95	226.75
829.27	226.70
829.58	226.73
829.90	226.78
830.22	226.81
830.53	226.80
830.85	226.79
831.17	226.74
831.48	226.73
831.80	226.72
832.11	226.70
832.43	226.67
832.75	226.67
833.06	226.74
833.38	226.70
833.69	226.70
834.01	226.75
834.32	226.81
834.64	226.77
834.96	226.78
835.27	226.77
835.59	226.78
835.90	226.74
836.22	226.70
836.53	226.66
836.85	226.67
837.16	226.74
837.48	226.75
837.79	226.80
838.11	226.80
838.42	226.80
838.74	226.83
839.05	226.82
839.37	226.81
839.68	226.73
840.00	226.73
840.31	226.73
840.63	226.71
840.94	226.65
841.26	226.67
841.57	226.69
841.88	226.68
842.20	226.65
842.51	226.64
842.83	226.64
843.14	226.68
843.46	226.66
843.77	226.61
844.08	226.59
844.40	226.55
844.71	226.53
845.03	226.51
845.34	226.45
845.65	226.45
845.97	226.45
846.28	226.45
846.60	226.45
846.91	226.43
847.22	226.40
847.54	226.43
847.85	226.41
848.16	226.33
848.48	226.31
848.79	226.35
849.10	226.35
849.42	226.31
849.73	226.24
850.04	226.23
850.36	226.16
850.67	226.17
850.98	226.16
851.30	226.15
851.61	226.14
851.92	226.11
852.23	226.16
852.55	226.14
852.86	226.13
853.17	226.10
853.49	226.11
853.80	226.11
854.11	226.09
854.42	226.08
854.74	226.08
855.05	226.05
855.36	225.95
855.67	225.96
855.99	225.96
856.30	226.06
856.61	226.05
856.92	226.06
857.23	226.06
857.55	226.01
857.86	225.97
858.17	225.99
858.48	225.99
858.79	225.91
859.11	225.89
859.42	225.86
859.73	225.84
860.04	225.81
860.35	225.78
860.66	225.75
860.98	225.74
861.29	225.75
861.60	225.74
861.91	225.78
862.22	225.74
862.53	225.74
862.84	225.64
863.16	225.65
863.47	225.62
863.78	225.61
864.09	225.65
864.40	225.67
864.71	225.62
865.02	225.65
865.33	225.65
865.64	225.68
865.95	225.69
866.27	225.78
866.58	225.78
866.89	225.77
867.20	225.76
867.51	225.77
867.82	225.76
868.13	225.77
868.44	225.71
868.75	225.72
869.06	225.71
869.37	225.68
869.68	225.67
869.99	225.68
870.30	225.69
870.61	225.70
870.92	225.70
871.23	225.67
871.54	225.66
871.85	225.69
872.16	225.67
872.47	225.68
872.78	225.63
873.09	225.65
873.40	225.67
873.71	225.71
874.02	225.71
874.33	225.71
874.64	225.73
874.95	225.79
875.26	225.78
875.56	225.78
875.87	225.80
876.18	225.80
876.49	225.89
876.80	225.84
877.11	225.84
877.42	225.85
877.73	225.91
878.04	225.93
878.35	225.93
878.66	225.96
878.96	225.96
879.27	225.93
879.58	225.93
879.89	225.93
880.20	225.94
880.51	225.94
880.82	225.95
881.12	225.97
881.43	225.98
881.74	225.98
882.05	225.97
882.36	225.98
882.67	225.96
882.97	225.86
883.28	225.88
883.59	225.88
883.90	225.91
884.21	225.91
884.51	225.86
884.82	225.82
885.13	225.78
885.44	225.75
885.74	225.76
886.05	225.75
886.36	225.74
886.67	225.69
886.98	225.72
887.28	225.75
887.59	225.73
887.90	225.72
888.20	225.72
888.51	225.76
888.82	225.75
889.13	225.79
889.43	225.86
889.74	225.87
890.05	225.86
890.35	225.85
890.66	225.84
890.97	225.83
891.28	225.83
891.58	225.83
891.89	225.83
892.20	225.83
892.50	225.81
892.81	225.80
893.12	225.81
893.42	225.76
893.73	225.75
894.04	225.71
894.34	225.68
894.65	225.67
894.95	225.61
895.26	225.58
895.57	225.56
895.87	225.48
896.18	225.47
896.48	225.45
896.79	225.45
897.10	225.45
897.40	225.45
897.71	225.45
898.01	225.44
898.32	225.45
898.63	225.40
898.93	225.40
899.24	225.40
899.54	225.40
899.85	225.39
900.15	225.38
900.46	225.40
900.76	225.40
901.07	225.39
901.38	225.38
901.68	225.43
901.99	225.39
902.29	225.41
902.60	225.43
902.90	225.45
903.21	225.40
903.51	225.38
903.82	225.40
904.12	225.41
904.43	225.43
904.73	225.43
905.03	225.46
905.34	225.58
905.64	225.58
905.95	225.58
906.25	225.59
906.56	225.58
906.86	225.58
907.17	225.58
907.47	225.61
907.77	225.62
908.08	225.56
908.38	225.59
908.69	225.59
908.99	225.57
909.30	225.57
909.60	225.61
909.90	225.62
910.21	225.61
910.51	225.62
910.81	225.62
911.12	225.62
911.42	225.62
911.73	225.49
912.03	225.50
912.33	225.52
912.64	225.51
912.94	225.50
913.24	225.48
913.55	225.49
913.85	225.48
914.15	225.53
914.46	225.52
914.76	225.52
915.06	225.52
915.37	225.53
915.67	225.48
915.97	225.48
916.27	225.46
916.58	225.43
916.88	225.43
917.18	225.39
917.49	225.45
917.79	225.48
918.09	225.51
918.39	225.55
918.70	225.55
919.00	225.57
919.30	225.60
919.60	225.61
919.91	225.58
920.21	225.59
920.51	225.56
920.81	225.58
921.12	225.61
921.42	225.62
921.72	225.61
922.02	225.64
922.32	225.66
922.63	225.70
922.93	225.76
923.23	225.76
923.53	225.78
923.83	225.71
924.13	225.69
924.44	225.69
924.74	225.69
925.04	225.72
925.34	225.71
925.64	225.68
925.94	225.65
926.24	225.73
926.55	225.70
926.85	225.72
927.15	225.72
927.45	225.68
927.75	225.67
928.05	225.67
928.35	225.65
928.65	225.65
928.95	225.63
929.26	225.59
929.56	225.58
929.86	225.61
930.16	225.61
930.46	225.61
930.76	225.58
931.06	225.54
931.36	225.50
931.66	225.53
931.96	225.52
932.26	225.54
932.56	225.49
932.86	225.51
933.16	225.48
933.46	225.47
933.76	225.48
934.06	225.49
934.36	225.52
934.66	225.52
934.96	225.49
935.26	225.50
935.56	225.48
935.86	225.47
936.16	225.46
936.46	225.49
936.76	225.49
937.06	225.48
937.36	225.47
937.66	225.49
937.96	225.46
938.26	225.47
938.56	225.45
938.86	225.46
939.16	225.48
939.46	225.48
939.76	225.48
940.06	225.48
940.35	225.44
940.65	225.37
940.95	225.40
941.25	225.39
941.55	225.37
941.85	225.38
942.15	225.42
942.45	225.42
942.75	225.36
943.04	225.36
943.34	225.38
943.64	225.39
943.94	225.33
944.24	225.34
944.54	225.34
944.84	225.36
945.13	225.37
945.43	225.35
945.73	225.35
946.03	225.36
946.33	225.34
946.62	225.34
946.92	225.35
947.22	225.34
947.52	225.32
947.82	225.32
948.11	225.34
948.41	225.29
948.71	225.28
949.01	225.33
949.31	225.30
949.60	225.29
949.90	225.29
950.20	225.30
950.50	225.28
950.79	225.28
951.09	225.28
951.39	225.24
951.69	225.23
951.98	225.27
952.28	225.24
952.58	225.25
952.87	225.24
953.17	225.30
953.47	225.27
953.76	225.29
954.06	225.29
954.36	225.24
954.66	225.25
954.95	225.27
955.25	225.26
955.55	225.28
955.84	225.27
956.14	225.28
956.44	225.31
956.73	225.30
957.03	225.29
957.32	225.28
957.62	225.27
957.92	225.31
958.21	225.30
958.51	225.39
958.81	225.37
959.10	225.38
959.40	225.37
959.69	225.38
959.99	225.38
960.29	225.40
960.58	225.38
960.88	225.41
961.17	225.39
961.47	225.41
961.76	225.39
962.06	225.39
962.36	225.39
962.65	225.36
962.95	225.36
963.24	225.37
963.54	225.38
963.83	225.40
964.13	225.37
964.42	225.31
964.72	225.27
965.01	225.29
965.31	225.27
965.60	225.22
965.90	225.28
966.19	225.27
966.49	225.25
966.78	225.28
967.08	225.25
967.37	225.25
967.67	225.20
967.96	225.20
968.26	225.22
968.55	225.21
968.85	225.19
969.14	225.19
969.43	225.18
969.73	225.14
970.02	225.11
970.32	225.14
970.61	225.17
970.91	225.10
971.20	225.07
971.49	225.05
971.79	225.12
972.08	225.05
972.38	225.04
972.67	225.04
972.96	225.05
973.26	225.06
973.55	225.07
973.85	225.05
974.14	225.05
974.43	225.03
974.73	225.04
975.02	225.04
975.31	225.06
975.61	225.06
975.90	225.09
976.19	225.10
976.49	225.11
976.78	225.12
977.07	225.16
977.37	225.18
977.66	225.22
977.95	225.16
978.24	225.18
978.54	225.20
978.83	225.18
979.12	225.16
979.42	225.12
979.71	225.12
980.00	225.14
980.29	225.16
980.59	225.16
980.88	225.13
981.17	225.11
981.46	225.09
981.76	225.07
982.05	225.08
982.34	225.07
982.63	225.03
982.93	225.00
983.22	225.02
983.51	225.03
983.80	225.04
984.09	225.08
984.39	225.05
984.68	225.02
984.97	225.03
985.26	225.02
985.55	225.06
985.85	225.05
986.14	225.06
986.43	225.04
986.72	225.04
987.01	225.02
987.30	225.04
987.59	225.06
987.89	225.08
988.18	225.08
988.47	225.08
988.76	225.07
989.05	225.09
989.34	225.07
989.63	225.07
989.92	225.06
990.22	225.04
990.51	225.06
990.80	225.06
991.09	225.08
991.38	225.06
991.67	225.06
991.96	225.04
992.25	225.07
992.54	225.04
992.83	225.07
993.12	225.08
993.41	225.07
993.70	225.11
993.99	225.12
994.28	225.12
994.58	225.13
994.87	225.12
995.16	225.11
995.45	225.12
995.74	225.10
996.03	225.08
996.32	225.11
996.61	225.12
996.90	225.11
997.19	225.12
997.48	225.17
997.77	225.16
998.06	225.18
998.34	225.16
998.63	225.21
998.92	225.16
999.21	225.19
999.50	225.21
999.79	225.17
1000.08	225.20
1000.37	225.20
1000.66	225.22
1000.95	225.23
1001.24	225.23
1001.53	225.24
1001.82	225.26
1002.11	225.28
1002.40	225.27
1002.68	225.28
1002.97	225.39
1003.26	225.37
1003.55	225.35
1003.84	225.34
1004.13	225.37
1004.42	225.38
1004.71	225.35
1004.99	225.39
1005.28	225.44
1005.57	225.43
1005.86	225.42
1006.15	225.41
1006.44	225.38
1006.72	225.40
1007.01	225.41
1007.30	225.43
1007.59	225.42
1007.88	225.39
1008.17	225.39
1008.45	225.39
1008.74	225.36
1009.03	225.31
1009.32	225.30
1009.60	225.33
1009.89	225.33
1010.18	225.28
1010.47	225.24
1010.76	225.25
1011.04	225.23
1011.33	225.20
1011.62	225.23
1011.91	225.24
1012.19	225.23
1012.48	225.26
1012.77	225.22
1013.05	225.31
1013.34	225.29
1013.63	225.28
1013.92	225.31
1014.20	225.27
1014.49	225.25
1014.78	225.25
1015.06	225.24
1015.35	225.23
1015.64	225.25
1015.92	225.30
1016.21	225.31
1016.50	225.34
1016.78	225.35
1017.07	225.37
1017.36	225.35
1017.64	225.34
1017.93	225.31
1018.22	225.32
1018.50	225.29
1018.79	225.30
1019.08	225.23
1019.36	225.25
1019.65	225.26
1019.93	225.28
1020.22	225.31
1020.51	225.38
1020.79	225.37
1021.08	225.40
1021.36	225.04
1021.65	225.21
1021.94	225.40
1022.22	225.63
1022.51	225.41
1022.79	225.67
1023.08	225.18
1023.36	226.56
1023.65	224.67
>>>>>End Processed Spectral Data<<<<<
