SpectraSuite Data File
++++++++++++++++++++++++++++++++++++
Date: Fri Feb 01 17:19:09 EST 2013
User: group
Dark Spectrum Present: No
Reference Spectrum Present: No
Number of Sampled Component Spectra: 1
Spectrometers: USB2E7196
Integration Time (usec): 35000 (USB2E7196)
Spectra Averaged: 100 (USB2E7196)
Boxcar Smoothing: 10 (USB2E7196)
Correct for Electrical Dark: No (USB2E7196)
Strobe/Lamp Enabled: No (USB2E7196)
Correct for Detector Non-linearity: No (USB2E7196)
Correct for Stray Light: No (USB2E7196)
Number of Pixels in Processed Spectrum: 2048
>>>>>Begin Processed Spectral Data<<<<<
339.09	0.00
339.48	213.03
339.86	213.98
340.24	215.75
340.63	217.09
341.01	219.47
341.39	219.78
341.78	221.04
342.16	222.28
342.54	222.64
342.93	211.10
343.31	221.76
343.69	222.30
344.07	222.77
344.46	223.18
344.84	223.56
345.22	223.80
345.60	224.07
345.99	224.23
346.37	224.35
346.75	224.45
347.13	224.53
347.52	224.56
347.90	224.64
348.28	224.68
348.66	224.76
349.05	224.79
349.43	224.86
349.81	224.87
350.19	224.94
350.57	225.00
350.96	225.05
351.34	225.15
351.72	225.25
352.10	225.33
352.48	225.40
352.87	225.47
353.25	225.53
353.63	225.58
354.01	225.67
354.39	225.76
354.77	225.85
355.15	225.94
355.54	226.03
355.92	226.09
356.30	226.16
356.68	226.31
357.06	226.38
357.44	226.40
357.82	226.48
358.20	226.54
358.58	226.63
358.97	226.71
359.35	226.80
359.73	226.86
360.11	226.90
360.49	227.00
360.87	227.05
361.25	227.12
361.63	227.19
362.01	227.30
362.39	227.34
362.77	227.39
363.15	227.45
363.53	227.47
363.91	227.48
364.29	227.52
364.67	227.43
365.05	227.45
365.43	227.48
365.81	227.49
366.19	227.56
366.57	227.59
366.95	227.58
367.33	227.54
367.71	227.54
368.09	227.60
368.47	227.58
368.85	227.54
369.23	227.51
369.61	227.43
369.99	227.40
370.37	227.39
370.75	227.42
371.13	227.35
371.51	227.30
371.89	227.27
372.27	227.24
372.65	227.20
373.03	227.18
373.41	227.13
373.78	227.10
374.16	226.98
374.54	226.90
374.92	226.83
375.30	226.80
375.68	226.71
376.06	226.65
376.44	226.57
376.82	226.53
377.19	226.51
377.57	226.47
377.95	226.34
378.33	226.23
378.71	226.11
379.09	226.08
379.47	226.02
379.84	225.94
380.22	225.87
380.60	225.80
380.98	225.73
381.36	225.68
381.73	225.64
382.11	225.61
382.49	225.56
382.87	225.49
383.25	225.41
383.62	225.46
384.00	225.40
384.38	225.35
384.76	225.32
385.13	225.30
385.51	225.25
385.89	225.24
386.27	225.21
386.64	225.17
387.02	225.13
387.40	225.08
387.78	225.06
388.15	225.03
388.53	225.00
388.91	224.97
389.29	224.94
389.66	224.89
390.04	224.86
390.42	224.89
390.79	224.85
391.17	224.82
391.55	224.71
391.92	224.68
392.30	224.66
392.68	224.64
393.05	224.59
393.43	224.60
393.81	224.57
394.18	224.55
394.56	224.56
394.94	224.56
395.31	224.60
395.69	224.66
396.06	224.67
396.44	224.69
396.82	224.71
397.19	224.78
397.57	224.78
397.95	224.84
398.32	224.85
398.70	224.95
399.07	225.05
399.45	225.12
399.82	225.17
400.20	225.23
400.58	225.32
400.95	225.36
401.33	225.45
401.70	225.62
402.08	225.70
402.45	225.78
402.83	225.89
403.20	225.95
403.58	226.05
403.95	226.17
404.33	226.28
404.71	226.37
405.08	226.56
405.46	226.67
405.83	226.78
406.21	226.89
406.58	227.03
406.96	227.16
407.33	227.32
407.70	227.50
408.08	227.76
408.45	227.94
408.83	228.17
409.20	228.38
409.58	228.56
409.95	228.82
410.33	229.10
410.70	229.33
411.08	229.65
411.45	229.92
411.82	230.20
412.20	230.56
412.57	231.00
412.95	231.26
413.32	231.71
413.69	232.12
414.07	232.57
414.44	233.03
414.82	233.51
415.19	234.06
415.56	234.66
415.94	235.17
416.31	235.81
416.68	236.46
417.06	237.18
417.43	237.85
417.81	238.64
418.18	239.46
418.55	240.36
418.93	241.25
419.30	242.19
419.67	243.16
420.04	244.12
420.42	245.15
420.79	246.35
421.16	247.54
421.54	248.77
421.91	250.02
422.28	251.35
422.66	252.72
423.03	254.06
423.40	255.44
423.77	256.94
424.15	258.44
424.52	259.98
424.89	261.64
425.26	263.24
425.64	264.73
426.01	266.35
426.38	268.08
426.75	269.79
427.13	271.58
427.50	273.50
427.87	275.46
428.24	277.36
428.61	279.21
428.99	281.18
429.36	283.35
429.73	285.49
430.10	287.56
430.47	289.70
430.85	291.89
431.22	294.16
431.59	296.63
431.96	298.95
432.33	301.50
432.70	303.97
433.08	306.89
433.45	309.64
433.82	312.31
434.19	315.28
434.56	318.18
434.93	320.90
435.30	323.57
435.68	326.53
436.05	329.47
436.42	332.31
436.79	334.95
437.16	337.74
437.53	340.68
437.90	343.55
438.27	346.34
438.64	349.28
439.01	351.95
439.38	354.25
439.75	356.44
440.13	359.03
440.50	361.44
440.87	363.31
441.24	365.25
441.61	367.47
441.98	368.98
442.35	370.81
442.72	372.74
443.09	374.62
443.46	375.66
443.83	376.28
444.20	376.83
444.57	377.72
444.94	378.01
445.31	378.36
445.68	378.77
446.05	378.91
446.42	378.49
446.79	378.10
447.16	377.66
447.53	377.38
447.90	376.22
448.27	375.03
448.64	373.44
449.01	372.29
449.37	370.27
449.74	368.38
450.11	366.11
450.48	363.61
450.85	361.02
451.22	358.84
451.59	356.78
451.96	354.78
452.33	352.09
452.70	349.69
453.07	346.77
453.43	343.77
453.80	340.92
454.17	338.20
454.54	335.54
454.91	332.71
455.28	329.94
455.65	327.34
456.02	324.82
456.38	322.62
456.75	319.90
457.12	317.61
457.49	315.28
457.86	313.04
458.23	311.08
458.59	309.00
458.96	306.88
459.33	304.94
459.70	303.03
460.07	301.43
460.43	299.65
460.80	298.02
461.17	296.51
461.54	294.94
461.91	293.47
462.27	292.01
462.64	290.72
463.01	289.34
463.38	287.99
463.74	286.57
464.11	285.35
464.48	284.31
464.85	283.15
465.21	282.27
465.58	281.30
465.95	280.19
466.32	279.20
466.68	278.20
467.05	277.28
467.42	276.35
467.78	275.43
468.15	274.52
468.52	273.84
468.88	272.98
469.25	272.23
469.62	271.58
469.98	270.86
470.35	270.21
470.72	269.58
471.08	268.94
471.45	268.38
471.82	267.82
472.18	267.21
472.55	266.78
472.92	266.23
473.28	265.77
473.65	265.31
474.02	264.87
474.38	264.54
474.75	264.19
475.11	263.87
475.48	263.62
475.85	263.38
476.21	263.14
476.58	263.00
476.94	262.83
477.31	262.67
477.67	262.54
478.04	262.46
478.41	262.41
478.77	262.47
479.14	262.41
479.50	262.44
479.87	262.53
480.23	262.62
480.60	262.71
480.96	262.83
481.33	263.05
481.69	263.28
482.06	263.47
482.42	263.71
482.79	263.95
483.15	264.26
483.52	264.67
483.88	264.97
484.25	265.32
484.61	265.70
484.98	266.17
485.34	266.72
485.71	267.26
486.07	267.88
486.44	268.44
486.80	269.14
487.17	269.87
487.53	270.64
487.90	271.51
488.26	272.47
488.62	273.43
488.99	274.37
489.35	275.39
489.72	276.55
490.08	277.72
490.44	278.96
490.81	280.28
491.17	281.62
491.54	283.15
491.90	284.68
492.26	286.38
492.63	288.10
492.99	289.88
493.36	291.81
493.72	293.84
494.08	295.94
494.45	298.20
494.81	300.59
495.17	303.05
495.54	305.60
495.90	308.23
496.26	311.01
496.63	313.98
496.99	317.10
497.35	320.35
497.72	323.75
498.08	327.27
498.44	330.92
498.80	334.84
499.17	338.80
499.53	342.95
499.89	347.27
500.26	351.75
500.62	356.37
500.98	361.26
501.34	366.29
501.71	371.55
502.07	376.89
502.43	382.44
502.79	388.19
503.16	394.17
503.52	400.36
503.88	406.75
504.24	413.31
504.60	420.02
504.97	427.09
505.33	434.35
505.69	441.99
506.05	449.71
506.41	457.52
506.78	465.52
507.14	473.82
507.50	482.41
507.86	491.29
508.22	500.33
508.59	509.43
508.95	518.82
509.31	528.56
509.67	538.52
510.03	548.66
510.39	559.07
510.75	569.71
511.12	580.47
511.48	591.50
511.84	602.76
512.20	614.08
512.56	625.73
512.92	637.72
513.28	649.86
513.64	662.06
514.00	674.55
514.37	687.36
514.73	700.21
515.09	713.04
515.45	726.15
515.81	739.51
516.17	753.22
516.53	767.10
516.89	780.98
517.25	794.84
517.61	808.96
517.97	823.15
518.33	837.28
518.69	851.80
519.05	866.56
519.41	881.37
519.77	896.63
520.13	911.85
520.49	926.86
520.85	941.86
521.21	957.23
521.57	973.04
521.93	988.40
522.29	1004.42
522.65	1020.24
523.01	1036.03
523.37	1051.65
523.73	1067.42
524.09	1083.16
524.45	1098.99
524.81	1115.41
525.17	1131.79
525.53	1148.30
525.89	1164.81
526.25	1181.31
526.61	1197.38
526.97	1213.83
527.33	1229.95
527.68	1246.08
528.04	1262.16
528.40	1278.38
528.76	1294.99
529.12	1311.22
529.48	1327.77
529.84	1343.50
530.20	1359.83
530.56	1376.52
530.91	1393.69
531.27	1410.19
531.63	1426.33
531.99	1442.62
532.35	1458.17
532.71	1473.90
533.07	1489.82
533.42	1505.41
533.78	1521.24
534.14	1537.19
534.50	1552.27
534.86	1567.87
535.21	1582.82
535.57	1598.53
535.93	1613.82
536.29	1628.53
536.65	1643.54
537.00	1658.09
537.36	1673.25
537.72	1687.55
538.08	1701.80
538.44	1715.37
538.79	1729.09
539.15	1742.51
539.51	1756.12
539.87	1770.38
540.22	1783.82
540.58	1797.37
540.94	1810.56
541.29	1823.14
541.65	1835.68
542.01	1848.70
542.37	1861.08
542.72	1873.34
543.08	1885.10
543.44	1897.41
543.79	1908.59
544.15	1919.41
544.51	1931.01
544.87	1941.76
545.22	1952.51
545.58	1962.68
545.94	1972.48
546.29	1982.42
546.65	1992.48
547.01	2001.83
547.36	2010.59
547.72	2019.11
548.07	2027.23
548.43	2035.41
548.79	2043.37
549.14	2051.05
549.50	2058.51
549.86	2066.11
550.21	2073.57
550.57	2080.91
550.92	2087.61
551.28	2094.78
551.64	2101.84
551.99	2108.53
552.35	2114.97
552.70	2121.39
553.06	2127.59
553.41	2134.19
553.77	2140.20
554.13	2146.43
554.48	2152.70
554.84	2158.48
555.19	2163.94
555.55	2169.34
555.90	2174.17
556.26	2179.49
556.61	2184.34
556.97	2188.97
557.32	2193.44
557.68	2197.85
558.03	2202.19
558.39	2206.11
558.74	2210.97
559.10	2215.29
559.45	2219.15
559.81	2223.54
560.16	2227.69
560.52	2231.21
560.87	2234.79
561.23	2237.85
561.58	2240.93
561.94	2243.84
562.29	2246.35
562.64	2249.56
563.00	2252.33
563.35	2255.95
563.71	2259.36
564.06	2262.90
564.42	2266.17
564.77	2269.05
565.12	2271.95
565.48	2274.47
565.83	2276.84
566.19	2278.58
566.54	2279.66
566.89	2281.30
567.25	2282.51
567.60	2283.97
567.96	2286.00
568.31	2287.27
568.66	2288.81
569.02	2289.86
569.37	2290.37
569.72	2291.71
570.08	2292.17
570.43	2292.59
570.78	2292.57
571.14	2291.53
571.49	2290.48
571.84	2290.54
572.20	2289.65
572.55	2288.77
572.90	2287.45
573.26	2286.39
573.61	2284.92
573.96	2283.72
574.31	2281.07
574.67	2278.46
575.02	2275.29
575.37	2272.24
575.72	2268.86
576.08	2265.71
576.43	2262.53
576.78	2259.39
577.13	2256.29
577.49	2253.28
577.84	2250.07
578.19	2246.53
578.54	2243.03
578.90	2239.36
579.25	2233.97
579.60	2229.48
579.95	2224.76
580.30	2219.89
580.66	2214.89
581.01	2210.09
581.36	2205.35
581.71	2201.49
582.06	2197.27
582.42	2193.08
582.77	2188.31
583.12	2184.00
583.47	2179.68
583.82	2175.22
584.17	2170.22
584.53	2165.04
584.88	2159.87
585.23	2154.41
585.58	2149.17
585.93	2143.95
586.28	2139.13
586.63	2134.45
586.98	2129.61
587.34	2125.10
587.69	2120.49
588.04	2115.60
588.39	2110.27
588.74	2103.94
589.09	2097.79
589.44	2091.31
589.79	2085.24
590.14	2079.68
590.49	2073.26
590.84	2067.04
591.19	2061.10
591.54	2054.84
591.89	2047.90
592.25	2041.36
592.60	2034.28
592.95	2026.97
593.30	2019.94
593.65	2012.51
594.00	2005.47
594.35	1998.26
594.70	1990.27
595.05	1983.29
595.40	1976.12
595.75	1968.88
596.10	1963.06
596.45	1956.63
596.80	1950.47
597.15	1944.37
597.50	1937.58
597.85	1931.11
598.19	1924.55
598.54	1917.70
598.89	1911.17
599.24	1905.29
599.59	1898.78
599.94	1892.61
600.29	1886.23
600.64	1879.65
600.99	1872.37
601.34	1865.54
601.69	1858.58
602.04	1851.93
602.39	1844.70
602.74	1837.90
603.08	1831.24
603.43	1824.41
603.78	1817.12
604.13	1809.81
604.48	1802.54
604.83	1795.56
605.18	1788.80
605.53	1780.93
605.87	1772.90
606.22	1765.71
606.57	1757.70
606.92	1750.20
607.27	1743.10
607.62	1736.53
607.96	1729.27
608.31	1722.92
608.66	1715.45
609.01	1708.03
609.36	1700.45
609.70	1692.35
610.05	1684.28
610.40	1676.48
610.75	1668.15
611.10	1660.51
611.44	1652.07
611.79	1643.85
612.14	1635.13
612.49	1625.87
612.83	1617.31
613.18	1609.03
613.53	1600.72
613.88	1592.23
614.22	1583.86
614.57	1575.19
614.92	1566.97
615.27	1559.51
615.61	1551.10
615.96	1542.85
616.31	1534.90
616.65	1527.48
617.00	1519.90
617.35	1512.23
617.70	1503.89
618.04	1495.26
618.39	1486.91
618.74	1479.39
619.08	1470.98
619.43	1463.28
619.78	1456.23
620.12	1449.13
620.47	1441.58
620.82	1433.40
621.16	1425.80
621.51	1418.11
621.85	1410.51
622.20	1401.88
622.55	1393.21
622.89	1385.16
623.24	1377.58
623.59	1370.09
623.93	1362.46
624.28	1355.15
624.62	1347.55
624.97	1340.31
625.32	1333.44
625.66	1326.26
626.01	1319.06
626.35	1311.76
626.70	1303.96
627.04	1296.20
627.39	1288.15
627.73	1280.65
628.08	1273.62
628.43	1266.26
628.77	1258.91
629.12	1251.17
629.46	1243.92
629.81	1236.37
630.15	1228.97
630.50	1221.48
630.84	1213.42
631.19	1205.43
631.53	1197.76
631.88	1190.02
632.22	1182.35
632.57	1175.03
632.91	1167.41
633.26	1159.90
633.60	1152.18
633.95	1144.85
634.29	1137.73
634.64	1130.98
634.98	1123.54
635.32	1116.31
635.67	1109.65
636.01	1102.83
636.36	1096.00
636.70	1089.31
637.05	1082.76
637.39	1076.38
637.73	1069.85
638.08	1063.87
638.42	1057.79
638.77	1051.35
639.11	1044.66
639.45	1038.16
639.80	1031.43
640.14	1024.99
640.49	1018.49
640.83	1012.19
641.17	1005.96
641.52	999.56
641.86	993.11
642.20	987.19
642.55	980.74
642.89	974.24
643.23	967.63
643.58	961.85
643.92	955.65
644.26	949.64
644.61	943.36
644.95	937.26
645.29	930.71
645.64	923.92
645.98	917.46
646.32	911.56
646.66	905.49
647.01	899.69
647.35	893.98
647.69	887.89
648.04	882.35
648.38	876.60
648.72	870.60
649.06	864.58
649.41	858.67
649.75	852.78
650.09	846.73
650.43	841.01
650.78	834.78
651.12	828.75
651.46	822.99
651.80	817.41
652.14	811.92
652.49	806.49
652.83	801.21
653.17	795.58
653.51	789.92
653.85	784.41
654.20	778.78
654.54	772.77
654.88	766.96
655.22	761.03
655.56	755.23
655.90	749.69
656.25	744.30
656.59	738.90
656.93	733.79
657.27	728.68
657.61	723.17
657.95	718.03
658.29	712.99
658.64	707.59
658.98	702.16
659.32	696.71
659.66	691.50
660.00	686.23
660.34	681.23
660.68	676.31
661.02	671.30
661.36	666.51
661.70	661.98
662.05	657.66
662.39	653.31
662.73	648.86
663.07	644.45
663.41	640.05
663.75	635.56
664.09	630.91
664.43	626.46
664.77	622.33
665.11	618.14
665.45	613.93
665.79	609.90
666.13	605.80
666.47	601.66
666.81	597.45
667.15	593.26
667.49	589.29
667.83	585.36
668.17	581.42
668.51	577.37
668.85	573.28
669.19	569.39
669.53	565.58
669.87	561.69
670.21	558.01
670.55	554.29
670.89	550.82
671.23	547.43
671.57	543.88
671.91	540.31
672.25	536.68
672.58	533.18
672.92	529.73
673.26	526.48
673.60	523.32
673.94	520.22
674.28	517.31
674.62	514.34
674.96	511.23
675.30	508.27
675.64	505.31
675.97	502.48
676.31	499.57
676.65	496.59
676.99	493.83
677.33	490.93
677.67	488.14
678.01	485.11
678.34	482.12
678.68	479.23
679.02	476.36
679.36	473.55
679.70	470.81
680.04	468.00
680.37	465.18
680.71	462.31
681.05	459.61
681.39	456.86
681.73	454.20
682.06	451.65
682.40	449.10
682.74	446.50
683.08	443.94
683.42	441.32
683.75	438.81
684.09	436.25
684.43	433.75
684.77	431.28
685.10	428.92
685.44	426.52
685.78	424.24
686.12	421.99
686.45	419.71
686.79	417.36
687.13	415.16
687.46	412.93
687.80	410.77
688.14	408.52
688.48	406.43
688.81	404.20
689.15	402.02
689.49	399.83
689.82	397.74
690.16	395.57
690.50	393.60
690.83	391.62
691.17	389.61
691.51	387.70
691.84	385.78
692.18	383.82
692.52	381.85
692.85	379.86
693.19	377.96
693.52	376.09
693.86	374.26
694.20	372.43
694.53	370.65
694.87	368.79
695.21	367.00
695.54	365.11
695.88	363.29
696.21	361.57
696.55	359.86
696.88	358.14
697.22	356.45
697.56	354.79
697.89	353.13
698.23	351.50
698.56	349.84
698.90	348.22
699.23	346.54
699.57	344.96
699.90	343.42
700.24	341.83
700.58	340.30
700.91	338.77
701.25	337.32
701.58	335.89
701.92	334.51
702.25	333.11
702.59	331.77
702.92	330.46
703.26	329.10
703.59	327.78
703.93	326.59
704.26	325.40
704.60	324.07
704.93	322.77
705.26	321.51
705.60	320.29
705.93	319.09
706.27	318.01
706.60	316.98
706.94	315.88
707.27	314.73
707.61	313.68
707.94	312.65
708.27	311.51
708.61	310.41
708.94	309.39
709.28	308.41
709.61	307.42
709.94	306.45
710.28	305.45
710.61	304.49
710.95	303.40
711.28	302.41
711.61	301.46
711.95	300.56
712.28	299.59
712.61	298.60
712.95	297.68
713.28	296.79
713.61	295.86
713.95	294.91
714.28	294.07
714.61	293.15
714.95	292.31
715.28	291.40
715.61	290.53
715.95	289.60
716.28	288.72
716.61	287.87
716.95	287.01
717.28	286.21
717.61	285.42
717.94	284.62
718.28	283.80
718.61	283.05
718.94	282.31
719.27	281.67
719.61	281.02
719.94	280.33
720.27	279.58
720.60	278.85
720.94	278.21
721.27	277.56
721.60	276.96
721.93	276.35
722.27	275.81
722.60	275.22
722.93	274.69
723.26	274.11
723.59	273.51
723.93	272.93
724.26	272.39
724.59	271.80
724.92	271.28
725.25	270.78
725.59	270.25
725.92	269.71
726.25	269.18
726.58	268.64
726.91	268.14
727.24	267.67
727.57	267.21
727.91	266.73
728.24	266.27
728.57	265.76
728.90	265.26
729.23	264.75
729.56	264.30
729.89	263.79
730.22	263.34
730.55	262.84
730.89	262.41
731.22	261.95
731.55	261.54
731.88	261.10
732.21	260.70
732.54	260.23
732.87	259.83
733.20	259.42
733.53	259.01
733.86	258.63
734.19	258.26
734.52	257.87
734.85	257.53
735.18	257.07
735.51	256.71
735.84	256.35
736.17	256.05
736.50	255.64
736.83	255.43
737.16	255.11
737.49	254.80
737.82	254.46
738.15	254.13
738.48	253.78
738.81	253.47
739.14	253.15
739.47	252.87
739.80	252.54
740.13	252.24
740.46	251.96
740.79	251.66
741.12	251.35
741.45	251.05
741.78	250.70
742.11	250.46
742.44	250.14
742.77	249.88
743.10	249.54
743.43	249.28
743.75	248.88
744.08	248.73
744.41	248.47
744.74	248.20
745.07	247.93
745.40	247.67
745.73	247.45
746.06	247.17
746.39	246.89
746.71	246.64
747.04	246.34
747.37	246.09
747.70	245.85
748.03	245.58
748.36	245.37
748.68	245.14
749.01	244.90
749.34	244.71
749.67	244.44
750.00	244.27
750.33	244.07
750.65	243.84
750.98	243.49
751.31	243.29
751.64	243.08
751.97	242.92
752.29	242.73
752.62	242.46
752.95	242.23
753.28	242.00
753.60	241.80
753.93	241.63
754.26	241.39
754.59	241.15
754.91	240.95
755.24	240.71
755.57	240.52
755.90	240.33
756.22	240.13
756.55	239.89
756.88	239.66
757.20	239.42
757.53	239.23
757.86	239.06
758.19	238.88
758.51	238.68
758.84	238.44
759.17	238.21
759.49	238.05
759.82	237.93
760.15	237.79
760.47	237.63
760.80	237.42
761.13	237.29
761.45	237.12
761.78	236.95
762.11	236.79
762.43	236.61
762.76	236.45
763.08	236.29
763.41	236.20
763.74	236.08
764.06	235.94
764.39	235.77
764.71	235.60
765.04	235.46
765.37	235.33
765.69	235.22
766.02	235.12
766.34	234.98
766.67	234.80
767.00	234.69
767.32	234.62
767.65	234.54
767.97	234.41
768.30	234.28
768.62	234.18
768.95	234.08
769.27	233.97
769.60	233.86
769.92	233.73
770.25	233.61
770.57	233.48
770.90	233.38
771.22	233.30
771.55	233.17
771.87	233.07
772.20	232.97
772.52	232.94
772.85	232.94
773.17	232.85
773.50	232.79
773.82	232.67
774.15	232.55
774.47	232.44
774.80	232.36
775.12	232.26
775.45	232.17
775.77	232.07
776.09	232.02
776.42	231.96
776.74	231.91
777.07	231.84
777.39	231.76
777.72	231.68
778.04	231.60
778.36	231.55
778.69	231.46
779.01	231.38
779.33	231.23
779.66	231.07
779.98	231.00
780.31	230.94
780.63	230.92
780.95	230.86
781.28	230.80
781.60	230.73
781.92	230.70
782.25	230.63
782.57	230.62
782.89	230.53
783.22	230.43
783.54	230.37
783.86	230.29
784.19	230.21
784.51	230.19
784.83	230.16
785.16	230.13
785.48	230.09
785.80	230.03
786.12	230.01
786.45	229.93
786.77	229.89
787.09	229.82
787.42	229.77
787.74	229.71
788.06	229.65
788.38	229.60
788.71	229.56
789.03	229.53
789.35	229.50
789.67	229.47
789.99	229.49
790.32	229.42
790.64	229.38
790.96	229.45
791.28	229.39
791.61	229.32
791.93	229.29
792.25	229.24
792.57	229.26
792.89	229.19
793.21	229.18
793.54	229.12
793.86	229.06
794.18	229.01
794.50	228.97
794.82	228.93
795.14	228.90
795.47	228.89
795.79	228.84
796.11	228.76
796.43	228.70
796.75	228.65
797.07	228.64
797.39	228.62
797.71	228.54
798.04	228.51
798.36	228.47
798.68	228.44
799.00	228.42
799.32	228.34
799.64	228.33
799.96	228.29
800.28	228.27
800.60	228.23
800.92	228.20
801.24	228.14
801.56	228.13
801.89	228.08
802.21	228.02
802.53	227.98
802.85	227.98
803.17	227.99
803.49	227.94
803.81	227.89
804.13	227.84
804.45	227.77
804.77	227.72
805.09	227.71
805.41	227.69
805.73	227.63
806.05	227.57
806.37	227.52
806.69	227.47
807.01	227.45
807.33	227.47
807.65	227.40
807.97	227.45
808.28	227.39
808.60	227.37
808.92	227.30
809.24	227.33
809.56	227.26
809.88	227.24
810.20	227.23
810.52	227.25
810.84	227.21
811.16	227.18
811.48	227.15
811.80	227.14
812.12	227.08
812.43	227.06
812.75	227.05
813.07	227.02
813.39	227.05
813.71	227.02
814.03	226.95
814.35	226.93
814.67	226.84
814.98	226.81
815.30	226.77
815.62	226.80
815.94	226.70
816.26	226.71
816.58	226.60
816.89	226.60
817.21	226.54
817.53	226.54
817.85	226.52
818.17	226.49
818.48	226.46
818.80	226.47
819.12	226.47
819.44	226.44
819.76	226.42
820.07	226.37
820.39	226.33
820.71	226.34
821.03	226.32
821.34	226.29
821.66	226.30
821.98	226.31
822.30	226.28
822.61	226.32
822.93	226.29
823.25	226.31
823.57	226.26
823.88	226.26
824.20	226.23
824.52	226.27
824.83	226.22
825.15	226.19
825.47	226.15
825.79	226.15
826.10	226.15
826.42	226.13
826.74	226.13
827.05	226.14
827.37	226.12
827.69	226.11
828.00	226.12
828.32	226.14
828.64	226.11
828.95	226.13
829.27	226.14
829.58	226.12
829.90	226.13
830.22	226.12
830.53	226.12
830.85	226.12
831.17	226.06
831.48	226.09
831.80	226.08
832.11	226.08
832.43	226.04
832.75	226.00
833.06	226.03
833.38	225.97
833.69	225.93
834.01	225.97
834.32	225.94
834.64	225.93
834.96	225.90
835.27	225.85
835.59	225.83
835.90	225.80
836.22	225.82
836.53	225.83
836.85	225.82
837.16	225.88
837.48	225.86
837.79	225.86
838.11	225.86
838.42	225.87
838.74	225.89
839.05	225.87
839.37	225.88
839.68	225.81
840.00	225.80
840.31	225.82
840.63	225.77
840.94	225.82
841.26	225.80
841.57	225.79
841.88	225.83
842.20	225.79
842.51	225.74
842.83	225.74
843.14	225.80
843.46	225.81
843.77	225.74
844.08	225.71
844.40	225.72
844.71	225.65
845.03	225.62
845.34	225.58
845.65	225.61
845.97	225.60
846.28	225.63
846.60	225.65
846.91	225.64
847.22	225.66
847.54	225.61
847.85	225.61
848.16	225.61
848.48	225.59
848.79	225.65
849.10	225.70
849.42	225.67
849.73	225.59
850.04	225.58
850.36	225.58
850.67	225.62
850.98	225.61
851.30	225.69
851.61	225.69
851.92	225.68
852.23	225.66
852.55	225.67
852.86	225.66
853.17	225.65
853.49	225.66
853.80	225.64
854.11	225.69
854.42	225.69
854.74	225.69
855.05	225.70
855.36	225.64
855.67	225.62
855.99	225.63
856.30	225.72
856.61	225.72
856.92	225.70
857.23	225.71
857.55	225.70
857.86	225.69
858.17	225.71
858.48	225.72
858.79	225.71
859.11	225.74
859.42	225.74
859.73	225.73
860.04	225.69
860.35	225.66
860.66	225.60
860.98	225.60
861.29	225.63
861.60	225.61
861.91	225.61
862.22	225.61
862.53	225.60
862.84	225.50
863.16	225.54
863.47	225.49
863.78	225.46
864.09	225.48
864.40	225.46
864.71	225.42
865.02	225.43
865.33	225.42
865.64	225.40
865.95	225.38
866.27	225.45
866.58	225.44
866.89	225.46
867.20	225.50
867.51	225.48
867.82	225.44
868.13	225.47
868.44	225.46
868.75	225.44
869.06	225.44
869.37	225.43
869.68	225.40
869.99	225.42
870.30	225.41
870.61	225.39
870.92	225.39
871.23	225.41
871.54	225.42
871.85	225.45
872.16	225.45
872.47	225.46
872.78	225.39
873.09	225.41
873.40	225.43
873.71	225.42
874.02	225.41
874.33	225.39
874.64	225.35
874.95	225.38
875.26	225.35
875.56	225.34
875.87	225.35
876.18	225.31
876.49	225.40
876.80	225.41
877.11	225.38
877.42	225.40
877.73	225.40
878.04	225.38
878.35	225.38
878.66	225.36
878.96	225.38
879.27	225.38
879.58	225.39
879.89	225.36
880.20	225.39
880.51	225.39
880.82	225.41
881.12	225.45
881.43	225.39
881.74	225.39
882.05	225.37
882.36	225.34
882.67	225.35
882.97	225.27
883.28	225.27
883.59	225.31
883.90	225.27
884.21	225.25
884.51	225.27
884.82	225.23
885.13	225.21
885.44	225.17
885.74	225.17
886.05	225.14
886.36	225.14
886.67	225.08
886.98	225.14
887.28	225.15
887.59	225.15
887.90	225.16
888.20	225.17
888.51	225.21
888.82	225.21
889.13	225.22
889.43	225.26
889.74	225.23
890.05	225.20
890.35	225.22
890.66	225.20
890.97	225.16
891.28	225.17
891.58	225.22
891.89	225.24
892.20	225.22
892.50	225.23
892.81	225.23
893.12	225.25
893.42	225.20
893.73	225.17
894.04	225.15
894.34	225.19
894.65	225.16
894.95	225.14
895.26	225.17
895.57	225.19
895.87	225.15
896.18	225.14
896.48	225.18
896.79	225.13
897.10	225.13
897.40	225.13
897.71	225.15
898.01	225.12
898.32	225.14
898.63	225.14
898.93	225.15
899.24	225.14
899.54	225.12
899.85	225.12
900.15	225.10
900.46	225.07
900.76	225.06
901.07	225.08
901.38	225.05
901.68	225.05
901.99	225.04
902.29	225.04
902.60	225.05
902.90	225.02
903.21	225.08
903.51	225.06
903.82	225.07
904.12	225.07
904.43	225.08
904.73	225.08
905.03	225.08
905.34	225.16
905.64	225.16
905.95	225.13
906.25	225.12
906.56	225.14
906.86	225.16
907.17	225.14
907.47	225.15
907.77	225.18
908.08	225.14
908.38	225.11
908.69	225.11
908.99	225.15
909.30	225.19
909.60	225.13
909.90	225.16
910.21	225.14
910.51	225.12
910.81	225.09
911.12	225.08
911.42	225.07
911.73	224.97
912.03	224.96
912.33	225.00
912.64	225.00
912.94	224.97
913.24	224.95
913.55	224.94
913.85	224.91
914.15	224.91
914.46	224.91
914.76	224.90
915.06	224.87
915.37	224.83
915.67	224.78
915.97	224.79
916.27	224.76
916.58	224.79
916.88	224.78
917.18	224.79
917.49	224.85
917.79	224.89
918.09	224.91
918.39	224.95
918.70	224.93
919.00	224.91
919.30	224.95
919.60	224.94
919.91	224.94
920.21	224.94
920.51	224.94
920.81	224.93
921.12	224.95
921.42	224.97
921.72	224.96
922.02	224.98
922.32	224.97
922.63	224.98
922.93	225.03
923.23	225.03
923.53	225.02
923.83	224.91
924.13	224.93
924.44	224.95
924.74	224.97
925.04	225.02
925.34	225.04
925.64	225.00
925.94	225.00
926.24	225.07
926.55	225.07
926.85	225.06
927.15	225.08
927.45	225.11
927.75	225.11
928.05	225.13
928.35	225.10
928.65	225.10
928.95	225.08
929.26	225.02
929.56	225.06
929.86	225.04
930.16	225.07
930.46	225.04
930.76	225.04
931.06	224.97
931.36	224.91
931.66	224.92
931.96	224.94
932.26	224.96
932.56	224.88
932.86	224.89
933.16	224.91
933.46	224.90
933.76	224.83
934.06	224.84
934.36	224.87
934.66	224.88
934.96	224.95
935.26	224.98
935.56	224.99
935.86	224.94
936.16	224.94
936.46	224.91
936.76	224.90
937.06	224.85
937.36	224.87
937.66	224.87
937.96	224.89
938.26	224.87
938.56	224.85
938.86	224.89
939.16	224.88
939.46	224.88
939.76	224.86
940.06	224.86
940.35	224.84
940.65	224.77
940.95	224.77
941.25	224.71
941.55	224.66
941.85	224.63
942.15	224.66
942.45	224.70
942.75	224.73
943.04	224.73
943.34	224.75
943.64	224.73
943.94	224.73
944.24	224.70
944.54	224.72
944.84	224.71
945.13	224.67
945.43	224.66
945.73	224.67
946.03	224.66
946.33	224.64
946.62	224.63
946.92	224.63
947.22	224.62
947.52	224.60
947.82	224.65
948.11	224.65
948.41	224.66
948.71	224.62
949.01	224.62
949.31	224.59
949.60	224.61
949.90	224.64
950.20	224.63
950.50	224.63
950.79	224.62
951.09	224.63
951.39	224.66
951.69	224.66
951.98	224.65
952.28	224.69
952.58	224.68
952.87	224.67
953.17	224.70
953.47	224.69
953.76	224.73
954.06	224.70
954.36	224.69
954.66	224.68
954.95	224.69
955.25	224.71
955.55	224.74
955.84	224.71
956.14	224.71
956.44	224.74
956.73	224.72
957.03	224.72
957.32	224.71
957.62	224.73
957.92	224.75
958.21	224.74
958.51	224.87
958.81	224.91
959.10	224.93
959.40	224.97
959.69	224.98
959.99	225.03
960.29	225.02
960.58	225.06
960.88	225.08
961.17	225.07
961.47	225.07
961.76	225.09
962.06	225.14
962.36	225.13
962.65	225.12
962.95	225.15
963.24	225.15
963.54	225.19
963.83	225.19
964.13	225.16
964.42	225.13
964.72	225.04
965.01	225.02
965.31	225.01
965.60	224.96
965.90	225.04
966.19	224.97
966.49	224.98
966.78	224.97
967.08	224.98
967.37	225.01
967.67	225.01
967.96	225.00
968.26	224.97
968.55	224.98
968.85	224.97
969.14	224.97
969.43	224.97
969.73	224.96
970.02	224.96
970.32	224.99
970.61	224.99
970.91	224.94
971.20	224.96
971.49	224.96
971.79	224.98
972.08	224.94
972.38	224.97
972.67	224.97
972.96	224.97
973.26	224.97
973.55	225.01
973.85	224.99
974.14	224.97
974.43	224.98
974.73	224.97
975.02	224.97
975.31	224.94
975.61	224.94
975.90	224.93
976.19	224.92
976.49	224.92
976.78	224.94
977.07	224.94
977.37	224.95
977.66	224.96
977.95	224.96
978.24	224.93
978.54	224.94
978.83	224.92
979.12	224.89
979.42	224.85
979.71	224.79
980.00	224.79
980.29	224.81
980.59	224.77
980.88	224.76
981.17	224.76
981.46	224.79
981.76	224.78
982.05	224.79
982.34	224.76
982.63	224.78
982.93	224.79
983.22	224.81
983.51	224.78
983.80	224.79
984.09	224.76
984.39	224.80
984.68	224.80
984.97	224.83
985.26	224.81
985.55	224.81
985.85	224.80
986.14	224.79
986.43	224.79
986.72	224.80
987.01	224.78
987.30	224.77
987.59	224.76
987.89	224.77
988.18	224.72
988.47	224.71
988.76	224.67
989.05	224.67
989.34	224.65
989.63	224.70
989.92	224.67
990.22	224.66
990.51	224.63
990.80	224.62
991.09	224.63
991.38	224.70
991.67	224.70
991.96	224.70
992.25	224.67
992.54	224.66
992.83	224.67
993.12	224.67
993.41	224.71
993.70	224.76
993.99	224.76
994.28	224.81
994.58	224.83
994.87	224.80
995.16	224.81
995.45	224.84
995.74	224.80
996.03	224.80
996.32	224.83
996.61	224.84
996.90	224.81
997.19	224.77
997.48	224.75
997.77	224.75
998.06	224.76
998.34	224.76
998.63	224.77
998.92	224.75
999.21	224.76
999.50	224.71
999.79	224.66
1000.08	224.65
1000.37	224.63
1000.66	224.65
1000.95	224.70
1001.24	224.71
1001.53	224.72
1001.82	224.72
1002.11	224.72
1002.40	224.71
1002.68	224.75
1002.97	224.82
1003.26	224.83
1003.55	224.82
1003.84	224.81
1004.13	224.84
1004.42	224.87
1004.71	224.86
1004.99	224.87
1005.28	224.88
1005.57	224.90
1005.86	224.90
1006.15	224.90
1006.44	224.89
1006.72	224.89
1007.01	224.86
1007.30	224.83
1007.59	224.77
1007.88	224.79
1008.17	224.81
1008.45	224.80
1008.74	224.72
1009.03	224.67
1009.32	224.68
1009.60	224.64
1009.89	224.64
1010.18	224.61
1010.47	224.57
1010.76	224.56
1011.04	224.51
1011.33	224.50
1011.62	224.50
1011.91	224.50
1012.19	224.47
1012.48	224.48
1012.77	224.46
1013.05	224.50
1013.34	224.50
1013.63	224.54
1013.92	224.56
1014.20	224.53
1014.49	224.51
1014.78	224.56
1015.06	224.53
1015.35	224.53
1015.64	224.60
1015.92	224.61
1016.21	224.60
1016.50	224.63
1016.78	224.63
1017.07	224.65
1017.36	224.67
1017.64	224.66
1017.93	224.67
1018.22	224.67
1018.50	224.64
1018.79	224.65
1019.08	224.56
1019.36	224.58
1019.65	224.56
1019.93	224.54
1020.22	224.57
1020.51	224.63
1020.79	224.62
1021.08	224.21
1021.36	224.05
1021.65	224.52
1021.94	223.68
1022.22	225.19
1022.51	224.36
1022.79	224.79
1023.08	224.94
1023.36	225.63
1023.65	224.73
>>>>>End Processed Spectral Data<<<<<
