SpectraSuite Data File
++++++++++++++++++++++++++++++++++++
Date: Fri Feb 01 16:58:16 EST 2013
User: group
Dark Spectrum Present: No
Reference Spectrum Present: No
Number of Sampled Component Spectra: 1
Spectrometers: USB2E7196
Integration Time (usec): 35000 (USB2E7196)
Spectra Averaged: 100 (USB2E7196)
Boxcar Smoothing: 10 (USB2E7196)
Correct for Electrical Dark: No (USB2E7196)
Strobe/Lamp Enabled: No (USB2E7196)
Correct for Detector Non-linearity: No (USB2E7196)
Correct for Stray Light: No (USB2E7196)
Number of Pixels in Processed Spectrum: 2048
>>>>>Begin Processed Spectral Data<<<<<
339.09	0.00
339.48	213.55
339.86	214.54
340.24	215.71
340.63	218.09
341.01	220.42
341.39	220.13
341.78	221.18
342.16	222.69
342.54	222.73
342.93	211.65
343.31	222.34
343.69	222.88
344.07	223.33
344.46	223.77
344.84	224.13
345.22	224.34
345.60	224.59
345.99	224.80
346.37	224.94
346.75	225.07
347.13	225.12
347.52	225.20
347.90	225.26
348.28	225.28
348.66	225.33
349.05	225.29
349.43	225.33
349.81	225.37
350.19	225.42
350.57	225.46
350.96	225.51
351.34	225.60
351.72	225.68
352.10	225.79
352.48	225.89
352.87	225.94
353.25	226.02
353.63	226.09
354.01	226.15
354.39	226.20
354.77	226.27
355.15	226.39
355.54	226.47
355.92	226.50
356.30	226.58
356.68	226.70
357.06	226.77
357.44	226.85
357.82	226.91
358.20	226.96
358.58	227.00
358.97	227.07
359.35	227.17
359.73	227.24
360.11	227.32
360.49	227.36
360.87	227.41
361.25	227.48
361.63	227.54
362.01	227.58
362.39	227.62
362.77	227.65
363.15	227.67
363.53	227.67
363.91	227.75
364.29	227.76
364.67	227.69
365.05	227.73
365.43	227.73
365.81	227.75
366.19	227.81
366.57	227.88
366.95	227.88
367.33	227.82
367.71	227.84
368.09	227.82
368.47	227.80
368.85	227.79
369.23	227.78
369.61	227.76
369.99	227.76
370.37	227.75
370.75	227.83
371.13	227.80
371.51	227.78
371.89	227.72
372.27	227.69
372.65	227.67
373.03	227.61
373.41	227.57
373.78	227.50
374.16	227.42
374.54	227.34
374.92	227.25
375.30	227.19
375.68	227.10
376.06	227.06
376.44	227.01
376.82	226.95
377.19	226.88
377.57	226.81
377.95	226.72
378.33	226.65
378.71	226.51
379.09	226.45
379.47	226.37
379.84	226.30
380.22	226.21
380.60	226.15
380.98	226.09
381.36	226.02
381.73	225.93
382.11	225.86
382.49	225.78
382.87	225.71
383.25	225.68
383.62	225.71
384.00	225.63
384.38	225.59
384.76	225.54
385.13	225.51
385.51	225.46
385.89	225.39
386.27	225.36
386.64	225.33
387.02	225.25
387.40	225.22
387.78	225.17
388.15	225.15
388.53	225.11
388.91	225.10
389.29	225.07
389.66	225.04
390.04	225.04
390.42	225.05
390.79	225.05
391.17	225.03
391.55	224.92
391.92	224.87
392.30	224.83
392.68	224.83
393.05	224.83
393.43	224.81
393.81	224.84
394.18	224.81
394.56	224.81
394.94	224.87
395.31	224.86
395.69	224.91
396.06	224.94
396.44	224.96
396.82	224.96
397.19	225.03
397.57	225.07
397.95	225.09
398.32	225.05
398.70	225.10
399.07	225.17
399.45	225.22
399.82	225.28
400.20	225.34
400.58	225.40
400.95	225.38
401.33	225.46
401.70	225.56
402.08	225.63
402.45	225.70
402.83	225.77
403.20	225.89
403.58	225.97
403.95	226.09
404.33	226.20
404.71	226.30
405.08	226.47
405.46	226.59
405.83	226.73
406.21	226.92
406.58	227.06
406.96	227.23
407.33	227.39
407.70	227.61
408.08	227.89
408.45	228.08
408.83	228.36
409.20	228.53
409.58	228.71
409.95	228.98
410.33	229.23
410.70	229.47
411.08	229.72
411.45	230.02
411.82	230.31
412.20	230.66
412.57	231.09
412.95	231.39
413.32	231.82
413.69	232.22
414.07	232.62
414.44	233.13
414.82	233.57
415.19	234.12
415.56	234.63
415.94	235.14
416.31	235.78
416.68	236.40
417.06	237.15
417.43	237.85
417.81	238.59
418.18	239.38
418.55	240.23
418.93	241.15
419.30	242.06
419.67	242.98
420.04	243.93
420.42	244.93
420.79	246.10
421.16	247.25
421.54	248.41
421.91	249.65
422.28	250.88
422.66	252.21
423.03	253.50
423.40	254.87
423.77	256.29
424.15	257.75
424.52	259.24
424.89	260.85
425.26	262.42
425.64	263.90
426.01	265.50
426.38	267.15
426.75	268.81
427.13	270.53
427.50	272.35
427.87	274.27
428.24	276.17
428.61	277.89
428.99	279.82
429.36	281.97
429.73	283.99
430.10	286.00
430.47	288.07
430.85	290.19
431.22	292.38
431.59	294.74
431.96	296.93
432.33	299.37
432.70	301.73
433.08	304.52
433.45	307.14
433.82	309.71
434.19	312.58
434.56	315.34
434.93	318.01
435.30	320.58
435.68	323.41
436.05	326.19
436.42	328.95
436.79	331.44
437.16	334.09
437.53	336.89
437.90	339.69
438.27	342.39
438.64	345.16
439.01	347.75
439.38	349.95
439.75	352.11
440.13	354.57
440.50	356.93
440.87	358.71
441.24	360.62
441.61	362.75
441.98	364.23
442.35	366.00
442.72	367.82
443.09	369.67
443.46	370.67
443.83	371.23
444.20	371.74
444.57	372.53
444.94	372.81
445.31	373.20
445.68	373.53
446.05	373.61
446.42	373.27
446.79	372.82
447.16	372.40
447.53	372.09
447.90	370.95
448.27	369.73
448.64	368.18
449.01	367.08
449.37	365.15
449.74	363.27
450.11	361.08
450.48	358.62
450.85	356.09
451.22	353.95
451.59	351.96
451.96	350.06
452.33	347.53
452.70	345.21
453.07	342.41
453.43	339.55
453.80	336.83
454.17	334.15
454.54	331.64
454.91	328.93
455.28	326.25
455.65	323.81
456.02	321.40
456.38	319.29
456.75	316.63
457.12	314.36
457.49	312.16
457.86	310.00
458.23	308.17
458.59	306.15
458.96	304.09
459.33	302.24
459.70	300.34
460.07	298.83
460.43	297.13
460.80	295.52
461.17	294.11
461.54	292.55
461.91	291.16
462.27	289.78
462.64	288.57
463.01	287.24
463.38	285.95
463.74	284.59
464.11	283.44
464.48	282.46
464.85	281.38
465.21	280.51
465.58	279.58
465.95	278.51
466.32	277.63
466.68	276.73
467.05	275.84
467.42	275.02
467.78	274.09
468.15	273.21
468.52	272.56
468.88	271.67
469.25	270.95
469.62	270.36
469.98	269.68
470.35	269.03
470.72	268.49
471.08	267.84
471.45	267.32
471.82	266.78
472.18	266.18
472.55	265.76
472.92	265.27
473.28	264.84
473.65	264.40
474.02	263.95
474.38	263.57
474.75	263.29
475.11	262.95
475.48	262.72
475.85	262.55
476.21	262.32
476.58	262.21
476.94	262.08
477.31	261.92
477.67	261.76
478.04	261.71
478.41	261.63
478.77	261.69
479.14	261.66
479.50	261.63
479.87	261.70
480.23	261.81
480.60	261.91
480.96	261.97
481.33	262.25
481.69	262.49
482.06	262.71
482.42	262.91
482.79	263.18
483.15	263.50
483.52	263.88
483.88	264.23
484.25	264.60
484.61	265.06
484.98	265.49
485.34	266.10
485.71	266.67
486.07	267.27
486.44	267.85
486.80	268.52
487.17	269.32
487.53	270.14
487.90	270.99
488.26	271.92
488.62	272.94
488.99	273.86
489.35	274.87
489.72	276.01
490.08	277.25
490.44	278.48
490.81	279.86
491.17	281.19
491.54	282.67
491.90	284.20
492.26	285.80
492.63	287.56
492.99	289.30
493.36	291.17
493.72	293.22
494.08	295.29
494.45	297.53
494.81	299.85
495.17	302.30
495.54	304.86
495.90	307.52
496.26	310.29
496.63	313.24
496.99	316.33
497.35	319.57
497.72	322.93
498.08	326.44
498.44	330.06
498.80	333.97
499.17	337.97
499.53	342.13
499.89	346.47
500.26	350.98
500.62	355.64
500.98	360.65
501.34	365.72
501.71	371.05
502.07	376.46
502.43	382.04
502.79	387.80
503.16	393.82
503.52	400.02
503.88	406.38
504.24	412.94
504.60	419.75
504.97	426.84
505.33	434.09
505.69	441.72
506.05	449.42
506.41	457.17
506.78	465.30
507.14	473.65
507.50	482.26
507.86	491.14
508.22	500.19
508.59	509.25
508.95	518.67
509.31	528.34
509.67	538.35
510.03	548.56
510.39	559.04
510.75	569.74
511.12	580.56
511.48	591.78
511.84	603.15
512.20	614.61
512.56	626.31
512.92	638.34
513.28	650.58
513.64	662.91
514.00	675.57
514.37	688.36
514.73	701.27
515.09	714.21
515.45	727.29
515.81	740.76
516.17	754.59
516.53	768.51
516.89	782.49
517.25	796.49
517.61	810.69
517.97	824.88
518.33	839.09
518.69	853.67
519.05	868.34
519.41	883.18
519.77	898.35
520.13	913.53
520.49	928.65
520.85	943.75
521.21	959.16
521.57	975.02
521.93	990.50
522.29	1006.51
522.65	1022.50
523.01	1038.45
523.37	1054.20
523.73	1069.90
524.09	1085.80
524.45	1101.79
524.81	1118.14
525.17	1134.53
525.53	1151.12
525.89	1167.64
526.25	1184.07
526.61	1200.21
526.97	1216.73
527.33	1232.96
527.68	1249.30
528.04	1265.45
528.40	1281.67
528.76	1298.39
529.12	1314.71
529.48	1331.34
529.84	1346.97
530.20	1363.25
530.56	1379.85
530.91	1396.90
531.27	1413.54
531.63	1429.71
531.99	1446.06
532.35	1461.65
532.71	1477.33
533.07	1493.24
533.42	1508.88
533.78	1524.81
534.14	1540.78
534.50	1555.82
534.86	1571.33
535.21	1586.29
535.57	1601.91
535.93	1617.01
536.29	1631.60
536.65	1646.34
537.00	1660.66
537.36	1675.81
537.72	1689.92
538.08	1704.22
538.44	1717.68
538.79	1731.27
539.15	1744.59
539.51	1757.94
539.87	1772.08
540.22	1785.57
540.58	1799.00
540.94	1811.86
541.29	1824.25
541.65	1836.72
542.01	1849.64
542.37	1861.78
542.72	1873.90
543.08	1885.61
543.44	1897.97
543.79	1909.01
544.15	1919.89
544.51	1931.33
544.87	1942.16
545.22	1952.89
545.58	1962.80
545.94	1972.43
546.29	1982.11
546.65	1991.78
547.01	2001.06
547.36	2009.55
547.72	2017.85
548.07	2025.81
548.43	2034.08
548.79	2041.91
549.14	2049.33
549.50	2056.42
549.86	2063.90
550.21	2071.03
550.57	2077.91
550.92	2084.31
551.28	2091.20
551.64	2098.04
551.99	2104.53
552.35	2110.64
552.70	2116.71
553.06	2122.78
553.41	2129.18
553.77	2135.17
554.13	2141.19
554.48	2147.25
554.84	2152.86
555.19	2158.03
555.55	2163.12
555.90	2167.61
556.26	2172.79
556.61	2177.41
556.97	2181.83
557.32	2186.00
557.68	2190.25
558.03	2194.69
558.39	2198.44
558.74	2203.17
559.10	2207.25
559.45	2210.88
559.81	2215.13
560.16	2219.12
560.52	2222.29
560.87	2225.56
561.23	2228.27
561.58	2231.29
561.94	2233.80
562.29	2236.08
562.64	2239.04
563.00	2241.64
563.35	2245.15
563.71	2248.15
564.06	2251.47
564.42	2254.55
564.77	2257.24
565.12	2259.71
565.48	2261.70
565.83	2263.90
566.19	2265.45
566.54	2266.31
566.89	2267.65
567.25	2268.41
567.60	2269.80
567.96	2271.71
568.31	2272.77
568.66	2274.13
569.02	2274.88
569.37	2275.38
569.72	2276.46
570.08	2276.75
570.43	2276.86
570.78	2276.47
571.14	2275.21
571.49	2273.97
571.84	2273.83
572.20	2272.97
572.55	2271.97
572.90	2270.48
573.26	2269.20
573.61	2267.48
573.96	2266.10
574.31	2263.31
574.67	2260.56
575.02	2257.15
575.37	2253.97
575.72	2250.48
576.08	2247.11
576.43	2243.87
576.78	2240.53
577.13	2237.53
577.49	2234.68
577.84	2231.60
578.19	2228.06
578.54	2224.69
578.90	2220.89
579.25	2215.51
579.60	2210.81
579.95	2206.07
580.30	2201.32
580.66	2196.24
581.01	2191.57
581.36	2186.76
581.71	2182.86
582.06	2178.69
582.42	2174.45
582.77	2169.45
583.12	2165.12
583.47	2160.74
583.82	2156.05
584.17	2151.04
584.53	2145.76
584.88	2140.28
585.23	2134.77
585.58	2129.42
585.93	2124.16
586.28	2119.33
586.63	2114.39
586.98	2109.41
587.34	2104.92
587.69	2100.22
588.04	2095.27
588.39	2089.86
588.74	2083.59
589.09	2077.60
589.44	2070.93
589.79	2064.95
590.14	2059.53
590.49	2053.11
590.84	2046.80
591.19	2041.00
591.54	2034.72
591.89	2027.64
592.25	2020.96
592.60	2013.78
592.95	2006.49
593.30	1999.33
593.65	1991.99
594.00	1985.11
594.35	1978.00
594.70	1970.16
595.05	1963.21
595.40	1956.07
595.75	1948.67
596.10	1942.74
596.45	1936.08
596.80	1930.13
597.15	1923.70
597.50	1916.74
597.85	1910.29
598.19	1903.80
598.54	1896.87
598.89	1890.31
599.24	1884.44
599.59	1877.97
599.94	1871.82
600.29	1865.44
600.64	1858.86
600.99	1851.59
601.34	1844.91
601.69	1838.05
602.04	1831.32
602.39	1824.08
602.74	1817.32
603.08	1810.69
603.43	1803.98
603.78	1796.76
604.13	1789.62
604.48	1782.54
604.83	1775.71
605.18	1769.00
605.53	1761.18
605.87	1753.15
606.22	1745.84
606.57	1737.96
606.92	1730.58
607.27	1723.55
607.62	1716.89
607.96	1709.87
608.31	1703.47
608.66	1696.05
609.01	1688.60
609.36	1681.07
609.70	1673.09
610.05	1665.16
610.40	1657.47
610.75	1649.20
611.10	1641.71
611.44	1633.43
611.79	1625.45
612.14	1616.99
612.49	1607.74
612.83	1599.45
613.18	1591.40
613.53	1583.50
613.88	1575.04
614.22	1566.88
614.57	1558.38
614.92	1550.44
615.27	1542.99
615.61	1534.69
615.96	1526.62
616.31	1518.99
616.65	1511.65
617.00	1504.15
617.35	1496.46
617.70	1488.29
618.04	1479.92
618.39	1471.63
618.74	1464.05
619.08	1455.74
619.43	1448.04
619.78	1441.26
620.12	1434.10
620.47	1426.69
620.82	1418.53
621.16	1411.18
621.51	1403.69
621.85	1396.08
622.20	1387.54
622.55	1379.02
622.89	1371.25
623.24	1363.68
623.59	1356.30
623.93	1348.79
624.28	1341.64
624.62	1334.17
624.97	1326.91
625.32	1320.11
625.66	1313.18
626.01	1306.00
626.35	1298.63
626.70	1290.93
627.04	1283.21
627.39	1275.44
627.73	1268.15
628.08	1261.31
628.43	1254.14
628.77	1246.78
629.12	1239.34
629.46	1232.28
629.81	1224.90
630.15	1217.71
630.50	1210.26
630.84	1202.12
631.19	1194.31
631.53	1186.74
631.88	1179.30
632.22	1171.74
632.57	1164.37
632.91	1156.84
633.26	1149.41
633.60	1141.99
633.95	1134.87
634.29	1127.87
634.64	1121.29
634.98	1113.92
635.32	1106.72
635.67	1099.95
636.01	1093.24
636.36	1086.42
636.70	1079.84
637.05	1073.34
637.39	1066.82
637.73	1060.41
638.08	1054.53
638.42	1048.51
638.77	1042.16
639.11	1035.56
639.45	1029.19
639.80	1022.64
640.14	1016.31
640.49	1009.86
640.83	1003.64
641.17	997.47
641.52	991.14
641.86	984.62
642.20	978.72
642.55	972.39
642.89	966.14
643.23	959.67
643.58	953.91
643.92	947.76
644.26	941.80
644.61	935.69
644.95	929.68
645.29	923.21
645.64	916.52
645.98	910.08
646.32	904.20
646.66	898.25
647.01	892.42
647.35	886.64
647.69	880.74
648.04	875.14
648.38	869.38
648.72	863.44
649.06	857.45
649.41	851.56
649.75	845.69
650.09	839.65
650.43	833.92
650.78	827.75
651.12	821.76
651.46	815.95
651.80	810.28
652.14	804.87
652.49	799.47
652.83	794.26
653.17	788.73
653.51	783.06
653.85	777.59
654.20	771.98
654.54	766.06
654.88	760.32
655.22	754.46
655.56	748.69
655.90	743.19
656.25	737.96
656.59	732.59
656.93	727.47
657.27	722.31
657.61	716.83
657.95	711.77
658.29	706.74
658.64	701.55
658.98	696.27
659.32	690.85
659.66	685.69
660.00	680.40
660.34	675.47
660.68	670.61
661.02	665.58
661.36	660.93
661.70	656.54
662.05	652.28
662.39	648.06
662.73	643.74
663.07	639.44
663.41	635.02
663.75	630.65
664.09	626.08
664.43	621.66
664.77	617.59
665.11	613.41
665.45	609.34
665.79	605.24
666.13	601.19
666.47	597.11
666.81	592.92
667.15	588.86
667.49	584.99
667.83	581.08
668.17	577.22
668.51	573.14
668.85	569.02
669.19	565.11
669.53	561.24
669.87	557.33
670.21	553.66
670.55	550.03
670.89	546.58
671.23	543.21
671.57	539.79
671.91	536.24
672.25	532.69
672.58	529.13
672.92	525.75
673.26	522.54
673.60	519.36
673.94	516.29
674.28	513.34
674.62	510.36
674.96	507.33
675.30	504.48
675.64	501.57
675.97	498.77
676.31	495.94
676.65	493.03
676.99	490.39
677.33	487.56
677.67	484.75
678.01	481.71
678.34	478.80
678.68	475.93
679.02	473.17
679.36	470.42
679.70	467.69
680.04	464.98
680.37	462.12
680.71	459.40
681.05	456.81
681.39	454.15
681.73	451.48
682.06	448.99
682.40	446.44
682.74	443.89
683.08	441.34
683.42	438.73
683.75	436.21
684.09	433.61
684.43	431.11
684.77	428.61
685.10	426.24
685.44	423.87
685.78	421.57
686.12	419.25
686.45	416.93
686.79	414.65
687.13	412.40
687.46	410.25
687.80	408.09
688.14	405.84
688.48	403.77
688.81	401.55
689.15	399.31
689.49	397.10
689.82	395.00
690.16	392.96
690.50	391.01
690.83	389.13
691.17	387.09
691.51	385.21
691.84	383.37
692.18	381.45
692.52	379.44
692.85	377.46
693.19	375.62
693.52	373.78
693.86	371.97
694.20	370.16
694.53	368.35
694.87	366.45
695.21	364.62
695.54	362.78
695.88	361.04
696.21	359.36
696.55	357.69
696.88	355.99
697.22	354.26
697.56	352.66
697.89	350.97
698.23	349.42
698.56	347.80
698.90	346.24
699.23	344.61
699.57	343.08
699.90	341.58
700.24	340.03
700.58	338.53
700.91	337.01
701.25	335.57
701.58	334.26
701.92	332.91
702.25	331.56
702.59	330.19
702.92	328.87
703.26	327.55
703.59	326.29
703.93	325.14
704.26	323.97
704.60	322.64
704.93	321.37
705.26	320.12
705.60	318.94
705.93	317.75
706.27	316.75
706.60	315.69
706.94	314.60
707.27	313.42
707.61	312.36
707.94	311.36
708.27	310.28
708.61	309.15
708.94	308.15
709.28	307.18
709.61	306.22
709.94	305.23
710.28	304.26
710.61	303.25
710.95	302.18
711.28	301.27
711.61	300.33
711.95	299.42
712.28	298.48
712.61	297.48
712.95	296.55
713.28	295.65
713.61	294.76
713.95	293.88
714.28	293.12
714.61	292.26
714.95	291.40
715.28	290.54
715.61	289.68
715.95	288.86
716.28	287.99
716.61	287.13
716.95	286.37
717.28	285.58
717.61	284.84
717.94	284.12
718.28	283.30
718.61	282.56
718.94	281.85
719.27	281.19
719.61	280.59
719.94	279.95
720.27	279.21
720.60	278.56
720.94	277.96
721.27	277.36
721.60	276.77
721.93	276.17
722.27	275.65
722.60	275.07
722.93	274.48
723.26	273.93
723.59	273.40
723.93	272.82
724.26	272.27
724.59	271.70
724.92	271.15
725.25	270.66
725.59	270.15
725.92	269.65
726.25	269.14
726.58	268.65
726.91	268.08
727.24	267.62
727.57	267.17
727.91	266.60
728.24	266.10
728.57	265.58
728.90	265.12
729.23	264.60
729.56	264.17
729.89	263.68
730.22	263.22
730.55	262.74
730.89	262.32
731.22	261.89
731.55	261.44
731.88	261.00
732.21	260.56
732.54	260.15
732.87	259.72
733.20	259.32
733.53	258.92
733.86	258.61
734.19	258.21
734.52	257.80
734.85	257.52
735.18	257.09
735.51	256.77
735.84	256.39
736.17	256.04
736.50	255.65
736.83	255.45
737.16	255.10
737.49	254.76
737.82	254.37
738.15	254.04
738.48	253.73
738.81	253.42
739.14	253.07
739.47	252.75
739.80	252.41
740.13	252.09
740.46	251.74
740.79	251.39
741.12	251.10
741.45	250.77
741.78	250.39
742.11	250.11
742.44	249.80
742.77	249.52
743.10	249.25
743.43	248.94
743.75	248.53
744.08	248.37
744.41	248.12
744.74	247.89
745.07	247.60
745.40	247.38
745.73	247.17
746.06	246.91
746.39	246.65
746.71	246.39
747.04	246.13
747.37	245.89
747.70	245.65
748.03	245.40
748.36	245.22
748.68	245.00
749.01	244.79
749.34	244.55
749.67	244.35
750.00	244.10
750.33	243.97
750.65	243.77
750.98	243.41
751.31	243.23
751.64	243.01
751.97	242.88
752.29	242.60
752.62	242.31
752.95	242.08
753.28	241.91
753.60	241.74
753.93	241.53
754.26	241.35
754.59	241.10
754.91	240.88
755.24	240.66
755.57	240.45
755.90	240.28
756.22	240.12
756.55	239.87
756.88	239.70
757.20	239.47
757.53	239.27
757.86	239.14
758.19	238.96
758.51	238.79
758.84	238.53
759.17	238.39
759.49	238.27
759.82	238.19
760.15	238.04
760.47	237.88
760.80	237.72
761.13	237.57
761.45	237.47
761.78	237.35
762.11	237.22
762.43	237.08
762.76	236.91
763.08	236.78
763.41	236.67
763.74	236.52
764.06	236.36
764.39	236.22
764.71	236.07
765.04	235.92
765.37	235.77
765.69	235.68
766.02	235.55
766.34	235.36
766.67	235.20
767.00	235.07
767.32	235.00
767.65	234.95
767.97	234.88
768.30	234.73
768.62	234.61
768.95	234.47
769.27	234.38
769.60	234.32
769.92	234.18
770.25	234.06
770.57	233.97
770.90	233.87
771.22	233.78
771.55	233.71
771.87	233.66
772.20	233.59
772.52	233.58
772.85	233.59
773.17	233.53
773.50	233.40
773.82	233.28
774.15	233.13
774.47	232.98
774.80	232.85
775.12	232.76
775.45	232.68
775.77	232.62
776.09	232.50
776.42	232.39
776.74	232.32
777.07	232.23
777.39	232.16
777.72	232.08
778.04	232.00
778.36	231.91
778.69	231.79
779.01	231.72
779.33	231.56
779.66	231.39
779.98	231.34
780.31	231.28
780.63	231.27
780.95	231.25
781.28	231.19
781.60	231.12
781.92	231.09
782.25	231.03
782.57	230.97
782.89	230.95
783.22	230.85
783.54	230.78
783.86	230.73
784.19	230.65
784.51	230.61
784.83	230.55
785.16	230.51
785.48	230.47
785.80	230.41
786.12	230.37
786.45	230.33
786.77	230.27
787.09	230.22
787.42	230.14
787.74	230.09
788.06	230.04
788.38	229.99
788.71	229.93
789.03	229.88
789.35	229.84
789.67	229.78
789.99	229.75
790.32	229.71
790.64	229.70
790.96	229.75
791.28	229.67
791.61	229.61
791.93	229.54
792.25	229.48
792.57	229.48
792.89	229.38
793.21	229.36
793.54	229.32
793.86	229.28
794.18	229.21
794.50	229.13
794.82	229.12
795.14	229.08
795.47	229.07
795.79	229.06
796.11	229.02
796.43	228.96
796.75	228.93
797.07	228.90
797.39	228.83
797.71	228.71
798.04	228.67
798.36	228.66
798.68	228.65
799.00	228.64
799.32	228.59
799.64	228.61
799.96	228.53
800.28	228.54
800.60	228.51
800.92	228.51
801.24	228.49
801.56	228.44
801.89	228.43
802.21	228.38
802.53	228.30
802.85	228.29
803.17	228.32
803.49	228.27
803.81	228.23
804.13	228.21
804.45	228.18
804.77	228.16
805.09	228.15
805.41	228.10
805.73	228.06
806.05	227.98
806.37	227.97
806.69	227.93
807.01	227.84
807.33	227.79
807.65	227.72
807.97	227.72
808.28	227.71
808.60	227.65
808.92	227.61
809.24	227.66
809.56	227.60
809.88	227.55
810.20	227.53
810.52	227.53
810.84	227.47
811.16	227.42
811.48	227.43
811.80	227.42
812.12	227.36
812.43	227.31
812.75	227.31
813.07	227.20
813.39	227.22
813.71	227.20
814.03	227.17
814.35	227.14
814.67	227.08
814.98	227.03
815.30	226.99
815.62	226.89
815.94	226.78
816.26	226.82
816.58	226.76
816.89	226.73
817.21	226.71
817.53	226.71
817.85	226.69
818.17	226.67
818.48	226.63
818.80	226.66
819.12	226.67
819.44	226.61
819.76	226.63
820.07	226.61
820.39	226.61
820.71	226.62
821.03	226.63
821.34	226.61
821.66	226.61
821.98	226.60
822.30	226.67
822.61	226.73
822.93	226.64
823.25	226.65
823.57	226.64
823.88	226.63
824.20	226.61
824.52	226.64
824.83	226.60
825.15	226.58
825.47	226.53
825.79	226.48
826.10	226.44
826.42	226.43
826.74	226.43
827.05	226.39
827.37	226.38
827.69	226.36
828.00	226.36
828.32	226.35
828.64	226.39
828.95	226.41
829.27	226.40
829.58	226.41
829.90	226.42
830.22	226.40
830.53	226.36
830.85	226.34
831.17	226.30
831.48	226.28
831.80	226.29
832.11	226.33
832.43	226.33
832.75	226.40
833.06	226.46
833.38	226.45
833.69	226.47
834.01	226.45
834.32	226.44
834.64	226.43
834.96	226.43
835.27	226.40
835.59	226.36
835.90	226.33
836.22	226.32
836.53	226.30
836.85	226.31
837.16	226.40
837.48	226.44
837.79	226.47
838.11	226.46
838.42	226.43
838.74	226.41
839.05	226.38
839.37	226.34
839.68	226.29
840.00	226.27
840.31	226.26
840.63	226.25
840.94	226.28
841.26	226.24
841.57	226.21
841.88	226.22
842.20	226.18
842.51	226.14
842.83	226.16
843.14	226.25
843.46	226.25
843.77	226.19
844.08	226.16
844.40	226.10
844.71	226.10
845.03	226.07
845.34	226.05
845.65	226.09
845.97	226.10
846.28	226.08
846.60	226.08
846.91	226.05
847.22	226.04
847.54	226.01
847.85	226.07
848.16	226.06
848.48	226.02
848.79	226.06
849.10	226.10
849.42	226.04
849.73	225.90
850.04	225.89
850.36	225.86
850.67	225.84
850.98	225.86
851.30	225.89
851.61	225.89
851.92	225.88
852.23	225.87
852.55	225.85
852.86	225.85
853.17	225.83
853.49	225.86
853.80	225.89
854.11	225.89
854.42	225.87
854.74	225.84
855.05	225.83
855.36	225.79
855.67	225.78
855.99	225.79
856.30	225.92
856.61	225.87
856.92	225.87
857.23	225.87
857.55	225.83
857.86	225.81
858.17	225.82
858.48	225.81
858.79	225.79
859.11	225.82
859.42	225.80
859.73	225.79
860.04	225.77
860.35	225.74
860.66	225.70
860.98	225.70
861.29	225.74
861.60	225.77
861.91	225.80
862.22	225.79
862.53	225.78
862.84	225.67
863.16	225.73
863.47	225.69
863.78	225.68
864.09	225.71
864.40	225.71
864.71	225.75
865.02	225.78
865.33	225.81
865.64	225.79
865.95	225.80
866.27	225.87
866.58	225.87
866.89	225.88
867.20	225.87
867.51	225.85
867.82	225.84
868.13	225.86
868.44	225.80
868.75	225.82
869.06	225.83
869.37	225.83
869.68	225.80
869.99	225.85
870.30	225.88
870.61	225.89
870.92	225.89
871.23	225.85
871.54	225.87
871.85	225.88
872.16	225.91
872.47	225.92
872.78	225.86
873.09	225.89
873.40	225.91
873.71	225.95
874.02	225.99
874.33	226.01
874.64	225.99
874.95	226.03
875.26	225.99
875.56	226.00
875.87	226.01
876.18	226.02
876.49	226.13
876.80	226.13
877.11	226.11
877.42	226.10
877.73	226.10
878.04	226.05
878.35	226.04
878.66	226.02
878.96	226.02
879.27	226.01
879.58	226.01
879.89	225.99
880.20	225.99
880.51	225.96
880.82	225.93
881.12	225.92
881.43	225.91
881.74	225.92
882.05	225.92
882.36	225.93
882.67	225.90
882.97	225.75
883.28	225.71
883.59	225.73
883.90	225.71
884.21	225.72
884.51	225.72
884.82	225.68
885.13	225.67
885.44	225.63
885.74	225.61
886.05	225.60
886.36	225.58
886.67	225.56
886.98	225.60
887.28	225.60
887.59	225.62
887.90	225.58
888.20	225.53
888.51	225.52
888.82	225.45
889.13	225.45
889.43	225.53
889.74	225.51
890.05	225.46
890.35	225.49
890.66	225.48
890.97	225.45
891.28	225.45
891.58	225.41
891.89	225.42
892.20	225.42
892.50	225.35
892.81	225.35
893.12	225.33
893.42	225.28
893.73	225.24
894.04	225.21
894.34	225.21
894.65	225.21
894.95	225.17
895.26	225.22
895.57	225.25
895.87	225.11
896.18	225.12
896.48	225.09
896.79	225.03
897.10	225.02
897.40	225.04
897.71	225.02
898.01	225.03
898.32	225.03
898.63	224.99
898.93	225.04
899.24	225.02
899.54	225.00
899.85	224.98
900.15	225.00
900.46	224.99
900.76	225.00
901.07	225.01
901.38	225.04
901.68	225.04
901.99	225.03
902.29	225.06
902.60	225.07
902.90	225.10
903.21	225.14
903.51	225.14
903.82	225.17
904.12	225.19
904.43	225.19
904.73	225.22
905.03	225.24
905.34	225.32
905.64	225.32
905.95	225.30
906.25	225.31
906.56	225.32
906.86	225.33
907.17	225.34
907.47	225.34
907.77	225.33
908.08	225.31
908.38	225.31
908.69	225.34
908.99	225.36
909.30	225.38
909.60	225.38
909.90	225.40
910.21	225.41
910.51	225.39
910.81	225.37
911.12	225.36
911.42	225.37
911.73	225.28
912.03	225.29
912.33	225.36
912.64	225.37
912.94	225.37
913.24	225.36
913.55	225.37
913.85	225.37
914.15	225.37
914.46	225.39
914.76	225.38
915.06	225.39
915.37	225.35
915.67	225.35
915.97	225.34
916.27	225.32
916.58	225.30
916.88	225.31
917.18	225.31
917.49	225.39
917.79	225.42
918.09	225.44
918.39	225.46
918.70	225.46
919.00	225.45
919.30	225.45
919.60	225.43
919.91	225.43
920.21	225.45
920.51	225.45
920.81	225.44
921.12	225.44
921.42	225.42
921.72	225.40
922.02	225.40
922.32	225.40
922.63	225.40
922.93	225.43
923.23	225.47
923.53	225.49
923.83	225.41
924.13	225.41
924.44	225.40
924.74	225.42
925.04	225.42
925.34	225.43
925.64	225.41
925.94	225.39
926.24	225.41
926.55	225.40
926.85	225.42
927.15	225.41
927.45	225.41
927.75	225.43
928.05	225.45
928.35	225.45
928.65	225.45
928.95	225.45
929.26	225.41
929.56	225.39
929.86	225.40
930.16	225.36
930.46	225.33
930.76	225.32
931.06	225.27
931.36	225.23
931.66	225.22
931.96	225.24
932.26	225.25
932.56	225.22
932.86	225.24
933.16	225.23
933.46	225.21
933.76	225.23
934.06	225.23
934.36	225.24
934.66	225.23
934.96	225.22
935.26	225.23
935.56	225.26
935.86	225.24
936.16	225.22
936.46	225.26
936.76	225.26
937.06	225.23
937.36	225.21
937.66	225.21
937.96	225.19
938.26	225.20
938.56	225.20
938.86	225.18
939.16	225.19
939.46	225.18
939.76	225.19
940.06	225.20
940.35	225.17
940.65	225.12
940.95	225.13
941.25	225.10
941.55	225.08
941.85	225.05
942.15	225.06
942.45	225.09
942.75	225.04
943.04	225.06
943.34	225.10
943.64	225.13
943.94	225.13
944.24	225.17
944.54	225.18
944.84	225.18
945.13	225.22
945.43	225.18
945.73	225.17
946.03	225.17
946.33	225.09
946.62	225.11
946.92	225.12
947.22	225.14
947.52	225.14
947.82	225.16
948.11	225.17
948.41	225.14
948.71	225.09
949.01	225.11
949.31	225.10
949.60	225.06
949.90	225.06
950.20	225.07
950.50	225.06
950.79	225.04
951.09	225.03
951.39	225.01
951.69	224.98
951.98	225.00
952.28	225.01
952.58	225.07
952.87	225.05
953.17	225.08
953.47	225.06
953.76	225.04
954.06	225.03
954.36	224.99
954.66	225.01
954.95	225.06
955.25	225.07
955.55	225.06
955.84	225.07
956.14	225.12
956.44	225.13
956.73	225.12
957.03	225.15
957.32	225.19
957.62	225.20
957.92	225.25
958.21	225.23
958.51	225.33
958.81	225.35
959.10	225.38
959.40	225.42
959.69	225.42
959.99	225.48
960.29	225.49
960.58	225.50
960.88	225.52
961.17	225.49
961.47	225.51
961.76	225.53
962.06	225.54
962.36	225.51
962.65	225.50
962.95	225.50
963.24	225.46
963.54	225.44
963.83	225.45
964.13	225.47
964.42	225.47
964.72	225.37
965.01	225.35
965.31	225.32
965.60	225.28
965.90	225.36
966.19	225.32
966.49	225.35
966.78	225.35
967.08	225.33
967.37	225.36
967.67	225.32
967.96	225.34
968.26	225.33
968.55	225.35
968.85	225.34
969.14	225.35
969.43	225.35
969.73	225.36
970.02	225.35
970.32	225.32
970.61	225.31
970.91	225.33
971.20	225.31
971.49	225.32
971.79	225.31
972.08	225.24
972.38	225.25
972.67	225.25
972.96	225.29
973.26	225.27
973.55	225.29
973.85	225.31
974.14	225.28
974.43	225.29
974.73	225.28
975.02	225.25
975.31	225.26
975.61	225.23
975.90	225.21
976.19	225.18
976.49	225.17
976.78	225.16
977.07	225.14
977.37	225.15
977.66	225.13
977.95	225.13
978.24	225.11
978.54	225.13
978.83	225.10
979.12	225.10
979.42	225.08
979.71	225.06
980.00	225.04
980.29	225.08
980.59	225.06
980.88	225.05
981.17	225.09
981.46	225.04
981.76	225.07
982.05	225.11
982.34	225.16
982.63	225.18
982.93	225.17
983.22	225.20
983.51	225.19
983.80	225.19
984.09	225.17
984.39	225.17
984.68	225.15
984.97	225.13
985.26	225.09
985.55	225.11
985.85	225.09
986.14	225.11
986.43	225.09
986.72	225.09
987.01	225.09
987.30	225.07
987.59	225.07
987.89	225.06
988.18	225.02
988.47	224.97
988.76	224.96
989.05	224.98
989.34	224.93
989.63	224.95
989.92	224.93
990.22	224.93
990.51	224.94
990.80	224.94
991.09	225.02
991.38	225.04
991.67	225.03
991.96	225.03
992.25	225.04
992.54	225.02
992.83	225.01
993.12	224.99
993.41	225.00
993.70	225.06
993.99	225.09
994.28	225.10
994.58	225.13
994.87	225.11
995.16	225.08
995.45	225.07
995.74	225.07
996.03	225.11
996.32	225.14
996.61	225.15
996.90	225.16
997.19	225.08
997.48	225.09
997.77	225.07
998.06	225.08
998.34	225.03
998.63	225.03
998.92	225.06
999.21	225.07
999.50	225.08
999.79	225.03
1000.08	224.99
1000.37	224.99
1000.66	224.97
1000.95	225.00
1001.24	225.04
1001.53	225.07
1001.82	225.04
1002.11	225.04
1002.40	225.06
1002.68	225.09
1002.97	225.14
1003.26	225.14
1003.55	225.14
1003.84	225.16
1004.13	225.17
1004.42	225.22
1004.71	225.21
1004.99	225.20
1005.28	225.22
1005.57	225.21
1005.86	225.20
1006.15	225.20
1006.44	225.15
1006.72	225.17
1007.01	225.17
1007.30	225.16
1007.59	225.14
1007.88	225.11
1008.17	225.10
1008.45	225.08
1008.74	225.02
1009.03	224.96
1009.32	224.97
1009.60	224.97
1009.89	224.95
1010.18	224.91
1010.47	224.91
1010.76	224.92
1011.04	224.94
1011.33	224.93
1011.62	224.92
1011.91	224.94
1012.19	224.97
1012.48	224.99
1012.77	224.99
1013.05	225.00
1013.34	225.00
1013.63	224.98
1013.92	225.04
1014.20	225.03
1014.49	224.98
1014.78	225.01
1015.06	224.99
1015.35	225.00
1015.64	224.99
1015.92	224.98
1016.21	224.99
1016.50	224.97
1016.78	224.95
1017.07	224.90
1017.36	224.89
1017.64	224.85
1017.93	224.86
1018.22	224.83
1018.50	224.82
1018.79	224.79
1019.08	224.76
1019.36	224.76
1019.65	224.79
1019.93	224.82
1020.22	224.83
1020.51	224.91
1020.79	224.88
1021.08	224.70
1021.36	224.49
1021.65	224.45
1021.94	225.11
1022.22	225.00
1022.51	224.95
1022.79	225.83
1023.08	225.12
1023.36	225.70
1023.65	224.71
>>>>>End Processed Spectral Data<<<<<
