SpectraSuite Data File
++++++++++++++++++++++++++++++++++++
Date: Fri Feb 01 16:51:25 EST 2013
User: group
Dark Spectrum Present: No
Reference Spectrum Present: No
Number of Sampled Component Spectra: 1
Spectrometers: USB2E7196
Integration Time (usec): 35000 (USB2E7196)
Spectra Averaged: 100 (USB2E7196)
Boxcar Smoothing: 10 (USB2E7196)
Correct for Electrical Dark: No (USB2E7196)
Strobe/Lamp Enabled: No (USB2E7196)
Correct for Detector Non-linearity: No (USB2E7196)
Correct for Stray Light: No (USB2E7196)
Number of Pixels in Processed Spectrum: 2048
>>>>>Begin Processed Spectral Data<<<<<
339.09	0.00
339.48	213.36
339.86	214.76
340.24	215.75
340.63	217.91
341.01	219.96
341.39	220.15
341.78	221.60
342.16	222.43
342.54	223.03
342.93	211.69
343.31	222.39
343.69	222.91
344.07	223.38
344.46	223.81
344.84	224.18
345.22	224.44
345.60	224.68
345.99	224.88
346.37	225.02
346.75	225.11
347.13	225.18
347.52	225.23
347.90	225.31
348.28	225.33
348.66	225.36
349.05	225.34
349.43	225.39
349.81	225.43
350.19	225.44
350.57	225.51
350.96	225.58
351.34	225.66
351.72	225.76
352.10	225.82
352.48	225.91
352.87	225.96
353.25	226.02
353.63	226.10
354.01	226.15
354.39	226.25
354.77	226.35
355.15	226.44
355.54	226.52
355.92	226.54
356.30	226.64
356.68	226.78
357.06	226.84
357.44	226.88
357.82	226.94
358.20	227.02
358.58	227.05
358.97	227.13
359.35	227.25
359.73	227.32
360.11	227.39
360.49	227.45
360.87	227.51
361.25	227.56
361.63	227.63
362.01	227.65
362.39	227.65
362.77	227.68
363.15	227.69
363.53	227.71
363.91	227.72
364.29	227.74
364.67	227.64
365.05	227.67
365.43	227.68
365.81	227.72
366.19	227.74
366.57	227.80
366.95	227.79
367.33	227.75
367.71	227.74
368.09	227.74
368.47	227.71
368.85	227.68
369.23	227.67
369.61	227.59
369.99	227.62
370.37	227.63
370.75	227.64
371.13	227.62
371.51	227.59
371.89	227.59
372.27	227.54
372.65	227.51
373.03	227.45
373.41	227.44
373.78	227.38
374.16	227.32
374.54	227.23
374.92	227.16
375.30	227.10
375.68	227.00
376.06	226.94
376.44	226.85
376.82	226.77
377.19	226.70
377.57	226.62
377.95	226.52
378.33	226.43
378.71	226.30
379.09	226.22
379.47	226.16
379.84	226.08
380.22	226.01
380.60	225.93
380.98	225.85
381.36	225.77
381.73	225.69
382.11	225.65
382.49	225.59
382.87	225.55
383.25	225.47
383.62	225.55
384.00	225.48
384.38	225.44
384.76	225.42
385.13	225.43
385.51	225.42
385.89	225.32
386.27	225.29
386.64	225.27
387.02	225.22
387.40	225.16
387.78	225.12
388.15	225.08
388.53	225.07
388.91	225.06
389.29	225.02
389.66	225.00
390.04	224.94
390.42	224.92
390.79	224.88
391.17	224.89
391.55	224.74
391.92	224.71
392.30	224.71
392.68	224.65
393.05	224.63
393.43	224.64
393.81	224.67
394.18	224.65
394.56	224.65
394.94	224.69
395.31	224.67
395.69	224.70
396.06	224.74
396.44	224.75
396.82	224.75
397.19	224.82
397.57	224.89
397.95	224.95
398.32	225.00
398.70	225.08
399.07	225.14
399.45	225.21
399.82	225.29
400.20	225.34
400.58	225.42
400.95	225.45
401.33	225.51
401.70	225.68
402.08	225.82
402.45	225.90
402.83	226.00
403.20	226.12
403.58	226.23
403.95	226.31
404.33	226.44
404.71	226.54
405.08	226.71
405.46	226.79
405.83	226.93
406.21	227.03
406.58	227.17
406.96	227.32
407.33	227.49
407.70	227.69
408.08	227.96
408.45	228.19
408.83	228.44
409.20	228.63
409.58	228.80
409.95	229.03
410.33	229.33
410.70	229.56
411.08	229.84
411.45	230.10
411.82	230.42
412.20	230.78
412.57	231.21
412.95	231.47
413.32	231.87
413.69	232.28
414.07	232.74
414.44	233.21
414.82	233.67
415.19	234.21
415.56	234.73
415.94	235.24
416.31	235.85
416.68	236.47
417.06	237.18
417.43	237.85
417.81	238.62
418.18	239.34
418.55	240.18
418.93	241.05
419.30	241.98
419.67	242.90
420.04	243.81
420.42	244.79
420.79	245.97
421.16	247.12
421.54	248.30
421.91	249.49
422.28	250.73
422.66	252.06
423.03	253.36
423.40	254.70
423.77	256.12
424.15	257.55
424.52	259.03
424.89	260.62
425.26	262.18
425.64	263.62
426.01	265.20
426.38	266.85
426.75	268.48
427.13	270.18
427.50	272.00
427.87	273.88
428.24	275.71
428.61	277.46
428.99	279.40
429.36	281.45
429.73	283.49
430.10	285.48
430.47	287.49
430.85	289.59
431.22	291.84
431.59	294.17
431.96	296.38
432.33	298.81
432.70	301.17
433.08	303.92
433.45	306.54
433.82	309.14
434.19	312.03
434.56	314.84
434.93	317.45
435.30	320.07
435.68	322.94
436.05	325.79
436.42	328.54
436.79	331.06
437.16	333.76
437.53	336.56
437.90	339.32
438.27	342.01
438.64	344.80
439.01	347.38
439.38	349.59
439.75	351.77
440.13	354.26
440.50	356.56
440.87	358.38
441.24	360.28
441.61	362.48
441.98	363.95
442.35	365.74
442.72	367.63
443.09	369.42
443.46	370.41
443.83	370.99
444.20	371.53
444.57	372.35
444.94	372.70
445.31	373.07
445.68	373.48
446.05	373.62
446.42	373.27
446.79	372.82
447.16	372.41
447.53	372.10
447.90	370.97
448.27	369.82
448.64	368.27
449.01	367.16
449.37	365.21
449.74	363.34
450.11	361.12
450.48	358.67
450.85	356.18
451.22	354.07
451.59	352.06
451.96	350.14
452.33	347.59
452.70	345.23
453.07	342.42
453.43	339.53
453.80	336.80
454.17	334.15
454.54	331.63
454.91	328.91
455.28	326.25
455.65	323.78
456.02	321.41
456.38	319.32
456.75	316.68
457.12	314.43
457.49	312.18
457.86	310.02
458.23	308.18
458.59	306.15
458.96	304.09
459.33	302.27
459.70	300.41
460.07	298.88
460.43	297.18
460.80	295.58
461.17	294.16
461.54	292.70
461.91	291.29
462.27	289.88
462.64	288.69
463.01	287.32
463.38	286.05
463.74	284.65
464.11	283.51
464.48	282.50
464.85	281.39
465.21	280.53
465.58	279.63
465.95	278.52
466.32	277.60
466.68	276.71
467.05	275.81
467.42	274.93
467.78	274.03
468.15	273.17
468.52	272.56
468.88	271.73
469.25	270.94
469.62	270.33
469.98	269.68
470.35	269.01
470.72	268.48
471.08	267.82
471.45	267.34
471.82	266.77
472.18	266.18
472.55	265.73
472.92	265.27
473.28	264.81
473.65	264.42
474.02	264.01
474.38	263.62
474.75	263.32
475.11	262.97
475.48	262.74
475.85	262.52
476.21	262.26
476.58	262.02
476.94	261.87
477.31	261.72
477.67	261.56
478.04	261.47
478.41	261.41
478.77	261.49
479.14	261.41
479.50	261.49
479.87	261.62
480.23	261.73
480.60	261.79
480.96	261.90
481.33	262.14
481.69	262.33
482.06	262.56
482.42	262.76
482.79	263.03
483.15	263.35
483.52	263.75
483.88	264.12
484.25	264.56
484.61	265.04
484.98	265.48
485.34	266.03
485.71	266.64
486.07	267.27
486.44	267.82
486.80	268.52
487.17	269.24
487.53	270.01
487.90	270.85
488.26	271.80
488.62	272.77
488.99	273.69
489.35	274.73
489.72	275.86
490.08	277.06
490.44	278.33
490.81	279.65
491.17	280.97
491.54	282.49
491.90	284.00
492.26	285.62
492.63	287.34
492.99	289.12
493.36	290.99
493.72	293.04
494.08	295.13
494.45	297.34
494.81	299.64
495.17	302.07
495.54	304.68
495.90	307.35
496.26	310.18
496.63	313.16
496.99	316.23
497.35	319.47
497.72	322.86
498.08	326.39
498.44	330.03
498.80	333.94
499.17	337.94
499.53	342.09
499.89	346.44
500.26	350.97
500.62	355.62
500.98	360.61
501.34	365.64
501.71	370.97
502.07	376.42
502.43	382.02
502.79	387.83
503.16	393.82
503.52	400.06
503.88	406.37
504.24	412.96
504.60	419.85
504.97	426.93
505.33	434.21
505.69	441.85
506.05	449.65
506.41	457.47
506.78	465.60
507.14	474.02
507.50	482.68
507.86	491.60
508.22	500.71
508.59	509.80
508.95	519.26
509.31	528.99
509.67	539.11
510.03	549.32
510.39	559.76
510.75	570.48
511.12	581.39
511.48	592.66
511.84	604.03
512.20	615.45
512.56	627.31
512.92	639.39
513.28	651.61
513.64	663.85
514.00	676.45
514.37	689.22
514.73	702.14
515.09	715.01
515.45	728.24
515.81	741.73
516.17	755.55
516.53	769.54
516.89	783.58
517.25	797.58
517.61	811.88
517.97	826.17
518.33	840.51
518.69	855.09
519.05	869.94
519.41	884.93
519.77	900.28
520.13	915.51
520.49	930.68
520.85	945.92
521.21	961.51
521.57	977.49
521.93	993.11
522.29	1009.24
522.65	1025.34
523.01	1041.27
523.37	1057.14
523.73	1073.09
524.09	1089.05
524.45	1105.15
524.81	1121.52
525.17	1138.06
525.53	1154.71
525.89	1171.36
526.25	1187.93
526.61	1204.08
526.97	1220.65
527.33	1236.89
527.68	1253.20
528.04	1269.47
528.40	1285.79
528.76	1302.64
529.12	1318.96
529.48	1335.58
529.84	1351.38
530.20	1367.68
530.56	1384.48
530.91	1401.67
531.27	1418.37
531.63	1434.58
531.99	1450.88
532.35	1466.62
532.71	1482.33
533.07	1498.40
533.42	1514.05
533.78	1529.94
534.14	1546.01
534.50	1561.04
534.86	1576.73
535.21	1591.79
535.57	1607.48
535.93	1622.79
536.29	1637.29
536.65	1652.23
537.00	1666.72
537.36	1681.77
537.72	1696.23
538.08	1710.42
538.44	1723.86
538.79	1737.37
539.15	1750.68
539.51	1764.21
539.87	1778.34
540.22	1791.85
540.58	1805.28
540.94	1818.18
541.29	1830.76
541.65	1843.20
542.01	1856.27
542.37	1868.40
542.72	1880.58
543.08	1892.23
543.44	1904.48
543.79	1915.65
544.15	1926.41
544.51	1937.91
544.87	1948.78
545.22	1959.47
545.58	1969.46
545.94	1979.20
546.29	1989.16
546.65	1999.06
547.01	2008.14
547.36	2016.84
547.72	2025.11
548.07	2032.93
548.43	2041.01
548.79	2048.89
549.14	2056.31
549.50	2063.51
549.86	2070.98
550.21	2078.35
550.57	2085.49
550.92	2091.99
551.28	2098.94
551.64	2106.00
551.99	2112.49
552.35	2118.56
552.70	2124.52
553.06	2130.64
553.41	2136.79
553.77	2142.56
554.13	2148.55
554.48	2154.87
554.84	2160.40
555.19	2165.69
555.55	2170.98
555.90	2175.67
556.26	2180.73
556.61	2185.50
556.97	2190.08
557.32	2194.25
557.68	2198.42
558.03	2202.52
558.39	2206.11
558.74	2210.89
559.10	2214.87
559.45	2218.55
559.81	2222.86
560.16	2226.92
560.52	2230.24
560.87	2233.69
561.23	2236.46
561.58	2239.40
561.94	2241.92
562.29	2244.11
562.64	2247.03
563.00	2249.44
563.35	2253.03
563.71	2256.18
564.06	2259.44
564.42	2262.19
564.77	2264.96
565.12	2267.36
565.48	2269.50
565.83	2271.63
566.19	2273.06
566.54	2273.78
566.89	2274.90
567.25	2275.70
567.60	2276.94
567.96	2278.85
568.31	2279.86
568.66	2281.29
569.02	2282.06
569.37	2282.41
569.72	2283.43
570.08	2283.69
570.43	2284.00
570.78	2283.63
571.14	2282.21
571.49	2281.00
571.84	2280.82
572.20	2279.91
572.55	2278.82
572.90	2277.26
573.26	2275.99
573.61	2274.28
573.96	2272.90
574.31	2270.13
574.67	2267.28
575.02	2263.81
575.37	2260.39
575.72	2256.88
576.08	2253.38
576.43	2250.01
576.78	2246.59
577.13	2243.54
577.49	2240.50
577.84	2237.20
578.19	2233.46
578.54	2230.04
578.90	2226.06
579.25	2220.56
579.60	2215.58
579.95	2210.77
580.30	2205.93
580.66	2201.01
581.01	2196.13
581.36	2191.34
581.71	2187.36
582.06	2183.00
582.42	2178.67
582.77	2173.57
583.12	2169.21
583.47	2164.78
583.82	2160.08
584.17	2154.99
584.53	2149.60
584.88	2144.13
585.23	2138.52
585.58	2133.11
585.93	2127.70
586.28	2122.87
586.63	2118.03
586.98	2113.15
587.34	2108.57
587.69	2103.91
588.04	2098.65
588.39	2093.17
588.74	2086.80
589.09	2080.68
589.44	2074.22
589.79	2068.25
590.14	2062.80
590.49	2056.17
590.84	2049.80
591.19	2043.84
591.54	2037.51
591.89	2030.34
592.25	2023.70
592.60	2016.69
592.95	2009.47
593.30	2002.33
593.65	1994.86
594.00	1987.82
594.35	1980.77
594.70	1972.93
595.05	1965.98
595.40	1958.89
595.75	1951.46
596.10	1945.48
596.45	1939.13
596.80	1933.03
597.15	1926.60
597.50	1919.74
597.85	1913.42
598.19	1906.96
598.54	1900.06
598.89	1893.55
599.24	1887.83
599.59	1881.44
599.94	1875.34
600.29	1869.13
600.64	1862.52
600.99	1855.40
601.34	1848.73
601.69	1841.71
602.04	1835.00
602.39	1827.71
602.74	1820.92
603.08	1814.44
603.43	1807.79
603.78	1800.47
604.13	1793.28
604.48	1786.11
604.83	1779.17
605.18	1772.49
605.53	1764.53
605.87	1756.63
606.22	1749.33
606.57	1741.34
606.92	1733.91
607.27	1726.76
607.62	1719.74
607.96	1712.67
608.31	1706.22
608.66	1698.64
609.01	1691.18
609.36	1683.59
609.70	1675.60
610.05	1667.64
610.40	1660.01
610.75	1651.66
611.10	1644.00
611.44	1635.56
611.79	1627.55
612.14	1618.98
612.49	1609.76
612.83	1601.56
613.18	1593.43
613.53	1585.46
613.88	1577.00
614.22	1568.76
614.57	1560.09
614.92	1552.16
615.27	1544.67
615.61	1536.19
615.96	1528.24
616.31	1520.56
616.65	1513.18
617.00	1505.54
617.35	1497.86
617.70	1489.57
618.04	1481.07
618.39	1472.83
618.74	1465.43
619.08	1457.31
619.43	1449.68
619.78	1442.82
620.12	1435.71
620.47	1428.21
620.82	1419.92
621.16	1412.52
621.51	1404.89
621.85	1397.33
622.20	1388.76
622.55	1380.38
622.89	1372.60
623.24	1365.02
623.59	1357.60
623.93	1350.08
624.28	1342.92
624.62	1335.38
624.97	1328.23
625.32	1321.50
625.66	1314.49
626.01	1307.31
626.35	1299.87
626.70	1292.17
627.04	1284.50
627.39	1276.64
627.73	1269.27
628.08	1262.47
628.43	1255.26
628.77	1248.04
629.12	1240.59
629.46	1233.53
629.81	1226.08
630.15	1218.87
630.50	1211.51
630.84	1203.44
631.19	1195.66
631.53	1188.28
631.88	1180.77
632.22	1173.15
632.57	1165.90
632.91	1158.50
633.26	1151.03
633.60	1143.60
633.95	1136.39
634.29	1129.32
634.64	1122.59
634.98	1115.25
635.32	1108.21
635.67	1101.56
636.01	1094.87
636.36	1088.01
636.70	1081.40
637.05	1074.82
637.39	1068.28
637.73	1061.74
638.08	1055.84
638.42	1049.78
638.77	1043.26
639.11	1036.80
639.45	1030.40
639.80	1023.74
640.14	1017.34
640.49	1010.88
640.83	1004.61
641.17	998.48
641.52	992.17
641.86	985.66
642.20	979.89
642.55	973.49
642.89	967.05
643.23	960.45
643.58	954.68
643.92	948.60
644.26	942.64
644.61	936.56
644.95	930.59
645.29	924.07
645.64	917.36
645.98	911.02
646.32	905.07
646.66	899.08
647.01	893.30
647.35	887.59
647.69	881.66
648.04	876.18
648.38	870.47
648.72	864.50
649.06	858.54
649.41	852.63
649.75	846.71
650.09	840.78
650.43	835.11
650.78	829.03
651.12	823.08
651.46	817.27
651.80	811.68
652.14	806.33
652.49	800.95
652.83	795.82
653.17	790.27
653.51	784.60
653.85	779.18
654.20	773.57
654.54	767.55
654.88	761.87
655.22	755.85
655.56	750.15
655.90	744.68
656.25	739.42
656.59	734.06
656.93	729.01
657.27	723.87
657.61	718.36
657.95	713.22
658.29	708.14
658.64	702.97
658.98	697.63
659.32	692.16
659.66	686.99
660.00	681.68
660.34	676.66
660.68	671.73
661.02	666.72
661.36	662.02
661.70	657.55
662.05	653.17
662.39	648.92
662.73	644.39
663.07	640.02
663.41	635.63
663.75	631.09
664.09	626.48
664.43	622.09
664.77	617.99
665.11	613.74
665.45	609.52
665.79	605.39
666.13	601.27
666.47	597.15
666.81	592.99
667.15	588.79
667.49	584.87
667.83	581.08
668.17	577.11
668.51	573.06
668.85	568.98
669.19	565.08
669.53	561.25
669.87	557.47
670.21	553.76
670.55	550.09
670.89	546.65
671.23	543.25
671.57	539.71
671.91	536.26
672.25	532.80
672.58	529.34
672.92	525.93
673.26	522.75
673.60	519.61
673.94	516.49
674.28	513.60
674.62	510.59
674.96	507.44
675.30	504.51
675.64	501.54
675.97	498.74
676.31	495.89
676.65	492.99
676.99	490.25
677.33	487.41
677.67	484.65
678.01	481.69
678.34	478.65
678.68	475.79
679.02	472.90
679.36	470.13
679.70	467.40
680.04	464.67
680.37	461.83
680.71	459.02
681.05	456.41
681.39	453.69
681.73	451.10
682.06	448.64
682.40	446.10
682.74	443.62
683.08	441.06
683.42	438.50
683.75	435.96
684.09	433.35
684.43	430.88
684.77	428.34
685.10	425.93
685.44	423.68
685.78	421.38
686.12	419.12
686.45	416.81
686.79	414.52
687.13	412.28
687.46	410.11
687.80	407.93
688.14	405.70
688.48	403.66
688.81	401.40
689.15	399.22
689.49	397.04
689.82	395.00
690.16	392.95
690.50	390.96
690.83	389.07
691.17	387.13
691.51	385.19
691.84	383.40
692.18	381.50
692.52	379.55
692.85	377.65
693.19	375.80
693.52	373.97
693.86	372.19
694.20	370.40
694.53	368.58
694.87	366.76
695.21	364.99
695.54	363.13
695.88	361.40
696.21	359.63
696.55	358.01
696.88	356.25
697.22	354.56
697.56	352.93
697.89	351.28
698.23	349.70
698.56	348.09
698.90	346.51
699.23	344.84
699.57	343.29
699.90	341.73
700.24	340.17
700.58	338.64
700.91	337.15
701.25	335.74
701.58	334.41
701.92	333.05
702.25	331.68
702.59	330.37
702.92	329.03
703.26	327.75
703.59	326.47
703.93	325.30
704.26	324.10
704.60	322.80
704.93	321.51
705.26	320.23
705.60	319.07
705.93	317.88
706.27	316.86
706.60	315.79
706.94	314.72
707.27	313.59
707.61	312.54
707.94	311.50
708.27	310.37
708.61	309.23
708.94	308.23
709.28	307.27
709.61	306.29
709.94	305.38
710.28	304.36
710.61	303.33
710.95	302.25
711.28	301.33
711.61	300.42
711.95	299.51
712.28	298.61
712.61	297.60
712.95	296.68
713.28	295.79
713.61	294.88
713.95	294.00
714.28	293.17
714.61	292.33
714.95	291.48
715.28	290.65
715.61	289.83
715.95	288.93
716.28	288.07
716.61	287.23
716.95	286.38
717.28	285.63
717.61	284.89
717.94	284.13
718.28	283.33
718.61	282.59
718.94	281.88
719.27	281.18
719.61	280.53
719.94	279.85
720.27	279.12
720.60	278.51
720.94	277.86
721.27	277.23
721.60	276.62
721.93	275.98
722.27	275.45
722.60	274.89
722.93	274.36
723.26	273.77
723.59	273.17
723.93	272.61
724.26	272.06
724.59	271.51
724.92	271.02
725.25	270.49
725.59	269.96
725.92	269.45
726.25	268.93
726.58	268.42
726.91	267.94
727.24	267.47
727.57	266.95
727.91	266.48
728.24	266.02
728.57	265.53
728.90	265.07
729.23	264.54
729.56	264.12
729.89	263.61
730.22	263.14
730.55	262.69
730.89	262.22
731.22	261.80
731.55	261.33
731.88	260.89
732.21	260.47
732.54	260.00
732.87	259.59
733.20	259.16
733.53	258.79
733.86	258.39
734.19	257.95
734.52	257.60
734.85	257.26
735.18	256.86
735.51	256.51
735.84	256.12
736.17	255.77
736.50	255.32
736.83	255.11
737.16	254.78
737.49	254.45
737.82	254.10
738.15	253.76
738.48	253.45
738.81	253.12
739.14	252.78
739.47	252.48
739.80	252.16
740.13	251.86
740.46	251.55
740.79	251.22
741.12	250.94
741.45	250.62
741.78	250.28
742.11	249.98
742.44	249.63
742.77	249.36
743.10	249.05
743.43	248.76
743.75	248.38
744.08	248.22
744.41	247.94
744.74	247.69
745.07	247.40
745.40	247.17
745.73	246.94
746.06	246.64
746.39	246.39
746.71	246.13
747.04	245.88
747.37	245.61
747.70	245.40
748.03	245.17
748.36	244.95
748.68	244.73
749.01	244.47
749.34	244.24
749.67	244.05
750.00	243.83
750.33	243.72
750.65	243.51
750.98	243.19
751.31	242.99
751.64	242.84
751.97	242.70
752.29	242.47
752.62	242.22
752.95	242.09
753.28	241.85
753.60	241.66
753.93	241.51
754.26	241.35
754.59	241.15
754.91	240.96
755.24	240.75
755.57	240.54
755.90	240.39
756.22	240.20
756.55	240.00
756.88	239.85
757.20	239.59
757.53	239.38
757.86	239.19
758.19	239.04
758.51	238.82
758.84	238.60
759.17	238.45
759.49	238.28
759.82	238.11
760.15	237.98
760.47	237.81
760.80	237.63
761.13	237.49
761.45	237.29
761.78	237.14
762.11	237.00
762.43	236.85
762.76	236.70
763.08	236.58
763.41	236.41
763.74	236.24
764.06	236.08
764.39	235.97
764.71	235.84
765.04	235.70
765.37	235.58
765.69	235.45
766.02	235.27
766.34	235.12
766.67	234.96
767.00	234.85
767.32	234.78
767.65	234.74
767.97	234.60
768.30	234.50
768.62	234.35
768.95	234.19
769.27	234.05
769.60	233.93
769.92	233.81
770.25	233.73
770.57	233.62
770.90	233.55
771.22	233.41
771.55	233.29
771.87	233.17
772.20	233.05
772.52	233.04
772.85	233.09
773.17	233.02
773.50	232.93
773.82	232.83
774.15	232.69
774.47	232.51
774.80	232.39
775.12	232.32
775.45	232.22
775.77	232.16
776.09	232.11
776.42	232.02
776.74	231.99
777.07	231.88
777.39	231.82
777.72	231.74
778.04	231.70
778.36	231.63
778.69	231.54
779.01	231.51
779.33	231.34
779.66	231.16
779.98	231.12
780.31	231.06
780.63	231.04
780.95	230.97
781.28	230.89
781.60	230.83
781.92	230.77
782.25	230.75
782.57	230.71
782.89	230.65
783.22	230.56
783.54	230.45
783.86	230.42
784.19	230.35
784.51	230.32
784.83	230.24
785.16	230.20
785.48	230.20
785.80	230.12
786.12	230.11
786.45	230.06
786.77	230.01
787.09	229.99
787.42	229.95
787.74	229.96
788.06	229.95
788.38	229.91
788.71	229.86
789.03	229.84
789.35	229.82
789.67	229.80
789.99	229.78
790.32	229.77
790.64	229.76
790.96	229.81
791.28	229.74
791.61	229.73
791.93	229.72
792.25	229.64
792.57	229.71
792.89	229.66
793.21	229.62
793.54	229.58
793.86	229.50
794.18	229.44
794.50	229.40
794.82	229.36
795.14	229.36
795.47	229.35
795.79	229.31
796.11	229.24
796.43	229.18
796.75	229.18
797.07	229.17
797.39	229.08
797.71	228.98
798.04	228.94
798.36	228.88
798.68	228.83
799.00	228.83
799.32	228.71
799.64	228.67
799.96	228.68
800.28	228.64
800.60	228.60
800.92	228.59
801.24	228.52
801.56	228.51
801.89	228.46
802.21	228.42
802.53	228.38
802.85	228.37
803.17	228.38
803.49	228.32
803.81	228.27
804.13	228.25
804.45	228.19
804.77	228.17
805.09	228.14
805.41	228.08
805.73	228.04
806.05	227.99
806.37	227.94
806.69	227.89
807.01	227.87
807.33	227.84
807.65	227.78
807.97	227.79
808.28	227.73
808.60	227.66
808.92	227.63
809.24	227.65
809.56	227.57
809.88	227.49
810.20	227.48
810.52	227.48
810.84	227.44
811.16	227.41
811.48	227.36
811.80	227.40
812.12	227.37
812.43	227.37
812.75	227.39
813.07	227.37
813.39	227.33
813.71	227.30
814.03	227.25
814.35	227.22
814.67	227.15
814.98	227.10
815.30	227.13
815.62	227.08
815.94	227.02
816.26	227.06
816.58	227.04
816.89	227.03
817.21	226.98
817.53	226.95
817.85	226.97
818.17	226.94
818.48	226.91
818.80	226.92
819.12	226.90
819.44	226.85
819.76	226.82
820.07	226.83
820.39	226.82
820.71	226.85
821.03	226.83
821.34	226.86
821.66	226.91
821.98	226.88
822.30	226.85
822.61	226.86
822.93	226.77
823.25	226.75
823.57	226.75
823.88	226.77
824.20	226.82
824.52	226.81
824.83	226.83
825.15	226.76
825.47	226.74
825.79	226.73
826.10	226.73
826.42	226.73
826.74	226.72
827.05	226.68
827.37	226.64
827.69	226.64
828.00	226.62
828.32	226.59
828.64	226.58
828.95	226.68
829.27	226.64
829.58	226.67
829.90	226.70
830.22	226.73
830.53	226.69
830.85	226.65
831.17	226.64
831.48	226.63
831.80	226.64
832.11	226.62
832.43	226.60
832.75	226.58
833.06	226.64
833.38	226.59
833.69	226.57
834.01	226.57
834.32	226.59
834.64	226.54
834.96	226.52
835.27	226.54
835.59	226.47
835.90	226.49
836.22	226.45
836.53	226.41
836.85	226.36
837.16	226.44
837.48	226.41
837.79	226.41
838.11	226.38
838.42	226.39
838.74	226.42
839.05	226.41
839.37	226.41
839.68	226.32
840.00	226.35
840.31	226.41
840.63	226.41
840.94	226.37
841.26	226.33
841.57	226.30
841.88	226.27
842.20	226.25
842.51	226.22
842.83	226.24
843.14	226.32
843.46	226.31
843.77	226.25
844.08	226.22
844.40	226.19
844.71	226.17
845.03	226.16
845.34	226.13
845.65	226.10
845.97	226.06
846.28	226.06
846.60	226.05
846.91	225.98
847.22	225.94
847.54	225.96
847.85	225.97
848.16	225.97
848.48	225.95
848.79	225.96
849.10	225.95
849.42	225.95
849.73	225.83
850.04	225.81
850.36	225.76
850.67	225.76
850.98	225.73
851.30	225.73
851.61	225.69
851.92	225.68
852.23	225.72
852.55	225.77
852.86	225.77
853.17	225.73
853.49	225.75
853.80	225.76
854.11	225.74
854.42	225.76
854.74	225.75
855.05	225.73
855.36	225.68
855.67	225.67
855.99	225.65
856.30	225.75
856.61	225.78
856.92	225.74
857.23	225.72
857.55	225.71
857.86	225.68
858.17	225.70
858.48	225.68
858.79	225.62
859.11	225.61
859.42	225.58
859.73	225.57
860.04	225.59
860.35	225.56
860.66	225.53
860.98	225.54
861.29	225.55
861.60	225.57
861.91	225.57
862.22	225.57
862.53	225.57
862.84	225.49
863.16	225.48
863.47	225.49
863.78	225.53
864.09	225.51
864.40	225.55
864.71	225.54
865.02	225.54
865.33	225.56
865.64	225.53
865.95	225.54
866.27	225.59
866.58	225.55
866.89	225.57
867.20	225.58
867.51	225.55
867.82	225.54
868.13	225.58
868.44	225.58
868.75	225.60
869.06	225.57
869.37	225.55
869.68	225.52
869.99	225.53
870.30	225.53
870.61	225.56
870.92	225.54
871.23	225.51
871.54	225.54
871.85	225.55
872.16	225.61
872.47	225.59
872.78	225.53
873.09	225.55
873.40	225.55
873.71	225.54
874.02	225.55
874.33	225.56
874.64	225.51
874.95	225.53
875.26	225.49
875.56	225.52
875.87	225.52
876.18	225.52
876.49	225.65
876.80	225.63
877.11	225.62
877.42	225.62
877.73	225.65
878.04	225.64
878.35	225.62
878.66	225.56
878.96	225.58
879.27	225.59
879.58	225.55
879.89	225.54
880.20	225.58
880.51	225.58
880.82	225.59
881.12	225.62
881.43	225.60
881.74	225.61
882.05	225.60
882.36	225.63
882.67	225.63
882.97	225.51
883.28	225.52
883.59	225.53
883.90	225.54
884.21	225.54
884.51	225.54
884.82	225.55
885.13	225.56
885.44	225.55
885.74	225.56
886.05	225.58
886.36	225.57
886.67	225.54
886.98	225.60
887.28	225.61
887.59	225.56
887.90	225.56
888.20	225.55
888.51	225.60
888.82	225.57
889.13	225.58
889.43	225.65
889.74	225.61
890.05	225.58
890.35	225.59
890.66	225.60
890.97	225.56
891.28	225.56
891.58	225.58
891.89	225.60
892.20	225.61
892.50	225.59
892.81	225.59
893.12	225.59
893.42	225.55
893.73	225.51
894.04	225.52
894.34	225.50
894.65	225.49
894.95	225.45
895.26	225.47
895.57	225.51
895.87	225.43
896.18	225.47
896.48	225.50
896.79	225.47
897.10	225.45
897.40	225.49
897.71	225.50
898.01	225.47
898.32	225.43
898.63	225.41
898.93	225.43
899.24	225.42
899.54	225.38
899.85	225.37
900.15	225.36
900.46	225.35
900.76	225.43
901.07	225.39
901.38	225.39
901.68	225.35
901.99	225.27
902.29	225.20
902.60	225.20
902.90	225.16
903.21	225.18
903.51	225.20
903.82	225.20
904.12	225.18
904.43	225.16
904.73	225.16
905.03	225.13
905.34	225.19
905.64	225.21
905.95	225.23
906.25	225.23
906.56	225.24
906.86	225.25
907.17	225.21
907.47	225.25
907.77	225.26
908.08	225.26
908.38	225.31
908.69	225.34
908.99	225.34
909.30	225.34
909.60	225.33
909.90	225.32
910.21	225.28
910.51	225.24
910.81	225.26
911.12	225.28
911.42	225.30
911.73	225.23
912.03	225.22
912.33	225.24
912.64	225.23
912.94	225.21
913.24	225.21
913.55	225.21
913.85	225.21
914.15	225.22
914.46	225.23
914.76	225.19
915.06	225.23
915.37	225.23
915.67	225.27
915.97	225.30
916.27	225.25
916.58	225.30
916.88	225.34
917.18	225.34
917.49	225.40
917.79	225.41
918.09	225.44
918.39	225.50
918.70	225.46
919.00	225.49
919.30	225.54
919.60	225.52
919.91	225.51
920.21	225.53
920.51	225.48
920.81	225.49
921.12	225.55
921.42	225.55
921.72	225.55
922.02	225.54
922.32	225.53
922.63	225.57
922.93	225.60
923.23	225.59
923.53	225.58
923.83	225.52
924.13	225.53
924.44	225.51
924.74	225.52
925.04	225.59
925.34	225.58
925.64	225.56
925.94	225.59
926.24	225.64
926.55	225.63
926.85	225.67
927.15	225.71
927.45	225.69
927.75	225.70
928.05	225.72
928.35	225.74
928.65	225.75
928.95	225.78
929.26	225.74
929.56	225.76
929.86	225.78
930.16	225.79
930.46	225.80
930.76	225.80
931.06	225.73
931.36	225.66
931.66	225.69
931.96	225.69
932.26	225.69
932.56	225.63
932.86	225.66
933.16	225.63
933.46	225.58
933.76	225.52
934.06	225.50
934.36	225.52
934.66	225.48
934.96	225.42
935.26	225.41
935.56	225.44
935.86	225.44
936.16	225.42
936.46	225.40
936.76	225.36
937.06	225.35
937.36	225.41
937.66	225.41
937.96	225.37
938.26	225.35
938.56	225.33
938.86	225.37
939.16	225.36
939.46	225.38
939.76	225.39
940.06	225.44
940.35	225.42
940.65	225.36
940.95	225.39
941.25	225.38
941.55	225.35
941.85	225.33
942.15	225.34
942.45	225.36
942.75	225.33
943.04	225.31
943.34	225.32
943.64	225.24
943.94	225.24
944.24	225.24
944.54	225.24
944.84	225.23
945.13	225.21
945.43	225.20
945.73	225.18
946.03	225.18
946.33	225.16
946.62	225.16
946.92	225.17
947.22	225.14
947.52	225.17
947.82	225.19
948.11	225.17
948.41	225.11
948.71	225.09
949.01	225.13
949.31	225.17
949.60	225.15
949.90	225.17
950.20	225.17
950.50	225.16
950.79	225.14
951.09	225.17
951.39	225.11
951.69	225.11
951.98	225.15
952.28	225.13
952.58	225.10
952.87	225.10
953.17	225.09
953.47	225.08
953.76	225.07
954.06	225.05
954.36	225.02
954.66	225.05
954.95	225.06
955.25	225.05
955.55	225.03
955.84	225.04
956.14	225.05
956.44	225.04
956.73	225.02
957.03	225.06
957.32	225.07
957.62	225.11
957.92	225.12
958.21	225.06
958.51	225.18
958.81	225.22
959.10	225.22
959.40	225.25
959.69	225.27
959.99	225.27
960.29	225.29
960.58	225.28
960.88	225.29
961.17	225.30
961.47	225.31
961.76	225.31
962.06	225.30
962.36	225.31
962.65	225.29
962.95	225.29
963.24	225.26
963.54	225.27
963.83	225.27
964.13	225.26
964.42	225.26
964.72	225.18
965.01	225.17
965.31	225.18
965.60	225.16
965.90	225.22
966.19	225.18
966.49	225.17
966.78	225.16
967.08	225.17
967.37	225.12
967.67	225.08
967.96	225.09
968.26	225.06
968.55	225.07
968.85	225.10
969.14	225.12
969.43	225.09
969.73	225.07
970.02	225.04
970.32	225.02
970.61	225.02
970.91	224.99
971.20	224.97
971.49	224.92
971.79	224.91
972.08	224.80
972.38	224.80
972.67	224.80
972.96	224.86
973.26	224.84
973.55	224.89
973.85	224.90
974.14	224.89
974.43	224.88
974.73	224.86
975.02	224.84
975.31	224.85
975.61	224.84
975.90	224.83
976.19	224.85
976.49	224.85
976.78	224.86
977.07	224.87
977.37	224.88
977.66	224.91
977.95	224.92
978.24	224.96
978.54	225.01
978.83	225.02
979.12	225.00
979.42	225.01
979.71	225.00
980.00	225.03
980.29	225.04
980.59	225.03
980.88	225.05
981.17	225.05
981.46	225.04
981.76	225.06
982.05	225.10
982.34	225.09
982.63	225.12
982.93	225.11
983.22	225.12
983.51	225.13
983.80	225.14
984.09	225.11
984.39	225.12
984.68	225.08
984.97	225.07
985.26	225.04
985.55	225.04
985.85	225.02
986.14	225.01
986.43	225.00
986.72	225.01
987.01	224.99
987.30	225.01
987.59	224.98
987.89	224.97
988.18	224.90
988.47	224.86
988.76	224.84
989.05	224.83
989.34	224.80
989.63	224.78
989.92	224.76
990.22	224.74
990.51	224.74
990.80	224.74
991.09	224.72
991.38	224.73
991.67	224.72
991.96	224.67
992.25	224.70
992.54	224.67
992.83	224.68
993.12	224.68
993.41	224.66
993.70	224.72
993.99	224.72
994.28	224.73
994.58	224.74
994.87	224.74
995.16	224.73
995.45	224.74
995.74	224.72
996.03	224.74
996.32	224.76
996.61	224.76
996.90	224.77
997.19	224.78
997.48	224.79
997.77	224.79
998.06	224.82
998.34	224.80
998.63	224.83
998.92	224.81
999.21	224.82
999.50	224.86
999.79	224.84
1000.08	224.83
1000.37	224.86
1000.66	224.88
1000.95	224.91
1001.24	224.92
1001.53	224.92
1001.82	224.90
1002.11	224.90
1002.40	224.90
1002.68	224.94
1002.97	224.99
1003.26	224.97
1003.55	224.98
1003.84	225.03
1004.13	225.07
1004.42	225.08
1004.71	225.11
1004.99	225.14
1005.28	225.15
1005.57	225.14
1005.86	225.14
1006.15	225.14
1006.44	225.13
1006.72	225.16
1007.01	225.15
1007.30	225.19
1007.59	225.20
1007.88	225.26
1008.17	225.24
1008.45	225.26
1008.74	225.24
1009.03	225.24
1009.32	225.26
1009.60	225.28
1009.89	225.22
1010.18	225.16
1010.47	225.14
1010.76	225.15
1011.04	225.15
1011.33	225.21
1011.62	225.20
1011.91	225.22
1012.19	225.24
1012.48	225.26
1012.77	225.26
1013.05	225.31
1013.34	225.31
1013.63	225.29
1013.92	225.27
1014.20	225.29
1014.49	225.28
1014.78	225.29
1015.06	225.25
1015.35	225.26
1015.64	225.29
1015.92	225.33
1016.21	225.33
1016.50	225.34
1016.78	225.35
1017.07	225.37
1017.36	225.30
1017.64	225.30
1017.93	225.33
1018.22	225.33
1018.50	225.31
1018.79	225.29
1019.08	225.19
1019.36	225.18
1019.65	225.18
1019.93	225.23
1020.22	225.25
1020.51	225.30
1020.79	225.28
1021.08	225.09
1021.36	225.06
1021.65	224.92
1021.94	224.28
1022.22	225.03
1022.51	224.71
1022.79	225.91
1023.08	225.35
1023.36	226.29
1023.65	225.17
>>>>>End Processed Spectral Data<<<<<
