SpectraSuite Data File
++++++++++++++++++++++++++++++++++++
Date: Fri Feb 01 15:29:53 EST 2013
User: group
Dark Spectrum Present: No
Reference Spectrum Present: No
Number of Sampled Component Spectra: 1
Spectrometers: USB2E7196
Integration Time (usec): 35000 (USB2E7196)
Spectra Averaged: 100 (USB2E7196)
Boxcar Smoothing: 10 (USB2E7196)
Correct for Electrical Dark: No (USB2E7196)
Strobe/Lamp Enabled: No (USB2E7196)
Correct for Detector Non-linearity: No (USB2E7196)
Correct for Stray Light: No (USB2E7196)
Number of Pixels in Processed Spectrum: 2048
>>>>>Begin Processed Spectral Data<<<<<
339.09	0.00
339.48	215.16
339.86	216.63
340.24	217.64
340.63	219.02
341.01	222.46
341.39	221.95
341.78	223.65
342.16	224.42
342.54	224.72
342.93	213.46
343.31	224.25
343.69	224.80
344.07	225.23
344.46	225.63
344.84	226.02
345.22	226.24
345.60	226.49
345.99	226.67
346.37	226.80
346.75	226.91
347.13	226.94
347.52	226.94
347.90	227.00
348.28	227.04
348.66	227.10
349.05	227.09
349.43	227.09
349.81	227.14
350.19	227.18
350.57	227.20
350.96	227.27
351.34	227.32
351.72	227.41
352.10	227.54
352.48	227.64
352.87	227.72
353.25	227.77
353.63	227.82
354.01	227.90
354.39	227.96
354.77	228.04
355.15	228.18
355.54	228.28
355.92	228.32
356.30	228.40
356.68	228.50
357.06	228.60
357.44	228.67
357.82	228.75
358.20	228.85
358.58	228.93
358.97	228.97
359.35	229.08
359.73	229.14
360.11	229.17
360.49	229.25
360.87	229.26
361.25	229.34
361.63	229.43
362.01	229.45
362.39	229.50
362.77	229.53
363.15	229.51
363.53	229.55
363.91	229.59
364.29	229.63
364.67	229.55
365.05	229.55
365.43	229.55
365.81	229.56
366.19	229.57
366.57	229.59
366.95	229.60
367.33	229.56
367.71	229.53
368.09	229.56
368.47	229.53
368.85	229.48
369.23	229.46
369.61	229.37
369.99	229.36
370.37	229.33
370.75	229.37
371.13	229.34
371.51	229.27
371.89	229.23
372.27	229.17
372.65	229.14
373.03	229.12
373.41	229.06
373.78	228.99
374.16	228.89
374.54	228.82
374.92	228.74
375.30	228.68
375.68	228.60
376.06	228.52
376.44	228.43
376.82	228.39
377.19	228.31
377.57	228.24
377.95	228.15
378.33	228.09
378.71	227.91
379.09	227.85
379.47	227.77
379.84	227.70
380.22	227.60
380.60	227.50
380.98	227.40
381.36	227.34
381.73	227.25
382.11	227.21
382.49	227.14
382.87	227.05
383.25	226.99
383.62	227.03
384.00	226.91
384.38	226.88
384.76	226.89
385.13	226.86
385.51	226.82
385.89	226.75
386.27	226.69
386.64	226.66
387.02	226.62
387.40	226.57
387.78	226.51
388.15	226.45
388.53	226.42
388.91	226.36
389.29	226.34
389.66	226.33
390.04	226.31
390.42	226.30
390.79	226.30
391.17	226.28
391.55	226.19
391.92	226.23
392.30	226.22
392.68	226.19
393.05	226.20
393.43	226.23
393.81	226.26
394.18	226.24
394.56	226.29
394.94	226.31
395.31	226.34
395.69	226.43
396.06	226.49
396.44	226.54
396.82	226.62
397.19	226.69
397.57	226.73
397.95	226.80
398.32	226.83
398.70	226.87
399.07	226.96
399.45	227.01
399.82	227.08
400.20	227.15
400.58	227.20
400.95	227.26
401.33	227.35
401.70	227.52
402.08	227.60
402.45	227.70
402.83	227.83
403.20	227.98
403.58	228.09
403.95	228.22
404.33	228.34
404.71	228.46
405.08	228.65
405.46	228.78
405.83	228.95
406.21	229.12
406.58	229.33
406.96	229.50
407.33	229.67
407.70	229.87
408.08	230.16
408.45	230.41
408.83	230.63
409.20	230.87
409.58	231.03
409.95	231.36
410.33	231.63
410.70	231.89
411.08	232.16
411.45	232.43
411.82	232.74
412.20	233.11
412.57	233.53
412.95	233.82
413.32	234.26
413.69	234.62
414.07	235.08
414.44	235.53
414.82	235.97
415.19	236.55
415.56	237.12
415.94	237.66
416.31	238.29
416.68	238.94
417.06	239.65
417.43	240.32
417.81	241.05
418.18	241.80
418.55	242.62
418.93	243.51
419.30	244.42
419.67	245.36
420.04	246.33
420.42	247.32
420.79	248.52
421.16	249.67
421.54	250.90
421.91	252.11
422.28	253.36
422.66	254.68
423.03	255.99
423.40	257.29
423.77	258.70
424.15	260.11
424.52	261.61
424.89	263.22
425.26	264.81
425.64	266.25
426.01	267.88
426.38	269.55
426.75	271.22
427.13	272.95
427.50	274.74
427.87	276.61
428.24	278.46
428.61	280.16
428.99	282.12
429.36	284.21
429.73	286.26
430.10	288.30
430.47	290.41
430.85	292.54
431.22	294.78
431.59	297.14
431.96	299.42
432.33	301.87
432.70	304.32
433.08	307.13
433.45	309.79
433.82	312.40
434.19	315.28
434.56	318.09
434.93	320.75
435.30	323.42
435.68	326.33
436.05	329.20
436.42	332.04
436.79	334.57
437.16	337.27
437.53	340.13
437.90	342.96
438.27	345.68
438.64	348.51
439.01	351.12
439.38	353.38
439.75	355.53
440.13	358.05
440.50	360.34
440.87	362.21
441.24	364.11
441.61	366.31
441.98	367.85
442.35	369.62
442.72	371.52
443.09	373.32
443.46	374.29
443.83	374.86
444.20	375.33
444.57	376.11
444.94	376.44
445.31	376.69
445.68	377.07
446.05	377.17
446.42	376.79
446.79	376.35
447.16	375.87
447.53	375.51
447.90	374.33
448.27	373.15
448.64	371.56
449.01	370.45
449.37	368.44
449.74	366.48
450.11	364.26
450.48	361.74
450.85	359.18
451.22	357.04
451.59	355.01
451.96	353.05
452.33	350.47
452.70	348.06
453.07	345.28
453.43	342.34
453.80	339.55
454.17	336.89
454.54	334.33
454.91	331.59
455.28	328.95
455.65	326.46
456.02	323.99
456.38	321.81
456.75	319.11
457.12	316.87
457.49	314.67
457.86	312.48
458.23	310.59
458.59	308.51
458.96	306.37
459.33	304.50
459.70	302.65
460.07	301.14
460.43	299.44
460.80	297.83
461.17	296.37
461.54	294.87
461.91	293.39
462.27	291.97
462.64	290.75
463.01	289.36
463.38	288.06
463.74	286.68
464.11	285.54
464.48	284.51
464.85	283.39
465.21	282.50
465.58	281.55
465.95	280.50
466.32	279.63
466.68	278.77
467.05	277.89
467.42	277.03
467.78	276.05
468.15	275.16
468.52	274.49
468.88	273.61
469.25	272.82
469.62	272.22
469.98	271.54
470.35	270.91
470.72	270.30
471.08	269.62
471.45	269.08
471.82	268.49
472.18	267.91
472.55	267.46
472.92	266.93
473.28	266.46
473.65	266.01
474.02	265.56
474.38	265.19
474.75	264.86
475.11	264.48
475.48	264.22
475.85	264.01
476.21	263.76
476.58	263.61
476.94	263.46
477.31	263.30
477.67	263.14
478.04	263.03
478.41	263.00
478.77	263.05
479.14	263.01
479.50	263.02
479.87	263.07
480.23	263.18
480.60	263.25
480.96	263.40
481.33	263.61
481.69	263.75
482.06	263.93
482.42	264.15
482.79	264.45
483.15	264.75
483.52	265.12
483.88	265.44
484.25	265.82
484.61	266.27
484.98	266.68
485.34	267.25
485.71	267.83
486.07	268.43
486.44	268.99
486.80	269.65
487.17	270.40
487.53	271.22
487.90	272.07
488.26	273.03
488.62	274.00
488.99	274.95
489.35	276.05
489.72	277.19
490.08	278.36
490.44	279.57
490.81	280.91
491.17	282.28
491.54	283.78
491.90	285.34
492.26	286.98
492.63	288.73
492.99	290.48
493.36	292.38
493.72	294.43
494.08	296.55
494.45	298.83
494.81	301.22
495.17	303.68
495.54	306.23
495.90	308.87
496.26	311.66
496.63	314.65
496.99	317.76
497.35	321.04
497.72	324.47
498.08	327.96
498.44	331.66
498.80	335.56
499.17	339.59
499.53	343.74
499.89	348.12
500.26	352.61
500.62	357.30
500.98	362.28
501.34	367.30
501.71	372.63
502.07	378.05
502.43	383.67
502.79	389.48
503.16	395.53
503.52	401.80
503.88	408.22
504.24	414.87
504.60	421.81
504.97	428.89
505.33	436.23
505.69	443.97
506.05	451.78
506.41	459.72
506.78	467.89
507.14	476.42
507.50	485.13
507.86	494.12
508.22	503.33
508.59	512.51
508.95	522.14
509.31	531.97
509.67	542.05
510.03	552.32
510.39	562.89
510.75	573.77
511.12	584.78
511.48	596.04
511.84	607.47
512.20	618.95
512.56	630.92
512.92	643.13
513.28	655.44
513.64	667.92
514.00	680.64
514.37	693.60
514.73	706.62
515.09	719.68
515.45	733.03
515.81	746.67
516.17	760.63
516.53	774.79
516.89	788.96
517.25	803.21
517.61	817.72
517.97	832.23
518.33	846.60
518.69	861.40
519.05	876.48
519.41	891.77
519.77	907.45
520.13	922.93
520.49	938.36
520.85	953.88
521.21	969.59
521.57	985.92
521.93	1001.72
522.29	1018.15
522.65	1034.44
523.01	1050.71
523.37	1066.86
523.73	1083.18
524.09	1099.31
524.45	1115.69
524.81	1132.34
525.17	1149.22
525.53	1166.26
525.89	1183.21
526.25	1199.99
526.61	1216.38
526.97	1233.02
527.33	1249.49
527.68	1266.18
528.04	1282.73
528.40	1299.39
528.76	1316.69
529.12	1333.26
529.48	1350.25
529.84	1366.44
530.20	1383.06
530.56	1400.19
530.91	1417.47
531.27	1434.22
531.63	1450.79
531.99	1467.52
532.35	1483.62
532.71	1499.50
533.07	1515.78
533.42	1531.72
533.78	1547.91
534.14	1564.25
534.50	1579.70
534.86	1595.56
535.21	1610.77
535.57	1626.67
535.93	1642.26
536.29	1656.90
536.65	1672.12
537.00	1686.97
537.36	1702.17
537.72	1716.80
538.08	1731.12
538.44	1745.10
538.79	1759.08
539.15	1772.86
539.51	1786.54
539.87	1801.00
540.22	1814.79
540.58	1828.48
540.94	1842.12
541.29	1855.13
541.65	1867.86
542.01	1881.27
542.37	1893.72
542.72	1906.27
543.08	1918.12
543.44	1930.32
543.79	1941.66
544.15	1952.52
544.51	1964.14
544.87	1975.34
545.22	1986.19
545.58	1996.55
545.94	2006.24
546.29	2016.08
546.65	2025.91
547.01	2035.21
547.36	2043.90
547.72	2052.35
548.07	2060.22
548.43	2068.22
548.79	2076.26
549.14	2083.89
549.50	2091.22
549.86	2098.88
550.21	2106.15
550.57	2113.46
550.92	2120.22
551.28	2127.32
551.64	2134.38
551.99	2140.86
552.35	2147.01
552.70	2153.19
553.06	2159.28
553.41	2165.66
553.77	2171.69
554.13	2177.74
554.48	2183.91
554.84	2189.33
555.19	2194.70
555.55	2199.97
555.90	2204.37
556.26	2209.16
556.61	2213.81
556.97	2218.05
557.32	2222.28
557.68	2226.39
558.03	2230.41
558.39	2234.13
558.74	2238.73
559.10	2242.72
559.45	2246.25
559.81	2250.41
560.16	2254.17
560.52	2257.33
560.87	2260.81
561.23	2263.46
561.58	2266.47
561.94	2268.93
562.29	2271.47
562.64	2274.22
563.00	2276.78
563.35	2280.36
563.71	2283.43
564.06	2286.70
564.42	2289.43
564.77	2291.86
565.12	2294.13
565.48	2296.18
565.83	2298.13
566.19	2299.42
566.54	2300.40
566.89	2301.60
567.25	2302.26
567.60	2303.69
567.96	2305.33
568.31	2306.17
568.66	2307.25
569.02	2307.75
569.37	2308.07
569.72	2308.72
570.08	2308.72
570.43	2308.75
570.78	2308.11
571.14	2306.65
571.49	2305.28
571.84	2304.97
572.20	2303.66
572.55	2302.58
572.90	2301.01
573.26	2299.50
573.61	2297.79
573.96	2295.93
574.31	2292.88
574.67	2289.73
575.02	2286.06
575.37	2282.57
575.72	2278.68
576.08	2275.38
576.43	2272.03
576.78	2268.29
577.13	2265.09
577.49	2261.97
577.84	2258.44
578.19	2254.72
578.54	2250.91
578.90	2246.52
579.25	2240.90
579.60	2235.95
579.95	2230.87
580.30	2225.67
580.66	2220.34
581.01	2215.28
581.36	2210.40
581.71	2206.24
582.06	2201.75
582.42	2197.10
582.77	2191.82
583.12	2187.17
583.47	2182.25
583.82	2177.00
584.17	2171.67
584.53	2166.09
584.88	2160.20
585.23	2154.23
585.58	2148.54
585.93	2143.08
586.28	2138.31
586.63	2133.04
586.98	2127.87
587.34	2122.98
587.69	2118.13
588.04	2112.87
588.39	2107.07
588.74	2100.36
589.09	2094.14
589.44	2087.17
589.79	2081.04
590.14	2075.42
590.49	2068.79
590.84	2062.35
591.19	2056.36
591.54	2049.93
591.89	2042.54
592.25	2035.81
592.60	2028.63
592.95	2021.13
593.30	2013.80
593.65	2006.20
594.00	1999.24
594.35	1992.04
594.70	1984.10
595.05	1976.77
595.40	1969.35
595.75	1961.73
596.10	1955.49
596.45	1948.60
596.80	1942.43
597.15	1935.78
597.50	1928.52
597.85	1922.02
598.19	1915.41
598.54	1908.17
598.89	1901.50
599.24	1895.53
599.59	1888.78
599.94	1882.51
600.29	1876.14
600.64	1869.48
600.99	1861.85
601.34	1855.01
601.69	1847.99
602.04	1841.04
602.39	1833.71
602.74	1826.92
603.08	1820.26
603.43	1813.53
603.78	1806.19
604.13	1798.92
604.48	1791.54
604.83	1784.80
605.18	1777.87
605.53	1769.90
605.87	1761.98
606.22	1754.61
606.57	1746.61
606.92	1739.22
607.27	1731.99
607.62	1724.90
607.96	1717.55
608.31	1710.97
608.66	1703.17
609.01	1695.52
609.36	1687.90
609.70	1679.70
610.05	1671.62
610.40	1663.88
610.75	1655.39
611.10	1647.72
611.44	1639.40
611.79	1631.59
612.14	1622.76
612.49	1613.62
612.83	1605.22
613.18	1597.07
613.53	1588.97
613.88	1580.35
614.22	1572.09
614.57	1563.49
614.92	1555.52
615.27	1547.92
615.61	1539.55
615.96	1531.70
616.31	1524.12
616.65	1516.75
617.00	1509.19
617.35	1501.48
617.70	1493.12
618.04	1484.69
618.39	1476.34
618.74	1468.72
619.08	1460.22
619.43	1452.66
619.78	1445.62
620.12	1438.30
620.47	1430.78
620.82	1422.66
621.16	1415.24
621.51	1407.78
621.85	1400.25
622.20	1391.66
622.55	1383.34
622.89	1375.55
623.24	1367.96
623.59	1360.48
623.93	1352.95
624.28	1345.76
624.62	1338.19
624.97	1331.01
625.32	1324.28
625.66	1317.38
626.01	1310.12
626.35	1302.71
626.70	1294.88
627.04	1287.06
627.39	1279.33
627.73	1271.87
628.08	1264.77
628.43	1257.47
628.77	1249.88
629.12	1242.14
629.46	1234.98
629.81	1227.52
630.15	1220.31
630.50	1212.84
630.84	1204.64
631.19	1196.71
631.53	1189.27
631.88	1181.78
632.22	1174.16
632.57	1166.81
632.91	1159.19
633.26	1151.83
633.60	1144.54
633.95	1137.65
634.29	1130.74
634.64	1123.99
634.98	1116.71
635.32	1109.69
635.67	1103.20
636.01	1096.63
636.36	1089.89
636.70	1083.42
637.05	1076.91
637.39	1070.38
637.73	1063.83
638.08	1057.96
638.42	1051.96
638.77	1045.45
639.11	1038.81
639.45	1032.46
639.80	1025.75
640.14	1019.44
640.49	1012.88
640.83	1006.55
641.17	1000.20
641.52	993.83
641.86	987.53
642.20	981.67
642.55	975.40
642.89	968.89
643.23	962.34
643.58	956.58
643.92	950.32
644.26	944.18
644.61	938.16
644.95	932.15
645.29	925.63
645.64	918.85
645.98	912.56
646.32	906.81
646.66	900.79
647.01	895.10
647.35	889.48
647.69	883.67
648.04	878.11
648.38	872.34
648.72	866.25
649.06	860.11
649.41	854.18
649.75	848.15
650.09	842.22
650.43	836.48
650.78	830.33
651.12	824.34
651.46	818.62
651.80	812.86
652.14	807.47
652.49	802.06
652.83	796.96
653.17	791.23
653.51	785.42
653.85	779.95
654.20	774.20
654.54	768.13
654.88	762.39
655.22	756.55
655.56	750.81
655.90	745.47
656.25	740.18
656.59	734.83
656.93	729.69
657.27	724.49
657.61	719.02
657.95	713.92
658.29	708.95
658.64	703.78
658.98	698.52
659.32	693.05
659.66	687.88
660.00	682.57
660.34	677.67
660.68	672.79
661.02	667.88
661.36	663.22
661.70	658.68
662.05	654.29
662.39	649.92
662.73	645.47
663.07	641.12
663.41	636.73
663.75	632.25
664.09	627.78
664.43	623.45
664.77	619.32
665.11	615.05
665.45	610.88
665.79	606.78
666.13	602.60
666.47	598.52
666.81	594.30
667.15	590.20
667.49	586.29
667.83	582.49
668.17	578.51
668.51	574.42
668.85	570.45
669.19	566.63
669.53	562.80
669.87	558.92
670.21	555.18
670.55	551.57
670.89	548.14
671.23	544.72
671.57	541.18
671.91	537.65
672.25	534.18
672.58	530.65
672.92	527.24
673.26	524.09
673.60	520.95
673.94	517.86
674.28	514.99
674.62	512.06
674.96	508.95
675.30	506.00
675.64	503.09
675.97	500.31
676.31	497.43
676.65	494.50
676.99	491.81
677.33	488.95
677.67	486.09
678.01	483.04
678.34	480.04
678.68	477.16
679.02	474.39
679.36	471.64
679.70	468.92
680.04	466.17
680.37	463.33
680.71	460.61
681.05	458.02
681.39	455.27
681.73	452.60
682.06	450.06
682.40	447.54
682.74	445.04
683.08	442.47
683.42	439.83
683.75	437.37
684.09	434.81
684.43	432.34
684.77	429.90
685.10	427.62
685.44	425.30
685.78	423.01
686.12	420.77
686.45	418.49
686.79	416.19
687.13	414.00
687.46	411.81
687.80	409.63
688.14	407.42
688.48	405.38
688.81	403.16
689.15	401.00
689.49	398.84
689.82	396.75
690.16	394.63
690.50	392.73
690.83	390.71
691.17	388.73
691.51	386.86
691.84	385.00
692.18	383.02
692.52	381.02
692.85	379.09
693.19	377.20
693.52	375.36
693.86	373.58
694.20	371.75
694.53	369.98
694.87	368.11
695.21	366.29
695.54	364.48
695.88	362.78
696.21	361.05
696.55	359.36
696.88	357.69
697.22	356.06
697.56	354.45
697.89	352.85
698.23	351.30
698.56	349.65
698.90	348.08
699.23	346.40
699.57	344.86
699.90	343.35
700.24	341.78
700.58	340.23
700.91	338.71
701.25	337.27
701.58	335.88
701.92	334.50
702.25	333.16
702.59	331.76
702.92	330.40
703.26	329.11
703.59	327.84
703.93	326.64
704.26	325.41
704.60	324.11
704.93	322.83
705.26	321.53
705.60	320.40
705.93	319.21
706.27	318.22
706.60	317.20
706.94	316.10
707.27	314.95
707.61	313.95
707.94	312.98
708.27	311.85
708.61	310.77
708.94	309.80
709.28	308.80
709.61	307.88
709.94	306.93
710.28	305.90
710.61	304.91
710.95	303.90
711.28	302.95
711.61	302.00
711.95	301.10
712.28	300.13
712.61	299.11
712.95	298.21
713.28	297.34
713.61	296.43
713.95	295.54
714.28	294.74
714.61	293.87
714.95	293.03
715.28	292.24
715.61	291.35
715.95	290.48
716.28	289.66
716.61	288.80
716.95	288.00
717.28	287.31
717.61	286.55
717.94	285.80
718.28	285.02
718.61	284.34
718.94	283.64
719.27	283.01
719.61	282.39
719.94	281.75
720.27	281.03
720.60	280.38
720.94	279.76
721.27	279.18
721.60	278.55
721.93	277.95
722.27	277.38
722.60	276.87
722.93	276.29
723.26	275.73
723.59	275.19
723.93	274.65
724.26	274.04
724.59	273.51
724.92	272.94
725.25	272.45
725.59	271.89
725.92	271.42
726.25	270.91
726.58	270.40
726.91	269.88
727.24	269.42
727.57	268.97
727.91	268.46
728.24	267.96
728.57	267.53
728.90	267.05
729.23	266.56
729.56	266.14
729.89	265.69
730.22	265.22
730.55	264.74
730.89	264.28
731.22	263.86
731.55	263.40
731.88	263.00
732.21	262.58
732.54	262.15
732.87	261.69
733.20	261.30
733.53	260.89
733.86	260.53
734.19	260.12
734.52	259.69
734.85	259.39
735.18	258.96
735.51	258.54
735.84	258.19
736.17	257.84
736.50	257.41
736.83	257.19
737.16	256.84
737.49	256.51
737.82	256.17
738.15	255.84
738.48	255.45
738.81	255.10
739.14	254.76
739.47	254.42
739.80	254.12
740.13	253.81
740.46	253.49
740.79	253.15
741.12	252.82
741.45	252.50
741.78	252.10
742.11	251.82
742.44	251.53
742.77	251.22
743.10	250.90
743.43	250.59
743.75	250.16
744.08	249.99
744.41	249.70
744.74	249.46
745.07	249.17
745.40	248.95
745.73	248.69
746.06	248.43
746.39	248.16
746.71	247.86
747.04	247.57
747.37	247.31
747.70	247.07
748.03	246.83
748.36	246.63
748.68	246.44
749.01	246.16
749.34	245.95
749.67	245.74
750.00	245.53
750.33	245.38
750.65	245.18
750.98	244.87
751.31	244.66
751.64	244.43
751.97	244.27
752.29	244.05
752.62	243.83
752.95	243.62
753.28	243.44
753.60	243.24
753.93	243.11
754.26	242.91
754.59	242.65
754.91	242.43
755.24	242.24
755.57	242.04
755.90	241.91
756.22	241.70
756.55	241.48
756.88	241.26
757.20	241.06
757.53	240.92
757.86	240.76
758.19	240.61
758.51	240.45
758.84	240.27
759.17	240.11
759.49	240.00
759.82	239.87
760.15	239.72
760.47	239.60
760.80	239.41
761.13	239.32
761.45	239.22
761.78	239.09
762.11	238.94
762.43	238.77
762.76	238.62
763.08	238.52
763.41	238.42
763.74	238.34
764.06	238.16
764.39	238.01
764.71	237.88
765.04	237.75
765.37	237.58
765.69	237.45
766.02	237.33
766.34	237.19
766.67	237.04
767.00	236.93
767.32	236.86
767.65	236.80
767.97	236.70
768.30	236.57
768.62	236.48
768.95	236.38
769.27	236.30
769.60	236.22
769.92	236.09
770.25	235.93
770.57	235.80
770.90	235.72
771.22	235.59
771.55	235.47
771.87	235.39
772.20	235.29
772.52	235.27
772.85	235.29
773.17	235.18
773.50	235.06
773.82	234.98
774.15	234.84
774.47	234.68
774.80	234.54
775.12	234.44
775.45	234.31
775.77	234.24
776.09	234.14
776.42	234.02
776.74	233.94
777.07	233.88
777.39	233.79
777.72	233.70
778.04	233.63
778.36	233.53
778.69	233.41
779.01	233.33
779.33	233.16
779.66	232.98
779.98	232.88
780.31	232.84
780.63	232.77
780.95	232.69
781.28	232.62
781.60	232.53
781.92	232.47
782.25	232.41
782.57	232.32
782.89	232.24
783.22	232.18
783.54	232.08
783.86	232.05
784.19	231.99
784.51	231.94
784.83	231.88
785.16	231.81
785.48	231.78
785.80	231.76
786.12	231.73
786.45	231.67
786.77	231.63
787.09	231.57
787.42	231.49
787.74	231.46
788.06	231.42
788.38	231.40
788.71	231.30
789.03	231.28
789.35	231.23
789.67	231.20
789.99	231.17
790.32	231.14
790.64	231.08
790.96	231.13
791.28	231.10
791.61	231.07
791.93	231.06
792.25	231.02
792.57	231.01
792.89	230.95
793.21	230.92
793.54	230.91
793.86	230.84
794.18	230.83
794.50	230.79
794.82	230.75
795.14	230.71
795.47	230.73
795.79	230.68
796.11	230.64
796.43	230.61
796.75	230.56
797.07	230.54
797.39	230.50
797.71	230.39
798.04	230.32
798.36	230.28
798.68	230.24
799.00	230.20
799.32	230.14
799.64	230.15
799.96	230.12
800.28	230.08
800.60	230.06
800.92	230.02
801.24	229.96
801.56	229.94
801.89	229.93
802.21	229.89
802.53	229.86
802.85	229.87
803.17	229.87
803.49	229.85
803.81	229.80
804.13	229.75
804.45	229.73
804.77	229.71
805.09	229.68
805.41	229.66
805.73	229.63
806.05	229.61
806.37	229.55
806.69	229.55
807.01	229.53
807.33	229.55
807.65	229.51
807.97	229.55
808.28	229.53
808.60	229.50
808.92	229.46
809.24	229.50
809.56	229.42
809.88	229.39
810.20	229.36
810.52	229.38
810.84	229.37
811.16	229.34
811.48	229.34
811.80	229.36
812.12	229.32
812.43	229.31
812.75	229.27
813.07	229.25
813.39	229.22
813.71	229.16
814.03	229.10
814.35	229.07
814.67	229.00
814.98	228.96
815.30	228.91
815.62	228.88
815.94	228.80
816.26	228.87
816.58	228.82
816.89	228.81
817.21	228.76
817.53	228.73
817.85	228.72
818.17	228.72
818.48	228.63
818.80	228.66
819.12	228.60
819.44	228.57
819.76	228.54
820.07	228.50
820.39	228.49
820.71	228.48
821.03	228.45
821.34	228.43
821.66	228.42
821.98	228.43
822.30	228.39
822.61	228.42
822.93	228.33
823.25	228.28
823.57	228.26
823.88	228.27
824.20	228.26
824.52	228.27
824.83	228.21
825.15	228.21
825.47	228.16
825.79	228.16
826.10	228.15
826.42	228.12
826.74	228.15
827.05	228.13
827.37	228.11
827.69	228.12
828.00	228.09
828.32	228.09
828.64	228.08
828.95	228.15
829.27	228.11
829.58	228.10
829.90	228.15
830.22	228.14
830.53	228.09
830.85	228.07
831.17	228.00
831.48	227.98
831.80	227.98
832.11	227.99
832.43	227.99
832.75	227.96
833.06	228.03
833.38	228.01
833.69	228.02
834.01	228.03
834.32	228.01
834.64	228.02
834.96	228.02
835.27	228.02
835.59	227.95
835.90	227.93
836.22	227.95
836.53	227.90
836.85	227.90
837.16	228.01
837.48	227.99
837.79	228.07
838.11	228.11
838.42	228.08
838.74	228.08
839.05	228.06
839.37	228.09
839.68	228.04
840.00	228.02
840.31	228.04
840.63	228.05
840.94	228.04
841.26	228.04
841.57	228.02
841.88	228.03
842.20	228.03
842.51	228.05
842.83	228.06
843.14	228.16
843.46	228.18
843.77	228.12
844.08	228.14
844.40	228.11
844.71	228.06
845.03	228.09
845.34	228.08
845.65	228.07
845.97	228.07
846.28	228.07
846.60	228.08
846.91	228.05
847.22	228.05
847.54	228.08
847.85	228.12
848.16	228.11
848.48	228.12
848.79	228.16
849.10	228.13
849.42	228.12
849.73	228.00
850.04	227.97
850.36	227.94
850.67	227.94
850.98	227.96
851.30	227.98
851.61	227.94
851.92	227.95
852.23	227.98
852.55	227.96
852.86	228.00
853.17	228.01
853.49	228.02
853.80	227.98
854.11	227.95
854.42	227.95
854.74	227.93
855.05	227.89
855.36	227.84
855.67	227.87
855.99	227.84
856.30	227.96
856.61	227.95
856.92	227.96
857.23	227.97
857.55	227.92
857.86	227.89
858.17	227.90
858.48	227.89
858.79	227.83
859.11	227.83
859.42	227.78
859.73	227.72
860.04	227.69
860.35	227.67
860.66	227.64
860.98	227.61
861.29	227.61
861.60	227.63
861.91	227.65
862.22	227.61
862.53	227.63
862.84	227.50
863.16	227.52
863.47	227.48
863.78	227.42
864.09	227.43
864.40	227.42
864.71	227.41
865.02	227.39
865.33	227.42
865.64	227.36
865.95	227.38
866.27	227.44
866.58	227.45
866.89	227.47
867.20	227.49
867.51	227.46
867.82	227.46
868.13	227.49
868.44	227.46
868.75	227.46
869.06	227.45
869.37	227.46
869.68	227.42
869.99	227.42
870.30	227.47
870.61	227.47
870.92	227.49
871.23	227.50
871.54	227.51
871.85	227.50
872.16	227.55
872.47	227.52
872.78	227.45
873.09	227.44
873.40	227.42
873.71	227.44
874.02	227.44
874.33	227.42
874.64	227.41
874.95	227.45
875.26	227.43
875.56	227.39
875.87	227.42
876.18	227.43
876.49	227.52
876.80	227.48
877.11	227.47
877.42	227.48
877.73	227.48
878.04	227.46
878.35	227.48
878.66	227.48
878.96	227.52
879.27	227.55
879.58	227.54
879.89	227.54
880.20	227.55
880.51	227.55
880.82	227.59
881.12	227.58
881.43	227.55
881.74	227.55
882.05	227.57
882.36	227.58
882.67	227.62
882.97	227.56
883.28	227.57
883.59	227.57
883.90	227.57
884.21	227.57
884.51	227.57
884.82	227.57
885.13	227.55
885.44	227.52
885.74	227.53
886.05	227.54
886.36	227.53
886.67	227.50
886.98	227.55
887.28	227.55
887.59	227.55
887.90	227.56
888.20	227.54
888.51	227.55
888.82	227.55
889.13	227.52
889.43	227.54
889.74	227.53
890.05	227.50
890.35	227.50
890.66	227.49
890.97	227.48
891.28	227.48
891.58	227.51
891.89	227.53
892.20	227.53
892.50	227.53
892.81	227.55
893.12	227.55
893.42	227.48
893.73	227.49
894.04	227.45
894.34	227.46
894.65	227.48
894.95	227.48
895.26	227.44
895.57	227.48
895.87	227.45
896.18	227.45
896.48	227.47
896.79	227.45
897.10	227.46
897.40	227.44
897.71	227.46
898.01	227.42
898.32	227.41
898.63	227.39
898.93	227.36
899.24	227.34
899.54	227.32
899.85	227.32
900.15	227.31
900.46	227.31
900.76	227.31
901.07	227.30
901.38	227.29
901.68	227.30
901.99	227.26
902.29	227.21
902.60	227.20
902.90	227.18
903.21	227.19
903.51	227.17
903.82	227.21
904.12	227.18
904.43	227.16
904.73	227.15
905.03	227.16
905.34	227.25
905.64	227.21
905.95	227.23
906.25	227.23
906.56	227.22
906.86	227.25
907.17	227.24
907.47	227.27
907.77	227.27
908.08	227.22
908.38	227.21
908.69	227.25
908.99	227.30
909.30	227.33
909.60	227.31
909.90	227.31
910.21	227.30
910.51	227.29
910.81	227.31
911.12	227.30
911.42	227.28
911.73	227.15
912.03	227.18
912.33	227.18
912.64	227.17
912.94	227.19
913.24	227.17
913.55	227.14
913.85	227.11
914.15	227.11
914.46	227.14
914.76	227.13
915.06	227.10
915.37	227.05
915.67	227.04
915.97	227.05
916.27	227.03
916.58	227.04
916.88	227.03
917.18	226.99
917.49	227.07
917.79	227.11
918.09	227.17
918.39	227.21
918.70	227.23
919.00	227.25
919.30	227.28
919.60	227.25
919.91	227.23
920.21	227.26
920.51	227.23
920.81	227.22
921.12	227.27
921.42	227.28
921.72	227.29
922.02	227.31
922.32	227.31
922.63	227.34
922.93	227.36
923.23	227.38
923.53	227.43
923.83	227.36
924.13	227.34
924.44	227.33
924.74	227.32
925.04	227.34
925.34	227.31
925.64	227.29
925.94	227.30
926.24	227.38
926.55	227.37
926.85	227.41
927.15	227.44
927.45	227.41
927.75	227.40
928.05	227.44
928.35	227.41
928.65	227.43
928.95	227.45
929.26	227.42
929.56	227.44
929.86	227.47
930.16	227.44
930.46	227.40
930.76	227.43
931.06	227.38
931.36	227.35
931.66	227.35
931.96	227.37
932.26	227.38
932.56	227.29
932.86	227.33
933.16	227.32
933.46	227.29
933.76	227.32
934.06	227.36
934.36	227.34
934.66	227.35
934.96	227.38
935.26	227.38
935.56	227.39
935.86	227.37
936.16	227.33
936.46	227.37
936.76	227.40
937.06	227.37
937.36	227.42
937.66	227.41
937.96	227.39
938.26	227.34
938.56	227.33
938.86	227.38
939.16	227.36
939.46	227.36
939.76	227.36
940.06	227.34
940.35	227.30
940.65	227.26
940.95	227.24
941.25	227.18
941.55	227.16
941.85	227.13
942.15	227.14
942.45	227.16
942.75	227.13
943.04	227.11
943.34	227.12
943.64	227.07
943.94	227.08
944.24	227.10
944.54	227.12
944.84	227.09
945.13	227.05
945.43	227.05
945.73	227.03
946.03	227.02
946.33	227.00
946.62	226.97
946.92	226.99
947.22	227.00
947.52	227.01
947.82	227.02
948.11	226.99
948.41	226.97
948.71	226.93
949.01	226.94
949.31	226.93
949.60	226.93
949.90	226.98
950.20	226.94
950.50	226.92
950.79	226.92
951.09	226.94
951.39	226.95
951.69	226.96
951.98	226.95
952.28	226.96
952.58	226.95
952.87	226.96
953.17	226.97
953.47	226.94
953.76	226.95
954.06	226.92
954.36	226.94
954.66	226.94
954.95	226.97
955.25	226.97
955.55	227.01
955.84	226.96
956.14	226.95
956.44	226.97
956.73	226.94
957.03	226.93
957.32	226.94
957.62	226.94
957.92	226.94
958.21	226.97
958.51	227.09
958.81	227.13
959.10	227.16
959.40	227.20
959.69	227.20
959.99	227.21
960.29	227.24
960.58	227.24
960.88	227.28
961.17	227.28
961.47	227.28
961.76	227.25
962.06	227.30
962.36	227.28
962.65	227.33
962.95	227.34
963.24	227.33
963.54	227.36
963.83	227.38
964.13	227.37
964.42	227.35
964.72	227.26
965.01	227.26
965.31	227.23
965.60	227.21
965.90	227.27
966.19	227.23
966.49	227.24
966.78	227.22
967.08	227.20
967.37	227.19
967.67	227.19
967.96	227.22
968.26	227.22
968.55	227.25
968.85	227.24
969.14	227.23
969.43	227.22
969.73	227.20
970.02	227.18
970.32	227.20
970.61	227.16
970.91	227.13
971.20	227.10
971.49	227.13
971.79	227.14
972.08	227.07
972.38	227.11
972.67	227.09
972.96	227.12
973.26	227.09
973.55	227.13
973.85	227.14
974.14	227.13
974.43	227.12
974.73	227.13
975.02	227.10
975.31	227.13
975.61	227.13
975.90	227.12
976.19	227.12
976.49	227.09
976.78	227.11
977.07	227.14
977.37	227.15
977.66	227.13
977.95	227.12
978.24	227.15
978.54	227.16
978.83	227.14
979.12	227.13
979.42	227.15
979.71	227.09
980.00	227.06
980.29	227.05
980.59	227.03
980.88	227.01
981.17	227.02
981.46	227.03
981.76	227.02
982.05	227.04
982.34	227.02
982.63	227.04
982.93	227.03
983.22	227.02
983.51	227.00
983.80	227.00
984.09	226.96
984.39	226.96
984.68	226.93
984.97	226.95
985.26	226.96
985.55	226.93
985.85	226.97
986.14	226.97
986.43	227.01
986.72	226.98
987.01	226.96
987.30	226.95
987.59	226.94
987.89	226.95
988.18	226.92
988.47	226.92
988.76	226.91
989.05	226.91
989.34	226.90
989.63	226.94
989.92	226.94
990.22	226.92
990.51	226.90
990.80	226.90
991.09	226.89
991.38	226.88
991.67	226.90
991.96	226.85
992.25	226.87
992.54	226.86
992.83	226.89
993.12	226.89
993.41	226.89
993.70	226.92
993.99	226.92
994.28	226.90
994.58	226.92
994.87	226.90
995.16	226.87
995.45	226.86
995.74	226.82
996.03	226.86
996.32	226.88
996.61	226.89
996.90	226.88
997.19	226.87
997.48	226.89
997.77	226.87
998.06	226.90
998.34	226.91
998.63	226.87
998.92	226.85
999.21	226.87
999.50	226.87
999.79	226.85
1000.08	226.86
1000.37	226.93
1000.66	226.94
1000.95	226.98
1001.24	227.02
1001.53	227.05
1001.82	227.06
1002.11	227.02
1002.40	227.05
1002.68	227.09
1002.97	227.17
1003.26	227.19
1003.55	227.16
1003.84	227.17
1004.13	227.18
1004.42	227.15
1004.71	227.16
1004.99	227.20
1005.28	227.24
1005.57	227.24
1005.86	227.24
1006.15	227.26
1006.44	227.23
1006.72	227.26
1007.01	227.24
1007.30	227.25
1007.59	227.25
1007.88	227.28
1008.17	227.28
1008.45	227.24
1008.74	227.26
1009.03	227.22
1009.32	227.23
1009.60	227.23
1009.89	227.22
1010.18	227.19
1010.47	227.19
1010.76	227.19
1011.04	227.14
1011.33	227.13
1011.62	227.13
1011.91	227.14
1012.19	227.13
1012.48	227.11
1012.77	227.08
1013.05	227.13
1013.34	227.12
1013.63	227.11
1013.92	227.10
1014.20	227.08
1014.49	227.13
1014.78	227.09
1015.06	227.02
1015.35	227.00
1015.64	226.99
1015.92	227.03
1016.21	227.05
1016.50	227.04
1016.78	227.06
1017.07	227.09
1017.36	227.04
1017.64	227.03
1017.93	227.03
1018.22	227.01
1018.50	227.04
1018.79	227.01
1019.08	226.92
1019.36	226.91
1019.65	226.89
1019.93	226.87
1020.22	226.90
1020.51	226.92
1020.79	226.91
1021.08	226.75
1021.36	227.42
1021.65	226.65
1021.94	226.46
1022.22	226.57
1022.51	227.06
1022.79	226.71
1023.08	227.04
1023.36	228.15
1023.65	226.83
>>>>>End Processed Spectral Data<<<<<
