SpectraSuite Data File
++++++++++++++++++++++++++++++++++++
Date: Fri Feb 01 15:08:36 EST 2013
User: group
Dark Spectrum Present: No
Reference Spectrum Present: No
Number of Sampled Component Spectra: 1
Spectrometers: USB2E7196
Integration Time (usec): 35000 (USB2E7196)
Spectra Averaged: 100 (USB2E7196)
Boxcar Smoothing: 10 (USB2E7196)
Correct for Electrical Dark: No (USB2E7196)
Strobe/Lamp Enabled: No (USB2E7196)
Correct for Detector Non-linearity: No (USB2E7196)
Correct for Stray Light: No (USB2E7196)
Number of Pixels in Processed Spectrum: 2048
>>>>>Begin Processed Spectral Data<<<<<
339.09	0.00
339.48	215.46
339.86	216.40
340.24	217.96
340.63	219.44
341.01	222.39
341.39	222.46
341.78	223.40
342.16	224.52
342.54	225.17
342.93	213.51
343.31	224.31
343.69	224.83
344.07	225.30
344.46	225.74
344.84	226.12
345.22	226.36
345.60	226.57
345.99	226.76
346.37	226.85
346.75	226.95
347.13	227.04
347.52	227.11
347.90	227.16
348.28	227.22
348.66	227.28
349.05	227.27
349.43	227.31
349.81	227.39
350.19	227.44
350.57	227.50
350.96	227.55
351.34	227.65
351.72	227.73
352.10	227.85
352.48	227.90
352.87	227.99
353.25	228.04
353.63	228.14
354.01	228.22
354.39	228.34
354.77	228.43
355.15	228.53
355.54	228.58
355.92	228.62
356.30	228.71
356.68	228.85
357.06	228.94
357.44	229.01
357.82	229.06
358.20	229.10
358.58	229.15
358.97	229.24
359.35	229.32
359.73	229.40
360.11	229.45
360.49	229.53
360.87	229.55
361.25	229.63
361.63	229.69
362.01	229.72
362.39	229.75
362.77	229.80
363.15	229.82
363.53	229.86
363.91	229.91
364.29	229.90
364.67	229.80
365.05	229.79
365.43	229.79
365.81	229.79
366.19	229.90
366.57	229.91
366.95	229.90
367.33	229.82
367.71	229.84
368.09	229.81
368.47	229.77
368.85	229.76
369.23	229.73
369.61	229.66
369.99	229.65
370.37	229.63
370.75	229.62
371.13	229.54
371.51	229.49
371.89	229.43
372.27	229.38
372.65	229.35
373.03	229.29
373.41	229.22
373.78	229.17
374.16	229.01
374.54	228.91
374.92	228.82
375.30	228.78
375.68	228.68
376.06	228.62
376.44	228.49
376.82	228.41
377.19	228.33
377.57	228.26
377.95	228.16
378.33	228.06
378.71	227.91
379.09	227.84
379.47	227.76
379.84	227.65
380.22	227.56
380.60	227.48
380.98	227.40
381.36	227.34
381.73	227.27
382.11	227.20
382.49	227.16
382.87	227.08
383.25	226.99
383.62	227.03
384.00	226.98
384.38	226.96
384.76	226.89
385.13	226.83
385.51	226.77
385.89	226.68
386.27	226.64
386.64	226.63
387.02	226.60
387.40	226.54
387.78	226.48
388.15	226.45
388.53	226.41
388.91	226.37
389.29	226.34
389.66	226.32
390.04	226.29
390.42	226.28
390.79	226.28
391.17	226.27
391.55	226.14
391.92	226.11
392.30	226.13
392.68	226.11
393.05	226.16
393.43	226.19
393.81	226.22
394.18	226.20
394.56	226.22
394.94	226.24
395.31	226.27
395.69	226.36
396.06	226.42
396.44	226.40
396.82	226.46
397.19	226.56
397.57	226.61
397.95	226.69
398.32	226.76
398.70	226.83
399.07	226.94
399.45	227.03
399.82	227.11
400.20	227.15
400.58	227.27
400.95	227.29
401.33	227.42
401.70	227.59
402.08	227.72
402.45	227.81
402.83	227.93
403.20	228.08
403.58	228.20
403.95	228.34
404.33	228.51
404.71	228.64
405.08	228.84
405.46	228.97
405.83	229.15
406.21	229.26
406.58	229.45
406.96	229.61
407.33	229.78
407.70	230.02
408.08	230.33
408.45	230.55
408.83	230.81
409.20	230.98
409.58	231.15
409.95	231.42
410.33	231.74
410.70	232.02
411.08	232.34
411.45	232.67
411.82	232.95
412.20	233.30
412.57	233.73
412.95	234.03
413.32	234.44
413.69	234.83
414.07	235.32
414.44	235.77
414.82	236.25
415.19	236.78
415.56	237.30
415.94	237.85
416.31	238.51
416.68	239.14
417.06	239.88
417.43	240.57
417.81	241.34
418.18	242.09
418.55	242.91
418.93	243.75
419.30	244.63
419.67	245.61
420.04	246.60
420.42	247.58
420.79	248.76
421.16	249.88
421.54	251.08
421.91	252.26
422.28	253.51
422.66	254.86
423.03	256.21
423.40	257.54
423.77	258.95
424.15	260.32
424.52	261.81
424.89	263.42
425.26	264.97
425.64	266.39
426.01	268.01
426.38	269.65
426.75	271.29
427.13	273.04
427.50	274.83
427.87	276.71
428.24	278.58
428.61	280.33
428.99	282.28
429.36	284.36
429.73	286.45
430.10	288.47
430.47	290.53
430.85	292.63
431.22	294.87
431.59	297.23
431.96	299.45
432.33	301.96
432.70	304.34
433.08	307.16
433.45	309.83
433.82	312.41
434.19	315.35
434.56	318.17
434.93	320.84
435.30	323.42
435.68	326.31
436.05	329.12
436.42	331.91
436.79	334.43
437.16	337.12
437.53	339.93
437.90	342.74
438.27	345.49
438.64	348.33
439.01	350.93
439.38	353.21
439.75	355.44
440.13	357.92
440.50	360.24
440.87	362.11
441.24	364.08
441.61	366.22
441.98	367.69
442.35	369.57
442.72	371.42
443.09	373.25
443.46	374.24
443.83	374.84
444.20	375.33
444.57	376.18
444.94	376.51
445.31	376.88
445.68	377.22
446.05	377.29
446.42	376.90
446.79	376.50
447.16	376.04
447.53	375.72
447.90	374.57
448.27	373.40
448.64	371.75
449.01	370.61
449.37	368.63
449.74	366.72
450.11	364.45
450.48	362.00
450.85	359.42
451.22	357.28
451.59	355.30
451.96	353.38
452.33	350.79
452.70	348.44
453.07	345.62
453.43	342.70
453.80	339.96
454.17	337.29
454.54	334.74
454.91	331.98
455.28	329.30
455.65	326.81
456.02	324.39
456.38	322.27
456.75	319.57
457.12	317.35
457.49	315.15
457.86	312.97
458.23	311.09
458.59	309.09
458.96	306.97
459.33	305.07
459.70	303.19
460.07	301.63
460.43	299.90
460.80	298.25
461.17	296.86
461.54	295.31
461.91	293.85
462.27	292.40
462.64	291.14
463.01	289.76
463.38	288.46
463.74	287.09
464.11	285.94
464.48	284.91
464.85	283.79
465.21	282.91
465.58	281.94
465.95	280.83
466.32	279.91
466.68	279.00
467.05	278.12
467.42	277.21
467.78	276.28
468.15	275.39
468.52	274.71
468.88	273.80
469.25	273.05
469.62	272.45
469.98	271.74
470.35	271.08
470.72	270.48
471.08	269.78
471.45	269.21
471.82	268.65
472.18	268.01
472.55	267.55
472.92	267.00
473.28	266.53
473.65	266.07
474.02	265.62
474.38	265.23
474.75	264.88
475.11	264.52
475.48	264.24
475.85	264.02
476.21	263.73
476.58	263.57
476.94	263.41
477.31	263.23
477.67	263.08
478.04	262.98
478.41	262.89
478.77	262.94
479.14	262.85
479.50	262.89
479.87	263.00
480.23	263.05
480.60	263.13
480.96	263.27
481.33	263.46
481.69	263.65
482.06	263.87
482.42	264.07
482.79	264.32
483.15	264.68
483.52	265.00
483.88	265.37
484.25	265.70
484.61	266.11
484.98	266.57
485.34	267.17
485.71	267.75
486.07	268.40
486.44	268.98
486.80	269.68
487.17	270.36
487.53	271.21
487.90	272.10
488.26	273.04
488.62	273.97
488.99	274.94
489.35	275.95
489.72	277.04
490.08	278.23
490.44	279.51
490.81	280.81
491.17	282.19
491.54	283.67
491.90	285.23
492.26	286.86
492.63	288.54
492.99	290.29
493.36	292.18
493.72	294.16
494.08	296.25
494.45	298.49
494.81	300.88
495.17	303.25
495.54	305.78
495.90	308.41
496.26	311.22
496.63	314.15
496.99	317.29
497.35	320.54
497.72	323.96
498.08	327.46
498.44	331.08
498.80	334.98
499.17	339.02
499.53	343.18
499.89	347.55
500.26	352.06
500.62	356.72
500.98	361.67
501.34	366.77
501.71	372.09
502.07	377.55
502.43	383.11
502.79	388.90
503.16	394.95
503.52	401.21
503.88	407.58
504.24	414.23
504.60	421.06
504.97	428.17
505.33	435.49
505.69	443.11
506.05	450.93
506.41	458.80
506.78	466.91
507.14	475.37
507.50	484.03
507.86	493.04
508.22	502.22
508.59	511.43
508.95	521.00
509.31	530.77
509.67	540.80
510.03	551.10
510.39	561.63
510.75	572.44
511.12	583.37
511.48	594.61
511.84	606.03
512.20	617.59
512.56	629.54
512.92	641.63
513.28	653.95
513.64	666.43
514.00	679.13
514.37	692.10
514.73	705.14
515.09	718.25
515.45	731.58
515.81	745.09
516.17	759.00
516.53	773.07
516.89	787.23
517.25	801.41
517.61	815.84
517.97	830.31
518.33	844.74
518.69	859.57
519.05	874.71
519.41	889.93
519.77	905.52
520.13	921.05
520.49	936.46
520.85	952.01
521.21	967.78
521.57	984.10
521.93	999.93
522.29	1016.43
522.65	1032.71
523.01	1049.10
523.37	1065.25
523.73	1081.48
524.09	1097.72
524.45	1114.15
524.81	1130.92
525.17	1147.89
525.53	1164.93
525.89	1181.91
526.25	1198.84
526.61	1215.18
526.97	1232.03
527.33	1248.52
527.68	1265.15
528.04	1281.70
528.40	1298.36
528.76	1315.48
529.12	1332.05
529.48	1348.95
529.84	1365.11
530.20	1381.85
530.56	1398.81
530.91	1416.30
531.27	1433.24
531.63	1449.72
531.99	1466.33
532.35	1482.25
532.71	1498.12
533.07	1514.45
533.42	1530.43
533.78	1546.38
534.14	1562.76
534.50	1578.00
534.86	1593.99
535.21	1609.19
535.57	1625.25
535.93	1640.79
536.29	1655.63
536.65	1670.82
537.00	1685.73
537.36	1700.94
537.72	1715.66
538.08	1730.12
538.44	1744.09
538.79	1758.07
539.15	1771.97
539.51	1785.83
539.87	1800.41
540.22	1814.22
540.58	1828.17
540.94	1841.55
541.29	1854.63
541.65	1867.52
542.01	1881.03
542.37	1893.35
542.72	1905.90
543.08	1917.87
543.44	1930.39
543.79	1941.71
544.15	1952.82
544.51	1964.37
544.87	1975.46
545.22	1986.11
545.58	1996.35
545.94	2006.11
546.29	2015.95
546.65	2025.73
547.01	2034.85
547.36	2043.66
547.72	2052.06
548.07	2059.85
548.43	2068.07
548.79	2076.22
549.14	2083.67
549.50	2090.98
549.86	2098.89
550.21	2106.27
550.57	2113.54
550.92	2120.18
551.28	2127.28
551.64	2134.35
551.99	2140.93
552.35	2147.06
552.70	2153.32
553.06	2159.29
553.41	2165.56
553.77	2171.58
554.13	2177.78
554.48	2184.01
554.84	2189.27
555.19	2194.81
555.55	2199.86
555.90	2204.29
556.26	2208.97
556.61	2213.71
556.97	2217.76
557.32	2221.81
557.68	2225.86
558.03	2229.89
558.39	2233.47
558.74	2238.06
559.10	2241.73
559.45	2245.39
559.81	2249.82
560.16	2253.48
560.52	2256.64
560.87	2260.13
561.23	2262.63
561.58	2265.51
561.94	2268.02
562.29	2270.52
562.64	2273.11
563.00	2275.71
563.35	2279.24
563.71	2282.35
564.06	2285.52
564.42	2288.65
564.77	2290.97
565.12	2293.11
565.48	2294.92
565.83	2296.72
566.19	2297.85
566.54	2298.93
566.89	2299.93
567.25	2300.33
567.60	2301.64
567.96	2303.27
568.31	2303.95
568.66	2305.06
569.02	2305.40
569.37	2305.66
569.72	2306.24
570.08	2306.17
570.43	2305.97
570.78	2305.19
571.14	2303.58
571.49	2302.14
571.84	2301.54
572.20	2300.33
572.55	2299.21
572.90	2297.66
573.26	2296.22
573.61	2294.41
573.96	2292.43
574.31	2289.41
574.67	2286.22
575.02	2282.51
575.37	2279.03
575.72	2274.97
576.08	2271.51
576.43	2268.23
576.78	2264.49
577.13	2261.31
577.49	2258.11
577.84	2254.67
578.19	2250.91
578.54	2247.11
578.90	2242.77
579.25	2237.17
579.60	2231.98
579.95	2226.86
580.30	2221.74
580.66	2216.35
581.01	2211.34
581.36	2206.38
581.71	2201.98
582.06	2197.37
582.42	2192.79
582.77	2187.50
583.12	2182.90
583.47	2178.08
583.82	2172.75
584.17	2167.25
584.53	2161.66
584.88	2155.80
585.23	2149.88
585.58	2144.30
585.93	2138.90
586.28	2133.97
586.63	2128.74
586.98	2123.80
587.34	2119.03
587.69	2114.00
588.04	2108.62
588.39	2102.77
588.74	2096.17
589.09	2090.04
589.44	2083.18
589.79	2077.09
590.14	2071.28
590.49	2064.53
590.84	2058.16
591.19	2052.09
591.54	2045.60
591.89	2038.02
592.25	2031.30
592.60	2023.92
592.95	2016.09
593.30	2008.58
593.65	2000.90
594.00	1993.77
594.35	1986.25
594.70	1978.18
595.05	1970.72
595.40	1963.42
595.75	1955.96
596.10	1949.49
596.45	1942.57
596.80	1936.40
597.15	1929.58
597.50	1922.40
597.85	1916.03
598.19	1909.15
598.54	1902.03
598.89	1895.29
599.24	1889.40
599.59	1882.61
599.94	1876.49
600.29	1870.21
600.64	1863.61
600.99	1856.12
601.34	1849.18
601.69	1842.23
602.04	1835.15
602.39	1827.91
602.74	1821.08
603.08	1814.39
603.43	1807.69
603.78	1800.47
604.13	1793.23
604.48	1785.88
604.83	1779.17
605.18	1772.15
605.53	1764.16
605.87	1756.06
606.22	1749.03
606.57	1741.08
606.92	1733.72
607.27	1726.41
607.62	1719.47
607.96	1712.10
608.31	1705.57
608.66	1697.92
609.01	1690.45
609.36	1682.93
609.70	1674.84
610.05	1666.72
610.40	1658.96
610.75	1650.75
611.10	1643.03
611.44	1634.64
611.79	1626.82
612.14	1618.14
612.49	1609.18
612.83	1600.87
613.18	1592.79
613.53	1584.58
613.88	1576.07
614.22	1567.79
614.57	1559.31
614.92	1551.33
615.27	1543.62
615.61	1535.19
615.96	1527.36
616.31	1519.63
616.65	1512.29
617.00	1504.87
617.35	1497.24
617.70	1488.90
618.04	1480.39
618.39	1472.13
618.74	1464.60
619.08	1456.23
619.43	1448.53
619.78	1441.59
620.12	1434.36
620.47	1426.90
620.82	1418.82
621.16	1411.47
621.51	1403.95
621.85	1396.24
622.20	1387.68
622.55	1379.51
622.89	1371.69
623.24	1364.10
623.59	1356.82
623.93	1349.26
624.28	1341.97
624.62	1334.41
624.97	1327.23
625.32	1320.47
625.66	1313.47
626.01	1306.13
626.35	1298.64
626.70	1290.98
627.04	1283.16
627.39	1275.40
627.73	1268.02
628.08	1260.97
628.43	1253.53
628.77	1246.19
629.12	1238.67
629.46	1231.53
629.81	1224.19
630.15	1216.94
630.50	1209.46
630.84	1201.22
631.19	1193.42
631.53	1185.90
631.88	1178.38
632.22	1170.76
632.57	1163.48
632.91	1155.98
633.26	1148.67
633.60	1141.51
633.95	1134.47
634.29	1127.55
634.64	1120.87
634.98	1113.48
635.32	1106.45
635.67	1099.95
636.01	1093.22
636.36	1086.57
636.70	1080.13
637.05	1073.60
637.39	1067.23
637.73	1060.69
638.08	1054.94
638.42	1048.92
638.77	1042.51
639.11	1035.91
639.45	1029.55
639.80	1022.93
640.14	1016.48
640.49	1009.93
640.83	1003.54
641.17	997.23
641.52	990.90
641.86	984.60
642.20	978.87
642.55	972.60
642.89	966.15
643.23	959.64
643.58	953.77
643.92	947.55
644.26	941.37
644.61	935.39
644.95	929.42
645.29	922.79
645.64	916.12
645.98	909.88
646.32	904.14
646.66	898.22
647.01	892.30
647.35	886.66
647.69	880.90
648.04	875.50
648.38	869.81
648.72	863.74
649.06	857.67
649.41	851.74
649.75	845.70
650.09	839.75
650.43	834.07
650.78	827.93
651.12	821.98
651.46	816.31
651.80	810.50
652.14	805.09
652.49	799.72
652.83	794.53
653.17	788.79
653.51	783.05
653.85	777.66
654.20	772.07
654.54	766.09
654.88	760.34
655.22	754.44
655.56	748.74
655.90	743.35
656.25	738.10
656.59	732.75
656.93	727.69
657.27	722.57
657.61	717.10
657.95	712.03
658.29	706.93
658.64	701.73
658.98	696.47
659.32	691.10
659.66	685.88
660.00	680.56
660.34	675.66
660.68	670.78
661.02	665.75
661.36	661.15
661.70	656.72
662.05	652.41
662.39	648.04
662.73	643.60
663.07	639.25
663.41	634.79
663.75	630.32
664.09	625.83
664.43	621.42
664.77	617.39
665.11	613.17
665.45	609.07
665.79	605.03
666.13	601.02
666.47	596.91
666.81	592.79
667.15	588.71
667.49	584.90
667.83	581.17
668.17	577.23
668.51	573.09
668.85	569.11
669.19	565.23
669.53	561.41
669.87	557.60
670.21	553.95
670.55	550.36
670.89	546.92
671.23	543.50
671.57	540.04
671.91	536.47
672.25	532.98
672.58	529.50
672.92	526.13
673.26	522.86
673.60	519.72
673.94	516.64
674.28	513.74
674.62	510.80
674.96	507.67
675.30	504.81
675.64	501.95
675.97	499.20
676.31	496.43
676.65	493.55
676.99	490.82
677.33	488.00
677.67	485.15
678.01	482.20
678.34	479.21
678.68	476.38
679.02	473.59
679.36	470.91
679.70	468.21
680.04	465.44
680.37	462.63
680.71	459.87
681.05	457.29
681.39	454.61
681.73	451.92
682.06	449.43
682.40	446.88
682.74	444.38
683.08	441.79
683.42	439.13
683.75	436.65
684.09	434.15
684.43	431.66
684.77	429.22
685.10	426.84
685.44	424.59
685.78	422.32
686.12	420.13
686.45	417.79
686.79	415.51
687.13	413.34
687.46	411.18
687.80	409.06
688.14	406.89
688.48	404.89
688.81	402.63
689.15	400.46
689.49	398.32
689.82	396.21
690.16	394.14
690.50	392.18
690.83	390.24
691.17	388.22
691.51	386.36
691.84	384.58
692.18	382.65
692.52	380.63
692.85	378.67
693.19	376.82
693.52	375.10
693.86	373.31
694.20	371.52
694.53	369.74
694.87	367.92
695.21	366.13
695.54	364.25
695.88	362.55
696.21	360.84
696.55	359.20
696.88	357.54
697.22	355.91
697.56	354.35
697.89	352.66
698.23	351.04
698.56	349.39
698.90	347.76
699.23	346.15
699.57	344.67
699.90	343.13
700.24	341.55
700.58	339.95
700.91	338.46
701.25	337.01
701.58	335.65
701.92	334.31
702.25	332.91
702.59	331.58
702.92	330.25
703.26	328.98
703.59	327.70
703.93	326.55
704.26	325.33
704.60	324.07
704.93	322.84
705.26	321.62
705.60	320.46
705.93	319.33
706.27	318.31
706.60	317.25
706.94	316.17
707.27	315.07
707.61	314.03
707.94	312.99
708.27	311.90
708.61	310.80
708.94	309.79
709.28	308.83
709.61	307.89
709.94	306.96
710.28	305.93
710.61	304.93
710.95	303.84
711.28	302.93
711.61	301.94
711.95	301.01
712.28	300.08
712.61	299.13
712.95	298.21
713.28	297.32
713.61	296.43
713.95	295.56
714.28	294.70
714.61	293.84
714.95	293.01
715.28	292.18
715.61	291.32
715.95	290.46
716.28	289.60
716.61	288.80
716.95	287.98
717.28	287.23
717.61	286.52
717.94	285.81
718.28	284.99
718.61	284.29
718.94	283.58
719.27	282.92
719.61	282.23
719.94	281.57
720.27	280.86
720.60	280.17
720.94	279.53
721.27	278.95
721.60	278.42
721.93	277.82
722.27	277.29
722.60	276.77
722.93	276.20
723.26	275.66
723.59	275.06
723.93	274.52
724.26	273.95
724.59	273.32
724.92	272.81
725.25	272.33
725.59	271.75
725.92	271.29
726.25	270.77
726.58	270.32
726.91	269.81
727.24	269.32
727.57	268.86
727.91	268.35
728.24	267.85
728.57	267.32
728.90	266.91
729.23	266.34
729.56	265.90
729.89	265.43
730.22	264.94
730.55	264.50
730.89	264.03
731.22	263.60
731.55	263.23
731.88	262.80
732.21	262.36
732.54	262.00
732.87	261.56
733.20	261.17
733.53	260.79
733.86	260.39
734.19	260.01
734.52	259.63
734.85	259.34
735.18	258.96
735.51	258.61
735.84	258.22
736.17	257.92
736.50	257.52
736.83	257.32
737.16	257.01
737.49	256.64
737.82	256.31
738.15	256.00
738.48	255.64
738.81	255.26
739.14	254.96
739.47	254.62
739.80	254.29
740.13	253.97
740.46	253.59
740.79	253.31
741.12	252.99
741.45	252.67
741.78	252.31
742.11	252.01
742.44	251.66
742.77	251.38
743.10	251.07
743.43	250.75
743.75	250.33
744.08	250.19
744.41	249.90
744.74	249.62
745.07	249.34
745.40	249.08
745.73	248.85
746.06	248.55
746.39	248.28
746.71	248.03
747.04	247.75
747.37	247.53
747.70	247.25
748.03	246.99
748.36	246.75
748.68	246.50
749.01	246.28
749.34	246.08
749.67	245.81
750.00	245.59
750.33	245.46
750.65	245.25
750.98	244.90
751.31	244.71
751.64	244.54
751.97	244.37
752.29	244.15
752.62	243.91
752.95	243.69
753.28	243.51
753.60	243.28
753.93	243.16
754.26	242.96
754.59	242.73
754.91	242.54
755.24	242.36
755.57	242.20
755.90	241.96
756.22	241.76
756.55	241.58
756.88	241.36
757.20	241.13
757.53	240.95
757.86	240.78
758.19	240.67
758.51	240.48
758.84	240.27
759.17	240.12
759.49	239.95
759.82	239.86
760.15	239.72
760.47	239.57
760.80	239.35
761.13	239.22
761.45	239.07
761.78	238.95
762.11	238.80
762.43	238.65
762.76	238.55
763.08	238.40
763.41	238.29
763.74	238.19
764.06	238.04
764.39	237.89
764.71	237.74
765.04	237.53
765.37	237.42
765.69	237.28
766.02	237.14
766.34	237.05
766.67	236.87
767.00	236.77
767.32	236.71
767.65	236.63
767.97	236.51
768.30	236.41
768.62	236.31
768.95	236.19
769.27	236.08
769.60	235.96
769.92	235.85
770.25	235.75
770.57	235.66
770.90	235.60
771.22	235.50
771.55	235.43
771.87	235.35
772.20	235.24
772.52	235.25
772.85	235.29
773.17	235.20
773.50	235.12
773.82	235.00
774.15	234.87
774.47	234.73
774.80	234.63
775.12	234.53
775.45	234.46
775.77	234.41
776.09	234.34
776.42	234.28
776.74	234.24
777.07	234.12
777.39	234.02
777.72	233.94
778.04	233.90
778.36	233.81
778.69	233.75
779.01	233.70
779.33	233.55
779.66	233.36
779.98	233.29
780.31	233.22
780.63	233.18
780.95	233.10
781.28	233.05
781.60	232.99
781.92	232.93
782.25	232.84
782.57	232.75
782.89	232.66
783.22	232.58
783.54	232.47
783.86	232.44
784.19	232.34
784.51	232.30
784.83	232.22
785.16	232.17
785.48	232.10
785.80	232.07
786.12	232.03
786.45	231.99
786.77	231.91
787.09	231.86
787.42	231.81
787.74	231.81
788.06	231.76
788.38	231.71
788.71	231.64
789.03	231.61
789.35	231.60
789.67	231.55
789.99	231.52
790.32	231.47
790.64	231.42
790.96	231.51
791.28	231.44
791.61	231.39
791.93	231.34
792.25	231.29
792.57	231.28
792.89	231.21
793.21	231.16
793.54	231.14
793.86	231.08
794.18	231.04
794.50	230.95
794.82	230.94
795.14	230.93
795.47	230.94
795.79	230.90
796.11	230.86
796.43	230.84
796.75	230.83
797.07	230.84
797.39	230.81
797.71	230.69
798.04	230.66
798.36	230.62
798.68	230.61
799.00	230.62
799.32	230.56
799.64	230.55
799.96	230.52
800.28	230.51
800.60	230.50
800.92	230.47
801.24	230.46
801.56	230.44
801.89	230.40
802.21	230.36
802.53	230.33
802.85	230.31
803.17	230.31
803.49	230.25
803.81	230.20
804.13	230.17
804.45	230.12
804.77	230.10
805.09	230.09
805.41	230.07
805.73	230.02
806.05	229.98
806.37	229.97
806.69	229.93
807.01	229.92
807.33	229.88
807.65	229.82
807.97	229.82
808.28	229.79
808.60	229.79
808.92	229.76
809.24	229.79
809.56	229.77
809.88	229.75
810.20	229.74
810.52	229.72
810.84	229.70
811.16	229.70
811.48	229.73
811.80	229.72
812.12	229.66
812.43	229.66
812.75	229.61
813.07	229.60
813.39	229.59
813.71	229.54
814.03	229.51
814.35	229.52
814.67	229.45
814.98	229.42
815.30	229.38
815.62	229.32
815.94	229.25
816.26	229.24
816.58	229.15
816.89	229.16
817.21	229.13
817.53	229.09
817.85	229.06
818.17	228.98
818.48	228.93
818.80	228.92
819.12	228.85
819.44	228.86
819.76	228.76
820.07	228.73
820.39	228.67
820.71	228.67
821.03	228.64
821.34	228.61
821.66	228.57
821.98	228.53
822.30	228.50
822.61	228.52
822.93	228.45
823.25	228.45
823.57	228.37
823.88	228.38
824.20	228.36
824.52	228.34
824.83	228.34
825.15	228.31
825.47	228.27
825.79	228.27
826.10	228.22
826.42	228.23
826.74	228.25
827.05	228.21
827.37	228.18
827.69	228.16
828.00	228.17
828.32	228.15
828.64	228.12
828.95	228.20
829.27	228.16
829.58	228.17
829.90	228.16
830.22	228.18
830.53	228.12
830.85	228.07
831.17	228.02
831.48	228.02
831.80	228.02
832.11	228.02
832.43	228.03
832.75	228.02
833.06	228.06
833.38	228.02
833.69	228.07
834.01	228.08
834.32	228.06
834.64	228.07
834.96	228.09
835.27	228.11
835.59	228.06
835.90	228.04
836.22	228.03
836.53	228.02
836.85	228.00
837.16	228.11
837.48	228.15
837.79	228.23
838.11	228.25
838.42	228.24
838.74	228.29
839.05	228.27
839.37	228.28
839.68	228.23
840.00	228.25
840.31	228.25
840.63	228.26
840.94	228.28
841.26	228.26
841.57	228.25
841.88	228.27
842.20	228.30
842.51	228.28
842.83	228.26
843.14	228.36
843.46	228.37
843.77	228.31
844.08	228.29
844.40	228.25
844.71	228.18
845.03	228.19
845.34	228.20
845.65	228.18
845.97	228.17
846.28	228.20
846.60	228.19
846.91	228.16
847.22	228.19
847.54	228.21
847.85	228.23
848.16	228.22
848.48	228.18
848.79	228.21
849.10	228.24
849.42	228.28
849.73	228.19
850.04	228.18
850.36	228.16
850.67	228.17
850.98	228.18
851.30	228.20
851.61	228.18
851.92	228.15
852.23	228.18
852.55	228.21
852.86	228.18
853.17	228.15
853.49	228.19
853.80	228.15
854.11	228.13
854.42	228.12
854.74	228.10
855.05	228.10
855.36	227.99
855.67	227.96
855.99	227.92
856.30	228.00
856.61	228.00
856.92	227.98
857.23	227.97
857.55	227.92
857.86	227.94
858.17	227.96
858.48	227.92
858.79	227.91
859.11	227.86
859.42	227.85
859.73	227.81
860.04	227.74
860.35	227.70
860.66	227.69
860.98	227.66
861.29	227.66
861.60	227.66
861.91	227.70
862.22	227.70
862.53	227.65
862.84	227.57
863.16	227.55
863.47	227.53
863.78	227.51
864.09	227.51
864.40	227.50
864.71	227.47
865.02	227.49
865.33	227.42
865.64	227.42
865.95	227.38
866.27	227.46
866.58	227.47
866.89	227.47
867.20	227.43
867.51	227.44
867.82	227.41
868.13	227.43
868.44	227.39
868.75	227.38
869.06	227.37
869.37	227.37
869.68	227.35
869.99	227.34
870.30	227.37
870.61	227.40
870.92	227.35
871.23	227.34
871.54	227.33
871.85	227.38
872.16	227.39
872.47	227.41
872.78	227.37
873.09	227.41
873.40	227.40
873.71	227.41
874.02	227.40
874.33	227.40
874.64	227.39
874.95	227.44
875.26	227.39
875.56	227.41
875.87	227.41
876.18	227.43
876.49	227.54
876.80	227.54
877.11	227.50
877.42	227.54
877.73	227.53
878.04	227.54
878.35	227.58
878.66	227.60
878.96	227.60
879.27	227.59
879.58	227.57
879.89	227.57
880.20	227.63
880.51	227.63
880.82	227.63
881.12	227.62
881.43	227.59
881.74	227.61
882.05	227.63
882.36	227.64
882.67	227.64
882.97	227.57
883.28	227.54
883.59	227.57
883.90	227.56
884.21	227.60
884.51	227.60
884.82	227.57
885.13	227.55
885.44	227.56
885.74	227.57
886.05	227.54
886.36	227.54
886.67	227.50
886.98	227.53
887.28	227.54
887.59	227.53
887.90	227.53
888.20	227.55
888.51	227.56
888.82	227.52
889.13	227.50
889.43	227.53
889.74	227.54
890.05	227.50
890.35	227.47
890.66	227.40
890.97	227.39
891.28	227.38
891.58	227.33
891.89	227.31
892.20	227.26
892.50	227.26
892.81	227.26
893.12	227.24
893.42	227.18
893.73	227.15
894.04	227.14
894.34	227.13
894.65	227.14
894.95	227.12
895.26	227.12
895.57	227.16
895.87	227.07
896.18	227.07
896.48	227.08
896.79	227.10
897.10	227.12
897.40	227.10
897.71	227.09
898.01	227.10
898.32	227.11
898.63	227.13
898.93	227.13
899.24	227.13
899.54	227.12
899.85	227.13
900.15	227.15
900.46	227.15
900.76	227.17
901.07	227.14
901.38	227.13
901.68	227.13
901.99	227.11
902.29	227.13
902.60	227.16
902.90	227.15
903.21	227.15
903.51	227.14
903.82	227.15
904.12	227.17
904.43	227.18
904.73	227.17
905.03	227.19
905.34	227.29
905.64	227.27
905.95	227.29
906.25	227.30
906.56	227.29
906.86	227.31
907.17	227.31
907.47	227.31
907.77	227.30
908.08	227.30
908.38	227.28
908.69	227.32
908.99	227.30
909.30	227.31
909.60	227.30
909.90	227.29
910.21	227.28
910.51	227.26
910.81	227.26
911.12	227.27
911.42	227.26
911.73	227.16
912.03	227.17
912.33	227.18
912.64	227.21
912.94	227.22
913.24	227.21
913.55	227.20
913.85	227.20
914.15	227.25
914.46	227.27
914.76	227.26
915.06	227.23
915.37	227.23
915.67	227.25
915.97	227.23
916.27	227.27
916.58	227.29
916.88	227.30
917.18	227.29
917.49	227.36
917.79	227.37
918.09	227.40
918.39	227.45
918.70	227.45
919.00	227.45
919.30	227.51
919.60	227.49
919.91	227.49
920.21	227.53
920.51	227.46
920.81	227.44
921.12	227.47
921.42	227.46
921.72	227.48
922.02	227.49
922.32	227.50
922.63	227.48
922.93	227.51
923.23	227.52
923.53	227.51
923.83	227.43
924.13	227.41
924.44	227.39
924.74	227.40
925.04	227.43
925.34	227.40
925.64	227.33
925.94	227.34
926.24	227.37
926.55	227.35
926.85	227.37
927.15	227.38
927.45	227.39
927.75	227.41
928.05	227.37
928.35	227.34
928.65	227.38
928.95	227.36
929.26	227.33
929.56	227.34
929.86	227.33
930.16	227.34
930.46	227.33
930.76	227.30
931.06	227.22
931.36	227.19
931.66	227.18
931.96	227.19
932.26	227.16
932.56	227.10
932.86	227.11
933.16	227.10
933.46	227.04
933.76	227.00
934.06	226.98
934.36	226.99
934.66	226.98
934.96	226.94
935.26	226.92
935.56	226.92
935.86	226.88
936.16	226.88
936.46	226.85
936.76	226.82
937.06	226.85
937.36	226.86
937.66	226.87
937.96	226.87
938.26	226.82
938.56	226.83
938.86	226.82
939.16	226.83
939.46	226.84
939.76	226.88
940.06	226.89
940.35	226.88
940.65	226.87
940.95	226.89
941.25	226.86
941.55	226.86
941.85	226.84
942.15	226.86
942.45	226.88
942.75	226.89
943.04	226.94
943.34	226.94
943.64	226.92
943.94	226.90
944.24	226.92
944.54	226.94
944.84	226.96
945.13	226.99
945.43	227.00
945.73	227.00
946.03	227.00
946.33	226.99
946.62	227.01
946.92	227.03
947.22	227.03
947.52	227.06
947.82	227.12
948.11	227.13
948.41	227.11
948.71	227.10
949.01	227.14
949.31	227.13
949.60	227.15
949.90	227.22
950.20	227.25
950.50	227.26
950.79	227.31
951.09	227.32
951.39	227.33
951.69	227.32
951.98	227.35
952.28	227.38
952.58	227.38
952.87	227.39
953.17	227.39
953.47	227.43
953.76	227.46
954.06	227.43
954.36	227.45
954.66	227.48
954.95	227.50
955.25	227.53
955.55	227.55
955.84	227.53
956.14	227.53
956.44	227.52
956.73	227.49
957.03	227.47
957.32	227.48
957.62	227.47
957.92	227.48
958.21	227.48
958.51	227.57
958.81	227.58
959.10	227.59
959.40	227.61
959.69	227.59
959.99	227.61
960.29	227.59
960.58	227.61
960.88	227.62
961.17	227.63
961.47	227.60
961.76	227.58
962.06	227.58
962.36	227.56
962.65	227.57
962.95	227.58
963.24	227.57
963.54	227.56
963.83	227.56
964.13	227.52
964.42	227.48
964.72	227.42
965.01	227.41
965.31	227.36
965.60	227.33
965.90	227.39
966.19	227.33
966.49	227.32
966.78	227.24
967.08	227.22
967.37	227.21
967.67	227.17
967.96	227.16
968.26	227.12
968.55	227.11
968.85	227.08
969.14	227.05
969.43	227.02
969.73	226.97
970.02	226.93
970.32	226.92
970.61	226.90
970.91	226.82
971.20	226.79
971.49	226.74
971.79	226.73
972.08	226.60
972.38	226.61
972.67	226.61
972.96	226.65
973.26	226.62
973.55	226.63
973.85	226.60
974.14	226.60
974.43	226.62
974.73	226.61
975.02	226.61
975.31	226.63
975.61	226.62
975.90	226.63
976.19	226.63
976.49	226.62
976.78	226.63
977.07	226.62
977.37	226.66
977.66	226.71
977.95	226.70
978.24	226.73
978.54	226.77
978.83	226.75
979.12	226.72
979.42	226.73
979.71	226.71
980.00	226.71
980.29	226.71
980.59	226.72
980.88	226.72
981.17	226.70
981.46	226.69
981.76	226.72
982.05	226.77
982.34	226.81
982.63	226.82
982.93	226.83
983.22	226.88
983.51	226.87
983.80	226.90
984.09	226.91
984.39	226.91
984.68	226.92
984.97	226.94
985.26	226.94
985.55	226.97
985.85	226.94
986.14	227.01
986.43	227.02
986.72	227.03
987.01	227.04
987.30	227.07
987.59	227.07
987.89	227.07
988.18	227.03
988.47	227.02
988.76	227.05
989.05	227.05
989.34	227.06
989.63	227.11
989.92	227.11
990.22	227.10
990.51	227.14
990.80	227.12
991.09	227.14
991.38	227.19
991.67	227.21
991.96	227.23
992.25	227.21
992.54	227.22
992.83	227.22
993.12	227.21
993.41	227.22
993.70	227.29
993.99	227.33
994.28	227.38
994.58	227.39
994.87	227.34
995.16	227.36
995.45	227.33
995.74	227.30
996.03	227.30
996.32	227.31
996.61	227.32
996.90	227.32
997.19	227.32
997.48	227.30
997.77	227.26
998.06	227.24
998.34	227.21
998.63	227.16
998.92	227.13
999.21	227.15
999.50	227.15
999.79	227.08
1000.08	227.05
1000.37	226.99
1000.66	226.97
1000.95	227.00
1001.24	226.97
1001.53	226.98
1001.82	226.98
1002.11	226.97
1002.40	226.99
1002.68	227.01
1002.97	227.08
1003.26	227.06
1003.55	227.05
1003.84	227.05
1004.13	227.07
1004.42	227.08
1004.71	227.05
1004.99	227.05
1005.28	227.05
1005.57	227.03
1005.86	227.06
1006.15	227.06
1006.44	227.09
1006.72	227.09
1007.01	227.08
1007.30	227.07
1007.59	227.07
1007.88	227.02
1008.17	227.03
1008.45	227.01
1008.74	226.94
1009.03	226.88
1009.32	226.87
1009.60	226.86
1009.89	226.84
1010.18	226.83
1010.47	226.83
1010.76	226.86
1011.04	226.90
1011.33	226.91
1011.62	226.90
1011.91	226.89
1012.19	226.90
1012.48	226.85
1012.77	226.86
1013.05	226.91
1013.34	226.90
1013.63	226.89
1013.92	226.93
1014.20	226.91
1014.49	226.91
1014.78	226.91
1015.06	226.92
1015.35	226.95
1015.64	226.97
1015.92	227.01
1016.21	227.01
1016.50	227.01
1016.78	227.03
1017.07	227.03
1017.36	227.02
1017.64	227.04
1017.93	227.06
1018.22	227.05
1018.50	227.05
1018.79	227.07
1019.08	227.05
1019.36	227.09
1019.65	227.08
1019.93	227.09
1020.22	227.10
1020.51	227.15
1020.79	227.16
1021.08	226.95
1021.36	226.26
1021.65	227.51
1021.94	227.51
1022.22	227.14
1022.51	226.77
1022.79	227.40
1023.08	226.81
1023.36	228.09
1023.65	227.11
>>>>>End Processed Spectral Data<<<<<
