SpectraSuite Data File
++++++++++++++++++++++++++++++++++++
Date: Fri Feb 01 16:46:50 EST 2013
User: group
Dark Spectrum Present: No
Reference Spectrum Present: No
Number of Sampled Component Spectra: 1
Spectrometers: USB2E7196
Integration Time (usec): 35000 (USB2E7196)
Spectra Averaged: 100 (USB2E7196)
Boxcar Smoothing: 10 (USB2E7196)
Correct for Electrical Dark: No (USB2E7196)
Strobe/Lamp Enabled: No (USB2E7196)
Correct for Detector Non-linearity: No (USB2E7196)
Correct for Stray Light: No (USB2E7196)
Number of Pixels in Processed Spectrum: 2048
>>>>>Begin Processed Spectral Data<<<<<
339.09	0.00
339.48	213.30
339.86	215.59
340.24	216.40
340.63	217.73
341.01	220.96
341.39	220.61
341.78	221.40
342.16	222.76
342.54	223.14
342.93	211.89
343.31	222.61
343.69	223.15
344.07	223.59
344.46	224.03
344.84	224.40
345.22	224.61
345.60	224.84
345.99	225.02
346.37	225.18
346.75	225.27
347.13	225.31
347.52	225.31
347.90	225.38
348.28	225.42
348.66	225.46
349.05	225.50
349.43	225.51
349.81	225.51
350.19	225.53
350.57	225.58
350.96	225.64
351.34	225.70
351.72	225.78
352.10	225.86
352.48	225.91
352.87	225.94
353.25	225.99
353.63	226.01
354.01	226.12
354.39	226.18
354.77	226.26
355.15	226.40
355.54	226.47
355.92	226.51
356.30	226.55
356.68	226.66
357.06	226.74
357.44	226.80
357.82	226.89
358.20	226.97
358.58	227.07
358.97	227.15
359.35	227.25
359.73	227.33
360.11	227.40
360.49	227.45
360.87	227.53
361.25	227.61
361.63	227.73
362.01	227.74
362.39	227.75
362.77	227.80
363.15	227.83
363.53	227.89
363.91	227.89
364.29	227.92
364.67	227.83
365.05	227.81
365.43	227.86
365.81	227.90
366.19	227.94
366.57	227.97
366.95	227.96
367.33	227.91
367.71	227.90
368.09	227.90
368.47	227.89
368.85	227.89
369.23	227.91
369.61	227.85
369.99	227.89
370.37	227.88
370.75	227.90
371.13	227.82
371.51	227.76
371.89	227.80
372.27	227.78
372.65	227.78
373.03	227.77
373.41	227.73
373.78	227.68
374.16	227.60
374.54	227.50
374.92	227.42
375.30	227.39
375.68	227.31
376.06	227.24
376.44	227.16
376.82	227.11
377.19	227.01
377.57	226.94
377.95	226.84
378.33	226.74
378.71	226.63
379.09	226.61
379.47	226.55
379.84	226.44
380.22	226.36
380.60	226.28
380.98	226.21
381.36	226.12
381.73	226.03
382.11	225.99
382.49	225.93
382.87	225.87
383.25	225.82
383.62	225.86
384.00	225.79
384.38	225.78
384.76	225.74
385.13	225.75
385.51	225.71
385.89	225.66
386.27	225.63
386.64	225.61
387.02	225.54
387.40	225.49
387.78	225.45
388.15	225.43
388.53	225.38
388.91	225.32
389.29	225.27
389.66	225.29
390.04	225.22
390.42	225.20
390.79	225.20
391.17	225.17
391.55	225.06
391.92	225.02
392.30	225.00
392.68	224.94
393.05	224.91
393.43	224.89
393.81	224.90
394.18	224.88
394.56	224.86
394.94	224.88
395.31	224.92
395.69	224.97
396.06	225.01
396.44	225.07
396.82	225.09
397.19	225.18
397.57	225.13
397.95	225.23
398.32	225.27
398.70	225.29
399.07	225.36
399.45	225.39
399.82	225.46
400.20	225.44
400.58	225.53
400.95	225.57
401.33	225.64
401.70	225.79
402.08	225.87
402.45	225.99
402.83	226.10
403.20	226.14
403.58	226.23
403.95	226.32
404.33	226.38
404.71	226.52
405.08	226.67
405.46	226.80
405.83	226.90
406.21	227.02
406.58	227.21
406.96	227.36
407.33	227.53
407.70	227.73
408.08	228.07
408.45	228.26
408.83	228.44
409.20	228.67
409.58	228.84
409.95	229.12
410.33	229.38
410.70	229.61
411.08	229.92
411.45	230.21
411.82	230.53
412.20	230.93
412.57	231.33
412.95	231.64
413.32	232.08
413.69	232.47
414.07	232.92
414.44	233.40
414.82	233.84
415.19	234.42
415.56	234.99
415.94	235.50
416.31	236.14
416.68	236.79
417.06	237.49
417.43	238.14
417.81	238.91
418.18	239.65
418.55	240.51
418.93	241.41
419.30	242.29
419.67	243.25
420.04	244.17
420.42	245.14
420.79	246.32
421.16	247.50
421.54	248.71
421.91	249.91
422.28	251.16
422.66	252.53
423.03	253.83
423.40	255.12
423.77	256.54
424.15	257.96
424.52	259.48
424.89	261.09
425.26	262.65
425.64	264.08
426.01	265.69
426.38	267.33
426.75	269.00
427.13	270.74
427.50	272.52
427.87	274.41
428.24	276.28
428.61	277.96
428.99	279.86
429.36	281.95
429.73	284.02
430.10	286.00
430.47	288.02
430.85	290.11
431.22	292.31
431.59	294.67
431.96	296.88
432.33	299.32
432.70	301.66
433.08	304.43
433.45	307.03
433.82	309.61
434.19	312.47
434.56	315.24
434.93	317.82
435.30	320.42
435.68	323.28
436.05	326.12
436.42	328.94
436.79	331.42
437.16	334.14
437.53	336.92
437.90	339.68
438.27	342.41
438.64	345.21
439.01	347.81
439.38	350.08
439.75	352.22
440.13	354.67
440.50	356.98
440.87	358.82
441.24	360.76
441.61	362.89
441.98	364.36
442.35	366.10
442.72	367.96
443.09	369.71
443.46	370.67
443.83	371.22
444.20	371.68
444.57	372.52
444.94	372.73
445.31	373.09
445.68	373.48
446.05	373.55
446.42	373.18
446.79	372.74
447.16	372.24
447.53	371.97
447.90	370.85
448.27	369.67
448.64	368.08
449.01	366.96
449.37	365.02
449.74	363.17
450.11	361.02
450.48	358.61
450.85	356.13
451.22	354.00
451.59	352.00
451.96	350.06
452.33	347.48
452.70	345.19
453.07	342.36
453.43	339.48
453.80	336.76
454.17	334.13
454.54	331.63
454.91	328.97
455.28	326.28
455.65	323.84
456.02	321.47
456.38	319.38
456.75	316.77
457.12	314.57
457.49	312.32
457.86	310.17
458.23	308.31
458.59	306.32
458.96	304.31
459.33	302.51
459.70	300.71
460.07	299.25
460.43	297.55
460.80	295.99
461.17	294.57
461.54	293.06
461.91	291.63
462.27	290.19
462.64	288.93
463.01	287.64
463.38	286.38
463.74	285.05
464.11	283.94
464.48	282.93
464.85	281.82
465.21	280.97
465.58	280.09
465.95	278.98
466.32	278.09
466.68	277.21
467.05	276.32
467.42	275.41
467.78	274.52
468.15	273.63
468.52	272.92
468.88	272.12
469.25	271.37
469.62	270.76
469.98	270.16
470.35	269.56
470.72	268.93
471.08	268.25
471.45	267.72
471.82	267.15
472.18	266.52
472.55	266.11
472.92	265.61
473.28	265.15
473.65	264.73
474.02	264.29
474.38	263.88
474.75	263.54
475.11	263.23
475.48	262.95
475.85	262.78
476.21	262.61
476.58	262.43
476.94	262.29
477.31	262.12
477.67	261.92
478.04	261.80
478.41	261.75
478.77	261.81
479.14	261.76
479.50	261.78
479.87	261.86
480.23	261.93
480.60	262.03
480.96	262.11
481.33	262.36
481.69	262.55
482.06	262.75
482.42	262.98
482.79	263.20
483.15	263.52
483.52	263.89
483.88	264.23
484.25	264.57
484.61	264.98
484.98	265.43
485.34	265.97
485.71	266.55
486.07	267.15
486.44	267.69
486.80	268.36
487.17	269.07
487.53	269.90
487.90	270.76
488.26	271.66
488.62	272.64
488.99	273.58
489.35	274.62
489.72	275.72
490.08	276.91
490.44	278.16
490.81	279.47
491.17	280.78
491.54	282.24
491.90	283.82
492.26	285.47
492.63	287.21
492.99	289.01
493.36	290.89
493.72	292.94
494.08	295.04
494.45	297.29
494.81	299.69
495.17	302.11
495.54	304.68
495.90	307.35
496.26	310.10
496.63	313.06
496.99	316.16
497.35	319.44
497.72	322.86
498.08	326.37
498.44	330.05
498.80	334.01
499.17	338.08
499.53	342.19
499.89	346.59
500.26	351.07
500.62	355.75
500.98	360.70
501.34	365.77
501.71	371.09
502.07	376.52
502.43	382.12
502.79	387.96
503.16	394.02
503.52	400.29
503.88	406.74
504.24	413.39
504.60	420.27
504.97	427.37
505.33	434.65
505.69	442.37
506.05	450.21
506.41	458.07
506.78	466.18
507.14	474.63
507.50	483.29
507.86	492.36
508.22	501.54
508.59	510.76
508.95	520.27
509.31	530.06
509.67	540.13
510.03	550.34
510.39	560.85
510.75	571.58
511.12	582.51
511.48	593.74
511.84	605.17
512.20	616.68
512.56	628.63
512.92	640.82
513.28	653.13
513.64	665.46
514.00	678.11
514.37	691.02
514.73	704.06
515.09	717.09
515.45	730.26
515.81	743.79
516.17	757.65
516.53	771.76
516.89	785.85
517.25	799.91
517.61	814.24
517.97	828.63
518.33	843.02
518.69	857.69
519.05	872.60
519.41	887.69
519.77	903.08
520.13	918.37
520.49	933.58
520.85	948.89
521.21	964.48
521.57	980.56
521.93	996.17
522.29	1012.34
522.65	1028.50
523.01	1044.52
523.37	1060.36
523.73	1076.35
524.09	1092.18
524.45	1108.38
524.81	1124.96
525.17	1141.62
525.53	1158.31
525.89	1174.92
526.25	1191.53
526.61	1207.69
526.97	1224.13
527.33	1240.45
527.68	1256.83
528.04	1273.15
528.40	1289.41
528.76	1306.28
529.12	1322.72
529.48	1339.39
529.84	1355.22
530.20	1371.59
530.56	1388.43
530.91	1405.61
531.27	1422.28
531.63	1438.56
531.99	1454.82
532.35	1470.53
532.71	1486.28
533.07	1502.37
533.42	1518.15
533.78	1534.00
534.14	1550.06
534.50	1565.25
534.86	1580.89
535.21	1595.91
535.57	1611.67
535.93	1627.06
536.29	1641.59
536.65	1656.36
537.00	1671.01
537.36	1686.16
537.72	1700.50
538.08	1714.81
538.44	1728.39
538.79	1742.06
539.15	1755.64
539.51	1769.21
539.87	1783.48
540.22	1797.04
540.58	1810.57
540.94	1823.60
541.29	1836.18
541.65	1848.56
542.01	1861.62
542.37	1873.86
542.72	1886.09
543.08	1897.70
543.44	1909.93
543.79	1921.11
544.15	1932.07
544.51	1943.43
544.87	1954.31
545.22	1964.97
545.58	1975.02
545.94	1984.73
546.29	1994.38
546.65	2004.13
547.01	2013.43
547.36	2021.92
547.72	2030.25
548.07	2038.07
548.43	2046.13
548.79	2054.13
549.14	2061.82
549.50	2069.05
549.86	2076.51
550.21	2083.78
550.57	2090.92
550.92	2097.43
551.28	2104.38
551.64	2111.34
551.99	2117.79
552.35	2123.90
552.70	2129.97
553.06	2135.92
553.41	2142.23
553.77	2148.23
554.13	2154.19
554.48	2160.28
554.84	2165.88
555.19	2171.15
555.55	2176.33
555.90	2180.96
556.26	2186.02
556.61	2190.61
556.97	2194.97
557.32	2199.06
557.68	2203.25
558.03	2207.50
558.39	2211.19
558.74	2215.88
559.10	2219.68
559.45	2223.51
559.81	2227.79
560.16	2231.61
560.52	2234.82
560.87	2238.30
561.23	2240.99
561.58	2243.96
561.94	2246.44
562.29	2248.62
562.64	2251.40
563.00	2253.92
563.35	2257.29
563.71	2260.37
564.06	2263.73
564.42	2266.71
564.77	2269.27
565.12	2271.66
565.48	2273.73
565.83	2275.83
566.19	2277.19
566.54	2278.09
566.89	2279.20
567.25	2279.91
567.60	2281.32
567.96	2283.17
568.31	2284.02
568.66	2285.38
569.02	2286.07
569.37	2286.58
569.72	2287.63
570.08	2287.87
570.43	2288.00
570.78	2287.66
571.14	2286.14
571.49	2284.71
571.84	2284.39
572.20	2283.58
572.55	2282.63
572.90	2280.92
573.26	2279.59
573.61	2277.95
573.96	2276.42
574.31	2273.57
574.67	2270.55
575.02	2267.04
575.37	2263.65
575.72	2260.12
576.08	2256.71
576.43	2253.29
576.78	2249.76
577.13	2246.55
577.49	2243.24
577.84	2239.77
578.19	2236.10
578.54	2232.62
578.90	2228.63
579.25	2223.18
579.60	2218.28
579.95	2213.32
580.30	2208.46
580.66	2203.28
581.01	2198.40
581.36	2193.64
581.71	2189.66
582.06	2185.37
582.42	2181.03
582.77	2176.04
583.12	2171.46
583.47	2166.89
583.82	2162.16
584.17	2156.90
584.53	2151.61
584.88	2146.26
585.23	2140.75
585.58	2135.24
585.93	2129.90
586.28	2125.04
586.63	2120.08
586.98	2115.15
587.34	2110.39
587.69	2105.65
588.04	2100.54
588.39	2095.10
588.74	2088.67
589.09	2082.46
589.44	2075.73
589.79	2069.55
590.14	2063.88
590.49	2057.39
590.84	2051.04
591.19	2045.08
591.54	2038.65
591.89	2031.40
592.25	2024.89
592.60	2017.78
592.95	2010.60
593.30	2003.29
593.65	1995.90
594.00	1988.89
594.35	1981.65
594.70	1973.73
595.05	1966.61
595.40	1959.41
595.75	1951.88
596.10	1945.86
596.45	1939.31
596.80	1933.33
597.15	1927.05
597.50	1920.19
597.85	1913.68
598.19	1907.26
598.54	1900.44
598.89	1893.98
599.24	1888.22
599.59	1881.58
599.94	1875.37
600.29	1869.03
600.64	1862.61
600.99	1855.31
601.34	1848.58
601.69	1841.62
602.04	1835.00
602.39	1827.72
602.74	1821.04
603.08	1814.37
603.43	1807.62
603.78	1800.34
604.13	1793.33
604.48	1786.13
604.83	1779.21
605.18	1772.62
605.53	1764.73
605.87	1756.77
606.22	1749.64
606.57	1741.79
606.92	1734.41
607.27	1727.41
607.62	1720.53
607.96	1713.37
608.31	1707.02
608.66	1699.61
609.01	1692.15
609.36	1684.64
609.70	1676.68
610.05	1668.69
610.40	1661.28
610.75	1653.03
611.10	1645.48
611.44	1636.86
611.79	1628.88
612.14	1620.32
612.49	1611.07
612.83	1602.67
613.18	1594.56
613.53	1586.47
613.88	1577.90
614.22	1569.72
614.57	1561.02
614.92	1553.07
615.27	1545.53
615.61	1537.22
615.96	1529.07
616.31	1521.40
616.65	1514.09
617.00	1506.48
617.35	1498.79
617.70	1490.35
618.04	1481.86
618.39	1473.62
618.74	1466.08
619.08	1457.75
619.43	1450.20
619.78	1443.32
620.12	1436.14
620.47	1428.60
620.82	1420.36
621.16	1413.02
621.51	1405.35
621.85	1397.74
622.20	1389.29
622.55	1380.90
622.89	1372.92
623.24	1365.32
623.59	1358.02
623.93	1350.45
624.28	1343.31
624.62	1335.83
624.97	1328.72
625.32	1321.97
625.66	1314.93
626.01	1307.85
626.35	1300.55
626.70	1292.73
627.04	1285.04
627.39	1277.29
627.73	1269.86
628.08	1262.95
628.43	1255.61
628.77	1248.29
629.12	1240.79
629.46	1233.56
629.81	1226.10
630.15	1218.85
630.50	1211.52
630.84	1203.31
631.19	1195.36
631.53	1187.78
631.88	1180.15
632.22	1172.45
632.57	1165.17
632.91	1157.64
633.26	1150.28
633.60	1142.80
633.95	1135.65
634.29	1128.57
634.64	1121.87
634.98	1114.52
635.32	1107.41
635.67	1100.86
636.01	1094.19
636.36	1087.45
636.70	1080.84
637.05	1074.38
637.39	1067.97
637.73	1061.47
638.08	1055.63
638.42	1049.63
638.77	1043.28
639.11	1036.79
639.45	1030.47
639.80	1023.76
640.14	1017.39
640.49	1010.90
640.83	1004.69
641.17	998.59
641.52	992.35
641.86	985.97
642.20	980.18
642.55	973.83
642.89	967.40
643.23	960.91
643.58	955.16
643.92	949.06
644.26	943.09
644.61	937.10
644.95	931.15
645.29	924.72
645.64	918.05
645.98	911.71
646.32	905.85
646.66	899.87
647.01	894.13
647.35	888.47
647.69	882.55
648.04	877.01
648.38	871.21
648.72	865.20
649.06	859.13
649.41	853.27
649.75	847.33
650.09	841.36
650.43	835.61
650.78	829.45
651.12	823.49
651.46	817.63
651.80	811.92
652.14	806.55
652.49	801.12
652.83	795.93
653.17	790.27
653.51	784.60
653.85	779.08
654.20	773.40
654.54	767.37
654.88	761.72
655.22	755.76
655.56	750.07
655.90	744.59
656.25	739.33
656.59	733.94
656.93	728.94
657.27	723.77
657.61	718.33
657.95	713.19
658.29	708.14
658.64	702.88
658.98	697.54
659.32	692.01
659.66	686.84
660.00	681.54
660.34	676.58
660.68	671.73
661.02	666.78
661.36	662.12
661.70	657.61
662.05	653.22
662.39	648.93
662.73	644.43
663.07	640.08
663.41	635.59
663.75	631.10
664.09	626.52
664.43	622.15
664.77	618.02
665.11	613.79
665.45	609.60
665.79	605.58
666.13	601.43
666.47	597.33
666.81	593.10
667.15	588.96
667.49	585.05
667.83	581.18
668.17	577.24
668.51	573.17
668.85	569.11
669.19	565.20
669.53	561.35
669.87	557.52
670.21	553.79
670.55	550.16
670.89	546.74
671.23	543.35
671.57	539.84
671.91	536.36
672.25	532.80
672.58	529.31
672.92	525.82
673.26	522.65
673.60	519.56
673.94	516.48
674.28	513.55
674.62	510.61
674.96	507.47
675.30	504.53
675.64	501.64
675.97	498.91
676.31	496.09
676.65	493.20
676.99	490.51
677.33	487.66
677.67	484.89
678.01	481.85
678.34	478.88
678.68	475.96
679.02	473.11
679.36	470.39
679.70	467.70
680.04	465.02
680.37	462.20
680.71	459.34
681.05	456.73
681.39	454.01
681.73	451.34
682.06	448.83
682.40	446.31
682.74	443.73
683.08	441.18
683.42	438.54
683.75	436.04
684.09	433.49
684.43	431.01
684.77	428.55
685.10	426.17
685.44	423.81
685.78	421.52
686.12	419.28
686.45	417.00
686.79	414.68
687.13	412.53
687.46	410.31
687.80	408.18
688.14	406.00
688.48	403.99
688.81	401.81
689.15	399.63
689.49	397.48
689.82	395.45
690.16	393.39
690.50	391.47
690.83	389.51
691.17	387.50
691.51	385.60
691.84	383.78
692.18	381.91
692.52	379.97
692.85	378.05
693.19	376.16
693.52	374.30
693.86	372.49
694.20	370.66
694.53	368.89
694.87	367.05
695.21	365.21
695.54	363.33
695.88	361.57
696.21	359.82
696.55	358.13
696.88	356.44
697.22	354.74
697.56	353.08
697.89	351.41
698.23	349.78
698.56	348.20
698.90	346.58
699.23	344.95
699.57	343.38
699.90	341.87
700.24	340.32
700.58	338.77
700.91	337.29
701.25	335.86
701.58	334.46
701.92	333.07
702.25	331.67
702.59	330.32
702.92	329.01
703.26	327.72
703.59	326.43
703.93	325.24
704.26	324.00
704.60	322.75
704.93	321.51
705.26	320.34
705.60	319.12
705.93	317.94
706.27	316.87
706.60	315.84
706.94	314.74
707.27	313.65
707.61	312.60
707.94	311.57
708.27	310.45
708.61	309.36
708.94	308.33
709.28	307.38
709.61	306.45
709.94	305.54
710.28	304.51
710.61	303.56
710.95	302.43
711.28	301.51
711.61	300.53
711.95	299.58
712.28	298.59
712.61	297.62
712.95	296.67
713.28	295.76
713.61	294.84
713.95	293.92
714.28	293.06
714.61	292.18
714.95	291.35
715.28	290.50
715.61	289.61
715.95	288.77
716.28	287.92
716.61	287.08
716.95	286.23
717.28	285.52
717.61	284.70
717.94	283.98
718.28	283.19
718.61	282.47
718.94	281.81
719.27	281.17
719.61	280.48
719.94	279.87
720.27	279.16
720.60	278.50
720.94	277.89
721.27	277.30
721.60	276.77
721.93	276.19
722.27	275.61
722.60	275.07
722.93	274.50
723.26	273.95
723.59	273.41
723.93	272.87
724.26	272.26
724.59	271.71
724.92	271.18
725.25	270.68
725.59	270.17
725.92	269.61
726.25	269.07
726.58	268.60
726.91	268.09
727.24	267.62
727.57	267.15
727.91	266.61
728.24	266.12
728.57	265.57
728.90	265.14
729.23	264.71
729.56	264.31
729.89	263.85
730.22	263.37
730.55	262.88
730.89	262.43
731.22	262.00
731.55	261.57
731.88	261.16
732.21	260.74
732.54	260.28
732.87	259.89
733.20	259.48
733.53	259.09
733.86	258.70
734.19	258.33
734.52	257.92
734.85	257.66
735.18	257.26
735.51	256.94
735.84	256.51
736.17	256.15
736.50	255.70
736.83	255.49
737.16	255.15
737.49	254.80
737.82	254.43
738.15	254.11
738.48	253.80
738.81	253.47
739.14	253.16
739.47	252.85
739.80	252.57
740.13	252.29
740.46	251.98
740.79	251.65
741.12	251.35
741.45	251.06
741.78	250.70
742.11	250.41
742.44	250.09
742.77	249.85
743.10	249.50
743.43	249.24
743.75	248.81
744.08	248.70
744.41	248.45
744.74	248.19
745.07	247.94
745.40	247.69
745.73	247.50
746.06	247.21
746.39	246.96
746.71	246.66
747.04	246.36
747.37	246.11
747.70	245.89
748.03	245.61
748.36	245.38
748.68	245.16
749.01	244.94
749.34	244.70
749.67	244.47
750.00	244.28
750.33	244.12
750.65	243.96
750.98	243.58
751.31	243.37
751.64	243.16
751.97	242.98
752.29	242.75
752.62	242.46
752.95	242.28
753.28	242.05
753.60	241.88
753.93	241.72
754.26	241.51
754.59	241.30
754.91	241.08
755.24	240.89
755.57	240.71
755.90	240.50
756.22	240.29
756.55	240.09
756.88	239.91
757.20	239.68
757.53	239.44
757.86	239.27
758.19	239.14
758.51	238.97
758.84	238.76
759.17	238.58
759.49	238.44
759.82	238.31
760.15	238.17
760.47	238.02
760.80	237.84
761.13	237.71
761.45	237.54
761.78	237.41
762.11	237.26
762.43	237.08
762.76	236.92
763.08	236.80
763.41	236.65
763.74	236.48
764.06	236.31
764.39	236.20
764.71	236.08
765.04	235.89
765.37	235.73
765.69	235.61
766.02	235.50
766.34	235.35
766.67	235.20
767.00	235.09
767.32	235.01
767.65	234.94
767.97	234.80
768.30	234.69
768.62	234.56
768.95	234.41
769.27	234.30
769.60	234.22
769.92	234.09
770.25	233.97
770.57	233.82
770.90	233.76
771.22	233.61
771.55	233.49
771.87	233.40
772.20	233.29
772.52	233.27
772.85	233.31
773.17	233.18
773.50	233.07
773.82	232.97
774.15	232.80
774.47	232.66
774.80	232.60
775.12	232.54
775.45	232.46
775.77	232.39
776.09	232.29
776.42	232.21
776.74	232.17
777.07	232.08
777.39	232.05
777.72	231.98
778.04	231.95
778.36	231.88
778.69	231.79
779.01	231.77
779.33	231.61
779.66	231.40
779.98	231.35
780.31	231.29
780.63	231.26
780.95	231.26
781.28	231.18
781.60	231.11
781.92	231.06
782.25	230.99
782.57	230.98
782.89	230.93
783.22	230.89
783.54	230.83
783.86	230.81
784.19	230.74
784.51	230.71
784.83	230.65
785.16	230.60
785.48	230.58
785.80	230.54
786.12	230.54
786.45	230.50
786.77	230.48
787.09	230.43
787.42	230.34
787.74	230.28
788.06	230.26
788.38	230.22
788.71	230.15
789.03	230.13
789.35	230.09
789.67	230.05
789.99	230.00
790.32	229.96
790.64	229.92
790.96	229.98
791.28	229.87
791.61	229.81
791.93	229.77
792.25	229.70
792.57	229.74
792.89	229.63
793.21	229.60
793.54	229.59
793.86	229.53
794.18	229.51
794.50	229.45
794.82	229.43
795.14	229.40
795.47	229.36
795.79	229.30
796.11	229.23
796.43	229.19
796.75	229.15
797.07	229.09
797.39	229.08
797.71	228.96
798.04	228.98
798.36	228.97
798.68	228.94
799.00	228.97
799.32	228.87
799.64	228.90
799.96	228.86
800.28	228.78
800.60	228.76
800.92	228.75
801.24	228.72
801.56	228.68
801.89	228.62
802.21	228.57
802.53	228.56
802.85	228.55
803.17	228.57
803.49	228.50
803.81	228.48
804.13	228.44
804.45	228.38
804.77	228.34
805.09	228.29
805.41	228.24
805.73	228.14
806.05	228.09
806.37	228.03
806.69	228.01
807.01	228.00
807.33	228.00
807.65	227.92
807.97	227.93
808.28	227.87
808.60	227.85
808.92	227.82
809.24	227.84
809.56	227.80
809.88	227.72
810.20	227.68
810.52	227.64
810.84	227.58
811.16	227.53
811.48	227.47
811.80	227.50
812.12	227.45
812.43	227.43
812.75	227.38
813.07	227.33
813.39	227.28
813.71	227.24
814.03	227.19
814.35	227.17
814.67	227.10
814.98	227.10
815.30	227.05
815.62	227.04
815.94	226.95
816.26	226.97
816.58	226.92
816.89	226.91
817.21	226.91
817.53	226.90
817.85	226.90
818.17	226.88
818.48	226.78
818.80	226.82
819.12	226.81
819.44	226.79
819.76	226.74
820.07	226.74
820.39	226.71
820.71	226.70
821.03	226.68
821.34	226.64
821.66	226.63
821.98	226.67
822.30	226.64
822.61	226.66
822.93	226.59
823.25	226.60
823.57	226.60
823.88	226.61
824.20	226.61
824.52	226.60
824.83	226.61
825.15	226.61
825.47	226.58
825.79	226.59
826.10	226.60
826.42	226.61
826.74	226.62
827.05	226.62
827.37	226.61
827.69	226.63
828.00	226.63
828.32	226.61
828.64	226.58
828.95	226.64
829.27	226.65
829.58	226.65
829.90	226.66
830.22	226.67
830.53	226.64
830.85	226.60
831.17	226.56
831.48	226.58
831.80	226.59
832.11	226.58
832.43	226.54
832.75	226.52
833.06	226.57
833.38	226.48
833.69	226.50
834.01	226.50
834.32	226.49
834.64	226.49
834.96	226.48
835.27	226.49
835.59	226.45
835.90	226.41
836.22	226.40
836.53	226.36
836.85	226.33
837.16	226.43
837.48	226.47
837.79	226.50
838.11	226.49
838.42	226.47
838.74	226.50
839.05	226.50
839.37	226.49
839.68	226.43
840.00	226.47
840.31	226.47
840.63	226.44
840.94	226.42
841.26	226.39
841.57	226.40
841.88	226.38
842.20	226.36
842.51	226.35
842.83	226.36
843.14	226.46
843.46	226.48
843.77	226.37
844.08	226.36
844.40	226.33
844.71	226.31
845.03	226.29
845.34	226.27
845.65	226.24
845.97	226.29
846.28	226.24
846.60	226.24
846.91	226.20
847.22	226.20
847.54	226.21
847.85	226.20
848.16	226.17
848.48	226.18
848.79	226.16
849.10	226.17
849.42	226.13
849.73	225.98
850.04	225.94
850.36	225.90
850.67	225.90
850.98	225.96
851.30	225.96
851.61	225.98
851.92	226.00
852.23	226.08
852.55	226.04
852.86	226.12
853.17	226.12
853.49	226.15
853.80	226.22
854.11	226.23
854.42	226.27
854.74	226.26
855.05	226.25
855.36	226.21
855.67	226.21
855.99	226.24
856.30	226.37
856.61	226.39
856.92	226.43
857.23	226.43
857.55	226.36
857.86	226.34
858.17	226.32
858.48	226.27
858.79	226.19
859.11	226.17
859.42	226.12
859.73	226.15
860.04	226.12
860.35	226.06
860.66	226.00
860.98	225.99
861.29	225.97
861.60	225.99
861.91	226.03
862.22	226.05
862.53	226.03
862.84	225.92
863.16	225.93
863.47	225.91
863.78	225.88
864.09	225.88
864.40	225.88
864.71	225.86
865.02	225.88
865.33	225.88
865.64	225.88
865.95	225.90
866.27	225.93
866.58	225.95
866.89	225.96
867.20	225.94
867.51	225.88
867.82	225.89
868.13	225.90
868.44	225.86
868.75	225.85
869.06	225.86
869.37	225.88
869.68	225.86
869.99	225.86
870.30	225.89
870.61	225.87
870.92	225.86
871.23	225.89
871.54	225.91
871.85	225.93
872.16	225.94
872.47	225.93
872.78	225.84
873.09	225.85
873.40	225.80
873.71	225.85
874.02	225.87
874.33	225.86
874.64	225.83
874.95	225.84
875.26	225.81
875.56	225.81
875.87	225.78
876.18	225.80
876.49	225.89
876.80	225.88
877.11	225.89
877.42	225.88
877.73	225.86
878.04	225.82
878.35	225.83
878.66	225.81
878.96	225.80
879.27	225.82
879.58	225.78
879.89	225.79
880.20	225.79
880.51	225.77
880.82	225.79
881.12	225.79
881.43	225.76
881.74	225.73
882.05	225.72
882.36	225.74
882.67	225.74
882.97	225.61
883.28	225.60
883.59	225.56
883.90	225.58
884.21	225.59
884.51	225.61
884.82	225.56
885.13	225.55
885.44	225.56
885.74	225.55
886.05	225.53
886.36	225.54
886.67	225.52
886.98	225.56
887.28	225.56
887.59	225.56
887.90	225.57
888.20	225.56
888.51	225.55
888.82	225.53
889.13	225.47
889.43	225.56
889.74	225.52
890.05	225.56
890.35	225.52
890.66	225.51
890.97	225.49
891.28	225.48
891.58	225.50
891.89	225.46
892.20	225.44
892.50	225.45
892.81	225.43
893.12	225.43
893.42	225.35
893.73	225.35
894.04	225.32
894.34	225.32
894.65	225.31
894.95	225.31
895.26	225.31
895.57	225.39
895.87	225.27
896.18	225.32
896.48	225.31
896.79	225.35
897.10	225.35
897.40	225.33
897.71	225.38
898.01	225.36
898.32	225.39
898.63	225.38
898.93	225.40
899.24	225.39
899.54	225.40
899.85	225.43
900.15	225.41
900.46	225.44
900.76	225.47
901.07	225.50
901.38	225.51
901.68	225.51
901.99	225.43
902.29	225.45
902.60	225.44
902.90	225.46
903.21	225.45
903.51	225.46
903.82	225.50
904.12	225.45
904.43	225.46
904.73	225.45
905.03	225.49
905.34	225.56
905.64	225.56
905.95	225.53
906.25	225.55
906.56	225.57
906.86	225.59
907.17	225.58
907.47	225.59
907.77	225.58
908.08	225.58
908.38	225.62
908.69	225.65
908.99	225.66
909.30	225.65
909.60	225.65
909.90	225.67
910.21	225.66
910.51	225.70
910.81	225.71
911.12	225.73
911.42	225.74
911.73	225.65
912.03	225.68
912.33	225.74
912.64	225.73
912.94	225.71
913.24	225.68
913.55	225.65
913.85	225.63
914.15	225.66
914.46	225.68
914.76	225.65
915.06	225.66
915.37	225.65
915.67	225.66
915.97	225.69
916.27	225.67
916.58	225.64
916.88	225.63
917.18	225.62
917.49	225.70
917.79	225.65
918.09	225.66
918.39	225.71
918.70	225.68
919.00	225.66
919.30	225.70
919.60	225.68
919.91	225.70
920.21	225.70
920.51	225.69
920.81	225.69
921.12	225.74
921.42	225.71
921.72	225.70
922.02	225.70
922.32	225.69
922.63	225.67
922.93	225.74
923.23	225.72
923.53	225.69
923.83	225.62
924.13	225.63
924.44	225.62
924.74	225.60
925.04	225.61
925.34	225.61
925.64	225.58
925.94	225.56
926.24	225.58
926.55	225.56
926.85	225.57
927.15	225.55
927.45	225.51
927.75	225.52
928.05	225.54
928.35	225.49
928.65	225.46
928.95	225.47
929.26	225.42
929.56	225.44
929.86	225.47
930.16	225.43
930.46	225.42
930.76	225.40
931.06	225.34
931.36	225.27
931.66	225.27
931.96	225.29
932.26	225.27
932.56	225.25
932.86	225.27
933.16	225.24
933.46	225.22
933.76	225.20
934.06	225.23
934.36	225.25
934.66	225.30
934.96	225.28
935.26	225.28
935.56	225.31
935.86	225.28
936.16	225.25
936.46	225.26
936.76	225.28
937.06	225.29
937.36	225.32
937.66	225.38
937.96	225.36
938.26	225.34
938.56	225.34
938.86	225.35
939.16	225.33
939.46	225.36
939.76	225.34
940.06	225.34
940.35	225.29
940.65	225.22
940.95	225.23
941.25	225.20
941.55	225.17
941.85	225.14
942.15	225.17
942.45	225.19
942.75	225.18
943.04	225.17
943.34	225.20
943.64	225.18
943.94	225.17
944.24	225.15
944.54	225.16
944.84	225.19
945.13	225.17
945.43	225.13
945.73	225.13
946.03	225.12
946.33	225.10
946.62	225.10
946.92	225.10
947.22	225.10
947.52	225.14
947.82	225.16
948.11	225.16
948.41	225.11
948.71	225.07
949.01	225.09
949.31	225.06
949.60	225.05
949.90	225.07
950.20	225.04
950.50	225.06
950.79	225.03
951.09	225.04
951.39	225.04
951.69	225.08
951.98	225.08
952.28	225.13
952.58	225.14
952.87	225.14
953.17	225.16
953.47	225.16
953.76	225.13
954.06	225.12
954.36	225.09
954.66	225.09
954.95	225.13
955.25	225.15
955.55	225.18
955.84	225.15
956.14	225.16
956.44	225.19
956.73	225.20
957.03	225.24
957.32	225.27
957.62	225.26
957.92	225.26
958.21	225.25
958.51	225.32
958.81	225.33
959.10	225.37
959.40	225.39
959.69	225.36
959.99	225.40
960.29	225.44
960.58	225.42
960.88	225.51
961.17	225.49
961.47	225.46
961.76	225.47
962.06	225.50
962.36	225.44
962.65	225.43
962.95	225.43
963.24	225.40
963.54	225.40
963.83	225.44
964.13	225.44
964.42	225.42
964.72	225.34
965.01	225.37
965.31	225.35
965.60	225.36
965.90	225.45
966.19	225.40
966.49	225.38
966.78	225.41
967.08	225.36
967.37	225.39
967.67	225.37
967.96	225.34
968.26	225.32
968.55	225.36
968.85	225.38
969.14	225.36
969.43	225.33
969.73	225.28
970.02	225.27
970.32	225.27
970.61	225.28
970.91	225.24
971.20	225.20
971.49	225.21
971.79	225.20
972.08	225.12
972.38	225.15
972.67	225.12
972.96	225.13
973.26	225.12
973.55	225.16
973.85	225.20
974.14	225.23
974.43	225.25
974.73	225.24
975.02	225.21
975.31	225.22
975.61	225.23
975.90	225.24
976.19	225.21
976.49	225.19
976.78	225.19
977.07	225.20
977.37	225.23
977.66	225.22
977.95	225.18
978.24	225.18
978.54	225.21
978.83	225.21
979.12	225.24
979.42	225.26
979.71	225.23
980.00	225.23
980.29	225.22
980.59	225.19
980.88	225.22
981.17	225.21
981.46	225.21
981.76	225.25
982.05	225.28
982.34	225.28
982.63	225.33
982.93	225.32
983.22	225.35
983.51	225.33
983.80	225.36
984.09	225.41
984.39	225.43
984.68	225.40
984.97	225.42
985.26	225.39
985.55	225.39
985.85	225.33
986.14	225.28
986.43	225.30
986.72	225.30
987.01	225.29
987.30	225.31
987.59	225.30
987.89	225.28
988.18	225.24
988.47	225.23
988.76	225.18
989.05	225.20
989.34	225.20
989.63	225.21
989.92	225.18
990.22	225.17
990.51	225.15
990.80	225.15
991.09	225.17
991.38	225.16
991.67	225.13
991.96	225.16
992.25	225.23
992.54	225.21
992.83	225.23
993.12	225.19
993.41	225.20
993.70	225.23
993.99	225.27
994.28	225.32
994.58	225.36
994.87	225.37
995.16	225.35
995.45	225.37
995.74	225.37
996.03	225.39
996.32	225.40
996.61	225.41
996.90	225.39
997.19	225.41
997.48	225.44
997.77	225.41
998.06	225.42
998.34	225.41
998.63	225.40
998.92	225.40
999.21	225.42
999.50	225.45
999.79	225.41
1000.08	225.39
1000.37	225.37
1000.66	225.35
1000.95	225.40
1001.24	225.43
1001.53	225.45
1001.82	225.46
1002.11	225.44
1002.40	225.43
1002.68	225.44
1002.97	225.50
1003.26	225.49
1003.55	225.46
1003.84	225.52
1004.13	225.53
1004.42	225.50
1004.71	225.54
1004.99	225.53
1005.28	225.54
1005.57	225.52
1005.86	225.50
1006.15	225.50
1006.44	225.49
1006.72	225.50
1007.01	225.46
1007.30	225.40
1007.59	225.38
1007.88	225.37
1008.17	225.39
1008.45	225.38
1008.74	225.36
1009.03	225.32
1009.32	225.29
1009.60	225.30
1009.89	225.27
1010.18	225.24
1010.47	225.24
1010.76	225.20
1011.04	225.17
1011.33	225.19
1011.62	225.16
1011.91	225.18
1012.19	225.18
1012.48	225.15
1012.77	225.18
1013.05	225.23
1013.34	225.22
1013.63	225.20
1013.92	225.21
1014.20	225.20
1014.49	225.19
1014.78	225.17
1015.06	225.15
1015.35	225.13
1015.64	225.12
1015.92	225.13
1016.21	225.13
1016.50	225.12
1016.78	225.13
1017.07	225.17
1017.36	225.15
1017.64	225.17
1017.93	225.18
1018.22	225.16
1018.50	225.19
1018.79	225.13
1019.08	225.09
1019.36	225.11
1019.65	225.13
1019.93	225.15
1020.22	225.16
1020.51	225.20
1020.79	225.21
1021.08	225.05
1021.36	225.38
1021.65	224.65
1021.94	225.18
1022.22	225.10
1022.51	225.51
1022.79	225.90
1023.08	225.36
1023.36	226.13
1023.65	225.07
>>>>>End Processed Spectral Data<<<<<
