SpectraSuite Data File
++++++++++++++++++++++++++++++++++++
Date: Fri Feb 01 15:05:05 EST 2013
User: group
Dark Spectrum Present: No
Reference Spectrum Present: No
Number of Sampled Component Spectra: 1
Spectrometers: USB2E7196
Integration Time (usec): 35000 (USB2E7196)
Spectra Averaged: 100 (USB2E7196)
Boxcar Smoothing: 10 (USB2E7196)
Correct for Electrical Dark: No (USB2E7196)
Strobe/Lamp Enabled: No (USB2E7196)
Correct for Detector Non-linearity: No (USB2E7196)
Correct for Stray Light: No (USB2E7196)
Number of Pixels in Processed Spectrum: 2048
>>>>>Begin Processed Spectral Data<<<<<
339.09	0.00
339.48	214.63
339.86	216.73
340.24	218.46
340.63	219.62
341.01	221.71
341.39	221.85
341.78	223.02
342.16	224.21
342.54	225.49
342.93	213.28
343.31	224.07
343.69	224.60
344.07	225.04
344.46	225.44
344.84	225.79
345.22	226.04
345.60	226.28
345.99	226.48
346.37	226.61
346.75	226.69
347.13	226.80
347.52	226.82
347.90	226.89
348.28	226.95
348.66	226.97
349.05	226.97
349.43	226.99
349.81	226.99
350.19	227.05
350.57	227.11
350.96	227.15
351.34	227.21
351.72	227.29
352.10	227.38
352.48	227.44
352.87	227.48
353.25	227.56
353.63	227.63
354.01	227.66
354.39	227.75
354.77	227.80
355.15	227.88
355.54	227.93
355.92	227.99
356.30	228.05
356.68	228.19
357.06	228.25
357.44	228.32
357.82	228.39
358.20	228.45
358.58	228.51
358.97	228.62
359.35	228.70
359.73	228.81
360.11	228.87
360.49	228.94
360.87	229.00
361.25	229.06
361.63	229.15
362.01	229.21
362.39	229.23
362.77	229.29
363.15	229.34
363.53	229.38
363.91	229.40
364.29	229.42
364.67	229.36
365.05	229.39
365.43	229.41
365.81	229.44
366.19	229.51
366.57	229.56
366.95	229.54
367.33	229.51
367.71	229.48
368.09	229.48
368.47	229.47
368.85	229.48
369.23	229.43
369.61	229.34
369.99	229.37
370.37	229.35
370.75	229.33
371.13	229.26
371.51	229.21
371.89	229.19
372.27	229.13
372.65	229.09
373.03	229.04
373.41	228.98
373.78	228.92
374.16	228.79
374.54	228.66
374.92	228.57
375.30	228.52
375.68	228.46
376.06	228.41
376.44	228.32
376.82	228.24
377.19	228.16
377.57	228.11
377.95	227.98
378.33	227.92
378.71	227.80
379.09	227.74
379.47	227.68
379.84	227.60
380.22	227.53
380.60	227.42
380.98	227.31
381.36	227.21
381.73	227.15
382.11	227.11
382.49	227.08
382.87	227.04
383.25	226.96
383.62	227.00
384.00	226.90
384.38	226.85
384.76	226.82
385.13	226.82
385.51	226.74
385.89	226.70
386.27	226.59
386.64	226.57
387.02	226.53
387.40	226.47
387.78	226.44
388.15	226.42
388.53	226.40
388.91	226.39
389.29	226.37
389.66	226.34
390.04	226.29
390.42	226.28
390.79	226.25
391.17	226.26
391.55	226.15
391.92	226.17
392.30	226.19
392.68	226.15
393.05	226.15
393.43	226.16
393.81	226.19
394.18	226.23
394.56	226.25
394.94	226.31
395.31	226.35
395.69	226.41
396.06	226.42
396.44	226.46
396.82	226.49
397.19	226.59
397.57	226.64
397.95	226.70
398.32	226.74
398.70	226.83
399.07	226.89
399.45	226.93
399.82	227.00
400.20	227.08
400.58	227.19
400.95	227.23
401.33	227.30
401.70	227.44
402.08	227.56
402.45	227.68
402.83	227.80
403.20	227.92
403.58	228.02
403.95	228.21
404.33	228.35
404.71	228.48
405.08	228.69
405.46	228.81
405.83	228.98
406.21	229.14
406.58	229.29
406.96	229.48
407.33	229.67
407.70	229.85
408.08	230.11
408.45	230.32
408.83	230.58
409.20	230.85
409.58	231.05
409.95	231.31
410.33	231.56
410.70	231.79
411.08	232.09
411.45	232.37
411.82	232.68
412.20	233.03
412.57	233.44
412.95	233.74
413.32	234.16
413.69	234.58
414.07	235.03
414.44	235.51
414.82	235.99
415.19	236.53
415.56	237.07
415.94	237.60
416.31	238.24
416.68	238.85
417.06	239.56
417.43	240.23
417.81	240.99
418.18	241.74
418.55	242.58
418.93	243.43
419.30	244.31
419.67	245.22
420.04	246.20
420.42	247.20
420.79	248.36
421.16	249.54
421.54	250.70
421.91	251.89
422.28	253.13
422.66	254.45
423.03	255.75
423.40	257.09
423.77	258.47
424.15	259.86
424.52	261.34
424.89	262.95
425.26	264.50
425.64	265.99
426.01	267.59
426.38	269.26
426.75	270.93
427.13	272.67
427.50	274.46
427.87	276.31
428.24	278.17
428.61	279.88
428.99	281.78
429.36	283.85
429.73	285.95
430.10	287.99
430.47	290.07
430.85	292.20
431.22	294.43
431.59	296.85
431.96	299.12
432.33	301.63
432.70	304.02
433.08	306.82
433.45	309.42
433.82	312.06
434.19	314.97
434.56	317.77
434.93	320.44
435.30	323.09
435.68	326.03
436.05	328.83
436.42	331.67
436.79	334.24
437.16	337.02
437.53	339.87
437.90	342.71
438.27	345.48
438.64	348.32
439.01	350.96
439.38	353.23
439.75	355.43
440.13	357.93
440.50	360.27
440.87	362.15
441.24	364.11
441.61	366.23
441.98	367.69
442.35	369.55
442.72	371.44
443.09	373.22
443.46	374.23
443.83	374.88
444.20	375.39
444.57	376.22
444.94	376.49
445.31	376.81
445.68	377.16
446.05	377.20
446.42	376.84
446.79	376.42
447.16	375.96
447.53	375.66
447.90	374.47
448.27	373.30
448.64	371.72
449.01	370.62
449.37	368.68
449.74	366.80
450.11	364.53
450.48	362.06
450.85	359.57
451.22	357.40
451.59	355.33
451.96	353.37
452.33	350.78
452.70	348.42
453.07	345.56
453.43	342.66
453.80	339.93
454.17	337.23
454.54	334.65
454.91	331.90
455.28	329.22
455.65	326.74
456.02	324.29
456.38	322.16
456.75	319.46
457.12	317.21
457.49	314.96
457.86	312.78
458.23	310.90
458.59	308.84
458.96	306.74
459.33	304.90
459.70	303.02
460.07	301.45
460.43	299.71
460.80	298.08
461.17	296.66
461.54	295.16
461.91	293.72
462.27	292.25
462.64	291.01
463.01	289.63
463.38	288.33
463.74	286.94
464.11	285.74
464.48	284.71
464.85	283.57
465.21	282.75
465.58	281.82
465.95	280.70
466.32	279.78
466.68	278.89
467.05	277.99
467.42	277.09
467.78	276.17
468.15	275.32
468.52	274.65
468.88	273.73
469.25	272.94
469.62	272.29
469.98	271.61
470.35	270.95
470.72	270.34
471.08	269.66
471.45	269.10
471.82	268.54
472.18	267.95
472.55	267.51
472.92	266.91
473.28	266.43
473.65	265.98
474.02	265.51
474.38	265.12
474.75	264.80
475.11	264.46
475.48	264.18
475.85	263.93
476.21	263.69
476.58	263.49
476.94	263.32
477.31	263.19
477.67	263.02
478.04	262.92
478.41	262.83
478.77	262.86
479.14	262.80
479.50	262.82
479.87	262.87
480.23	262.97
480.60	263.08
480.96	263.20
481.33	263.39
481.69	263.61
482.06	263.80
482.42	264.00
482.79	264.22
483.15	264.53
483.52	264.91
483.88	265.24
484.25	265.59
484.61	265.97
484.98	266.42
485.34	266.98
485.71	267.57
486.07	268.22
486.44	268.74
486.80	269.43
487.17	270.10
487.53	270.92
487.90	271.75
488.26	272.67
488.62	273.64
488.99	274.57
489.35	275.61
489.72	276.73
490.08	277.91
490.44	279.17
490.81	280.51
491.17	281.86
491.54	283.34
491.90	284.94
492.26	286.59
492.63	288.30
492.99	290.09
493.36	291.98
493.72	293.99
494.08	296.13
494.45	298.37
494.81	300.77
495.17	303.21
495.54	305.71
495.90	308.38
496.26	311.15
496.63	314.12
496.99	317.22
497.35	320.42
497.72	323.86
498.08	327.39
498.44	331.05
498.80	334.94
499.17	339.00
499.53	343.12
499.89	347.48
500.26	351.94
500.62	356.61
500.98	361.56
501.34	366.62
501.71	371.94
502.07	377.36
502.43	382.94
502.79	388.75
503.16	394.79
503.52	401.05
503.88	407.42
504.24	414.06
504.60	420.94
504.97	428.06
505.33	435.28
505.69	442.97
506.05	450.68
506.41	458.54
506.78	466.67
507.14	475.06
507.50	483.78
507.86	492.83
508.22	501.89
508.59	511.04
508.95	520.61
509.31	530.39
509.67	540.50
510.03	550.80
510.39	561.33
510.75	572.15
511.12	583.09
511.48	594.41
511.84	605.80
512.20	617.33
512.56	629.25
512.92	641.42
513.28	653.70
513.64	666.27
514.00	679.04
514.37	691.95
514.73	705.01
515.09	718.02
515.45	731.32
515.81	744.99
516.17	758.92
516.53	773.14
516.89	787.32
517.25	801.49
517.61	815.99
517.97	830.45
518.33	844.98
518.69	859.73
519.05	874.78
519.41	890.07
519.77	905.67
520.13	921.22
520.49	936.71
520.85	952.16
521.21	967.87
521.57	984.10
521.93	999.96
522.29	1016.42
522.65	1032.74
523.01	1049.02
523.37	1065.17
523.73	1081.49
524.09	1097.58
524.45	1114.06
524.81	1130.68
525.17	1147.53
525.53	1164.43
525.89	1181.28
526.25	1198.20
526.61	1214.71
526.97	1231.44
527.33	1247.83
527.68	1264.51
528.04	1281.13
528.40	1297.89
528.76	1315.06
529.12	1331.80
529.48	1348.74
529.84	1364.86
530.20	1381.51
530.56	1398.65
530.91	1416.10
531.27	1432.94
531.63	1449.35
531.99	1465.94
532.35	1482.14
532.71	1498.03
533.07	1514.44
533.42	1530.34
533.78	1546.47
534.14	1562.73
534.50	1578.23
534.86	1594.30
535.21	1609.47
535.57	1625.48
535.93	1640.99
536.29	1655.78
536.65	1670.84
537.00	1685.71
537.36	1701.10
537.72	1715.71
538.08	1730.04
538.44	1743.89
538.79	1757.88
539.15	1771.81
539.51	1785.66
539.87	1799.91
540.22	1813.84
540.58	1827.70
540.94	1841.20
541.29	1854.20
541.65	1867.04
542.01	1880.38
542.37	1892.63
542.72	1905.24
543.08	1917.02
543.44	1929.48
543.79	1940.71
544.15	1951.72
544.51	1963.29
544.87	1974.28
545.22	1985.17
545.58	1995.52
545.94	2005.30
546.29	2015.30
546.65	2025.08
547.01	2034.35
547.36	2043.28
547.72	2051.66
548.07	2059.46
548.43	2067.73
548.79	2075.87
549.14	2083.37
549.50	2090.70
549.86	2098.65
550.21	2106.00
550.57	2113.22
550.92	2119.82
551.28	2127.01
551.64	2134.00
551.99	2140.57
552.35	2146.75
552.70	2152.92
553.06	2158.73
553.41	2165.11
553.77	2171.12
554.13	2177.11
554.48	2183.17
554.84	2188.49
555.19	2193.80
555.55	2198.78
555.90	2203.18
556.26	2207.88
556.61	2212.52
556.97	2216.67
557.32	2220.59
557.68	2224.62
558.03	2228.67
558.39	2232.40
558.74	2236.99
559.10	2240.86
559.45	2244.45
559.81	2248.66
560.16	2252.39
560.52	2255.66
560.87	2259.01
561.23	2261.49
561.58	2264.49
561.94	2266.97
562.29	2269.43
562.64	2272.11
563.00	2274.77
563.35	2278.24
563.71	2281.41
564.06	2284.50
564.42	2287.24
564.77	2289.61
565.12	2291.72
565.48	2293.60
565.83	2295.22
566.19	2296.32
566.54	2297.24
566.89	2298.25
567.25	2298.72
567.60	2300.05
567.96	2301.67
568.31	2302.39
568.66	2303.37
569.02	2303.84
569.37	2304.01
569.72	2304.62
570.08	2304.41
570.43	2304.42
570.78	2303.61
571.14	2301.94
571.49	2300.67
571.84	2300.24
572.20	2299.03
572.55	2297.77
572.90	2296.22
573.26	2294.67
573.61	2293.05
573.96	2291.02
574.31	2287.88
574.67	2284.71
575.02	2280.89
575.37	2277.41
575.72	2273.54
576.08	2269.99
576.43	2266.61
576.78	2262.89
577.13	2259.47
577.49	2256.31
577.84	2252.63
578.19	2248.87
578.54	2245.06
578.90	2240.52
579.25	2234.90
579.60	2229.77
579.95	2224.68
580.30	2219.48
580.66	2214.35
581.01	2209.20
581.36	2204.31
581.71	2200.06
582.06	2195.56
582.42	2191.01
582.77	2185.61
583.12	2180.81
583.47	2176.01
583.82	2170.69
584.17	2165.30
584.53	2159.98
584.88	2154.34
585.23	2148.39
585.58	2142.92
585.93	2137.27
586.28	2132.56
586.63	2127.34
586.98	2122.26
587.34	2117.54
587.69	2112.58
588.04	2107.13
588.39	2101.23
588.74	2094.71
589.09	2088.54
589.44	2081.60
589.79	2075.55
590.14	2069.88
590.49	2063.29
590.84	2056.91
591.19	2050.94
591.54	2044.28
591.89	2036.61
592.25	2029.77
592.60	2022.47
592.95	2014.69
593.30	2007.37
593.65	1999.58
594.00	1992.60
594.35	1985.22
594.70	1977.17
595.05	1969.78
595.40	1962.50
595.75	1955.06
596.10	1948.54
596.45	1941.51
596.80	1935.28
597.15	1928.39
597.50	1921.08
597.85	1914.57
598.19	1907.72
598.54	1900.51
598.89	1893.91
599.24	1887.99
599.59	1881.18
599.94	1875.19
600.29	1868.81
600.64	1862.14
600.99	1854.64
601.34	1847.63
601.69	1840.67
602.04	1833.65
602.39	1826.17
602.74	1819.28
603.08	1812.49
603.43	1805.78
603.78	1798.68
604.13	1791.50
604.48	1784.21
604.83	1777.46
605.18	1770.44
605.53	1762.56
605.87	1754.50
606.22	1747.26
606.57	1739.47
606.92	1732.05
607.27	1724.59
607.62	1717.62
607.96	1710.40
608.31	1703.85
608.66	1696.18
609.01	1688.63
609.36	1681.13
609.70	1673.31
610.05	1665.19
610.40	1657.38
610.75	1649.16
611.10	1641.34
611.44	1633.00
611.79	1624.99
612.14	1616.32
612.49	1607.28
612.83	1598.92
613.18	1590.87
613.53	1582.82
613.88	1574.23
614.22	1566.11
614.57	1557.61
614.92	1549.56
615.27	1541.82
615.61	1533.47
615.96	1525.57
616.31	1517.90
616.65	1510.64
617.00	1503.04
617.35	1495.38
617.70	1487.02
618.04	1478.46
618.39	1470.31
618.74	1462.74
619.08	1454.45
619.43	1446.92
619.78	1439.97
620.12	1432.68
620.47	1425.12
620.82	1416.97
621.16	1409.51
621.51	1401.88
621.85	1394.27
622.20	1385.84
622.55	1377.57
622.89	1369.75
623.24	1362.16
623.59	1354.84
623.93	1347.29
624.28	1340.07
624.62	1332.66
624.97	1325.58
625.32	1319.03
625.66	1312.00
626.01	1304.76
626.35	1297.38
626.70	1289.57
627.04	1281.86
627.39	1274.26
627.73	1266.88
628.08	1259.89
628.43	1252.53
628.77	1245.14
629.12	1237.58
629.46	1230.40
629.81	1223.04
630.15	1215.84
630.50	1208.51
630.84	1200.34
631.19	1192.50
631.53	1185.00
631.88	1177.47
632.22	1169.96
632.57	1162.60
632.91	1155.16
633.26	1147.80
633.60	1140.53
633.95	1133.66
634.29	1126.62
634.64	1119.98
634.98	1112.68
635.32	1105.64
635.67	1099.23
636.01	1092.65
636.36	1085.88
636.70	1079.47
637.05	1072.98
637.39	1066.60
637.73	1060.13
638.08	1054.35
638.42	1048.36
638.77	1042.04
639.11	1035.46
639.45	1029.15
639.80	1022.47
640.14	1016.06
640.49	1009.58
640.83	1003.35
641.17	997.03
641.52	990.82
641.86	984.47
642.20	978.72
642.55	972.52
642.89	966.04
643.23	959.60
643.58	953.94
643.92	947.64
644.26	941.60
644.61	935.60
644.95	929.54
645.29	922.90
645.64	916.12
645.98	909.79
646.32	904.00
646.66	897.94
647.01	892.23
647.35	886.59
647.69	880.82
648.04	875.22
648.38	869.44
648.72	863.36
649.06	857.32
649.41	851.45
649.75	845.44
650.09	839.44
650.43	833.62
650.78	827.39
651.12	821.55
651.46	815.81
651.80	809.96
652.14	804.57
652.49	799.25
652.83	794.09
653.17	788.44
653.51	782.68
653.85	777.32
654.20	771.63
654.54	765.63
654.88	759.87
655.22	754.03
655.56	748.39
655.90	742.96
656.25	737.68
656.59	732.30
656.93	727.19
657.27	722.07
657.61	716.68
657.95	711.67
658.29	706.64
658.64	701.39
658.98	696.21
659.32	690.77
659.66	685.51
660.00	680.26
660.34	675.33
660.68	670.47
661.02	665.46
661.36	660.82
661.70	656.28
662.05	651.95
662.39	647.64
662.73	643.21
663.07	638.93
663.41	634.46
663.75	629.99
664.09	625.48
664.43	621.09
664.77	616.94
665.11	612.62
665.45	608.49
665.79	604.49
666.13	600.30
666.47	596.18
666.81	592.06
667.15	587.91
667.49	584.07
667.83	580.25
668.17	576.32
668.51	572.24
668.85	568.20
669.19	564.40
669.53	560.59
669.87	556.70
670.21	553.00
670.55	549.41
670.89	545.94
671.23	542.55
671.57	539.09
671.91	535.61
672.25	532.20
672.58	528.68
672.92	525.29
673.26	522.18
673.60	519.12
673.94	516.08
674.28	513.24
674.62	510.26
674.96	507.22
675.30	504.27
675.64	501.38
675.97	498.70
676.31	495.83
676.65	492.96
676.99	490.24
677.33	487.38
677.67	484.55
678.01	481.62
678.34	478.60
678.68	475.83
679.02	473.01
679.36	470.30
679.70	467.55
680.04	464.78
680.37	461.89
680.71	459.12
681.05	456.52
681.39	453.81
681.73	451.24
682.06	448.73
682.40	446.25
682.74	443.73
683.08	441.14
683.42	438.53
683.75	436.02
684.09	433.62
684.43	431.19
684.77	428.76
685.10	426.45
685.44	424.19
685.78	421.91
686.12	419.70
686.45	417.44
686.79	415.25
687.13	413.08
687.46	410.99
687.80	408.88
688.14	406.72
688.48	404.69
688.81	402.37
689.15	400.29
689.49	398.11
689.82	396.03
690.16	394.00
690.50	392.07
690.83	390.15
691.17	388.15
691.51	386.27
691.84	384.48
692.18	382.50
692.52	380.52
692.85	378.57
693.19	376.73
693.52	374.85
693.86	373.06
694.20	371.31
694.53	369.48
694.87	367.69
695.21	365.88
695.54	364.03
695.88	362.36
696.21	360.58
696.55	358.95
696.88	357.31
697.22	355.70
697.56	354.06
697.89	352.41
698.23	350.77
698.56	349.15
698.90	347.54
699.23	345.90
699.57	344.39
699.90	342.89
700.24	341.36
700.58	339.86
700.91	338.34
701.25	336.91
701.58	335.56
701.92	334.17
702.25	332.80
702.59	331.44
702.92	330.12
703.26	328.87
703.59	327.61
703.93	326.42
704.26	325.17
704.60	323.90
704.93	322.66
705.26	321.41
705.60	320.20
705.93	319.06
706.27	318.05
706.60	317.02
706.94	315.90
707.27	314.73
707.61	313.70
707.94	312.70
708.27	311.54
708.61	310.47
708.94	309.45
709.28	308.46
709.61	307.55
709.94	306.59
710.28	305.56
710.61	304.57
710.95	303.52
711.28	302.62
711.61	301.70
711.95	300.76
712.28	299.80
712.61	298.88
712.95	297.93
713.28	297.05
713.61	296.13
713.95	295.27
714.28	294.49
714.61	293.60
714.95	292.71
715.28	291.91
715.61	291.07
715.95	290.21
716.28	289.39
716.61	288.51
716.95	287.73
717.28	286.97
717.61	286.21
717.94	285.46
718.28	284.63
718.61	283.92
718.94	283.26
719.27	282.62
719.61	281.97
719.94	281.34
720.27	280.66
720.60	279.98
720.94	279.34
721.27	278.75
721.60	278.18
721.93	277.65
722.27	277.13
722.60	276.57
722.93	276.01
723.26	275.45
723.59	274.92
723.93	274.36
724.26	273.82
724.59	273.24
724.92	272.74
725.25	272.27
725.59	271.73
725.92	271.22
726.25	270.74
726.58	270.24
726.91	269.74
727.24	269.25
727.57	268.81
727.91	268.31
728.24	267.84
728.57	267.36
728.90	266.92
729.23	266.40
729.56	265.99
729.89	265.54
730.22	265.06
730.55	264.60
730.89	264.15
731.22	263.72
731.55	263.33
731.88	262.92
732.21	262.49
732.54	262.05
732.87	261.61
733.20	261.21
733.53	260.84
733.86	260.48
734.19	260.08
734.52	259.69
734.85	259.40
735.18	258.94
735.51	258.56
735.84	258.15
736.17	257.79
736.50	257.36
736.83	257.11
737.16	256.80
737.49	256.47
737.82	256.10
738.15	255.79
738.48	255.45
738.81	255.12
739.14	254.78
739.47	254.51
739.80	254.21
740.13	253.86
740.46	253.51
740.79	253.17
741.12	252.87
741.45	252.55
741.78	252.19
742.11	251.92
742.44	251.61
742.77	251.35
743.10	251.07
743.43	250.80
743.75	250.43
744.08	250.30
744.41	250.01
744.74	249.79
745.07	249.48
745.40	249.25
745.73	249.02
746.06	248.74
746.39	248.44
746.71	248.16
747.04	247.92
747.37	247.67
747.70	247.43
748.03	247.17
748.36	246.96
748.68	246.75
749.01	246.50
749.34	246.27
749.67	245.99
750.00	245.73
750.33	245.58
750.65	245.34
750.98	244.94
751.31	244.74
751.64	244.52
751.97	244.36
752.29	244.11
752.62	243.86
752.95	243.65
753.28	243.47
753.60	243.27
753.93	243.11
754.26	242.89
754.59	242.66
754.91	242.49
755.24	242.28
755.57	242.05
755.90	241.86
756.22	241.66
756.55	241.49
756.88	241.34
757.20	241.10
757.53	240.95
757.86	240.80
758.19	240.65
758.51	240.49
758.84	240.28
759.17	240.11
759.49	239.99
759.82	239.90
760.15	239.73
760.47	239.58
760.80	239.42
761.13	239.33
761.45	239.18
761.78	238.99
762.11	238.85
762.43	238.71
762.76	238.59
763.08	238.50
763.41	238.38
763.74	238.25
764.06	238.10
764.39	237.94
764.71	237.87
765.04	237.71
765.37	237.55
765.69	237.40
766.02	237.27
766.34	237.12
766.67	236.96
767.00	236.89
767.32	236.82
767.65	236.76
767.97	236.62
768.30	236.51
768.62	236.40
768.95	236.34
769.27	236.24
769.60	236.12
769.92	236.00
770.25	235.84
770.57	235.69
770.90	235.61
771.22	235.51
771.55	235.35
771.87	235.26
772.20	235.17
772.52	235.19
772.85	235.23
773.17	235.14
773.50	235.03
773.82	234.93
774.15	234.76
774.47	234.60
774.80	234.49
775.12	234.38
775.45	234.32
775.77	234.21
776.09	234.14
776.42	234.10
776.74	234.04
777.07	233.98
777.39	233.94
777.72	233.86
778.04	233.76
778.36	233.71
778.69	233.60
779.01	233.53
779.33	233.36
779.66	233.15
779.98	233.05
780.31	232.96
780.63	232.90
780.95	232.85
781.28	232.79
781.60	232.72
781.92	232.66
782.25	232.60
782.57	232.51
782.89	232.42
783.22	232.29
783.54	232.20
783.86	232.12
784.19	232.02
784.51	231.99
784.83	231.92
785.16	231.86
785.48	231.80
785.80	231.75
786.12	231.68
786.45	231.66
786.77	231.62
787.09	231.61
787.42	231.53
787.74	231.49
788.06	231.44
788.38	231.41
788.71	231.37
789.03	231.31
789.35	231.27
789.67	231.23
789.99	231.21
790.32	231.14
790.64	231.10
790.96	231.16
791.28	231.08
791.61	231.07
791.93	231.04
792.25	231.04
792.57	231.05
792.89	231.04
793.21	230.99
793.54	230.96
793.86	230.89
794.18	230.85
794.50	230.79
794.82	230.74
795.14	230.73
795.47	230.70
795.79	230.66
796.11	230.61
796.43	230.58
796.75	230.60
797.07	230.61
797.39	230.58
797.71	230.50
798.04	230.51
798.36	230.46
798.68	230.42
799.00	230.40
799.32	230.33
799.64	230.30
799.96	230.26
800.28	230.25
800.60	230.21
800.92	230.21
801.24	230.21
801.56	230.20
801.89	230.18
802.21	230.17
802.53	230.16
802.85	230.15
803.17	230.15
803.49	230.08
803.81	230.05
804.13	230.06
804.45	230.03
804.77	229.99
805.09	229.98
805.41	229.97
805.73	229.90
806.05	229.87
806.37	229.88
806.69	229.86
807.01	229.83
807.33	229.84
807.65	229.78
807.97	229.82
808.28	229.81
808.60	229.76
808.92	229.71
809.24	229.77
809.56	229.74
809.88	229.71
810.20	229.71
810.52	229.74
810.84	229.68
811.16	229.62
811.48	229.59
811.80	229.59
812.12	229.53
812.43	229.54
812.75	229.52
813.07	229.44
813.39	229.42
813.71	229.37
814.03	229.32
814.35	229.32
814.67	229.23
814.98	229.18
815.30	229.16
815.62	229.16
815.94	229.05
816.26	229.06
816.58	229.04
816.89	228.98
817.21	228.92
817.53	228.90
817.85	228.89
818.17	228.83
818.48	228.80
818.80	228.78
819.12	228.73
819.44	228.69
819.76	228.68
820.07	228.64
820.39	228.65
820.71	228.64
821.03	228.58
821.34	228.55
821.66	228.53
821.98	228.49
822.30	228.45
822.61	228.45
822.93	228.40
823.25	228.35
823.57	228.35
823.88	228.36
824.20	228.32
824.52	228.30
824.83	228.33
825.15	228.28
825.47	228.30
825.79	228.29
826.10	228.26
826.42	228.25
826.74	228.24
827.05	228.19
827.37	228.20
827.69	228.19
828.00	228.20
828.32	228.18
828.64	228.17
828.95	228.21
829.27	228.18
829.58	228.15
829.90	228.16
830.22	228.13
830.53	228.09
830.85	228.08
831.17	228.05
831.48	228.03
831.80	228.03
832.11	227.99
832.43	227.97
832.75	227.96
833.06	228.02
833.38	228.03
833.69	228.00
834.01	227.98
834.32	228.00
834.64	227.99
834.96	228.01
835.27	228.01
835.59	227.97
835.90	227.98
836.22	227.99
836.53	227.99
836.85	228.00
837.16	228.11
837.48	228.11
837.79	228.16
838.11	228.17
838.42	228.15
838.74	228.17
839.05	228.19
839.37	228.19
839.68	228.13
840.00	228.11
840.31	228.16
840.63	228.15
840.94	228.16
841.26	228.15
841.57	228.13
841.88	228.16
842.20	228.13
842.51	228.10
842.83	228.08
843.14	228.18
843.46	228.17
843.77	228.10
844.08	228.14
844.40	228.09
844.71	228.07
845.03	228.10
845.34	228.09
845.65	228.06
845.97	228.06
846.28	228.05
846.60	228.08
846.91	228.03
847.22	228.06
847.54	228.06
847.85	228.03
848.16	228.02
848.48	227.98
848.79	228.02
849.10	228.03
849.42	228.05
849.73	227.94
850.04	227.92
850.36	227.88
850.67	227.87
850.98	227.89
851.30	227.89
851.61	227.90
851.92	227.89
852.23	227.91
852.55	227.94
852.86	227.99
853.17	227.98
853.49	228.02
853.80	228.02
854.11	227.99
854.42	228.02
854.74	228.00
855.05	228.00
855.36	227.95
855.67	227.96
855.99	227.93
856.30	228.02
856.61	228.01
856.92	228.00
857.23	227.97
857.55	227.96
857.86	227.95
858.17	227.95
858.48	227.91
858.79	227.90
859.11	227.88
859.42	227.80
859.73	227.75
860.04	227.73
860.35	227.70
860.66	227.67
860.98	227.63
861.29	227.66
861.60	227.64
861.91	227.66
862.22	227.62
862.53	227.60
862.84	227.49
863.16	227.49
863.47	227.47
863.78	227.43
864.09	227.39
864.40	227.36
864.71	227.34
865.02	227.38
865.33	227.30
865.64	227.27
865.95	227.24
866.27	227.32
866.58	227.29
866.89	227.28
867.20	227.29
867.51	227.32
867.82	227.27
868.13	227.28
868.44	227.27
868.75	227.28
869.06	227.27
869.37	227.28
869.68	227.27
869.99	227.29
870.30	227.31
870.61	227.36
870.92	227.37
871.23	227.37
871.54	227.38
871.85	227.45
872.16	227.48
872.47	227.53
872.78	227.45
873.09	227.48
873.40	227.46
873.71	227.47
874.02	227.42
874.33	227.46
874.64	227.43
874.95	227.43
875.26	227.42
875.56	227.42
875.87	227.47
876.18	227.45
876.49	227.58
876.80	227.58
877.11	227.54
877.42	227.57
877.73	227.52
878.04	227.51
878.35	227.48
878.66	227.45
878.96	227.45
879.27	227.43
879.58	227.43
879.89	227.44
880.20	227.49
880.51	227.49
880.82	227.48
881.12	227.51
881.43	227.51
881.74	227.52
882.05	227.51
882.36	227.49
882.67	227.52
882.97	227.40
883.28	227.38
883.59	227.39
883.90	227.36
884.21	227.42
884.51	227.41
884.82	227.39
885.13	227.41
885.44	227.39
885.74	227.42
886.05	227.40
886.36	227.40
886.67	227.35
886.98	227.40
887.28	227.42
887.59	227.39
887.90	227.38
888.20	227.37
888.51	227.42
888.82	227.38
889.13	227.38
889.43	227.46
889.74	227.45
890.05	227.43
890.35	227.43
890.66	227.41
890.97	227.39
891.28	227.40
891.58	227.38
891.89	227.38
892.20	227.36
892.50	227.34
892.81	227.32
893.12	227.34
893.42	227.31
893.73	227.28
894.04	227.31
894.34	227.31
894.65	227.28
894.95	227.21
895.26	227.21
895.57	227.23
895.87	227.12
896.18	227.13
896.48	227.13
896.79	227.12
897.10	227.15
897.40	227.17
897.71	227.18
898.01	227.19
898.32	227.19
898.63	227.19
898.93	227.23
899.24	227.22
899.54	227.20
899.85	227.18
900.15	227.19
900.46	227.15
900.76	227.17
901.07	227.19
901.38	227.22
901.68	227.26
901.99	227.21
902.29	227.20
902.60	227.19
902.90	227.19
903.21	227.17
903.51	227.13
903.82	227.14
904.12	227.13
904.43	227.14
904.73	227.13
905.03	227.13
905.34	227.19
905.64	227.21
905.95	227.23
906.25	227.26
906.56	227.24
906.86	227.25
907.17	227.22
907.47	227.23
907.77	227.22
908.08	227.19
908.38	227.20
908.69	227.23
908.99	227.27
909.30	227.29
909.60	227.30
909.90	227.33
910.21	227.32
910.51	227.31
910.81	227.31
911.12	227.33
911.42	227.35
911.73	227.25
912.03	227.24
912.33	227.26
912.64	227.25
912.94	227.24
913.24	227.20
913.55	227.20
913.85	227.22
914.15	227.24
914.46	227.27
914.76	227.29
915.06	227.25
915.37	227.23
915.67	227.21
915.97	227.19
916.27	227.14
916.58	227.14
916.88	227.12
917.18	227.11
917.49	227.15
917.79	227.14
918.09	227.19
918.39	227.20
918.70	227.17
919.00	227.16
919.30	227.22
919.60	227.23
919.91	227.22
920.21	227.18
920.51	227.18
920.81	227.15
921.12	227.16
921.42	227.17
921.72	227.14
922.02	227.17
922.32	227.21
922.63	227.24
922.93	227.27
923.23	227.31
923.53	227.31
923.83	227.26
924.13	227.25
924.44	227.22
924.74	227.25
925.04	227.25
925.34	227.25
925.64	227.22
925.94	227.22
926.24	227.28
926.55	227.31
926.85	227.28
927.15	227.26
927.45	227.25
927.75	227.26
928.05	227.26
928.35	227.23
928.65	227.27
928.95	227.28
929.26	227.25
929.56	227.25
929.86	227.24
930.16	227.21
930.46	227.19
930.76	227.17
931.06	227.12
931.36	227.09
931.66	227.08
931.96	227.07
932.26	227.07
932.56	227.04
932.86	227.04
933.16	227.01
933.46	227.01
933.76	227.00
934.06	227.02
934.36	227.08
934.66	227.06
934.96	227.00
935.26	226.99
935.56	227.00
935.86	226.98
936.16	226.94
936.46	226.94
936.76	226.95
937.06	226.95
937.36	226.93
937.66	226.95
937.96	226.92
938.26	226.88
938.56	226.86
938.86	226.83
939.16	226.82
939.46	226.84
939.76	226.86
940.06	226.83
940.35	226.79
940.65	226.71
940.95	226.74
941.25	226.71
941.55	226.70
941.85	226.67
942.15	226.70
942.45	226.76
942.75	226.77
943.04	226.76
943.34	226.79
943.64	226.83
943.94	226.81
944.24	226.84
944.54	226.86
944.84	226.90
945.13	226.91
945.43	226.89
945.73	226.90
946.03	226.87
946.33	226.88
946.62	226.90
946.92	226.92
947.22	226.90
947.52	226.92
947.82	226.93
948.11	226.94
948.41	226.92
948.71	226.86
949.01	226.86
949.31	226.88
949.60	226.85
949.90	226.87
950.20	226.86
950.50	226.87
950.79	226.88
951.09	226.88
951.39	226.86
951.69	226.85
951.98	226.87
952.28	226.89
952.58	226.89
952.87	226.89
953.17	226.88
953.47	226.88
953.76	226.87
954.06	226.87
954.36	226.87
954.66	226.87
954.95	226.96
955.25	226.98
955.55	226.99
955.84	226.98
956.14	226.97
956.44	227.00
956.73	226.97
957.03	226.97
957.32	226.97
957.62	226.99
957.92	227.01
958.21	226.97
958.51	227.06
958.81	227.07
959.10	227.06
959.40	227.11
959.69	227.10
959.99	227.12
960.29	227.09
960.58	227.11
960.88	227.13
961.17	227.06
961.47	227.07
961.76	227.03
962.06	227.06
962.36	227.05
962.65	227.04
962.95	227.05
963.24	227.06
963.54	227.07
963.83	227.07
964.13	227.06
964.42	227.05
964.72	226.99
965.01	226.99
965.31	227.01
965.60	226.97
965.90	227.02
966.19	227.01
966.49	227.01
966.78	227.01
967.08	227.01
967.37	227.05
967.67	227.01
967.96	227.10
968.26	227.09
968.55	227.07
968.85	227.05
969.14	227.06
969.43	227.03
969.73	227.02
970.02	227.03
970.32	227.02
970.61	227.05
970.91	227.02
971.20	226.97
971.49	226.96
971.79	226.98
972.08	226.95
972.38	226.93
972.67	226.94
972.96	226.93
973.26	226.89
973.55	226.90
973.85	226.90
974.14	226.81
974.43	226.82
974.73	226.82
975.02	226.84
975.31	226.84
975.61	226.85
975.90	226.82
976.19	226.81
976.49	226.84
976.78	226.81
977.07	226.81
977.37	226.85
977.66	226.88
977.95	226.88
978.24	226.90
978.54	226.95
978.83	226.94
979.12	226.96
979.42	227.00
979.71	227.02
980.00	227.05
980.29	227.12
980.59	227.14
980.88	227.17
981.17	227.18
981.46	227.18
981.76	227.15
982.05	227.19
982.34	227.20
982.63	227.20
982.93	227.25
983.22	227.30
983.51	227.32
983.80	227.34
984.09	227.33
984.39	227.33
984.68	227.30
984.97	227.30
985.26	227.27
985.55	227.20
985.85	227.17
986.14	227.15
986.43	227.11
986.72	227.08
987.01	227.05
987.30	227.06
987.59	227.07
987.89	227.10
988.18	227.05
988.47	227.04
988.76	227.02
989.05	226.98
989.34	226.92
989.63	226.93
989.92	226.88
990.22	226.89
990.51	226.89
990.80	226.89
991.09	226.93
991.38	226.94
991.67	226.99
991.96	226.99
992.25	226.99
992.54	226.98
992.83	226.98
993.12	226.98
993.41	226.96
993.70	227.00
993.99	226.99
994.28	227.01
994.58	227.04
994.87	227.02
995.16	227.01
995.45	227.05
995.74	226.99
996.03	227.03
996.32	227.00
996.61	227.00
996.90	226.98
997.19	226.96
997.48	226.99
997.77	226.96
998.06	226.96
998.34	226.95
998.63	226.97
998.92	226.95
999.21	226.95
999.50	226.95
999.79	226.90
1000.08	226.91
1000.37	226.90
1000.66	226.89
1000.95	226.91
1001.24	226.95
1001.53	226.96
1001.82	226.97
1002.11	226.91
1002.40	226.94
1002.68	226.96
1002.97	227.04
1003.26	227.01
1003.55	227.01
1003.84	227.00
1004.13	227.02
1004.42	227.02
1004.71	227.01
1004.99	227.03
1005.28	227.10
1005.57	227.12
1005.86	227.13
1006.15	227.14
1006.44	227.14
1006.72	227.12
1007.01	227.10
1007.30	227.06
1007.59	227.02
1007.88	227.03
1008.17	227.04
1008.45	227.01
1008.74	226.97
1009.03	226.91
1009.32	226.90
1009.60	226.87
1009.89	226.87
1010.18	226.85
1010.47	226.87
1010.76	226.85
1011.04	226.84
1011.33	226.80
1011.62	226.81
1011.91	226.81
1012.19	226.80
1012.48	226.81
1012.77	226.82
1013.05	226.89
1013.34	226.90
1013.63	226.90
1013.92	226.90
1014.20	226.92
1014.49	226.95
1014.78	226.96
1015.06	226.93
1015.35	226.95
1015.64	226.98
1015.92	226.98
1016.21	226.97
1016.50	226.95
1016.78	227.01
1017.07	227.03
1017.36	227.00
1017.64	227.00
1017.93	227.01
1018.22	227.00
1018.50	226.98
1018.79	226.98
1019.08	226.94
1019.36	226.94
1019.65	226.95
1019.93	227.01
1020.22	226.99
1020.51	227.05
1020.79	227.04
1021.08	226.99
1021.36	226.41
1021.65	226.67
1021.94	227.06
1022.22	226.76
1022.51	226.90
1022.79	228.06
1023.08	226.78
1023.36	228.61
1023.65	226.35
>>>>>End Processed Spectral Data<<<<<
