SpectraSuite Data File
++++++++++++++++++++++++++++++++++++
Date: Fri Feb 01 15:50:46 EST 2013
User: group
Dark Spectrum Present: No
Reference Spectrum Present: No
Number of Sampled Component Spectra: 1
Spectrometers: USB2E7196
Integration Time (usec): 35000 (USB2E7196)
Spectra Averaged: 100 (USB2E7196)
Boxcar Smoothing: 10 (USB2E7196)
Correct for Electrical Dark: No (USB2E7196)
Strobe/Lamp Enabled: No (USB2E7196)
Correct for Detector Non-linearity: No (USB2E7196)
Correct for Stray Light: No (USB2E7196)
Number of Pixels in Processed Spectrum: 2048
>>>>>Begin Processed Spectral Data<<<<<
339.09	0.00
339.48	214.73
339.86	216.24
340.24	217.75
340.63	218.90
341.01	222.10
341.39	221.65
341.78	222.95
342.16	224.24
342.54	224.40
342.93	213.22
343.31	223.99
343.69	224.56
344.07	225.05
344.46	225.47
344.84	225.88
345.22	226.10
345.60	226.33
345.99	226.55
346.37	226.70
346.75	226.83
347.13	226.92
347.52	227.03
347.90	227.12
348.28	227.16
348.66	227.16
349.05	227.16
349.43	227.22
349.81	227.23
350.19	227.24
350.57	227.32
350.96	227.39
351.34	227.50
351.72	227.56
352.10	227.62
352.48	227.68
352.87	227.72
353.25	227.81
353.63	227.92
354.01	227.96
354.39	228.01
354.77	228.10
355.15	228.19
355.54	228.21
355.92	228.25
356.30	228.33
356.68	228.50
357.06	228.57
357.44	228.60
357.82	228.65
358.20	228.75
358.58	228.82
358.97	228.89
359.35	228.95
359.73	229.06
360.11	229.11
360.49	229.19
360.87	229.24
361.25	229.29
361.63	229.33
362.01	229.40
362.39	229.44
362.77	229.49
363.15	229.53
363.53	229.56
363.91	229.59
364.29	229.62
364.67	229.53
365.05	229.55
365.43	229.59
365.81	229.60
366.19	229.64
366.57	229.65
366.95	229.65
367.33	229.59
367.71	229.54
368.09	229.54
368.47	229.49
368.85	229.45
369.23	229.41
369.61	229.36
369.99	229.36
370.37	229.35
370.75	229.32
371.13	229.22
371.51	229.14
371.89	229.10
372.27	229.02
372.65	228.98
373.03	228.92
373.41	228.85
373.78	228.80
374.16	228.68
374.54	228.61
374.92	228.50
375.30	228.46
375.68	228.35
376.06	228.28
376.44	228.20
376.82	228.15
377.19	228.09
377.57	228.01
377.95	227.89
378.33	227.82
378.71	227.70
379.09	227.67
379.47	227.64
379.84	227.55
380.22	227.47
380.60	227.39
380.98	227.33
381.36	227.24
381.73	227.16
382.11	227.10
382.49	227.02
382.87	226.97
383.25	226.91
383.62	226.97
384.00	226.91
384.38	226.87
384.76	226.80
385.13	226.79
385.51	226.74
385.89	226.66
386.27	226.58
386.64	226.53
387.02	226.46
387.40	226.41
387.78	226.39
388.15	226.34
388.53	226.30
388.91	226.25
389.29	226.22
389.66	226.21
390.04	226.18
390.42	226.20
390.79	226.17
391.17	226.15
391.55	226.05
391.92	226.02
392.30	226.06
392.68	226.06
393.05	226.06
393.43	226.09
393.81	226.14
394.18	226.15
394.56	226.16
394.94	226.22
395.31	226.23
395.69	226.26
396.06	226.34
396.44	226.38
396.82	226.43
397.19	226.52
397.57	226.56
397.95	226.66
398.32	226.66
398.70	226.75
399.07	226.83
399.45	226.91
399.82	227.01
400.20	227.05
400.58	227.13
400.95	227.14
401.33	227.24
401.70	227.38
402.08	227.49
402.45	227.59
402.83	227.68
403.20	227.81
403.58	227.90
403.95	228.00
404.33	228.13
404.71	228.24
405.08	228.40
405.46	228.53
405.83	228.66
406.21	228.81
406.58	228.96
406.96	229.10
407.33	229.26
407.70	229.41
408.08	229.68
408.45	229.92
408.83	230.15
409.20	230.35
409.58	230.54
409.95	230.79
410.33	231.09
410.70	231.32
411.08	231.60
411.45	231.92
411.82	232.23
412.20	232.57
412.57	232.99
412.95	233.30
413.32	233.72
413.69	234.12
414.07	234.56
414.44	235.00
414.82	235.51
415.19	236.07
415.56	236.65
415.94	237.19
416.31	237.83
416.68	238.46
417.06	239.18
417.43	239.85
417.81	240.59
418.18	241.32
418.55	242.19
418.93	243.03
419.30	243.93
419.67	244.87
420.04	245.84
420.42	246.82
420.79	247.99
421.16	249.09
421.54	250.30
421.91	251.50
422.28	252.78
422.66	254.08
423.03	255.35
423.40	256.65
423.77	258.02
424.15	259.44
424.52	260.91
424.89	262.52
425.26	264.05
425.64	265.51
426.01	267.13
426.38	268.76
426.75	270.46
427.13	272.18
427.50	273.99
427.87	275.85
428.24	277.71
428.61	279.43
428.99	281.42
429.36	283.50
429.73	285.59
430.10	287.64
430.47	289.74
430.85	291.88
431.22	294.12
431.59	296.51
431.96	298.75
432.33	301.20
432.70	303.57
433.08	306.40
433.45	309.05
433.82	311.68
434.19	314.60
434.56	317.42
434.93	320.08
435.30	322.70
435.68	325.64
436.05	328.46
436.42	331.27
436.79	333.76
437.16	336.48
437.53	339.29
437.90	342.11
438.27	344.84
438.64	347.70
439.01	350.32
439.38	352.57
439.75	354.75
440.13	357.31
440.50	359.61
440.87	361.47
441.24	363.40
441.61	365.55
441.98	367.00
442.35	368.79
442.72	370.68
443.09	372.44
443.46	373.42
443.83	374.07
444.20	374.58
444.57	375.39
444.94	375.63
445.31	375.96
445.68	376.22
446.05	376.30
446.42	375.89
446.79	375.44
447.16	374.97
447.53	374.69
447.90	373.52
448.27	372.39
448.64	370.83
449.01	369.74
449.37	367.73
449.74	365.88
450.11	363.65
450.48	361.11
450.85	358.60
451.22	356.46
451.59	354.36
451.96	352.40
452.33	349.85
452.70	347.53
453.07	344.71
453.43	341.84
453.80	339.05
454.17	336.38
454.54	333.87
454.91	331.18
455.28	328.49
455.65	325.98
456.02	323.49
456.38	321.35
456.75	318.68
457.12	316.45
457.49	314.22
457.86	312.03
458.23	310.21
458.59	308.21
458.96	306.11
459.33	304.29
459.70	302.45
460.07	300.93
460.43	299.19
460.80	297.58
461.17	296.14
461.54	294.65
461.91	293.20
462.27	291.73
462.64	290.44
463.01	289.05
463.38	287.75
463.74	286.40
464.11	285.21
464.48	284.18
464.85	283.07
465.21	282.18
465.58	281.27
465.95	280.15
466.32	279.20
466.68	278.30
467.05	277.42
467.42	276.51
467.78	275.57
468.15	274.72
468.52	274.05
468.88	273.20
469.25	272.44
469.62	271.80
469.98	271.12
470.35	270.53
470.72	269.94
471.08	269.30
471.45	268.77
471.82	268.19
472.18	267.58
472.55	267.11
472.92	266.60
473.28	266.13
473.65	265.65
474.02	265.24
474.38	264.87
474.75	264.51
475.11	264.17
475.48	263.90
475.85	263.64
476.21	263.42
476.58	263.27
476.94	263.14
477.31	263.02
477.67	262.89
478.04	262.77
478.41	262.70
478.77	262.76
479.14	262.68
479.50	262.72
479.87	262.75
480.23	262.84
480.60	262.91
480.96	263.03
481.33	263.28
481.69	263.50
482.06	263.71
482.42	263.94
482.79	264.20
483.15	264.55
483.52	264.92
483.88	265.27
484.25	265.62
484.61	266.06
484.98	266.52
485.34	267.09
485.71	267.71
486.07	268.35
486.44	268.97
486.80	269.68
487.17	270.46
487.53	271.34
487.90	272.20
488.26	273.17
488.62	274.16
488.99	275.13
489.35	276.17
489.72	277.30
490.08	278.48
490.44	279.78
490.81	281.13
491.17	282.50
491.54	284.01
491.90	285.60
492.26	287.23
492.63	288.93
492.99	290.71
493.36	292.60
493.72	294.66
494.08	296.73
494.45	299.02
494.81	301.32
495.17	303.74
495.54	306.30
495.90	308.97
496.26	311.76
496.63	314.69
496.99	317.78
497.35	321.05
497.72	324.46
498.08	327.93
498.44	331.57
498.80	335.52
499.17	339.54
499.53	343.69
499.89	348.07
500.26	352.61
500.62	357.26
500.98	362.22
501.34	367.26
501.71	372.64
502.07	378.07
502.43	383.69
502.79	389.53
503.16	395.61
503.52	401.85
503.88	408.27
504.24	414.93
504.60	421.84
504.97	428.96
505.33	436.27
505.69	443.91
506.05	451.74
506.41	459.59
506.78	467.68
507.14	476.12
507.50	484.80
507.86	493.84
508.22	503.10
508.59	512.24
508.95	521.80
509.31	531.56
509.67	541.60
510.03	551.97
510.39	562.49
510.75	573.32
511.12	584.33
511.48	595.60
511.84	607.07
512.20	618.56
512.56	630.46
512.92	642.65
513.28	655.09
513.64	667.49
514.00	680.17
514.37	693.15
514.73	706.22
515.09	719.35
515.45	732.59
515.81	746.09
516.17	760.09
516.53	774.26
516.89	788.48
517.25	802.71
517.61	817.04
517.97	831.51
518.33	845.88
518.69	860.57
519.05	875.55
519.41	890.69
519.77	906.22
520.13	921.65
520.49	936.99
520.85	952.35
521.21	968.17
521.57	984.44
521.93	1000.24
522.29	1016.60
522.65	1032.78
523.01	1049.04
523.37	1065.18
523.73	1081.44
524.09	1097.61
524.45	1113.91
524.81	1130.57
525.17	1147.48
525.53	1164.36
525.89	1181.37
526.25	1198.28
526.61	1214.59
526.97	1231.27
527.33	1247.78
527.68	1264.42
528.04	1280.91
528.40	1297.50
528.76	1314.50
529.12	1331.07
529.48	1347.82
529.84	1363.93
530.20	1380.54
530.56	1397.46
530.91	1414.65
531.27	1431.39
531.63	1447.75
531.99	1464.17
532.35	1480.03
532.71	1495.76
533.07	1512.01
533.42	1527.81
533.78	1543.79
534.14	1560.15
534.50	1575.59
534.86	1591.41
535.21	1606.48
535.57	1622.53
535.93	1638.05
536.29	1652.80
536.65	1667.75
537.00	1682.76
537.36	1697.95
537.72	1712.38
538.08	1726.76
538.44	1740.70
538.79	1754.47
539.15	1768.17
539.51	1781.87
539.87	1796.18
540.22	1810.08
540.58	1823.72
540.94	1836.87
541.29	1849.78
541.65	1862.43
542.01	1875.57
542.37	1887.90
542.72	1900.44
543.08	1911.97
543.44	1924.36
543.79	1935.57
544.15	1946.63
544.51	1957.99
544.87	1968.93
545.22	1979.79
545.58	1990.10
545.94	1999.86
546.29	2009.70
546.65	2019.52
547.01	2028.88
547.36	2037.65
547.72	2046.09
548.07	2054.00
548.43	2062.30
548.79	2070.36
549.14	2078.02
549.50	2085.37
549.86	2093.04
550.21	2100.34
550.57	2107.54
550.92	2114.01
551.28	2120.95
551.64	2128.04
551.99	2134.54
552.35	2140.69
552.70	2146.86
553.06	2152.89
553.41	2159.17
553.77	2165.15
554.13	2171.16
554.48	2177.27
554.84	2182.77
555.19	2187.94
555.55	2193.10
555.90	2197.54
556.26	2202.21
556.61	2206.83
556.97	2211.02
557.32	2215.14
557.68	2219.23
558.03	2223.56
558.39	2227.35
558.74	2232.07
559.10	2235.90
559.45	2239.57
559.81	2243.96
560.16	2247.73
560.52	2250.90
560.87	2254.40
561.23	2257.08
561.58	2260.16
561.94	2262.65
562.29	2264.86
562.64	2267.48
563.00	2270.14
563.35	2273.62
563.71	2276.86
564.06	2280.04
564.42	2282.90
564.77	2285.38
565.12	2287.59
565.48	2289.40
565.83	2291.22
566.19	2292.51
566.54	2293.42
566.89	2294.64
567.25	2295.08
567.60	2296.37
567.96	2298.03
568.31	2298.71
568.66	2299.82
569.02	2300.12
569.37	2300.46
569.72	2301.43
570.08	2301.69
570.43	2301.67
570.78	2301.08
571.14	2299.50
571.49	2298.12
571.84	2297.93
572.20	2296.85
572.55	2295.88
572.90	2294.37
573.26	2292.89
573.61	2291.28
573.96	2289.54
574.31	2286.59
574.67	2283.59
575.02	2279.91
575.37	2276.34
575.72	2272.69
576.08	2269.43
576.43	2266.22
576.78	2262.47
577.13	2259.27
577.49	2256.11
577.84	2252.57
578.19	2248.91
578.54	2245.35
578.90	2241.20
579.25	2235.55
579.60	2230.48
579.95	2225.45
580.30	2220.44
580.66	2215.40
581.01	2210.48
581.36	2205.62
581.71	2201.35
582.06	2196.88
582.42	2192.50
582.77	2187.46
583.12	2182.87
583.47	2178.12
583.82	2173.06
584.17	2167.99
584.53	2162.46
584.88	2156.76
585.23	2151.00
585.58	2145.37
585.93	2139.83
586.28	2135.02
586.63	2129.91
586.98	2124.95
587.34	2120.27
587.69	2115.46
588.04	2110.11
588.39	2104.28
588.74	2097.74
589.09	2091.59
589.44	2084.80
589.79	2078.91
590.14	2073.21
590.49	2066.60
590.84	2060.30
591.19	2054.33
591.54	2047.79
591.89	2040.41
592.25	2033.64
592.60	2026.40
592.95	2018.86
593.30	2011.45
593.65	2003.85
594.00	1996.83
594.35	1989.55
594.70	1981.51
595.05	1974.20
595.40	1966.92
595.75	1959.45
596.10	1953.23
596.45	1946.45
596.80	1940.35
597.15	1933.55
597.50	1926.30
597.85	1919.88
598.19	1913.13
598.54	1906.03
598.89	1899.39
599.24	1893.59
599.59	1886.82
599.94	1880.72
600.29	1874.41
600.64	1868.05
600.99	1860.62
601.34	1853.76
601.69	1846.72
602.04	1839.71
602.39	1832.33
602.74	1825.56
603.08	1818.76
603.43	1812.05
603.78	1804.70
604.13	1797.44
604.48	1790.06
604.83	1783.40
605.18	1776.27
605.53	1768.16
605.87	1760.15
606.22	1752.97
606.57	1744.89
606.92	1737.64
607.27	1730.30
607.62	1723.34
607.96	1715.87
608.31	1709.16
608.66	1701.60
609.01	1694.11
609.36	1686.62
609.70	1678.59
610.05	1670.56
610.40	1662.77
610.75	1654.22
611.10	1646.61
611.44	1638.29
611.79	1630.44
612.14	1621.84
612.49	1612.74
612.83	1604.48
613.18	1596.26
613.53	1588.12
613.88	1579.55
614.22	1571.27
614.57	1562.78
614.92	1554.81
615.27	1547.19
615.61	1538.96
615.96	1530.92
616.31	1523.30
616.65	1515.93
617.00	1508.47
617.35	1500.73
617.70	1492.49
618.04	1484.17
618.39	1475.96
618.74	1468.26
619.08	1459.89
619.43	1452.27
619.78	1445.40
620.12	1438.14
620.47	1430.70
620.82	1422.49
621.16	1415.21
621.51	1407.61
621.85	1399.90
622.20	1391.39
622.55	1383.09
622.89	1375.25
623.24	1367.60
623.59	1360.13
623.93	1352.64
624.28	1345.45
624.62	1337.92
624.97	1330.77
625.32	1324.04
625.66	1317.03
626.01	1309.88
626.35	1302.37
626.70	1294.53
627.04	1286.78
627.39	1279.19
627.73	1271.77
628.08	1264.86
628.43	1257.46
628.77	1250.08
629.12	1242.55
629.46	1235.40
629.81	1228.08
630.15	1220.80
630.50	1213.38
630.84	1205.24
631.19	1197.32
631.53	1189.79
631.88	1182.25
632.22	1174.67
632.57	1167.36
632.91	1159.83
633.26	1152.44
633.60	1145.23
633.95	1138.16
634.29	1131.15
634.64	1124.37
634.98	1116.99
635.32	1109.79
635.67	1103.27
636.01	1096.64
636.36	1089.87
636.70	1083.38
637.05	1076.82
637.39	1070.44
637.73	1063.99
638.08	1058.13
638.42	1052.15
638.77	1045.68
639.11	1039.10
639.45	1032.67
639.80	1026.03
640.14	1019.65
640.49	1013.07
640.83	1006.77
641.17	1000.51
641.52	994.19
641.86	987.76
642.20	981.94
642.55	975.71
642.89	969.18
643.23	962.67
643.58	956.90
643.92	950.71
644.26	944.59
644.61	938.53
644.95	932.51
645.29	925.92
645.64	919.10
645.98	912.81
646.32	907.04
646.66	901.14
647.01	895.35
647.35	889.58
647.69	883.80
648.04	878.17
648.38	872.39
648.72	866.33
649.06	860.29
649.41	854.38
649.75	848.37
650.09	842.49
650.43	836.72
650.78	830.60
651.12	824.54
651.46	818.86
651.80	813.04
652.14	807.59
652.49	802.22
652.83	797.10
653.17	791.32
653.51	785.52
653.85	780.06
654.20	774.35
654.54	768.27
654.88	762.55
655.22	756.64
655.56	750.96
655.90	745.60
656.25	740.34
656.59	734.96
656.93	729.92
657.27	724.76
657.61	719.33
657.95	714.20
658.29	709.16
658.64	703.89
658.98	698.63
659.32	693.19
659.66	687.96
660.00	682.68
660.34	677.77
660.68	672.92
661.02	667.82
661.36	663.14
661.70	658.67
662.05	654.30
662.39	650.05
662.73	645.65
663.07	641.25
663.41	636.77
663.75	632.26
664.09	627.65
664.43	623.23
664.77	619.07
665.11	614.78
665.45	610.67
665.79	606.57
666.13	602.40
666.47	598.30
666.81	594.13
667.15	589.95
667.49	585.99
667.83	582.14
668.17	578.20
668.51	574.11
668.85	570.15
669.19	566.30
669.53	562.39
669.87	558.47
670.21	554.75
670.55	551.10
670.89	547.69
671.23	544.26
671.57	540.76
671.91	537.21
672.25	533.75
672.58	530.18
672.92	526.76
673.26	523.60
673.60	520.41
673.94	517.31
674.28	514.41
674.62	511.52
674.96	508.41
675.30	505.57
675.64	502.60
675.97	499.81
676.31	496.89
676.65	494.04
676.99	491.33
677.33	488.47
677.67	485.66
678.01	482.69
678.34	479.66
678.68	476.83
679.02	474.02
679.36	471.26
679.70	468.55
680.04	465.82
680.37	462.94
680.71	460.21
681.05	457.59
681.39	454.86
681.73	452.25
682.06	449.74
682.40	447.17
682.74	444.70
683.08	442.16
683.42	439.63
683.75	437.12
684.09	434.55
684.43	432.07
684.77	429.62
685.10	427.25
685.44	425.02
685.78	422.68
686.12	420.47
686.45	418.20
686.79	415.95
687.13	413.78
687.46	411.67
687.80	409.54
688.14	407.34
688.48	405.35
688.81	403.07
689.15	400.91
689.49	398.75
689.82	396.64
690.16	394.55
690.50	392.61
690.83	390.64
691.17	388.74
691.51	386.89
691.84	385.02
692.18	383.11
692.52	381.13
692.85	379.19
693.19	377.34
693.52	375.50
693.86	373.71
694.20	371.92
694.53	370.12
694.87	368.27
695.21	366.48
695.54	364.61
695.88	362.91
696.21	361.18
696.55	359.48
696.88	357.83
697.22	356.18
697.56	354.53
697.89	352.87
698.23	351.21
698.56	349.55
698.90	347.95
699.23	346.31
699.57	344.73
699.90	343.20
700.24	341.64
700.58	340.07
700.91	338.54
701.25	337.07
701.58	335.71
701.92	334.33
702.25	332.96
702.59	331.58
702.92	330.22
703.26	328.89
703.59	327.64
703.93	326.45
704.26	325.19
704.60	323.93
704.93	322.67
705.26	321.43
705.60	320.29
705.93	319.12
706.27	318.06
706.60	317.00
706.94	315.93
707.27	314.77
707.61	313.74
707.94	312.69
708.27	311.55
708.61	310.43
708.94	309.39
709.28	308.40
709.61	307.46
709.94	306.52
710.28	305.52
710.61	304.56
710.95	303.47
711.28	302.58
711.61	301.60
711.95	300.64
712.28	299.67
712.61	298.66
712.95	297.74
713.28	296.88
713.61	296.02
713.95	295.15
714.28	294.30
714.61	293.45
714.95	292.64
715.28	291.83
715.61	290.93
715.95	290.12
716.28	289.26
716.61	288.44
716.95	287.64
717.28	286.89
717.61	286.11
717.94	285.38
718.28	284.58
718.61	283.88
718.94	283.23
719.27	282.56
719.61	281.92
719.94	281.30
720.27	280.60
720.60	279.91
720.94	279.26
721.27	278.69
721.60	278.09
721.93	277.45
722.27	276.91
722.60	276.41
722.93	275.81
723.26	275.30
723.59	274.74
723.93	274.18
724.26	273.65
724.59	273.09
724.92	272.54
725.25	272.05
725.59	271.50
725.92	271.00
726.25	270.50
726.58	270.02
726.91	269.49
727.24	269.01
727.57	268.55
727.91	268.05
728.24	267.58
728.57	267.06
728.90	266.65
729.23	266.15
729.56	265.73
729.89	265.27
730.22	264.76
730.55	264.30
730.89	263.83
731.22	263.36
731.55	262.93
731.88	262.54
732.21	262.11
732.54	261.71
732.87	261.26
733.20	260.88
733.53	260.48
733.86	260.10
734.19	259.67
734.52	259.28
734.85	258.96
735.18	258.54
735.51	258.20
735.84	257.79
736.17	257.45
736.50	257.03
736.83	256.79
737.16	256.45
737.49	256.10
737.82	255.80
738.15	255.49
738.48	255.15
738.81	254.82
739.14	254.47
739.47	254.16
739.80	253.87
740.13	253.55
740.46	253.25
740.79	252.91
741.12	252.63
741.45	252.30
741.78	251.95
742.11	251.69
742.44	251.34
742.77	251.05
743.10	250.75
743.43	250.42
743.75	250.02
744.08	249.89
744.41	249.62
744.74	249.31
745.07	249.01
745.40	248.79
745.73	248.55
746.06	248.27
746.39	247.99
746.71	247.72
747.04	247.42
747.37	247.13
747.70	246.88
748.03	246.62
748.36	246.42
748.68	246.22
749.01	245.94
749.34	245.78
749.67	245.57
750.00	245.36
750.33	245.21
750.65	245.04
750.98	244.74
751.31	244.51
751.64	244.34
751.97	244.18
752.29	243.96
752.62	243.69
752.95	243.46
753.28	243.23
753.60	243.04
753.93	242.87
754.26	242.71
754.59	242.51
754.91	242.32
755.24	242.12
755.57	241.91
755.90	241.76
756.22	241.54
756.55	241.34
756.88	241.13
757.20	240.92
757.53	240.69
757.86	240.53
758.19	240.38
758.51	240.19
758.84	240.01
759.17	239.84
759.49	239.73
759.82	239.63
760.15	239.49
760.47	239.34
760.80	239.19
761.13	239.05
761.45	238.91
761.78	238.78
762.11	238.64
762.43	238.47
762.76	238.32
763.08	238.21
763.41	238.06
763.74	237.96
764.06	237.83
764.39	237.70
764.71	237.54
765.04	237.42
765.37	237.32
765.69	237.19
766.02	237.03
766.34	236.88
766.67	236.77
767.00	236.70
767.32	236.62
767.65	236.56
767.97	236.44
768.30	236.34
768.62	236.23
768.95	236.10
769.27	236.04
769.60	235.96
769.92	235.82
770.25	235.72
770.57	235.59
770.90	235.47
771.22	235.36
771.55	235.26
771.87	235.16
772.20	235.06
772.52	235.04
772.85	235.07
773.17	234.98
773.50	234.84
773.82	234.72
774.15	234.57
774.47	234.42
774.80	234.30
775.12	234.20
775.45	234.12
775.77	234.05
776.09	233.95
776.42	233.87
776.74	233.81
777.07	233.74
777.39	233.66
777.72	233.57
778.04	233.51
778.36	233.45
778.69	233.35
779.01	233.25
779.33	233.11
779.66	232.93
779.98	232.86
780.31	232.80
780.63	232.78
780.95	232.74
781.28	232.67
781.60	232.59
781.92	232.53
782.25	232.43
782.57	232.35
782.89	232.27
783.22	232.17
783.54	232.12
783.86	232.05
784.19	231.98
784.51	231.96
784.83	231.89
785.16	231.82
785.48	231.78
785.80	231.73
786.12	231.66
786.45	231.62
786.77	231.59
787.09	231.53
787.42	231.42
787.74	231.37
788.06	231.32
788.38	231.27
788.71	231.21
789.03	231.18
789.35	231.15
789.67	231.09
789.99	231.09
790.32	231.01
790.64	230.96
790.96	231.01
791.28	230.95
791.61	230.91
791.93	230.89
792.25	230.83
792.57	230.88
792.89	230.81
793.21	230.77
793.54	230.71
793.86	230.67
794.18	230.64
794.50	230.61
794.82	230.58
795.14	230.57
795.47	230.55
795.79	230.50
796.11	230.45
796.43	230.44
796.75	230.39
797.07	230.37
797.39	230.37
797.71	230.27
798.04	230.24
798.36	230.21
798.68	230.17
799.00	230.15
799.32	230.07
799.64	230.07
799.96	230.05
800.28	230.05
800.60	230.01
800.92	229.99
801.24	229.97
801.56	229.95
801.89	229.92
802.21	229.90
802.53	229.86
802.85	229.86
803.17	229.89
803.49	229.85
803.81	229.77
804.13	229.68
804.45	229.63
804.77	229.61
805.09	229.58
805.41	229.55
805.73	229.52
806.05	229.47
806.37	229.44
806.69	229.41
807.01	229.38
807.33	229.37
807.65	229.34
807.97	229.38
808.28	229.36
808.60	229.37
808.92	229.33
809.24	229.40
809.56	229.36
809.88	229.27
810.20	229.29
810.52	229.32
810.84	229.34
811.16	229.33
811.48	229.30
811.80	229.28
812.12	229.26
812.43	229.24
812.75	229.20
813.07	229.17
813.39	229.16
813.71	229.10
814.03	229.08
814.35	229.05
814.67	228.94
814.98	228.93
815.30	228.87
815.62	228.84
815.94	228.77
816.26	228.77
816.58	228.72
816.89	228.70
817.21	228.62
817.53	228.57
817.85	228.57
818.17	228.53
818.48	228.47
818.80	228.46
819.12	228.42
819.44	228.38
819.76	228.35
820.07	228.31
820.39	228.31
820.71	228.28
821.03	228.25
821.34	228.27
821.66	228.24
821.98	228.21
822.30	228.22
822.61	228.23
822.93	228.17
823.25	228.15
823.57	228.12
823.88	228.13
824.20	228.10
824.52	228.07
824.83	228.06
825.15	228.05
825.47	228.02
825.79	227.99
826.10	227.97
826.42	227.96
826.74	227.98
827.05	227.97
827.37	227.99
827.69	228.00
828.00	227.92
828.32	227.90
828.64	227.90
828.95	227.90
829.27	227.86
829.58	227.89
829.90	227.91
830.22	227.93
830.53	227.93
830.85	227.96
831.17	227.92
831.48	227.93
831.80	227.92
832.11	227.94
832.43	227.96
832.75	227.98
833.06	228.01
833.38	227.96
833.69	227.96
834.01	227.92
834.32	227.92
834.64	227.94
834.96	227.94
835.27	227.94
835.59	227.91
835.90	227.90
836.22	227.83
836.53	227.83
836.85	227.79
837.16	227.88
837.48	227.88
837.79	227.97
838.11	227.94
838.42	227.95
838.74	227.94
839.05	227.90
839.37	227.87
839.68	227.84
840.00	227.83
840.31	227.82
840.63	227.82
840.94	227.78
841.26	227.78
841.57	227.78
841.88	227.78
842.20	227.79
842.51	227.79
842.83	227.80
843.14	227.87
843.46	227.85
843.77	227.81
844.08	227.78
844.40	227.73
844.71	227.74
845.03	227.74
845.34	227.74
845.65	227.77
845.97	227.81
846.28	227.79
846.60	227.82
846.91	227.80
847.22	227.84
847.54	227.88
847.85	227.87
848.16	227.82
848.48	227.78
848.79	227.80
849.10	227.81
849.42	227.83
849.73	227.74
850.04	227.72
850.36	227.68
850.67	227.66
850.98	227.64
851.30	227.65
851.61	227.64
851.92	227.61
852.23	227.64
852.55	227.61
852.86	227.60
853.17	227.58
853.49	227.59
853.80	227.56
854.11	227.56
854.42	227.54
854.74	227.56
855.05	227.55
855.36	227.51
855.67	227.48
855.99	227.45
856.30	227.56
856.61	227.53
856.92	227.51
857.23	227.52
857.55	227.50
857.86	227.47
858.17	227.45
858.48	227.44
858.79	227.38
859.11	227.39
859.42	227.41
859.73	227.38
860.04	227.38
860.35	227.36
860.66	227.31
860.98	227.31
861.29	227.33
861.60	227.30
861.91	227.27
862.22	227.28
862.53	227.25
862.84	227.14
863.16	227.19
863.47	227.20
863.78	227.20
864.09	227.21
864.40	227.19
864.71	227.23
865.02	227.24
865.33	227.24
865.64	227.21
865.95	227.19
866.27	227.27
866.58	227.28
866.89	227.25
867.20	227.27
867.51	227.27
867.82	227.26
868.13	227.30
868.44	227.29
868.75	227.29
869.06	227.30
869.37	227.33
869.68	227.31
869.99	227.33
870.30	227.32
870.61	227.33
870.92	227.32
871.23	227.31
871.54	227.29
871.85	227.30
872.16	227.32
872.47	227.31
872.78	227.26
873.09	227.26
873.40	227.28
873.71	227.30
874.02	227.29
874.33	227.30
874.64	227.30
874.95	227.37
875.26	227.34
875.56	227.32
875.87	227.30
876.18	227.28
876.49	227.37
876.80	227.38
877.11	227.34
877.42	227.35
877.73	227.33
878.04	227.36
878.35	227.39
878.66	227.37
878.96	227.38
879.27	227.37
879.58	227.37
879.89	227.35
880.20	227.36
880.51	227.37
880.82	227.35
881.12	227.35
881.43	227.30
881.74	227.29
882.05	227.33
882.36	227.34
882.67	227.34
882.97	227.20
883.28	227.15
883.59	227.17
883.90	227.20
884.21	227.24
884.51	227.19
884.82	227.15
885.13	227.15
885.44	227.15
885.74	227.17
886.05	227.12
886.36	227.11
886.67	227.09
886.98	227.13
887.28	227.12
887.59	227.14
887.90	227.16
888.20	227.15
888.51	227.15
888.82	227.11
889.13	227.12
889.43	227.24
889.74	227.25
890.05	227.23
890.35	227.18
890.66	227.16
890.97	227.16
891.28	227.16
891.58	227.18
891.89	227.16
892.20	227.11
892.50	227.12
892.81	227.13
893.12	227.10
893.42	227.05
893.73	227.06
894.04	227.02
894.34	227.00
894.65	227.00
894.95	226.97
895.26	226.98
895.57	227.03
895.87	226.90
896.18	226.92
896.48	226.93
896.79	226.94
897.10	226.94
897.40	226.93
897.71	226.96
898.01	226.93
898.32	226.95
898.63	226.96
898.93	226.96
899.24	226.95
899.54	226.93
899.85	226.95
900.15	226.92
900.46	226.94
900.76	226.93
901.07	226.94
901.38	226.95
901.68	226.97
901.99	226.90
902.29	226.89
902.60	226.86
902.90	226.84
903.21	226.83
903.51	226.80
903.82	226.83
904.12	226.79
904.43	226.82
904.73	226.84
905.03	226.85
905.34	226.94
905.64	226.93
905.95	226.94
906.25	226.91
906.56	226.91
906.86	226.89
907.17	226.89
907.47	226.89
907.77	226.88
908.08	226.81
908.38	226.80
908.69	226.80
908.99	226.85
909.30	226.88
909.60	226.90
909.90	226.89
910.21	226.86
910.51	226.87
910.81	226.83
911.12	226.81
911.42	226.79
911.73	226.67
912.03	226.68
912.33	226.69
912.64	226.69
912.94	226.72
913.24	226.71
913.55	226.71
913.85	226.70
914.15	226.70
914.46	226.75
914.76	226.74
915.06	226.78
915.37	226.76
915.67	226.74
915.97	226.71
916.27	226.70
916.58	226.74
916.88	226.75
917.18	226.76
917.49	226.83
917.79	226.83
918.09	226.87
918.39	226.91
918.70	226.91
919.00	226.91
919.30	226.93
919.60	226.94
919.91	226.92
920.21	226.95
920.51	226.96
920.81	226.96
921.12	226.99
921.42	226.99
921.72	226.97
922.02	226.99
922.32	227.00
922.63	227.03
922.93	227.05
923.23	227.05
923.53	227.03
923.83	226.99
924.13	227.02
924.44	227.00
924.74	226.97
925.04	227.01
925.34	227.01
925.64	226.99
925.94	227.00
926.24	227.06
926.55	227.06
926.85	227.12
927.15	227.14
927.45	227.11
927.75	227.09
928.05	227.12
928.35	227.12
928.65	227.15
928.95	227.16
929.26	227.12
929.56	227.14
929.86	227.18
930.16	227.19
930.46	227.20
930.76	227.21
931.06	227.19
931.36	227.18
931.66	227.19
931.96	227.21
932.26	227.20
932.56	227.16
932.86	227.15
933.16	227.14
933.46	227.12
933.76	227.14
934.06	227.16
934.36	227.19
934.66	227.20
934.96	227.19
935.26	227.19
935.56	227.19
935.86	227.16
936.16	227.14
936.46	227.09
936.76	227.06
937.06	227.03
937.36	227.05
937.66	227.03
937.96	227.03
938.26	226.97
938.56	226.98
938.86	226.98
939.16	227.00
939.46	226.98
939.76	226.97
940.06	226.96
940.35	226.97
940.65	226.88
940.95	226.89
941.25	226.84
941.55	226.83
941.85	226.83
942.15	226.85
942.45	226.87
942.75	226.88
943.04	226.88
943.34	226.93
943.64	226.88
943.94	226.87
944.24	226.84
944.54	226.87
944.84	226.82
945.13	226.78
945.43	226.74
945.73	226.72
946.03	226.73
946.33	226.72
946.62	226.67
946.92	226.69
947.22	226.65
947.52	226.65
947.82	226.67
948.11	226.66
948.41	226.61
948.71	226.59
949.01	226.62
949.31	226.62
949.60	226.58
949.90	226.60
950.20	226.59
950.50	226.62
950.79	226.62
951.09	226.63
951.39	226.63
951.69	226.62
951.98	226.67
952.28	226.65
952.58	226.64
952.87	226.65
953.17	226.66
953.47	226.68
953.76	226.67
954.06	226.66
954.36	226.63
954.66	226.64
954.95	226.62
955.25	226.63
955.55	226.64
955.84	226.66
956.14	226.66
956.44	226.69
956.73	226.69
957.03	226.69
957.32	226.72
957.62	226.75
957.92	226.75
958.21	226.71
958.51	226.82
958.81	226.83
959.10	226.83
959.40	226.87
959.69	226.87
959.99	226.91
960.29	226.91
960.58	226.91
960.88	226.96
961.17	226.99
961.47	226.98
961.76	226.99
962.06	226.99
962.36	227.02
962.65	226.98
962.95	227.00
963.24	227.02
963.54	226.99
963.83	227.03
964.13	227.05
964.42	227.05
964.72	226.97
965.01	227.00
965.31	226.98
965.60	226.94
965.90	227.01
966.19	226.96
966.49	226.98
966.78	226.96
967.08	226.94
967.37	226.92
967.67	226.87
967.96	226.87
968.26	226.87
968.55	226.85
968.85	226.85
969.14	226.86
969.43	226.84
969.73	226.85
970.02	226.82
970.32	226.76
970.61	226.76
970.91	226.79
971.20	226.75
971.49	226.75
971.79	226.78
972.08	226.72
972.38	226.74
972.67	226.73
972.96	226.79
973.26	226.78
973.55	226.79
973.85	226.81
974.14	226.79
974.43	226.77
974.73	226.74
975.02	226.74
975.31	226.68
975.61	226.65
975.90	226.63
976.19	226.60
976.49	226.66
976.78	226.67
977.07	226.64
977.37	226.65
977.66	226.64
977.95	226.64
978.24	226.62
978.54	226.65
978.83	226.64
979.12	226.60
979.42	226.60
979.71	226.60
980.00	226.57
980.29	226.58
980.59	226.55
980.88	226.60
981.17	226.60
981.46	226.62
981.76	226.62
982.05	226.62
982.34	226.65
982.63	226.62
982.93	226.60
983.22	226.62
983.51	226.64
983.80	226.67
984.09	226.65
984.39	226.63
984.68	226.61
984.97	226.60
985.26	226.59
985.55	226.60
985.85	226.59
986.14	226.63
986.43	226.64
986.72	226.66
987.01	226.60
987.30	226.61
987.59	226.59
987.89	226.61
988.18	226.60
988.47	226.56
988.76	226.55
989.05	226.55
989.34	226.53
989.63	226.53
989.92	226.49
990.22	226.48
990.51	226.49
990.80	226.50
991.09	226.51
991.38	226.54
991.67	226.53
991.96	226.51
992.25	226.53
992.54	226.52
992.83	226.54
993.12	226.55
993.41	226.59
993.70	226.64
993.99	226.65
994.28	226.67
994.58	226.66
994.87	226.69
995.16	226.69
995.45	226.67
995.74	226.65
996.03	226.69
996.32	226.70
996.61	226.73
996.90	226.70
997.19	226.71
997.48	226.68
997.77	226.68
998.06	226.70
998.34	226.69
998.63	226.65
998.92	226.63
999.21	226.68
999.50	226.69
999.79	226.67
1000.08	226.69
1000.37	226.74
1000.66	226.75
1000.95	226.75
1001.24	226.75
1001.53	226.74
1001.82	226.76
1002.11	226.74
1002.40	226.77
1002.68	226.75
1002.97	226.85
1003.26	226.85
1003.55	226.84
1003.84	226.85
1004.13	226.90
1004.42	226.93
1004.71	226.93
1004.99	226.95
1005.28	226.95
1005.57	226.92
1005.86	226.93
1006.15	226.93
1006.44	226.91
1006.72	226.93
1007.01	226.93
1007.30	226.95
1007.59	226.97
1007.88	226.95
1008.17	226.97
1008.45	226.97
1008.74	226.98
1009.03	226.94
1009.32	226.95
1009.60	226.95
1009.89	226.91
1010.18	226.90
1010.47	226.86
1010.76	226.86
1011.04	226.87
1011.33	226.88
1011.62	226.89
1011.91	226.91
1012.19	226.89
1012.48	226.88
1012.77	226.88
1013.05	226.93
1013.34	226.93
1013.63	226.93
1013.92	226.93
1014.20	226.92
1014.49	226.93
1014.78	226.93
1015.06	226.88
1015.35	226.86
1015.64	226.90
1015.92	226.95
1016.21	226.93
1016.50	226.95
1016.78	226.99
1017.07	226.97
1017.36	226.95
1017.64	226.97
1017.93	226.97
1018.22	226.96
1018.50	226.95
1018.79	226.93
1019.08	226.88
1019.36	226.88
1019.65	226.87
1019.93	226.92
1020.22	226.93
1020.51	226.98
1020.79	226.97
1021.08	226.79
1021.36	226.46
1021.65	226.65
1021.94	226.91
1022.22	226.71
1022.51	226.59
1022.79	227.67
1023.08	226.92
1023.36	228.32
1023.65	226.86
>>>>>End Processed Spectral Data<<<<<
