SpectraSuite Data File
++++++++++++++++++++++++++++++++++++
Date: Fri Feb 01 15:48:53 EST 2013
User: group
Dark Spectrum Present: No
Reference Spectrum Present: No
Number of Sampled Component Spectra: 1
Spectrometers: USB2E7196
Integration Time (usec): 35000 (USB2E7196)
Spectra Averaged: 100 (USB2E7196)
Boxcar Smoothing: 10 (USB2E7196)
Correct for Electrical Dark: No (USB2E7196)
Strobe/Lamp Enabled: No (USB2E7196)
Correct for Detector Non-linearity: No (USB2E7196)
Correct for Stray Light: No (USB2E7196)
Number of Pixels in Processed Spectrum: 2048
>>>>>Begin Processed Spectral Data<<<<<
339.09	0.00
339.48	214.51
339.86	216.64
340.24	218.30
340.63	219.57
341.01	222.21
341.39	222.13
341.78	223.39
342.16	224.65
342.54	225.10
342.93	213.40
343.31	224.21
343.69	224.77
344.07	225.23
344.46	225.62
344.84	226.00
345.22	226.23
345.60	226.47
345.99	226.64
346.37	226.75
346.75	226.82
347.13	226.87
347.52	226.95
347.90	227.03
348.28	227.06
348.66	227.11
349.05	227.11
349.43	227.13
349.81	227.18
350.19	227.19
350.57	227.24
350.96	227.32
351.34	227.37
351.72	227.42
352.10	227.53
352.48	227.58
352.87	227.61
353.25	227.66
353.63	227.69
354.01	227.78
354.39	227.86
354.77	227.94
355.15	228.03
355.54	228.08
355.92	228.12
356.30	228.13
356.68	228.29
357.06	228.34
357.44	228.37
357.82	228.42
358.20	228.49
358.58	228.54
358.97	228.62
359.35	228.70
359.73	228.81
360.11	228.83
360.49	228.90
360.87	228.95
361.25	229.01
361.63	229.08
362.01	229.13
362.39	229.16
362.77	229.19
363.15	229.22
363.53	229.26
363.91	229.26
364.29	229.30
364.67	229.19
365.05	229.22
365.43	229.23
365.81	229.25
366.19	229.32
366.57	229.35
366.95	229.32
367.33	229.27
367.71	229.25
368.09	229.26
368.47	229.24
368.85	229.24
369.23	229.24
369.61	229.18
369.99	229.15
370.37	229.13
370.75	229.15
371.13	229.11
371.51	229.05
371.89	229.03
372.27	229.00
372.65	228.97
373.03	228.94
373.41	228.91
373.78	228.81
374.16	228.72
374.54	228.64
374.92	228.57
375.30	228.57
375.68	228.47
376.06	228.41
376.44	228.31
376.82	228.24
377.19	228.15
377.57	228.12
377.95	228.03
378.33	227.95
378.71	227.84
379.09	227.75
379.47	227.67
379.84	227.58
380.22	227.51
380.60	227.42
380.98	227.33
381.36	227.25
381.73	227.21
382.11	227.13
382.49	227.06
382.87	227.02
383.25	226.94
383.62	227.02
384.00	226.98
384.38	226.97
384.76	226.92
385.13	226.93
385.51	226.87
385.89	226.80
386.27	226.78
386.64	226.73
387.02	226.68
387.40	226.67
387.78	226.66
388.15	226.63
388.53	226.60
388.91	226.56
389.29	226.53
389.66	226.54
390.04	226.53
390.42	226.53
390.79	226.50
391.17	226.46
391.55	226.33
391.92	226.29
392.30	226.27
392.68	226.25
393.05	226.21
393.43	226.20
393.81	226.21
394.18	226.16
394.56	226.17
394.94	226.23
395.31	226.24
395.69	226.28
396.06	226.32
396.44	226.38
396.82	226.43
397.19	226.52
397.57	226.52
397.95	226.58
398.32	226.58
398.70	226.63
399.07	226.70
399.45	226.75
399.82	226.84
400.20	226.90
400.58	226.97
400.95	227.02
401.33	227.13
401.70	227.30
402.08	227.44
402.45	227.52
402.83	227.63
403.20	227.73
403.58	227.81
403.95	227.91
404.33	228.01
404.71	228.12
405.08	228.29
405.46	228.42
405.83	228.55
406.21	228.71
406.58	228.87
406.96	229.03
407.33	229.20
407.70	229.37
408.08	229.62
408.45	229.82
408.83	230.02
409.20	230.20
409.58	230.33
409.95	230.56
410.33	230.83
410.70	231.05
411.08	231.33
411.45	231.63
411.82	231.91
412.20	232.28
412.57	232.70
412.95	232.98
413.32	233.37
413.69	233.80
414.07	234.24
414.44	234.73
414.82	235.21
415.19	235.75
415.56	236.30
415.94	236.86
416.31	237.52
416.68	238.17
417.06	238.92
417.43	239.62
417.81	240.40
418.18	241.20
418.55	242.04
418.93	242.93
419.30	243.83
419.67	244.81
420.04	245.75
420.42	246.75
420.79	247.96
421.16	249.12
421.54	250.28
421.91	251.50
422.28	252.74
422.66	254.10
423.03	255.41
423.40	256.74
423.77	258.14
424.15	259.56
424.52	261.02
424.89	262.64
425.26	264.19
425.64	265.67
426.01	267.30
426.38	268.94
426.75	270.59
427.13	272.31
427.50	274.11
427.87	276.04
428.24	277.87
428.61	279.62
428.99	281.60
429.36	283.73
429.73	285.80
430.10	287.85
430.47	289.94
430.85	292.05
431.22	294.25
431.59	296.64
431.96	298.87
432.33	301.42
432.70	303.75
433.08	306.60
433.45	309.20
433.82	311.82
434.19	314.74
434.56	317.59
434.93	320.27
435.30	322.92
435.68	325.77
436.05	328.60
436.42	331.40
436.79	333.91
437.16	336.60
437.53	339.47
437.90	342.27
438.27	344.95
438.64	347.80
439.01	350.44
439.38	352.69
439.75	354.90
440.13	357.35
440.50	359.70
440.87	361.52
441.24	363.50
441.61	365.62
441.98	367.10
442.35	368.84
442.72	370.68
443.09	372.44
443.46	373.44
443.83	374.03
444.20	374.53
444.57	375.31
444.94	375.55
445.31	375.88
445.68	376.23
446.05	376.28
446.42	375.87
446.79	375.45
447.16	375.02
447.53	374.73
447.90	373.53
448.27	372.35
448.64	370.78
449.01	369.58
449.37	367.60
449.74	365.68
450.11	363.52
450.48	361.04
450.85	358.51
451.22	356.41
451.59	354.43
451.96	352.50
452.33	349.93
452.70	347.62
453.07	344.74
453.43	341.81
453.80	339.10
454.17	336.42
454.54	333.89
454.91	331.15
455.28	328.43
455.65	326.01
456.02	323.59
456.38	321.41
456.75	318.74
457.12	316.50
457.49	314.28
457.86	312.05
458.23	310.19
458.59	308.17
458.96	306.05
459.33	304.21
459.70	302.34
460.07	300.82
460.43	299.08
460.80	297.51
461.17	296.07
461.54	294.54
461.91	293.14
462.27	291.69
462.64	290.43
463.01	289.10
463.38	287.78
463.74	286.41
464.11	285.29
464.48	284.32
464.85	283.22
465.21	282.37
465.58	281.46
465.95	280.39
466.32	279.47
466.68	278.56
467.05	277.62
467.42	276.73
467.78	275.82
468.15	274.96
468.52	274.32
468.88	273.48
469.25	272.75
469.62	272.10
469.98	271.44
470.35	270.79
470.72	270.18
471.08	269.53
471.45	268.98
471.82	268.43
472.18	267.85
472.55	267.43
472.92	266.88
473.28	266.44
473.65	266.02
474.02	265.58
474.38	265.24
474.75	264.93
475.11	264.59
475.48	264.34
475.85	264.13
476.21	263.86
476.58	263.70
476.94	263.54
477.31	263.36
477.67	263.21
478.04	263.09
478.41	263.05
478.77	263.09
479.14	263.02
479.50	263.05
479.87	263.10
480.23	263.20
480.60	263.28
480.96	263.35
481.33	263.55
481.69	263.78
482.06	263.97
482.42	264.18
482.79	264.40
483.15	264.75
483.52	265.12
483.88	265.46
484.25	265.84
484.61	266.27
484.98	266.74
485.34	267.33
485.71	267.92
486.07	268.55
486.44	269.11
486.80	269.84
487.17	270.55
487.53	271.38
487.90	272.23
488.26	273.20
488.62	274.21
488.99	275.22
489.35	276.25
489.72	277.37
490.08	278.57
490.44	279.84
490.81	281.16
491.17	282.50
491.54	283.99
491.90	285.52
492.26	287.15
492.63	288.89
492.99	290.66
493.36	292.51
493.72	294.59
494.08	296.74
494.45	298.98
494.81	301.38
495.17	303.77
495.54	306.31
495.90	308.97
496.26	311.77
496.63	314.72
496.99	317.83
497.35	321.10
497.72	324.49
498.08	327.98
498.44	331.65
498.80	335.56
499.17	339.58
499.53	343.73
499.89	348.13
500.26	352.63
500.62	357.32
500.98	362.36
501.34	367.39
501.71	372.69
502.07	378.12
502.43	383.76
502.79	389.64
503.16	395.71
503.52	401.98
503.88	408.35
504.24	415.02
504.60	421.91
504.97	429.05
505.33	436.35
505.69	444.09
506.05	451.87
506.41	459.77
506.78	467.92
507.14	476.45
507.50	485.17
507.86	494.26
508.22	503.39
508.59	512.56
508.95	522.18
509.31	531.99
509.67	542.10
510.03	552.35
510.39	562.91
510.75	573.68
511.12	584.62
511.48	595.92
511.84	607.32
512.20	618.91
512.56	630.90
512.92	643.11
513.28	655.47
513.64	667.99
514.00	680.63
514.37	693.63
514.73	706.65
515.09	719.69
515.45	732.93
515.81	746.63
516.17	760.67
516.53	774.79
516.89	788.97
517.25	803.25
517.61	817.64
517.97	832.09
518.33	846.53
518.69	861.33
519.05	876.38
519.41	891.61
519.77	907.15
520.13	922.49
520.49	937.93
520.85	953.32
521.21	969.06
521.57	985.38
521.93	1001.14
522.29	1017.50
522.65	1033.80
523.01	1049.98
523.37	1065.89
523.73	1081.96
524.09	1098.03
524.45	1114.35
524.81	1130.81
525.17	1147.69
525.53	1164.59
525.89	1181.43
526.25	1198.28
526.61	1214.63
526.97	1231.40
527.33	1247.80
527.68	1264.45
528.04	1280.87
528.40	1297.44
528.76	1314.46
529.12	1330.97
529.48	1347.86
529.84	1363.94
530.20	1380.53
530.56	1397.60
530.91	1415.04
531.27	1431.87
531.63	1448.32
531.99	1464.87
532.35	1480.83
532.71	1496.59
533.07	1512.88
533.42	1528.79
533.78	1544.86
534.14	1561.12
534.50	1576.38
534.86	1592.16
535.21	1607.38
535.57	1623.37
535.93	1638.74
536.29	1653.45
536.65	1668.50
537.00	1683.22
537.36	1698.38
537.72	1712.87
538.08	1727.19
538.44	1740.99
538.79	1754.85
539.15	1768.50
539.51	1782.32
539.87	1796.77
540.22	1810.55
540.58	1824.26
540.94	1837.71
541.29	1850.48
541.65	1863.16
542.01	1876.24
542.37	1888.62
542.72	1901.11
543.08	1912.77
543.44	1925.22
543.79	1936.44
544.15	1947.54
544.51	1959.15
544.87	1970.23
545.22	1981.03
545.58	1991.23
545.94	2000.95
546.29	2010.83
546.65	2020.62
547.01	2029.81
547.36	2038.43
547.72	2046.89
548.07	2054.71
548.43	2062.74
548.79	2070.75
549.14	2078.20
549.50	2085.72
549.86	2093.33
550.21	2100.52
550.57	2107.70
550.92	2114.40
551.28	2121.46
551.64	2128.40
551.99	2134.88
552.35	2141.04
552.70	2147.24
553.06	2153.34
553.41	2159.77
553.77	2165.72
554.13	2171.76
554.48	2177.74
554.84	2183.25
555.19	2188.60
555.55	2193.64
555.90	2198.11
556.26	2203.02
556.61	2207.90
556.97	2212.18
557.32	2216.32
557.68	2220.40
558.03	2224.78
558.39	2228.49
558.74	2233.14
559.10	2236.99
559.45	2240.62
559.81	2244.95
560.16	2248.70
560.52	2251.71
560.87	2255.06
561.23	2257.76
561.58	2260.91
561.94	2263.52
562.29	2265.85
562.64	2268.50
563.00	2271.07
563.35	2274.73
563.71	2277.88
564.06	2281.05
564.42	2283.76
564.77	2286.32
565.12	2288.66
565.48	2290.55
565.83	2292.23
566.19	2293.53
566.54	2294.49
566.89	2295.53
567.25	2296.02
567.60	2297.46
567.96	2299.37
568.31	2300.36
568.66	2301.39
569.02	2301.86
569.37	2302.23
569.72	2303.10
570.08	2303.23
570.43	2303.36
570.78	2302.64
571.14	2301.01
571.49	2299.68
571.84	2299.46
572.20	2298.29
572.55	2297.25
572.90	2295.61
573.26	2294.35
573.61	2292.54
573.96	2290.78
574.31	2287.92
574.67	2284.95
575.02	2281.20
575.37	2277.69
575.72	2273.66
576.08	2270.50
576.43	2267.06
576.78	2263.22
577.13	2260.00
577.49	2256.93
577.84	2253.46
578.19	2249.73
578.54	2246.07
578.90	2241.71
579.25	2236.03
579.60	2230.94
579.95	2225.89
580.30	2220.92
580.66	2215.67
581.01	2210.85
581.36	2205.95
581.71	2201.87
582.06	2197.32
582.42	2192.78
582.77	2187.62
583.12	2183.08
583.47	2178.20
583.82	2173.22
584.17	2168.18
584.53	2162.69
584.88	2157.01
585.23	2151.17
585.58	2145.75
585.93	2140.45
586.28	2135.76
586.63	2130.71
586.98	2125.91
587.34	2121.19
587.69	2116.23
588.04	2111.00
588.39	2105.29
588.74	2098.79
589.09	2092.46
589.44	2085.66
589.79	2079.81
590.14	2074.24
590.49	2067.65
590.84	2061.32
591.19	2055.26
591.54	2048.80
591.89	2041.44
592.25	2034.53
592.60	2027.20
592.95	2019.43
593.30	2011.91
593.65	2004.32
594.00	1997.32
594.35	1989.84
594.70	1981.76
595.05	1974.42
595.40	1967.06
595.75	1959.58
596.10	1953.33
596.45	1946.62
596.80	1940.53
597.15	1933.78
597.50	1926.44
597.85	1920.18
598.19	1913.33
598.54	1906.22
598.89	1899.39
599.24	1893.41
599.59	1886.78
599.94	1880.74
600.29	1874.46
600.64	1868.04
600.99	1860.43
601.34	1853.53
601.69	1846.67
602.04	1839.74
602.39	1832.51
602.74	1825.62
603.08	1818.79
603.43	1812.13
603.78	1804.76
604.13	1797.57
604.48	1790.10
604.83	1783.32
605.18	1776.00
605.53	1768.17
605.87	1760.12
606.22	1752.96
606.57	1745.07
606.92	1737.75
607.27	1730.43
607.62	1723.58
607.96	1716.14
608.31	1709.59
608.66	1702.01
609.01	1694.44
609.36	1686.96
609.70	1678.98
610.05	1670.98
610.40	1663.24
610.75	1654.78
611.10	1647.15
611.44	1638.63
611.79	1630.80
612.14	1622.13
612.49	1613.12
612.83	1604.73
613.18	1596.73
613.53	1588.64
613.88	1580.10
614.22	1571.77
614.57	1563.13
614.92	1555.08
615.27	1547.47
615.61	1539.12
615.96	1531.15
616.31	1523.51
616.65	1516.15
617.00	1508.49
617.35	1500.88
617.70	1492.61
618.04	1484.22
618.39	1475.95
618.74	1468.44
619.08	1460.15
619.43	1452.52
619.78	1445.61
620.12	1438.39
620.47	1430.85
620.82	1422.62
621.16	1415.31
621.51	1407.86
621.85	1400.39
622.20	1391.81
622.55	1383.56
622.89	1375.76
623.24	1368.17
623.59	1360.77
623.93	1353.18
624.28	1346.01
624.62	1338.48
624.97	1331.32
625.32	1324.64
625.66	1317.65
626.01	1310.38
626.35	1302.94
626.70	1295.27
627.04	1287.53
627.39	1279.79
627.73	1272.39
628.08	1265.62
628.43	1258.20
628.77	1250.73
629.12	1243.11
629.46	1236.01
629.81	1228.64
630.15	1221.42
630.50	1214.07
630.84	1205.87
631.19	1198.04
631.53	1190.59
631.88	1183.00
632.22	1175.41
632.57	1167.95
632.91	1160.46
633.26	1153.03
633.60	1145.75
633.95	1138.60
634.29	1131.54
634.64	1124.88
634.98	1117.41
635.32	1110.20
635.67	1103.60
636.01	1097.02
636.36	1090.15
636.70	1083.51
637.05	1076.95
637.39	1070.42
637.73	1063.81
638.08	1057.93
638.42	1051.91
638.77	1045.41
639.11	1038.75
639.45	1032.32
639.80	1025.70
640.14	1019.16
640.49	1012.70
640.83	1006.35
641.17	1000.11
641.52	993.78
641.86	987.30
642.20	981.56
642.55	975.25
642.89	968.77
643.23	962.18
643.58	956.49
643.92	950.38
644.26	944.29
644.61	938.39
644.95	932.25
645.29	925.65
645.64	918.88
645.98	912.56
646.32	906.88
646.66	900.93
647.01	895.15
647.35	889.59
647.69	883.73
648.04	878.14
648.38	872.46
648.72	866.50
649.06	860.53
649.41	854.67
649.75	848.68
650.09	842.72
650.43	836.96
650.78	830.78
651.12	824.84
651.46	819.17
651.80	813.28
652.14	808.01
652.49	802.61
652.83	797.48
653.17	791.73
653.51	785.99
653.85	780.58
654.20	774.90
654.54	768.79
654.88	762.98
655.22	757.04
655.56	751.29
655.90	745.85
656.25	740.51
656.59	735.06
656.93	730.00
657.27	724.91
657.61	719.50
657.95	714.44
658.29	709.35
658.64	704.06
658.98	698.83
659.32	693.26
659.66	688.07
660.00	682.71
660.34	677.74
660.68	672.79
661.02	667.68
661.36	662.96
661.70	658.54
662.05	654.28
662.39	650.08
662.73	645.58
663.07	641.31
663.41	636.86
663.75	632.41
664.09	627.84
664.43	623.44
664.77	619.36
665.11	615.12
665.45	610.96
665.79	606.86
666.13	602.73
666.47	598.69
666.81	594.57
667.15	590.47
667.49	586.60
667.83	582.80
668.17	578.92
668.51	574.86
668.85	570.77
669.19	566.91
669.53	563.02
669.87	559.15
670.21	555.33
670.55	551.68
670.89	548.26
671.23	544.84
671.57	541.31
671.91	537.71
672.25	534.18
672.58	530.66
672.92	527.26
673.26	524.09
673.60	520.94
673.94	517.85
674.28	514.96
674.62	512.04
674.96	508.94
675.30	505.97
675.64	503.06
675.97	500.34
676.31	497.50
676.65	494.52
676.99	491.80
677.33	488.99
677.67	486.24
678.01	483.15
678.34	480.11
678.68	477.21
679.02	474.38
679.36	471.61
679.70	468.93
680.04	466.17
680.37	463.28
680.71	460.51
681.05	457.82
681.39	455.09
681.73	452.38
682.06	449.82
682.40	447.30
682.74	444.74
683.08	442.20
683.42	439.58
683.75	437.05
684.09	434.53
684.43	432.03
684.77	429.54
685.10	427.17
685.44	424.91
685.78	422.66
686.12	420.39
686.45	418.13
686.79	415.79
687.13	413.61
687.46	411.46
687.80	409.35
688.14	407.17
688.48	405.10
688.81	402.87
689.15	400.76
689.49	398.62
689.82	396.54
690.16	394.42
690.50	392.48
690.83	390.59
691.17	388.59
691.51	386.72
691.84	384.85
692.18	382.92
692.52	380.92
692.85	378.98
693.19	377.15
693.52	375.31
693.86	373.48
694.20	371.70
694.53	369.87
694.87	367.98
695.21	366.22
695.54	364.38
695.88	362.68
696.21	360.93
696.55	359.25
696.88	357.62
697.22	356.00
697.56	354.40
697.89	352.75
698.23	351.15
698.56	349.53
698.90	347.93
699.23	346.32
699.57	344.80
699.90	343.29
700.24	341.74
700.58	340.21
700.91	338.73
701.25	337.26
701.58	335.94
701.92	334.59
702.25	333.18
702.59	331.85
702.92	330.54
703.26	329.28
703.59	328.03
703.93	326.83
704.26	325.61
704.60	324.26
704.93	322.99
705.26	321.74
705.60	320.57
705.93	319.43
706.27	318.40
706.60	317.35
706.94	316.28
707.27	315.15
707.61	314.10
707.94	313.10
708.27	312.05
708.61	310.98
708.94	310.00
709.28	309.01
709.61	308.09
709.94	307.13
710.28	306.08
710.61	305.06
710.95	304.00
711.28	303.04
711.61	302.13
711.95	301.26
712.28	300.33
712.61	299.39
712.95	298.49
713.28	297.63
713.61	296.72
713.95	295.84
714.28	295.00
714.61	294.13
714.95	293.33
715.28	292.46
715.61	291.58
715.95	290.69
716.28	289.87
716.61	288.96
716.95	288.14
717.28	287.40
717.61	286.60
717.94	285.87
718.28	285.04
718.61	284.32
718.94	283.58
719.27	282.91
719.61	282.23
719.94	281.55
720.27	280.84
720.60	280.15
720.94	279.49
721.27	278.85
721.60	278.28
721.93	277.63
722.27	277.09
722.60	276.52
722.93	275.93
723.26	275.38
723.59	274.84
723.93	274.28
724.26	273.71
724.59	273.19
724.92	272.63
725.25	272.16
725.59	271.61
725.92	271.09
726.25	270.58
726.58	270.06
726.91	269.54
727.24	269.04
727.57	268.59
727.91	268.11
728.24	267.67
728.57	267.16
728.90	266.72
729.23	266.22
729.56	265.79
729.89	265.32
730.22	264.82
730.55	264.35
730.89	263.92
731.22	263.44
731.55	263.02
731.88	262.58
732.21	262.11
732.54	261.70
732.87	261.26
733.20	260.83
733.53	260.46
733.86	260.10
734.19	259.69
734.52	259.26
734.85	258.91
735.18	258.50
735.51	258.15
735.84	257.77
736.17	257.47
736.50	257.06
736.83	256.85
737.16	256.51
737.49	256.16
737.82	255.83
738.15	255.52
738.48	255.16
738.81	254.86
739.14	254.57
739.47	254.25
739.80	253.98
740.13	253.70
740.46	253.34
740.79	252.99
741.12	252.73
741.45	252.47
741.78	252.13
742.11	251.84
742.44	251.48
742.77	251.20
743.10	250.84
743.43	250.54
743.75	250.12
744.08	250.00
744.41	249.73
744.74	249.45
745.07	249.20
745.40	248.98
745.73	248.76
746.06	248.49
746.39	248.27
746.71	247.96
747.04	247.72
747.37	247.49
747.70	247.28
748.03	247.01
748.36	246.76
748.68	246.52
749.01	246.28
749.34	246.09
749.67	245.88
750.00	245.66
750.33	245.53
750.65	245.35
750.98	244.98
751.31	244.77
751.64	244.59
751.97	244.43
752.29	244.22
752.62	243.97
752.95	243.77
753.28	243.52
753.60	243.33
753.93	243.16
754.26	242.96
754.59	242.76
754.91	242.50
755.24	242.33
755.57	242.15
755.90	241.97
756.22	241.77
756.55	241.53
756.88	241.33
757.20	241.10
757.53	240.88
757.86	240.73
758.19	240.58
758.51	240.38
758.84	240.13
759.17	239.96
759.49	239.77
759.82	239.66
760.15	239.53
760.47	239.38
760.80	239.21
761.13	239.07
761.45	238.91
761.78	238.80
762.11	238.65
762.43	238.51
762.76	238.37
763.08	238.29
763.41	238.18
763.74	238.07
764.06	237.93
764.39	237.80
764.71	237.67
765.04	237.54
765.37	237.39
765.69	237.27
766.02	237.07
766.34	236.95
766.67	236.76
767.00	236.63
767.32	236.56
767.65	236.47
767.97	236.35
768.30	236.21
768.62	236.13
768.95	235.99
769.27	235.89
769.60	235.77
769.92	235.62
770.25	235.49
770.57	235.33
770.90	235.20
771.22	235.10
771.55	234.99
771.87	234.88
772.20	234.79
772.52	234.79
772.85	234.84
773.17	234.76
773.50	234.66
773.82	234.56
774.15	234.38
774.47	234.25
774.80	234.12
775.12	234.04
775.45	233.93
775.77	233.85
776.09	233.74
776.42	233.67
776.74	233.61
777.07	233.53
777.39	233.47
777.72	233.41
778.04	233.36
778.36	233.29
778.69	233.26
779.01	233.18
779.33	232.99
779.66	232.83
779.98	232.79
780.31	232.74
780.63	232.74
780.95	232.74
781.28	232.69
781.60	232.69
781.92	232.65
782.25	232.59
782.57	232.53
782.89	232.45
783.22	232.38
783.54	232.33
783.86	232.30
784.19	232.26
784.51	232.26
784.83	232.20
785.16	232.18
785.48	232.10
785.80	232.09
786.12	232.08
786.45	232.01
786.77	231.97
787.09	231.93
787.42	231.85
787.74	231.77
788.06	231.74
788.38	231.64
788.71	231.61
789.03	231.61
789.35	231.59
789.67	231.54
789.99	231.51
790.32	231.43
790.64	231.42
790.96	231.45
791.28	231.36
791.61	231.33
791.93	231.29
792.25	231.26
792.57	231.27
792.89	231.23
793.21	231.21
793.54	231.16
793.86	231.10
794.18	231.05
794.50	231.00
794.82	230.95
795.14	230.95
795.47	230.89
795.79	230.84
796.11	230.77
796.43	230.76
796.75	230.74
797.07	230.74
797.39	230.67
797.71	230.56
798.04	230.53
798.36	230.44
798.68	230.36
799.00	230.32
799.32	230.23
799.64	230.19
799.96	230.14
800.28	230.10
800.60	230.08
800.92	230.05
801.24	230.02
801.56	229.99
801.89	229.92
802.21	229.88
802.53	229.81
802.85	229.79
803.17	229.79
803.49	229.72
803.81	229.67
804.13	229.65
804.45	229.59
804.77	229.55
805.09	229.56
805.41	229.54
805.73	229.49
806.05	229.43
806.37	229.41
806.69	229.38
807.01	229.37
807.33	229.37
807.65	229.29
807.97	229.28
808.28	229.24
808.60	229.20
808.92	229.17
809.24	229.21
809.56	229.18
809.88	229.13
810.20	229.12
810.52	229.11
810.84	229.07
811.16	229.03
811.48	229.02
811.80	229.03
812.12	229.00
812.43	228.98
812.75	228.97
813.07	228.93
813.39	228.89
813.71	228.84
814.03	228.78
814.35	228.77
814.67	228.71
814.98	228.66
815.30	228.67
815.62	228.62
815.94	228.53
816.26	228.56
816.58	228.52
816.89	228.52
817.21	228.48
817.53	228.47
817.85	228.46
818.17	228.40
818.48	228.35
818.80	228.37
819.12	228.33
819.44	228.30
819.76	228.27
820.07	228.30
820.39	228.29
820.71	228.32
821.03	228.34
821.34	228.34
821.66	228.39
821.98	228.39
822.30	228.37
822.61	228.43
822.93	228.36
823.25	228.32
823.57	228.30
823.88	228.28
824.20	228.29
824.52	228.30
824.83	228.32
825.15	228.29
825.47	228.28
825.79	228.31
826.10	228.30
826.42	228.32
826.74	228.28
827.05	228.28
827.37	228.24
827.69	228.24
828.00	228.24
828.32	228.21
828.64	228.17
828.95	228.26
829.27	228.22
829.58	228.22
829.90	228.27
830.22	228.27
830.53	228.26
830.85	228.23
831.17	228.23
831.48	228.24
831.80	228.25
832.11	228.21
832.43	228.16
832.75	228.18
833.06	228.21
833.38	228.22
833.69	228.19
834.01	228.22
834.32	228.19
834.64	228.16
834.96	228.18
835.27	228.18
835.59	228.14
835.90	228.11
836.22	228.11
836.53	228.06
836.85	228.02
837.16	228.10
837.48	228.10
837.79	228.13
838.11	228.13
838.42	228.11
838.74	228.12
839.05	228.12
839.37	228.09
839.68	228.04
840.00	228.02
840.31	228.01
840.63	227.99
840.94	227.98
841.26	227.99
841.57	227.96
841.88	228.00
842.20	227.97
842.51	227.96
842.83	227.95
843.14	228.04
843.46	228.03
843.77	228.03
844.08	228.01
844.40	227.92
844.71	227.86
845.03	227.84
845.34	227.83
845.65	227.82
845.97	227.82
846.28	227.78
846.60	227.77
846.91	227.74
847.22	227.73
847.54	227.71
847.85	227.70
848.16	227.69
848.48	227.60
848.79	227.64
849.10	227.66
849.42	227.67
849.73	227.56
850.04	227.54
850.36	227.46
850.67	227.46
850.98	227.48
851.30	227.49
851.61	227.46
851.92	227.45
852.23	227.49
852.55	227.47
852.86	227.48
853.17	227.48
853.49	227.54
853.80	227.53
854.11	227.55
854.42	227.55
854.74	227.54
855.05	227.56
855.36	227.48
855.67	227.46
855.99	227.41
856.30	227.53
856.61	227.54
856.92	227.54
857.23	227.56
857.55	227.54
857.86	227.51
858.17	227.55
858.48	227.52
858.79	227.48
859.11	227.51
859.42	227.47
859.73	227.47
860.04	227.43
860.35	227.42
860.66	227.37
860.98	227.35
861.29	227.35
861.60	227.34
861.91	227.38
862.22	227.35
862.53	227.36
862.84	227.28
863.16	227.30
863.47	227.31
863.78	227.30
864.09	227.32
864.40	227.36
864.71	227.36
865.02	227.40
865.33	227.40
865.64	227.40
865.95	227.42
866.27	227.50
866.58	227.48
866.89	227.47
867.20	227.49
867.51	227.51
867.82	227.52
868.13	227.55
868.44	227.54
868.75	227.57
869.06	227.57
869.37	227.57
869.68	227.58
869.99	227.57
870.30	227.58
870.61	227.59
870.92	227.60
871.23	227.61
871.54	227.62
871.85	227.65
872.16	227.66
872.47	227.68
872.78	227.62
873.09	227.67
873.40	227.66
873.71	227.65
874.02	227.66
874.33	227.65
874.64	227.61
874.95	227.60
875.26	227.57
875.56	227.56
875.87	227.53
876.18	227.54
876.49	227.65
876.80	227.63
877.11	227.60
877.42	227.58
877.73	227.55
878.04	227.51
878.35	227.46
878.66	227.46
878.96	227.43
879.27	227.41
879.58	227.38
879.89	227.41
880.20	227.45
880.51	227.44
880.82	227.43
881.12	227.44
881.43	227.41
881.74	227.40
882.05	227.39
882.36	227.42
882.67	227.38
882.97	227.28
883.28	227.27
883.59	227.27
883.90	227.26
884.21	227.27
884.51	227.27
884.82	227.28
885.13	227.24
885.44	227.24
885.74	227.23
886.05	227.26
886.36	227.23
886.67	227.20
886.98	227.23
887.28	227.24
887.59	227.23
887.90	227.25
888.20	227.24
888.51	227.28
888.82	227.24
889.13	227.23
889.43	227.27
889.74	227.23
890.05	227.20
890.35	227.19
890.66	227.15
890.97	227.15
891.28	227.09
891.58	227.10
891.89	227.10
892.20	227.07
892.50	227.01
892.81	227.01
893.12	227.01
893.42	226.94
893.73	226.92
894.04	226.91
894.34	226.91
894.65	226.90
894.95	226.86
895.26	226.83
895.57	226.87
895.87	226.79
896.18	226.82
896.48	226.83
896.79	226.80
897.10	226.85
897.40	226.84
897.71	226.90
898.01	226.91
898.32	226.90
898.63	226.92
898.93	226.94
899.24	226.95
899.54	226.94
899.85	226.94
900.15	226.96
900.46	226.96
900.76	226.98
901.07	226.98
901.38	226.99
901.68	227.03
901.99	227.00
902.29	227.03
902.60	227.04
902.90	227.02
903.21	227.03
903.51	227.00
903.82	227.02
904.12	227.04
904.43	227.06
904.73	227.05
905.03	227.04
905.34	227.14
905.64	227.11
905.95	227.12
906.25	227.12
906.56	227.10
906.86	227.10
907.17	227.10
907.47	227.10
907.77	227.11
908.08	227.09
908.38	227.12
908.69	227.13
908.99	227.14
909.30	227.18
909.60	227.20
909.90	227.19
910.21	227.19
910.51	227.14
910.81	227.11
911.12	227.15
911.42	227.20
911.73	227.05
912.03	227.07
912.33	227.09
912.64	227.12
912.94	227.13
913.24	227.09
913.55	227.11
913.85	227.12
914.15	227.15
914.46	227.16
914.76	227.09
915.06	227.07
915.37	227.05
915.67	227.05
915.97	227.07
916.27	227.09
916.58	227.10
916.88	227.10
917.18	227.11
917.49	227.15
917.79	227.12
918.09	227.15
918.39	227.17
918.70	227.17
919.00	227.10
919.30	227.14
919.60	227.15
919.91	227.09
920.21	227.05
920.51	227.02
920.81	226.99
921.12	227.01
921.42	226.98
921.72	226.98
922.02	226.96
922.32	226.95
922.63	226.91
922.93	226.96
923.23	226.93
923.53	226.91
923.83	226.81
924.13	226.78
924.44	226.80
924.74	226.78
925.04	226.78
925.34	226.80
925.64	226.74
925.94	226.73
926.24	226.78
926.55	226.79
926.85	226.78
927.15	226.78
927.45	226.80
927.75	226.79
928.05	226.77
928.35	226.77
928.65	226.79
928.95	226.81
929.26	226.74
929.56	226.81
929.86	226.83
930.16	226.86
930.46	226.87
930.76	226.85
931.06	226.83
931.36	226.81
931.66	226.83
931.96	226.85
932.26	226.87
932.56	226.85
932.86	226.88
933.16	226.87
933.46	226.84
933.76	226.85
934.06	226.93
934.36	226.97
934.66	226.98
934.96	226.97
935.26	226.95
935.56	226.99
935.86	226.94
936.16	226.93
936.46	226.90
936.76	226.89
937.06	226.88
937.36	226.90
937.66	226.91
937.96	226.92
938.26	226.92
938.56	226.93
938.86	226.93
939.16	226.94
939.46	226.94
939.76	226.97
940.06	226.94
940.35	226.91
940.65	226.88
940.95	226.88
941.25	226.86
941.55	226.87
941.85	226.85
942.15	226.87
942.45	226.92
942.75	226.96
943.04	226.97
943.34	227.02
943.64	227.03
943.94	227.00
944.24	226.98
944.54	226.96
944.84	226.98
945.13	226.99
945.43	226.98
945.73	227.00
946.03	227.03
946.33	227.03
946.62	227.01
946.92	227.01
947.22	227.04
947.52	227.06
947.82	227.04
948.11	227.03
948.41	227.02
948.71	226.98
949.01	226.99
949.31	226.99
949.60	226.96
949.90	226.95
950.20	226.98
950.50	226.99
950.79	227.02
951.09	227.01
951.39	226.96
951.69	226.93
951.98	226.94
952.28	226.94
952.58	226.94
952.87	226.96
953.17	226.97
953.47	226.97
953.76	226.97
954.06	226.99
954.36	226.98
954.66	226.99
954.95	227.02
955.25	227.00
955.55	227.00
955.84	226.97
956.14	226.97
956.44	226.95
956.73	226.96
957.03	226.95
957.32	226.94
957.62	226.98
957.92	227.02
958.21	227.00
958.51	227.10
958.81	227.09
959.10	227.05
959.40	227.05
959.69	227.03
959.99	227.06
960.29	227.07
960.58	227.06
960.88	227.09
961.17	227.06
961.47	227.09
961.76	227.08
962.06	227.16
962.36	227.14
962.65	227.15
962.95	227.12
963.24	227.09
963.54	227.14
963.83	227.15
964.13	227.15
964.42	227.14
964.72	227.03
965.01	227.04
965.31	227.07
965.60	227.06
965.90	227.10
966.19	227.06
966.49	227.04
966.78	227.06
967.08	227.07
967.37	227.05
967.67	227.01
967.96	227.03
968.26	226.99
968.55	226.99
968.85	227.00
969.14	226.98
969.43	226.97
969.73	226.94
970.02	226.93
970.32	226.96
970.61	226.96
970.91	226.95
971.20	226.96
971.49	226.97
971.79	226.96
972.08	226.92
972.38	226.94
972.67	226.92
972.96	226.94
973.26	226.90
973.55	226.95
973.85	226.96
974.14	226.96
974.43	226.96
974.73	226.95
975.02	226.94
975.31	226.97
975.61	227.01
975.90	226.97
976.19	226.96
976.49	226.92
976.78	226.90
977.07	226.89
977.37	226.89
977.66	226.87
977.95	226.86
978.24	226.85
978.54	226.83
978.83	226.83
979.12	226.79
979.42	226.80
979.71	226.79
980.00	226.79
980.29	226.78
980.59	226.72
980.88	226.77
981.17	226.79
981.46	226.81
981.76	226.78
982.05	226.86
982.34	226.86
982.63	226.87
982.93	226.91
983.22	226.94
983.51	226.94
983.80	226.99
984.09	227.04
984.39	227.01
984.68	226.99
984.97	227.02
985.26	227.00
985.55	227.00
985.85	226.97
986.14	226.96
986.43	226.98
986.72	227.05
987.01	227.04
987.30	227.05
987.59	227.00
987.89	226.99
988.18	226.95
988.47	226.94
988.76	226.96
989.05	226.96
989.34	226.92
989.63	226.91
989.92	226.87
990.22	226.84
990.51	226.87
990.80	226.89
991.09	226.89
991.38	226.93
991.67	226.90
991.96	226.91
992.25	226.94
992.54	226.94
992.83	226.89
993.12	226.86
993.41	226.86
993.70	226.95
993.99	226.98
994.28	226.98
994.58	227.02
994.87	226.97
995.16	226.98
995.45	227.01
995.74	227.03
996.03	227.06
996.32	227.10
996.61	227.10
996.90	227.11
997.19	227.07
997.48	227.07
997.77	227.05
998.06	227.02
998.34	227.04
998.63	227.02
998.92	227.03
999.21	227.05
999.50	227.03
999.79	226.93
1000.08	226.89
1000.37	226.89
1000.66	226.86
1000.95	226.89
1001.24	226.86
1001.53	226.86
1001.82	226.85
1002.11	226.84
1002.40	226.80
1002.68	226.86
1002.97	226.89
1003.26	226.88
1003.55	226.85
1003.84	226.89
1004.13	226.96
1004.42	226.89
1004.71	226.88
1004.99	226.88
1005.28	226.91
1005.57	226.90
1005.86	226.94
1006.15	226.95
1006.44	226.90
1006.72	226.89
1007.01	226.84
1007.30	226.83
1007.59	226.81
1007.88	226.78
1008.17	226.73
1008.45	226.73
1008.74	226.67
1009.03	226.66
1009.32	226.66
1009.60	226.67
1009.89	226.66
1010.18	226.58
1010.47	226.58
1010.76	226.58
1011.04	226.57
1011.33	226.56
1011.62	226.58
1011.91	226.58
1012.19	226.57
1012.48	226.60
1012.77	226.59
1013.05	226.64
1013.34	226.67
1013.63	226.65
1013.92	226.65
1014.20	226.67
1014.49	226.64
1014.78	226.62
1015.06	226.54
1015.35	226.56
1015.64	226.55
1015.92	226.55
1016.21	226.57
1016.50	226.58
1016.78	226.59
1017.07	226.59
1017.36	226.57
1017.64	226.53
1017.93	226.53
1018.22	226.53
1018.50	226.54
1018.79	226.55
1019.08	226.48
1019.36	226.46
1019.65	226.46
1019.93	226.50
1020.22	226.50
1020.51	226.54
1020.79	226.54
1021.08	226.37
1021.36	226.70
1021.65	226.66
1021.94	226.04
1022.22	226.70
1022.51	226.04
1022.79	227.29
1023.08	226.44
1023.36	227.24
1023.65	226.20
>>>>>End Processed Spectral Data<<<<<
