SpectraSuite Data File
++++++++++++++++++++++++++++++++++++
Date: Fri Feb 01 16:12:38 EST 2013
User: group
Dark Spectrum Present: No
Reference Spectrum Present: No
Number of Sampled Component Spectra: 1
Spectrometers: USB2E7196
Integration Time (usec): 35000 (USB2E7196)
Spectra Averaged: 100 (USB2E7196)
Boxcar Smoothing: 10 (USB2E7196)
Correct for Electrical Dark: No (USB2E7196)
Strobe/Lamp Enabled: No (USB2E7196)
Correct for Detector Non-linearity: No (USB2E7196)
Correct for Stray Light: No (USB2E7196)
Number of Pixels in Processed Spectrum: 2048
>>>>>Begin Processed Spectral Data<<<<<
339.09	0.00
339.48	214.79
339.86	216.06
340.24	216.72
340.63	218.17
341.01	221.64
341.39	221.22
341.78	222.44
342.16	223.79
342.54	223.45
342.93	212.54
343.31	223.31
343.69	223.84
344.07	224.28
344.46	224.70
344.84	225.10
345.22	225.30
345.60	225.55
345.99	225.71
346.37	225.83
346.75	225.95
347.13	226.04
347.52	226.09
347.90	226.16
348.28	226.12
348.66	226.17
349.05	226.18
349.43	226.22
349.81	226.27
350.19	226.29
350.57	226.33
350.96	226.40
351.34	226.46
351.72	226.55
352.10	226.65
352.48	226.73
352.87	226.80
353.25	226.88
353.63	226.93
354.01	227.03
354.39	227.12
354.77	227.23
355.15	227.35
355.54	227.39
355.92	227.40
356.30	227.53
356.68	227.64
357.06	227.72
357.44	227.83
357.82	227.88
358.20	227.98
358.58	228.05
358.97	228.14
359.35	228.22
359.73	228.26
360.11	228.31
360.49	228.39
360.87	228.41
361.25	228.49
361.63	228.59
362.01	228.63
362.39	228.65
362.77	228.69
363.15	228.74
363.53	228.75
363.91	228.81
364.29	228.83
364.67	228.76
365.05	228.78
365.43	228.78
365.81	228.84
366.19	228.88
366.57	228.96
366.95	228.95
367.33	228.95
367.71	228.97
368.09	228.99
368.47	228.99
368.85	228.99
369.23	229.01
369.61	228.92
369.99	228.93
370.37	228.93
370.75	228.95
371.13	228.86
371.51	228.82
371.89	228.80
372.27	228.77
372.65	228.79
373.03	228.75
373.41	228.68
373.78	228.61
374.16	228.53
374.54	228.43
374.92	228.36
375.30	228.28
375.68	228.19
376.06	228.12
376.44	228.05
376.82	227.96
377.19	227.86
377.57	227.81
377.95	227.74
378.33	227.67
378.71	227.53
379.09	227.51
379.47	227.50
379.84	227.41
380.22	227.29
380.60	227.19
380.98	227.11
381.36	227.05
381.73	226.98
382.11	226.94
382.49	226.83
382.87	226.76
383.25	226.71
383.62	226.76
384.00	226.70
384.38	226.62
384.76	226.63
385.13	226.58
385.51	226.55
385.89	226.49
386.27	226.44
386.64	226.41
387.02	226.33
387.40	226.24
387.78	226.20
388.15	226.20
388.53	226.13
388.91	226.08
389.29	226.03
389.66	225.99
390.04	225.92
390.42	225.95
390.79	225.94
391.17	225.91
391.55	225.79
391.92	225.75
392.30	225.76
392.68	225.72
393.05	225.74
393.43	225.73
393.81	225.70
394.18	225.72
394.56	225.72
394.94	225.76
395.31	225.81
395.69	225.86
396.06	225.87
396.44	225.90
396.82	225.96
397.19	226.08
397.57	226.10
397.95	226.19
398.32	226.21
398.70	226.25
399.07	226.30
399.45	226.36
399.82	226.39
400.20	226.47
400.58	226.54
400.95	226.56
401.33	226.64
401.70	226.79
402.08	226.87
402.45	226.95
402.83	227.04
403.20	227.09
403.58	227.17
403.95	227.32
404.33	227.45
404.71	227.54
405.08	227.67
405.46	227.81
405.83	227.95
406.21	228.09
406.58	228.29
406.96	228.45
407.33	228.63
407.70	228.84
408.08	229.08
408.45	229.26
408.83	229.47
409.20	229.69
409.58	229.84
409.95	230.08
410.33	230.35
410.70	230.57
411.08	230.89
411.45	231.19
411.82	231.51
412.20	231.84
412.57	232.27
412.95	232.60
413.32	233.00
413.69	233.39
414.07	233.85
414.44	234.30
414.82	234.76
415.19	235.29
415.56	235.83
415.94	236.36
416.31	237.00
416.68	237.67
417.06	238.44
417.43	239.15
417.81	239.93
418.18	240.69
418.55	241.57
418.93	242.48
419.30	243.39
419.67	244.32
420.04	245.28
420.42	246.28
420.79	247.46
421.16	248.63
421.54	249.82
421.91	251.02
422.28	252.26
422.66	253.62
423.03	254.93
423.40	256.28
423.77	257.70
424.15	259.16
424.52	260.64
424.89	262.20
425.26	263.76
425.64	265.23
426.01	266.83
426.38	268.47
426.75	270.10
427.13	271.84
427.50	273.63
427.87	275.50
428.24	277.35
428.61	279.08
428.99	281.02
429.36	283.10
429.73	285.19
430.10	287.22
430.47	289.28
430.85	291.40
431.22	293.64
431.59	296.01
431.96	298.26
432.33	300.75
432.70	303.12
433.08	305.92
433.45	308.52
433.82	311.15
434.19	314.05
434.56	316.88
434.93	319.47
435.30	322.11
435.68	324.99
436.05	327.81
436.42	330.56
436.79	333.06
437.16	335.75
437.53	338.55
437.90	341.39
438.27	344.12
438.64	346.93
439.01	349.53
439.38	351.77
439.75	353.89
440.13	356.39
440.50	358.73
440.87	360.52
441.24	362.48
441.61	364.60
441.98	366.07
442.35	367.88
442.72	369.73
443.09	371.47
443.46	372.49
443.83	373.05
444.20	373.56
444.57	374.40
444.94	374.68
445.31	374.99
445.68	375.31
446.05	375.40
446.42	375.01
446.79	374.58
447.16	374.11
447.53	373.78
447.90	372.58
448.27	371.38
448.64	369.82
449.01	368.71
449.37	366.78
449.74	364.88
450.11	362.59
450.48	360.16
450.85	357.66
451.22	355.51
451.59	353.48
451.96	351.59
452.33	348.97
452.70	346.65
453.07	343.80
453.43	340.88
453.80	338.12
454.17	335.50
454.54	332.95
454.91	330.23
455.28	327.59
455.65	325.10
456.02	322.68
456.38	320.55
456.75	317.85
457.12	315.58
457.49	313.37
457.86	311.21
458.23	309.39
458.59	307.36
458.96	305.29
459.33	303.41
459.70	301.51
460.07	300.00
460.43	298.28
460.80	296.70
461.17	295.28
461.54	293.78
461.91	292.32
462.27	290.90
462.64	289.68
463.01	288.33
463.38	287.06
463.74	285.70
464.11	284.57
464.48	283.56
464.85	282.45
465.21	281.62
465.58	280.69
465.95	279.62
466.32	278.71
466.68	277.81
467.05	276.98
467.42	276.07
467.78	275.19
468.15	274.32
468.52	273.67
468.88	272.84
469.25	272.07
469.62	271.49
469.98	270.80
470.35	270.18
470.72	269.62
471.08	268.96
471.45	268.40
471.82	267.82
472.18	267.23
472.55	266.83
472.92	266.27
473.28	265.86
473.65	265.35
474.02	264.94
474.38	264.57
474.75	264.30
475.11	264.00
475.48	263.71
475.85	263.49
476.21	263.28
476.58	263.12
476.94	262.98
477.31	262.77
477.67	262.61
478.04	262.51
478.41	262.39
478.77	262.47
479.14	262.44
479.50	262.45
479.87	262.52
480.23	262.59
480.60	262.67
480.96	262.77
481.33	263.01
481.69	263.20
482.06	263.40
482.42	263.59
482.79	263.85
483.15	264.19
483.52	264.64
483.88	264.97
484.25	265.35
484.61	265.78
484.98	266.23
485.34	266.83
485.71	267.43
486.07	268.06
486.44	268.60
486.80	269.34
487.17	270.11
487.53	270.92
487.90	271.76
488.26	272.72
488.62	273.72
488.99	274.64
489.35	275.66
489.72	276.80
490.08	278.00
490.44	279.20
490.81	280.54
491.17	281.80
491.54	283.27
491.90	284.80
492.26	286.45
492.63	288.20
492.99	289.99
493.36	291.84
493.72	293.91
494.08	296.01
494.45	298.19
494.81	300.52
495.17	302.97
495.54	305.57
495.90	308.26
496.26	311.08
496.63	314.09
496.99	317.24
497.35	320.49
497.72	323.90
498.08	327.44
498.44	331.12
498.80	335.08
499.17	339.15
499.53	343.36
499.89	347.69
500.26	352.21
500.62	356.84
500.98	361.85
501.34	366.85
501.71	372.16
502.07	377.65
502.43	383.29
502.79	389.07
503.16	395.15
503.52	401.40
503.88	407.81
504.24	414.46
504.60	421.33
504.97	428.44
505.33	435.73
505.69	443.46
506.05	451.27
506.41	459.06
506.78	467.19
507.14	475.66
507.50	484.43
507.86	493.51
508.22	502.75
508.59	511.93
508.95	521.54
509.31	531.37
509.67	541.53
510.03	551.82
510.39	562.42
510.75	573.17
511.12	584.12
511.48	595.34
511.84	606.76
512.20	618.30
512.56	630.32
512.92	642.54
513.28	654.89
513.64	667.35
514.00	680.13
514.37	693.13
514.73	706.19
515.09	719.22
515.45	732.44
515.81	745.92
516.17	760.01
516.53	774.23
516.89	788.42
517.25	802.57
517.61	817.02
517.97	831.47
518.33	845.97
518.69	860.76
519.05	875.84
519.41	891.03
519.77	906.47
520.13	921.83
520.49	937.15
520.85	952.51
521.21	968.14
521.57	984.45
521.93	1000.12
522.29	1016.39
522.65	1032.63
523.01	1048.82
523.37	1064.90
523.73	1080.91
524.09	1096.88
524.45	1113.12
524.81	1129.66
525.17	1146.30
525.53	1163.04
525.89	1179.88
526.25	1196.66
526.61	1212.99
526.97	1229.65
527.33	1246.17
527.68	1262.68
528.04	1279.18
528.40	1295.68
528.76	1312.74
529.12	1329.17
529.48	1346.07
529.84	1361.96
530.20	1378.61
530.56	1395.58
530.91	1412.98
531.27	1429.69
531.63	1446.21
531.99	1462.82
532.35	1478.85
532.71	1494.64
533.07	1510.94
533.42	1526.78
533.78	1542.81
534.14	1558.98
534.50	1574.32
534.86	1590.03
535.21	1605.09
535.57	1620.83
535.93	1636.41
536.29	1651.12
536.65	1666.08
537.00	1680.65
537.36	1696.11
537.72	1710.44
538.08	1724.78
538.44	1738.37
538.79	1752.19
539.15	1765.64
539.51	1779.20
539.87	1793.45
540.22	1807.09
540.58	1820.66
540.94	1833.78
541.29	1846.45
541.65	1859.04
542.01	1872.16
542.37	1884.44
542.72	1896.93
543.08	1908.66
543.44	1920.80
543.79	1932.04
544.15	1943.07
544.51	1954.76
544.87	1965.57
545.22	1976.38
545.58	1986.49
545.94	1996.24
546.29	2006.04
546.65	2015.97
547.01	2025.19
547.36	2033.77
547.72	2042.39
548.07	2050.36
548.43	2058.41
548.79	2066.35
549.14	2073.84
549.50	2081.10
549.86	2088.76
550.21	2095.98
550.57	2103.29
550.92	2110.03
551.28	2117.06
551.64	2124.17
551.99	2130.60
552.35	2136.69
552.70	2142.75
553.06	2148.83
553.41	2155.20
553.77	2161.18
554.13	2167.15
554.48	2173.32
554.84	2178.75
555.19	2183.87
555.55	2188.93
555.90	2193.53
556.26	2198.54
556.61	2203.28
556.97	2207.67
557.32	2211.73
557.68	2215.91
558.03	2220.03
558.39	2223.58
558.74	2228.02
559.10	2231.75
559.45	2235.27
559.81	2239.57
560.16	2243.52
560.52	2246.63
560.87	2250.16
561.23	2252.88
561.58	2255.90
561.94	2258.45
562.29	2260.71
562.64	2263.54
563.00	2266.16
563.35	2269.68
563.71	2272.77
564.06	2275.92
564.42	2278.77
564.77	2281.36
565.12	2283.68
565.48	2285.74
565.83	2287.69
566.19	2289.21
566.54	2290.04
566.89	2291.32
567.25	2291.92
567.60	2293.10
567.96	2294.92
568.31	2295.71
568.66	2296.86
569.02	2297.51
569.37	2297.91
569.72	2298.90
570.08	2299.18
570.43	2299.21
570.78	2298.69
571.14	2297.23
571.49	2295.97
571.84	2295.56
572.20	2294.43
572.55	2293.40
572.90	2291.72
573.26	2290.41
573.61	2288.52
573.96	2286.95
574.31	2283.98
574.67	2280.98
575.02	2277.36
575.37	2273.79
575.72	2270.11
576.08	2266.60
576.43	2263.10
576.78	2259.31
577.13	2256.15
577.49	2252.75
577.84	2249.31
578.19	2245.64
578.54	2242.02
578.90	2237.92
579.25	2232.56
579.60	2227.81
579.95	2222.85
580.30	2217.90
580.66	2212.66
581.01	2207.94
581.36	2202.94
581.71	2198.95
582.06	2194.64
582.42	2190.29
582.77	2185.23
583.12	2180.66
583.47	2176.20
583.82	2171.32
584.17	2166.34
584.53	2160.92
584.88	2155.50
585.23	2149.90
585.58	2144.35
585.93	2138.92
586.28	2134.00
586.63	2128.94
586.98	2123.81
587.34	2119.06
587.69	2114.25
588.04	2109.06
588.39	2103.37
588.74	2096.78
589.09	2090.56
589.44	2083.81
589.79	2077.63
590.14	2071.97
590.49	2065.34
590.84	2058.91
591.19	2052.93
591.54	2046.29
591.89	2039.11
592.25	2032.47
592.60	2025.29
592.95	2017.82
593.30	2010.56
593.65	2003.02
594.00	1995.89
594.35	1988.65
594.70	1980.61
595.05	1973.41
595.40	1966.19
595.75	1958.67
596.10	1952.77
596.45	1946.13
596.80	1940.16
597.15	1933.73
597.50	1926.89
597.85	1920.35
598.19	1913.70
598.54	1906.60
598.89	1900.08
599.24	1894.13
599.59	1887.55
599.94	1881.19
600.29	1874.98
600.64	1868.32
600.99	1861.00
601.34	1854.16
601.69	1847.22
602.04	1840.42
602.39	1833.02
602.74	1826.25
603.08	1819.57
603.43	1812.69
603.78	1805.39
604.13	1798.05
604.48	1790.85
604.83	1783.92
605.18	1777.20
605.53	1769.25
605.87	1761.35
606.22	1753.98
606.57	1745.89
606.92	1738.41
607.27	1731.40
607.62	1724.36
607.96	1717.26
608.31	1710.76
608.66	1703.22
609.01	1695.73
609.36	1688.29
609.70	1680.32
610.05	1672.19
610.40	1664.63
610.75	1656.35
611.10	1648.67
611.44	1640.14
611.79	1632.03
612.14	1623.42
612.49	1614.13
612.83	1605.76
613.18	1597.57
613.53	1589.60
613.88	1581.16
614.22	1572.82
614.57	1564.13
614.92	1556.25
615.27	1548.71
615.61	1540.38
615.96	1532.36
616.31	1524.68
616.65	1517.22
617.00	1509.61
617.35	1501.93
617.70	1493.58
618.04	1485.20
618.39	1476.92
618.74	1469.42
619.08	1461.12
619.43	1453.46
619.78	1446.61
620.12	1439.52
620.47	1432.07
620.82	1423.87
621.16	1416.51
621.51	1408.86
621.85	1401.25
622.20	1392.63
622.55	1384.14
622.89	1376.18
623.24	1368.38
623.59	1360.92
623.93	1353.39
624.28	1346.22
624.62	1338.83
624.97	1331.59
625.32	1324.73
625.66	1317.66
626.01	1310.48
626.35	1303.18
626.70	1295.37
627.04	1287.62
627.39	1279.72
627.73	1272.23
628.08	1265.25
628.43	1258.01
628.77	1250.70
629.12	1243.19
629.46	1236.05
629.81	1228.52
630.15	1221.26
630.50	1214.03
630.84	1205.88
631.19	1197.89
631.53	1190.32
631.88	1182.71
632.22	1175.07
632.57	1167.85
632.91	1160.33
633.26	1152.96
633.60	1145.48
633.95	1138.26
634.29	1131.17
634.64	1124.51
634.98	1117.20
635.32	1110.12
635.67	1103.40
636.01	1096.77
636.36	1089.93
636.70	1083.38
637.05	1076.93
637.39	1070.56
637.73	1064.11
638.08	1058.23
638.42	1052.28
638.77	1045.94
639.11	1039.36
639.45	1032.98
639.80	1026.25
640.14	1019.84
640.49	1013.31
640.83	1007.02
641.17	1000.92
641.52	994.65
641.86	988.10
642.20	982.23
642.55	975.85
642.89	969.34
643.23	962.70
643.58	956.95
643.92	950.80
644.26	944.78
644.61	938.58
644.95	932.47
645.29	925.92
645.64	919.15
645.98	912.73
646.32	906.83
646.66	900.80
647.01	894.95
647.35	889.31
647.69	883.38
648.04	877.76
648.38	871.99
648.72	866.08
649.06	860.10
649.41	854.20
649.75	848.31
650.09	842.42
650.43	836.73
650.78	830.58
651.12	824.60
651.46	818.85
651.80	813.25
652.14	807.84
652.49	802.53
652.83	797.37
653.17	791.79
653.51	786.18
653.85	780.69
654.20	775.08
654.54	769.01
654.88	763.21
655.22	757.31
655.56	751.57
655.90	745.94
656.25	740.74
656.59	735.33
656.93	730.16
657.27	725.01
657.61	719.51
657.95	714.35
658.29	709.21
658.64	703.84
658.98	698.46
659.32	693.02
659.66	687.79
660.00	682.50
660.34	677.56
660.68	672.61
661.02	667.58
661.36	662.89
661.70	658.44
662.05	654.19
662.39	649.94
662.73	645.52
663.07	641.17
663.41	636.69
663.75	632.31
664.09	627.79
664.43	623.30
664.77	619.20
665.11	614.97
665.45	610.87
665.79	606.88
666.13	602.74
666.47	598.63
666.81	594.45
667.15	590.32
667.49	586.33
667.83	582.36
668.17	578.44
668.51	574.42
668.85	570.37
669.19	566.49
669.53	562.69
669.87	558.85
670.21	555.17
670.55	551.51
670.89	548.01
671.23	544.53
671.57	541.08
671.91	537.58
672.25	534.06
672.58	530.55
672.92	527.13
673.26	523.95
673.60	520.85
673.94	517.76
674.28	514.77
674.62	511.82
674.96	508.80
675.30	505.92
675.64	502.92
675.97	500.10
676.31	497.21
676.65	494.26
676.99	491.50
677.33	488.63
677.67	485.82
678.01	482.80
678.34	479.88
678.68	476.98
679.02	474.13
679.36	471.35
679.70	468.59
680.04	465.78
680.37	462.96
680.71	460.14
681.05	457.49
681.39	454.82
681.73	452.13
682.06	449.64
682.40	447.10
682.74	444.57
683.08	442.03
683.42	439.44
683.75	436.93
684.09	434.35
684.43	431.86
684.77	429.37
685.10	427.03
685.44	424.62
685.78	422.39
686.12	420.13
686.45	417.88
686.79	415.62
687.13	413.47
687.46	411.23
687.80	409.03
688.14	406.82
688.48	404.81
688.81	402.62
689.15	400.41
689.49	398.22
689.82	396.17
690.16	394.06
690.50	392.10
690.83	390.19
691.17	388.22
691.51	386.35
691.84	384.55
692.18	382.64
692.52	380.73
692.85	378.71
693.19	376.85
693.52	375.01
693.86	373.18
694.20	371.38
694.53	369.64
694.87	367.78
695.21	365.97
695.54	364.08
695.88	362.31
696.21	360.59
696.55	358.95
696.88	357.25
697.22	355.60
697.56	353.96
697.89	352.31
698.23	350.73
698.56	349.11
698.90	347.51
699.23	345.86
699.57	344.31
699.90	342.82
700.24	341.25
700.58	339.72
700.91	338.24
701.25	336.78
701.58	335.37
701.92	334.06
702.25	332.69
702.59	331.36
702.92	330.05
703.26	328.77
703.59	327.50
703.93	326.36
704.26	325.13
704.60	323.80
704.93	322.49
705.26	321.18
705.60	319.96
705.93	318.79
706.27	317.77
706.60	316.72
706.94	315.64
707.27	314.54
707.61	313.48
707.94	312.45
708.27	311.39
708.61	310.29
708.94	309.27
709.28	308.30
709.61	307.32
709.94	306.34
710.28	305.33
710.61	304.26
710.95	303.16
711.28	302.29
711.61	301.37
711.95	300.48
712.28	299.53
712.61	298.59
712.95	297.66
713.28	296.75
713.61	295.79
713.95	294.87
714.28	294.01
714.61	293.14
714.95	292.28
715.28	291.40
715.61	290.57
715.95	289.71
716.28	288.85
716.61	288.03
716.95	287.23
717.28	286.44
717.61	285.73
717.94	284.97
718.28	284.13
718.61	283.37
718.94	282.71
719.27	282.08
719.61	281.41
719.94	280.73
720.27	280.01
720.60	279.39
720.94	278.78
721.27	278.19
721.60	277.59
721.93	276.99
722.27	276.44
722.60	275.85
722.93	275.26
723.26	274.67
723.59	274.08
723.93	273.55
724.26	273.00
724.59	272.44
724.92	271.90
725.25	271.39
725.59	270.89
725.92	270.33
726.25	269.80
726.58	269.32
726.91	268.81
727.24	268.33
727.57	267.88
727.91	267.36
728.24	266.87
728.57	266.37
728.90	265.92
729.23	265.42
729.56	265.00
729.89	264.55
730.22	264.09
730.55	263.62
730.89	263.16
731.22	262.71
731.55	262.27
731.88	261.84
732.21	261.42
732.54	260.97
732.87	260.54
733.20	260.12
733.53	259.74
733.86	259.38
734.19	258.99
734.52	258.58
734.85	258.26
735.18	257.86
735.51	257.48
735.84	257.13
736.17	256.79
736.50	256.40
736.83	256.21
737.16	255.87
737.49	255.57
737.82	255.25
738.15	254.92
738.48	254.59
738.81	254.23
739.14	253.90
739.47	253.63
739.80	253.33
740.13	253.06
740.46	252.73
740.79	252.40
741.12	252.09
741.45	251.79
741.78	251.49
742.11	251.22
742.44	250.92
742.77	250.65
743.10	250.34
743.43	250.06
743.75	249.66
744.08	249.50
744.41	249.24
744.74	248.98
745.07	248.72
745.40	248.47
745.73	248.30
746.06	248.03
746.39	247.76
746.71	247.51
747.04	247.25
747.37	247.01
747.70	246.80
748.03	246.54
748.36	246.29
748.68	246.04
749.01	245.80
749.34	245.59
749.67	245.34
750.00	245.13
750.33	244.94
750.65	244.76
750.98	244.43
751.31	244.21
751.64	243.96
751.97	243.79
752.29	243.58
752.62	243.32
752.95	243.09
753.28	242.87
753.60	242.68
753.93	242.52
754.26	242.34
754.59	242.09
754.91	241.94
755.24	241.76
755.57	241.54
755.90	241.37
756.22	241.16
756.55	240.95
756.88	240.76
757.20	240.56
757.53	240.33
757.86	240.17
758.19	240.00
758.51	239.82
758.84	239.63
759.17	239.48
759.49	239.36
759.82	239.25
760.15	239.10
760.47	238.94
760.80	238.74
761.13	238.62
761.45	238.46
761.78	238.28
762.11	238.13
762.43	238.00
762.76	237.87
763.08	237.77
763.41	237.63
763.74	237.49
764.06	237.31
764.39	237.16
764.71	237.00
765.04	236.85
765.37	236.73
765.69	236.62
766.02	236.45
766.34	236.26
766.67	236.10
767.00	235.99
767.32	235.91
767.65	235.83
767.97	235.69
768.30	235.58
768.62	235.45
768.95	235.35
769.27	235.20
769.60	235.09
769.92	234.93
770.25	234.81
770.57	234.69
770.90	234.59
771.22	234.47
771.55	234.36
771.87	234.29
772.20	234.19
772.52	234.11
772.85	234.15
773.17	234.05
773.50	233.97
773.82	233.87
774.15	233.72
774.47	233.57
774.80	233.47
775.12	233.37
775.45	233.30
775.77	233.22
776.09	233.14
776.42	233.06
776.74	233.00
777.07	232.93
777.39	232.90
777.72	232.85
778.04	232.80
778.36	232.75
778.69	232.68
779.01	232.64
779.33	232.52
779.66	232.31
779.98	232.26
780.31	232.20
780.63	232.15
780.95	232.11
781.28	232.06
781.60	232.01
781.92	231.95
782.25	231.88
782.57	231.79
782.89	231.74
783.22	231.65
783.54	231.64
783.86	231.60
784.19	231.53
784.51	231.50
784.83	231.43
785.16	231.37
785.48	231.31
785.80	231.24
786.12	231.23
786.45	231.21
786.77	231.17
787.09	231.15
787.42	231.10
787.74	231.05
788.06	231.00
788.38	230.94
788.71	230.92
789.03	230.89
789.35	230.87
789.67	230.83
789.99	230.83
790.32	230.78
790.64	230.73
790.96	230.75
791.28	230.69
791.61	230.63
791.93	230.61
792.25	230.58
792.57	230.62
792.89	230.52
793.21	230.52
793.54	230.45
793.86	230.41
794.18	230.36
794.50	230.32
794.82	230.26
795.14	230.26
795.47	230.23
795.79	230.21
796.11	230.17
796.43	230.15
796.75	230.12
797.07	230.08
797.39	230.06
797.71	229.95
798.04	229.90
798.36	229.92
798.68	229.87
799.00	229.87
799.32	229.78
799.64	229.79
799.96	229.74
800.28	229.74
800.60	229.66
800.92	229.64
801.24	229.62
801.56	229.63
801.89	229.54
802.21	229.52
802.53	229.49
802.85	229.45
803.17	229.46
803.49	229.38
803.81	229.31
804.13	229.26
804.45	229.24
804.77	229.24
805.09	229.21
805.41	229.16
805.73	229.08
806.05	229.03
806.37	228.98
806.69	228.92
807.01	228.90
807.33	228.88
807.65	228.81
807.97	228.81
808.28	228.75
808.60	228.75
808.92	228.69
809.24	228.69
809.56	228.65
809.88	228.58
810.20	228.56
810.52	228.57
810.84	228.55
811.16	228.49
811.48	228.45
811.80	228.41
812.12	228.40
812.43	228.40
812.75	228.38
813.07	228.34
813.39	228.31
813.71	228.23
814.03	228.22
814.35	228.19
814.67	228.15
814.98	228.13
815.30	228.11
815.62	228.08
815.94	228.02
816.26	228.02
816.58	227.98
816.89	227.98
817.21	227.93
817.53	227.94
817.85	227.93
818.17	227.89
818.48	227.85
818.80	227.84
819.12	227.80
819.44	227.78
819.76	227.77
820.07	227.76
820.39	227.78
820.71	227.77
821.03	227.77
821.34	227.77
821.66	227.75
821.98	227.76
822.30	227.76
822.61	227.81
822.93	227.75
823.25	227.76
823.57	227.77
823.88	227.80
824.20	227.76
824.52	227.79
824.83	227.80
825.15	227.79
825.47	227.77
825.79	227.78
826.10	227.75
826.42	227.76
826.74	227.74
827.05	227.72
827.37	227.74
827.69	227.71
828.00	227.69
828.32	227.71
828.64	227.67
828.95	227.71
829.27	227.65
829.58	227.66
829.90	227.66
830.22	227.62
830.53	227.57
830.85	227.55
831.17	227.47
831.48	227.45
831.80	227.46
832.11	227.47
832.43	227.47
832.75	227.48
833.06	227.52
833.38	227.53
833.69	227.49
834.01	227.48
834.32	227.47
834.64	227.44
834.96	227.42
835.27	227.42
835.59	227.36
835.90	227.33
836.22	227.30
836.53	227.27
836.85	227.27
837.16	227.36
837.48	227.36
837.79	227.45
838.11	227.46
838.42	227.46
838.74	227.44
839.05	227.42
839.37	227.41
839.68	227.32
840.00	227.29
840.31	227.36
840.63	227.33
840.94	227.32
841.26	227.31
841.57	227.31
841.88	227.31
842.20	227.30
842.51	227.29
842.83	227.30
843.14	227.36
843.46	227.37
843.77	227.31
844.08	227.28
844.40	227.20
844.71	227.18
845.03	227.13
845.34	227.11
845.65	227.06
845.97	227.06
846.28	227.07
846.60	227.06
846.91	227.03
847.22	227.01
847.54	227.03
847.85	227.02
848.16	226.97
848.48	226.96
848.79	226.97
849.10	227.01
849.42	226.98
849.73	226.88
850.04	226.86
850.36	226.79
850.67	226.79
850.98	226.79
851.30	226.79
851.61	226.76
851.92	226.74
852.23	226.79
852.55	226.77
852.86	226.75
853.17	226.76
853.49	226.77
853.80	226.79
854.11	226.78
854.42	226.78
854.74	226.78
855.05	226.77
855.36	226.73
855.67	226.71
855.99	226.74
856.30	226.82
856.61	226.78
856.92	226.80
857.23	226.79
857.55	226.78
857.86	226.77
858.17	226.81
858.48	226.81
858.79	226.79
859.11	226.79
859.42	226.78
859.73	226.74
860.04	226.71
860.35	226.66
860.66	226.61
860.98	226.61
861.29	226.61
861.60	226.59
861.91	226.62
862.22	226.61
862.53	226.58
862.84	226.49
863.16	226.51
863.47	226.49
863.78	226.48
864.09	226.46
864.40	226.45
864.71	226.47
865.02	226.48
865.33	226.45
865.64	226.45
865.95	226.46
866.27	226.54
866.58	226.54
866.89	226.59
867.20	226.61
867.51	226.60
867.82	226.60
868.13	226.62
868.44	226.62
868.75	226.60
869.06	226.61
869.37	226.59
869.68	226.59
869.99	226.63
870.30	226.63
870.61	226.64
870.92	226.66
871.23	226.62
871.54	226.63
871.85	226.67
872.16	226.68
872.47	226.70
872.78	226.64
873.09	226.66
873.40	226.66
873.71	226.66
874.02	226.65
874.33	226.66
874.64	226.64
874.95	226.66
875.26	226.71
875.56	226.73
875.87	226.77
876.18	226.76
876.49	226.83
876.80	226.84
877.11	226.86
877.42	226.86
877.73	226.90
878.04	226.90
878.35	226.89
878.66	226.90
878.96	226.90
879.27	226.89
879.58	226.87
879.89	226.85
880.20	226.86
880.51	226.88
880.82	226.89
881.12	226.89
881.43	226.84
881.74	226.80
882.05	226.78
882.36	226.79
882.67	226.80
882.97	226.70
883.28	226.71
883.59	226.70
883.90	226.72
884.21	226.70
884.51	226.73
884.82	226.71
885.13	226.70
885.44	226.70
885.74	226.70
886.05	226.71
886.36	226.71
886.67	226.71
886.98	226.76
887.28	226.78
887.59	226.79
887.90	226.82
888.20	226.81
888.51	226.84
888.82	226.80
889.13	226.80
889.43	226.93
889.74	226.91
890.05	226.91
890.35	226.89
890.66	226.88
890.97	226.84
891.28	226.84
891.58	226.83
891.89	226.81
892.20	226.81
892.50	226.79
892.81	226.82
893.12	226.81
893.42	226.73
893.73	226.71
894.04	226.72
894.34	226.75
894.65	226.71
894.95	226.69
895.26	226.71
895.57	226.76
895.87	226.64
896.18	226.65
896.48	226.65
896.79	226.66
897.10	226.64
897.40	226.62
897.71	226.63
898.01	226.64
898.32	226.65
898.63	226.64
898.93	226.68
899.24	226.65
899.54	226.65
899.85	226.66
900.15	226.66
900.46	226.66
900.76	226.63
901.07	226.68
901.38	226.70
901.68	226.69
901.99	226.64
902.29	226.64
902.60	226.64
902.90	226.65
903.21	226.65
903.51	226.68
903.82	226.71
904.12	226.72
904.43	226.71
904.73	226.72
905.03	226.70
905.34	226.78
905.64	226.77
905.95	226.77
906.25	226.78
906.56	226.79
906.86	226.74
907.17	226.75
907.47	226.74
907.77	226.71
908.08	226.69
908.38	226.72
908.69	226.72
908.99	226.75
909.30	226.72
909.60	226.70
909.90	226.72
910.21	226.71
910.51	226.69
910.81	226.69
911.12	226.68
911.42	226.72
911.73	226.61
912.03	226.63
912.33	226.64
912.64	226.65
912.94	226.64
913.24	226.64
913.55	226.64
913.85	226.65
914.15	226.67
914.46	226.69
914.76	226.64
915.06	226.64
915.37	226.63
915.67	226.66
915.97	226.65
916.27	226.61
916.58	226.61
916.88	226.61
917.18	226.60
917.49	226.68
917.79	226.68
918.09	226.68
918.39	226.69
918.70	226.68
919.00	226.64
919.30	226.66
919.60	226.67
919.91	226.68
920.21	226.67
920.51	226.65
920.81	226.61
921.12	226.63
921.42	226.65
921.72	226.64
922.02	226.59
922.32	226.63
922.63	226.63
922.93	226.69
923.23	226.70
923.53	226.68
923.83	226.63
924.13	226.61
924.44	226.57
924.74	226.61
925.04	226.62
925.34	226.64
925.64	226.57
925.94	226.57
926.24	226.56
926.55	226.53
926.85	226.49
927.15	226.48
927.45	226.50
927.75	226.49
928.05	226.45
928.35	226.47
928.65	226.45
928.95	226.47
929.26	226.40
929.56	226.41
929.86	226.40
930.16	226.41
930.46	226.40
930.76	226.45
931.06	226.39
931.36	226.37
931.66	226.37
931.96	226.40
932.26	226.38
932.56	226.35
932.86	226.36
933.16	226.37
933.46	226.39
933.76	226.36
934.06	226.36
934.36	226.41
934.66	226.40
934.96	226.39
935.26	226.35
935.56	226.36
935.86	226.31
936.16	226.30
936.46	226.27
936.76	226.27
937.06	226.23
937.36	226.25
937.66	226.25
937.96	226.27
938.26	226.24
938.56	226.23
938.86	226.23
939.16	226.23
939.46	226.25
939.76	226.25
940.06	226.23
940.35	226.21
940.65	226.15
940.95	226.16
941.25	226.12
941.55	226.14
941.85	226.12
942.15	226.14
942.45	226.15
942.75	226.13
943.04	226.15
943.34	226.15
943.64	226.12
943.94	226.11
944.24	226.13
944.54	226.14
944.84	226.17
945.13	226.15
945.43	226.17
945.73	226.18
946.03	226.19
946.33	226.22
946.62	226.23
946.92	226.28
947.22	226.30
947.52	226.34
947.82	226.33
948.11	226.33
948.41	226.33
948.71	226.33
949.01	226.35
949.31	226.30
949.60	226.30
949.90	226.31
950.20	226.32
950.50	226.28
950.79	226.28
951.09	226.31
951.39	226.35
951.69	226.32
951.98	226.30
952.28	226.31
952.58	226.31
952.87	226.32
953.17	226.30
953.47	226.31
953.76	226.32
954.06	226.33
954.36	226.34
954.66	226.34
954.95	226.36
955.25	226.36
955.55	226.39
955.84	226.37
956.14	226.41
956.44	226.39
956.73	226.41
957.03	226.41
957.32	226.38
957.62	226.36
957.92	226.39
958.21	226.42
958.51	226.53
958.81	226.54
959.10	226.53
959.40	226.59
959.69	226.60
959.99	226.58
960.29	226.60
960.58	226.58
960.88	226.62
961.17	226.60
961.47	226.62
961.76	226.63
962.06	226.66
962.36	226.64
962.65	226.64
962.95	226.63
963.24	226.63
963.54	226.65
963.83	226.67
964.13	226.67
964.42	226.62
964.72	226.54
965.01	226.52
965.31	226.47
965.60	226.40
965.90	226.44
966.19	226.41
966.49	226.41
966.78	226.43
967.08	226.43
967.37	226.44
967.67	226.41
967.96	226.46
968.26	226.44
968.55	226.45
968.85	226.47
969.14	226.45
969.43	226.42
969.73	226.39
970.02	226.37
970.32	226.35
970.61	226.34
970.91	226.32
971.20	226.33
971.49	226.36
971.79	226.39
972.08	226.32
972.38	226.34
972.67	226.32
972.96	226.35
973.26	226.30
973.55	226.33
973.85	226.33
974.14	226.29
974.43	226.28
974.73	226.28
975.02	226.27
975.31	226.27
975.61	226.29
975.90	226.30
976.19	226.30
976.49	226.32
976.78	226.36
977.07	226.33
977.37	226.33
977.66	226.34
977.95	226.31
978.24	226.31
978.54	226.33
978.83	226.29
979.12	226.27
979.42	226.30
979.71	226.24
980.00	226.24
980.29	226.24
980.59	226.25
980.88	226.23
981.17	226.22
981.46	226.23
981.76	226.24
982.05	226.28
982.34	226.29
982.63	226.27
982.93	226.27
983.22	226.27
983.51	226.27
983.80	226.25
984.09	226.26
984.39	226.25
984.68	226.22
984.97	226.23
985.26	226.22
985.55	226.20
985.85	226.18
986.14	226.22
986.43	226.22
986.72	226.20
987.01	226.19
987.30	226.20
987.59	226.17
987.89	226.16
988.18	226.09
988.47	226.08
988.76	226.06
989.05	226.05
989.34	226.05
989.63	226.06
989.92	226.07
990.22	226.05
990.51	226.07
990.80	226.05
991.09	226.06
991.38	226.07
991.67	226.06
991.96	226.07
992.25	226.05
992.54	226.00
992.83	226.03
993.12	226.00
993.41	226.03
993.70	226.09
993.99	226.10
994.28	226.14
994.58	226.17
994.87	226.16
995.16	226.17
995.45	226.15
995.74	226.12
996.03	226.15
996.32	226.12
996.61	226.14
996.90	226.13
997.19	226.13
997.48	226.11
997.77	226.09
998.06	226.10
998.34	226.09
998.63	226.14
998.92	226.09
999.21	226.14
999.50	226.12
999.79	226.10
1000.08	226.10
1000.37	226.10
1000.66	226.08
1000.95	226.10
1001.24	226.08
1001.53	226.10
1001.82	226.11
1002.11	226.08
1002.40	226.12
1002.68	226.13
1002.97	226.21
1003.26	226.21
1003.55	226.20
1003.84	226.20
1004.13	226.22
1004.42	226.24
1004.71	226.23
1004.99	226.27
1005.28	226.26
1005.57	226.27
1005.86	226.25
1006.15	226.26
1006.44	226.26
1006.72	226.25
1007.01	226.24
1007.30	226.29
1007.59	226.26
1007.88	226.25
1008.17	226.27
1008.45	226.26
1008.74	226.22
1009.03	226.18
1009.32	226.19
1009.60	226.18
1009.89	226.19
1010.18	226.16
1010.47	226.11
1010.76	226.15
1011.04	226.13
1011.33	226.18
1011.62	226.14
1011.91	226.14
1012.19	226.11
1012.48	226.07
1012.77	226.09
1013.05	226.17
1013.34	226.12
1013.63	226.16
1013.92	226.17
1014.20	226.12
1014.49	226.11
1014.78	226.14
1015.06	226.11
1015.35	226.09
1015.64	226.12
1015.92	226.14
1016.21	226.14
1016.50	226.18
1016.78	226.15
1017.07	226.16
1017.36	226.11
1017.64	226.11
1017.93	226.12
1018.22	226.09
1018.50	226.11
1018.79	226.08
1019.08	225.99
1019.36	226.02
1019.65	225.99
1019.93	225.99
1020.22	226.04
1020.51	226.13
1020.79	226.11
1021.08	225.73
1021.36	225.95
1021.65	225.71
1021.94	225.85
1022.22	226.52
1022.51	225.68
1022.79	226.07
1023.08	226.53
1023.36	227.64
1023.65	226.09
>>>>>End Processed Spectral Data<<<<<
