SpectraSuite Data File
++++++++++++++++++++++++++++++++++++
Date: Fri Feb 01 15:22:16 EST 2013
User: group
Dark Spectrum Present: No
Reference Spectrum Present: No
Number of Sampled Component Spectra: 1
Spectrometers: USB2E7196
Integration Time (usec): 35000 (USB2E7196)
Spectra Averaged: 100 (USB2E7196)
Boxcar Smoothing: 10 (USB2E7196)
Correct for Electrical Dark: No (USB2E7196)
Strobe/Lamp Enabled: No (USB2E7196)
Correct for Detector Non-linearity: No (USB2E7196)
Correct for Stray Light: No (USB2E7196)
Number of Pixels in Processed Spectrum: 2048
>>>>>Begin Processed Spectral Data<<<<<
339.09	0.00
339.48	214.92
339.86	216.98
340.24	217.47
340.63	219.53
341.01	221.94
341.39	222.31
341.78	223.21
342.16	224.86
342.54	224.70
342.93	213.46
343.31	224.28
343.69	224.83
344.07	225.27
344.46	225.74
344.84	226.11
345.22	226.34
345.60	226.59
345.99	226.82
346.37	226.92
346.75	227.04
347.13	227.05
347.52	227.10
347.90	227.16
348.28	227.19
348.66	227.23
349.05	227.22
349.43	227.24
349.81	227.33
350.19	227.40
350.57	227.46
350.96	227.57
351.34	227.63
351.72	227.72
352.10	227.84
352.48	227.88
352.87	227.94
353.25	228.02
353.63	228.06
354.01	228.09
354.39	228.20
354.77	228.29
355.15	228.40
355.54	228.43
355.92	228.45
356.30	228.53
356.68	228.65
357.06	228.74
357.44	228.81
357.82	228.85
358.20	228.92
358.58	228.96
358.97	229.00
359.35	229.09
359.73	229.12
360.11	229.15
360.49	229.26
360.87	229.30
361.25	229.35
361.63	229.42
362.01	229.48
362.39	229.49
362.77	229.51
363.15	229.52
363.53	229.57
363.91	229.58
364.29	229.57
364.67	229.49
365.05	229.51
365.43	229.50
365.81	229.50
366.19	229.54
366.57	229.58
366.95	229.56
367.33	229.49
367.71	229.49
368.09	229.48
368.47	229.41
368.85	229.37
369.23	229.34
369.61	229.28
369.99	229.25
370.37	229.25
370.75	229.25
371.13	229.23
371.51	229.16
371.89	229.13
372.27	229.08
372.65	229.04
373.03	228.96
373.41	228.90
373.78	228.84
374.16	228.69
374.54	228.60
374.92	228.54
375.30	228.48
375.68	228.40
376.06	228.38
376.44	228.33
376.82	228.27
377.19	228.18
377.57	228.12
377.95	228.00
378.33	227.91
378.71	227.78
379.09	227.73
379.47	227.67
379.84	227.59
380.22	227.53
380.60	227.44
380.98	227.38
381.36	227.30
381.73	227.21
382.11	227.19
382.49	227.12
382.87	227.03
383.25	226.98
383.62	227.02
384.00	226.90
384.38	226.84
384.76	226.82
385.13	226.82
385.51	226.79
385.89	226.74
386.27	226.68
386.64	226.63
387.02	226.56
387.40	226.48
387.78	226.46
388.15	226.43
388.53	226.38
388.91	226.37
389.29	226.36
389.66	226.37
390.04	226.32
390.42	226.29
390.79	226.29
391.17	226.26
391.55	226.14
391.92	226.13
392.30	226.12
392.68	226.07
393.05	226.05
393.43	226.06
393.81	226.10
394.18	226.13
394.56	226.17
394.94	226.19
395.31	226.28
395.69	226.34
396.06	226.40
396.44	226.48
396.82	226.48
397.19	226.58
397.57	226.60
397.95	226.67
398.32	226.73
398.70	226.80
399.07	226.91
399.45	227.01
399.82	227.09
400.20	227.14
400.58	227.24
400.95	227.32
401.33	227.41
401.70	227.55
402.08	227.64
402.45	227.76
402.83	227.91
403.20	228.00
403.58	228.09
403.95	228.25
404.33	228.38
404.71	228.56
405.08	228.72
405.46	228.85
405.83	229.02
406.21	229.18
406.58	229.35
406.96	229.48
407.33	229.66
407.70	229.86
408.08	230.18
408.45	230.40
408.83	230.63
409.20	230.85
409.58	231.03
409.95	231.29
410.33	231.53
410.70	231.75
411.08	232.04
411.45	232.33
411.82	232.63
412.20	232.97
412.57	233.35
412.95	233.60
413.32	234.03
413.69	234.42
414.07	234.87
414.44	235.32
414.82	235.81
415.19	236.32
415.56	236.89
415.94	237.40
416.31	238.05
416.68	238.65
417.06	239.39
417.43	240.09
417.81	240.88
418.18	241.67
418.55	242.50
418.93	243.39
419.30	244.32
419.67	245.27
420.04	246.18
420.42	247.18
420.79	248.41
421.16	249.56
421.54	250.77
421.91	251.94
422.28	253.20
422.66	254.56
423.03	255.88
423.40	257.20
423.77	258.56
424.15	259.96
424.52	261.46
424.89	263.04
425.26	264.59
425.64	266.00
426.01	267.62
426.38	269.31
426.75	270.97
427.13	272.69
427.50	274.48
427.87	276.38
428.24	278.25
428.61	279.96
428.99	281.89
429.36	284.01
429.73	286.12
430.10	288.16
430.47	290.22
430.85	292.32
431.22	294.57
431.59	296.95
431.96	299.20
432.33	301.72
432.70	304.10
433.08	306.90
433.45	309.54
433.82	312.14
434.19	315.04
434.56	317.87
434.93	320.52
435.30	323.10
435.68	325.97
436.05	328.80
436.42	331.65
436.79	334.18
437.16	336.85
437.53	339.72
437.90	342.54
438.27	345.30
438.64	348.13
439.01	350.72
439.38	353.04
439.75	355.26
440.13	357.74
440.50	360.09
440.87	361.93
441.24	363.89
441.61	366.04
441.98	367.56
442.35	369.32
442.72	371.18
443.09	373.00
443.46	374.02
443.83	374.61
444.20	375.14
444.57	376.00
444.94	376.29
445.31	376.58
445.68	376.93
446.05	376.95
446.42	376.58
446.79	376.19
447.16	375.72
447.53	375.38
447.90	374.25
448.27	373.11
448.64	371.53
449.01	370.42
449.37	368.42
449.74	366.49
450.11	364.27
450.48	361.78
450.85	359.28
451.22	357.16
451.59	355.11
451.96	353.10
452.33	350.45
452.70	348.09
453.07	345.24
453.43	342.36
453.80	339.59
454.17	336.92
454.54	334.34
454.91	331.62
455.28	328.94
455.65	326.39
456.02	323.86
456.38	321.75
456.75	319.09
457.12	316.84
457.49	314.60
457.86	312.39
458.23	310.54
458.59	308.44
458.96	306.32
459.33	304.47
459.70	302.61
460.07	301.14
460.43	299.41
460.80	297.85
461.17	296.38
461.54	294.91
461.91	293.48
462.27	292.05
462.64	290.75
463.01	289.38
463.38	288.13
463.74	286.79
464.11	285.58
464.48	284.56
464.85	283.47
465.21	282.60
465.58	281.68
465.95	280.60
466.32	279.73
466.68	278.84
467.05	277.95
467.42	277.05
467.78	276.11
468.15	275.24
468.52	274.56
468.88	273.68
469.25	272.91
469.62	272.31
469.98	271.63
470.35	270.99
470.72	270.38
471.08	269.68
471.45	269.11
471.82	268.58
472.18	267.93
472.55	267.47
472.92	266.94
473.28	266.51
473.65	266.04
474.02	265.55
474.38	265.19
474.75	264.89
475.11	264.57
475.48	264.32
475.85	264.09
476.21	263.86
476.58	263.66
476.94	263.51
477.31	263.32
477.67	263.18
478.04	263.10
478.41	263.04
478.77	263.08
479.14	263.06
479.50	263.03
479.87	263.13
480.23	263.26
480.60	263.33
480.96	263.42
481.33	263.63
481.69	263.87
482.06	264.09
482.42	264.25
482.79	264.51
483.15	264.84
483.52	265.21
483.88	265.55
484.25	265.96
484.61	266.42
484.98	266.83
485.34	267.41
485.71	268.00
486.07	268.60
486.44	269.18
486.80	269.87
487.17	270.62
487.53	271.44
487.90	272.25
488.26	273.19
488.62	274.18
488.99	275.20
489.35	276.23
489.72	277.35
490.08	278.56
490.44	279.80
490.81	281.12
491.17	282.47
491.54	283.93
491.90	285.46
492.26	287.10
492.63	288.84
492.99	290.61
493.36	292.49
493.72	294.51
494.08	296.62
494.45	298.86
494.81	301.27
495.17	303.70
495.54	306.29
495.90	308.97
496.26	311.73
496.63	314.68
496.99	317.80
497.35	321.02
497.72	324.42
498.08	327.92
498.44	331.58
498.80	335.51
499.17	339.53
499.53	343.69
499.89	348.05
500.26	352.54
500.62	357.19
500.98	362.20
501.34	367.30
501.71	372.62
502.07	378.04
502.43	383.60
502.79	389.36
503.16	395.40
503.52	401.65
503.88	408.08
504.24	414.63
504.60	421.49
504.97	428.62
505.33	435.95
505.69	443.65
506.05	451.38
506.41	459.24
506.78	467.38
507.14	475.81
507.50	484.48
507.86	493.52
508.22	502.72
508.59	511.87
508.95	521.41
509.31	531.22
509.67	541.34
510.03	551.67
510.39	562.26
510.75	573.11
511.12	584.04
511.48	595.31
511.84	606.81
512.20	618.37
512.56	630.33
512.92	642.51
513.28	654.79
513.64	667.30
514.00	679.99
514.37	692.93
514.73	705.96
515.09	719.10
515.45	732.40
515.81	746.02
516.17	760.02
516.53	774.18
516.89	788.34
517.25	802.49
517.61	816.94
517.97	831.42
518.33	845.86
518.69	860.68
519.05	875.86
519.41	891.14
519.77	906.72
520.13	922.18
520.49	937.62
520.85	953.19
521.21	968.96
521.57	985.24
521.93	1001.15
522.29	1017.66
522.65	1033.92
523.01	1050.16
523.37	1066.27
523.73	1082.52
524.09	1098.55
524.45	1115.01
524.81	1131.75
525.17	1148.63
525.53	1165.64
525.89	1182.56
526.25	1199.52
526.61	1215.80
526.97	1232.52
527.33	1249.09
527.68	1265.68
528.04	1282.15
528.40	1298.76
528.76	1315.85
529.12	1332.57
529.48	1349.57
529.84	1365.66
530.20	1382.27
530.56	1399.40
530.91	1416.76
531.27	1433.50
531.63	1450.13
531.99	1466.71
532.35	1482.81
532.71	1498.68
533.07	1514.96
533.42	1530.91
533.78	1546.89
534.14	1563.25
534.50	1578.68
534.86	1594.55
535.21	1609.92
535.57	1626.05
535.93	1641.54
536.29	1656.44
536.65	1671.68
537.00	1686.55
537.36	1701.98
537.72	1716.61
538.08	1731.05
538.44	1744.92
538.79	1758.97
539.15	1772.84
539.51	1786.58
539.87	1800.96
540.22	1814.86
540.58	1828.77
540.94	1842.27
541.29	1855.39
541.65	1868.16
542.01	1881.66
542.37	1893.99
542.72	1906.49
543.08	1918.43
543.44	1930.92
543.79	1942.17
544.15	1953.10
544.51	1964.66
544.87	1975.72
545.22	1986.62
545.58	1996.88
545.94	2006.70
546.29	2016.64
546.65	2026.43
547.01	2035.77
547.36	2044.57
547.72	2052.98
548.07	2060.77
548.43	2068.87
548.79	2076.93
549.14	2084.59
549.50	2091.80
549.86	2099.62
550.21	2106.91
550.57	2114.03
550.92	2120.64
551.28	2127.84
551.64	2134.81
551.99	2141.21
552.35	2147.30
552.70	2153.34
553.06	2159.45
553.41	2165.93
553.77	2171.86
554.13	2178.01
554.48	2184.19
554.84	2189.41
555.19	2194.83
555.55	2199.91
555.90	2204.45
556.26	2209.19
556.61	2213.81
556.97	2217.96
557.32	2222.02
557.68	2226.19
558.03	2230.37
558.39	2234.14
558.74	2238.76
559.10	2242.65
559.45	2246.35
559.81	2250.82
560.16	2254.74
560.52	2257.95
560.87	2261.26
561.23	2264.01
561.58	2266.89
561.94	2269.45
562.29	2271.98
562.64	2274.65
563.00	2277.38
563.35	2280.84
563.71	2284.10
564.06	2287.19
564.42	2290.08
564.77	2292.56
565.12	2294.65
565.48	2296.47
565.83	2298.30
566.19	2299.50
566.54	2300.41
566.89	2301.49
567.25	2301.96
567.60	2303.24
567.96	2304.77
568.31	2305.54
568.66	2306.46
569.02	2307.01
569.37	2307.16
569.72	2307.87
570.08	2307.90
570.43	2307.83
570.78	2307.00
571.14	2305.29
571.49	2303.94
571.84	2303.45
572.20	2302.27
572.55	2301.32
572.90	2299.80
573.26	2298.22
573.61	2296.52
573.96	2294.67
574.31	2291.58
574.67	2288.35
575.02	2284.75
575.37	2281.29
575.72	2277.36
576.08	2274.02
576.43	2270.63
576.78	2266.85
577.13	2263.84
577.49	2260.59
577.84	2256.96
578.19	2253.35
578.54	2249.68
578.90	2245.42
579.25	2239.90
579.60	2234.84
579.95	2229.62
580.30	2224.63
580.66	2219.47
581.01	2214.36
581.36	2209.35
581.71	2205.23
582.06	2200.69
582.42	2196.08
582.77	2190.80
583.12	2186.12
583.47	2181.25
583.82	2176.07
584.17	2170.85
584.53	2165.07
584.88	2159.42
585.23	2153.60
585.58	2148.02
585.93	2142.45
586.28	2137.65
586.63	2132.39
586.98	2127.20
587.34	2122.59
587.69	2117.50
588.04	2112.17
588.39	2106.44
588.74	2099.99
589.09	2093.69
589.44	2086.82
589.79	2080.66
590.14	2074.92
590.49	2068.45
590.84	2062.05
591.19	2055.86
591.54	2049.27
591.89	2041.76
592.25	2034.83
592.60	2027.54
592.95	2019.82
593.30	2012.40
593.65	2004.70
594.00	1997.63
594.35	1990.49
594.70	1982.31
595.05	1974.91
595.40	1967.57
595.75	1960.00
596.10	1953.44
596.45	1946.64
596.80	1940.44
597.15	1933.69
597.50	1926.60
597.85	1920.23
598.19	1913.54
598.54	1906.56
598.89	1899.97
599.24	1894.08
599.59	1887.27
599.94	1881.09
600.29	1874.90
600.64	1868.36
600.99	1860.79
601.34	1853.90
601.69	1846.75
602.04	1839.71
602.39	1832.32
602.74	1825.47
603.08	1818.77
603.43	1812.18
603.78	1805.01
604.13	1797.75
604.48	1790.50
604.83	1783.51
605.18	1776.28
605.53	1768.28
605.87	1760.11
606.22	1752.76
606.57	1744.80
606.92	1737.56
607.27	1730.27
607.62	1723.10
607.96	1715.68
608.31	1709.11
608.66	1701.48
609.01	1694.04
609.36	1686.42
609.70	1678.53
610.05	1670.35
610.40	1662.54
610.75	1654.31
611.10	1646.46
611.44	1638.14
611.79	1630.14
612.14	1621.41
612.49	1612.36
612.83	1603.81
613.18	1595.74
613.53	1587.67
613.88	1579.13
614.22	1570.78
614.57	1562.22
614.92	1554.32
615.27	1546.76
615.61	1538.38
615.96	1530.38
616.31	1522.63
616.65	1515.35
617.00	1507.76
617.35	1500.25
617.70	1491.77
618.04	1483.08
618.39	1474.94
618.74	1467.25
619.08	1458.95
619.43	1451.47
619.78	1444.45
620.12	1437.34
620.47	1429.85
620.82	1421.72
621.16	1414.25
621.51	1406.68
621.85	1399.08
622.20	1390.58
622.55	1382.26
622.89	1374.43
623.24	1366.87
623.59	1359.51
623.93	1352.05
624.28	1344.67
624.62	1337.07
624.97	1329.96
625.32	1323.36
625.66	1316.33
626.01	1309.14
626.35	1301.64
626.70	1293.80
627.04	1286.10
627.39	1278.39
627.73	1271.06
628.08	1264.02
628.43	1256.80
628.77	1249.41
629.12	1241.77
629.46	1234.51
629.81	1227.00
630.15	1219.72
630.50	1212.22
630.84	1204.18
631.19	1196.19
631.53	1188.82
631.88	1181.34
632.22	1173.83
632.57	1166.50
632.91	1158.87
633.26	1151.49
633.60	1144.17
633.95	1137.24
634.29	1130.30
634.64	1123.59
634.98	1116.13
635.32	1109.12
635.67	1102.54
636.01	1095.98
636.36	1089.30
636.70	1082.78
637.05	1076.39
637.39	1069.99
637.73	1063.56
638.08	1057.59
638.42	1051.54
638.77	1045.10
639.11	1038.38
639.45	1031.96
639.80	1025.21
640.14	1018.79
640.49	1012.21
640.83	1005.89
641.17	999.53
641.52	993.19
641.86	986.80
642.20	980.99
642.55	974.65
642.89	968.10
643.23	961.53
643.58	955.66
643.92	949.47
644.26	943.27
644.61	937.23
644.95	931.16
645.29	924.51
645.64	917.84
645.98	911.49
646.32	905.66
646.66	899.63
647.01	893.88
647.35	888.17
647.69	882.41
648.04	876.89
648.38	871.10
648.72	865.00
649.06	858.95
649.41	853.05
649.75	847.03
650.09	841.16
650.43	835.34
650.78	829.13
651.12	823.18
651.46	817.44
651.80	811.68
652.14	806.27
652.49	800.89
652.83	795.69
653.17	789.93
653.51	784.18
653.85	778.79
654.20	773.19
654.54	767.18
654.88	761.48
655.22	755.58
655.56	749.88
655.90	744.45
656.25	739.17
656.59	733.79
656.93	728.77
657.27	723.61
657.61	718.21
657.95	713.23
658.29	708.05
658.64	702.90
658.98	697.66
659.32	692.23
659.66	687.10
660.00	681.80
660.34	676.90
660.68	672.04
661.02	667.02
661.36	662.27
661.70	657.80
662.05	653.40
662.39	649.11
662.73	644.72
663.07	640.39
663.41	635.96
663.75	631.53
664.09	626.97
664.43	622.58
664.77	618.44
665.11	614.18
665.45	610.17
665.79	606.10
666.13	601.94
666.47	597.85
666.81	593.60
667.15	589.58
667.49	585.66
667.83	581.94
668.17	577.98
668.51	573.97
668.85	569.98
669.19	566.11
669.53	562.26
669.87	558.35
670.21	554.69
670.55	551.01
670.89	547.53
671.23	544.08
671.57	540.59
671.91	537.07
672.25	533.65
672.58	530.17
672.92	526.78
673.26	523.64
673.60	520.52
673.94	517.43
674.28	514.54
674.62	511.59
674.96	508.40
675.30	505.58
675.64	502.66
675.97	499.98
676.31	497.13
676.65	494.26
676.99	491.58
677.33	488.69
677.67	485.87
678.01	482.84
678.34	479.86
678.68	476.96
679.02	474.14
679.36	471.30
679.70	468.61
680.04	465.83
680.37	462.97
680.71	460.21
681.05	457.65
681.39	454.90
681.73	452.32
682.06	449.79
682.40	447.19
682.74	444.66
683.08	442.02
683.42	439.45
683.75	436.91
684.09	434.36
684.43	431.91
684.77	429.48
685.10	427.15
685.44	424.88
685.78	422.66
686.12	420.42
686.45	418.16
686.79	415.84
687.13	413.68
687.46	411.49
687.80	409.33
688.14	407.08
688.48	405.00
688.81	402.76
689.15	400.59
689.49	398.50
689.82	396.43
690.16	394.35
690.50	392.39
690.83	390.51
691.17	388.57
691.51	386.67
691.84	384.84
692.18	382.93
692.52	380.94
692.85	379.02
693.19	377.16
693.52	375.36
693.86	373.55
694.20	371.79
694.53	370.07
694.87	368.19
695.21	366.46
695.54	364.63
695.88	362.86
696.21	361.17
696.55	359.50
696.88	357.85
697.22	356.18
697.56	354.58
697.89	352.91
698.23	351.30
698.56	349.73
698.90	348.15
699.23	346.47
699.57	344.89
699.90	343.30
700.24	341.73
700.58	340.14
700.91	338.61
701.25	337.13
701.58	335.75
701.92	334.42
702.25	333.03
702.59	331.69
702.92	330.40
703.26	329.09
703.59	327.78
703.93	326.57
704.26	325.35
704.60	324.04
704.93	322.73
705.26	321.45
705.60	320.24
705.93	319.08
706.27	318.09
706.60	317.06
706.94	315.99
707.27	314.88
707.61	313.87
707.94	312.86
708.27	311.78
708.61	310.67
708.94	309.63
709.28	308.63
709.61	307.69
709.94	306.74
710.28	305.71
710.61	304.73
710.95	303.64
711.28	302.72
711.61	301.80
711.95	300.90
712.28	299.96
712.61	298.98
712.95	298.08
713.28	297.21
713.61	296.32
713.95	295.42
714.28	294.60
714.61	293.73
714.95	292.88
715.28	292.04
715.61	291.17
715.95	290.32
716.28	289.50
716.61	288.67
716.95	287.86
717.28	287.15
717.61	286.41
717.94	285.72
718.28	284.94
718.61	284.18
718.94	283.51
719.27	282.88
719.61	282.22
719.94	281.55
720.27	280.82
720.60	280.18
720.94	279.57
721.27	279.02
721.60	278.44
721.93	277.83
722.27	277.31
722.60	276.76
722.93	276.24
723.26	275.70
723.59	275.14
723.93	274.63
724.26	274.07
724.59	273.52
724.92	272.96
725.25	272.50
725.59	272.00
725.92	271.47
726.25	270.99
726.58	270.52
726.91	270.00
727.24	269.57
727.57	269.09
727.91	268.62
728.24	268.10
728.57	267.61
728.90	267.21
729.23	266.69
729.56	266.30
729.89	265.81
730.22	265.30
730.55	264.84
730.89	264.39
731.22	263.95
731.55	263.52
731.88	263.14
732.21	262.70
732.54	262.25
732.87	261.83
733.20	261.39
733.53	261.01
733.86	260.63
734.19	260.24
734.52	259.85
734.85	259.51
735.18	259.12
735.51	258.76
735.84	258.37
736.17	258.03
736.50	257.59
736.83	257.39
737.16	257.09
737.49	256.76
737.82	256.42
738.15	256.11
738.48	255.77
738.81	255.42
739.14	255.06
739.47	254.75
739.80	254.43
740.13	254.16
740.46	253.82
740.79	253.49
741.12	253.17
741.45	252.83
741.78	252.51
742.11	252.18
742.44	251.85
742.77	251.52
743.10	251.23
743.43	250.92
743.75	250.48
744.08	250.32
744.41	250.01
744.74	249.74
745.07	249.44
745.40	249.18
745.73	248.94
746.06	248.69
746.39	248.40
746.71	248.18
747.04	247.85
747.37	247.59
747.70	247.32
748.03	247.09
748.36	246.87
748.68	246.61
749.01	246.40
749.34	246.14
749.67	245.91
750.00	245.68
750.33	245.53
750.65	245.35
750.98	245.02
751.31	244.81
751.64	244.59
751.97	244.41
752.29	244.20
752.62	243.90
752.95	243.67
753.28	243.52
753.60	243.28
753.93	243.11
754.26	242.94
754.59	242.71
754.91	242.47
755.24	242.25
755.57	242.05
755.90	241.84
756.22	241.66
756.55	241.47
756.88	241.25
757.20	240.99
757.53	240.79
757.86	240.63
758.19	240.47
758.51	240.29
758.84	240.05
759.17	239.85
759.49	239.77
759.82	239.63
760.15	239.43
760.47	239.28
760.80	239.12
761.13	238.95
761.45	238.81
761.78	238.68
762.11	238.56
762.43	238.41
762.76	238.30
763.08	238.20
763.41	238.08
763.74	237.97
764.06	237.83
764.39	237.67
764.71	237.50
765.04	237.35
765.37	237.23
765.69	237.12
766.02	237.02
766.34	236.83
766.67	236.71
767.00	236.63
767.32	236.59
767.65	236.53
767.97	236.43
768.30	236.33
768.62	236.22
768.95	236.13
769.27	236.04
769.60	235.91
769.92	235.79
770.25	235.70
770.57	235.56
770.90	235.49
771.22	235.37
771.55	235.32
771.87	235.25
772.20	235.14
772.52	235.16
772.85	235.19
773.17	235.15
773.50	235.02
773.82	234.94
774.15	234.79
774.47	234.64
774.80	234.57
775.12	234.47
775.45	234.38
775.77	234.29
776.09	234.20
776.42	234.13
776.74	234.08
777.07	233.99
777.39	233.97
777.72	233.90
778.04	233.86
778.36	233.74
778.69	233.66
779.01	233.61
779.33	233.43
779.66	233.26
779.98	233.19
780.31	233.14
780.63	233.11
780.95	233.06
781.28	233.03
781.60	232.96
781.92	232.89
782.25	232.82
782.57	232.74
782.89	232.69
783.22	232.62
783.54	232.52
783.86	232.42
784.19	232.35
784.51	232.29
784.83	232.25
785.16	232.20
785.48	232.18
785.80	232.12
786.12	232.08
786.45	232.02
786.77	231.95
787.09	231.88
787.42	231.77
787.74	231.74
788.06	231.69
788.38	231.62
788.71	231.58
789.03	231.53
789.35	231.50
789.67	231.44
789.99	231.37
790.32	231.32
790.64	231.31
790.96	231.35
791.28	231.29
791.61	231.24
791.93	231.18
792.25	231.09
792.57	231.11
792.89	231.04
793.21	231.02
793.54	230.98
793.86	230.94
794.18	230.93
794.50	230.83
794.82	230.78
795.14	230.77
795.47	230.73
795.79	230.71
796.11	230.67
796.43	230.64
796.75	230.60
797.07	230.56
797.39	230.53
797.71	230.39
798.04	230.37
798.36	230.29
798.68	230.28
799.00	230.31
799.32	230.22
799.64	230.25
799.96	230.19
800.28	230.18
800.60	230.17
800.92	230.14
801.24	230.13
801.56	230.09
801.89	230.06
802.21	230.03
802.53	229.98
802.85	229.97
803.17	229.98
803.49	229.98
803.81	229.97
804.13	229.92
804.45	229.92
804.77	229.93
805.09	229.99
805.41	229.97
805.73	229.88
806.05	229.82
806.37	229.77
806.69	229.76
807.01	229.73
807.33	229.71
807.65	229.63
807.97	229.67
808.28	229.64
808.60	229.63
808.92	229.62
809.24	229.65
809.56	229.63
809.88	229.58
810.20	229.56
810.52	229.57
810.84	229.54
811.16	229.53
811.48	229.47
811.80	229.47
812.12	229.44
812.43	229.49
812.75	229.45
813.07	229.41
813.39	229.39
813.71	229.35
814.03	229.33
814.35	229.34
814.67	229.26
814.98	229.24
815.30	229.20
815.62	229.15
815.94	229.07
816.26	229.07
816.58	229.03
816.89	228.99
817.21	228.96
817.53	228.94
817.85	228.92
818.17	228.89
818.48	228.82
818.80	228.82
819.12	228.78
819.44	228.78
819.76	228.80
820.07	228.78
820.39	228.76
820.71	228.71
821.03	228.70
821.34	228.68
821.66	228.67
821.98	228.68
822.30	228.69
822.61	228.75
822.93	228.68
823.25	228.69
823.57	228.67
823.88	228.66
824.20	228.69
824.52	228.66
824.83	228.66
825.15	228.59
825.47	228.54
825.79	228.52
826.10	228.49
826.42	228.44
826.74	228.42
827.05	228.41
827.37	228.40
827.69	228.41
828.00	228.42
828.32	228.41
828.64	228.38
828.95	228.41
829.27	228.34
829.58	228.35
829.90	228.33
830.22	228.32
830.53	228.26
830.85	228.23
831.17	228.21
831.48	228.18
831.80	228.23
832.11	228.23
832.43	228.21
832.75	228.22
833.06	228.26
833.38	228.25
833.69	228.23
834.01	228.24
834.32	228.19
834.64	228.18
834.96	228.18
835.27	228.17
835.59	228.15
835.90	228.12
836.22	228.10
836.53	228.09
836.85	228.08
837.16	228.20
837.48	228.19
837.79	228.22
838.11	228.23
838.42	228.20
838.74	228.22
839.05	228.23
839.37	228.22
839.68	228.13
840.00	228.09
840.31	228.10
840.63	228.09
840.94	228.10
841.26	228.04
841.57	228.02
841.88	228.01
842.20	227.98
842.51	227.98
842.83	227.98
843.14	228.07
843.46	228.07
843.77	228.01
844.08	228.01
844.40	227.99
844.71	227.96
845.03	227.94
845.34	227.95
845.65	227.90
845.97	227.93
846.28	227.97
846.60	228.00
846.91	228.00
847.22	228.00
847.54	228.01
847.85	228.04
848.16	228.06
848.48	228.00
848.79	228.02
849.10	228.05
849.42	228.05
849.73	227.91
850.04	227.88
850.36	227.83
850.67	227.82
850.98	227.80
851.30	227.83
851.61	227.84
851.92	227.81
852.23	227.84
852.55	227.82
852.86	227.81
853.17	227.80
853.49	227.83
853.80	227.80
854.11	227.77
854.42	227.76
854.74	227.75
855.05	227.79
855.36	227.75
855.67	227.74
855.99	227.72
856.30	227.84
856.61	227.89
856.92	227.85
857.23	227.83
857.55	227.82
857.86	227.80
858.17	227.79
858.48	227.77
858.79	227.74
859.11	227.74
859.42	227.70
859.73	227.66
860.04	227.60
860.35	227.60
860.66	227.62
860.98	227.60
861.29	227.58
861.60	227.55
861.91	227.54
862.22	227.52
862.53	227.52
862.84	227.39
863.16	227.40
863.47	227.42
863.78	227.42
864.09	227.43
864.40	227.43
864.71	227.41
865.02	227.41
865.33	227.43
865.64	227.39
865.95	227.46
866.27	227.54
866.58	227.55
866.89	227.55
867.20	227.50
867.51	227.52
867.82	227.52
868.13	227.53
868.44	227.52
868.75	227.51
869.06	227.51
869.37	227.55
869.68	227.50
869.99	227.51
870.30	227.52
870.61	227.54
870.92	227.53
871.23	227.53
871.54	227.56
871.85	227.58
872.16	227.59
872.47	227.54
872.78	227.50
873.09	227.51
873.40	227.49
873.71	227.52
874.02	227.50
874.33	227.50
874.64	227.50
874.95	227.52
875.26	227.53
875.56	227.55
875.87	227.55
876.18	227.54
876.49	227.64
876.80	227.63
877.11	227.64
877.42	227.64
877.73	227.66
878.04	227.65
878.35	227.64
878.66	227.67
878.96	227.65
879.27	227.62
879.58	227.58
879.89	227.60
880.20	227.66
880.51	227.65
880.82	227.63
881.12	227.61
881.43	227.57
881.74	227.54
882.05	227.51
882.36	227.52
882.67	227.53
882.97	227.43
883.28	227.44
883.59	227.37
883.90	227.38
884.21	227.39
884.51	227.38
884.82	227.35
885.13	227.34
885.44	227.36
885.74	227.36
886.05	227.42
886.36	227.41
886.67	227.32
886.98	227.34
887.28	227.39
887.59	227.42
887.90	227.45
888.20	227.44
888.51	227.45
888.82	227.41
889.13	227.44
889.43	227.49
889.74	227.45
890.05	227.46
890.35	227.43
890.66	227.40
890.97	227.36
891.28	227.36
891.58	227.34
891.89	227.34
892.20	227.33
892.50	227.30
892.81	227.27
893.12	227.30
893.42	227.26
893.73	227.25
894.04	227.23
894.34	227.22
894.65	227.23
894.95	227.20
895.26	227.21
895.57	227.24
895.87	227.15
896.18	227.18
896.48	227.17
896.79	227.18
897.10	227.20
897.40	227.20
897.71	227.25
898.01	227.26
898.32	227.27
898.63	227.29
898.93	227.29
899.24	227.29
899.54	227.29
899.85	227.29
900.15	227.26
900.46	227.26
900.76	227.29
901.07	227.29
901.38	227.32
901.68	227.34
901.99	227.27
902.29	227.30
902.60	227.28
902.90	227.28
903.21	227.24
903.51	227.25
903.82	227.27
904.12	227.27
904.43	227.24
904.73	227.24
905.03	227.25
905.34	227.30
905.64	227.35
905.95	227.33
906.25	227.36
906.56	227.38
906.86	227.40
907.17	227.38
907.47	227.40
907.77	227.38
908.08	227.35
908.38	227.34
908.69	227.36
908.99	227.39
909.30	227.42
909.60	227.47
909.90	227.45
910.21	227.42
910.51	227.41
910.81	227.41
911.12	227.42
911.42	227.40
911.73	227.34
912.03	227.33
912.33	227.35
912.64	227.37
912.94	227.36
913.24	227.33
913.55	227.33
913.85	227.30
914.15	227.34
914.46	227.34
914.76	227.35
915.06	227.31
915.37	227.30
915.67	227.27
915.97	227.27
916.27	227.26
916.58	227.28
916.88	227.28
917.18	227.29
917.49	227.32
917.79	227.32
918.09	227.34
918.39	227.34
918.70	227.33
919.00	227.31
919.30	227.35
919.60	227.39
919.91	227.39
920.21	227.38
920.51	227.37
920.81	227.37
921.12	227.40
921.42	227.39
921.72	227.37
922.02	227.40
922.32	227.41
922.63	227.41
922.93	227.44
923.23	227.45
923.53	227.43
923.83	227.40
924.13	227.42
924.44	227.40
924.74	227.42
925.04	227.45
925.34	227.45
925.64	227.41
925.94	227.37
926.24	227.41
926.55	227.40
926.85	227.40
927.15	227.40
927.45	227.40
927.75	227.41
928.05	227.43
928.35	227.41
928.65	227.42
928.95	227.43
929.26	227.42
929.56	227.41
929.86	227.41
930.16	227.40
930.46	227.37
930.76	227.42
931.06	227.36
931.36	227.32
931.66	227.30
931.96	227.32
932.26	227.33
932.56	227.31
932.86	227.31
933.16	227.28
933.46	227.27
933.76	227.24
934.06	227.27
934.36	227.31
934.66	227.27
934.96	227.24
935.26	227.24
935.56	227.22
935.86	227.19
936.16	227.21
936.46	227.18
936.76	227.20
937.06	227.13
937.36	227.15
937.66	227.17
937.96	227.18
938.26	227.12
938.56	227.09
938.86	227.09
939.16	227.13
939.46	227.16
939.76	227.14
940.06	227.11
940.35	227.11
940.65	227.03
940.95	227.09
941.25	227.09
941.55	227.08
941.85	227.05
942.15	227.08
942.45	227.10
942.75	227.08
943.04	227.06
943.34	227.07
943.64	227.02
943.94	227.00
944.24	226.99
944.54	227.02
944.84	227.02
945.13	227.00
945.43	226.97
945.73	226.95
946.03	226.93
946.33	226.93
946.62	226.91
946.92	226.90
947.22	226.87
947.52	226.87
947.82	226.88
948.11	226.88
948.41	226.84
948.71	226.81
949.01	226.82
949.31	226.78
949.60	226.79
949.90	226.81
950.20	226.82
950.50	226.84
950.79	226.83
951.09	226.82
951.39	226.79
951.69	226.79
951.98	226.82
952.28	226.85
952.58	226.85
952.87	226.86
953.17	226.84
953.47	226.84
953.76	226.82
954.06	226.78
954.36	226.77
954.66	226.80
954.95	226.83
955.25	226.83
955.55	226.87
955.84	226.86
956.14	226.89
956.44	226.89
956.73	226.86
957.03	226.89
957.32	226.92
957.62	226.95
957.92	226.95
958.21	226.92
958.51	227.02
958.81	227.08
959.10	227.04
959.40	227.11
959.69	227.13
959.99	227.17
960.29	227.17
960.58	227.19
960.88	227.20
961.17	227.17
961.47	227.17
961.76	227.16
962.06	227.18
962.36	227.18
962.65	227.17
962.95	227.18
963.24	227.15
963.54	227.15
963.83	227.17
964.13	227.19
964.42	227.21
964.72	227.12
965.01	227.09
965.31	227.12
965.60	227.10
965.90	227.14
966.19	227.13
966.49	227.14
966.78	227.12
967.08	227.13
967.37	227.12
967.67	227.11
967.96	227.13
968.26	227.14
968.55	227.15
968.85	227.14
969.14	227.15
969.43	227.12
969.73	227.10
970.02	227.08
970.32	227.05
970.61	227.02
970.91	227.00
971.20	227.00
971.49	227.00
971.79	227.01
972.08	226.96
972.38	226.94
972.67	226.95
972.96	226.98
973.26	226.96
973.55	227.02
973.85	227.04
974.14	227.04
974.43	227.01
974.73	226.97
975.02	226.96
975.31	226.95
975.61	226.96
975.90	226.95
976.19	226.93
976.49	226.96
976.78	226.97
977.07	226.95
977.37	226.96
977.66	226.95
977.95	226.93
978.24	226.92
978.54	226.94
978.83	226.89
979.12	226.89
979.42	226.90
979.71	226.85
980.00	226.83
980.29	226.83
980.59	226.84
980.88	226.85
981.17	226.83
981.46	226.85
981.76	226.87
982.05	226.92
982.34	226.94
982.63	226.93
982.93	226.93
983.22	226.98
983.51	226.96
983.80	227.00
984.09	227.02
984.39	227.02
984.68	227.01
984.97	227.02
985.26	227.01
985.55	227.05
985.85	227.05
986.14	227.07
986.43	227.06
986.72	227.07
987.01	227.06
987.30	227.05
987.59	227.05
987.89	227.04
988.18	227.03
988.47	227.00
988.76	227.00
989.05	226.99
989.34	226.96
989.63	226.98
989.92	226.92
990.22	226.94
990.51	226.93
990.80	226.92
991.09	226.95
991.38	226.98
991.67	226.93
991.96	226.90
992.25	226.92
992.54	226.93
992.83	226.92
993.12	226.92
993.41	226.95
993.70	227.00
993.99	227.04
994.28	227.06
994.58	227.05
994.87	227.05
995.16	227.08
995.45	227.09
995.74	227.05
996.03	227.07
996.32	227.06
996.61	227.10
996.90	227.11
997.19	227.10
997.48	227.09
997.77	227.06
998.06	227.08
998.34	227.06
998.63	227.05
998.92	227.08
999.21	227.12
999.50	227.11
999.79	227.07
1000.08	227.02
1000.37	227.03
1000.66	227.04
1000.95	227.05
1001.24	227.05
1001.53	227.05
1001.82	227.10
1002.11	227.08
1002.40	227.13
1002.68	227.14
1002.97	227.20
1003.26	227.20
1003.55	227.14
1003.84	227.16
1004.13	227.20
1004.42	227.20
1004.71	227.19
1004.99	227.18
1005.28	227.20
1005.57	227.23
1005.86	227.20
1006.15	227.23
1006.44	227.19
1006.72	227.20
1007.01	227.18
1007.30	227.16
1007.59	227.16
1007.88	227.15
1008.17	227.14
1008.45	227.11
1008.74	227.08
1009.03	227.05
1009.32	227.07
1009.60	227.11
1009.89	227.08
1010.18	227.05
1010.47	227.01
1010.76	227.02
1011.04	227.00
1011.33	226.99
1011.62	227.00
1011.91	226.98
1012.19	226.98
1012.48	227.00
1012.77	226.99
1013.05	227.03
1013.34	227.03
1013.63	227.04
1013.92	227.00
1014.20	226.99
1014.49	226.98
1014.78	226.98
1015.06	226.91
1015.35	226.88
1015.64	226.90
1015.92	226.93
1016.21	226.93
1016.50	226.98
1016.78	226.98
1017.07	226.97
1017.36	226.92
1017.64	226.89
1017.93	226.90
1018.22	226.87
1018.50	226.87
1018.79	226.88
1019.08	226.87
1019.36	226.85
1019.65	226.83
1019.93	226.88
1020.22	226.93
1020.51	226.98
1020.79	226.95
1021.08	226.51
1021.36	226.91
1021.65	227.28
1021.94	227.30
1022.22	226.41
1022.51	227.07
1022.79	227.25
1023.08	227.49
1023.36	228.04
1023.65	226.44
>>>>>End Processed Spectral Data<<<<<
