SpectraSuite Data File
++++++++++++++++++++++++++++++++++++
Date: Fri Feb 01 14:59:45 EST 2013
User: group
Dark Spectrum Present: No
Reference Spectrum Present: No
Number of Sampled Component Spectra: 1
Spectrometers: USB2E7196
Integration Time (usec): 35000 (USB2E7196)
Spectra Averaged: 100 (USB2E7196)
Boxcar Smoothing: 10 (USB2E7196)
Correct for Electrical Dark: No (USB2E7196)
Strobe/Lamp Enabled: No (USB2E7196)
Correct for Detector Non-linearity: No (USB2E7196)
Correct for Stray Light: No (USB2E7196)
Number of Pixels in Processed Spectrum: 2048
>>>>>Begin Processed Spectral Data<<<<<
339.09	0.00
339.48	215.51
339.86	216.53
340.24	217.82
340.63	219.28
341.01	222.72
341.39	222.03
341.78	223.47
342.16	225.10
342.54	225.08
342.93	213.63
343.31	224.42
343.69	224.94
344.07	225.41
344.46	225.84
344.84	226.25
345.22	226.46
345.60	226.71
345.99	226.90
346.37	227.00
346.75	227.08
347.13	227.16
347.52	227.22
347.90	227.27
348.28	227.29
348.66	227.36
349.05	227.34
349.43	227.35
349.81	227.37
350.19	227.41
350.57	227.45
350.96	227.52
351.34	227.59
351.72	227.70
352.10	227.80
352.48	227.82
352.87	227.85
353.25	227.93
353.63	227.99
354.01	228.04
354.39	228.14
354.77	228.21
355.15	228.28
355.54	228.32
355.92	228.37
356.30	228.41
356.68	228.51
357.06	228.61
357.44	228.63
357.82	228.69
358.20	228.73
358.58	228.78
358.97	228.82
359.35	228.87
359.73	228.92
360.11	228.96
360.49	229.04
360.87	229.07
361.25	229.11
361.63	229.17
362.01	229.22
362.39	229.19
362.77	229.26
363.15	229.29
363.53	229.31
363.91	229.34
364.29	229.39
364.67	229.30
365.05	229.30
365.43	229.35
365.81	229.36
366.19	229.46
366.57	229.50
366.95	229.49
367.33	229.46
367.71	229.41
368.09	229.41
368.47	229.42
368.85	229.41
369.23	229.37
369.61	229.30
369.99	229.27
370.37	229.28
370.75	229.27
371.13	229.22
371.51	229.18
371.89	229.12
372.27	229.08
372.65	229.05
373.03	228.97
373.41	228.88
373.78	228.82
374.16	228.69
374.54	228.58
374.92	228.52
375.30	228.46
375.68	228.42
376.06	228.36
376.44	228.28
376.82	228.20
377.19	228.15
377.57	228.07
377.95	227.97
378.33	227.91
378.71	227.76
379.09	227.67
379.47	227.61
379.84	227.55
380.22	227.44
380.60	227.32
380.98	227.27
381.36	227.22
381.73	227.18
382.11	227.13
382.49	227.09
382.87	227.00
383.25	226.96
383.62	226.98
384.00	226.88
384.38	226.81
384.76	226.79
385.13	226.74
385.51	226.69
385.89	226.65
386.27	226.59
386.64	226.55
387.02	226.50
387.40	226.47
387.78	226.40
388.15	226.36
388.53	226.36
388.91	226.31
389.29	226.26
389.66	226.24
390.04	226.21
390.42	226.20
390.79	226.18
391.17	226.18
391.55	226.08
391.92	226.08
392.30	226.11
392.68	226.09
393.05	226.10
393.43	226.14
393.81	226.14
394.18	226.15
394.56	226.19
394.94	226.23
395.31	226.24
395.69	226.31
396.06	226.42
396.44	226.49
396.82	226.56
397.19	226.66
397.57	226.69
397.95	226.77
398.32	226.79
398.70	226.87
399.07	226.94
399.45	226.98
399.82	227.08
400.20	227.18
400.58	227.27
400.95	227.31
401.33	227.41
401.70	227.61
402.08	227.76
402.45	227.84
402.83	228.02
403.20	228.14
403.58	228.26
403.95	228.35
404.33	228.46
404.71	228.58
405.08	228.78
405.46	228.93
405.83	229.08
406.21	229.26
406.58	229.47
406.96	229.67
407.33	229.92
407.70	230.11
408.08	230.40
408.45	230.61
408.83	230.89
409.20	231.10
409.58	231.28
409.95	231.53
410.33	231.84
410.70	232.06
411.08	232.40
411.45	232.69
411.82	233.03
412.20	233.38
412.57	233.80
412.95	234.10
413.32	234.50
413.69	234.91
414.07	235.33
414.44	235.77
414.82	236.24
415.19	236.78
415.56	237.32
415.94	237.81
416.31	238.47
416.68	239.09
417.06	239.83
417.43	240.50
417.81	241.23
418.18	242.00
418.55	242.86
418.93	243.70
419.30	244.60
419.67	245.54
420.04	246.52
420.42	247.53
420.79	248.72
421.16	249.90
421.54	251.09
421.91	252.32
422.28	253.56
422.66	254.88
423.03	256.16
423.40	257.51
423.77	258.95
424.15	260.38
424.52	261.84
424.89	263.44
425.26	264.99
425.64	266.48
426.01	268.08
426.38	269.74
426.75	271.41
427.13	273.15
427.50	274.97
427.87	276.84
428.24	278.66
428.61	280.37
428.99	282.28
429.36	284.37
429.73	286.46
430.10	288.53
430.47	290.60
430.85	292.72
431.22	294.99
431.59	297.37
431.96	299.58
432.33	302.10
432.70	304.49
433.08	307.32
433.45	309.93
433.82	312.57
434.19	315.42
434.56	318.26
434.93	320.94
435.30	323.55
435.68	326.42
436.05	329.30
436.42	332.10
436.79	334.68
437.16	337.40
437.53	340.25
437.90	343.08
438.27	345.84
438.64	348.67
439.01	351.26
439.38	353.48
439.75	355.65
440.13	358.13
440.50	360.48
440.87	362.34
441.24	364.31
441.61	366.44
441.98	367.95
442.35	369.72
442.72	371.55
443.09	373.38
443.46	374.39
443.83	374.92
444.20	375.48
444.57	376.27
444.94	376.52
445.31	376.82
445.68	377.13
446.05	377.18
446.42	376.80
446.79	376.35
447.16	375.92
447.53	375.63
447.90	374.47
448.27	373.30
448.64	371.69
449.01	370.53
449.37	368.57
449.74	366.63
450.11	364.38
450.48	361.89
450.85	359.32
451.22	357.16
451.59	355.17
451.96	353.18
452.33	350.63
452.70	348.23
453.07	345.39
453.43	342.51
453.80	339.69
454.17	336.99
454.54	334.44
454.91	331.68
455.28	328.98
455.65	326.47
456.02	324.03
456.38	321.89
456.75	319.24
457.12	316.94
457.49	314.76
457.86	312.58
458.23	310.74
458.59	308.72
458.96	306.61
459.33	304.77
459.70	302.93
460.07	301.34
460.43	299.66
460.80	298.03
461.17	296.58
461.54	295.12
461.91	293.70
462.27	292.26
462.64	290.99
463.01	289.62
463.38	288.32
463.74	286.88
464.11	285.71
464.48	284.66
464.85	283.56
465.21	282.66
465.58	281.74
465.95	280.62
466.32	279.69
466.68	278.80
467.05	277.90
467.42	276.97
467.78	276.04
468.15	275.16
468.52	274.47
468.88	273.58
469.25	272.82
469.62	272.21
469.98	271.51
470.35	270.87
470.72	270.24
471.08	269.62
471.45	269.16
471.82	268.62
472.18	268.02
472.55	267.57
472.92	267.06
473.28	266.57
473.65	266.11
474.02	265.67
474.38	265.28
474.75	264.96
475.11	264.60
475.48	264.37
475.85	264.15
476.21	263.93
476.58	263.77
476.94	263.57
477.31	263.38
477.67	263.23
478.04	263.14
478.41	263.08
478.77	263.08
479.14	262.96
479.50	262.92
479.87	263.01
480.23	263.11
480.60	263.17
480.96	263.26
481.33	263.46
481.69	263.63
482.06	263.84
482.42	263.99
482.79	264.28
483.15	264.57
483.52	264.93
483.88	265.29
484.25	265.65
484.61	266.07
484.98	266.53
485.34	267.08
485.71	267.67
486.07	268.28
486.44	268.84
486.80	269.56
487.17	270.31
487.53	271.08
487.90	271.91
488.26	272.82
488.62	273.85
488.99	274.85
489.35	275.89
489.72	277.02
490.08	278.23
490.44	279.42
490.81	280.74
491.17	282.10
491.54	283.60
491.90	285.14
492.26	286.78
492.63	288.51
492.99	290.28
493.36	292.13
493.72	294.14
494.08	296.29
494.45	298.47
494.81	300.79
495.17	303.20
495.54	305.73
495.90	308.41
496.26	311.13
496.63	314.05
496.99	317.13
497.35	320.36
497.72	323.71
498.08	327.23
498.44	330.83
498.80	334.71
499.17	338.69
499.53	342.86
499.89	347.20
500.26	351.66
500.62	356.32
500.98	361.29
501.34	366.33
501.71	371.55
502.07	376.99
502.43	382.59
502.79	388.36
503.16	394.42
503.52	400.63
503.88	407.07
504.24	413.65
504.60	420.53
504.97	427.57
505.33	434.91
505.69	442.52
506.05	450.30
506.41	458.11
506.78	466.24
507.14	474.65
507.50	483.27
507.86	492.25
508.22	501.42
508.59	510.55
508.95	520.11
509.31	529.85
509.67	539.93
510.03	550.21
510.39	560.83
510.75	571.60
511.12	582.59
511.48	593.79
511.84	605.30
512.20	616.84
512.56	628.81
512.92	640.95
513.28	653.28
513.64	665.80
514.00	678.47
514.37	691.42
514.73	704.37
515.09	717.64
515.45	730.98
515.81	744.55
516.17	758.59
516.53	772.75
516.89	787.03
517.25	801.13
517.61	815.56
517.97	830.03
518.33	844.50
518.69	859.29
519.05	874.40
519.41	889.60
519.77	905.17
520.13	920.69
520.49	936.09
520.85	951.60
521.21	967.29
521.57	983.61
521.93	999.38
522.29	1015.93
522.65	1032.16
523.01	1048.34
523.37	1064.40
523.73	1080.63
524.09	1096.79
524.45	1113.27
524.81	1130.10
525.17	1146.99
525.53	1163.87
525.89	1180.76
526.25	1197.49
526.61	1213.86
526.97	1230.63
527.33	1247.11
527.68	1263.77
528.04	1280.30
528.40	1297.01
528.76	1314.09
529.12	1330.81
529.48	1347.83
529.84	1363.88
530.20	1380.64
530.56	1397.83
530.91	1415.45
531.27	1432.27
531.63	1448.80
531.99	1465.33
532.35	1481.37
532.71	1497.38
533.07	1513.69
533.42	1529.77
533.78	1546.04
534.14	1562.41
534.50	1577.77
534.86	1593.71
535.21	1608.90
535.57	1625.03
535.93	1640.66
536.29	1655.60
536.65	1670.93
537.00	1685.76
537.36	1701.19
537.72	1715.72
538.08	1730.19
538.44	1744.04
538.79	1758.09
539.15	1771.91
539.51	1785.70
539.87	1800.16
540.22	1813.94
540.58	1827.74
540.94	1841.19
541.29	1854.14
541.65	1867.03
542.01	1880.44
542.37	1892.86
542.72	1905.44
543.08	1917.23
543.44	1929.74
543.79	1941.05
544.15	1951.96
544.51	1963.56
544.87	1974.66
545.22	1985.51
545.58	1995.77
545.94	2005.59
546.29	2015.41
546.65	2025.36
547.01	2034.65
547.36	2043.48
547.72	2051.96
548.07	2060.03
548.43	2068.21
548.79	2076.33
549.14	2083.77
549.50	2091.14
549.86	2099.00
550.21	2106.36
550.57	2113.51
550.92	2119.91
551.28	2127.06
551.64	2134.06
551.99	2140.72
552.35	2146.89
552.70	2153.05
553.06	2159.04
553.41	2165.29
553.77	2171.33
554.13	2177.24
554.48	2183.33
554.84	2188.60
555.19	2194.06
555.55	2198.96
555.90	2203.27
556.26	2207.92
556.61	2212.61
556.97	2216.70
557.32	2220.72
557.68	2224.80
558.03	2229.17
558.39	2233.02
558.74	2237.52
559.10	2241.33
559.45	2244.69
559.81	2248.91
560.16	2252.58
560.52	2255.69
560.87	2259.19
561.23	2261.67
561.58	2264.55
561.94	2266.98
562.29	2269.35
562.64	2271.85
563.00	2274.64
563.35	2278.22
563.71	2281.38
564.06	2284.56
564.42	2287.36
564.77	2289.66
565.12	2291.71
565.48	2293.38
565.83	2295.04
566.19	2296.16
566.54	2297.18
566.89	2298.40
567.25	2298.73
567.60	2300.03
567.96	2301.60
568.31	2302.26
568.66	2303.35
569.02	2303.95
569.37	2304.27
569.72	2304.90
570.08	2304.83
570.43	2304.51
570.78	2303.59
571.14	2301.87
571.49	2300.27
571.84	2299.84
572.20	2298.49
572.55	2297.37
572.90	2295.67
573.26	2294.00
573.61	2292.28
573.96	2290.21
574.31	2287.01
574.67	2283.90
575.02	2280.06
575.37	2276.44
575.72	2272.36
576.08	2268.85
576.43	2265.35
576.78	2261.43
577.13	2258.18
577.49	2254.93
577.84	2251.41
578.19	2247.71
578.54	2243.83
578.90	2239.44
579.25	2233.75
579.60	2228.73
579.95	2223.53
580.30	2218.34
580.66	2213.15
581.01	2208.02
581.36	2202.85
581.71	2198.48
582.06	2193.89
582.42	2189.27
582.77	2184.07
583.12	2179.43
583.47	2174.58
583.82	2169.37
584.17	2164.08
584.53	2158.47
584.88	2152.79
585.23	2146.81
585.58	2141.20
585.93	2135.81
586.28	2131.15
586.63	2125.96
586.98	2120.78
587.34	2116.13
587.69	2111.17
588.04	2105.78
588.39	2100.01
588.74	2093.51
589.09	2087.36
589.44	2080.41
589.79	2074.32
590.14	2068.48
590.49	2061.71
590.84	2055.17
591.19	2048.98
591.54	2042.26
591.89	2034.63
592.25	2027.70
592.60	2020.44
592.95	2012.61
593.30	2005.13
593.65	1997.36
594.00	1990.23
594.35	1982.87
594.70	1974.61
595.05	1967.28
595.40	1959.97
595.75	1952.31
596.10	1945.97
596.45	1938.97
596.80	1932.71
597.15	1925.97
597.50	1918.72
597.85	1912.32
598.19	1905.69
598.54	1898.60
598.89	1892.04
599.24	1886.23
599.59	1879.42
599.94	1873.14
600.29	1866.82
600.64	1860.12
600.99	1852.56
601.34	1845.75
601.69	1838.73
602.04	1831.84
602.39	1824.56
602.74	1817.65
603.08	1811.01
603.43	1804.27
603.78	1796.98
604.13	1789.82
604.48	1782.46
604.83	1775.65
605.18	1768.56
605.53	1760.43
605.87	1752.48
606.22	1745.19
606.57	1737.20
606.92	1730.07
607.27	1722.76
607.62	1715.92
607.96	1708.61
608.31	1701.96
608.66	1694.20
609.01	1686.75
609.36	1679.18
609.70	1671.06
610.05	1662.97
610.40	1655.22
610.75	1646.87
611.10	1639.29
611.44	1630.95
611.79	1623.01
612.14	1614.41
612.49	1605.36
612.83	1597.01
613.18	1588.86
613.53	1580.78
613.88	1572.35
614.22	1564.00
614.57	1555.65
614.92	1547.62
615.27	1540.19
615.61	1531.90
615.96	1524.03
616.31	1516.36
616.65	1509.14
617.00	1501.64
617.35	1494.06
617.70	1485.66
618.04	1477.12
618.39	1468.95
618.74	1461.40
619.08	1453.19
619.43	1445.67
619.78	1438.75
620.12	1431.70
620.47	1424.12
620.82	1416.00
621.16	1408.63
621.51	1401.02
621.85	1393.41
622.20	1384.94
622.55	1376.53
622.89	1368.76
623.24	1361.18
623.59	1353.83
623.93	1346.20
624.28	1339.02
624.62	1331.43
624.97	1324.32
625.32	1317.69
625.66	1310.76
626.01	1303.52
626.35	1296.02
626.70	1288.30
627.04	1280.64
627.39	1273.01
627.73	1265.63
628.08	1258.79
628.43	1251.49
628.77	1244.07
629.12	1236.46
629.46	1229.27
629.81	1222.00
630.15	1214.80
630.50	1207.36
630.84	1199.25
631.19	1191.38
631.53	1183.90
631.88	1176.52
632.22	1169.03
632.57	1161.79
632.91	1154.24
633.26	1146.87
633.60	1139.67
633.95	1132.79
634.29	1125.90
634.64	1119.10
634.98	1111.89
635.32	1104.76
635.67	1098.27
636.01	1091.75
636.36	1085.07
636.70	1078.67
637.05	1072.01
637.39	1065.63
637.73	1059.13
638.08	1053.27
638.42	1047.42
638.77	1041.01
639.11	1034.32
639.45	1027.97
639.80	1021.32
640.14	1014.94
640.49	1008.45
640.83	1002.13
641.17	995.79
641.52	989.39
641.86	983.06
642.20	977.16
642.55	970.86
642.89	964.28
643.23	957.75
643.58	951.97
643.92	945.82
644.26	939.88
644.61	933.91
644.95	927.91
645.29	921.38
645.64	914.67
645.98	908.41
646.32	902.74
646.66	896.76
647.01	890.92
647.35	885.31
647.69	879.55
648.04	874.05
648.38	868.29
648.72	862.26
649.06	856.22
649.41	850.45
649.75	844.52
650.09	838.65
650.43	832.93
650.78	826.75
651.12	820.75
651.46	815.00
651.80	809.22
652.14	803.86
652.49	798.42
652.83	793.20
653.17	787.52
653.51	781.72
653.85	776.26
654.20	770.70
654.54	764.68
654.88	758.99
655.22	753.12
655.56	747.44
655.90	742.09
656.25	736.81
656.59	731.38
656.93	726.34
657.27	721.17
657.61	715.74
657.95	710.71
658.29	705.66
658.64	700.55
658.98	695.30
659.32	689.92
659.66	684.81
660.00	679.54
660.34	674.60
660.68	669.81
661.02	664.90
661.36	660.24
661.70	655.72
662.05	651.45
662.39	647.16
662.73	642.70
663.07	638.28
663.41	633.87
663.75	629.44
664.09	624.87
664.43	620.54
664.77	616.42
665.11	612.17
665.45	608.06
665.79	603.96
666.13	599.89
666.47	595.83
666.81	591.72
667.15	587.63
667.49	583.80
667.83	579.97
668.17	576.03
668.51	572.04
668.85	568.10
669.19	564.10
669.53	560.30
669.87	556.47
670.21	552.92
670.55	549.31
670.89	545.91
671.23	542.55
671.57	539.11
671.91	535.59
672.25	532.22
672.58	528.79
672.92	525.43
673.26	522.29
673.60	519.18
673.94	516.10
674.28	513.26
674.62	510.35
674.96	507.25
675.30	504.36
675.64	501.43
675.97	498.67
676.31	495.90
676.65	492.97
676.99	490.26
677.33	487.36
677.67	484.62
678.01	481.60
678.34	478.61
678.68	475.75
679.02	472.94
679.36	470.15
679.70	467.45
680.04	464.64
680.37	461.72
680.71	458.92
681.05	456.27
681.39	453.56
681.73	450.88
682.06	448.36
682.40	445.82
682.74	443.31
683.08	440.78
683.42	438.22
683.75	435.74
684.09	433.26
684.43	430.82
684.77	428.38
685.10	426.09
685.44	423.82
685.78	421.54
686.12	419.36
686.45	417.11
686.79	414.79
687.13	412.64
687.46	410.54
687.80	408.37
688.14	406.23
688.48	404.22
688.81	402.00
689.15	399.90
689.49	397.77
689.82	395.67
690.16	393.58
690.50	391.68
690.83	389.80
691.17	387.76
691.51	385.85
691.84	383.98
692.18	382.03
692.52	380.05
692.85	378.15
693.19	376.30
693.52	374.48
693.86	372.69
694.20	370.93
694.53	369.12
694.87	367.33
695.21	365.55
695.54	363.70
695.88	361.99
696.21	360.26
696.55	358.63
696.88	356.96
697.22	355.36
697.56	353.72
697.89	352.05
698.23	350.50
698.56	348.87
698.90	347.25
699.23	345.63
699.57	344.08
699.90	342.53
700.24	340.98
700.58	339.46
700.91	337.99
701.25	336.58
701.58	335.27
701.92	333.93
702.25	332.57
702.59	331.25
702.92	329.93
703.26	328.69
703.59	327.37
703.93	326.20
704.26	324.97
704.60	323.66
704.93	322.42
705.26	321.21
705.60	320.12
705.93	319.01
706.27	317.98
706.60	316.96
706.94	315.91
707.27	314.80
707.61	313.75
707.94	312.74
708.27	311.63
708.61	310.55
708.94	309.53
709.28	308.55
709.61	307.64
709.94	306.68
710.28	305.62
710.61	304.68
710.95	303.61
711.28	302.71
711.61	301.81
711.95	300.89
712.28	299.90
712.61	298.90
712.95	297.94
713.28	297.11
713.61	296.21
713.95	295.30
714.28	294.46
714.61	293.62
714.95	292.76
715.28	291.90
715.61	291.01
715.95	290.19
716.28	289.33
716.61	288.43
716.95	287.64
717.28	286.93
717.61	286.14
717.94	285.47
718.28	284.64
718.61	283.89
718.94	283.19
719.27	282.56
719.61	281.92
719.94	281.30
720.27	280.58
720.60	279.93
720.94	279.35
721.27	278.76
721.60	278.18
721.93	277.58
722.27	277.03
722.60	276.48
722.93	275.89
723.26	275.38
723.59	274.81
723.93	274.28
724.26	273.69
724.59	273.20
724.92	272.62
725.25	272.16
725.59	271.69
725.92	271.16
726.25	270.63
726.58	270.15
726.91	269.64
727.24	269.17
727.57	268.70
727.91	268.21
728.24	267.68
728.57	267.20
728.90	266.73
729.23	266.24
729.56	265.83
729.89	265.38
730.22	264.87
730.55	264.43
730.89	263.97
731.22	263.56
731.55	263.12
731.88	262.70
732.21	262.25
732.54	261.79
732.87	261.38
733.20	261.05
733.53	260.68
733.86	260.35
734.19	259.97
734.52	259.59
734.85	259.27
735.18	258.88
735.51	258.52
735.84	258.19
736.17	257.87
736.50	257.46
736.83	257.20
737.16	256.88
737.49	256.56
737.82	256.22
738.15	255.90
738.48	255.55
738.81	255.25
739.14	254.94
739.47	254.62
739.80	254.30
740.13	253.96
740.46	253.57
740.79	253.23
741.12	252.90
741.45	252.58
741.78	252.21
742.11	251.94
742.44	251.62
742.77	251.35
743.10	251.01
743.43	250.69
743.75	250.32
744.08	250.15
744.41	249.88
744.74	249.60
745.07	249.31
745.40	249.06
745.73	248.81
746.06	248.53
746.39	248.29
746.71	248.02
747.04	247.70
747.37	247.47
747.70	247.21
748.03	246.93
748.36	246.74
748.68	246.51
749.01	246.26
749.34	246.05
749.67	245.79
750.00	245.57
750.33	245.43
750.65	245.23
750.98	244.93
751.31	244.73
751.64	244.55
751.97	244.40
752.29	244.23
752.62	243.97
752.95	243.76
753.28	243.55
753.60	243.35
753.93	243.25
754.26	243.11
754.59	242.89
754.91	242.71
755.24	242.50
755.57	242.33
755.90	242.14
756.22	241.93
756.55	241.76
756.88	241.58
757.20	241.37
757.53	241.20
757.86	241.03
758.19	240.87
758.51	240.65
758.84	240.44
759.17	240.22
759.49	240.10
759.82	240.00
760.15	239.85
760.47	239.71
760.80	239.51
761.13	239.37
761.45	239.21
761.78	239.07
762.11	238.94
762.43	238.78
762.76	238.66
763.08	238.54
763.41	238.39
763.74	238.27
764.06	238.12
764.39	237.96
764.71	237.81
765.04	237.66
765.37	237.58
765.69	237.45
766.02	237.33
766.34	237.18
766.67	237.01
767.00	236.90
767.32	236.81
767.65	236.77
767.97	236.61
768.30	236.52
768.62	236.42
768.95	236.28
769.27	236.18
769.60	236.09
769.92	235.96
770.25	235.86
770.57	235.72
770.90	235.63
771.22	235.50
771.55	235.41
771.87	235.33
772.20	235.20
772.52	235.17
772.85	235.16
773.17	235.06
773.50	234.96
773.82	234.85
774.15	234.70
774.47	234.55
774.80	234.45
775.12	234.36
775.45	234.28
775.77	234.21
776.09	234.14
776.42	234.05
776.74	233.99
777.07	233.90
777.39	233.83
777.72	233.74
778.04	233.70
778.36	233.61
778.69	233.56
779.01	233.52
779.33	233.37
779.66	233.21
779.98	233.13
780.31	233.11
780.63	233.09
780.95	233.07
781.28	233.01
781.60	232.96
781.92	232.89
782.25	232.83
782.57	232.77
782.89	232.67
783.22	232.61
783.54	232.52
783.86	232.46
784.19	232.39
784.51	232.37
784.83	232.28
785.16	232.24
785.48	232.14
785.80	232.10
786.12	232.10
786.45	232.06
786.77	232.03
787.09	231.95
787.42	231.87
787.74	231.84
788.06	231.83
788.38	231.77
788.71	231.74
789.03	231.70
789.35	231.68
789.67	231.67
789.99	231.64
790.32	231.58
790.64	231.55
790.96	231.60
791.28	231.55
791.61	231.52
791.93	231.47
792.25	231.44
792.57	231.46
792.89	231.38
793.21	231.34
793.54	231.31
793.86	231.24
794.18	231.18
794.50	231.12
794.82	231.08
795.14	231.09
795.47	231.05
795.79	230.99
796.11	230.93
796.43	230.90
796.75	230.87
797.07	230.86
797.39	230.89
797.71	230.79
798.04	230.77
798.36	230.76
798.68	230.75
799.00	230.72
799.32	230.64
799.64	230.63
799.96	230.63
800.28	230.62
800.60	230.62
800.92	230.63
801.24	230.57
801.56	230.52
801.89	230.45
802.21	230.42
802.53	230.40
802.85	230.39
803.17	230.39
803.49	230.37
803.81	230.35
804.13	230.24
804.45	230.21
804.77	230.21
805.09	230.18
805.41	230.11
805.73	230.09
806.05	230.04
806.37	230.00
806.69	229.93
807.01	229.89
807.33	229.86
807.65	229.80
807.97	229.84
808.28	229.80
808.60	229.78
808.92	229.75
809.24	229.76
809.56	229.70
809.88	229.64
810.20	229.59
810.52	229.59
810.84	229.57
811.16	229.54
811.48	229.48
811.80	229.46
812.12	229.46
812.43	229.43
812.75	229.41
813.07	229.35
813.39	229.34
813.71	229.31
814.03	229.26
814.35	229.22
814.67	229.15
814.98	229.09
815.30	229.08
815.62	229.05
815.94	228.95
816.26	228.98
816.58	228.95
816.89	228.94
817.21	228.87
817.53	228.84
817.85	228.82
818.17	228.81
818.48	228.76
818.80	228.77
819.12	228.72
819.44	228.66
819.76	228.65
820.07	228.64
820.39	228.60
820.71	228.60
821.03	228.60
821.34	228.56
821.66	228.58
821.98	228.55
822.30	228.51
822.61	228.56
822.93	228.48
823.25	228.46
823.57	228.41
823.88	228.46
824.20	228.43
824.52	228.41
824.83	228.36
825.15	228.36
825.47	228.30
825.79	228.30
826.10	228.31
826.42	228.31
826.74	228.30
827.05	228.32
827.37	228.33
827.69	228.28
828.00	228.32
828.32	228.32
828.64	228.32
828.95	228.39
829.27	228.34
829.58	228.35
829.90	228.36
830.22	228.36
830.53	228.33
830.85	228.35
831.17	228.37
831.48	228.38
831.80	228.35
832.11	228.38
832.43	228.37
832.75	228.34
833.06	228.39
833.38	228.39
833.69	228.36
834.01	228.34
834.32	228.34
834.64	228.27
834.96	228.24
835.27	228.24
835.59	228.23
835.90	228.23
836.22	228.22
836.53	228.20
836.85	228.20
837.16	228.27
837.48	228.25
837.79	228.24
838.11	228.27
838.42	228.27
838.74	228.26
839.05	228.25
839.37	228.25
839.68	228.19
840.00	228.17
840.31	228.21
840.63	228.20
840.94	228.22
841.26	228.23
841.57	228.22
841.88	228.21
842.20	228.17
842.51	228.17
842.83	228.15
843.14	228.26
843.46	228.25
843.77	228.15
844.08	228.14
844.40	228.12
844.71	228.08
845.03	228.06
845.34	228.04
845.65	228.06
845.97	228.05
846.28	228.08
846.60	228.10
846.91	228.05
847.22	228.02
847.54	228.02
847.85	228.02
848.16	228.02
848.48	228.00
848.79	228.02
849.10	228.01
849.42	228.01
849.73	227.90
850.04	227.87
850.36	227.86
850.67	227.87
850.98	227.85
851.30	227.83
851.61	227.83
851.92	227.83
852.23	227.83
852.55	227.83
852.86	227.79
853.17	227.74
853.49	227.70
853.80	227.74
854.11	227.72
854.42	227.71
854.74	227.68
855.05	227.68
855.36	227.63
855.67	227.62
855.99	227.60
856.30	227.68
856.61	227.69
856.92	227.67
857.23	227.66
857.55	227.68
857.86	227.68
858.17	227.68
858.48	227.67
858.79	227.63
859.11	227.64
859.42	227.62
859.73	227.61
860.04	227.62
860.35	227.57
860.66	227.54
860.98	227.52
861.29	227.54
861.60	227.52
861.91	227.54
862.22	227.52
862.53	227.51
862.84	227.39
863.16	227.42
863.47	227.41
863.78	227.41
864.09	227.37
864.40	227.35
864.71	227.34
865.02	227.35
865.33	227.35
865.64	227.33
865.95	227.33
866.27	227.41
866.58	227.41
866.89	227.42
867.20	227.47
867.51	227.47
867.82	227.49
868.13	227.52
868.44	227.51
868.75	227.55
869.06	227.59
869.37	227.62
869.68	227.57
869.99	227.57
870.30	227.55
870.61	227.58
870.92	227.59
871.23	227.59
871.54	227.60
871.85	227.66
872.16	227.65
872.47	227.66
872.78	227.59
873.09	227.63
873.40	227.63
873.71	227.62
874.02	227.60
874.33	227.57
874.64	227.55
874.95	227.55
875.26	227.56
875.56	227.55
875.87	227.50
876.18	227.49
876.49	227.62
876.80	227.65
877.11	227.63
877.42	227.64
877.73	227.65
878.04	227.62
878.35	227.61
878.66	227.63
878.96	227.62
879.27	227.60
879.58	227.57
879.89	227.56
880.20	227.61
880.51	227.62
880.82	227.62
881.12	227.64
881.43	227.62
881.74	227.57
882.05	227.58
882.36	227.61
882.67	227.63
882.97	227.51
883.28	227.51
883.59	227.52
883.90	227.54
884.21	227.54
884.51	227.54
884.82	227.51
885.13	227.47
885.44	227.49
885.74	227.52
886.05	227.53
886.36	227.53
886.67	227.45
886.98	227.47
887.28	227.49
887.59	227.48
887.90	227.48
888.20	227.47
888.51	227.46
888.82	227.46
889.13	227.44
889.43	227.50
889.74	227.49
890.05	227.47
890.35	227.44
890.66	227.42
890.97	227.40
891.28	227.39
891.58	227.39
891.89	227.37
892.20	227.34
892.50	227.30
892.81	227.27
893.12	227.31
893.42	227.27
893.73	227.25
894.04	227.23
894.34	227.19
894.65	227.22
894.95	227.21
895.26	227.20
895.57	227.26
895.87	227.16
896.18	227.16
896.48	227.15
896.79	227.14
897.10	227.13
897.40	227.14
897.71	227.14
898.01	227.15
898.32	227.15
898.63	227.19
898.93	227.23
899.24	227.23
899.54	227.23
899.85	227.23
900.15	227.24
900.46	227.26
900.76	227.29
901.07	227.27
901.38	227.26
901.68	227.28
901.99	227.22
902.29	227.23
902.60	227.19
902.90	227.20
903.21	227.19
903.51	227.21
903.82	227.24
904.12	227.22
904.43	227.24
904.73	227.22
905.03	227.21
905.34	227.27
905.64	227.28
905.95	227.27
906.25	227.28
906.56	227.28
906.86	227.27
907.17	227.26
907.47	227.26
907.77	227.26
908.08	227.24
908.38	227.25
908.69	227.29
908.99	227.34
909.30	227.36
909.60	227.38
909.90	227.37
910.21	227.34
910.51	227.37
910.81	227.36
911.12	227.41
911.42	227.39
911.73	227.30
912.03	227.32
912.33	227.33
912.64	227.35
912.94	227.34
913.24	227.35
913.55	227.37
913.85	227.35
914.15	227.37
914.46	227.41
914.76	227.42
915.06	227.41
915.37	227.39
915.67	227.38
915.97	227.39
916.27	227.37
916.58	227.41
916.88	227.42
917.18	227.43
917.49	227.47
917.79	227.50
918.09	227.51
918.39	227.53
918.70	227.55
919.00	227.57
919.30	227.63
919.60	227.62
919.91	227.62
920.21	227.63
920.51	227.61
920.81	227.56
921.12	227.58
921.42	227.58
921.72	227.59
922.02	227.61
922.32	227.63
922.63	227.64
922.93	227.66
923.23	227.63
923.53	227.60
923.83	227.55
924.13	227.55
924.44	227.55
924.74	227.55
925.04	227.53
925.34	227.51
925.64	227.43
925.94	227.39
926.24	227.45
926.55	227.43
926.85	227.41
927.15	227.43
927.45	227.41
927.75	227.40
928.05	227.41
928.35	227.39
928.65	227.37
928.95	227.36
929.26	227.30
929.56	227.29
929.86	227.28
930.16	227.25
930.46	227.23
930.76	227.23
931.06	227.18
931.36	227.16
931.66	227.15
931.96	227.14
932.26	227.15
932.56	227.10
932.86	227.10
933.16	227.11
933.46	227.10
933.76	227.07
934.06	227.08
934.36	227.09
934.66	227.07
934.96	227.06
935.26	227.07
935.56	227.09
935.86	227.08
936.16	227.10
936.46	227.10
936.76	227.08
937.06	227.03
937.36	227.05
937.66	227.05
937.96	227.03
938.26	227.04
938.56	227.04
938.86	227.02
939.16	227.03
939.46	227.03
939.76	227.04
940.06	227.02
940.35	227.00
940.65	226.97
940.95	226.98
941.25	226.97
941.55	226.94
941.85	226.93
942.15	226.96
942.45	226.97
942.75	226.98
943.04	226.99
943.34	227.02
943.64	227.01
943.94	227.01
944.24	227.01
944.54	227.02
944.84	227.03
945.13	227.04
945.43	227.04
945.73	227.06
946.03	227.08
946.33	227.09
946.62	227.12
946.92	227.11
947.22	227.14
947.52	227.16
947.82	227.19
948.11	227.19
948.41	227.20
948.71	227.17
949.01	227.18
949.31	227.19
949.60	227.21
949.90	227.24
950.20	227.24
950.50	227.25
950.79	227.25
951.09	227.27
951.39	227.27
951.69	227.26
951.98	227.29
952.28	227.28
952.58	227.28
952.87	227.25
953.17	227.29
953.47	227.27
953.76	227.26
954.06	227.24
954.36	227.23
954.66	227.19
954.95	227.24
955.25	227.20
955.55	227.22
955.84	227.19
956.14	227.20
956.44	227.19
956.73	227.19
957.03	227.21
957.32	227.21
957.62	227.19
957.92	227.20
958.21	227.17
958.51	227.25
958.81	227.28
959.10	227.32
959.40	227.30
959.69	227.30
959.99	227.31
960.29	227.34
960.58	227.32
960.88	227.39
961.17	227.39
961.47	227.40
961.76	227.38
962.06	227.40
962.36	227.39
962.65	227.39
962.95	227.39
963.24	227.37
963.54	227.38
963.83	227.39
964.13	227.39
964.42	227.36
964.72	227.31
965.01	227.29
965.31	227.27
965.60	227.25
965.90	227.29
966.19	227.27
966.49	227.24
966.78	227.23
967.08	227.22
967.37	227.19
967.67	227.22
967.96	227.23
968.26	227.22
968.55	227.23
968.85	227.24
969.14	227.26
969.43	227.25
969.73	227.22
970.02	227.22
970.32	227.21
970.61	227.24
970.91	227.20
971.20	227.19
971.49	227.16
971.79	227.16
972.08	227.08
972.38	227.08
972.67	227.10
972.96	227.11
973.26	227.10
973.55	227.13
973.85	227.10
974.14	227.09
974.43	227.08
974.73	227.06
975.02	227.04
975.31	227.04
975.61	227.05
975.90	227.04
976.19	227.04
976.49	227.02
976.78	227.03
977.07	227.05
977.37	227.08
977.66	227.11
977.95	227.10
978.24	227.10
978.54	227.13
978.83	227.13
979.12	227.13
979.42	227.12
979.71	227.08
980.00	227.07
980.29	227.08
980.59	227.08
980.88	227.10
981.17	227.09
981.46	227.09
981.76	227.09
982.05	227.13
982.34	227.14
982.63	227.15
982.93	227.12
983.22	227.14
983.51	227.12
983.80	227.12
984.09	227.14
984.39	227.14
984.68	227.11
984.97	227.12
985.26	227.09
985.55	227.09
985.85	227.13
986.14	227.16
986.43	227.15
986.72	227.15
987.01	227.15
987.30	227.13
987.59	227.14
987.89	227.16
988.18	227.12
988.47	227.13
988.76	227.12
989.05	227.12
989.34	227.10
989.63	227.13
989.92	227.13
990.22	227.16
990.51	227.16
990.80	227.18
991.09	227.18
991.38	227.23
991.67	227.21
991.96	227.16
992.25	227.15
992.54	227.13
992.83	227.12
993.12	227.11
993.41	227.15
993.70	227.18
993.99	227.18
994.28	227.20
994.58	227.21
994.87	227.18
995.16	227.19
995.45	227.17
995.74	227.14
996.03	227.17
996.32	227.15
996.61	227.18
996.90	227.15
997.19	227.15
997.48	227.14
997.77	227.14
998.06	227.17
998.34	227.18
998.63	227.19
998.92	227.21
999.21	227.22
999.50	227.18
999.79	227.13
1000.08	227.15
1000.37	227.13
1000.66	227.12
1000.95	227.19
1001.24	227.20
1001.53	227.21
1001.82	227.20
1002.11	227.18
1002.40	227.21
1002.68	227.25
1002.97	227.35
1003.26	227.34
1003.55	227.31
1003.84	227.32
1004.13	227.30
1004.42	227.27
1004.71	227.25
1004.99	227.22
1005.28	227.25
1005.57	227.26
1005.86	227.26
1006.15	227.23
1006.44	227.23
1006.72	227.23
1007.01	227.19
1007.30	227.16
1007.59	227.16
1007.88	227.15
1008.17	227.13
1008.45	227.10
1008.74	227.04
1009.03	226.97
1009.32	226.96
1009.60	226.98
1009.89	226.95
1010.18	226.95
1010.47	226.94
1010.76	226.97
1011.04	226.96
1011.33	226.95
1011.62	226.94
1011.91	226.94
1012.19	226.92
1012.48	226.90
1012.77	226.89
1013.05	226.91
1013.34	226.96
1013.63	226.94
1013.92	226.98
1014.20	226.98
1014.49	226.95
1014.78	226.98
1015.06	226.93
1015.35	226.91
1015.64	226.92
1015.92	226.97
1016.21	226.94
1016.50	226.95
1016.78	226.91
1017.07	226.92
1017.36	226.91
1017.64	226.90
1017.93	226.86
1018.22	226.87
1018.50	226.89
1018.79	226.93
1019.08	226.89
1019.36	226.85
1019.65	226.84
1019.93	226.82
1020.22	226.80
1020.51	226.88
1020.79	226.81
1021.08	226.87
1021.36	227.08
1021.65	227.35
1021.94	226.68
1022.22	226.85
1022.51	226.67
1022.79	227.05
1023.08	226.51
1023.36	228.20
1023.65	225.98
>>>>>End Processed Spectral Data<<<<<
