SpectraSuite Data File
++++++++++++++++++++++++++++++++++++
Date: Fri Feb 01 15:10:25 EST 2013
User: group
Dark Spectrum Present: No
Reference Spectrum Present: No
Number of Sampled Component Spectra: 1
Spectrometers: USB2E7196
Integration Time (usec): 35000 (USB2E7196)
Spectra Averaged: 100 (USB2E7196)
Boxcar Smoothing: 10 (USB2E7196)
Correct for Electrical Dark: No (USB2E7196)
Strobe/Lamp Enabled: No (USB2E7196)
Correct for Detector Non-linearity: No (USB2E7196)
Correct for Stray Light: No (USB2E7196)
Number of Pixels in Processed Spectrum: 2048
>>>>>Begin Processed Spectral Data<<<<<
339.09	0.00
339.48	215.67
339.86	216.87
340.24	217.61
340.63	219.74
341.01	222.22
341.39	222.19
341.78	223.02
342.16	224.74
342.54	225.16
342.93	213.51
343.31	224.33
343.69	224.86
344.07	225.31
344.46	225.76
344.84	226.12
345.22	226.37
345.60	226.64
345.99	226.83
346.37	226.97
346.75	227.05
347.13	227.10
347.52	227.15
347.90	227.20
348.28	227.20
348.66	227.22
349.05	227.25
349.43	227.27
349.81	227.29
350.19	227.33
350.57	227.34
350.96	227.44
351.34	227.48
351.72	227.53
352.10	227.63
352.48	227.70
352.87	227.79
353.25	227.86
353.63	227.91
354.01	227.98
354.39	228.05
354.77	228.13
355.15	228.25
355.54	228.35
355.92	228.40
356.30	228.49
356.68	228.65
357.06	228.74
357.44	228.80
357.82	228.90
358.20	229.00
358.58	229.08
358.97	229.14
359.35	229.25
359.73	229.36
360.11	229.39
360.49	229.44
360.87	229.48
361.25	229.51
361.63	229.58
362.01	229.66
362.39	229.68
362.77	229.72
363.15	229.72
363.53	229.71
363.91	229.73
364.29	229.78
364.67	229.67
365.05	229.65
365.43	229.68
365.81	229.70
366.19	229.70
366.57	229.76
366.95	229.74
367.33	229.68
367.71	229.65
368.09	229.66
368.47	229.67
368.85	229.63
369.23	229.62
369.61	229.56
369.99	229.54
370.37	229.52
370.75	229.54
371.13	229.52
371.51	229.48
371.89	229.44
372.27	229.41
372.65	229.39
373.03	229.34
373.41	229.29
373.78	229.20
374.16	229.10
374.54	229.01
374.92	228.94
375.30	228.87
375.68	228.77
376.06	228.70
376.44	228.58
376.82	228.52
377.19	228.42
377.57	228.32
377.95	228.23
378.33	228.16
378.71	228.03
379.09	227.95
379.47	227.89
379.84	227.81
380.22	227.71
380.60	227.62
380.98	227.55
381.36	227.44
381.73	227.36
382.11	227.30
382.49	227.19
382.87	227.12
383.25	227.06
383.62	227.11
384.00	227.05
384.38	227.01
384.76	226.97
385.13	226.97
385.51	226.91
385.89	226.86
386.27	226.81
386.64	226.75
387.02	226.69
387.40	226.63
387.78	226.59
388.15	226.55
388.53	226.50
388.91	226.47
389.29	226.48
389.66	226.47
390.04	226.45
390.42	226.45
390.79	226.44
391.17	226.42
391.55	226.29
391.92	226.25
392.30	226.26
392.68	226.21
393.05	226.22
393.43	226.24
393.81	226.24
394.18	226.22
394.56	226.24
394.94	226.29
395.31	226.30
395.69	226.35
396.06	226.39
396.44	226.42
396.82	226.43
397.19	226.52
397.57	226.56
397.95	226.63
398.32	226.68
398.70	226.75
399.07	226.84
399.45	226.93
399.82	226.99
400.20	227.08
400.58	227.17
400.95	227.19
401.33	227.29
401.70	227.42
402.08	227.53
402.45	227.62
402.83	227.74
403.20	227.84
403.58	227.96
403.95	228.10
404.33	228.24
404.71	228.40
405.08	228.56
405.46	228.71
405.83	228.85
406.21	229.01
406.58	229.19
406.96	229.35
407.33	229.53
407.70	229.77
408.08	230.03
408.45	230.27
408.83	230.51
409.20	230.72
409.58	230.94
409.95	231.21
410.33	231.54
410.70	231.83
411.08	232.18
411.45	232.47
411.82	232.79
412.20	233.17
412.57	233.59
412.95	233.93
413.32	234.33
413.69	234.75
414.07	235.19
414.44	235.64
414.82	236.14
415.19	236.72
415.56	237.27
415.94	237.81
416.31	238.47
416.68	239.14
417.06	239.89
417.43	240.59
417.81	241.36
418.18	242.12
418.55	242.98
418.93	243.87
419.30	244.77
419.67	245.72
420.04	246.68
420.42	247.67
420.79	248.81
421.16	249.99
421.54	251.21
421.91	252.43
422.28	253.66
422.66	254.98
423.03	256.28
423.40	257.63
423.77	259.03
424.15	260.45
424.52	261.90
424.89	263.48
425.26	265.03
425.64	266.47
426.01	268.03
426.38	269.67
426.75	271.31
427.13	273.06
427.50	274.89
427.87	276.77
428.24	278.64
428.61	280.40
428.99	282.31
429.36	284.40
429.73	286.48
430.10	288.51
430.47	290.57
430.85	292.68
431.22	294.91
431.59	297.29
431.96	299.54
432.33	302.05
432.70	304.42
433.08	307.22
433.45	309.90
433.82	312.53
434.19	315.44
434.56	318.24
434.93	320.89
435.30	323.47
435.68	326.31
436.05	329.14
436.42	331.96
436.79	334.49
437.16	337.16
437.53	339.96
437.90	342.82
438.27	345.58
438.64	348.40
439.01	350.99
439.38	353.27
439.75	355.42
440.13	357.93
440.50	360.26
440.87	362.14
441.24	364.08
441.61	366.19
441.98	367.61
442.35	369.43
442.72	371.27
443.09	373.10
443.46	374.13
443.83	374.68
444.20	375.18
444.57	375.99
444.94	376.26
445.31	376.65
445.68	376.95
446.05	377.05
446.42	376.67
446.79	376.24
447.16	375.77
447.53	375.42
447.90	374.20
448.27	373.06
448.64	371.43
449.01	370.26
449.37	368.33
449.74	366.48
450.11	364.23
450.48	361.78
450.85	359.25
451.22	357.09
451.59	355.10
451.96	353.13
452.33	350.57
452.70	348.24
453.07	345.36
453.43	342.45
453.80	339.66
454.17	336.98
454.54	334.42
454.91	331.69
455.28	329.05
455.65	326.60
456.02	324.15
456.38	322.00
456.75	319.30
457.12	317.05
457.49	314.78
457.86	312.56
458.23	310.67
458.59	308.69
458.96	306.59
459.33	304.71
459.70	302.85
460.07	301.32
460.43	299.64
460.80	298.03
461.17	296.62
461.54	295.13
461.91	293.74
462.27	292.30
462.64	291.04
463.01	289.68
463.38	288.37
463.74	286.99
464.11	285.83
464.48	284.86
464.85	283.76
465.21	282.92
465.58	282.01
465.95	280.95
466.32	279.94
466.68	279.02
467.05	278.12
467.42	277.24
467.78	276.31
468.15	275.40
468.52	274.75
468.88	273.92
469.25	273.14
469.62	272.51
469.98	271.86
470.35	271.25
470.72	270.62
471.08	269.97
471.45	269.45
471.82	268.90
472.18	268.30
472.55	267.86
472.92	267.31
473.28	266.90
473.65	266.43
474.02	266.03
474.38	265.65
474.75	265.34
475.11	264.96
475.48	264.69
475.85	264.44
476.21	264.19
476.58	263.96
476.94	263.81
477.31	263.63
477.67	263.47
478.04	263.33
478.41	263.28
478.77	263.32
479.14	263.21
479.50	263.22
479.87	263.25
480.23	263.34
480.60	263.41
480.96	263.44
481.33	263.65
481.69	263.83
482.06	263.99
482.42	264.18
482.79	264.45
483.15	264.76
483.52	265.15
483.88	265.50
484.25	265.88
484.61	266.29
484.98	266.69
485.34	267.23
485.71	267.80
486.07	268.39
486.44	268.94
486.80	269.61
487.17	270.30
487.53	271.11
487.90	271.93
488.26	272.86
488.62	273.84
488.99	274.77
489.35	275.81
489.72	276.94
490.08	278.13
490.44	279.32
490.81	280.63
491.17	281.96
491.54	283.37
491.90	284.87
492.26	286.53
492.63	288.26
492.99	289.99
493.36	291.88
493.72	293.85
494.08	295.94
494.45	298.19
494.81	300.56
495.17	302.96
495.54	305.52
495.90	308.18
496.26	310.97
496.63	313.90
496.99	316.98
497.35	320.20
497.72	323.55
498.08	327.08
498.44	330.76
498.80	334.65
499.17	338.71
499.53	342.88
499.89	347.22
500.26	351.70
500.62	356.37
500.98	361.28
501.34	366.40
501.71	371.69
502.07	377.09
502.43	382.68
502.79	388.51
503.16	394.54
503.52	400.82
503.88	407.20
504.24	413.88
504.60	420.79
504.97	427.91
505.33	435.28
505.69	442.97
506.05	450.69
506.41	458.55
506.78	466.77
507.14	475.14
507.50	483.83
507.86	492.84
508.22	502.01
508.59	511.25
508.95	520.84
509.31	530.64
509.67	540.76
510.03	551.07
510.39	561.64
510.75	572.46
511.12	583.40
511.48	594.73
511.84	606.15
512.20	617.63
512.56	629.70
512.92	641.85
513.28	654.20
513.64	666.68
514.00	679.38
514.37	692.21
514.73	705.33
515.09	718.50
515.45	731.86
515.81	745.56
516.17	759.59
516.53	773.67
516.89	787.90
517.25	802.10
517.61	816.52
517.97	830.97
518.33	845.48
518.69	860.31
519.05	875.29
519.41	890.52
519.77	906.16
520.13	921.54
520.49	937.01
520.85	952.46
521.21	968.23
521.57	984.53
521.93	1000.45
522.29	1016.92
522.65	1033.14
523.01	1049.36
523.37	1065.35
523.73	1081.52
524.09	1097.70
524.45	1114.09
524.81	1130.75
525.17	1147.71
525.53	1164.68
525.89	1181.57
526.25	1198.40
526.61	1214.86
526.97	1231.71
527.33	1248.22
527.68	1264.88
528.04	1281.40
528.40	1298.10
528.76	1315.23
529.12	1331.96
529.48	1348.98
529.84	1365.03
530.20	1381.83
530.56	1399.02
530.91	1416.61
531.27	1433.51
531.63	1450.09
531.99	1466.71
532.35	1482.81
532.71	1498.73
533.07	1515.12
533.42	1531.19
533.78	1547.36
534.14	1563.66
534.50	1578.98
534.86	1594.92
535.21	1610.10
535.57	1626.17
535.93	1641.64
536.29	1656.51
536.65	1671.55
537.00	1686.41
537.36	1701.84
537.72	1716.37
538.08	1730.76
538.44	1744.55
538.79	1758.40
539.15	1772.18
539.51	1786.00
539.87	1800.44
540.22	1814.35
540.58	1828.15
540.94	1841.62
541.29	1854.64
541.65	1867.46
542.01	1880.71
542.37	1893.15
542.72	1905.85
543.08	1917.69
543.44	1930.27
543.79	1941.63
544.15	1952.60
544.51	1964.07
544.87	1975.05
545.22	1985.89
545.58	1996.10
545.94	2005.84
546.29	2015.90
546.65	2025.65
547.01	2034.99
547.36	2043.64
547.72	2052.00
548.07	2059.84
548.43	2067.85
548.79	2075.97
549.14	2083.45
549.50	2090.90
549.86	2098.50
550.21	2105.65
550.57	2112.85
550.92	2119.33
551.28	2126.46
551.64	2133.71
551.99	2140.24
552.35	2146.28
552.70	2152.34
553.06	2158.36
553.41	2164.77
553.77	2170.71
554.13	2176.82
554.48	2182.96
554.84	2188.43
555.19	2193.74
555.55	2198.71
555.90	2203.22
556.26	2207.89
556.61	2212.67
556.97	2216.80
557.32	2220.95
557.68	2225.17
558.03	2229.38
558.39	2233.17
558.74	2237.73
559.10	2241.52
559.45	2245.15
559.81	2249.53
560.16	2253.43
560.52	2256.62
560.87	2259.95
561.23	2262.46
561.58	2265.51
561.94	2267.93
562.29	2270.39
562.64	2273.05
563.00	2275.87
563.35	2279.35
563.71	2282.39
564.06	2285.55
564.42	2288.40
564.77	2290.83
565.12	2292.91
565.48	2294.66
565.83	2296.42
566.19	2297.59
566.54	2298.45
566.89	2299.54
567.25	2299.89
567.60	2301.17
567.96	2302.78
568.31	2303.48
568.66	2304.71
569.02	2305.08
569.37	2305.33
569.72	2306.01
570.08	2305.99
570.43	2305.78
570.78	2304.98
571.14	2303.44
571.49	2302.00
571.84	2301.58
572.20	2300.35
572.55	2299.27
572.90	2297.62
573.26	2296.03
573.61	2294.28
573.96	2292.43
574.31	2289.28
574.67	2286.37
575.02	2282.67
575.37	2279.23
575.72	2275.39
576.08	2271.80
576.43	2268.48
576.78	2264.66
577.13	2261.57
577.49	2258.61
577.84	2255.17
578.19	2251.36
578.54	2247.60
578.90	2243.18
579.25	2237.67
579.60	2232.56
579.95	2227.42
580.30	2222.31
580.66	2217.09
581.01	2212.15
581.36	2207.10
581.71	2202.91
582.06	2198.37
582.42	2193.69
582.77	2188.45
583.12	2183.75
583.47	2178.97
583.82	2173.76
584.17	2168.49
584.53	2162.80
584.88	2156.90
585.23	2150.87
585.58	2145.36
585.93	2139.78
586.28	2135.03
586.63	2129.77
586.98	2124.68
587.34	2119.94
587.69	2115.03
588.04	2109.64
588.39	2103.71
588.74	2097.11
589.09	2090.77
589.44	2083.73
589.79	2077.72
590.14	2071.87
590.49	2065.25
590.84	2058.77
591.19	2052.66
591.54	2046.09
591.89	2038.39
592.25	2031.53
592.60	2024.32
592.95	2016.56
593.30	2009.15
593.65	2001.50
594.00	1994.40
594.35	1987.10
594.70	1978.99
595.05	1971.57
595.40	1964.38
595.75	1956.85
596.10	1950.40
596.45	1943.47
596.80	1937.34
597.15	1930.33
597.50	1923.07
597.85	1916.57
598.19	1909.94
598.54	1902.76
598.89	1896.14
599.24	1890.29
599.59	1883.40
599.94	1877.17
600.29	1870.88
600.64	1864.16
600.99	1856.56
601.34	1849.70
601.69	1842.58
602.04	1835.45
602.39	1828.21
602.74	1821.32
603.08	1814.69
603.43	1808.18
603.78	1800.97
604.13	1793.62
604.48	1786.39
604.83	1779.61
605.18	1772.58
605.53	1764.41
605.87	1756.42
606.22	1749.10
606.57	1741.16
606.92	1734.03
607.27	1726.77
607.62	1719.79
607.96	1712.68
608.31	1706.05
608.66	1698.33
609.01	1690.83
609.36	1683.43
609.70	1675.39
610.05	1667.21
610.40	1659.32
610.75	1650.82
611.10	1643.22
611.44	1634.97
611.79	1627.00
612.14	1618.29
612.49	1609.27
612.83	1600.98
613.18	1592.87
613.53	1584.68
613.88	1576.19
614.22	1567.79
614.57	1559.21
614.92	1551.20
615.27	1543.54
615.61	1535.16
615.96	1527.11
616.31	1519.47
616.65	1512.10
617.00	1504.52
617.35	1496.89
617.70	1488.60
618.04	1480.23
618.39	1472.02
618.74	1464.48
619.08	1456.27
619.43	1448.60
619.78	1441.64
620.12	1434.44
620.47	1426.82
620.82	1418.81
621.16	1411.47
621.51	1403.95
621.85	1396.40
622.20	1387.89
622.55	1379.63
622.89	1371.93
623.24	1364.47
623.59	1357.06
623.93	1349.54
624.28	1342.26
624.62	1334.78
624.97	1327.62
625.32	1320.96
625.66	1313.97
626.01	1306.59
626.35	1299.15
626.70	1291.57
627.04	1283.80
627.39	1276.08
627.73	1268.75
628.08	1261.82
628.43	1254.38
628.77	1246.98
629.12	1239.36
629.46	1232.16
629.81	1224.70
630.15	1217.49
630.50	1210.13
630.84	1201.96
631.19	1194.16
631.53	1186.80
631.88	1179.13
632.22	1171.50
632.57	1164.10
632.91	1156.53
633.26	1149.33
633.60	1142.04
633.95	1135.00
634.29	1127.95
634.64	1121.27
634.98	1113.98
635.32	1106.79
635.67	1100.26
636.01	1093.66
636.36	1086.90
636.70	1080.49
637.05	1073.99
637.39	1067.67
637.73	1061.04
638.08	1055.28
638.42	1049.32
638.77	1042.86
639.11	1036.39
639.45	1030.13
639.80	1023.50
640.14	1017.08
640.49	1010.42
640.83	1004.12
641.17	997.85
641.52	991.62
641.86	985.29
642.20	979.50
642.55	973.33
642.89	966.90
643.23	960.29
643.58	954.58
643.92	948.34
644.26	942.24
644.61	936.19
644.95	930.28
645.29	923.63
645.64	916.88
645.98	910.52
646.32	904.76
646.66	898.73
647.01	892.99
647.35	887.41
647.69	881.72
648.04	876.27
648.38	870.51
648.72	864.54
649.06	858.38
649.41	852.48
649.75	846.41
650.09	840.48
650.43	834.78
650.78	828.63
651.12	822.75
651.46	817.03
651.80	811.14
652.14	805.72
652.49	800.47
652.83	795.32
653.17	789.65
653.51	783.85
653.85	778.41
654.20	772.75
654.54	766.70
654.88	760.96
655.22	755.04
655.56	749.36
655.90	743.85
656.25	738.68
656.59	733.36
656.93	728.24
657.27	723.08
657.61	717.64
657.95	712.47
658.29	707.34
658.64	702.11
658.98	696.96
659.32	691.51
659.66	686.23
660.00	680.84
660.34	675.92
660.68	671.07
661.02	666.07
661.36	661.38
661.70	656.87
662.05	652.54
662.39	648.19
662.73	643.79
663.07	639.49
663.41	635.00
663.75	630.49
664.09	626.07
664.43	621.73
664.77	617.64
665.11	613.44
665.45	609.37
665.79	605.35
666.13	601.23
666.47	597.16
666.81	593.01
667.15	588.98
667.49	585.19
667.83	581.35
668.17	577.40
668.51	573.35
668.85	569.35
669.19	565.50
669.53	561.68
669.87	557.79
670.21	554.02
670.55	550.42
670.89	546.99
671.23	543.50
671.57	540.04
671.91	536.50
672.25	533.04
672.58	529.45
672.92	526.05
673.26	522.85
673.60	519.73
673.94	516.62
674.28	513.69
674.62	510.67
674.96	507.59
675.30	504.74
675.64	501.87
675.97	499.15
676.31	496.29
676.65	493.35
676.99	490.63
677.33	487.83
677.67	485.00
678.01	481.99
678.34	479.01
678.68	476.09
679.02	473.30
679.36	470.57
679.70	467.91
680.04	465.09
680.37	462.20
680.71	459.42
681.05	456.82
681.39	454.10
681.73	451.50
682.06	448.99
682.40	446.41
682.74	443.86
683.08	441.30
683.42	438.72
683.75	436.29
684.09	433.76
684.43	431.34
684.77	428.90
685.10	426.54
685.44	424.27
685.78	422.01
686.12	419.77
686.45	417.49
686.79	415.21
687.13	413.10
687.46	411.01
687.80	408.90
688.14	406.71
688.48	404.72
688.81	402.43
689.15	400.30
689.49	398.22
689.82	396.18
690.16	394.12
690.50	392.23
690.83	390.25
691.17	388.32
691.51	386.41
691.84	384.60
692.18	382.71
692.52	380.74
692.85	378.85
693.19	377.03
693.52	375.22
693.86	373.47
694.20	371.67
694.53	369.87
694.87	367.99
695.21	366.26
695.54	364.44
695.88	362.76
696.21	361.03
696.55	359.38
696.88	357.69
697.22	356.06
697.56	354.40
697.89	352.71
698.23	351.09
698.56	349.50
698.90	347.87
699.23	346.22
699.57	344.68
699.90	343.12
700.24	341.55
700.58	340.00
700.91	338.47
701.25	337.03
701.58	335.65
701.92	334.35
702.25	332.91
702.59	331.52
702.92	330.17
703.26	328.90
703.59	327.60
703.93	326.42
704.26	325.16
704.60	323.89
704.93	322.64
705.26	321.40
705.60	320.23
705.93	319.06
706.27	318.02
706.60	316.98
706.94	315.92
707.27	314.78
707.61	313.72
707.94	312.71
708.27	311.62
708.61	310.60
708.94	309.60
709.28	308.66
709.61	307.74
709.94	306.79
710.28	305.73
710.61	304.77
710.95	303.70
711.28	302.79
711.61	301.80
711.95	300.93
712.28	300.00
712.61	299.04
712.95	298.13
713.28	297.27
713.61	296.40
713.95	295.50
714.28	294.71
714.61	293.86
714.95	293.02
715.28	292.16
715.61	291.27
715.95	290.38
716.28	289.51
716.61	288.68
716.95	287.86
717.28	287.17
717.61	286.37
717.94	285.62
718.28	284.83
718.61	284.14
718.94	283.46
719.27	282.81
719.61	282.14
719.94	281.49
720.27	280.76
720.60	280.08
720.94	279.48
721.27	278.90
721.60	278.33
721.93	277.71
722.27	277.15
722.60	276.58
722.93	276.02
723.26	275.48
723.59	274.90
723.93	274.37
724.26	273.82
724.59	273.31
724.92	272.81
725.25	272.29
725.59	271.78
725.92	271.28
726.25	270.73
726.58	270.29
726.91	269.79
727.24	269.35
727.57	268.90
727.91	268.39
728.24	267.89
728.57	267.39
728.90	267.01
729.23	266.55
729.56	266.13
729.89	265.65
730.22	265.17
730.55	264.74
730.89	264.28
731.22	263.85
731.55	263.39
731.88	262.96
732.21	262.54
732.54	262.11
732.87	261.66
733.20	261.32
733.53	260.94
733.86	260.59
734.19	260.21
734.52	259.85
734.85	259.57
735.18	259.16
735.51	258.84
735.84	258.40
736.17	258.06
736.50	257.71
736.83	257.49
737.16	257.15
737.49	256.82
737.82	256.51
738.15	256.14
738.48	255.82
738.81	255.51
739.14	255.22
739.47	254.88
739.80	254.57
740.13	254.26
740.46	253.91
740.79	253.57
741.12	253.24
741.45	252.90
741.78	252.50
742.11	252.22
742.44	251.89
742.77	251.61
743.10	251.31
743.43	250.99
743.75	250.57
744.08	250.43
744.41	250.15
744.74	249.83
745.07	249.56
745.40	249.31
745.73	249.07
746.06	248.77
746.39	248.50
746.71	248.23
747.04	247.88
747.37	247.61
747.70	247.37
748.03	247.10
748.36	246.85
748.68	246.62
749.01	246.36
749.34	246.13
749.67	245.87
750.00	245.63
750.33	245.46
750.65	245.27
750.98	244.94
751.31	244.71
751.64	244.48
751.97	244.31
752.29	244.05
752.62	243.81
752.95	243.59
753.28	243.37
753.60	243.15
753.93	243.02
754.26	242.85
754.59	242.61
754.91	242.40
755.24	242.21
755.57	242.04
755.90	241.86
756.22	241.67
756.55	241.50
756.88	241.30
757.20	241.07
757.53	240.86
757.86	240.68
758.19	240.56
758.51	240.40
758.84	240.17
759.17	240.01
759.49	239.85
759.82	239.74
760.15	239.61
760.47	239.48
760.80	239.31
761.13	239.16
761.45	238.99
761.78	238.86
762.11	238.75
762.43	238.57
762.76	238.44
763.08	238.32
763.41	238.21
763.74	238.09
764.06	237.94
764.39	237.82
764.71	237.69
765.04	237.59
765.37	237.49
765.69	237.37
766.02	237.27
766.34	237.15
766.67	237.01
767.00	236.92
767.32	236.86
767.65	236.82
767.97	236.72
768.30	236.65
768.62	236.53
768.95	236.38
769.27	236.29
769.60	236.20
769.92	236.07
770.25	235.95
770.57	235.86
770.90	235.77
771.22	235.68
771.55	235.59
771.87	235.43
772.20	235.35
772.52	235.33
772.85	235.34
773.17	235.20
773.50	235.09
773.82	235.00
774.15	234.84
774.47	234.72
774.80	234.60
775.12	234.53
775.45	234.47
775.77	234.40
776.09	234.31
776.42	234.22
776.74	234.18
777.07	234.07
777.39	233.99
777.72	233.91
778.04	233.83
778.36	233.70
778.69	233.64
779.01	233.58
779.33	233.42
779.66	233.23
779.98	233.20
780.31	233.12
780.63	233.09
780.95	233.08
781.28	232.99
781.60	232.95
781.92	232.84
782.25	232.78
782.57	232.68
782.89	232.60
783.22	232.50
783.54	232.42
783.86	232.38
784.19	232.27
784.51	232.21
784.83	232.13
785.16	232.11
785.48	232.05
785.80	232.00
786.12	231.97
786.45	231.91
786.77	231.84
787.09	231.76
787.42	231.61
787.74	231.54
788.06	231.49
788.38	231.44
788.71	231.42
789.03	231.36
789.35	231.36
789.67	231.34
789.99	231.33
790.32	231.29
790.64	231.25
790.96	231.31
791.28	231.25
791.61	231.24
791.93	231.20
792.25	231.17
792.57	231.17
792.89	231.09
793.21	231.08
793.54	231.04
793.86	231.02
794.18	231.04
794.50	230.99
794.82	230.95
795.14	230.93
795.47	230.90
795.79	230.85
796.11	230.80
796.43	230.75
796.75	230.70
797.07	230.67
797.39	230.64
797.71	230.53
798.04	230.55
798.36	230.51
798.68	230.48
799.00	230.46
799.32	230.39
799.64	230.43
799.96	230.38
800.28	230.38
800.60	230.36
800.92	230.34
801.24	230.28
801.56	230.26
801.89	230.24
802.21	230.22
802.53	230.18
802.85	230.21
803.17	230.22
803.49	230.21
803.81	230.18
804.13	230.17
804.45	230.17
804.77	230.14
805.09	230.08
805.41	230.06
805.73	230.04
806.05	230.01
806.37	229.97
806.69	229.97
807.01	229.95
807.33	229.93
807.65	229.88
807.97	229.94
808.28	229.93
808.60	229.88
808.92	229.85
809.24	229.91
809.56	229.85
809.88	229.77
810.20	229.75
810.52	229.75
810.84	229.71
811.16	229.64
811.48	229.61
811.80	229.69
812.12	229.67
812.43	229.64
812.75	229.59
813.07	229.57
813.39	229.58
813.71	229.53
814.03	229.50
814.35	229.46
814.67	229.39
814.98	229.32
815.30	229.31
815.62	229.28
815.94	229.14
816.26	229.18
816.58	229.14
816.89	229.12
817.21	229.05
817.53	229.04
817.85	229.03
818.17	228.98
818.48	228.88
818.80	228.88
819.12	228.84
819.44	228.83
819.76	228.79
820.07	228.73
820.39	228.70
820.71	228.70
821.03	228.69
821.34	228.66
821.66	228.70
821.98	228.68
822.30	228.64
822.61	228.71
822.93	228.59
823.25	228.58
823.57	228.56
823.88	228.60
824.20	228.57
824.52	228.57
824.83	228.54
825.15	228.54
825.47	228.52
825.79	228.52
826.10	228.51
826.42	228.47
826.74	228.46
827.05	228.45
827.37	228.39
827.69	228.38
828.00	228.40
828.32	228.35
828.64	228.32
828.95	228.34
829.27	228.28
829.58	228.29
829.90	228.31
830.22	228.28
830.53	228.21
830.85	228.20
831.17	228.14
831.48	228.13
831.80	228.12
832.11	228.10
832.43	228.05
832.75	228.02
833.06	228.08
833.38	228.02
833.69	228.01
834.01	228.02
834.32	227.97
834.64	227.95
834.96	227.95
835.27	227.94
835.59	227.92
835.90	227.90
836.22	227.90
836.53	227.87
836.85	227.86
837.16	227.95
837.48	227.92
837.79	227.98
838.11	227.99
838.42	227.98
838.74	228.01
839.05	228.00
839.37	228.02
839.68	227.93
840.00	227.96
840.31	227.96
840.63	227.93
840.94	227.94
841.26	227.90
841.57	227.90
841.88	227.89
842.20	227.90
842.51	227.91
842.83	227.94
843.14	228.01
843.46	228.03
843.77	228.00
844.08	228.03
844.40	227.99
844.71	228.01
845.03	227.99
845.34	227.94
845.65	227.95
845.97	227.91
846.28	227.90
846.60	227.88
846.91	227.86
847.22	227.91
847.54	227.90
847.85	227.91
848.16	227.87
848.48	227.87
848.79	227.88
849.10	227.86
849.42	227.83
849.73	227.76
850.04	227.69
850.36	227.61
850.67	227.60
850.98	227.61
851.30	227.61
851.61	227.60
851.92	227.61
852.23	227.65
852.55	227.67
852.86	227.68
853.17	227.70
853.49	227.75
853.80	227.72
854.11	227.73
854.42	227.75
854.74	227.75
855.05	227.74
855.36	227.69
855.67	227.69
855.99	227.69
856.30	227.79
856.61	227.81
856.92	227.82
857.23	227.82
857.55	227.79
857.86	227.77
858.17	227.82
858.48	227.79
858.79	227.78
859.11	227.78
859.42	227.79
859.73	227.76
860.04	227.73
860.35	227.72
860.66	227.72
860.98	227.71
861.29	227.71
861.60	227.70
861.91	227.73
862.22	227.69
862.53	227.65
862.84	227.54
863.16	227.57
863.47	227.55
863.78	227.57
864.09	227.58
864.40	227.59
864.71	227.57
865.02	227.56
865.33	227.52
865.64	227.53
865.95	227.53
866.27	227.61
866.58	227.59
866.89	227.60
867.20	227.60
867.51	227.59
867.82	227.58
868.13	227.62
868.44	227.60
868.75	227.64
869.06	227.67
869.37	227.67
869.68	227.66
869.99	227.70
870.30	227.67
870.61	227.65
870.92	227.66
871.23	227.65
871.54	227.67
871.85	227.68
872.16	227.66
872.47	227.65
872.78	227.58
873.09	227.61
873.40	227.60
873.71	227.61
874.02	227.65
874.33	227.64
874.64	227.62
874.95	227.62
875.26	227.60
875.56	227.59
875.87	227.56
876.18	227.57
876.49	227.68
876.80	227.65
877.11	227.66
877.42	227.64
877.73	227.61
878.04	227.61
878.35	227.63
878.66	227.65
878.96	227.63
879.27	227.65
879.58	227.61
879.89	227.62
880.20	227.64
880.51	227.58
880.82	227.63
881.12	227.63
881.43	227.63
881.74	227.65
882.05	227.64
882.36	227.67
882.67	227.64
882.97	227.51
883.28	227.52
883.59	227.52
883.90	227.53
884.21	227.58
884.51	227.59
884.82	227.55
885.13	227.52
885.44	227.52
885.74	227.52
886.05	227.53
886.36	227.50
886.67	227.45
886.98	227.52
887.28	227.50
887.59	227.48
887.90	227.51
888.20	227.48
888.51	227.49
888.82	227.50
889.13	227.52
889.43	227.64
889.74	227.65
890.05	227.66
890.35	227.63
890.66	227.59
890.97	227.61
891.28	227.64
891.58	227.63
891.89	227.63
892.20	227.60
892.50	227.60
892.81	227.62
893.12	227.63
893.42	227.57
893.73	227.55
894.04	227.58
894.34	227.57
894.65	227.58
894.95	227.58
895.26	227.56
895.57	227.62
895.87	227.51
896.18	227.52
896.48	227.49
896.79	227.52
897.10	227.55
897.40	227.52
897.71	227.50
898.01	227.54
898.32	227.53
898.63	227.54
898.93	227.52
899.24	227.51
899.54	227.50
899.85	227.50
900.15	227.48
900.46	227.43
900.76	227.45
901.07	227.43
901.38	227.45
901.68	227.46
901.99	227.37
902.29	227.38
902.60	227.35
902.90	227.38
903.21	227.37
903.51	227.37
903.82	227.38
904.12	227.39
904.43	227.38
904.73	227.38
905.03	227.39
905.34	227.45
905.64	227.45
905.95	227.45
906.25	227.44
906.56	227.45
906.86	227.45
907.17	227.39
907.47	227.43
907.77	227.39
908.08	227.37
908.38	227.35
908.69	227.34
908.99	227.37
909.30	227.33
909.60	227.32
909.90	227.29
910.21	227.26
910.51	227.25
910.81	227.24
911.12	227.25
911.42	227.27
911.73	227.19
912.03	227.20
912.33	227.22
912.64	227.22
912.94	227.20
913.24	227.18
913.55	227.20
913.85	227.19
914.15	227.22
914.46	227.21
914.76	227.23
915.06	227.21
915.37	227.18
915.67	227.17
915.97	227.15
916.27	227.14
916.58	227.14
916.88	227.11
917.18	227.10
917.49	227.17
917.79	227.16
918.09	227.16
918.39	227.13
918.70	227.14
919.00	227.15
919.30	227.26
919.60	227.26
919.91	227.23
920.21	227.23
920.51	227.18
920.81	227.20
921.12	227.20
921.42	227.21
921.72	227.21
922.02	227.23
922.32	227.24
922.63	227.24
922.93	227.28
923.23	227.27
923.53	227.28
923.83	227.22
924.13	227.23
924.44	227.25
924.74	227.30
925.04	227.26
925.34	227.24
925.64	227.14
925.94	227.11
926.24	227.18
926.55	227.15
926.85	227.16
927.15	227.16
927.45	227.15
927.75	227.17
928.05	227.16
928.35	227.14
928.65	227.11
928.95	227.13
929.26	227.12
929.56	227.14
929.86	227.11
930.16	227.11
930.46	227.12
930.76	227.10
931.06	227.05
931.36	227.05
931.66	227.06
931.96	227.09
932.26	227.15
932.56	227.10
932.86	227.14
933.16	227.15
933.46	227.15
933.76	227.15
934.06	227.15
934.36	227.18
934.66	227.19
934.96	227.22
935.26	227.23
935.56	227.23
935.86	227.21
936.16	227.23
936.46	227.21
936.76	227.17
937.06	227.16
937.36	227.17
937.66	227.17
937.96	227.19
938.26	227.18
938.56	227.13
938.86	227.12
939.16	227.12
939.46	227.14
939.76	227.12
940.06	227.14
940.35	227.15
940.65	227.13
940.95	227.15
941.25	227.11
941.55	227.10
941.85	227.09
942.15	227.15
942.45	227.17
942.75	227.18
943.04	227.20
943.34	227.27
943.64	227.27
943.94	227.31
944.24	227.31
944.54	227.30
944.84	227.34
945.13	227.35
945.43	227.38
945.73	227.37
946.03	227.39
946.33	227.38
946.62	227.35
946.92	227.36
947.22	227.37
947.52	227.41
947.82	227.41
948.11	227.40
948.41	227.35
948.71	227.30
949.01	227.31
949.31	227.30
949.60	227.23
949.90	227.23
950.20	227.19
950.50	227.19
950.79	227.19
951.09	227.20
951.39	227.17
951.69	227.13
951.98	227.13
952.28	227.12
952.58	227.09
952.87	227.09
953.17	227.09
953.47	227.06
953.76	227.04
954.06	227.05
954.36	227.03
954.66	227.07
954.95	227.12
955.25	227.11
955.55	227.10
955.84	227.10
956.14	227.12
956.44	227.12
956.73	227.12
957.03	227.12
957.32	227.10
957.62	227.11
957.92	227.13
958.21	227.10
958.51	227.19
958.81	227.25
959.10	227.24
959.40	227.23
959.69	227.25
959.99	227.25
960.29	227.25
960.58	227.23
960.88	227.24
961.17	227.23
961.47	227.23
961.76	227.24
962.06	227.27
962.36	227.24
962.65	227.24
962.95	227.25
963.24	227.22
963.54	227.21
963.83	227.25
964.13	227.27
964.42	227.24
964.72	227.19
965.01	227.16
965.31	227.17
965.60	227.16
965.90	227.21
966.19	227.21
966.49	227.19
966.78	227.22
967.08	227.20
967.37	227.22
967.67	227.18
967.96	227.21
968.26	227.19
968.55	227.17
968.85	227.18
969.14	227.19
969.43	227.21
969.73	227.21
970.02	227.21
970.32	227.16
970.61	227.17
970.91	227.15
971.20	227.15
971.49	227.14
971.79	227.17
972.08	227.11
972.38	227.08
972.67	227.08
972.96	227.08
973.26	227.08
973.55	227.06
973.85	227.07
974.14	227.08
974.43	227.09
974.73	227.09
975.02	227.07
975.31	227.05
975.61	227.05
975.90	227.06
976.19	227.05
976.49	227.05
976.78	227.09
977.07	227.05
977.37	227.03
977.66	227.04
977.95	227.00
978.24	227.00
978.54	227.05
978.83	227.04
979.12	227.04
979.42	227.03
979.71	227.04
980.00	227.02
980.29	226.97
980.59	226.94
980.88	226.96
981.17	226.93
981.46	226.94
981.76	226.92
982.05	226.93
982.34	226.91
982.63	226.90
982.93	226.88
983.22	226.93
983.51	226.95
983.80	226.98
984.09	227.00
984.39	226.99
984.68	226.97
984.97	226.96
985.26	226.95
985.55	226.93
985.85	226.87
986.14	226.91
986.43	226.94
986.72	226.93
987.01	226.89
987.30	226.89
987.59	226.89
987.89	226.88
988.18	226.85
988.47	226.85
988.76	226.83
989.05	226.84
989.34	226.79
989.63	226.80
989.92	226.75
990.22	226.73
990.51	226.71
990.80	226.67
991.09	226.66
991.38	226.66
991.67	226.65
991.96	226.65
992.25	226.66
992.54	226.66
992.83	226.68
993.12	226.69
993.41	226.72
993.70	226.73
993.99	226.78
994.28	226.78
994.58	226.78
994.87	226.81
995.16	226.79
995.45	226.80
995.74	226.76
996.03	226.77
996.32	226.77
996.61	226.80
996.90	226.82
997.19	226.85
997.48	226.86
997.77	226.87
998.06	226.88
998.34	226.89
998.63	226.88
998.92	226.89
999.21	226.92
999.50	226.91
999.79	226.91
1000.08	226.91
1000.37	226.91
1000.66	226.90
1000.95	226.93
1001.24	226.93
1001.53	226.96
1001.82	226.97
1002.11	226.99
1002.40	227.01
1002.68	227.02
1002.97	227.09
1003.26	227.08
1003.55	227.06
1003.84	227.08
1004.13	227.14
1004.42	227.15
1004.71	227.15
1004.99	227.15
1005.28	227.16
1005.57	227.19
1005.86	227.17
1006.15	227.15
1006.44	227.15
1006.72	227.19
1007.01	227.20
1007.30	227.19
1007.59	227.19
1007.88	227.16
1008.17	227.18
1008.45	227.18
1008.74	227.19
1009.03	227.20
1009.32	227.19
1009.60	227.21
1009.89	227.20
1010.18	227.14
1010.47	227.13
1010.76	227.15
1011.04	227.15
1011.33	227.17
1011.62	227.16
1011.91	227.17
1012.19	227.19
1012.48	227.20
1012.77	227.19
1013.05	227.23
1013.34	227.23
1013.63	227.23
1013.92	227.29
1014.20	227.25
1014.49	227.25
1014.78	227.24
1015.06	227.15
1015.35	227.17
1015.64	227.18
1015.92	227.21
1016.21	227.22
1016.50	227.21
1016.78	227.20
1017.07	227.21
1017.36	227.17
1017.64	227.14
1017.93	227.14
1018.22	227.12
1018.50	227.10
1018.79	227.09
1019.08	227.02
1019.36	227.04
1019.65	227.01
1019.93	226.99
1020.22	227.02
1020.51	227.04
1020.79	227.03
1021.08	226.94
1021.36	226.55
1021.65	226.65
1021.94	226.94
1022.22	227.16
1022.51	226.85
1022.79	227.07
1023.08	227.03
1023.36	227.91
1023.65	226.91
>>>>>End Processed Spectral Data<<<<<
