SpectraSuite Data File
++++++++++++++++++++++++++++++++++++
Date: Fri Feb 01 15:00:22 EST 2013
User: group
Dark Spectrum Present: No
Reference Spectrum Present: No
Number of Sampled Component Spectra: 1
Spectrometers: USB2E7196
Integration Time (usec): 35000 (USB2E7196)
Spectra Averaged: 100 (USB2E7196)
Boxcar Smoothing: 10 (USB2E7196)
Correct for Electrical Dark: No (USB2E7196)
Strobe/Lamp Enabled: No (USB2E7196)
Correct for Detector Non-linearity: No (USB2E7196)
Correct for Stray Light: No (USB2E7196)
Number of Pixels in Processed Spectrum: 2048
>>>>>Begin Processed Spectral Data<<<<<
339.09	0.00
339.48	215.60
339.86	216.87
340.24	217.99
340.63	220.19
341.01	222.94
341.39	222.26
341.78	223.20
342.16	224.68
342.54	225.51
342.93	213.60
343.31	224.40
343.69	224.93
344.07	225.39
344.46	225.80
344.84	226.14
345.22	226.39
345.60	226.62
345.99	226.80
346.37	226.95
346.75	227.00
347.13	227.10
347.52	227.16
347.90	227.22
348.28	227.23
348.66	227.28
349.05	227.30
349.43	227.34
349.81	227.36
350.19	227.38
350.57	227.40
350.96	227.50
351.34	227.59
351.72	227.67
352.10	227.76
352.48	227.85
352.87	227.91
353.25	227.93
353.63	228.01
354.01	228.12
354.39	228.16
354.77	228.25
355.15	228.34
355.54	228.42
355.92	228.44
356.30	228.53
356.68	228.69
357.06	228.73
357.44	228.81
357.82	228.88
358.20	228.96
358.58	229.05
358.97	229.09
359.35	229.16
359.73	229.24
360.11	229.28
360.49	229.33
360.87	229.36
361.25	229.44
361.63	229.50
362.01	229.52
362.39	229.57
362.77	229.63
363.15	229.64
363.53	229.69
363.91	229.70
364.29	229.71
364.67	229.60
365.05	229.66
365.43	229.66
365.81	229.67
366.19	229.75
366.57	229.73
366.95	229.73
367.33	229.68
367.71	229.68
368.09	229.68
368.47	229.66
368.85	229.62
369.23	229.58
369.61	229.53
369.99	229.53
370.37	229.51
370.75	229.50
371.13	229.42
371.51	229.36
371.89	229.34
372.27	229.29
372.65	229.28
373.03	229.20
373.41	229.14
373.78	229.07
374.16	228.94
374.54	228.86
374.92	228.77
375.30	228.72
375.68	228.60
376.06	228.54
376.44	228.46
376.82	228.41
377.19	228.32
377.57	228.22
377.95	228.09
378.33	228.00
378.71	227.88
379.09	227.84
379.47	227.76
379.84	227.66
380.22	227.56
380.60	227.41
380.98	227.34
381.36	227.25
381.73	227.18
382.11	227.14
382.49	227.10
382.87	227.01
383.25	226.93
383.62	226.98
384.00	226.87
384.38	226.81
384.76	226.78
385.13	226.77
385.51	226.73
385.89	226.64
386.27	226.57
386.64	226.55
387.02	226.48
387.40	226.42
387.78	226.37
388.15	226.37
388.53	226.39
388.91	226.36
389.29	226.34
389.66	226.32
390.04	226.28
390.42	226.27
390.79	226.29
391.17	226.30
391.55	226.18
391.92	226.22
392.30	226.23
392.68	226.20
393.05	226.19
393.43	226.23
393.81	226.26
394.18	226.27
394.56	226.27
394.94	226.31
395.31	226.33
395.69	226.44
396.06	226.46
396.44	226.48
396.82	226.50
397.19	226.59
397.57	226.61
397.95	226.66
398.32	226.69
398.70	226.75
399.07	226.83
399.45	226.94
399.82	226.97
400.20	227.04
400.58	227.16
400.95	227.21
401.33	227.27
401.70	227.47
402.08	227.59
402.45	227.73
402.83	227.84
403.20	227.99
403.58	228.05
403.95	228.20
404.33	228.30
404.71	228.42
405.08	228.60
405.46	228.76
405.83	228.91
406.21	229.04
406.58	229.17
406.96	229.32
407.33	229.50
407.70	229.72
408.08	230.00
408.45	230.19
408.83	230.44
409.20	230.69
409.58	230.85
409.95	231.09
410.33	231.36
410.70	231.60
411.08	231.86
411.45	232.17
411.82	232.49
412.20	232.86
412.57	233.29
412.95	233.61
413.32	234.02
413.69	234.45
414.07	234.92
414.44	235.42
414.82	235.88
415.19	236.42
415.56	236.95
415.94	237.45
416.31	238.10
416.68	238.72
417.06	239.42
417.43	240.13
417.81	240.89
418.18	241.68
418.55	242.54
418.93	243.45
419.30	244.37
419.67	245.25
420.04	246.25
420.42	247.25
420.79	248.42
421.16	249.55
421.54	250.72
421.91	251.91
422.28	253.18
422.66	254.53
423.03	255.82
423.40	257.16
423.77	258.59
424.15	260.02
424.52	261.51
424.89	263.12
425.26	264.68
425.64	266.14
426.01	267.72
426.38	269.39
426.75	271.09
427.13	272.83
427.50	274.66
427.87	276.54
428.24	278.42
428.61	280.16
428.99	282.10
429.36	284.21
429.73	286.28
430.10	288.28
430.47	290.37
430.85	292.50
431.22	294.78
431.59	297.16
431.96	299.40
432.33	301.90
432.70	304.26
433.08	307.05
433.45	309.71
433.82	312.29
434.19	315.21
434.56	318.04
434.93	320.69
435.30	323.36
435.68	326.22
436.05	329.01
436.42	331.83
436.79	334.36
437.16	337.07
437.53	339.95
437.90	342.79
438.27	345.54
438.64	348.38
439.01	350.98
439.38	353.23
439.75	355.43
440.13	357.96
440.50	360.35
440.87	362.27
441.24	364.22
441.61	366.39
441.98	367.89
442.35	369.67
442.72	371.55
443.09	373.34
443.46	374.36
443.83	374.98
444.20	375.50
444.57	376.37
444.94	376.70
445.31	377.00
445.68	377.36
446.05	377.45
446.42	377.05
446.79	376.65
447.16	376.23
447.53	375.89
447.90	374.67
448.27	373.45
448.64	371.79
449.01	370.63
449.37	368.64
449.74	366.72
450.11	364.41
450.48	361.89
450.85	359.36
451.22	357.24
451.59	355.23
451.96	353.28
452.33	350.68
452.70	348.24
453.07	345.44
453.43	342.54
453.80	339.72
454.17	337.03
454.54	334.43
454.91	331.68
455.28	329.01
455.65	326.54
456.02	324.10
456.38	321.95
456.75	319.31
457.12	317.10
457.49	314.86
457.86	312.70
458.23	310.84
458.59	308.80
458.96	306.70
459.33	304.82
459.70	302.95
460.07	301.39
460.43	299.70
460.80	298.09
461.17	296.65
461.54	295.17
461.91	293.75
462.27	292.28
462.64	291.05
463.01	289.66
463.38	288.34
463.74	286.96
464.11	285.81
464.48	284.76
464.85	283.64
465.21	282.75
465.58	281.87
465.95	280.80
466.32	279.89
466.68	278.95
467.05	278.02
467.42	277.12
467.78	276.21
468.15	275.33
468.52	274.63
468.88	273.76
469.25	272.95
469.62	272.35
469.98	271.71
470.35	271.03
470.72	270.42
471.08	269.75
471.45	269.24
471.82	268.72
472.18	268.13
472.55	267.68
472.92	267.13
473.28	266.65
473.65	266.19
474.02	265.73
474.38	265.38
474.75	265.05
475.11	264.67
475.48	264.40
475.85	264.14
476.21	263.90
476.58	263.69
476.94	263.59
477.31	263.37
477.67	263.17
478.04	263.07
478.41	263.02
478.77	263.03
479.14	262.93
479.50	262.90
479.87	262.95
480.23	263.01
480.60	263.11
480.96	263.19
481.33	263.36
481.69	263.52
482.06	263.73
482.42	263.94
482.79	264.21
483.15	264.54
483.52	264.93
483.88	265.27
484.25	265.64
484.61	266.04
484.98	266.50
485.34	267.09
485.71	267.69
486.07	268.27
486.44	268.85
486.80	269.54
487.17	270.24
487.53	271.03
487.90	271.86
488.26	272.76
488.62	273.73
488.99	274.75
489.35	275.77
489.72	276.89
490.08	278.05
490.44	279.33
490.81	280.65
491.17	281.96
491.54	283.44
491.90	284.99
492.26	286.62
492.63	288.37
492.99	290.12
493.36	291.95
493.72	293.99
494.08	296.11
494.45	298.34
494.81	300.71
495.17	303.11
495.54	305.68
495.90	308.35
496.26	311.13
496.63	314.01
496.99	317.11
497.35	320.36
497.72	323.71
498.08	327.14
498.44	330.82
498.80	334.72
499.17	338.74
499.53	342.89
499.89	347.22
500.26	351.69
500.62	356.34
500.98	361.33
501.34	366.36
501.71	371.66
502.07	377.07
502.43	382.65
502.79	388.48
503.16	394.54
503.52	400.76
503.88	407.14
504.24	413.79
504.60	420.62
504.97	427.70
505.33	435.04
505.69	442.74
506.05	450.47
506.41	458.28
506.78	466.39
507.14	474.84
507.50	483.50
507.86	492.53
508.22	501.75
508.59	510.91
508.95	520.52
509.31	530.28
509.67	540.35
510.03	550.63
510.39	561.16
510.75	571.93
511.12	582.91
511.48	594.27
511.84	605.70
512.20	617.28
512.56	629.27
512.92	641.53
513.28	653.85
513.64	666.38
514.00	679.10
514.37	691.99
514.73	705.08
515.09	718.20
515.45	731.46
515.81	745.05
516.17	759.09
516.53	773.20
516.89	787.43
517.25	801.71
517.61	816.19
517.97	830.67
518.33	845.13
518.69	859.98
519.05	875.01
519.41	890.19
519.77	905.75
520.13	921.18
520.49	936.54
520.85	951.90
521.21	967.60
521.57	983.93
521.93	999.93
522.29	1016.34
522.65	1032.60
523.01	1048.90
523.37	1064.96
523.73	1081.15
524.09	1097.23
524.45	1113.56
524.81	1130.27
525.17	1147.17
525.53	1164.18
525.89	1181.09
526.25	1197.86
526.61	1214.30
526.97	1231.08
527.33	1247.65
527.68	1264.37
528.04	1280.89
528.40	1297.83
528.76	1314.91
529.12	1331.56
529.48	1348.32
529.84	1364.36
530.20	1381.09
530.56	1398.23
530.91	1415.69
531.27	1432.52
531.63	1449.21
531.99	1465.89
532.35	1481.84
532.71	1497.81
533.07	1514.01
533.42	1529.85
533.78	1546.03
534.14	1562.24
534.50	1577.67
534.86	1593.55
535.21	1608.77
535.57	1624.74
535.93	1640.24
536.29	1655.16
536.65	1670.38
537.00	1685.41
537.36	1700.88
537.72	1715.51
538.08	1730.07
538.44	1744.05
538.79	1758.08
539.15	1771.75
539.51	1785.60
539.87	1800.12
540.22	1813.87
540.58	1827.82
540.94	1841.42
541.29	1854.40
541.65	1867.26
542.01	1880.66
542.37	1892.99
542.72	1905.55
543.08	1917.42
543.44	1929.85
543.79	1941.18
544.15	1952.17
544.51	1963.70
544.87	1974.68
545.22	1985.54
545.58	1995.75
545.94	2005.48
546.29	2015.33
546.65	2025.21
547.01	2034.49
547.36	2043.21
547.72	2051.78
548.07	2059.70
548.43	2067.85
548.79	2076.09
549.14	2083.69
549.50	2091.02
549.86	2098.89
550.21	2106.22
550.57	2113.47
550.92	2119.99
551.28	2127.04
551.64	2134.22
551.99	2140.94
552.35	2147.16
552.70	2153.21
553.06	2159.10
553.41	2165.38
553.77	2171.48
554.13	2177.53
554.48	2183.64
554.84	2188.98
555.19	2194.35
555.55	2199.40
555.90	2203.90
556.26	2208.54
556.61	2213.22
556.97	2217.30
557.32	2221.46
557.68	2225.57
558.03	2229.88
558.39	2233.70
558.74	2238.21
559.10	2241.98
559.45	2245.42
559.81	2249.88
560.16	2253.65
560.52	2256.81
560.87	2260.12
561.23	2262.72
561.58	2265.78
561.94	2268.21
562.29	2270.63
562.64	2273.16
563.00	2275.81
563.35	2279.19
563.71	2282.35
564.06	2285.57
564.42	2288.48
564.77	2290.73
565.12	2292.90
565.48	2294.55
565.83	2296.25
566.19	2297.55
566.54	2298.42
566.89	2299.34
567.25	2299.52
567.60	2300.87
567.96	2302.46
568.31	2303.28
568.66	2304.11
569.02	2304.45
569.37	2304.70
569.72	2305.48
570.08	2305.34
570.43	2305.06
570.78	2304.22
571.14	2302.46
571.49	2300.84
571.84	2300.45
572.20	2299.06
572.55	2297.74
572.90	2296.16
573.26	2294.53
573.61	2292.62
573.96	2290.54
574.31	2287.54
574.67	2284.47
575.02	2280.72
575.37	2277.18
575.72	2273.13
576.08	2269.68
576.43	2266.22
576.78	2262.30
577.13	2258.85
577.49	2255.76
577.84	2252.27
578.19	2248.61
578.54	2244.80
578.90	2240.43
579.25	2234.60
579.60	2229.66
579.95	2224.42
580.30	2219.27
580.66	2213.93
581.01	2208.94
581.36	2204.04
581.71	2199.64
582.06	2194.82
582.42	2190.13
582.77	2184.63
583.12	2179.93
583.47	2174.99
583.82	2169.77
584.17	2164.45
584.53	2158.89
584.88	2153.04
585.23	2147.01
585.58	2141.24
585.93	2135.62
586.28	2130.73
586.63	2125.61
586.98	2120.34
587.34	2115.54
587.69	2110.45
588.04	2105.17
588.39	2099.32
588.74	2092.61
589.09	2086.34
589.44	2079.52
589.79	2073.36
590.14	2067.69
590.49	2061.12
590.84	2054.71
591.19	2048.53
591.54	2041.97
591.89	2034.26
592.25	2027.47
592.60	2020.19
592.95	2012.62
593.30	2005.10
593.65	1997.45
594.00	1990.39
594.35	1983.11
594.70	1975.15
595.05	1967.84
595.40	1960.46
595.75	1952.93
596.10	1946.55
596.45	1939.61
596.80	1933.36
597.15	1926.71
597.50	1919.53
597.85	1913.10
598.19	1906.35
598.54	1899.23
598.89	1892.56
599.24	1886.79
599.59	1879.85
599.94	1873.59
600.29	1867.18
600.64	1860.57
600.99	1853.10
601.34	1846.05
601.69	1839.02
602.04	1832.08
602.39	1824.67
602.74	1817.79
603.08	1811.02
603.43	1804.38
603.78	1797.18
604.13	1789.98
604.48	1782.52
604.83	1775.58
605.18	1768.39
605.53	1760.33
605.87	1752.34
606.22	1745.11
606.57	1737.18
606.92	1729.95
607.27	1722.78
607.62	1715.91
607.96	1708.70
608.31	1701.97
608.66	1694.40
609.01	1686.87
609.36	1679.22
609.70	1671.12
610.05	1663.04
610.40	1655.37
610.75	1646.99
611.10	1639.38
611.44	1631.06
611.79	1623.19
612.14	1614.60
612.49	1605.59
612.83	1597.32
613.18	1589.29
613.53	1581.26
613.88	1572.73
614.22	1564.49
614.57	1555.98
614.92	1547.82
615.27	1540.25
615.61	1531.89
615.96	1523.84
616.31	1516.25
616.65	1508.95
617.00	1501.49
617.35	1493.82
617.70	1485.44
618.04	1476.84
618.39	1468.71
618.74	1461.20
619.08	1452.91
619.43	1445.41
619.78	1438.48
620.12	1431.40
620.47	1423.90
620.82	1415.67
621.16	1408.37
621.51	1400.70
621.85	1393.09
622.20	1384.68
622.55	1376.38
622.89	1368.72
623.24	1361.24
623.59	1353.92
623.93	1346.37
624.28	1339.19
624.62	1331.76
624.97	1324.65
625.32	1318.02
625.66	1310.94
626.01	1303.65
626.35	1296.16
626.70	1288.43
627.04	1280.65
627.39	1272.91
627.73	1265.53
628.08	1258.67
628.43	1251.32
628.77	1244.03
629.12	1236.48
629.46	1229.35
629.81	1222.04
630.15	1214.81
630.50	1207.45
630.84	1199.29
631.19	1191.48
631.53	1184.07
631.88	1176.54
632.22	1168.93
632.57	1161.73
632.91	1154.34
633.26	1147.05
633.60	1139.86
633.95	1132.90
634.29	1125.99
634.64	1119.32
634.98	1111.96
635.32	1104.88
635.67	1098.37
636.01	1091.76
636.36	1085.00
636.70	1078.58
637.05	1072.01
637.39	1065.62
637.73	1059.17
638.08	1053.39
638.42	1047.42
638.77	1040.94
639.11	1034.35
639.45	1028.03
639.80	1021.38
640.14	1014.88
640.49	1008.34
640.83	1002.12
641.17	995.83
641.52	989.60
641.86	983.30
642.20	977.42
642.55	971.17
642.89	964.69
643.23	958.32
643.58	952.59
643.92	946.38
644.26	940.34
644.61	934.37
644.95	928.31
645.29	921.69
645.64	915.10
645.98	908.83
646.32	903.17
646.66	897.15
647.01	891.44
647.35	885.76
647.69	879.94
648.04	874.30
648.38	868.62
648.72	862.58
649.06	856.40
649.41	850.62
649.75	844.60
650.09	838.64
650.43	832.79
650.78	826.60
651.12	820.63
651.46	814.89
651.80	809.11
652.14	803.81
652.49	798.45
652.83	793.25
653.17	787.58
653.51	781.83
653.85	776.48
654.20	770.74
654.54	764.81
654.88	759.16
655.22	753.36
655.56	747.65
655.90	742.22
656.25	737.01
656.59	731.65
656.93	726.60
657.27	721.52
657.61	716.10
657.95	711.06
658.29	706.08
658.64	700.91
658.98	695.64
659.32	690.18
659.66	685.02
660.00	679.64
660.34	674.79
660.68	669.88
661.02	664.89
661.36	660.21
661.70	655.71
662.05	651.41
662.39	647.07
662.73	642.65
663.07	638.33
663.41	634.06
663.75	629.62
664.09	625.13
664.43	620.75
664.77	616.68
665.11	612.45
665.45	608.35
665.79	604.32
666.13	600.21
666.47	596.14
666.81	591.94
667.15	587.93
667.49	584.04
667.83	580.32
668.17	576.41
668.51	572.39
668.85	568.46
669.19	564.58
669.53	560.76
669.87	556.90
670.21	553.29
670.55	549.55
670.89	546.13
671.23	542.70
671.57	539.24
671.91	535.69
672.25	532.21
672.58	528.68
672.92	525.31
673.26	522.22
673.60	519.13
673.94	516.07
674.28	513.20
674.62	510.28
674.96	507.14
675.30	504.18
675.64	501.32
675.97	498.53
676.31	495.64
676.65	492.74
676.99	490.06
677.33	487.17
677.67	484.39
678.01	481.39
678.34	478.44
678.68	475.60
679.02	472.84
679.36	470.16
679.70	467.49
680.04	464.73
680.37	461.85
680.71	459.03
681.05	456.47
681.39	453.77
681.73	451.16
682.06	448.65
682.40	446.17
682.74	443.65
683.08	441.16
683.42	438.69
683.75	436.19
684.09	433.70
684.43	431.29
684.77	428.88
685.10	426.58
685.44	424.30
685.78	421.99
686.12	419.77
686.45	417.45
686.79	415.16
687.13	413.00
687.46	410.85
687.80	408.73
688.14	406.52
688.48	404.47
688.81	402.21
689.15	400.04
689.49	397.89
689.82	395.84
690.16	393.79
690.50	391.83
690.83	390.00
691.17	388.01
691.51	386.09
691.84	384.25
692.18	382.29
692.52	380.33
692.85	378.47
693.19	376.57
693.52	374.81
693.86	373.02
694.20	371.27
694.53	369.47
694.87	367.64
695.21	365.87
695.54	364.03
695.88	362.35
696.21	360.66
696.55	359.03
696.88	357.33
697.22	355.63
697.56	353.96
697.89	352.23
698.23	350.62
698.56	349.01
698.90	347.36
699.23	345.74
699.57	344.20
699.90	342.63
700.24	341.09
700.58	339.57
700.91	338.12
701.25	336.68
701.58	335.30
701.92	333.95
702.25	332.57
702.59	331.20
702.92	329.85
703.26	328.58
703.59	327.28
703.93	326.12
704.26	324.91
704.60	323.68
704.93	322.42
705.26	321.19
705.60	320.00
705.93	318.89
706.27	317.86
706.60	316.80
706.94	315.74
707.27	314.66
707.61	313.58
707.94	312.51
708.27	311.41
708.61	310.33
708.94	309.36
709.28	308.40
709.61	307.46
709.94	306.54
710.28	305.53
710.61	304.57
710.95	303.50
711.28	302.59
711.61	301.62
711.95	300.71
712.28	299.78
712.61	298.80
712.95	297.87
713.28	297.00
713.61	296.10
713.95	295.20
714.28	294.36
714.61	293.50
714.95	292.67
715.28	291.85
715.61	291.00
715.95	290.10
716.28	289.25
716.61	288.45
716.95	287.64
717.28	286.90
717.61	286.16
717.94	285.45
718.28	284.65
718.61	283.96
718.94	283.31
719.27	282.63
719.61	282.03
719.94	281.37
720.27	280.67
720.60	280.02
720.94	279.39
721.27	278.81
721.60	278.25
721.93	277.66
722.27	277.09
722.60	276.56
722.93	276.02
723.26	275.49
723.59	274.92
723.93	274.40
724.26	273.84
724.59	273.29
724.92	272.81
725.25	272.33
725.59	271.80
725.92	271.28
726.25	270.80
726.58	270.29
726.91	269.84
727.24	269.42
727.57	268.95
727.91	268.49
728.24	268.02
728.57	267.55
728.90	267.12
729.23	266.63
729.56	266.20
729.89	265.73
730.22	265.27
730.55	264.80
730.89	264.30
731.22	263.87
731.55	263.41
731.88	262.93
732.21	262.47
732.54	262.05
732.87	261.58
733.20	261.23
733.53	260.85
733.86	260.44
734.19	260.01
734.52	259.67
734.85	259.38
735.18	258.97
735.51	258.60
735.84	258.20
736.17	257.87
736.50	257.50
736.83	257.27
737.16	256.94
737.49	256.63
737.82	256.32
738.15	255.98
738.48	255.65
738.81	255.34
739.14	255.03
739.47	254.75
739.80	254.45
740.13	254.07
740.46	253.77
740.79	253.42
741.12	253.10
741.45	252.76
741.78	252.37
742.11	252.07
742.44	251.73
742.77	251.42
743.10	251.13
743.43	250.81
743.75	250.41
744.08	250.24
744.41	249.94
744.74	249.68
745.07	249.39
745.40	249.16
745.73	248.90
746.06	248.64
746.39	248.37
746.71	248.14
747.04	247.86
747.37	247.57
747.70	247.36
748.03	247.12
748.36	246.91
748.68	246.68
749.01	246.43
749.34	246.22
749.67	246.04
750.00	245.77
750.33	245.62
750.65	245.42
750.98	245.08
751.31	244.87
751.64	244.65
751.97	244.55
752.29	244.33
752.62	244.10
752.95	243.88
753.28	243.63
753.60	243.39
753.93	243.26
754.26	243.06
754.59	242.82
754.91	242.61
755.24	242.36
755.57	242.16
755.90	242.02
756.22	241.81
756.55	241.62
756.88	241.42
757.20	241.15
757.53	240.92
757.86	240.75
758.19	240.58
758.51	240.38
758.84	240.14
759.17	239.95
759.49	239.78
759.82	239.69
760.15	239.55
760.47	239.41
760.80	239.18
761.13	239.07
761.45	238.92
761.78	238.81
762.11	238.70
762.43	238.54
762.76	238.38
763.08	238.27
763.41	238.09
763.74	237.97
764.06	237.88
764.39	237.76
764.71	237.60
765.04	237.49
765.37	237.38
765.69	237.25
766.02	237.12
766.34	237.00
766.67	236.85
767.00	236.73
767.32	236.71
767.65	236.70
767.97	236.57
768.30	236.51
768.62	236.39
768.95	236.28
769.27	236.18
769.60	236.11
769.92	236.02
770.25	235.91
770.57	235.78
770.90	235.65
771.22	235.55
771.55	235.49
771.87	235.40
772.20	235.28
772.52	235.27
772.85	235.30
773.17	235.20
773.50	235.04
773.82	234.95
774.15	234.79
774.47	234.60
774.80	234.54
775.12	234.42
775.45	234.31
775.77	234.21
776.09	234.12
776.42	234.01
776.74	233.92
777.07	233.84
777.39	233.79
777.72	233.72
778.04	233.64
778.36	233.54
778.69	233.44
779.01	233.40
779.33	233.27
779.66	233.09
779.98	233.02
780.31	233.00
780.63	232.99
780.95	232.94
781.28	232.90
781.60	232.81
781.92	232.76
782.25	232.69
782.57	232.64
782.89	232.59
783.22	232.52
783.54	232.44
783.86	232.40
784.19	232.35
784.51	232.33
784.83	232.27
785.16	232.22
785.48	232.17
785.80	232.14
786.12	232.09
786.45	232.05
786.77	232.05
787.09	231.99
787.42	231.93
787.74	231.90
788.06	231.85
788.38	231.79
788.71	231.73
789.03	231.71
789.35	231.68
789.67	231.65
789.99	231.65
790.32	231.61
790.64	231.60
790.96	231.60
791.28	231.53
791.61	231.50
791.93	231.49
792.25	231.46
792.57	231.47
792.89	231.43
793.21	231.40
793.54	231.29
793.86	231.22
794.18	231.19
794.50	231.12
794.82	231.10
795.14	231.08
795.47	231.05
795.79	231.03
796.11	230.94
796.43	230.87
796.75	230.83
797.07	230.81
797.39	230.75
797.71	230.64
798.04	230.61
798.36	230.59
798.68	230.55
799.00	230.51
799.32	230.42
799.64	230.34
799.96	230.29
800.28	230.31
800.60	230.28
800.92	230.23
801.24	230.20
801.56	230.16
801.89	230.11
802.21	230.09
802.53	230.07
802.85	230.09
803.17	230.14
803.49	230.06
803.81	230.03
804.13	229.99
804.45	229.95
804.77	229.96
805.09	229.94
805.41	229.89
805.73	229.88
806.05	229.84
806.37	229.85
806.69	229.81
807.01	229.77
807.33	229.77
807.65	229.69
807.97	229.71
808.28	229.65
808.60	229.62
808.92	229.59
809.24	229.60
809.56	229.54
809.88	229.46
810.20	229.47
810.52	229.48
810.84	229.44
811.16	229.44
811.48	229.40
811.80	229.40
812.12	229.40
812.43	229.37
812.75	229.37
813.07	229.31
813.39	229.34
813.71	229.33
814.03	229.28
814.35	229.29
814.67	229.23
814.98	229.19
815.30	229.19
815.62	229.17
815.94	229.08
816.26	229.11
816.58	229.06
816.89	229.04
817.21	229.00
817.53	228.98
817.85	228.97
818.17	228.96
818.48	228.92
818.80	228.89
819.12	228.87
819.44	228.80
819.76	228.79
820.07	228.74
820.39	228.71
820.71	228.70
821.03	228.67
821.34	228.65
821.66	228.68
821.98	228.66
822.30	228.62
822.61	228.68
822.93	228.63
823.25	228.65
823.57	228.62
823.88	228.62
824.20	228.63
824.52	228.60
824.83	228.57
825.15	228.53
825.47	228.53
825.79	228.51
826.10	228.51
826.42	228.50
826.74	228.53
827.05	228.50
827.37	228.49
827.69	228.48
828.00	228.50
828.32	228.47
828.64	228.45
828.95	228.49
829.27	228.48
829.58	228.44
829.90	228.45
830.22	228.45
830.53	228.39
830.85	228.35
831.17	228.34
831.48	228.34
831.80	228.32
832.11	228.32
832.43	228.31
832.75	228.32
833.06	228.39
833.38	228.35
833.69	228.38
834.01	228.38
834.32	228.40
834.64	228.35
834.96	228.37
835.27	228.35
835.59	228.34
835.90	228.29
836.22	228.33
836.53	228.29
836.85	228.26
837.16	228.38
837.48	228.40
837.79	228.43
838.11	228.43
838.42	228.42
838.74	228.39
839.05	228.39
839.37	228.40
839.68	228.33
840.00	228.31
840.31	228.29
840.63	228.29
840.94	228.26
841.26	228.24
841.57	228.23
841.88	228.22
842.20	228.19
842.51	228.15
842.83	228.15
843.14	228.23
843.46	228.26
843.77	228.17
844.08	228.15
844.40	228.09
844.71	228.08
845.03	228.07
845.34	228.05
845.65	228.02
845.97	228.01
846.28	228.00
846.60	228.00
846.91	228.00
847.22	227.98
847.54	228.03
847.85	228.06
848.16	228.02
848.48	227.99
848.79	228.01
849.10	228.03
849.42	228.01
849.73	227.89
850.04	227.84
850.36	227.85
850.67	227.85
850.98	227.85
851.30	227.82
851.61	227.80
851.92	227.82
852.23	227.86
852.55	227.82
852.86	227.83
853.17	227.83
853.49	227.81
853.80	227.81
854.11	227.77
854.42	227.76
854.74	227.75
855.05	227.78
855.36	227.70
855.67	227.71
855.99	227.73
856.30	227.85
856.61	227.87
856.92	227.84
857.23	227.82
857.55	227.80
857.86	227.81
858.17	227.83
858.48	227.80
858.79	227.75
859.11	227.77
859.42	227.72
859.73	227.69
860.04	227.70
860.35	227.67
860.66	227.62
860.98	227.64
861.29	227.67
861.60	227.64
861.91	227.67
862.22	227.64
862.53	227.60
862.84	227.48
863.16	227.49
863.47	227.50
863.78	227.51
864.09	227.57
864.40	227.56
864.71	227.56
865.02	227.58
865.33	227.56
865.64	227.57
865.95	227.58
866.27	227.69
866.58	227.68
866.89	227.70
867.20	227.75
867.51	227.71
867.82	227.72
868.13	227.74
868.44	227.78
868.75	227.80
869.06	227.82
869.37	227.86
869.68	227.84
869.99	227.85
870.30	227.86
870.61	227.85
870.92	227.85
871.23	227.85
871.54	227.86
871.85	227.95
872.16	227.95
872.47	227.96
872.78	227.87
873.09	227.87
873.40	227.89
873.71	227.88
874.02	227.89
874.33	227.88
874.64	227.88
874.95	227.91
875.26	227.89
875.56	227.87
875.87	227.85
876.18	227.84
876.49	227.94
876.80	227.94
877.11	227.93
877.42	227.94
877.73	227.93
878.04	227.92
878.35	227.88
878.66	227.89
878.96	227.87
879.27	227.85
879.58	227.85
879.89	227.84
880.20	227.89
880.51	227.90
880.82	227.89
881.12	227.87
881.43	227.78
881.74	227.78
882.05	227.80
882.36	227.82
882.67	227.83
882.97	227.68
883.28	227.65
883.59	227.62
883.90	227.59
884.21	227.60
884.51	227.58
884.82	227.55
885.13	227.53
885.44	227.48
885.74	227.49
886.05	227.48
886.36	227.45
886.67	227.40
886.98	227.43
887.28	227.43
887.59	227.43
887.90	227.44
888.20	227.40
888.51	227.40
888.82	227.36
889.13	227.34
889.43	227.42
889.74	227.40
890.05	227.42
890.35	227.39
890.66	227.38
890.97	227.36
891.28	227.35
891.58	227.33
891.89	227.37
892.20	227.38
892.50	227.36
892.81	227.36
893.12	227.32
893.42	227.26
893.73	227.24
894.04	227.23
894.34	227.27
894.65	227.25
894.95	227.25
895.26	227.24
895.57	227.28
895.87	227.20
896.18	227.22
896.48	227.22
896.79	227.25
897.10	227.24
897.40	227.27
897.71	227.28
898.01	227.31
898.32	227.35
898.63	227.35
898.93	227.34
899.24	227.35
899.54	227.37
899.85	227.39
900.15	227.40
900.46	227.40
900.76	227.40
901.07	227.45
901.38	227.44
901.68	227.47
901.99	227.43
902.29	227.44
902.60	227.46
902.90	227.45
903.21	227.46
903.51	227.49
903.82	227.50
904.12	227.53
904.43	227.49
904.73	227.47
905.03	227.46
905.34	227.59
905.64	227.58
905.95	227.57
906.25	227.57
906.56	227.58
906.86	227.60
907.17	227.60
907.47	227.59
907.77	227.59
908.08	227.57
908.38	227.58
908.69	227.59
908.99	227.62
909.30	227.65
909.60	227.65
909.90	227.63
910.21	227.62
910.51	227.61
910.81	227.63
911.12	227.64
911.42	227.67
911.73	227.56
912.03	227.60
912.33	227.62
912.64	227.62
912.94	227.61
913.24	227.60
913.55	227.60
913.85	227.63
914.15	227.65
914.46	227.68
914.76	227.69
915.06	227.68
915.37	227.68
915.67	227.67
915.97	227.67
916.27	227.66
916.58	227.66
916.88	227.67
917.18	227.67
917.49	227.72
917.79	227.69
918.09	227.71
918.39	227.71
918.70	227.72
919.00	227.73
919.30	227.74
919.60	227.73
919.91	227.69
920.21	227.67
920.51	227.64
920.81	227.61
921.12	227.61
921.42	227.58
921.72	227.55
922.02	227.55
922.32	227.56
922.63	227.54
922.93	227.56
923.23	227.51
923.53	227.48
923.83	227.41
924.13	227.42
924.44	227.39
924.74	227.40
925.04	227.37
925.34	227.34
925.64	227.34
925.94	227.28
926.24	227.36
926.55	227.34
926.85	227.35
927.15	227.36
927.45	227.32
927.75	227.31
928.05	227.30
928.35	227.26
928.65	227.28
928.95	227.27
929.26	227.25
929.56	227.28
929.86	227.31
930.16	227.31
930.46	227.29
930.76	227.29
931.06	227.24
931.36	227.23
931.66	227.28
931.96	227.23
932.26	227.24
932.56	227.15
932.86	227.15
933.16	227.15
933.46	227.14
933.76	227.17
934.06	227.19
934.36	227.21
934.66	227.23
934.96	227.20
935.26	227.22
935.56	227.23
935.86	227.19
936.16	227.15
936.46	227.13
936.76	227.11
937.06	227.10
937.36	227.10
937.66	227.09
937.96	227.07
938.26	227.08
938.56	227.12
938.86	227.12
939.16	227.15
939.46	227.15
939.76	227.15
940.06	227.13
940.35	227.13
940.65	227.11
940.95	227.09
941.25	227.06
941.55	227.06
941.85	227.07
942.15	227.08
942.45	227.14
942.75	227.14
943.04	227.15
943.34	227.17
943.64	227.17
943.94	227.18
944.24	227.15
944.54	227.15
944.84	227.17
945.13	227.21
945.43	227.19
945.73	227.21
946.03	227.17
946.33	227.17
946.62	227.15
946.92	227.16
947.22	227.20
947.52	227.22
947.82	227.25
948.11	227.23
948.41	227.26
948.71	227.22
949.01	227.25
949.31	227.27
949.60	227.27
949.90	227.31
950.20	227.29
950.50	227.31
950.79	227.34
951.09	227.35
951.39	227.35
951.69	227.33
951.98	227.33
952.28	227.35
952.58	227.35
952.87	227.37
953.17	227.38
953.47	227.40
953.76	227.41
954.06	227.40
954.36	227.38
954.66	227.35
954.95	227.39
955.25	227.38
955.55	227.38
955.84	227.35
956.14	227.37
956.44	227.41
956.73	227.39
957.03	227.40
957.32	227.39
957.62	227.36
957.92	227.42
958.21	227.43
958.51	227.55
958.81	227.57
959.10	227.60
959.40	227.60
959.69	227.54
959.99	227.52
960.29	227.52
960.58	227.50
960.88	227.57
961.17	227.54
961.47	227.57
961.76	227.57
962.06	227.60
962.36	227.57
962.65	227.54
962.95	227.53
963.24	227.48
963.54	227.45
963.83	227.46
964.13	227.37
964.42	227.31
964.72	227.25
965.01	227.22
965.31	227.19
965.60	227.16
965.90	227.26
966.19	227.25
966.49	227.23
966.78	227.23
967.08	227.18
967.37	227.18
967.67	227.12
967.96	227.15
968.26	227.11
968.55	227.11
968.85	227.11
969.14	227.10
969.43	227.12
969.73	227.09
970.02	227.06
970.32	227.09
970.61	227.10
970.91	227.04
971.20	227.03
971.49	227.01
971.79	227.02
972.08	226.92
972.38	226.93
972.67	226.93
972.96	226.93
973.26	226.90
973.55	226.94
973.85	226.99
974.14	226.99
974.43	226.99
974.73	227.03
975.02	227.02
975.31	227.00
975.61	227.00
975.90	227.00
976.19	227.00
976.49	227.01
976.78	227.00
977.07	227.01
977.37	227.01
977.66	227.04
977.95	227.02
978.24	227.04
978.54	227.04
978.83	227.03
979.12	227.01
979.42	227.06
979.71	227.00
980.00	226.97
980.29	226.92
980.59	226.92
980.88	226.91
981.17	226.89
981.46	226.94
981.76	226.95
982.05	226.99
982.34	227.02
982.63	227.02
982.93	227.04
983.22	227.05
983.51	227.07
983.80	227.09
984.09	227.12
984.39	227.12
984.68	227.13
984.97	227.11
985.26	227.13
985.55	227.14
985.85	227.16
986.14	227.18
986.43	227.19
986.72	227.19
987.01	227.14
987.30	227.15
987.59	227.13
987.89	227.15
988.18	227.14
988.47	227.13
988.76	227.13
989.05	227.11
989.34	227.13
989.63	227.14
989.92	227.10
990.22	227.09
990.51	227.08
990.80	227.06
991.09	227.13
991.38	227.12
991.67	227.11
991.96	227.08
992.25	227.07
992.54	227.08
992.83	227.08
993.12	227.08
993.41	227.12
993.70	227.19
993.99	227.18
994.28	227.20
994.58	227.20
994.87	227.20
995.16	227.18
995.45	227.15
995.74	227.11
996.03	227.14
996.32	227.13
996.61	227.15
996.90	227.18
997.19	227.16
997.48	227.15
997.77	227.14
998.06	227.14
998.34	227.18
998.63	227.16
998.92	227.18
999.21	227.20
999.50	227.23
999.79	227.17
1000.08	227.17
1000.37	227.12
1000.66	227.09
1000.95	227.08
1001.24	227.11
1001.53	227.13
1001.82	227.15
1002.11	227.09
1002.40	227.10
1002.68	227.13
1002.97	227.19
1003.26	227.17
1003.55	227.17
1003.84	227.18
1004.13	227.21
1004.42	227.14
1004.71	227.16
1004.99	227.13
1005.28	227.12
1005.57	227.07
1005.86	227.03
1006.15	227.02
1006.44	227.00
1006.72	227.01
1007.01	227.03
1007.30	227.00
1007.59	226.97
1007.88	226.97
1008.17	227.00
1008.45	226.96
1008.74	226.89
1009.03	226.81
1009.32	226.79
1009.60	226.75
1009.89	226.72
1010.18	226.67
1010.47	226.68
1010.76	226.67
1011.04	226.63
1011.33	226.61
1011.62	226.60
1011.91	226.59
1012.19	226.59
1012.48	226.62
1012.77	226.61
1013.05	226.67
1013.34	226.69
1013.63	226.66
1013.92	226.65
1014.20	226.64
1014.49	226.64
1014.78	226.68
1015.06	226.65
1015.35	226.68
1015.64	226.72
1015.92	226.73
1016.21	226.73
1016.50	226.74
1016.78	226.72
1017.07	226.74
1017.36	226.75
1017.64	226.72
1017.93	226.75
1018.22	226.75
1018.50	226.76
1018.79	226.79
1019.08	226.72
1019.36	226.73
1019.65	226.77
1019.93	226.81
1020.22	226.82
1020.51	226.89
1020.79	226.86
1021.08	226.83
1021.36	227.06
1021.65	227.01
1021.94	226.95
1022.22	227.15
1022.51	226.74
1022.79	227.58
1023.08	227.21
1023.36	227.99
1023.65	226.69
>>>>>End Processed Spectral Data<<<<<
