SpectraSuite Data File
++++++++++++++++++++++++++++++++++++
Date: Fri Feb 01 17:04:59 EST 2013
User: group
Dark Spectrum Present: No
Reference Spectrum Present: No
Number of Sampled Component Spectra: 1
Spectrometers: USB2E7196
Integration Time (usec): 35000 (USB2E7196)
Spectra Averaged: 100 (USB2E7196)
Boxcar Smoothing: 10 (USB2E7196)
Correct for Electrical Dark: No (USB2E7196)
Strobe/Lamp Enabled: No (USB2E7196)
Correct for Detector Non-linearity: No (USB2E7196)
Correct for Stray Light: No (USB2E7196)
Number of Pixels in Processed Spectrum: 2048
>>>>>Begin Processed Spectral Data<<<<<
339.09	0.00
339.48	213.32
339.86	215.20
340.24	216.55
340.63	218.07
341.01	220.86
341.39	219.93
341.78	221.76
342.16	223.19
342.54	223.63
342.93	211.85
343.31	222.55
343.69	223.08
344.07	223.52
344.46	223.94
344.84	224.28
345.22	224.52
345.60	224.80
345.99	224.98
346.37	225.08
346.75	225.15
347.13	225.22
347.52	225.24
347.90	225.32
348.28	225.36
348.66	225.43
349.05	225.44
349.43	225.50
349.81	225.56
350.19	225.55
350.57	225.64
350.96	225.72
351.34	225.83
351.72	225.92
352.10	226.04
352.48	226.08
352.87	226.16
353.25	226.18
353.63	226.22
354.01	226.28
354.39	226.36
354.77	226.43
355.15	226.52
355.54	226.61
355.92	226.67
356.30	226.74
356.68	226.86
357.06	226.90
357.44	226.93
357.82	226.97
358.20	227.05
358.58	227.07
358.97	227.13
359.35	227.17
359.73	227.24
360.11	227.28
360.49	227.32
360.87	227.37
361.25	227.44
361.63	227.50
362.01	227.53
362.39	227.55
362.77	227.61
363.15	227.59
363.53	227.58
363.91	227.60
364.29	227.63
364.67	227.56
365.05	227.57
365.43	227.59
365.81	227.62
366.19	227.72
366.57	227.77
366.95	227.75
367.33	227.72
367.71	227.70
368.09	227.76
368.47	227.75
368.85	227.71
369.23	227.70
369.61	227.67
369.99	227.70
370.37	227.71
370.75	227.73
371.13	227.72
371.51	227.68
371.89	227.66
372.27	227.58
372.65	227.54
373.03	227.51
373.41	227.46
373.78	227.42
374.16	227.28
374.54	227.18
374.92	227.12
375.30	227.10
375.68	227.01
376.06	226.90
376.44	226.86
376.82	226.80
377.19	226.74
377.57	226.68
377.95	226.58
378.33	226.49
378.71	226.37
379.09	226.33
379.47	226.28
379.84	226.20
380.22	226.13
380.60	226.04
380.98	226.00
381.36	225.93
381.73	225.87
382.11	225.84
382.49	225.80
382.87	225.77
383.25	225.72
383.62	225.81
384.00	225.75
384.38	225.70
384.76	225.66
385.13	225.67
385.51	225.60
385.89	225.53
386.27	225.51
386.64	225.49
387.02	225.42
387.40	225.39
387.78	225.36
388.15	225.35
388.53	225.32
388.91	225.25
389.29	225.24
389.66	225.24
390.04	225.23
390.42	225.26
390.79	225.22
391.17	225.17
391.55	225.03
391.92	225.02
392.30	225.02
392.68	225.01
393.05	225.01
393.43	225.00
393.81	225.02
394.18	224.97
394.56	224.96
394.94	225.00
395.31	225.00
395.69	225.04
396.06	225.06
396.44	225.09
396.82	225.13
397.19	225.22
397.57	225.20
397.95	225.22
398.32	225.21
398.70	225.25
399.07	225.36
399.45	225.41
399.82	225.43
400.20	225.47
400.58	225.55
400.95	225.53
401.33	225.61
401.70	225.75
402.08	225.85
402.45	225.94
402.83	226.08
403.20	226.14
403.58	226.23
403.95	226.35
404.33	226.44
404.71	226.55
405.08	226.69
405.46	226.80
405.83	226.97
406.21	227.10
406.58	227.27
406.96	227.38
407.33	227.56
407.70	227.77
408.08	228.03
408.45	228.23
408.83	228.48
409.20	228.67
409.58	228.84
409.95	229.08
410.33	229.37
410.70	229.56
411.08	229.89
411.45	230.18
411.82	230.46
412.20	230.84
412.57	231.25
412.95	231.54
413.32	231.96
413.69	232.34
414.07	232.80
414.44	233.25
414.82	233.74
415.19	234.26
415.56	234.81
415.94	235.31
416.31	235.93
416.68	236.59
417.06	237.30
417.43	237.98
417.81	238.77
418.18	239.57
418.55	240.42
418.93	241.30
419.30	242.19
419.67	243.13
420.04	244.10
420.42	245.07
420.79	246.25
421.16	247.41
421.54	248.61
421.91	249.78
422.28	251.04
422.66	252.34
423.03	253.68
423.40	254.97
423.77	256.41
424.15	257.82
424.52	259.30
424.89	260.94
425.26	262.51
425.64	263.95
426.01	265.52
426.38	267.19
426.75	268.85
427.13	270.56
427.50	272.38
427.87	274.26
428.24	276.13
428.61	277.84
428.99	279.78
429.36	281.85
429.73	283.92
430.10	285.92
430.47	287.99
430.85	290.06
431.22	292.34
431.59	294.72
431.96	296.97
432.33	299.42
432.70	301.77
433.08	304.54
433.45	307.14
433.82	309.70
434.19	312.53
434.56	315.28
434.93	317.92
435.30	320.51
435.68	323.37
436.05	326.17
436.42	328.92
436.79	331.42
437.16	334.10
437.53	336.88
437.90	339.68
438.27	342.38
438.64	345.20
439.01	347.73
439.38	349.92
439.75	352.02
440.13	354.51
440.50	356.80
440.87	358.60
441.24	360.54
441.61	362.68
441.98	364.15
442.35	365.93
442.72	367.78
443.09	369.55
443.46	370.48
443.83	371.09
444.20	371.61
444.57	372.45
444.94	372.75
445.31	373.12
445.68	373.45
446.05	373.58
446.42	373.18
446.79	372.79
447.16	372.33
447.53	372.02
447.90	370.83
448.27	369.70
448.64	368.15
449.01	367.03
449.37	365.09
449.74	363.21
450.11	361.03
450.48	358.59
450.85	356.13
451.22	354.01
451.59	351.97
451.96	350.06
452.33	347.46
452.70	345.08
453.07	342.26
453.43	339.43
453.80	336.70
454.17	334.09
454.54	331.56
454.91	328.93
455.28	326.30
455.65	323.86
456.02	321.45
456.38	319.31
456.75	316.64
457.12	314.43
457.49	312.20
457.86	310.01
458.23	308.17
458.59	306.12
458.96	304.10
459.33	302.31
459.70	300.49
460.07	298.97
460.43	297.29
460.80	295.71
461.17	294.25
461.54	292.74
461.91	291.33
462.27	289.89
462.64	288.62
463.01	287.32
463.38	286.04
463.74	284.66
464.11	283.52
464.48	282.54
464.85	281.46
465.21	280.64
465.58	279.77
465.95	278.72
466.32	277.83
466.68	276.92
467.05	276.03
467.42	275.12
467.78	274.23
468.15	273.38
468.52	272.74
468.88	271.92
469.25	271.15
469.62	270.54
469.98	269.90
470.35	269.32
470.72	268.72
471.08	268.07
471.45	267.56
471.82	267.05
472.18	266.45
472.55	266.05
472.92	265.53
473.28	265.07
473.65	264.60
474.02	264.20
474.38	263.86
474.75	263.57
475.11	263.26
475.48	263.00
475.85	262.82
476.21	262.59
476.58	262.41
476.94	262.30
477.31	262.14
477.67	261.99
478.04	261.88
478.41	261.81
478.77	261.87
479.14	261.82
479.50	261.82
479.87	261.93
480.23	262.00
480.60	262.09
480.96	262.17
481.33	262.42
481.69	262.58
482.06	262.78
482.42	262.97
482.79	263.25
483.15	263.59
483.52	263.97
483.88	264.30
484.25	264.68
484.61	265.12
484.98	265.56
485.34	266.13
485.71	266.69
486.07	267.32
486.44	267.89
486.80	268.60
487.17	269.35
487.53	270.17
487.90	270.99
488.26	271.94
488.62	272.92
488.99	273.87
489.35	274.93
489.72	276.05
490.08	277.25
490.44	278.46
490.81	279.79
491.17	281.11
491.54	282.60
491.90	284.13
492.26	285.75
492.63	287.46
492.99	289.24
493.36	291.11
493.72	293.17
494.08	295.26
494.45	297.48
494.81	299.79
495.17	302.18
495.54	304.71
495.90	307.36
496.26	310.12
496.63	313.07
496.99	316.16
497.35	319.38
497.72	322.74
498.08	326.23
498.44	329.88
498.80	333.77
499.17	337.77
499.53	341.87
499.89	346.24
500.26	350.70
500.62	355.29
500.98	360.19
501.34	365.17
501.71	370.42
502.07	375.78
502.43	381.36
502.79	387.14
503.16	393.22
503.52	399.49
503.88	405.84
504.24	412.39
504.60	419.22
504.97	426.30
505.33	433.53
505.69	441.17
506.05	448.88
506.41	456.66
506.78	464.72
507.14	473.12
507.50	481.68
507.86	490.62
508.22	499.72
508.59	508.85
508.95	518.32
509.31	528.08
509.67	538.12
510.03	548.26
510.39	558.66
510.75	569.31
511.12	580.01
511.48	591.22
511.84	602.53
512.20	613.86
512.56	625.61
512.92	637.57
513.28	649.73
513.64	661.97
514.00	674.54
514.37	687.27
514.73	700.14
515.09	713.01
515.45	726.03
515.81	739.40
516.17	753.16
516.53	767.08
516.89	781.03
517.25	794.91
517.61	809.09
517.97	823.34
518.33	837.49
518.69	852.01
519.05	866.70
519.41	881.58
519.77	896.79
520.13	911.90
520.49	927.07
520.85	942.08
521.21	957.47
521.57	973.30
521.93	988.77
522.29	1004.77
522.65	1020.66
523.01	1036.56
523.37	1052.32
523.73	1068.15
524.09	1083.91
524.45	1099.82
524.81	1116.10
525.17	1132.54
525.53	1148.99
525.89	1165.44
526.25	1181.90
526.61	1197.88
526.97	1214.26
527.33	1230.36
527.68	1246.61
528.04	1262.70
528.40	1278.89
528.76	1295.54
529.12	1311.70
529.48	1328.14
529.84	1343.82
530.20	1360.05
530.56	1376.56
530.91	1393.47
531.27	1409.87
531.63	1425.88
531.99	1442.05
532.35	1457.59
532.71	1473.13
533.07	1489.02
533.42	1504.65
533.78	1520.36
534.14	1536.16
534.50	1551.18
534.86	1566.76
535.21	1581.69
535.57	1597.05
535.93	1612.20
536.29	1626.71
536.65	1641.38
537.00	1655.79
537.36	1670.71
537.72	1684.89
538.08	1699.20
538.44	1712.64
538.79	1726.11
539.15	1739.33
539.51	1752.73
539.87	1766.78
540.22	1780.09
540.58	1793.49
540.94	1806.42
541.29	1818.84
541.65	1831.37
542.01	1844.13
542.37	1856.21
542.72	1868.24
543.08	1879.92
543.44	1892.02
543.79	1903.05
544.15	1913.84
544.51	1925.18
544.87	1935.91
545.22	1946.64
545.58	1956.54
545.94	1966.06
546.29	1975.66
546.65	1985.48
547.01	1994.69
547.36	2003.17
547.72	2011.58
548.07	2019.41
548.43	2027.40
548.79	2035.39
549.14	2042.88
549.50	2050.13
549.86	2057.50
550.21	2064.64
550.57	2071.73
550.92	2078.28
551.28	2085.25
551.64	2092.31
551.99	2098.83
552.35	2105.06
552.70	2111.07
553.06	2117.01
553.41	2123.41
553.77	2129.52
554.13	2135.56
554.48	2141.48
554.84	2147.29
555.19	2152.54
555.55	2157.71
555.90	2162.29
556.26	2167.37
556.61	2171.95
556.97	2176.42
557.32	2180.70
557.68	2184.96
558.03	2189.25
558.39	2193.06
558.74	2197.66
559.10	2201.51
559.45	2205.25
559.81	2209.43
560.16	2213.31
560.52	2216.64
560.87	2220.16
561.23	2222.93
561.58	2225.84
561.94	2228.64
562.29	2230.72
562.64	2233.66
563.00	2236.13
563.35	2239.65
563.71	2242.67
564.06	2245.98
564.42	2248.96
564.77	2251.61
565.12	2254.14
565.48	2256.20
565.83	2258.17
566.19	2259.72
566.54	2260.81
566.89	2262.14
567.25	2262.99
567.60	2264.34
567.96	2266.18
568.31	2267.06
568.66	2268.34
569.02	2269.09
569.37	2269.52
569.72	2270.77
570.08	2270.95
570.43	2271.25
570.78	2271.04
571.14	2269.66
571.49	2268.44
571.84	2268.15
572.20	2267.40
572.55	2266.33
572.90	2264.91
573.26	2263.64
573.61	2262.00
573.96	2260.63
574.31	2257.93
574.67	2255.16
575.02	2251.81
575.37	2248.62
575.72	2245.28
576.08	2241.95
576.43	2238.83
576.78	2235.43
577.13	2232.23
577.49	2229.25
577.84	2226.09
578.19	2222.35
578.54	2219.11
578.90	2215.33
579.25	2210.08
579.60	2205.23
579.95	2200.57
580.30	2195.80
580.66	2190.94
581.01	2186.24
581.36	2181.44
581.71	2177.56
582.06	2173.42
582.42	2169.24
582.77	2164.23
583.12	2159.84
583.47	2155.52
583.82	2150.81
584.17	2145.76
584.53	2140.53
584.88	2135.24
585.23	2129.70
585.58	2124.46
585.93	2119.14
586.28	2114.47
586.63	2109.65
586.98	2104.71
587.34	2100.05
587.69	2095.29
588.04	2090.31
588.39	2084.83
588.74	2078.52
589.09	2072.28
589.44	2065.56
589.79	2059.60
590.14	2054.16
590.49	2047.81
590.84	2041.54
591.19	2035.74
591.54	2029.52
591.89	2022.55
592.25	2016.00
592.60	2009.04
592.95	2001.90
593.30	1994.82
593.65	1987.41
594.00	1980.55
594.35	1973.47
594.70	1965.72
595.05	1958.92
595.40	1951.80
595.75	1944.58
596.10	1938.56
596.45	1932.18
596.80	1926.18
597.15	1919.79
597.50	1912.94
597.85	1906.46
598.19	1900.04
598.54	1893.22
598.89	1886.75
599.24	1880.83
599.59	1874.34
599.94	1868.23
600.29	1861.90
600.64	1855.44
600.99	1848.12
601.34	1841.49
601.69	1834.74
602.04	1828.13
602.39	1820.88
602.74	1814.23
603.08	1807.60
603.43	1800.96
603.78	1793.71
604.13	1786.60
604.48	1779.61
604.83	1772.95
605.18	1766.35
605.53	1758.54
605.87	1750.64
606.22	1743.43
606.57	1735.69
606.92	1728.28
607.27	1721.30
607.62	1714.49
607.96	1707.51
608.31	1701.24
608.66	1693.76
609.01	1686.31
609.36	1678.85
609.70	1670.96
610.05	1662.99
610.40	1655.47
610.75	1647.30
611.10	1639.81
611.44	1631.57
611.79	1623.55
612.14	1614.88
612.49	1605.64
612.83	1597.39
613.18	1589.34
613.53	1581.43
613.88	1572.99
614.22	1564.90
614.57	1556.27
614.92	1548.23
615.27	1540.63
615.61	1532.34
615.96	1524.30
616.31	1516.77
616.65	1509.46
617.00	1501.89
617.35	1494.24
617.70	1485.92
618.04	1477.52
618.39	1469.24
618.74	1461.65
619.08	1453.31
619.43	1445.76
619.78	1438.91
620.12	1431.86
620.47	1424.37
620.82	1416.10
621.16	1408.68
621.51	1401.07
621.85	1393.33
622.20	1384.99
622.55	1376.62
622.89	1368.76
623.24	1361.12
623.59	1353.65
623.93	1346.07
624.28	1338.85
624.62	1331.37
624.97	1324.24
625.32	1317.48
625.66	1310.54
626.01	1303.53
626.35	1296.32
626.70	1288.59
627.04	1280.96
627.39	1273.02
627.73	1265.54
628.08	1258.78
628.43	1251.59
628.77	1244.39
629.12	1237.06
629.46	1229.80
629.81	1222.41
630.15	1215.19
630.50	1207.85
630.84	1199.84
631.19	1191.94
631.53	1184.54
631.88	1177.05
632.22	1169.53
632.57	1162.23
632.91	1154.82
633.26	1147.39
633.60	1139.97
633.95	1132.79
634.29	1125.81
634.64	1119.20
634.98	1111.97
635.32	1104.78
635.67	1098.15
636.01	1091.51
636.36	1084.77
636.70	1078.30
637.05	1071.73
637.39	1065.26
637.73	1058.78
638.08	1052.83
638.42	1046.90
638.77	1040.51
639.11	1033.97
639.45	1027.60
639.80	1021.01
640.14	1014.63
640.49	1008.17
640.83	1001.92
641.17	995.87
641.52	989.55
641.86	983.10
642.20	977.22
642.55	970.92
642.89	964.55
643.23	957.90
643.58	952.13
643.92	946.04
644.26	940.08
644.61	934.05
644.95	928.10
645.29	921.71
645.64	915.06
645.98	908.69
646.32	902.83
646.66	896.75
647.01	890.97
647.35	885.20
647.69	879.29
648.04	873.70
648.38	867.91
648.72	862.00
649.06	855.98
649.41	850.22
649.75	844.37
650.09	838.46
650.43	832.78
650.78	826.71
651.12	820.86
651.46	815.16
651.80	809.51
652.14	804.13
652.49	798.72
652.83	793.55
653.17	788.02
653.51	782.35
653.85	776.98
654.20	771.43
654.54	765.55
654.88	759.93
655.22	754.06
655.56	748.39
655.90	742.93
656.25	737.82
656.59	732.45
656.93	727.31
657.27	722.23
657.61	716.83
657.95	711.74
658.29	706.68
658.64	701.44
658.98	696.19
659.32	690.80
659.66	685.64
660.00	680.39
660.34	675.43
660.68	670.57
661.02	665.58
661.36	660.88
661.70	656.41
662.05	652.11
662.39	647.86
662.73	643.43
663.07	639.04
663.41	634.59
663.75	630.15
664.09	625.61
664.43	621.17
664.77	617.12
665.11	612.95
665.45	608.77
665.79	604.70
666.13	600.58
666.47	596.50
666.81	592.32
667.15	588.20
667.49	584.24
667.83	580.40
668.17	576.45
668.51	572.41
668.85	568.33
669.19	564.42
669.53	560.64
669.87	556.78
670.21	553.13
670.55	549.46
670.89	546.05
671.23	542.73
671.57	539.25
671.91	535.69
672.25	532.08
672.58	528.59
672.92	525.16
673.26	521.99
673.60	518.85
673.94	515.78
674.28	512.86
674.62	509.95
674.96	506.88
675.30	504.03
675.64	501.15
675.97	498.42
676.31	495.56
676.65	492.60
676.99	489.93
677.33	487.06
677.67	484.28
678.01	481.21
678.34	478.22
678.68	475.34
679.02	472.55
679.36	469.85
679.70	467.18
680.04	464.51
680.37	461.64
680.71	458.81
681.05	456.16
681.39	453.47
681.73	450.82
682.06	448.30
682.40	445.73
682.74	443.21
683.08	440.65
683.42	438.10
683.75	435.63
684.09	433.06
684.43	430.63
684.77	428.16
685.10	425.86
685.44	423.56
685.78	421.28
686.12	419.05
686.45	416.71
686.79	414.44
687.13	412.19
687.46	410.07
687.80	407.99
688.14	405.75
688.48	403.67
688.81	401.46
689.15	399.24
689.49	397.11
689.82	395.00
690.16	392.92
690.50	390.97
690.83	389.00
691.17	387.02
691.51	385.10
691.84	383.20
692.18	381.25
692.52	379.25
692.85	377.36
693.19	375.49
693.52	373.70
693.86	371.84
694.20	370.05
694.53	368.25
694.87	366.36
695.21	364.62
695.54	362.83
695.88	361.15
696.21	359.50
696.55	357.85
696.88	356.13
697.22	354.40
697.56	352.76
697.89	351.15
698.23	349.58
698.56	347.96
698.90	346.46
699.23	344.82
699.57	343.32
699.90	341.75
700.24	340.21
700.58	338.69
700.91	337.24
701.25	335.80
701.58	334.45
701.92	333.12
702.25	331.76
702.59	330.41
702.92	329.03
703.26	327.74
703.59	326.44
703.93	325.29
704.26	324.11
704.60	322.87
704.93	321.62
705.26	320.38
705.60	319.21
705.93	318.03
706.27	317.05
706.60	315.97
706.94	314.91
707.27	313.77
707.61	312.70
707.94	311.67
708.27	310.57
708.61	309.49
708.94	308.48
709.28	307.45
709.61	306.46
709.94	305.50
710.28	304.47
710.61	303.50
710.95	302.41
711.28	301.50
711.61	300.51
711.95	299.57
712.28	298.63
712.61	297.65
712.95	296.72
713.28	295.78
713.61	294.88
713.95	294.01
714.28	293.17
714.61	292.28
714.95	291.43
715.28	290.60
715.61	289.67
715.95	288.80
716.28	287.95
716.61	287.11
716.95	286.30
717.28	285.53
717.61	284.80
717.94	284.09
718.28	283.23
718.61	282.51
718.94	281.79
719.27	281.11
719.61	280.48
719.94	279.81
720.27	279.09
720.60	278.44
720.94	277.79
721.27	277.20
721.60	276.59
721.93	275.95
722.27	275.38
722.60	274.87
722.93	274.28
723.26	273.76
723.59	273.23
723.93	272.65
724.26	272.07
724.59	271.47
724.92	270.95
725.25	270.47
725.59	269.91
725.92	269.40
726.25	268.89
726.58	268.37
726.91	267.86
727.24	267.38
727.57	266.90
727.91	266.34
728.24	265.86
728.57	265.39
728.90	264.95
729.23	264.45
729.56	263.97
729.89	263.53
730.22	263.03
730.55	262.54
730.89	262.10
731.22	261.68
731.55	261.22
731.88	260.77
732.21	260.37
732.54	259.96
732.87	259.59
733.20	259.17
733.53	258.78
733.86	258.42
734.19	258.04
734.52	257.71
734.85	257.45
735.18	257.04
735.51	256.72
735.84	256.35
736.17	256.05
736.50	255.67
736.83	255.44
737.16	255.15
737.49	254.83
737.82	254.50
738.15	254.19
738.48	253.92
738.81	253.60
739.14	253.30
739.47	252.97
739.80	252.68
740.13	252.37
740.46	252.09
740.79	251.75
741.12	251.45
741.45	251.09
741.78	250.75
742.11	250.47
742.44	250.13
742.77	249.88
743.10	249.57
743.43	249.32
743.75	248.93
744.08	248.78
744.41	248.53
744.74	248.25
745.07	247.99
745.40	247.70
745.73	247.47
746.06	247.17
746.39	246.91
746.71	246.65
747.04	246.38
747.37	246.09
747.70	245.88
748.03	245.61
748.36	245.41
748.68	245.17
749.01	244.96
749.34	244.73
749.67	244.48
750.00	244.27
750.33	244.06
750.65	243.84
750.98	243.48
751.31	243.23
751.64	243.00
751.97	242.83
752.29	242.64
752.62	242.40
752.95	242.20
753.28	241.99
753.60	241.75
753.93	241.60
754.26	241.41
754.59	241.17
754.91	240.98
755.24	240.78
755.57	240.56
755.90	240.34
756.22	240.14
756.55	239.94
756.88	239.70
757.20	239.46
757.53	239.25
757.86	239.08
758.19	238.93
758.51	238.76
758.84	238.52
759.17	238.33
759.49	238.16
759.82	238.04
760.15	237.91
760.47	237.76
760.80	237.57
761.13	237.40
761.45	237.24
761.78	237.06
762.11	236.92
762.43	236.76
762.76	236.58
763.08	236.46
763.41	236.32
763.74	236.18
764.06	236.07
764.39	235.96
764.71	235.83
765.04	235.66
765.37	235.54
765.69	235.41
766.02	235.30
766.34	235.16
766.67	235.01
767.00	234.89
767.32	234.79
767.65	234.75
767.97	234.62
768.30	234.53
768.62	234.42
768.95	234.28
769.27	234.20
769.60	234.12
769.92	233.98
770.25	233.89
770.57	233.79
770.90	233.65
771.22	233.53
771.55	233.40
771.87	233.32
772.20	233.25
772.52	233.24
772.85	233.25
773.17	233.17
773.50	233.06
773.82	232.99
774.15	232.86
774.47	232.71
774.80	232.62
775.12	232.54
775.45	232.51
775.77	232.44
776.09	232.37
776.42	232.31
776.74	232.29
777.07	232.19
777.39	232.16
777.72	232.11
778.04	232.09
778.36	232.03
778.69	231.96
779.01	231.90
779.33	231.77
779.66	231.59
779.98	231.52
780.31	231.45
780.63	231.42
780.95	231.38
781.28	231.30
781.60	231.22
781.92	231.17
782.25	231.08
782.57	231.03
782.89	230.95
783.22	230.90
783.54	230.81
783.86	230.76
784.19	230.69
784.51	230.64
784.83	230.56
785.16	230.50
785.48	230.48
785.80	230.41
786.12	230.33
786.45	230.30
786.77	230.26
787.09	230.24
787.42	230.16
787.74	230.13
788.06	230.09
788.38	230.06
788.71	229.98
789.03	229.94
789.35	229.89
789.67	229.83
789.99	229.78
790.32	229.76
790.64	229.73
790.96	229.73
791.28	229.69
791.61	229.64
791.93	229.64
792.25	229.54
792.57	229.56
792.89	229.53
793.21	229.52
793.54	229.44
793.86	229.35
794.18	229.32
794.50	229.26
794.82	229.22
795.14	229.21
795.47	229.20
795.79	229.19
796.11	229.17
796.43	229.15
796.75	229.10
797.07	229.07
797.39	229.03
797.71	228.97
798.04	228.91
798.36	228.89
798.68	228.83
799.00	228.87
799.32	228.78
799.64	228.75
799.96	228.70
800.28	228.71
800.60	228.70
800.92	228.66
801.24	228.59
801.56	228.59
801.89	228.55
802.21	228.52
802.53	228.47
802.85	228.46
803.17	228.44
803.49	228.40
803.81	228.33
804.13	228.32
804.45	228.22
804.77	228.21
805.09	228.15
805.41	228.10
805.73	228.00
806.05	227.95
806.37	227.94
806.69	227.89
807.01	227.83
807.33	227.81
807.65	227.77
807.97	227.80
808.28	227.76
808.60	227.70
808.92	227.66
809.24	227.68
809.56	227.63
809.88	227.58
810.20	227.54
810.52	227.55
810.84	227.53
811.16	227.51
811.48	227.51
811.80	227.54
812.12	227.52
812.43	227.55
812.75	227.56
813.07	227.50
813.39	227.47
813.71	227.44
814.03	227.39
814.35	227.38
814.67	227.32
814.98	227.26
815.30	227.25
815.62	227.25
815.94	227.13
816.26	227.15
816.58	227.12
816.89	227.16
817.21	227.10
817.53	227.08
817.85	227.08
818.17	227.04
818.48	226.99
818.80	227.04
819.12	227.00
819.44	226.95
819.76	226.93
820.07	226.92
820.39	226.93
820.71	226.94
821.03	226.93
821.34	226.90
821.66	226.94
821.98	226.93
822.30	226.91
822.61	226.98
822.93	226.94
823.25	226.90
823.57	226.86
823.88	226.88
824.20	226.85
824.52	226.86
824.83	226.86
825.15	226.87
825.47	226.81
825.79	226.82
826.10	226.79
826.42	226.82
826.74	226.84
827.05	226.82
827.37	226.83
827.69	226.78
828.00	226.77
828.32	226.77
828.64	226.72
828.95	226.76
829.27	226.72
829.58	226.69
829.90	226.70
830.22	226.73
830.53	226.68
830.85	226.66
831.17	226.62
831.48	226.56
831.80	226.54
832.11	226.53
832.43	226.49
832.75	226.48
833.06	226.50
833.38	226.46
833.69	226.45
834.01	226.43
834.32	226.44
834.64	226.42
834.96	226.38
835.27	226.40
835.59	226.36
835.90	226.32
836.22	226.28
836.53	226.28
836.85	226.19
837.16	226.29
837.48	226.26
837.79	226.27
838.11	226.30
838.42	226.24
838.74	226.23
839.05	226.19
839.37	226.22
839.68	226.15
840.00	226.10
840.31	226.08
840.63	226.04
840.94	226.02
841.26	226.02
841.57	226.03
841.88	226.01
842.20	225.99
842.51	225.98
842.83	226.00
843.14	226.05
843.46	226.10
843.77	226.03
844.08	226.03
844.40	226.01
844.71	225.99
845.03	226.02
845.34	226.03
845.65	226.03
845.97	226.00
846.28	226.03
846.60	226.08
846.91	226.08
847.22	226.07
847.54	226.10
847.85	226.09
848.16	226.07
848.48	226.08
848.79	226.11
849.10	226.13
849.42	226.13
849.73	226.07
850.04	226.06
850.36	226.03
850.67	226.05
850.98	226.06
851.30	226.05
851.61	226.03
851.92	226.02
852.23	226.08
852.55	226.09
852.86	226.07
853.17	226.04
853.49	226.07
853.80	226.11
854.11	226.11
854.42	226.13
854.74	226.15
855.05	226.12
855.36	226.06
855.67	226.08
855.99	226.11
856.30	226.24
856.61	226.25
856.92	226.23
857.23	226.26
857.55	226.26
857.86	226.25
858.17	226.25
858.48	226.26
858.79	226.21
859.11	226.23
859.42	226.24
859.73	226.27
860.04	226.24
860.35	226.19
860.66	226.16
860.98	226.17
861.29	226.15
861.60	226.18
861.91	226.19
862.22	226.14
862.53	226.07
862.84	225.93
863.16	225.93
863.47	225.91
863.78	225.88
864.09	225.86
864.40	225.88
864.71	225.88
865.02	225.88
865.33	225.86
865.64	225.82
865.95	225.79
866.27	225.81
866.58	225.83
866.89	225.84
867.20	225.83
867.51	225.79
867.82	225.77
868.13	225.73
868.44	225.68
868.75	225.73
869.06	225.74
869.37	225.73
869.68	225.68
869.99	225.71
870.30	225.70
870.61	225.68
870.92	225.63
871.23	225.59
871.54	225.60
871.85	225.63
872.16	225.64
872.47	225.64
872.78	225.56
873.09	225.52
873.40	225.49
873.71	225.48
874.02	225.47
874.33	225.46
874.64	225.47
874.95	225.52
875.26	225.45
875.56	225.44
875.87	225.42
876.18	225.42
876.49	225.52
876.80	225.49
877.11	225.49
877.42	225.49
877.73	225.49
878.04	225.45
878.35	225.44
878.66	225.45
878.96	225.43
879.27	225.46
879.58	225.48
879.89	225.45
880.20	225.46
880.51	225.47
880.82	225.46
881.12	225.48
881.43	225.41
881.74	225.41
882.05	225.41
882.36	225.44
882.67	225.42
882.97	225.28
883.28	225.30
883.59	225.29
883.90	225.30
884.21	225.34
884.51	225.34
884.82	225.30
885.13	225.30
885.44	225.29
885.74	225.28
886.05	225.25
886.36	225.27
886.67	225.26
886.98	225.31
887.28	225.33
887.59	225.30
887.90	225.35
888.20	225.37
888.51	225.42
888.82	225.41
889.13	225.40
889.43	225.52
889.74	225.54
890.05	225.56
890.35	225.56
890.66	225.52
890.97	225.49
891.28	225.49
891.58	225.46
891.89	225.49
892.20	225.49
892.50	225.51
892.81	225.49
893.12	225.51
893.42	225.43
893.73	225.43
894.04	225.45
894.34	225.48
894.65	225.47
894.95	225.45
895.26	225.47
895.57	225.52
895.87	225.42
896.18	225.45
896.48	225.45
896.79	225.45
897.10	225.47
897.40	225.52
897.71	225.55
898.01	225.59
898.32	225.60
898.63	225.62
898.93	225.61
899.24	225.63
899.54	225.63
899.85	225.67
900.15	225.66
900.46	225.63
900.76	225.62
901.07	225.61
901.38	225.58
901.68	225.58
901.99	225.55
902.29	225.56
902.60	225.53
902.90	225.55
903.21	225.56
903.51	225.55
903.82	225.53
904.12	225.52
904.43	225.50
904.73	225.48
905.03	225.47
905.34	225.57
905.64	225.56
905.95	225.53
906.25	225.52
906.56	225.53
906.86	225.54
907.17	225.52
907.47	225.51
907.77	225.51
908.08	225.49
908.38	225.50
908.69	225.51
908.99	225.51
909.30	225.48
909.60	225.48
909.90	225.50
910.21	225.46
910.51	225.47
910.81	225.48
911.12	225.49
911.42	225.49
911.73	225.38
912.03	225.38
912.33	225.42
912.64	225.45
912.94	225.44
913.24	225.43
913.55	225.43
913.85	225.43
914.15	225.47
914.46	225.47
914.76	225.46
915.06	225.44
915.37	225.45
915.67	225.50
915.97	225.48
916.27	225.47
916.58	225.48
916.88	225.48
917.18	225.45
917.49	225.51
917.79	225.52
918.09	225.55
918.39	225.57
918.70	225.56
919.00	225.54
919.30	225.58
919.60	225.60
919.91	225.59
920.21	225.61
920.51	225.56
920.81	225.55
921.12	225.58
921.42	225.58
921.72	225.57
922.02	225.53
922.32	225.55
922.63	225.52
922.93	225.59
923.23	225.58
923.53	225.58
923.83	225.52
924.13	225.53
924.44	225.49
924.74	225.51
925.04	225.53
925.34	225.54
925.64	225.51
925.94	225.52
926.24	225.57
926.55	225.57
926.85	225.59
927.15	225.62
927.45	225.58
927.75	225.59
928.05	225.58
928.35	225.57
928.65	225.59
928.95	225.62
929.26	225.58
929.56	225.60
929.86	225.62
930.16	225.58
930.46	225.58
930.76	225.60
931.06	225.55
931.36	225.54
931.66	225.55
931.96	225.56
932.26	225.55
932.56	225.47
932.86	225.49
933.16	225.51
933.46	225.50
933.76	225.52
934.06	225.52
934.36	225.56
934.66	225.59
934.96	225.55
935.26	225.57
935.56	225.57
935.86	225.52
936.16	225.49
936.46	225.52
936.76	225.50
937.06	225.50
937.36	225.49
937.66	225.47
937.96	225.43
938.26	225.41
938.56	225.37
938.86	225.40
939.16	225.40
939.46	225.40
939.76	225.40
940.06	225.37
940.35	225.33
940.65	225.27
940.95	225.28
941.25	225.24
941.55	225.21
941.85	225.22
942.15	225.26
942.45	225.28
942.75	225.26
943.04	225.28
943.34	225.27
943.64	225.26
943.94	225.24
944.24	225.24
944.54	225.25
944.84	225.26
945.13	225.24
945.43	225.20
945.73	225.14
946.03	225.11
946.33	225.08
946.62	225.07
946.92	225.07
947.22	225.05
947.52	225.06
947.82	225.06
948.11	225.02
948.41	224.96
948.71	224.90
949.01	224.91
949.31	224.89
949.60	224.83
949.90	224.85
950.20	224.83
950.50	224.82
950.79	224.80
951.09	224.81
951.39	224.82
951.69	224.82
951.98	224.85
952.28	224.84
952.58	224.84
952.87	224.83
953.17	224.84
953.47	224.84
953.76	224.83
954.06	224.83
954.36	224.82
954.66	224.87
954.95	224.91
955.25	224.91
955.55	224.92
955.84	224.97
956.14	224.98
956.44	225.01
956.73	225.01
957.03	225.05
957.32	225.05
957.62	225.04
957.92	225.04
958.21	225.06
958.51	225.21
958.81	225.24
959.10	225.28
959.40	225.31
959.69	225.32
959.99	225.35
960.29	225.33
960.58	225.33
960.88	225.35
961.17	225.38
961.47	225.38
961.76	225.38
962.06	225.40
962.36	225.41
962.65	225.45
962.95	225.45
963.24	225.41
963.54	225.44
963.83	225.48
964.13	225.52
964.42	225.47
964.72	225.38
965.01	225.39
965.31	225.39
965.60	225.37
965.90	225.44
966.19	225.46
966.49	225.49
966.78	225.49
967.08	225.51
967.37	225.46
967.67	225.45
967.96	225.50
968.26	225.51
968.55	225.53
968.85	225.51
969.14	225.54
969.43	225.56
969.73	225.56
970.02	225.51
970.32	225.50
970.61	225.51
970.91	225.47
971.20	225.47
971.49	225.45
971.79	225.46
972.08	225.40
972.38	225.37
972.67	225.37
972.96	225.40
973.26	225.38
973.55	225.45
973.85	225.45
974.14	225.42
974.43	225.42
974.73	225.40
975.02	225.37
975.31	225.36
975.61	225.35
975.90	225.30
976.19	225.31
976.49	225.30
976.78	225.29
977.07	225.31
977.37	225.30
977.66	225.32
977.95	225.30
978.24	225.30
978.54	225.31
978.83	225.31
979.12	225.28
979.42	225.27
979.71	225.23
980.00	225.21
980.29	225.20
980.59	225.14
980.88	225.15
981.17	225.13
981.46	225.09
981.76	225.08
982.05	225.13
982.34	225.10
982.63	225.07
982.93	225.09
983.22	225.11
983.51	225.09
983.80	225.09
984.09	225.09
984.39	225.09
984.68	225.06
984.97	225.09
985.26	225.11
985.55	225.11
985.85	225.07
986.14	225.10
986.43	225.14
986.72	225.14
987.01	225.09
987.30	225.09
987.59	225.11
987.89	225.11
988.18	225.05
988.47	225.07
988.76	225.09
989.05	225.07
989.34	225.06
989.63	225.09
989.92	225.08
990.22	225.07
990.51	225.03
990.80	225.02
991.09	225.00
991.38	224.98
991.67	224.99
991.96	225.01
992.25	224.98
992.54	224.94
992.83	224.96
993.12	224.98
993.41	225.02
993.70	225.07
993.99	225.09
994.28	225.13
994.58	225.14
994.87	225.14
995.16	225.13
995.45	225.13
995.74	225.08
996.03	225.11
996.32	225.15
996.61	225.18
996.90	225.21
997.19	225.19
997.48	225.21
997.77	225.19
998.06	225.22
998.34	225.25
998.63	225.25
998.92	225.26
999.21	225.27
999.50	225.27
999.79	225.24
1000.08	225.26
1000.37	225.28
1000.66	225.25
1000.95	225.29
1001.24	225.30
1001.53	225.33
1001.82	225.34
1002.11	225.30
1002.40	225.28
1002.68	225.34
1002.97	225.42
1003.26	225.43
1003.55	225.44
1003.84	225.43
1004.13	225.45
1004.42	225.43
1004.71	225.45
1004.99	225.44
1005.28	225.43
1005.57	225.41
1005.86	225.41
1006.15	225.40
1006.44	225.38
1006.72	225.43
1007.01	225.41
1007.30	225.44
1007.59	225.41
1007.88	225.43
1008.17	225.44
1008.45	225.41
1008.74	225.34
1009.03	225.28
1009.32	225.26
1009.60	225.25
1009.89	225.25
1010.18	225.19
1010.47	225.18
1010.76	225.16
1011.04	225.16
1011.33	225.23
1011.62	225.24
1011.91	225.26
1012.19	225.23
1012.48	225.20
1012.77	225.19
1013.05	225.21
1013.34	225.18
1013.63	225.18
1013.92	225.16
1014.20	225.12
1014.49	225.15
1014.78	225.16
1015.06	225.12
1015.35	225.15
1015.64	225.17
1015.92	225.18
1016.21	225.17
1016.50	225.16
1016.78	225.16
1017.07	225.16
1017.36	225.07
1017.64	225.05
1017.93	225.01
1018.22	225.02
1018.50	225.03
1018.79	225.02
1019.08	224.97
1019.36	224.97
1019.65	224.94
1019.93	224.98
1020.22	224.99
1020.51	225.03
1020.79	225.01
1021.08	224.88
1021.36	224.85
1021.65	225.18
1021.94	224.91
1022.22	224.87
1022.51	224.58
1022.79	225.58
1023.08	224.68
1023.36	226.17
1023.65	224.85
>>>>>End Processed Spectral Data<<<<<
