SpectraSuite Data File
++++++++++++++++++++++++++++++++++++
Date: Fri Feb 01 16:32:15 EST 2013
User: group
Dark Spectrum Present: No
Reference Spectrum Present: No
Number of Sampled Component Spectra: 1
Spectrometers: USB2E7196
Integration Time (usec): 35000 (USB2E7196)
Spectra Averaged: 100 (USB2E7196)
Boxcar Smoothing: 10 (USB2E7196)
Correct for Electrical Dark: No (USB2E7196)
Strobe/Lamp Enabled: No (USB2E7196)
Correct for Detector Non-linearity: No (USB2E7196)
Correct for Stray Light: No (USB2E7196)
Number of Pixels in Processed Spectrum: 2048
>>>>>Begin Processed Spectral Data<<<<<
339.09	0.00
339.48	213.95
339.86	215.54
340.24	216.85
340.63	217.82
341.01	221.14
341.39	220.81
341.78	222.12
342.16	223.28
342.54	223.69
342.93	212.21
343.31	222.95
343.69	223.48
344.07	223.93
344.46	224.35
344.84	224.76
345.22	224.97
345.60	225.23
345.99	225.42
346.37	225.55
346.75	225.66
347.13	225.75
347.52	225.84
347.90	225.93
348.28	225.97
348.66	226.03
349.05	226.05
349.43	226.17
349.81	226.19
350.19	226.24
350.57	226.31
350.96	226.44
351.34	226.53
351.72	226.65
352.10	226.74
352.48	226.82
352.87	226.88
353.25	226.96
353.63	227.03
354.01	227.11
354.39	227.21
354.77	227.31
355.15	227.40
355.54	227.47
355.92	227.49
356.30	227.56
356.68	227.66
357.06	227.71
357.44	227.74
357.82	227.83
358.20	227.92
358.58	227.98
358.97	228.01
359.35	228.05
359.73	228.14
360.11	228.20
360.49	228.24
360.87	228.29
361.25	228.33
361.63	228.41
362.01	228.45
362.39	228.48
362.77	228.48
363.15	228.53
363.53	228.51
363.91	228.56
364.29	228.59
364.67	228.50
365.05	228.53
365.43	228.55
365.81	228.55
366.19	228.58
366.57	228.60
366.95	228.57
367.33	228.60
367.71	228.54
368.09	228.53
368.47	228.52
368.85	228.48
369.23	228.51
369.61	228.45
369.99	228.44
370.37	228.41
370.75	228.43
371.13	228.35
371.51	228.34
371.89	228.29
372.27	228.24
372.65	228.18
373.03	228.11
373.41	228.04
373.78	227.95
374.16	227.82
374.54	227.73
374.92	227.70
375.30	227.58
375.68	227.51
376.06	227.45
376.44	227.38
376.82	227.36
377.19	227.27
377.57	227.19
377.95	227.10
378.33	227.00
378.71	226.87
379.09	226.81
379.47	226.76
379.84	226.67
380.22	226.61
380.60	226.54
380.98	226.47
381.36	226.39
381.73	226.33
382.11	226.32
382.49	226.26
382.87	226.16
383.25	226.16
383.62	226.20
384.00	226.14
384.38	226.05
384.76	225.98
385.13	225.99
385.51	225.93
385.89	225.86
386.27	225.84
386.64	225.80
387.02	225.79
387.40	225.70
387.78	225.71
388.15	225.69
388.53	225.67
388.91	225.67
389.29	225.65
389.66	225.66
390.04	225.63
390.42	225.65
390.79	225.63
391.17	225.62
391.55	225.49
391.92	225.49
392.30	225.52
392.68	225.54
393.05	225.49
393.43	225.51
393.81	225.52
394.18	225.51
394.56	225.53
394.94	225.56
395.31	225.60
395.69	225.64
396.06	225.67
396.44	225.73
396.82	225.73
397.19	225.83
397.57	225.85
397.95	225.92
398.32	225.93
398.70	225.98
399.07	226.02
399.45	226.10
399.82	226.18
400.20	226.22
400.58	226.26
400.95	226.30
401.33	226.41
401.70	226.58
402.08	226.66
402.45	226.76
402.83	226.88
403.20	226.99
403.58	227.06
403.95	227.17
404.33	227.29
404.71	227.43
405.08	227.61
405.46	227.76
405.83	227.88
406.21	228.00
406.58	228.19
406.96	228.35
407.33	228.49
407.70	228.66
408.08	228.93
408.45	229.15
408.83	229.38
409.20	229.54
409.58	229.69
409.95	229.96
410.33	230.18
410.70	230.39
411.08	230.69
411.45	231.00
411.82	231.29
412.20	231.58
412.57	232.00
412.95	232.24
413.32	232.63
413.69	233.03
414.07	233.45
414.44	233.91
414.82	234.40
415.19	234.97
415.56	235.52
415.94	236.03
416.31	236.63
416.68	237.27
417.06	237.99
417.43	238.65
417.81	239.37
418.18	240.19
418.55	241.04
418.93	241.86
419.30	242.71
419.67	243.67
420.04	244.63
420.42	245.58
420.79	246.76
421.16	247.90
421.54	249.10
421.91	250.29
422.28	251.53
422.66	252.81
423.03	254.09
423.40	255.42
423.77	256.81
424.15	258.24
424.52	259.70
424.89	261.30
425.26	262.87
425.64	264.31
426.01	265.87
426.38	267.51
426.75	269.20
427.13	270.93
427.50	272.70
427.87	274.60
428.24	276.50
428.61	278.26
428.99	280.19
429.36	282.30
429.73	284.40
430.10	286.43
430.47	288.49
430.85	290.64
431.22	292.85
431.59	295.27
431.96	297.50
432.33	300.02
432.70	302.40
433.08	305.25
433.45	307.90
433.82	310.52
434.19	313.38
434.56	316.15
434.93	318.77
435.30	321.40
435.68	324.25
436.05	327.04
436.42	329.81
436.79	332.30
437.16	334.97
437.53	337.75
437.90	340.52
438.27	343.22
438.64	345.98
439.01	348.55
439.38	350.76
439.75	352.91
440.13	355.33
440.50	357.63
440.87	359.41
441.24	361.34
441.61	363.46
441.98	364.91
442.35	366.74
442.72	368.63
443.09	370.38
443.46	371.38
443.83	371.94
444.20	372.48
444.57	373.35
444.94	373.60
445.31	373.98
445.68	374.30
446.05	374.39
446.42	374.07
446.79	373.68
447.16	373.24
447.53	372.91
447.90	371.77
448.27	370.62
448.64	369.01
449.01	367.85
449.37	365.89
449.74	364.01
450.11	361.75
450.48	359.27
450.85	356.79
451.22	354.65
451.59	352.66
451.96	350.73
452.33	348.08
452.70	345.73
453.07	342.87
453.43	340.03
453.80	337.26
454.17	334.56
454.54	332.01
454.91	329.29
455.28	326.61
455.65	324.10
456.02	321.67
456.38	319.57
456.75	316.93
457.12	314.71
457.49	312.52
457.86	310.36
458.23	308.53
458.59	306.50
458.96	304.43
459.33	302.61
459.70	300.70
460.07	299.26
460.43	297.57
460.80	295.96
461.17	294.52
461.54	293.07
461.91	291.66
462.27	290.23
462.64	288.97
463.01	287.65
463.38	286.37
463.74	285.00
464.11	283.84
464.48	282.80
464.85	281.69
465.21	280.82
465.58	279.91
465.95	278.83
466.32	277.92
466.68	277.04
467.05	276.16
467.42	275.32
467.78	274.41
468.15	273.57
468.52	272.94
468.88	272.10
469.25	271.36
469.62	270.76
469.98	270.09
470.35	269.49
470.72	268.90
471.08	268.30
471.45	267.81
471.82	267.29
472.18	266.76
472.55	266.35
472.92	265.87
473.28	265.43
473.65	265.00
474.02	264.57
474.38	264.23
474.75	263.90
475.11	263.57
475.48	263.30
475.85	263.04
476.21	262.82
476.58	262.68
476.94	262.56
477.31	262.41
477.67	262.30
478.04	262.25
478.41	262.21
478.77	262.25
479.14	262.22
479.50	262.22
479.87	262.29
480.23	262.39
480.60	262.49
480.96	262.62
481.33	262.86
481.69	263.08
482.06	263.29
482.42	263.52
482.79	263.79
483.15	264.10
483.52	264.52
483.88	264.89
484.25	265.24
484.61	265.64
484.98	266.09
485.34	266.65
485.71	267.22
486.07	267.85
486.44	268.42
486.80	269.11
487.17	269.85
487.53	270.65
487.90	271.49
488.26	272.44
488.62	273.41
488.99	274.37
489.35	275.47
489.72	276.59
490.08	277.77
490.44	279.00
490.81	280.34
491.17	281.69
491.54	283.16
491.90	284.72
492.26	286.40
492.63	288.15
492.99	289.92
493.36	291.83
493.72	293.87
494.08	296.01
494.45	298.24
494.81	300.60
495.17	303.06
495.54	305.66
495.90	308.33
496.26	311.11
496.63	314.03
496.99	317.13
497.35	320.36
497.72	323.77
498.08	327.29
498.44	330.97
498.80	334.88
499.17	338.94
499.53	343.15
499.89	347.50
500.26	351.97
500.62	356.60
500.98	361.58
501.34	366.68
501.71	372.04
502.07	377.49
502.43	383.16
502.79	388.98
503.16	394.98
503.52	401.24
503.88	407.68
504.24	414.36
504.60	421.20
504.97	428.36
505.33	435.72
505.69	443.47
506.05	451.26
506.41	459.14
506.78	467.31
507.14	475.72
507.50	484.46
507.86	493.54
508.22	502.78
508.59	511.97
508.95	521.53
509.31	531.35
509.67	541.40
510.03	551.70
510.39	562.27
510.75	573.10
511.12	584.04
511.48	595.33
511.84	606.70
512.20	618.27
512.56	630.19
512.92	642.34
513.28	654.68
513.64	667.12
514.00	679.81
514.37	692.68
514.73	705.73
515.09	718.76
515.45	732.01
515.81	745.62
516.17	759.60
516.53	773.68
516.89	787.73
517.25	801.96
517.61	816.39
517.97	830.72
518.33	845.10
518.69	859.86
519.05	874.73
519.41	889.85
519.77	905.29
520.13	920.67
520.49	935.97
520.85	951.34
521.21	967.01
521.57	983.24
521.93	998.91
522.29	1015.29
522.65	1031.49
523.01	1047.63
523.37	1063.60
523.73	1079.64
524.09	1095.62
524.45	1111.83
524.81	1128.31
525.17	1145.04
525.53	1162.00
525.89	1178.82
526.25	1195.55
526.61	1211.96
526.97	1228.70
527.33	1245.10
527.68	1261.53
528.04	1277.91
528.40	1294.27
528.76	1311.15
529.12	1327.72
529.48	1344.67
529.84	1360.45
530.20	1376.83
530.56	1393.81
530.91	1411.10
531.27	1427.69
531.63	1444.06
531.99	1460.56
532.35	1476.41
532.71	1492.14
533.07	1508.25
533.42	1523.92
533.78	1539.86
534.14	1556.13
534.50	1571.36
534.86	1587.08
535.21	1602.33
535.57	1618.20
535.93	1633.76
536.29	1648.53
536.65	1663.39
537.00	1677.85
537.36	1693.10
537.72	1707.59
538.08	1721.82
538.44	1735.48
538.79	1749.38
539.15	1763.03
539.51	1776.72
539.87	1791.06
540.22	1804.60
540.58	1818.20
540.94	1831.62
541.29	1844.36
541.65	1856.86
542.01	1869.91
542.37	1882.31
542.72	1894.64
543.08	1906.27
543.44	1918.37
543.79	1929.49
544.15	1940.35
544.51	1951.94
544.87	1962.89
545.22	1973.67
545.58	1983.66
545.94	1993.23
546.29	2003.02
546.65	2012.91
547.01	2022.19
547.36	2030.75
547.72	2039.23
548.07	2046.97
548.43	2054.98
548.79	2063.04
549.14	2070.47
549.50	2077.79
549.86	2085.17
550.21	2092.51
550.57	2099.59
550.92	2106.23
551.28	2113.20
551.64	2120.26
551.99	2126.69
552.35	2132.71
552.70	2138.73
553.06	2144.80
553.41	2151.16
553.77	2157.19
554.13	2163.05
554.48	2169.09
554.84	2174.60
555.19	2179.78
555.55	2184.94
555.90	2189.42
556.26	2194.24
556.61	2199.06
556.97	2203.32
557.32	2207.54
557.68	2211.49
558.03	2215.87
558.39	2219.54
558.74	2224.23
559.10	2228.16
559.45	2231.83
559.81	2236.06
560.16	2239.98
560.52	2243.29
560.87	2246.76
561.23	2249.39
561.58	2252.37
561.94	2254.82
562.29	2257.12
562.64	2259.94
563.00	2262.48
563.35	2265.96
563.71	2268.95
564.06	2272.13
564.42	2275.00
564.77	2277.56
565.12	2280.00
565.48	2281.80
565.83	2283.71
566.19	2285.00
566.54	2285.84
566.89	2287.12
567.25	2287.75
567.60	2289.04
567.96	2290.66
568.31	2291.45
568.66	2292.54
569.02	2293.22
569.37	2293.60
569.72	2294.62
570.08	2294.85
570.43	2295.08
570.78	2294.62
571.14	2293.28
571.49	2292.06
571.84	2291.81
572.20	2290.82
572.55	2289.77
572.90	2288.35
573.26	2287.06
573.61	2285.48
573.96	2283.79
574.31	2280.83
574.67	2278.09
575.02	2274.64
575.37	2271.41
575.72	2267.88
576.08	2264.68
576.43	2261.29
576.78	2257.73
577.13	2254.53
577.49	2251.35
577.84	2247.86
578.19	2244.16
578.54	2240.57
578.90	2236.31
579.25	2230.81
579.60	2225.85
579.95	2220.95
580.30	2216.12
580.66	2211.08
581.01	2206.33
581.36	2201.51
581.71	2197.53
582.06	2193.13
582.42	2188.72
582.77	2183.67
583.12	2179.11
583.47	2174.43
583.82	2169.65
584.17	2164.54
584.53	2159.12
584.88	2153.65
585.23	2148.01
585.58	2142.64
585.93	2137.39
586.28	2132.74
586.63	2127.72
586.98	2122.80
587.34	2117.97
587.69	2113.04
588.04	2107.84
588.39	2102.06
588.74	2095.63
589.09	2089.40
589.44	2082.66
589.79	2076.77
590.14	2071.21
590.49	2064.70
590.84	2058.47
591.19	2052.38
591.54	2045.87
591.89	2038.59
592.25	2031.78
592.60	2024.60
592.95	2017.14
593.30	2009.75
593.65	2002.16
594.00	1995.36
594.35	1988.09
594.70	1980.17
595.05	1973.08
595.40	1965.77
595.75	1958.39
596.10	1952.36
596.45	1945.70
596.80	1939.53
597.15	1932.74
597.50	1925.58
597.85	1919.16
598.19	1912.48
598.54	1905.35
598.89	1898.81
599.24	1893.03
599.59	1886.51
599.94	1880.34
600.29	1874.01
600.64	1867.44
600.99	1860.08
601.34	1853.18
601.69	1846.30
602.04	1839.63
602.39	1832.26
602.74	1825.47
603.08	1818.65
603.43	1811.80
603.78	1804.58
604.13	1797.34
604.48	1790.16
604.83	1783.29
605.18	1776.29
605.53	1768.24
605.87	1760.42
606.22	1753.30
606.57	1745.26
606.92	1738.07
607.27	1731.04
607.62	1724.10
607.96	1716.93
608.31	1710.31
608.66	1702.67
609.01	1695.11
609.36	1687.47
609.70	1679.55
610.05	1671.62
610.40	1664.07
610.75	1655.76
611.10	1648.11
611.44	1639.70
611.79	1631.83
612.14	1623.18
612.49	1614.01
612.83	1605.83
613.18	1597.75
613.53	1589.54
613.88	1581.04
614.22	1572.61
614.57	1563.91
614.92	1555.96
615.27	1548.33
615.61	1539.97
615.96	1531.95
616.31	1524.29
616.65	1516.89
617.00	1509.28
617.35	1501.65
617.70	1493.22
618.04	1484.85
618.39	1476.61
618.74	1469.12
619.08	1460.80
619.43	1453.23
619.78	1446.41
620.12	1439.17
620.47	1431.60
620.82	1423.47
621.16	1416.13
621.51	1408.55
621.85	1400.95
622.20	1392.40
622.55	1384.08
622.89	1376.33
623.24	1368.73
623.59	1361.37
623.93	1353.85
624.28	1346.65
624.62	1338.99
624.97	1331.97
625.32	1325.18
625.66	1318.17
626.01	1311.03
626.35	1303.53
626.70	1295.84
627.04	1288.14
627.39	1280.41
627.73	1272.96
628.08	1266.04
628.43	1258.68
628.77	1251.26
629.12	1243.83
629.46	1236.77
629.81	1229.28
630.15	1221.92
630.50	1214.54
630.84	1206.32
631.19	1198.38
631.53	1190.89
631.88	1183.38
632.22	1175.63
632.57	1168.24
632.91	1160.63
633.26	1153.19
633.60	1145.81
633.95	1138.71
634.29	1131.67
634.64	1124.95
634.98	1117.67
635.32	1110.46
635.67	1103.78
636.01	1097.15
636.36	1090.19
636.70	1083.54
637.05	1077.00
637.39	1070.57
637.73	1063.99
638.08	1058.14
638.42	1052.11
638.77	1045.59
639.11	1038.99
639.45	1032.64
639.80	1026.02
640.14	1019.59
640.49	1013.06
640.83	1006.73
641.17	1000.41
641.52	993.97
641.86	987.40
642.20	981.42
642.55	975.14
642.89	968.72
643.23	962.16
643.58	956.43
643.92	950.14
644.26	943.96
644.61	937.96
644.95	931.91
645.29	925.31
645.64	918.54
645.98	912.20
646.32	906.30
646.66	900.22
647.01	894.37
647.35	888.67
647.69	882.83
648.04	877.34
648.38	871.60
648.72	865.68
649.06	859.72
649.41	853.85
649.75	847.92
650.09	842.00
650.43	836.23
650.78	830.08
651.12	824.23
651.46	818.63
651.80	812.91
652.14	807.52
652.49	802.18
652.83	797.07
653.17	791.36
653.51	785.67
653.85	780.33
654.20	774.66
654.54	768.71
654.88	762.91
655.22	756.96
655.56	751.18
655.90	745.71
656.25	740.49
656.59	735.17
656.93	729.98
657.27	724.76
657.61	719.33
657.95	714.20
658.29	709.16
658.64	703.90
658.98	698.56
659.32	693.24
659.66	687.96
660.00	682.65
660.34	677.74
660.68	672.82
661.02	667.75
661.36	663.15
661.70	658.63
662.05	654.29
662.39	650.01
662.73	645.61
663.07	641.24
663.41	636.73
663.75	632.26
664.09	627.75
664.43	623.38
664.77	619.30
665.11	615.03
665.45	610.81
665.79	606.71
666.13	602.56
666.47	598.39
666.81	594.28
667.15	590.18
667.49	586.31
667.83	582.52
668.17	578.62
668.51	574.49
668.85	570.43
669.19	566.58
669.53	562.71
669.87	558.85
670.21	555.10
670.55	551.51
670.89	548.04
671.23	544.65
671.57	541.14
671.91	537.52
672.25	534.04
672.58	530.58
672.92	527.16
673.26	524.00
673.60	520.84
673.94	517.68
674.28	514.73
674.62	511.79
674.96	508.67
675.30	505.80
675.64	502.86
675.97	500.03
676.31	497.14
676.65	494.17
676.99	491.43
677.33	488.56
677.67	485.74
678.01	482.70
678.34	479.69
678.68	476.82
679.02	474.01
679.36	471.22
679.70	468.47
680.04	465.70
680.37	462.81
680.71	460.01
681.05	457.35
681.39	454.64
681.73	451.95
682.06	449.38
682.40	446.77
682.74	444.24
683.08	441.74
683.42	439.18
683.75	436.69
684.09	434.06
684.43	431.63
684.77	429.11
685.10	426.78
685.44	424.42
685.78	422.12
686.12	419.87
686.45	417.56
686.79	415.25
687.13	413.03
687.46	410.82
687.80	408.67
688.14	406.44
688.48	404.39
688.81	402.13
689.15	399.97
689.49	397.79
689.82	395.70
690.16	393.59
690.50	391.64
690.83	389.70
691.17	387.79
691.51	385.82
691.84	384.00
692.18	382.08
692.52	380.12
692.85	378.25
693.19	376.39
693.52	374.57
693.86	372.74
694.20	371.01
694.53	369.25
694.87	367.40
695.21	365.68
695.54	363.80
695.88	362.06
696.21	360.33
696.55	358.66
696.88	357.00
697.22	355.32
697.56	353.67
697.89	352.00
698.23	350.40
698.56	348.80
698.90	347.22
699.23	345.55
699.57	344.02
699.90	342.44
700.24	340.90
700.58	339.38
700.91	337.89
701.25	336.45
701.58	335.09
701.92	333.74
702.25	332.32
702.59	331.02
702.92	329.72
703.26	328.47
703.59	327.24
703.93	326.06
704.26	324.84
704.60	323.58
704.93	322.32
705.26	321.07
705.60	319.93
705.93	318.74
706.27	317.72
706.60	316.69
706.94	315.57
707.27	314.46
707.61	313.38
707.94	312.38
708.27	311.27
708.61	310.16
708.94	309.14
709.28	308.17
709.61	307.22
709.94	306.26
710.28	305.20
710.61	304.16
710.95	303.06
711.28	302.15
711.61	301.21
711.95	300.31
712.28	299.37
712.61	298.37
712.95	297.46
713.28	296.57
713.61	295.67
713.95	294.78
714.28	293.93
714.61	293.07
714.95	292.23
715.28	291.43
715.61	290.59
715.95	289.78
716.28	288.91
716.61	288.08
716.95	287.28
717.28	286.53
717.61	285.80
717.94	285.09
718.28	284.28
718.61	283.50
718.94	282.81
719.27	282.15
719.61	281.53
719.94	280.84
720.27	280.08
720.60	279.37
720.94	278.72
721.27	278.13
721.60	277.56
721.93	276.95
722.27	276.33
722.60	275.75
722.93	275.16
723.26	274.60
723.59	274.01
723.93	273.43
724.26	272.87
724.59	272.32
724.92	271.78
725.25	271.27
725.59	270.75
725.92	270.24
726.25	269.70
726.58	269.17
726.91	268.67
727.24	268.23
727.57	267.80
727.91	267.33
728.24	266.85
728.57	266.35
728.90	265.89
729.23	265.40
729.56	264.93
729.89	264.45
730.22	263.96
730.55	263.48
730.89	263.01
731.22	262.54
731.55	262.05
731.88	261.56
732.21	261.11
732.54	260.67
732.87	260.19
733.20	259.77
733.53	259.36
733.86	258.97
734.19	258.58
734.52	258.18
734.85	257.84
735.18	257.41
735.51	257.04
735.84	256.65
736.17	256.30
736.50	255.92
736.83	255.66
737.16	255.31
737.49	254.96
737.82	254.61
738.15	254.29
738.48	253.94
738.81	253.65
739.14	253.36
739.47	253.07
739.80	252.81
740.13	252.52
740.46	252.20
740.79	251.85
741.12	251.54
741.45	251.22
741.78	250.87
742.11	250.60
742.44	250.26
742.77	249.99
743.10	249.70
743.43	249.42
743.75	249.04
744.08	248.93
744.41	248.68
744.74	248.44
745.07	248.13
745.40	247.94
745.73	247.75
746.06	247.47
746.39	247.22
746.71	246.94
747.04	246.66
747.37	246.41
747.70	246.19
748.03	245.93
748.36	245.72
748.68	245.50
749.01	245.25
749.34	245.07
749.67	244.88
750.00	244.65
750.33	244.50
750.65	244.33
750.98	244.00
751.31	243.80
751.64	243.62
751.97	243.51
752.29	243.28
752.62	243.03
752.95	242.82
753.28	242.59
753.60	242.37
753.93	242.21
754.26	242.01
754.59	241.83
754.91	241.62
755.24	241.41
755.57	241.21
755.90	241.05
756.22	240.82
756.55	240.60
756.88	240.43
757.20	240.19
757.53	239.97
757.86	239.79
758.19	239.62
758.51	239.41
758.84	239.18
759.17	238.98
759.49	238.80
759.82	238.69
760.15	238.55
760.47	238.43
760.80	238.23
761.13	238.11
761.45	237.93
761.78	237.79
762.11	237.65
762.43	237.48
762.76	237.29
763.08	237.18
763.41	237.02
763.74	236.85
764.06	236.70
764.39	236.58
764.71	236.44
765.04	236.29
765.37	236.15
765.69	236.05
766.02	235.92
766.34	235.79
766.67	235.60
767.00	235.49
767.32	235.39
767.65	235.35
767.97	235.23
768.30	235.10
768.62	235.01
768.95	234.89
769.27	234.82
769.60	234.71
769.92	234.60
770.25	234.50
770.57	234.37
770.90	234.26
771.22	234.13
771.55	234.02
771.87	233.92
772.20	233.81
772.52	233.78
772.85	233.83
773.17	233.75
773.50	233.65
773.82	233.55
774.15	233.41
774.47	233.26
774.80	233.14
775.12	233.04
775.45	232.94
775.77	232.86
776.09	232.75
776.42	232.68
776.74	232.61
777.07	232.52
777.39	232.43
777.72	232.35
778.04	232.30
778.36	232.23
778.69	232.17
779.01	232.12
779.33	231.95
779.66	231.77
779.98	231.68
780.31	231.63
780.63	231.62
780.95	231.60
781.28	231.56
781.60	231.52
781.92	231.49
782.25	231.46
782.57	231.38
782.89	231.35
783.22	231.33
783.54	231.26
783.86	231.23
784.19	231.21
784.51	231.20
784.83	231.15
785.16	231.11
785.48	231.04
785.80	230.98
786.12	230.97
786.45	230.91
786.77	230.88
787.09	230.81
787.42	230.71
787.74	230.65
788.06	230.59
788.38	230.53
788.71	230.48
789.03	230.46
789.35	230.47
789.67	230.39
789.99	230.35
790.32	230.28
790.64	230.25
790.96	230.30
791.28	230.24
791.61	230.21
791.93	230.15
792.25	230.14
792.57	230.20
792.89	230.13
793.21	230.09
793.54	230.07
793.86	230.03
794.18	230.01
794.50	229.98
794.82	229.92
795.14	229.92
795.47	229.90
795.79	229.86
796.11	229.79
796.43	229.76
796.75	229.69
797.07	229.69
797.39	229.67
797.71	229.54
798.04	229.54
798.36	229.50
798.68	229.47
799.00	229.48
799.32	229.40
799.64	229.40
799.96	229.40
800.28	229.37
800.60	229.34
800.92	229.34
801.24	229.27
801.56	229.27
801.89	229.20
802.21	229.17
802.53	229.13
802.85	229.13
803.17	229.12
803.49	229.12
803.81	229.07
804.13	228.99
804.45	228.99
804.77	228.94
805.09	228.90
805.41	228.88
805.73	228.83
806.05	228.76
806.37	228.72
806.69	228.67
807.01	228.63
807.33	228.63
807.65	228.54
807.97	228.57
808.28	228.53
808.60	228.49
808.92	228.44
809.24	228.42
809.56	228.34
809.88	228.31
810.20	228.28
810.52	228.25
810.84	228.24
811.16	228.16
811.48	228.11
811.80	228.12
812.12	228.08
812.43	228.03
812.75	228.00
813.07	227.94
813.39	227.89
813.71	227.84
814.03	227.77
814.35	227.75
814.67	227.67
814.98	227.65
815.30	227.66
815.62	227.65
815.94	227.59
816.26	227.62
816.58	227.59
816.89	227.57
817.21	227.52
817.53	227.49
817.85	227.48
818.17	227.47
818.48	227.40
818.80	227.41
819.12	227.39
819.44	227.37
819.76	227.34
820.07	227.35
820.39	227.37
820.71	227.37
821.03	227.37
821.34	227.36
821.66	227.36
821.98	227.33
822.30	227.33
822.61	227.40
822.93	227.36
823.25	227.33
823.57	227.29
823.88	227.34
824.20	227.36
824.52	227.35
824.83	227.34
825.15	227.33
825.47	227.31
825.79	227.32
826.10	227.32
826.42	227.34
826.74	227.33
827.05	227.32
827.37	227.33
827.69	227.31
828.00	227.37
828.32	227.35
828.64	227.36
828.95	227.40
829.27	227.35
829.58	227.35
829.90	227.35
830.22	227.35
830.53	227.33
830.85	227.32
831.17	227.32
831.48	227.33
831.80	227.34
832.11	227.34
832.43	227.32
832.75	227.32
833.06	227.38
833.38	227.36
833.69	227.32
834.01	227.33
834.32	227.34
834.64	227.24
834.96	227.23
835.27	227.22
835.59	227.19
835.90	227.15
836.22	227.15
836.53	227.16
836.85	227.14
837.16	227.25
837.48	227.25
837.79	227.27
838.11	227.28
838.42	227.26
838.74	227.28
839.05	227.26
839.37	227.26
839.68	227.18
840.00	227.18
840.31	227.21
840.63	227.17
840.94	227.18
841.26	227.19
841.57	227.18
841.88	227.19
842.20	227.13
842.51	227.11
842.83	227.09
843.14	227.16
843.46	227.18
843.77	227.07
844.08	227.05
844.40	227.00
844.71	226.98
845.03	227.00
845.34	226.96
845.65	226.96
845.97	226.94
846.28	226.94
846.60	226.94
846.91	226.91
847.22	226.90
847.54	226.88
847.85	226.86
848.16	226.84
848.48	226.78
848.79	226.77
849.10	226.78
849.42	226.80
849.73	226.70
850.04	226.65
850.36	226.60
850.67	226.60
850.98	226.56
851.30	226.54
851.61	226.47
851.92	226.44
852.23	226.45
852.55	226.43
852.86	226.43
853.17	226.39
853.49	226.37
853.80	226.37
854.11	226.36
854.42	226.39
854.74	226.37
855.05	226.40
855.36	226.38
855.67	226.33
855.99	226.31
856.30	226.41
856.61	226.40
856.92	226.40
857.23	226.40
857.55	226.38
857.86	226.37
858.17	226.40
858.48	226.35
858.79	226.32
859.11	226.33
859.42	226.27
859.73	226.25
860.04	226.25
860.35	226.23
860.66	226.19
860.98	226.14
861.29	226.11
861.60	226.09
861.91	226.12
862.22	226.13
862.53	226.09
862.84	225.96
863.16	226.00
863.47	225.97
863.78	225.92
864.09	225.95
864.40	225.96
864.71	225.95
865.02	226.00
865.33	225.98
865.64	225.95
865.95	225.98
866.27	226.04
866.58	226.02
866.89	226.02
867.20	226.01
867.51	226.01
867.82	226.06
868.13	226.09
868.44	226.07
868.75	226.07
869.06	226.09
869.37	226.11
869.68	226.04
869.99	226.08
870.30	226.09
870.61	226.11
870.92	226.09
871.23	226.08
871.54	226.03
871.85	226.06
872.16	226.09
872.47	226.07
872.78	226.04
873.09	226.08
873.40	226.07
873.71	226.10
874.02	226.13
874.33	226.12
874.64	226.09
874.95	226.11
875.26	226.10
875.56	226.09
875.87	226.09
876.18	226.13
876.49	226.21
876.80	226.21
877.11	226.20
877.42	226.25
877.73	226.26
878.04	226.31
878.35	226.29
878.66	226.30
878.96	226.33
879.27	226.31
879.58	226.28
879.89	226.29
880.20	226.33
880.51	226.33
880.82	226.34
881.12	226.38
881.43	226.38
881.74	226.38
882.05	226.41
882.36	226.40
882.67	226.42
882.97	226.32
883.28	226.34
883.59	226.32
883.90	226.29
884.21	226.29
884.51	226.27
884.82	226.30
885.13	226.28
885.44	226.27
885.74	226.28
886.05	226.29
886.36	226.27
886.67	226.22
886.98	226.26
887.28	226.26
887.59	226.23
887.90	226.25
888.20	226.23
888.51	226.23
888.82	226.24
889.13	226.22
889.43	226.30
889.74	226.28
890.05	226.28
890.35	226.27
890.66	226.28
890.97	226.27
891.28	226.25
891.58	226.30
891.89	226.29
892.20	226.28
892.50	226.26
892.81	226.25
893.12	226.25
893.42	226.20
893.73	226.17
894.04	226.18
894.34	226.16
894.65	226.16
894.95	226.15
895.26	226.11
895.57	226.18
895.87	226.12
896.18	226.14
896.48	226.14
896.79	226.14
897.10	226.14
897.40	226.16
897.71	226.13
898.01	226.09
898.32	226.11
898.63	226.11
898.93	226.14
899.24	226.16
899.54	226.16
899.85	226.16
900.15	226.17
900.46	226.17
900.76	226.16
901.07	226.17
901.38	226.14
901.68	226.17
901.99	226.06
902.29	226.05
902.60	226.01
902.90	226.00
903.21	226.00
903.51	225.96
903.82	225.97
904.12	225.97
904.43	225.98
904.73	225.96
905.03	225.98
905.34	226.03
905.64	226.00
905.95	226.00
906.25	225.97
906.56	225.94
906.86	225.95
907.17	225.95
907.47	225.95
907.77	225.98
908.08	225.95
908.38	225.98
908.69	226.00
908.99	226.03
909.30	226.04
909.60	226.06
909.90	226.09
910.21	226.04
910.51	226.01
910.81	226.02
911.12	226.02
911.42	226.04
911.73	225.96
912.03	225.99
912.33	226.00
912.64	226.00
912.94	225.99
913.24	225.93
913.55	225.89
913.85	225.89
914.15	225.89
914.46	225.91
914.76	225.87
915.06	225.86
915.37	225.84
915.67	225.85
915.97	225.83
916.27	225.78
916.58	225.82
916.88	225.85
917.18	225.84
917.49	225.91
917.79	225.88
918.09	225.86
918.39	225.90
918.70	225.91
919.00	225.93
919.30	225.98
919.60	226.00
919.91	226.03
920.21	226.03
920.51	226.00
920.81	226.01
921.12	226.06
921.42	226.04
921.72	226.09
922.02	226.11
922.32	226.13
922.63	226.15
922.93	226.17
923.23	226.17
923.53	226.17
923.83	226.11
924.13	226.12
924.44	226.12
924.74	226.11
925.04	226.13
925.34	226.14
925.64	226.11
925.94	226.13
926.24	226.17
926.55	226.20
926.85	226.22
927.15	226.20
927.45	226.21
927.75	226.22
928.05	226.18
928.35	226.16
928.65	226.21
928.95	226.22
929.26	226.20
929.56	226.23
929.86	226.23
930.16	226.23
930.46	226.23
930.76	226.27
931.06	226.22
931.36	226.21
931.66	226.24
931.96	226.26
932.26	226.27
932.56	226.22
932.86	226.20
933.16	226.20
933.46	226.21
933.76	226.16
934.06	226.20
934.36	226.27
934.66	226.25
934.96	226.20
935.26	226.20
935.56	226.19
935.86	226.16
936.16	226.14
936.46	226.13
936.76	226.12
937.06	226.09
937.36	226.13
937.66	226.08
937.96	226.03
938.26	226.01
938.56	225.99
938.86	226.04
939.16	226.05
939.46	226.08
939.76	226.07
940.06	226.05
940.35	226.02
940.65	225.94
940.95	225.93
941.25	225.88
941.55	225.87
941.85	225.88
942.15	225.91
942.45	225.94
942.75	225.94
943.04	225.94
943.34	225.94
943.64	225.93
943.94	225.94
944.24	225.95
944.54	225.94
944.84	225.95
945.13	225.90
945.43	225.89
945.73	225.87
946.03	225.85
946.33	225.84
946.62	225.79
946.92	225.79
947.22	225.79
947.52	225.78
947.82	225.79
948.11	225.75
948.41	225.71
948.71	225.66
949.01	225.65
949.31	225.60
949.60	225.61
949.90	225.62
950.20	225.61
950.50	225.60
950.79	225.59
951.09	225.61
951.39	225.60
951.69	225.57
951.98	225.57
952.28	225.58
952.58	225.62
952.87	225.64
953.17	225.66
953.47	225.65
953.76	225.68
954.06	225.65
954.36	225.65
954.66	225.63
954.95	225.65
955.25	225.69
955.55	225.73
955.84	225.72
956.14	225.70
956.44	225.73
956.73	225.72
957.03	225.73
957.32	225.71
957.62	225.72
957.92	225.77
958.21	225.77
958.51	225.86
958.81	225.88
959.10	225.90
959.40	225.92
959.69	225.92
959.99	225.94
960.29	225.97
960.58	225.98
960.88	226.05
961.17	226.03
961.47	226.01
961.76	225.97
962.06	225.98
962.36	225.98
962.65	225.98
962.95	225.98
963.24	225.97
963.54	225.97
963.83	225.97
964.13	225.92
964.42	225.91
964.72	225.86
965.01	225.85
965.31	225.81
965.60	225.78
965.90	225.85
966.19	225.84
966.49	225.85
966.78	225.86
967.08	225.84
967.37	225.85
967.67	225.87
967.96	225.93
968.26	225.91
968.55	225.95
968.85	225.93
969.14	225.94
969.43	225.95
969.73	225.98
970.02	225.98
970.32	226.01
970.61	226.00
970.91	225.95
971.20	225.93
971.49	225.93
971.79	225.96
972.08	225.91
972.38	225.89
972.67	225.92
972.96	225.91
973.26	225.89
973.55	225.93
973.85	225.90
974.14	225.87
974.43	225.93
974.73	225.87
975.02	225.86
975.31	225.85
975.61	225.85
975.90	225.85
976.19	225.85
976.49	225.82
976.78	225.79
977.07	225.78
977.37	225.81
977.66	225.83
977.95	225.78
978.24	225.78
978.54	225.79
978.83	225.74
979.12	225.72
979.42	225.73
979.71	225.74
980.00	225.76
980.29	225.78
980.59	225.69
980.88	225.71
981.17	225.71
981.46	225.71
981.76	225.70
982.05	225.68
982.34	225.68
982.63	225.71
982.93	225.74
983.22	225.78
983.51	225.75
983.80	225.72
984.09	225.76
984.39	225.73
984.68	225.70
984.97	225.69
985.26	225.68
985.55	225.64
985.85	225.58
986.14	225.55
986.43	225.53
986.72	225.53
987.01	225.52
987.30	225.52
987.59	225.49
987.89	225.51
988.18	225.46
988.47	225.45
988.76	225.40
989.05	225.39
989.34	225.36
989.63	225.38
989.92	225.40
990.22	225.35
990.51	225.33
990.80	225.32
991.09	225.31
991.38	225.34
991.67	225.36
991.96	225.35
992.25	225.38
992.54	225.37
992.83	225.39
993.12	225.34
993.41	225.35
993.70	225.39
993.99	225.41
994.28	225.42
994.58	225.43
994.87	225.42
995.16	225.40
995.45	225.39
995.74	225.38
996.03	225.42
996.32	225.45
996.61	225.50
996.90	225.52
997.19	225.52
997.48	225.52
997.77	225.50
998.06	225.50
998.34	225.50
998.63	225.50
998.92	225.50
999.21	225.54
999.50	225.53
999.79	225.52
1000.08	225.51
1000.37	225.55
1000.66	225.54
1000.95	225.62
1001.24	225.63
1001.53	225.65
1001.82	225.64
1002.11	225.58
1002.40	225.61
1002.68	225.64
1002.97	225.70
1003.26	225.71
1003.55	225.69
1003.84	225.75
1004.13	225.78
1004.42	225.75
1004.71	225.79
1004.99	225.80
1005.28	225.84
1005.57	225.87
1005.86	225.84
1006.15	225.81
1006.44	225.79
1006.72	225.83
1007.01	225.80
1007.30	225.81
1007.59	225.80
1007.88	225.81
1008.17	225.84
1008.45	225.82
1008.74	225.79
1009.03	225.78
1009.32	225.79
1009.60	225.78
1009.89	225.77
1010.18	225.74
1010.47	225.76
1010.76	225.72
1011.04	225.74
1011.33	225.79
1011.62	225.79
1011.91	225.84
1012.19	225.85
1012.48	225.86
1012.77	225.85
1013.05	225.91
1013.34	225.92
1013.63	225.93
1013.92	225.95
1014.20	225.98
1014.49	225.99
1014.78	226.01
1015.06	225.97
1015.35	225.97
1015.64	226.02
1015.92	226.05
1016.21	226.09
1016.50	226.08
1016.78	226.11
1017.07	226.10
1017.36	226.07
1017.64	226.04
1017.93	226.06
1018.22	226.04
1018.50	226.04
1018.79	226.02
1019.08	225.96
1019.36	225.97
1019.65	225.99
1019.93	226.00
1020.22	225.99
1020.51	226.05
1020.79	226.03
1021.08	225.84
1021.36	225.58
1021.65	225.73
1021.94	225.84
1022.22	226.15
1022.51	226.11
1022.79	226.32
1023.08	225.74
1023.36	227.46
1023.65	225.90
>>>>>End Processed Spectral Data<<<<<
