SpectraSuite Data File
++++++++++++++++++++++++++++++++++++
Date: Fri Feb 01 17:31:24 EST 2013
User: group
Dark Spectrum Present: No
Reference Spectrum Present: No
Number of Sampled Component Spectra: 1
Spectrometers: USB2E7196
Integration Time (usec): 35000 (USB2E7196)
Spectra Averaged: 100 (USB2E7196)
Boxcar Smoothing: 10 (USB2E7196)
Correct for Electrical Dark: No (USB2E7196)
Strobe/Lamp Enabled: No (USB2E7196)
Correct for Detector Non-linearity: No (USB2E7196)
Correct for Stray Light: No (USB2E7196)
Number of Pixels in Processed Spectrum: 2048
>>>>>Begin Processed Spectral Data<<<<<
339.09	0.00
339.48	212.48
339.86	214.86
340.24	215.77
340.63	217.00
341.01	220.63
341.39	220.08
341.78	220.98
342.16	222.40
342.54	222.92
342.93	211.41
343.31	222.08
343.69	222.65
344.07	223.09
344.46	223.53
344.84	223.90
345.22	224.09
345.60	224.33
345.99	224.52
346.37	224.63
346.75	224.72
347.13	224.73
347.52	224.81
347.90	224.89
348.28	224.90
348.66	224.96
349.05	224.96
349.43	224.99
349.81	225.05
350.19	225.11
350.57	225.13
350.96	225.20
351.34	225.30
351.72	225.38
352.10	225.48
352.48	225.56
352.87	225.62
353.25	225.70
353.63	225.75
354.01	225.84
354.39	225.92
354.77	226.00
355.15	226.11
355.54	226.17
355.92	226.19
356.30	226.27
356.68	226.37
357.06	226.49
357.44	226.58
357.82	226.63
358.20	226.70
358.58	226.79
358.97	226.87
359.35	226.94
359.73	227.01
360.11	227.06
360.49	227.11
360.87	227.16
361.25	227.21
361.63	227.30
362.01	227.36
362.39	227.41
362.77	227.45
363.15	227.51
363.53	227.56
363.91	227.58
364.29	227.61
364.67	227.56
365.05	227.54
365.43	227.54
365.81	227.56
366.19	227.62
366.57	227.65
366.95	227.62
367.33	227.58
367.71	227.58
368.09	227.58
368.47	227.57
368.85	227.56
369.23	227.55
369.61	227.49
369.99	227.45
370.37	227.44
370.75	227.48
371.13	227.41
371.51	227.32
371.89	227.28
372.27	227.24
372.65	227.16
373.03	227.14
373.41	227.09
373.78	227.02
374.16	226.93
374.54	226.84
374.92	226.77
375.30	226.73
375.68	226.64
376.06	226.56
376.44	226.45
376.82	226.37
377.19	226.32
377.57	226.22
377.95	226.15
378.33	226.06
378.71	225.91
379.09	225.87
379.47	225.84
379.84	225.77
380.22	225.70
380.60	225.65
380.98	225.57
381.36	225.52
381.73	225.44
382.11	225.38
382.49	225.34
382.87	225.28
383.25	225.21
383.62	225.27
384.00	225.21
384.38	225.18
384.76	225.16
385.13	225.16
385.51	225.12
385.89	225.04
386.27	224.98
386.64	224.96
387.02	224.86
387.40	224.79
387.78	224.79
388.15	224.77
388.53	224.70
388.91	224.65
389.29	224.60
389.66	224.60
390.04	224.53
390.42	224.50
390.79	224.47
391.17	224.46
391.55	224.32
391.92	224.34
392.30	224.34
392.68	224.32
393.05	224.28
393.43	224.30
393.81	224.33
394.18	224.35
394.56	224.35
394.94	224.40
395.31	224.44
395.69	224.48
396.06	224.51
396.44	224.58
396.82	224.61
397.19	224.68
397.57	224.69
397.95	224.76
398.32	224.77
398.70	224.86
399.07	224.91
399.45	224.97
399.82	225.02
400.20	225.08
400.58	225.15
400.95	225.18
401.33	225.27
401.70	225.44
402.08	225.54
402.45	225.64
402.83	225.74
403.20	225.81
403.58	225.89
403.95	226.01
404.33	226.13
404.71	226.29
405.08	226.47
405.46	226.60
405.83	226.80
406.21	226.98
406.58	227.14
406.96	227.32
407.33	227.51
407.70	227.71
408.08	227.99
408.45	228.21
408.83	228.43
409.20	228.65
409.58	228.80
409.95	229.07
410.33	229.34
410.70	229.60
411.08	229.93
411.45	230.24
411.82	230.58
412.20	230.92
412.57	231.35
412.95	231.65
413.32	232.11
413.69	232.53
414.07	233.02
414.44	233.50
414.82	233.98
415.19	234.56
415.56	235.10
415.94	235.62
416.31	236.33
416.68	236.98
417.06	237.70
417.43	238.42
417.81	239.21
418.18	240.01
418.55	240.91
418.93	241.84
419.30	242.76
419.67	243.70
420.04	244.69
420.42	245.71
420.79	246.95
421.16	248.10
421.54	249.29
421.91	250.54
422.28	251.86
422.66	253.24
423.03	254.60
423.40	255.99
423.77	257.46
424.15	258.89
424.52	260.46
424.89	262.13
425.26	263.75
425.64	265.25
426.01	266.91
426.38	268.56
426.75	270.29
427.13	272.09
427.50	273.99
427.87	275.98
428.24	277.90
428.61	279.74
428.99	281.77
429.36	283.96
429.73	286.08
430.10	288.14
430.47	290.29
430.85	292.49
431.22	294.84
431.59	297.32
431.96	299.68
432.33	302.27
432.70	304.73
433.08	307.66
433.45	310.40
433.82	313.14
434.19	316.18
434.56	319.11
434.93	321.87
435.30	324.55
435.68	327.54
436.05	330.49
436.42	333.36
436.79	335.98
437.16	338.78
437.53	341.78
437.90	344.74
438.27	347.59
438.64	350.50
439.01	353.19
439.38	355.54
439.75	357.81
440.13	360.42
440.50	362.89
440.87	364.81
441.24	366.85
441.61	369.09
441.98	370.67
442.35	372.55
442.72	374.51
443.09	376.42
443.46	377.48
443.83	378.10
444.20	378.66
444.57	379.58
444.94	379.94
445.31	380.27
445.68	380.62
446.05	380.71
446.42	380.35
446.79	379.98
447.16	379.57
447.53	379.25
447.90	378.06
448.27	376.83
448.64	375.22
449.01	374.05
449.37	371.99
449.74	370.07
450.11	367.76
450.48	365.18
450.85	362.58
451.22	360.34
451.59	358.28
451.96	356.28
452.33	353.56
452.70	351.10
453.07	348.19
453.43	345.23
453.80	342.39
454.17	339.58
454.54	336.91
454.91	334.05
455.28	331.23
455.65	328.64
456.02	326.11
456.38	323.84
456.75	321.07
457.12	318.75
457.49	316.37
457.86	314.11
458.23	312.17
458.59	310.04
458.96	307.83
459.33	305.85
459.70	303.88
460.07	302.31
460.43	300.49
460.80	298.80
461.17	297.28
461.54	295.70
461.91	294.22
462.27	292.70
462.64	291.38
463.01	289.96
463.38	288.62
463.74	287.20
464.11	285.98
464.48	284.91
464.85	283.73
465.21	282.82
465.58	281.87
465.95	280.72
466.32	279.73
466.68	278.86
467.05	277.92
467.42	276.98
467.78	275.99
468.15	275.09
468.52	274.34
468.88	273.46
469.25	272.63
469.62	271.96
469.98	271.24
470.35	270.57
470.72	269.97
471.08	269.26
471.45	268.67
471.82	268.10
472.18	267.47
472.55	267.01
472.92	266.49
473.28	265.97
473.65	265.52
474.02	265.07
474.38	264.65
474.75	264.31
475.11	263.92
475.48	263.65
475.85	263.41
476.21	263.18
476.58	262.96
476.94	262.81
477.31	262.62
477.67	262.51
478.04	262.41
478.41	262.36
478.77	262.42
479.14	262.37
479.50	262.40
479.87	262.46
480.23	262.56
480.60	262.63
480.96	262.72
481.33	262.93
481.69	263.13
482.06	263.32
482.42	263.50
482.79	263.76
483.15	264.08
483.52	264.45
483.88	264.82
484.25	265.19
484.61	265.64
484.98	266.11
485.34	266.65
485.71	267.25
486.07	267.84
486.44	268.40
486.80	269.10
487.17	269.81
487.53	270.64
487.90	271.49
488.26	272.39
488.62	273.38
488.99	274.34
489.35	275.38
489.72	276.53
490.08	277.76
490.44	279.01
490.81	280.34
491.17	281.70
491.54	283.16
491.90	284.71
492.26	286.37
492.63	288.06
492.99	289.85
493.36	291.73
493.72	293.76
494.08	295.85
494.45	298.12
494.81	300.48
495.17	302.91
495.54	305.49
495.90	308.17
496.26	310.94
496.63	313.91
496.99	317.01
497.35	320.25
497.72	323.61
498.08	327.14
498.44	330.80
498.80	334.68
499.17	338.73
499.53	342.87
499.89	347.17
500.26	351.63
500.62	356.22
500.98	361.11
501.34	366.12
501.71	371.40
502.07	376.78
502.43	382.29
502.79	388.02
503.16	393.97
503.52	400.12
503.88	406.44
504.24	412.95
504.60	419.75
504.97	426.83
505.33	434.05
505.69	441.64
506.05	449.34
506.41	457.08
506.78	465.00
507.14	473.26
507.50	481.77
507.86	490.61
508.22	499.63
508.59	508.71
508.95	518.04
509.31	527.66
509.67	537.53
510.03	547.53
510.39	557.84
510.75	568.40
511.12	579.10
511.48	590.12
511.84	601.31
512.20	612.50
512.56	624.04
512.92	635.95
513.28	647.99
513.64	660.07
514.00	672.52
514.37	685.19
514.73	697.91
515.09	710.63
515.45	723.60
515.81	736.82
516.17	750.36
516.53	764.19
516.89	777.96
517.25	791.75
517.61	805.84
517.97	819.88
518.33	833.81
518.69	848.10
519.05	862.67
519.41	877.42
519.77	892.55
520.13	907.56
520.49	922.42
520.85	937.31
521.21	952.51
521.57	968.13
521.93	983.37
522.29	999.23
522.65	1015.01
523.01	1030.67
523.37	1046.27
523.73	1061.92
524.09	1077.49
524.45	1093.23
524.81	1109.34
525.17	1125.49
525.53	1141.91
525.89	1158.37
526.25	1174.74
526.61	1190.58
526.97	1206.87
527.33	1222.80
527.68	1238.81
528.04	1254.88
528.40	1270.92
528.76	1287.54
529.12	1303.60
529.48	1320.05
529.84	1335.62
530.20	1351.88
530.56	1368.44
530.91	1385.38
531.27	1401.76
531.63	1417.76
531.99	1433.92
532.35	1449.45
532.71	1465.11
533.07	1480.99
533.42	1496.53
533.78	1512.24
534.14	1528.14
534.50	1543.02
534.86	1558.55
535.21	1573.53
535.57	1589.05
535.93	1604.30
536.29	1618.76
536.65	1633.57
537.00	1647.91
537.36	1662.91
537.72	1677.00
538.08	1691.17
538.44	1704.59
538.79	1718.19
539.15	1731.56
539.51	1745.08
539.87	1759.19
540.22	1772.73
540.58	1786.22
540.94	1799.23
541.29	1811.84
541.65	1824.39
542.01	1837.45
542.37	1849.68
542.72	1861.95
543.08	1873.66
543.44	1885.90
543.79	1897.05
544.15	1908.12
544.51	1919.69
544.87	1930.63
545.22	1941.53
545.58	1951.80
545.94	1961.76
546.29	1971.68
546.65	1981.68
547.01	1991.09
547.36	1999.81
547.72	2008.22
548.07	2016.16
548.43	2024.50
548.79	2032.59
549.14	2040.27
549.50	2047.63
549.86	2055.24
550.21	2062.71
550.57	2069.94
550.92	2076.74
551.28	2084.05
551.64	2091.14
551.99	2097.80
552.35	2104.29
552.70	2110.56
553.06	2116.66
553.41	2123.26
553.77	2129.47
554.13	2135.73
554.48	2141.97
554.84	2148.04
555.19	2153.69
555.55	2159.39
555.90	2164.20
556.26	2169.60
556.61	2174.62
556.97	2179.45
557.32	2184.12
557.68	2188.67
558.03	2193.42
558.39	2197.37
558.74	2202.35
559.10	2206.53
559.45	2210.59
559.81	2214.95
560.16	2219.28
560.52	2222.91
560.87	2226.48
561.23	2229.52
561.58	2232.78
561.94	2235.65
562.29	2238.20
562.64	2241.37
563.00	2244.14
563.35	2247.98
563.71	2251.37
564.06	2254.90
564.42	2258.16
564.77	2261.05
565.12	2263.82
565.48	2266.22
565.83	2268.61
566.19	2270.42
566.54	2271.79
566.89	2273.49
567.25	2274.78
567.60	2276.37
567.96	2278.61
568.31	2279.90
568.66	2281.54
569.02	2282.61
569.37	2283.46
569.72	2284.76
570.08	2285.40
570.43	2285.92
570.78	2285.85
571.14	2284.82
571.49	2283.88
571.84	2283.91
572.20	2283.33
572.55	2282.69
572.90	2281.33
573.26	2280.30
573.61	2278.82
573.96	2277.60
574.31	2275.11
574.67	2272.53
575.02	2269.36
575.37	2266.23
575.72	2262.99
576.08	2259.94
576.43	2257.06
576.78	2253.92
577.13	2251.10
577.49	2248.18
577.84	2245.05
578.19	2241.67
578.54	2238.48
578.90	2234.84
579.25	2229.63
579.60	2225.04
579.95	2220.40
580.30	2215.82
580.66	2211.13
581.01	2206.58
581.36	2201.94
581.71	2198.15
582.06	2194.14
582.42	2190.09
582.77	2185.29
583.12	2181.07
583.47	2176.71
583.82	2172.06
584.17	2167.15
584.53	2162.03
584.88	2156.74
585.23	2151.41
585.58	2146.10
585.93	2140.93
586.28	2136.24
586.63	2131.66
586.98	2126.77
587.34	2122.13
587.69	2117.43
588.04	2112.49
588.39	2107.14
588.74	2101.07
589.09	2095.10
589.44	2088.41
589.79	2082.49
590.14	2077.04
590.49	2070.77
590.84	2064.57
591.19	2058.70
591.54	2052.50
591.89	2045.49
592.25	2039.01
592.60	2031.94
592.95	2024.80
593.30	2017.57
593.65	2010.11
594.00	2003.05
594.35	1996.01
594.70	1988.32
595.05	1981.56
595.40	1974.40
595.75	1967.08
596.10	1960.95
596.45	1954.35
596.80	1948.48
597.15	1942.20
597.50	1935.48
597.85	1928.95
598.19	1922.44
598.54	1915.77
598.89	1909.26
599.24	1903.42
599.59	1896.89
599.94	1890.78
600.29	1884.54
600.64	1878.04
600.99	1870.88
601.34	1864.37
601.69	1857.43
602.04	1850.63
602.39	1843.28
602.74	1836.56
603.08	1829.97
603.43	1823.25
603.78	1816.00
604.13	1808.91
604.48	1801.71
604.83	1794.81
605.18	1788.14
605.53	1780.29
605.87	1772.05
606.22	1764.81
606.57	1756.78
606.92	1749.40
607.27	1742.34
607.62	1735.37
607.96	1728.25
608.31	1721.89
608.66	1714.36
609.01	1706.97
609.36	1699.42
609.70	1691.51
610.05	1683.44
610.40	1675.71
610.75	1667.45
611.10	1659.80
611.44	1651.10
611.79	1643.05
612.14	1634.35
612.49	1625.01
612.83	1616.65
613.18	1608.52
613.53	1600.37
613.88	1591.83
614.22	1583.59
614.57	1574.88
614.92	1566.87
615.27	1559.30
615.61	1550.76
615.96	1542.48
616.31	1534.64
616.65	1527.19
617.00	1519.51
617.35	1511.66
617.70	1503.29
618.04	1494.79
618.39	1486.52
618.74	1478.99
619.08	1470.58
619.43	1462.89
619.78	1455.89
620.12	1448.69
620.47	1441.06
620.82	1432.66
621.16	1425.18
621.51	1417.40
621.85	1409.59
622.20	1401.03
622.55	1392.52
622.89	1384.49
623.24	1376.82
623.59	1369.36
623.93	1361.69
624.28	1354.34
624.62	1346.88
624.97	1339.61
625.32	1332.58
625.66	1325.42
626.01	1318.22
626.35	1310.71
626.70	1302.87
627.04	1295.14
627.39	1287.17
627.73	1279.71
628.08	1272.86
628.43	1265.49
628.77	1258.08
629.12	1250.58
629.46	1243.24
629.81	1235.64
630.15	1228.41
630.50	1220.92
630.84	1212.70
631.19	1204.73
631.53	1197.09
631.88	1189.40
632.22	1181.67
632.57	1174.38
632.91	1166.69
633.26	1159.18
633.60	1151.67
633.95	1144.35
634.29	1137.15
634.64	1130.38
634.98	1122.95
635.32	1115.73
635.67	1109.02
636.01	1102.30
636.36	1095.40
636.70	1088.77
637.05	1082.33
637.39	1075.74
637.73	1069.17
638.08	1063.18
638.42	1057.10
638.77	1050.72
639.11	1044.12
639.45	1037.71
639.80	1030.96
640.14	1024.60
640.49	1018.01
640.83	1011.63
641.17	1005.50
641.52	999.10
641.86	992.52
642.20	986.60
642.55	980.04
642.89	973.59
643.23	966.94
643.58	961.18
643.92	955.02
644.26	948.92
644.61	942.77
644.95	936.84
645.29	930.28
645.64	923.52
645.98	917.00
646.32	910.94
646.66	904.90
647.01	899.06
647.35	893.32
647.69	887.39
648.04	881.90
648.38	876.06
648.72	870.17
649.06	864.17
649.41	858.24
649.75	852.47
650.09	846.49
650.43	840.79
650.78	834.46
651.12	828.48
651.46	822.70
651.80	817.10
652.14	811.55
652.49	806.16
652.83	800.95
653.17	795.37
653.51	789.75
653.85	784.22
654.20	778.56
654.54	772.56
654.88	766.82
655.22	760.85
655.56	755.14
655.90	749.56
656.25	744.31
656.59	738.87
656.93	733.65
657.27	728.44
657.61	722.88
657.95	717.81
658.29	712.71
658.64	707.30
658.98	701.90
659.32	696.39
659.66	691.18
660.00	685.94
660.34	680.97
660.68	676.03
661.02	671.03
661.36	666.37
661.70	661.84
662.05	657.52
662.39	653.21
662.73	648.70
663.07	644.28
663.41	639.91
663.75	635.49
664.09	630.91
664.43	626.52
664.77	622.43
665.11	618.18
665.45	613.97
665.79	609.96
666.13	605.82
666.47	601.74
666.81	597.51
667.15	593.31
667.49	589.27
667.83	585.42
668.17	581.49
668.51	577.39
668.85	573.32
669.19	569.38
669.53	565.48
669.87	561.63
670.21	557.92
670.55	554.16
670.89	550.65
671.23	547.24
671.57	543.67
671.91	540.14
672.25	536.59
672.58	533.08
672.92	529.54
673.26	526.32
673.60	523.13
673.94	520.01
674.28	517.07
674.62	514.16
674.96	511.04
675.30	508.09
675.64	505.12
675.97	502.25
676.31	499.43
676.65	496.50
676.99	493.78
677.33	490.89
677.67	488.07
678.01	485.09
678.34	482.10
678.68	479.22
679.02	476.38
679.36	473.60
679.70	470.87
680.04	468.17
680.37	465.34
680.71	462.49
681.05	459.78
681.39	457.02
681.73	454.32
682.06	451.78
682.40	449.25
682.74	446.64
683.08	444.09
683.42	441.44
683.75	438.89
684.09	436.30
684.43	433.83
684.77	431.33
685.10	428.91
685.44	426.55
685.78	424.23
686.12	421.94
686.45	419.64
686.79	417.32
687.13	415.07
687.46	412.84
687.80	410.66
688.14	408.46
688.48	406.44
688.81	404.17
689.15	402.01
689.49	399.76
689.82	397.69
690.16	395.56
690.50	393.63
690.83	391.70
691.17	389.63
691.51	387.70
691.84	385.86
692.18	383.93
692.52	381.97
692.85	380.00
693.19	378.11
693.52	376.21
693.86	374.35
694.20	372.58
694.53	370.77
694.87	368.92
695.21	367.04
695.54	365.17
695.88	363.39
696.21	361.67
696.55	360.02
696.88	358.32
697.22	356.67
697.56	354.94
697.89	353.28
698.23	351.69
698.56	350.04
698.90	348.40
699.23	346.78
699.57	345.17
699.90	343.59
700.24	342.03
700.58	340.51
700.91	339.01
701.25	337.53
701.58	336.12
701.92	334.75
702.25	333.44
702.59	332.04
702.92	330.72
703.26	329.36
703.59	328.04
703.93	326.84
704.26	325.62
704.60	324.32
704.93	323.01
705.26	321.74
705.60	320.55
705.93	319.40
706.27	318.35
706.60	317.29
706.94	316.22
707.27	315.05
707.61	313.95
707.94	312.89
708.27	311.75
708.61	310.61
708.94	309.57
709.28	308.55
709.61	307.58
709.94	306.63
710.28	305.61
710.61	304.63
710.95	303.58
711.28	302.59
711.61	301.63
711.95	300.73
712.28	299.76
712.61	298.78
712.95	297.82
713.28	296.89
713.61	295.98
713.95	295.05
714.28	294.21
714.61	293.36
714.95	292.49
715.28	291.64
715.61	290.77
715.95	289.88
716.28	289.00
716.61	288.12
716.95	287.23
717.28	286.50
717.61	285.69
717.94	284.90
718.28	284.05
718.61	283.33
718.94	282.56
719.27	281.88
719.61	281.21
719.94	280.49
720.27	279.73
720.60	279.06
720.94	278.42
721.27	277.81
721.60	277.21
721.93	276.61
722.27	276.04
722.60	275.49
722.93	274.95
723.26	274.41
723.59	273.84
723.93	273.32
724.26	272.68
724.59	272.07
724.92	271.50
725.25	271.03
725.59	270.50
725.92	270.01
726.25	269.49
726.58	268.97
726.91	268.48
727.24	268.03
727.57	267.56
727.91	267.05
728.24	266.56
728.57	266.04
728.90	265.54
729.23	265.04
729.56	264.58
729.89	264.07
730.22	263.56
730.55	263.09
730.89	262.63
731.22	262.23
731.55	261.84
731.88	261.44
732.21	260.96
732.54	260.51
732.87	260.07
733.20	259.67
733.53	259.29
733.86	258.90
734.19	258.48
734.52	258.10
734.85	257.79
735.18	257.39
735.51	257.02
735.84	256.67
736.17	256.33
736.50	255.97
736.83	255.79
737.16	255.49
737.49	255.18
737.82	254.83
738.15	254.48
738.48	254.13
738.81	253.78
739.14	253.48
739.47	253.19
739.80	252.89
740.13	252.56
740.46	252.22
740.79	251.90
741.12	251.59
741.45	251.26
741.78	250.90
742.11	250.62
742.44	250.30
742.77	250.01
743.10	249.69
743.43	249.37
743.75	248.94
744.08	248.76
744.41	248.48
744.74	248.22
745.07	247.92
745.40	247.68
745.73	247.40
746.06	247.10
746.39	246.81
746.71	246.49
747.04	246.23
747.37	245.97
747.70	245.70
748.03	245.45
748.36	245.22
748.68	244.97
749.01	244.73
749.34	244.51
749.67	244.26
750.00	244.04
750.33	243.86
750.65	243.66
750.98	243.32
751.31	243.08
751.64	242.86
751.97	242.69
752.29	242.44
752.62	242.23
752.95	242.03
753.28	241.81
753.60	241.63
753.93	241.44
754.26	241.26
754.59	241.03
754.91	240.81
755.24	240.57
755.57	240.37
755.90	240.18
756.22	239.97
756.55	239.78
756.88	239.56
757.20	239.32
757.53	239.10
757.86	238.91
758.19	238.73
758.51	238.54
758.84	238.34
759.17	238.20
759.49	238.03
759.82	237.92
760.15	237.77
760.47	237.60
760.80	237.39
761.13	237.22
761.45	237.08
761.78	236.90
762.11	236.80
762.43	236.66
762.76	236.48
763.08	236.35
763.41	236.21
763.74	236.09
764.06	235.93
764.39	235.79
764.71	235.65
765.04	235.50
765.37	235.35
765.69	235.22
766.02	235.06
766.34	234.90
766.67	234.76
767.00	234.66
767.32	234.58
767.65	234.54
767.97	234.42
768.30	234.36
768.62	234.28
768.95	234.10
769.27	233.98
769.60	233.87
769.92	233.75
770.25	233.62
770.57	233.48
770.90	233.42
771.22	233.30
771.55	233.20
771.87	233.10
772.20	232.97
772.52	232.94
772.85	232.96
773.17	232.87
773.50	232.73
773.82	232.61
774.15	232.48
774.47	232.32
774.80	232.25
775.12	232.12
775.45	232.04
775.77	232.00
776.09	231.91
776.42	231.85
776.74	231.79
777.07	231.74
777.39	231.67
777.72	231.57
778.04	231.51
778.36	231.41
778.69	231.35
779.01	231.34
779.33	231.21
779.66	231.02
779.98	230.96
780.31	230.92
780.63	230.90
780.95	230.84
781.28	230.79
781.60	230.70
781.92	230.63
782.25	230.55
782.57	230.48
782.89	230.40
783.22	230.33
783.54	230.22
783.86	230.15
784.19	230.10
784.51	230.08
784.83	230.04
785.16	230.00
785.48	229.96
785.80	229.88
786.12	229.81
786.45	229.78
786.77	229.74
787.09	229.71
787.42	229.64
787.74	229.58
788.06	229.52
788.38	229.49
788.71	229.45
789.03	229.45
789.35	229.41
789.67	229.39
789.99	229.33
790.32	229.32
790.64	229.30
790.96	229.37
791.28	229.27
791.61	229.24
791.93	229.22
792.25	229.20
792.57	229.23
792.89	229.18
793.21	229.12
793.54	229.05
793.86	228.98
794.18	228.93
794.50	228.87
794.82	228.90
795.14	228.87
795.47	228.86
795.79	228.83
796.11	228.75
796.43	228.71
796.75	228.67
797.07	228.63
797.39	228.59
797.71	228.47
798.04	228.46
798.36	228.40
798.68	228.34
799.00	228.27
799.32	228.20
799.64	228.19
799.96	228.17
800.28	228.14
800.60	228.11
800.92	228.09
801.24	228.04
801.56	227.96
801.89	227.89
802.21	227.84
802.53	227.77
802.85	227.81
803.17	227.79
803.49	227.74
803.81	227.72
804.13	227.68
804.45	227.63
804.77	227.58
805.09	227.57
805.41	227.53
805.73	227.47
806.05	227.38
806.37	227.35
806.69	227.28
807.01	227.28
807.33	227.26
807.65	227.17
807.97	227.19
808.28	227.17
808.60	227.17
808.92	227.12
809.24	227.15
809.56	227.05
809.88	227.02
810.20	227.01
810.52	226.98
810.84	226.92
811.16	226.86
811.48	226.85
811.80	226.82
812.12	226.80
812.43	226.82
812.75	226.82
813.07	226.78
813.39	226.80
813.71	226.74
814.03	226.72
814.35	226.74
814.67	226.68
814.98	226.67
815.30	226.65
815.62	226.64
815.94	226.53
816.26	226.56
816.58	226.49
816.89	226.48
817.21	226.45
817.53	226.45
817.85	226.46
818.17	226.44
818.48	226.40
818.80	226.41
819.12	226.38
819.44	226.36
819.76	226.39
820.07	226.37
820.39	226.38
820.71	226.39
821.03	226.37
821.34	226.39
821.66	226.40
821.98	226.39
822.30	226.37
822.61	226.42
822.93	226.35
823.25	226.36
823.57	226.35
823.88	226.35
824.20	226.36
824.52	226.35
824.83	226.36
825.15	226.34
825.47	226.34
825.79	226.34
826.10	226.36
826.42	226.34
826.74	226.32
827.05	226.34
827.37	226.33
827.69	226.32
828.00	226.31
828.32	226.29
828.64	226.27
828.95	226.32
829.27	226.31
829.58	226.31
829.90	226.36
830.22	226.38
830.53	226.38
830.85	226.34
831.17	226.35
831.48	226.35
831.80	226.35
832.11	226.32
832.43	226.30
832.75	226.29
833.06	226.35
833.38	226.34
833.69	226.32
834.01	226.31
834.32	226.31
834.64	226.28
834.96	226.29
835.27	226.30
835.59	226.26
835.90	226.21
836.22	226.23
836.53	226.21
836.85	226.18
837.16	226.26
837.48	226.30
837.79	226.30
838.11	226.29
838.42	226.30
838.74	226.35
839.05	226.34
839.37	226.29
839.68	226.20
840.00	226.17
840.31	226.15
840.63	226.12
840.94	226.08
841.26	226.07
841.57	226.03
841.88	226.03
842.20	225.98
842.51	225.97
842.83	225.96
843.14	226.01
843.46	226.02
843.77	225.94
844.08	225.87
844.40	225.85
844.71	225.79
845.03	225.76
845.34	225.68
845.65	225.66
845.97	225.66
846.28	225.63
846.60	225.61
846.91	225.58
847.22	225.56
847.54	225.58
847.85	225.55
848.16	225.53
848.48	225.49
848.79	225.53
849.10	225.55
849.42	225.50
849.73	225.39
850.04	225.36
850.36	225.31
850.67	225.33
850.98	225.29
851.30	225.30
851.61	225.28
851.92	225.28
852.23	225.30
852.55	225.31
852.86	225.31
853.17	225.34
853.49	225.35
853.80	225.35
854.11	225.31
854.42	225.32
854.74	225.29
855.05	225.28
855.36	225.23
855.67	225.22
855.99	225.22
856.30	225.35
856.61	225.33
856.92	225.34
857.23	225.31
857.55	225.28
857.86	225.26
858.17	225.28
858.48	225.26
858.79	225.21
859.11	225.21
859.42	225.19
859.73	225.17
860.04	225.15
860.35	225.12
860.66	225.12
860.98	225.10
861.29	225.13
861.60	225.13
861.91	225.16
862.22	225.13
862.53	225.18
862.84	225.07
863.16	225.11
863.47	225.09
863.78	225.10
864.09	225.14
864.40	225.15
864.71	225.18
865.02	225.20
865.33	225.21
865.64	225.19
865.95	225.22
866.27	225.29
866.58	225.29
866.89	225.32
867.20	225.33
867.51	225.32
867.82	225.29
868.13	225.32
868.44	225.30
868.75	225.35
869.06	225.32
869.37	225.29
869.68	225.24
869.99	225.27
870.30	225.30
870.61	225.30
870.92	225.33
871.23	225.30
871.54	225.33
871.85	225.36
872.16	225.37
872.47	225.36
872.78	225.32
873.09	225.33
873.40	225.33
873.71	225.34
874.02	225.35
874.33	225.35
874.64	225.33
874.95	225.35
875.26	225.32
875.56	225.33
875.87	225.35
876.18	225.35
876.49	225.44
876.80	225.43
877.11	225.39
877.42	225.36
877.73	225.37
878.04	225.34
878.35	225.29
878.66	225.31
878.96	225.30
879.27	225.32
879.58	225.34
879.89	225.32
880.20	225.35
880.51	225.39
880.82	225.40
881.12	225.41
881.43	225.42
881.74	225.42
882.05	225.43
882.36	225.43
882.67	225.42
882.97	225.29
883.28	225.28
883.59	225.30
883.90	225.33
884.21	225.32
884.51	225.33
884.82	225.37
885.13	225.37
885.44	225.36
885.74	225.33
886.05	225.29
886.36	225.28
886.67	225.24
886.98	225.26
887.28	225.27
887.59	225.27
887.90	225.24
888.20	225.22
888.51	225.20
888.82	225.19
889.13	225.23
889.43	225.32
889.74	225.32
890.05	225.32
890.35	225.30
890.66	225.30
890.97	225.28
891.28	225.24
891.58	225.24
891.89	225.24
892.20	225.22
892.50	225.22
892.81	225.21
893.12	225.20
893.42	225.13
893.73	225.13
894.04	225.10
894.34	225.12
894.65	225.15
894.95	225.12
895.26	225.10
895.57	225.14
895.87	225.03
896.18	225.03
896.48	225.01
896.79	224.99
897.10	225.00
897.40	224.98
897.71	224.97
898.01	224.94
898.32	224.92
898.63	224.90
898.93	224.91
899.24	224.92
899.54	224.92
899.85	224.95
900.15	224.93
900.46	224.92
900.76	224.89
901.07	224.86
901.38	224.85
901.68	224.87
901.99	224.82
902.29	224.83
902.60	224.83
902.90	224.83
903.21	224.85
903.51	224.85
903.82	224.88
904.12	224.92
904.43	224.94
904.73	224.97
905.03	224.96
905.34	225.05
905.64	225.04
905.95	225.04
906.25	225.02
906.56	225.00
906.86	225.00
907.17	225.00
907.47	225.02
907.77	225.04
908.08	225.04
908.38	225.08
908.69	225.09
908.99	225.08
909.30	225.10
909.60	225.09
909.90	225.10
910.21	225.10
910.51	225.07
910.81	225.08
911.12	225.08
911.42	225.11
911.73	225.02
912.03	225.03
912.33	225.03
912.64	225.04
912.94	225.06
913.24	225.09
913.55	225.08
913.85	225.09
914.15	225.11
914.46	225.11
914.76	225.07
915.06	225.04
915.37	225.06
915.67	225.03
915.97	225.01
916.27	224.98
916.58	224.98
916.88	225.00
917.18	224.99
917.49	225.05
917.79	225.05
918.09	225.06
918.39	225.07
918.70	225.08
919.00	225.04
919.30	225.06
919.60	225.05
919.91	225.03
920.21	225.00
920.51	224.98
920.81	224.95
921.12	224.97
921.42	224.97
921.72	224.98
922.02	225.00
922.32	225.05
922.63	225.05
922.93	225.09
923.23	225.05
923.53	225.02
923.83	224.98
924.13	224.97
924.44	224.98
924.74	224.99
925.04	225.05
925.34	225.08
925.64	225.02
925.94	224.98
926.24	225.07
926.55	225.06
926.85	225.10
927.15	225.09
927.45	225.09
927.75	225.11
928.05	225.09
928.35	225.10
928.65	225.10
928.95	225.12
929.26	225.05
929.56	225.09
929.86	225.12
930.16	225.10
930.46	225.10
930.76	225.09
931.06	225.06
931.36	225.02
931.66	225.05
931.96	225.08
932.26	225.09
932.56	225.03
932.86	225.08
933.16	225.06
933.46	225.05
933.76	225.04
934.06	225.05
934.36	225.09
934.66	225.06
934.96	225.05
935.26	225.07
935.56	225.09
935.86	225.10
936.16	225.06
936.46	225.06
936.76	225.06
937.06	225.05
937.36	225.07
937.66	225.08
937.96	225.06
938.26	225.03
938.56	225.04
938.86	225.08
939.16	225.08
939.46	225.11
939.76	225.13
940.06	225.14
940.35	225.11
940.65	225.06
940.95	225.10
941.25	225.07
941.55	225.03
941.85	225.04
942.15	225.02
942.45	225.08
942.75	225.07
943.04	225.06
943.34	225.05
943.64	225.04
943.94	225.01
944.24	225.01
944.54	225.04
944.84	225.06
945.13	225.02
945.43	225.00
945.73	224.97
946.03	224.97
946.33	224.94
946.62	224.96
946.92	224.91
947.22	224.90
947.52	224.90
947.82	224.91
948.11	224.89
948.41	224.90
948.71	224.85
949.01	224.85
949.31	224.88
949.60	224.93
949.90	224.91
950.20	224.91
950.50	224.90
950.79	224.93
951.09	224.88
951.39	224.90
951.69	224.89
951.98	224.93
952.28	224.91
952.58	224.91
952.87	224.93
953.17	224.96
953.47	224.95
953.76	224.95
954.06	224.93
954.36	224.89
954.66	224.86
954.95	224.90
955.25	224.93
955.55	224.91
955.84	224.89
956.14	224.92
956.44	224.96
956.73	224.95
957.03	224.90
957.32	224.94
957.62	224.93
957.92	224.97
958.21	224.96
958.51	225.05
958.81	225.05
959.10	225.05
959.40	225.12
959.69	225.12
959.99	225.14
960.29	225.15
960.58	225.19
960.88	225.23
961.17	225.20
961.47	225.19
961.76	225.16
962.06	225.15
962.36	225.12
962.65	225.10
962.95	225.10
963.24	225.11
963.54	225.12
963.83	225.12
964.13	225.08
964.42	225.02
964.72	224.96
965.01	224.98
965.31	224.94
965.60	224.91
965.90	224.98
966.19	224.94
966.49	224.97
966.78	224.94
967.08	224.95
967.37	224.95
967.67	224.95
967.96	224.99
968.26	225.00
968.55	225.00
968.85	225.00
969.14	224.99
969.43	224.98
969.73	224.93
970.02	224.94
970.32	224.95
970.61	224.96
970.91	224.94
971.20	224.93
971.49	224.96
971.79	224.94
972.08	224.85
972.38	224.84
972.67	224.82
972.96	224.81
973.26	224.77
973.55	224.81
973.85	224.80
974.14	224.75
974.43	224.75
974.73	224.76
975.02	224.73
975.31	224.75
975.61	224.76
975.90	224.79
976.19	224.76
976.49	224.74
976.78	224.76
977.07	224.77
977.37	224.78
977.66	224.78
977.95	224.78
978.24	224.81
978.54	224.84
978.83	224.84
979.12	224.87
979.42	224.88
979.71	224.84
980.00	224.84
980.29	224.87
980.59	224.85
980.88	224.87
981.17	224.86
981.46	224.86
981.76	224.84
982.05	224.85
982.34	224.87
982.63	224.90
982.93	224.86
983.22	224.85
983.51	224.82
983.80	224.83
984.09	224.82
984.39	224.83
984.68	224.82
984.97	224.81
985.26	224.76
985.55	224.77
985.85	224.76
986.14	224.75
986.43	224.78
986.72	224.75
987.01	224.71
987.30	224.72
987.59	224.71
987.89	224.71
988.18	224.66
988.47	224.64
988.76	224.64
989.05	224.66
989.34	224.64
989.63	224.66
989.92	224.61
990.22	224.61
990.51	224.58
990.80	224.57
991.09	224.57
991.38	224.57
991.67	224.58
991.96	224.56
992.25	224.58
992.54	224.54
992.83	224.57
993.12	224.57
993.41	224.58
993.70	224.59
993.99	224.61
994.28	224.65
994.58	224.66
994.87	224.63
995.16	224.62
995.45	224.61
995.74	224.59
996.03	224.67
996.32	224.70
996.61	224.72
996.90	224.70
997.19	224.67
997.48	224.68
997.77	224.65
998.06	224.66
998.34	224.64
998.63	224.61
998.92	224.61
999.21	224.66
999.50	224.66
999.79	224.65
1000.08	224.61
1000.37	224.59
1000.66	224.61
1000.95	224.62
1001.24	224.63
1001.53	224.63
1001.82	224.64
1002.11	224.58
1002.40	224.59
1002.68	224.64
1002.97	224.71
1003.26	224.73
1003.55	224.75
1003.84	224.75
1004.13	224.78
1004.42	224.76
1004.71	224.78
1004.99	224.75
1005.28	224.74
1005.57	224.76
1005.86	224.73
1006.15	224.75
1006.44	224.74
1006.72	224.71
1007.01	224.72
1007.30	224.74
1007.59	224.73
1007.88	224.73
1008.17	224.75
1008.45	224.71
1008.74	224.65
1009.03	224.63
1009.32	224.60
1009.60	224.61
1009.89	224.61
1010.18	224.57
1010.47	224.58
1010.76	224.59
1011.04	224.58
1011.33	224.58
1011.62	224.59
1011.91	224.61
1012.19	224.65
1012.48	224.64
1012.77	224.65
1013.05	224.72
1013.34	224.70
1013.63	224.74
1013.92	224.74
1014.20	224.72
1014.49	224.75
1014.78	224.76
1015.06	224.73
1015.35	224.74
1015.64	224.77
1015.92	224.76
1016.21	224.79
1016.50	224.81
1016.78	224.81
1017.07	224.86
1017.36	224.83
1017.64	224.82
1017.93	224.79
1018.22	224.73
1018.50	224.74
1018.79	224.70
1019.08	224.64
1019.36	224.64
1019.65	224.61
1019.93	224.64
1020.22	224.65
1020.51	224.68
1020.79	224.67
1021.08	223.97
1021.36	224.41
1021.65	224.24
1021.94	224.52
1022.22	224.78
1022.51	224.35
1022.79	225.40
1023.08	224.77
1023.36	225.59
1023.65	224.81
>>>>>End Processed Spectral Data<<<<<
