SpectraSuite Data File
++++++++++++++++++++++++++++++++++++
Date: Fri Feb 01 14:50:13 EST 2013
User: group
Dark Spectrum Present: No
Reference Spectrum Present: No
Number of Sampled Component Spectra: 1
Spectrometers: USB2E7196
Integration Time (usec): 35000 (USB2E7196)
Spectra Averaged: 100 (USB2E7196)
Boxcar Smoothing: 10 (USB2E7196)
Correct for Electrical Dark: No (USB2E7196)
Strobe/Lamp Enabled: No (USB2E7196)
Correct for Detector Non-linearity: No (USB2E7196)
Correct for Stray Light: No (USB2E7196)
Number of Pixels in Processed Spectrum: 2048
>>>>>Begin Processed Spectral Data<<<<<
339.09	0.00
339.48	215.97
339.86	216.73
340.24	219.43
340.63	220.16
341.01	222.50
341.39	223.08
341.78	224.60
342.16	225.42
342.54	225.38
342.93	214.17
343.31	224.99
343.69	225.53
344.07	226.01
344.46	226.39
344.84	226.77
345.22	227.03
345.60	227.26
345.99	227.43
346.37	227.57
346.75	227.68
347.13	227.76
347.52	227.81
347.90	227.86
348.28	227.90
348.66	227.96
349.05	227.94
349.43	227.98
349.81	228.00
350.19	228.05
350.57	228.06
350.96	228.13
351.34	228.19
351.72	228.26
352.10	228.39
352.48	228.44
352.87	228.51
353.25	228.55
353.63	228.63
354.01	228.71
354.39	228.76
354.77	228.84
355.15	228.94
355.54	228.98
355.92	229.03
356.30	229.11
356.68	229.25
357.06	229.32
357.44	229.36
357.82	229.46
358.20	229.53
358.58	229.59
358.97	229.67
359.35	229.76
359.73	229.82
360.11	229.83
360.49	229.90
360.87	229.94
361.25	230.01
361.63	230.08
362.01	230.11
362.39	230.15
362.77	230.20
363.15	230.18
363.53	230.20
363.91	230.26
364.29	230.26
364.67	230.18
365.05	230.21
365.43	230.21
365.81	230.23
366.19	230.27
366.57	230.33
366.95	230.31
367.33	230.27
367.71	230.27
368.09	230.31
368.47	230.28
368.85	230.22
369.23	230.23
369.61	230.14
369.99	230.11
370.37	230.05
370.75	230.04
371.13	230.02
371.51	229.97
371.89	229.89
372.27	229.85
372.65	229.79
373.03	229.71
373.41	229.64
373.78	229.55
374.16	229.42
374.54	229.30
374.92	229.21
375.30	229.11
375.68	229.02
376.06	228.91
376.44	228.86
376.82	228.82
377.19	228.73
377.57	228.68
377.95	228.54
378.33	228.44
378.71	228.31
379.09	228.23
379.47	228.15
379.84	228.01
380.22	227.92
380.60	227.83
380.98	227.73
381.36	227.65
381.73	227.55
382.11	227.49
382.49	227.46
382.87	227.36
383.25	227.32
383.62	227.36
384.00	227.28
384.38	227.18
384.76	227.12
385.13	227.09
385.51	227.01
385.89	226.97
386.27	226.93
386.64	226.88
387.02	226.84
387.40	226.78
387.78	226.79
388.15	226.75
388.53	226.71
388.91	226.71
389.29	226.66
389.66	226.66
390.04	226.63
390.42	226.60
390.79	226.62
391.17	226.62
391.55	226.49
391.92	226.51
392.30	226.52
392.68	226.51
393.05	226.48
393.43	226.51
393.81	226.54
394.18	226.53
394.56	226.57
394.94	226.62
395.31	226.70
395.69	226.80
396.06	226.86
396.44	226.91
396.82	226.95
397.19	227.08
397.57	227.16
397.95	227.23
398.32	227.25
398.70	227.35
399.07	227.45
399.45	227.55
399.82	227.64
400.20	227.73
400.58	227.86
400.95	227.95
401.33	228.07
401.70	228.28
402.08	228.44
402.45	228.55
402.83	228.68
403.20	228.79
403.58	228.88
403.95	229.01
404.33	229.16
404.71	229.31
405.08	229.50
405.46	229.64
405.83	229.80
406.21	230.01
406.58	230.17
406.96	230.36
407.33	230.55
407.70	230.75
408.08	231.02
408.45	231.23
408.83	231.45
409.20	231.66
409.58	231.83
409.95	232.11
410.33	232.44
410.70	232.68
411.08	232.99
411.45	233.28
411.82	233.61
412.20	233.97
412.57	234.38
412.95	234.68
413.32	235.09
413.69	235.51
414.07	235.90
414.44	236.36
414.82	236.81
415.19	237.34
415.56	237.87
415.94	238.42
416.31	239.07
416.68	239.68
417.06	240.38
417.43	241.06
417.81	241.79
418.18	242.54
418.55	243.40
418.93	244.27
419.30	245.18
419.67	246.10
420.04	247.06
420.42	248.04
420.79	249.21
421.16	250.33
421.54	251.49
421.91	252.71
422.28	253.94
422.66	255.24
423.03	256.50
423.40	257.82
423.77	259.22
424.15	260.59
424.52	262.09
424.89	263.63
425.26	265.15
425.64	266.55
426.01	268.11
426.38	269.68
426.75	271.35
427.13	273.08
427.50	274.88
427.87	276.75
428.24	278.60
428.61	280.32
428.99	282.27
429.36	284.38
429.73	286.46
430.10	288.48
430.47	290.54
430.85	292.65
431.22	294.85
431.59	297.22
431.96	299.46
432.33	301.93
432.70	304.34
433.08	307.16
433.45	309.80
433.82	312.37
434.19	315.25
434.56	317.99
434.93	320.58
435.30	323.20
435.68	326.07
436.05	328.89
436.42	331.66
436.79	334.19
437.16	336.87
437.53	339.66
437.90	342.50
438.27	345.22
438.64	348.13
439.01	350.73
439.38	352.95
439.75	355.15
440.13	357.64
440.50	359.98
440.87	361.82
441.24	363.77
441.61	365.99
441.98	367.49
442.35	369.30
442.72	371.15
443.09	372.95
443.46	373.93
443.83	374.50
444.20	375.08
444.57	375.93
444.94	376.23
445.31	376.59
445.68	376.93
446.05	377.08
446.42	376.66
446.79	376.30
447.16	375.88
447.53	375.53
447.90	374.39
448.27	373.28
448.64	371.71
449.01	370.57
449.37	368.63
449.74	366.75
450.11	364.55
450.48	362.10
450.85	359.58
451.22	357.45
451.59	355.48
451.96	353.52
452.33	350.91
452.70	348.58
453.07	345.78
453.43	342.88
453.80	340.09
454.17	337.45
454.54	334.90
454.91	332.20
455.28	329.55
455.65	327.10
456.02	324.63
456.38	322.48
456.75	319.86
457.12	317.56
457.49	315.36
457.86	313.17
458.23	311.35
458.59	309.30
458.96	307.23
459.33	305.36
459.70	303.48
460.07	301.96
460.43	300.23
460.80	298.60
461.17	297.19
461.54	295.70
461.91	294.24
462.27	292.78
462.64	291.50
463.01	290.15
463.38	288.85
463.74	287.47
464.11	286.31
464.48	285.24
464.85	284.15
465.21	283.28
465.58	282.37
465.95	281.26
466.32	280.35
466.68	279.43
467.05	278.53
467.42	277.64
467.78	276.71
468.15	275.78
468.52	275.11
468.88	274.21
469.25	273.40
469.62	272.77
469.98	272.04
470.35	271.38
470.72	270.75
471.08	270.06
471.45	269.50
471.82	268.94
472.18	268.35
472.55	267.88
472.92	267.32
473.28	266.83
473.65	266.37
474.02	265.90
474.38	265.54
474.75	265.18
475.11	264.80
475.48	264.50
475.85	264.27
476.21	264.01
476.58	263.79
476.94	263.64
477.31	263.41
477.67	263.24
478.04	263.14
478.41	263.04
478.77	263.02
479.14	262.98
479.50	262.95
479.87	263.01
480.23	263.10
480.60	263.16
480.96	263.24
481.33	263.45
481.69	263.63
482.06	263.78
482.42	263.98
482.79	264.24
483.15	264.56
483.52	264.97
483.88	265.31
484.25	265.69
484.61	266.09
484.98	266.56
485.34	267.15
485.71	267.69
486.07	268.33
486.44	268.90
486.80	269.57
487.17	270.31
487.53	271.14
487.90	271.96
488.26	272.89
488.62	273.88
488.99	274.84
489.35	275.89
489.72	277.04
490.08	278.25
490.44	279.46
490.81	280.80
491.17	282.11
491.54	283.59
491.90	285.16
492.26	286.84
492.63	288.57
492.99	290.32
493.36	292.22
493.72	294.23
494.08	296.34
494.45	298.54
494.81	300.90
495.17	303.28
495.54	305.83
495.90	308.50
496.26	311.28
496.63	314.18
496.99	317.27
497.35	320.44
497.72	323.81
498.08	327.28
498.44	330.94
498.80	334.80
499.17	338.80
499.53	342.92
499.89	347.20
500.26	351.64
500.62	356.31
500.98	361.21
501.34	366.26
501.71	371.54
502.07	376.98
502.43	382.54
502.79	388.32
503.16	394.38
503.52	400.58
503.88	406.93
504.24	413.52
504.60	420.36
504.97	427.50
505.33	434.78
505.69	442.48
506.05	450.16
506.41	458.03
506.78	466.18
507.14	474.56
507.50	483.28
507.86	492.29
508.22	501.39
508.59	510.58
508.95	520.08
509.31	529.81
509.67	539.87
510.03	550.09
510.39	560.69
510.75	571.42
511.12	582.34
511.48	593.53
511.84	604.95
512.20	616.49
512.56	628.29
512.92	640.45
513.28	652.69
513.64	665.18
514.00	677.86
514.37	690.71
514.73	703.78
515.09	716.79
515.45	730.02
515.81	743.60
516.17	757.51
516.53	771.66
516.89	785.78
517.25	799.91
517.61	814.42
517.97	828.79
518.33	843.14
518.69	857.97
519.05	873.01
519.41	888.13
519.77	903.62
520.13	919.24
520.49	934.53
520.85	949.94
521.21	965.62
521.57	981.89
521.93	997.75
522.29	1014.10
522.65	1030.43
523.01	1046.65
523.37	1062.86
523.73	1079.04
524.09	1095.11
524.45	1111.55
524.81	1128.22
525.17	1145.08
525.53	1161.93
525.89	1178.84
526.25	1195.59
526.61	1211.99
526.97	1228.84
527.33	1245.38
527.68	1262.00
528.04	1278.61
528.40	1295.34
528.76	1312.50
529.12	1329.08
529.48	1345.95
529.84	1362.06
530.20	1378.70
530.56	1395.71
530.91	1412.90
531.27	1429.83
531.63	1446.35
531.99	1463.04
532.35	1479.19
532.71	1494.97
533.07	1511.31
533.42	1527.21
533.78	1543.30
534.14	1559.61
534.50	1574.82
534.86	1590.64
535.21	1605.75
535.57	1621.71
535.93	1637.22
536.29	1652.04
536.65	1667.23
537.00	1682.06
537.36	1697.45
537.72	1712.14
538.08	1726.72
538.44	1740.70
538.79	1754.51
539.15	1768.38
539.51	1782.21
539.87	1796.66
540.22	1810.59
540.58	1824.34
540.94	1837.93
541.29	1851.03
541.65	1863.75
542.01	1877.21
542.37	1889.49
542.72	1901.97
543.08	1913.81
543.44	1926.32
543.79	1937.71
544.15	1948.64
544.51	1960.24
544.87	1971.10
545.22	1981.78
545.58	1991.90
545.94	2001.71
546.29	2011.65
546.65	2021.38
547.01	2030.42
547.36	2038.99
547.72	2047.45
548.07	2055.43
548.43	2063.52
548.79	2071.27
549.14	2078.94
549.50	2086.38
549.86	2094.25
550.21	2101.60
550.57	2108.56
550.92	2115.24
551.28	2122.18
551.64	2129.21
551.99	2135.66
552.35	2141.98
552.70	2148.07
553.06	2154.04
553.41	2160.20
553.77	2166.19
554.13	2172.25
554.48	2178.21
554.84	2183.54
555.19	2188.64
555.55	2193.68
555.90	2198.13
556.26	2203.09
556.61	2207.62
556.97	2211.49
557.32	2215.39
557.68	2219.44
558.03	2223.74
558.39	2227.11
558.74	2231.56
559.10	2235.35
559.45	2238.87
559.81	2242.91
560.16	2246.41
560.52	2249.55
560.87	2252.89
561.23	2255.36
561.58	2258.13
561.94	2260.68
562.29	2263.00
562.64	2265.66
563.00	2268.11
563.35	2271.41
563.71	2274.29
564.06	2277.37
564.42	2280.28
564.77	2282.67
565.12	2284.69
565.48	2286.39
565.83	2287.96
566.19	2289.10
566.54	2289.80
566.89	2290.70
567.25	2290.98
567.60	2292.28
567.96	2293.77
568.31	2294.36
568.66	2295.17
569.02	2295.48
569.37	2295.46
569.72	2295.98
570.08	2295.69
570.43	2295.38
570.78	2294.37
571.14	2292.59
571.49	2290.99
571.84	2290.23
572.20	2288.76
572.55	2287.39
572.90	2285.54
573.26	2283.87
573.61	2281.87
573.96	2279.88
574.31	2276.65
574.67	2273.37
575.02	2269.51
575.37	2265.72
575.72	2261.68
576.08	2258.12
576.43	2254.53
576.78	2250.73
577.13	2247.35
577.49	2244.08
577.84	2240.49
578.19	2236.61
578.54	2232.81
578.90	2228.21
579.25	2222.62
579.60	2217.50
579.95	2212.37
580.30	2207.17
580.66	2201.97
581.01	2196.79
581.36	2191.62
581.71	2187.32
582.06	2182.83
582.42	2178.23
582.77	2172.85
583.12	2168.13
583.47	2163.33
583.82	2158.31
584.17	2152.86
584.53	2147.17
584.88	2141.42
585.23	2135.33
585.58	2129.65
585.93	2123.97
586.28	2119.19
586.63	2113.95
586.98	2108.83
587.34	2103.97
587.69	2098.99
588.04	2093.51
588.39	2087.65
588.74	2081.06
589.09	2074.82
589.44	2067.72
589.79	2061.35
590.14	2055.58
590.49	2048.87
590.84	2042.26
591.19	2035.86
591.54	2029.35
591.89	2021.80
592.25	2014.90
592.60	2007.82
592.95	2000.05
593.30	1992.68
593.65	1984.80
594.00	1977.61
594.35	1970.10
594.70	1961.89
595.05	1954.67
595.40	1947.27
595.75	1939.74
596.10	1933.44
596.45	1926.38
596.80	1920.22
597.15	1913.61
597.50	1906.56
597.85	1900.10
598.19	1893.42
598.54	1886.46
598.89	1879.78
599.24	1873.84
599.59	1867.08
599.94	1860.74
600.29	1854.41
600.64	1847.79
600.99	1840.46
601.34	1833.60
601.69	1826.76
602.04	1819.92
602.39	1812.53
602.74	1805.74
603.08	1798.99
603.43	1792.22
603.78	1785.13
604.13	1778.00
604.48	1770.75
604.83	1763.83
605.18	1756.89
605.53	1748.96
605.87	1740.92
606.22	1733.79
606.57	1725.93
606.92	1718.64
607.27	1711.46
607.62	1704.69
607.96	1697.43
608.31	1690.85
608.66	1683.29
609.01	1675.65
609.36	1668.23
609.70	1660.24
610.05	1652.34
610.40	1644.85
610.75	1636.70
611.10	1629.11
611.44	1620.80
611.79	1612.98
612.14	1604.41
612.49	1595.43
612.83	1587.11
613.18	1579.05
613.53	1570.92
613.88	1562.54
614.22	1554.36
614.57	1545.84
614.92	1537.94
615.27	1530.54
615.61	1522.32
615.96	1514.48
616.31	1506.93
616.65	1499.54
617.00	1492.04
617.35	1484.42
617.70	1476.08
618.04	1467.51
618.39	1459.36
618.74	1451.88
619.08	1443.61
619.43	1436.19
619.78	1429.22
620.12	1422.19
620.47	1414.86
620.82	1406.93
621.16	1399.54
621.51	1392.05
621.85	1384.58
622.20	1376.23
622.55	1368.04
622.89	1360.36
623.24	1352.79
623.59	1345.53
623.93	1338.22
624.28	1331.15
624.62	1323.64
624.97	1316.54
625.32	1310.06
625.66	1303.14
626.01	1296.07
626.35	1288.76
626.70	1281.18
627.04	1273.66
627.39	1266.06
627.73	1258.71
628.08	1251.71
628.43	1244.62
628.77	1237.36
629.12	1229.90
629.46	1222.71
629.81	1215.31
630.15	1208.19
630.50	1200.87
630.84	1192.86
631.19	1185.07
631.53	1177.63
631.88	1170.32
632.22	1162.97
632.57	1155.76
632.91	1148.37
633.26	1140.99
633.60	1133.72
633.95	1126.60
634.29	1119.70
634.64	1113.04
634.98	1105.83
635.32	1098.96
635.67	1092.44
636.01	1085.96
636.36	1079.30
636.70	1072.92
637.05	1066.43
637.39	1060.05
637.73	1053.68
638.08	1047.91
638.42	1042.00
638.77	1035.71
639.11	1029.17
639.45	1022.80
639.80	1016.14
640.14	1009.76
640.49	1003.39
640.83	997.21
641.17	991.15
641.52	984.89
641.86	978.61
642.20	972.88
642.55	966.60
642.89	960.16
643.23	953.67
643.58	947.96
643.92	941.84
644.26	935.91
644.61	929.87
644.95	923.94
645.29	917.44
645.64	910.76
645.98	904.50
646.32	898.72
646.66	892.76
647.01	887.10
647.35	881.49
647.69	875.70
648.04	870.17
648.38	864.37
648.72	858.40
649.06	852.31
649.41	846.43
649.75	840.43
650.09	834.52
650.43	828.67
650.78	822.50
651.12	816.63
651.46	810.98
651.80	805.43
652.14	800.17
652.49	794.83
652.83	789.65
653.17	784.04
653.51	778.28
653.85	772.92
654.20	767.34
654.54	761.43
654.88	755.78
655.22	749.94
655.56	744.39
655.90	738.98
656.25	733.81
656.59	728.46
656.93	723.51
657.27	718.48
657.61	713.18
657.95	708.23
658.29	703.15
658.64	697.94
658.98	692.69
659.32	687.12
659.66	681.97
660.00	676.75
660.34	671.84
660.68	667.17
661.02	662.21
661.36	657.56
661.70	653.09
662.05	648.74
662.39	644.56
662.73	640.11
663.07	635.81
663.41	631.45
663.75	627.08
664.09	622.57
664.43	618.23
664.77	614.10
665.11	609.89
665.45	605.83
665.79	601.76
666.13	597.68
666.47	593.71
666.81	589.62
667.15	585.58
667.49	581.72
667.83	577.86
668.17	573.99
668.51	570.00
668.85	566.07
669.19	562.28
669.53	558.42
669.87	554.67
670.21	551.07
670.55	547.49
670.89	544.11
671.23	540.68
671.57	537.20
671.91	533.81
672.25	530.39
672.58	526.94
672.92	523.66
673.26	520.53
673.60	517.46
673.94	514.47
674.28	511.69
674.62	508.88
674.96	505.84
675.30	503.03
675.64	500.18
675.97	497.46
676.31	494.67
676.65	491.81
676.99	489.13
677.33	486.22
677.67	483.35
678.01	480.33
678.34	477.47
678.68	474.66
679.02	471.91
679.36	469.18
679.70	466.54
680.04	463.79
680.37	460.95
680.71	458.19
681.05	455.58
681.39	452.88
681.73	450.21
682.06	447.74
682.40	445.19
682.74	442.60
683.08	440.08
683.42	437.56
683.75	435.16
684.09	432.61
684.43	430.27
684.77	427.96
685.10	425.69
685.44	423.40
685.78	421.21
686.12	418.98
686.45	416.74
686.79	414.46
687.13	412.35
687.46	410.29
687.80	408.17
688.14	405.98
688.48	403.93
688.81	401.71
689.15	399.59
689.49	397.49
689.82	395.50
690.16	393.40
690.50	391.42
690.83	389.46
691.17	387.52
691.51	385.57
691.84	383.73
692.18	381.77
692.52	379.87
692.85	377.90
693.19	376.01
693.52	374.20
693.86	372.42
694.20	370.62
694.53	368.83
694.87	367.03
695.21	365.26
695.54	363.45
695.88	361.76
696.21	360.06
696.55	358.36
696.88	356.66
697.22	355.05
697.56	353.43
697.89	351.76
698.23	350.22
698.56	348.69
698.90	347.11
699.23	345.52
699.57	343.94
699.90	342.43
700.24	340.94
700.58	339.40
700.91	337.94
701.25	336.49
701.58	335.07
701.92	333.73
702.25	332.38
702.59	331.03
702.92	329.71
703.26	328.43
703.59	327.20
703.93	326.05
704.26	324.85
704.60	323.59
704.93	322.39
705.26	321.15
705.60	319.96
705.93	318.85
706.27	317.83
706.60	316.87
706.94	315.80
707.27	314.67
707.61	313.67
707.94	312.63
708.27	311.56
708.61	310.51
708.94	309.50
709.28	308.54
709.61	307.59
709.94	306.69
710.28	305.70
710.61	304.76
710.95	303.71
711.28	302.82
711.61	301.92
711.95	301.00
712.28	300.07
712.61	299.13
712.95	298.18
713.28	297.35
713.61	296.41
713.95	295.56
714.28	294.79
714.61	293.96
714.95	293.16
715.28	292.33
715.61	291.51
715.95	290.66
716.28	289.82
716.61	289.02
716.95	288.22
717.28	287.50
717.61	286.75
717.94	286.04
718.28	285.24
718.61	284.48
718.94	283.82
719.27	283.18
719.61	282.54
719.94	281.89
720.27	281.18
720.60	280.56
720.94	279.95
721.27	279.34
721.60	278.77
721.93	278.18
722.27	277.66
722.60	277.10
722.93	276.56
723.26	276.05
723.59	275.51
723.93	274.97
724.26	274.41
724.59	273.84
724.92	273.30
725.25	272.82
725.59	272.34
725.92	271.82
726.25	271.35
726.58	270.83
726.91	270.36
727.24	269.85
727.57	269.40
727.91	268.86
728.24	268.35
728.57	267.83
728.90	267.34
729.23	266.82
729.56	266.39
729.89	265.89
730.22	265.35
730.55	264.88
730.89	264.41
731.22	263.95
731.55	263.51
731.88	263.09
732.21	262.66
732.54	262.23
732.87	261.80
733.20	261.35
733.53	260.98
733.86	260.59
734.19	260.20
734.52	259.79
734.85	259.50
735.18	259.07
735.51	258.71
735.84	258.35
736.17	258.00
736.50	257.61
736.83	257.37
737.16	257.07
737.49	256.71
737.82	256.37
738.15	256.04
738.48	255.72
738.81	255.41
739.14	255.07
739.47	254.72
739.80	254.41
740.13	254.11
740.46	253.79
740.79	253.47
741.12	253.16
741.45	252.85
741.78	252.50
742.11	252.25
742.44	251.91
742.77	251.60
743.10	251.30
743.43	251.02
743.75	250.66
744.08	250.52
744.41	250.25
744.74	249.97
745.07	249.70
745.40	249.46
745.73	249.22
746.06	248.93
746.39	248.71
746.71	248.43
747.04	248.13
747.37	247.86
747.70	247.57
748.03	247.34
748.36	247.12
748.68	246.92
749.01	246.67
749.34	246.47
749.67	246.26
750.00	246.06
750.33	245.90
750.65	245.72
750.98	245.37
751.31	245.15
751.64	244.95
751.97	244.80
752.29	244.57
752.62	244.30
752.95	244.09
753.28	243.90
753.60	243.70
753.93	243.57
754.26	243.40
754.59	243.19
754.91	243.00
755.24	242.81
755.57	242.60
755.90	242.43
756.22	242.24
756.55	242.04
756.88	241.87
757.20	241.66
757.53	241.44
757.86	241.31
758.19	241.21
758.51	241.06
758.84	240.86
759.17	240.75
759.49	240.65
759.82	240.55
760.15	240.41
760.47	240.28
760.80	240.10
761.13	239.96
761.45	239.83
761.78	239.72
762.11	239.59
762.43	239.47
762.76	239.34
763.08	239.23
763.41	239.17
763.74	239.02
764.06	238.87
764.39	238.75
764.71	238.60
765.04	238.45
765.37	238.32
765.69	238.17
766.02	238.03
766.34	237.86
766.67	237.71
767.00	237.60
767.32	237.54
767.65	237.50
767.97	237.39
768.30	237.26
768.62	237.11
768.95	236.96
769.27	236.82
769.60	236.71
769.92	236.60
770.25	236.40
770.57	236.28
770.90	236.19
771.22	236.07
771.55	235.98
771.87	235.90
772.20	235.76
772.52	235.74
772.85	235.73
773.17	235.65
773.50	235.52
773.82	235.41
774.15	235.24
774.47	235.06
774.80	234.94
775.12	234.85
775.45	234.74
775.77	234.67
776.09	234.60
776.42	234.51
776.74	234.44
777.07	234.37
777.39	234.28
777.72	234.16
778.04	234.07
778.36	233.98
778.69	233.83
779.01	233.80
779.33	233.60
779.66	233.42
779.98	233.34
780.31	233.28
780.63	233.24
780.95	233.19
781.28	233.14
781.60	233.05
781.92	232.97
782.25	232.93
782.57	232.87
782.89	232.79
783.22	232.70
783.54	232.64
783.86	232.62
784.19	232.56
784.51	232.55
784.83	232.47
785.16	232.40
785.48	232.39
785.80	232.32
786.12	232.30
786.45	232.24
786.77	232.20
787.09	232.16
787.42	232.04
787.74	232.00
788.06	231.99
788.38	231.97
788.71	231.96
789.03	231.95
789.35	231.93
789.67	231.89
789.99	231.90
790.32	231.84
790.64	231.82
790.96	231.88
791.28	231.82
791.61	231.80
791.93	231.79
792.25	231.74
792.57	231.80
792.89	231.75
793.21	231.78
793.54	231.76
793.86	231.72
794.18	231.72
794.50	231.70
794.82	231.68
795.14	231.65
795.47	231.64
795.79	231.61
796.11	231.54
796.43	231.51
796.75	231.47
797.07	231.48
797.39	231.41
797.71	231.33
798.04	231.32
798.36	231.30
798.68	231.26
799.00	231.27
799.32	231.17
799.64	231.18
799.96	231.14
800.28	231.13
800.60	231.10
800.92	231.10
801.24	231.04
801.56	231.02
801.89	231.00
802.21	231.00
802.53	230.97
802.85	230.98
803.17	230.99
803.49	230.97
803.81	230.93
804.13	230.93
804.45	230.90
804.77	230.88
805.09	230.83
805.41	230.82
805.73	230.77
806.05	230.72
806.37	230.73
806.69	230.68
807.01	230.62
807.33	230.62
807.65	230.55
807.97	230.57
808.28	230.53
808.60	230.49
808.92	230.42
809.24	230.40
809.56	230.36
809.88	230.31
810.20	230.27
810.52	230.26
810.84	230.19
811.16	230.14
811.48	230.10
811.80	230.11
812.12	230.07
812.43	230.07
812.75	230.08
813.07	230.00
813.39	229.99
813.71	229.95
814.03	229.90
814.35	229.86
814.67	229.80
814.98	229.73
815.30	229.72
815.62	229.69
815.94	229.60
816.26	229.59
816.58	229.53
816.89	229.48
817.21	229.42
817.53	229.41
817.85	229.38
818.17	229.35
818.48	229.30
818.80	229.31
819.12	229.26
819.44	229.21
819.76	229.18
820.07	229.15
820.39	229.13
820.71	229.12
821.03	229.13
821.34	229.11
821.66	229.12
821.98	229.09
822.30	229.05
822.61	229.13
822.93	229.07
823.25	229.07
823.57	229.06
823.88	229.02
824.20	229.03
824.52	229.01
824.83	229.02
825.15	228.97
825.47	228.94
825.79	228.94
826.10	228.89
826.42	228.86
826.74	228.86
827.05	228.85
827.37	228.86
827.69	228.83
828.00	228.79
828.32	228.80
828.64	228.81
828.95	228.89
829.27	228.80
829.58	228.83
829.90	228.83
830.22	228.86
830.53	228.85
830.85	228.84
831.17	228.84
831.48	228.83
831.80	228.85
832.11	228.84
832.43	228.85
832.75	228.87
833.06	228.94
833.38	228.91
833.69	228.90
834.01	228.90
834.32	228.90
834.64	228.93
834.96	228.93
835.27	228.91
835.59	228.85
835.90	228.88
836.22	228.89
836.53	228.90
836.85	228.89
837.16	229.01
837.48	229.03
837.79	229.06
838.11	229.05
838.42	229.07
838.74	229.10
839.05	229.06
839.37	229.05
839.68	229.00
840.00	229.01
840.31	229.05
840.63	229.04
840.94	229.00
841.26	228.99
841.57	228.99
841.88	229.02
842.20	229.02
842.51	228.99
842.83	228.98
843.14	229.05
843.46	229.03
843.77	228.94
844.08	228.94
844.40	228.87
844.71	228.88
845.03	228.85
845.34	228.83
845.65	228.84
845.97	228.84
846.28	228.84
846.60	228.82
846.91	228.80
847.22	228.79
847.54	228.83
847.85	228.82
848.16	228.77
848.48	228.71
848.79	228.74
849.10	228.75
849.42	228.75
849.73	228.66
850.04	228.66
850.36	228.66
850.67	228.60
850.98	228.60
851.30	228.61
851.61	228.57
851.92	228.54
852.23	228.56
852.55	228.56
852.86	228.52
853.17	228.53
853.49	228.52
853.80	228.53
854.11	228.51
854.42	228.47
854.74	228.43
855.05	228.42
855.36	228.35
855.67	228.35
855.99	228.32
856.30	228.38
856.61	228.36
856.92	228.33
857.23	228.31
857.55	228.31
857.86	228.28
858.17	228.26
858.48	228.21
858.79	228.19
859.11	228.16
859.42	228.13
859.73	228.10
860.04	228.05
860.35	228.01
860.66	227.98
860.98	227.98
861.29	228.00
861.60	227.98
861.91	228.01
862.22	227.95
862.53	227.95
862.84	227.86
863.16	227.86
863.47	227.83
863.78	227.84
864.09	227.84
864.40	227.84
864.71	227.85
865.02	227.90
865.33	227.88
865.64	227.89
865.95	227.92
866.27	227.97
866.58	227.97
866.89	227.97
867.20	227.96
867.51	227.97
867.82	227.97
868.13	228.02
868.44	228.01
868.75	228.07
869.06	228.06
869.37	228.06
869.68	228.06
869.99	228.08
870.30	228.12
870.61	228.14
870.92	228.14
871.23	228.15
871.54	228.15
871.85	228.19
872.16	228.23
872.47	228.24
872.78	228.19
873.09	228.22
873.40	228.24
873.71	228.25
874.02	228.26
874.33	228.26
874.64	228.27
874.95	228.30
875.26	228.27
875.56	228.27
875.87	228.29
876.18	228.29
876.49	228.41
876.80	228.39
877.11	228.36
877.42	228.35
877.73	228.35
878.04	228.36
878.35	228.34
878.66	228.33
878.96	228.34
879.27	228.36
879.58	228.37
879.89	228.38
880.20	228.43
880.51	228.43
880.82	228.44
881.12	228.43
881.43	228.38
881.74	228.39
882.05	228.39
882.36	228.38
882.67	228.40
882.97	228.30
883.28	228.32
883.59	228.35
883.90	228.39
884.21	228.39
884.51	228.39
884.82	228.37
885.13	228.38
885.44	228.33
885.74	228.36
886.05	228.38
886.36	228.36
886.67	228.32
886.98	228.36
887.28	228.37
887.59	228.38
887.90	228.38
888.20	228.37
888.51	228.35
888.82	228.33
889.13	228.33
889.43	228.37
889.74	228.35
890.05	228.33
890.35	228.29
890.66	228.29
890.97	228.29
891.28	228.29
891.58	228.25
891.89	228.27
892.20	228.21
892.50	228.14
892.81	228.12
893.12	228.08
893.42	228.01
893.73	227.98
894.04	227.95
894.34	227.94
894.65	227.92
894.95	227.92
895.26	227.90
895.57	227.91
895.87	227.79
896.18	227.78
896.48	227.74
896.79	227.78
897.10	227.78
897.40	227.73
897.71	227.74
898.01	227.74
898.32	227.73
898.63	227.70
898.93	227.72
899.24	227.71
899.54	227.73
899.85	227.72
900.15	227.73
900.46	227.71
900.76	227.72
901.07	227.71
901.38	227.70
901.68	227.73
901.99	227.69
902.29	227.73
902.60	227.73
902.90	227.73
903.21	227.67
903.51	227.64
903.82	227.67
904.12	227.66
904.43	227.66
904.73	227.69
905.03	227.74
905.34	227.83
905.64	227.81
905.95	227.83
906.25	227.84
906.56	227.80
906.86	227.82
907.17	227.84
907.47	227.86
907.77	227.87
908.08	227.88
908.38	227.90
908.69	227.93
908.99	227.98
909.30	228.00
909.60	228.03
909.90	228.08
910.21	228.03
910.51	228.01
910.81	228.03
911.12	228.02
911.42	228.00
911.73	227.93
912.03	227.99
912.33	228.02
912.64	228.05
912.94	228.10
913.24	228.09
913.55	228.08
913.85	228.11
914.15	228.12
914.46	228.16
914.76	228.16
915.06	228.16
915.37	228.12
915.67	228.12
915.97	228.11
916.27	228.11
916.58	228.17
916.88	228.20
917.18	228.18
917.49	228.28
917.79	228.28
918.09	228.31
918.39	228.33
918.70	228.33
919.00	228.33
919.30	228.36
919.60	228.37
919.91	228.38
920.21	228.39
920.51	228.36
920.81	228.31
921.12	228.34
921.42	228.33
921.72	228.35
922.02	228.36
922.32	228.36
922.63	228.34
922.93	228.37
923.23	228.36
923.53	228.34
923.83	228.28
924.13	228.31
924.44	228.29
924.74	228.26
925.04	228.28
925.34	228.24
925.64	228.21
925.94	228.20
926.24	228.20
926.55	228.17
926.85	228.23
927.15	228.23
927.45	228.21
927.75	228.19
928.05	228.14
928.35	228.09
928.65	228.10
928.95	228.11
929.26	228.03
929.56	228.03
929.86	228.04
930.16	227.97
930.46	227.90
930.76	227.88
931.06	227.86
931.36	227.78
931.66	227.80
931.96	227.79
932.26	227.76
932.56	227.72
932.86	227.70
933.16	227.60
933.46	227.58
933.76	227.54
934.06	227.55
934.36	227.57
934.66	227.57
934.96	227.54
935.26	227.52
935.56	227.54
935.86	227.53
936.16	227.50
936.46	227.51
936.76	227.52
937.06	227.48
937.36	227.48
937.66	227.49
937.96	227.48
938.26	227.41
938.56	227.42
938.86	227.45
939.16	227.46
939.46	227.50
939.76	227.52
940.06	227.55
940.35	227.54
940.65	227.48
940.95	227.51
941.25	227.50
941.55	227.49
941.85	227.50
942.15	227.51
942.45	227.53
942.75	227.52
943.04	227.52
943.34	227.55
943.64	227.52
943.94	227.51
944.24	227.50
944.54	227.55
944.84	227.57
945.13	227.58
945.43	227.60
945.73	227.61
946.03	227.61
946.33	227.61
946.62	227.61
946.92	227.67
947.22	227.66
947.52	227.69
947.82	227.70
948.11	227.72
948.41	227.70
948.71	227.68
949.01	227.71
949.31	227.73
949.60	227.72
949.90	227.77
950.20	227.79
950.50	227.82
950.79	227.81
951.09	227.86
951.39	227.85
951.69	227.83
951.98	227.83
952.28	227.84
952.58	227.85
952.87	227.86
953.17	227.87
953.47	227.89
953.76	227.88
954.06	227.91
954.36	227.90
954.66	227.91
954.95	227.94
955.25	227.96
955.55	227.98
955.84	227.98
956.14	228.00
956.44	228.00
956.73	228.01
957.03	228.06
957.32	228.03
957.62	228.00
957.92	228.04
958.21	228.05
958.51	228.15
958.81	228.15
959.10	228.17
959.40	228.21
959.69	228.21
959.99	228.23
960.29	228.18
960.58	228.16
960.88	228.19
961.17	228.20
961.47	228.19
961.76	228.18
962.06	228.22
962.36	228.20
962.65	228.22
962.95	228.21
963.24	228.16
963.54	228.16
963.83	228.19
964.13	228.17
964.42	228.11
964.72	228.02
965.01	227.99
965.31	227.97
965.60	227.90
965.90	227.94
966.19	227.89
966.49	227.91
966.78	227.89
967.08	227.87
967.37	227.86
967.67	227.82
967.96	227.82
968.26	227.81
968.55	227.75
968.85	227.72
969.14	227.69
969.43	227.68
969.73	227.65
970.02	227.64
970.32	227.61
970.61	227.62
970.91	227.58
971.20	227.55
971.49	227.55
971.79	227.55
972.08	227.48
972.38	227.47
972.67	227.45
972.96	227.45
973.26	227.41
973.55	227.44
973.85	227.43
974.14	227.38
974.43	227.36
974.73	227.35
975.02	227.37
975.31	227.37
975.61	227.34
975.90	227.33
976.19	227.30
976.49	227.32
976.78	227.33
977.07	227.29
977.37	227.29
977.66	227.27
977.95	227.24
978.24	227.25
978.54	227.27
978.83	227.26
979.12	227.24
979.42	227.29
979.71	227.26
980.00	227.25
980.29	227.30
980.59	227.26
980.88	227.29
981.17	227.25
981.46	227.24
981.76	227.25
982.05	227.28
982.34	227.32
982.63	227.32
982.93	227.33
983.22	227.35
983.51	227.38
983.80	227.42
984.09	227.46
984.39	227.43
984.68	227.42
984.97	227.43
985.26	227.43
985.55	227.44
985.85	227.41
986.14	227.45
986.43	227.44
986.72	227.45
987.01	227.45
987.30	227.51
987.59	227.53
987.89	227.54
988.18	227.52
988.47	227.49
988.76	227.49
989.05	227.50
989.34	227.51
989.63	227.54
989.92	227.53
990.22	227.54
990.51	227.57
990.80	227.55
991.09	227.59
991.38	227.62
991.67	227.62
991.96	227.60
992.25	227.60
992.54	227.61
992.83	227.66
993.12	227.65
993.41	227.65
993.70	227.67
993.99	227.70
994.28	227.70
994.58	227.74
994.87	227.72
995.16	227.71
995.45	227.70
995.74	227.68
996.03	227.68
996.32	227.68
996.61	227.67
996.90	227.69
997.19	227.65
997.48	227.68
997.77	227.67
998.06	227.71
998.34	227.69
998.63	227.71
998.92	227.70
999.21	227.72
999.50	227.70
999.79	227.67
1000.08	227.62
1000.37	227.66
1000.66	227.64
1000.95	227.66
1001.24	227.63
1001.53	227.65
1001.82	227.64
1002.11	227.61
1002.40	227.63
1002.68	227.66
1002.97	227.69
1003.26	227.65
1003.55	227.60
1003.84	227.60
1004.13	227.63
1004.42	227.64
1004.71	227.61
1004.99	227.56
1005.28	227.56
1005.57	227.54
1005.86	227.52
1006.15	227.52
1006.44	227.48
1006.72	227.47
1007.01	227.44
1007.30	227.44
1007.59	227.41
1007.88	227.39
1008.17	227.41
1008.45	227.38
1008.74	227.35
1009.03	227.32
1009.32	227.33
1009.60	227.33
1009.89	227.31
1010.18	227.24
1010.47	227.21
1010.76	227.16
1011.04	227.18
1011.33	227.22
1011.62	227.20
1011.91	227.17
1012.19	227.19
1012.48	227.16
1012.77	227.15
1013.05	227.19
1013.34	227.20
1013.63	227.20
1013.92	227.17
1014.20	227.15
1014.49	227.11
1014.78	227.11
1015.06	227.09
1015.35	227.10
1015.64	227.11
1015.92	227.14
1016.21	227.16
1016.50	227.14
1016.78	227.19
1017.07	227.17
1017.36	227.14
1017.64	227.16
1017.93	227.21
1018.22	227.20
1018.50	227.23
1018.79	227.25
1019.08	227.25
1019.36	227.27
1019.65	227.28
1019.93	227.33
1020.22	227.37
1020.51	227.43
1020.79	227.42
1021.08	227.23
1021.36	227.43
1021.65	227.55
1021.94	227.85
1022.22	227.67
1022.51	227.03
1022.79	227.67
1023.08	227.59
1023.36	228.19
1023.65	227.33
>>>>>End Processed Spectral Data<<<<<
