SpectraSuite Data File
++++++++++++++++++++++++++++++++++++
Date: Fri Feb 01 15:17:54 EST 2013
User: group
Dark Spectrum Present: No
Reference Spectrum Present: No
Number of Sampled Component Spectra: 1
Spectrometers: USB2E7196
Integration Time (usec): 35000 (USB2E7196)
Spectra Averaged: 100 (USB2E7196)
Boxcar Smoothing: 10 (USB2E7196)
Correct for Electrical Dark: No (USB2E7196)
Strobe/Lamp Enabled: No (USB2E7196)
Correct for Detector Non-linearity: No (USB2E7196)
Correct for Stray Light: No (USB2E7196)
Number of Pixels in Processed Spectrum: 2048
>>>>>Begin Processed Spectral Data<<<<<
339.09	0.00
339.48	215.16
339.86	217.09
340.24	218.19
340.63	219.31
341.01	222.57
341.39	221.93
341.78	223.58
342.16	225.33
342.54	225.03
342.93	213.59
343.31	224.39
343.69	224.93
344.07	225.35
344.46	225.77
344.84	226.18
345.22	226.41
345.60	226.66
345.99	226.86
346.37	226.95
346.75	227.07
347.13	227.14
347.52	227.16
347.90	227.22
348.28	227.24
348.66	227.27
349.05	227.28
349.43	227.28
349.81	227.33
350.19	227.37
350.57	227.44
350.96	227.46
351.34	227.53
351.72	227.62
352.10	227.71
352.48	227.75
352.87	227.76
353.25	227.82
353.63	227.88
354.01	227.92
354.39	228.01
354.77	228.05
355.15	228.15
355.54	228.24
355.92	228.28
356.30	228.35
356.68	228.50
357.06	228.55
357.44	228.60
357.82	228.65
358.20	228.76
358.58	228.78
358.97	228.88
359.35	228.97
359.73	229.07
360.11	229.12
360.49	229.17
360.87	229.23
361.25	229.26
361.63	229.29
362.01	229.34
362.39	229.35
362.77	229.39
363.15	229.37
363.53	229.40
363.91	229.43
364.29	229.47
364.67	229.38
365.05	229.39
365.43	229.39
365.81	229.39
366.19	229.39
366.57	229.44
366.95	229.38
367.33	229.32
367.71	229.29
368.09	229.32
368.47	229.33
368.85	229.32
369.23	229.31
369.61	229.28
369.99	229.28
370.37	229.25
370.75	229.28
371.13	229.19
371.51	229.15
371.89	229.12
372.27	229.05
372.65	229.01
373.03	228.95
373.41	228.89
373.78	228.85
374.16	228.78
374.54	228.68
374.92	228.63
375.30	228.57
375.68	228.46
376.06	228.39
376.44	228.30
376.82	228.23
377.19	228.19
377.57	228.12
377.95	228.01
378.33	227.92
378.71	227.78
379.09	227.80
379.47	227.71
379.84	227.62
380.22	227.52
380.60	227.44
380.98	227.38
381.36	227.34
381.73	227.25
382.11	227.16
382.49	227.10
382.87	227.02
383.25	226.97
383.62	227.03
384.00	226.92
384.38	226.87
384.76	226.78
385.13	226.72
385.51	226.68
385.89	226.63
386.27	226.60
386.64	226.58
387.02	226.50
387.40	226.46
387.78	226.41
388.15	226.36
388.53	226.33
388.91	226.31
389.29	226.26
389.66	226.28
390.04	226.26
390.42	226.27
390.79	226.30
391.17	226.31
391.55	226.19
391.92	226.19
392.30	226.23
392.68	226.24
393.05	226.22
393.43	226.21
393.81	226.26
394.18	226.29
394.56	226.29
394.94	226.34
395.31	226.36
395.69	226.45
396.06	226.51
396.44	226.53
396.82	226.52
397.19	226.61
397.57	226.63
397.95	226.68
398.32	226.71
398.70	226.78
399.07	226.85
399.45	226.92
399.82	227.01
400.20	227.08
400.58	227.14
400.95	227.20
401.33	227.29
401.70	227.41
402.08	227.49
402.45	227.61
402.83	227.74
403.20	227.86
403.58	227.93
403.95	228.07
404.33	228.25
404.71	228.40
405.08	228.58
405.46	228.72
405.83	228.91
406.21	229.05
406.58	229.23
406.96	229.38
407.33	229.59
407.70	229.80
408.08	230.06
408.45	230.32
408.83	230.55
409.20	230.80
409.58	230.99
409.95	231.27
410.33	231.51
410.70	231.75
411.08	232.06
411.45	232.40
411.82	232.71
412.20	233.07
412.57	233.51
412.95	233.84
413.32	234.25
413.69	234.60
414.07	235.06
414.44	235.51
414.82	235.98
415.19	236.52
415.56	237.05
415.94	237.61
416.31	238.25
416.68	238.91
417.06	239.62
417.43	240.29
417.81	241.05
418.18	241.85
418.55	242.67
418.93	243.52
419.30	244.40
419.67	245.30
420.04	246.21
420.42	247.18
420.79	248.33
421.16	249.47
421.54	250.68
421.91	251.87
422.28	253.09
422.66	254.44
423.03	255.73
423.40	257.08
423.77	258.49
424.15	259.90
424.52	261.37
424.89	263.02
425.26	264.55
425.64	265.99
426.01	267.57
426.38	269.27
426.75	270.95
427.13	272.66
427.50	274.50
427.87	276.45
428.24	278.32
428.61	280.05
428.99	282.05
429.36	284.14
429.73	286.20
430.10	288.24
430.47	290.28
430.85	292.43
431.22	294.65
431.59	296.99
431.96	299.21
432.33	301.70
432.70	304.08
433.08	306.89
433.45	309.56
433.82	312.17
434.19	315.03
434.56	317.87
434.93	320.59
435.30	323.23
435.68	326.11
436.05	328.98
436.42	331.81
436.79	334.32
437.16	337.09
437.53	339.98
437.90	342.80
438.27	345.59
438.64	348.41
439.01	351.03
439.38	353.30
439.75	355.54
440.13	358.02
440.50	360.36
440.87	362.25
441.24	364.17
441.61	366.30
441.98	367.81
442.35	369.58
442.72	371.45
443.09	373.25
443.46	374.25
443.83	374.80
444.20	375.34
444.57	376.17
444.94	376.47
445.31	376.82
445.68	377.16
446.05	377.22
446.42	376.87
446.79	376.42
447.16	375.94
447.53	375.61
447.90	374.45
448.27	373.31
448.64	371.77
449.01	370.68
449.37	368.73
449.74	366.83
450.11	364.63
450.48	362.12
450.85	359.59
451.22	357.38
451.59	355.36
451.96	353.40
452.33	350.80
452.70	348.40
453.07	345.55
453.43	342.67
453.80	339.89
454.17	337.18
454.54	334.66
454.91	331.98
455.28	329.27
455.65	326.79
456.02	324.27
456.38	322.05
456.75	319.33
457.12	317.11
457.49	314.86
457.86	312.68
458.23	310.82
458.59	308.75
458.96	306.69
459.33	304.82
459.70	302.92
460.07	301.41
460.43	299.68
460.80	298.02
461.17	296.58
461.54	295.06
461.91	293.60
462.27	292.12
462.64	290.79
463.01	289.44
463.38	288.14
463.74	286.77
464.11	285.60
464.48	284.60
464.85	283.46
465.21	282.58
465.58	281.63
465.95	280.48
466.32	279.57
466.68	278.63
467.05	277.74
467.42	276.82
467.78	275.84
468.15	274.93
468.52	274.25
468.88	273.37
469.25	272.63
469.62	272.02
469.98	271.33
470.35	270.74
470.72	270.13
471.08	269.45
471.45	268.91
471.82	268.34
472.18	267.74
472.55	267.30
472.92	266.75
473.28	266.28
473.65	265.86
474.02	265.41
474.38	265.04
474.75	264.71
475.11	264.37
475.48	264.11
475.85	263.90
476.21	263.65
476.58	263.48
476.94	263.30
477.31	263.09
477.67	262.98
478.04	262.90
478.41	262.84
478.77	262.90
479.14	262.80
479.50	262.84
479.87	262.90
480.23	262.95
480.60	263.06
480.96	263.15
481.33	263.37
481.69	263.56
482.06	263.76
482.42	263.92
482.79	264.17
483.15	264.49
483.52	264.86
483.88	265.22
484.25	265.57
484.61	265.98
484.98	266.47
485.34	267.01
485.71	267.57
486.07	268.17
486.44	268.77
486.80	269.52
487.17	270.26
487.53	271.09
487.90	271.95
488.26	272.89
488.62	273.91
488.99	274.88
489.35	275.93
489.72	277.08
490.08	278.33
490.44	279.59
490.81	280.94
491.17	282.31
491.54	283.79
491.90	285.35
492.26	287.03
492.63	288.79
492.99	290.55
493.36	292.44
493.72	294.48
494.08	296.58
494.45	298.83
494.81	301.19
495.17	303.59
495.54	306.18
495.90	308.81
496.26	311.60
496.63	314.56
496.99	317.66
497.35	320.88
497.72	324.26
498.08	327.75
498.44	331.38
498.80	335.32
499.17	339.38
499.53	343.53
499.89	347.87
500.26	352.34
500.62	357.01
500.98	362.01
501.34	367.11
501.71	372.42
502.07	377.80
502.43	383.38
502.79	389.16
503.16	395.22
503.52	401.56
503.88	407.97
504.24	414.61
504.60	421.52
504.97	428.65
505.33	435.99
505.69	443.73
506.05	451.48
506.41	459.26
506.78	467.40
507.14	475.85
507.50	484.60
507.86	493.60
508.22	502.81
508.59	511.96
508.95	521.51
509.31	531.31
509.67	541.46
510.03	551.77
510.39	562.33
510.75	573.12
511.12	584.02
511.48	595.27
511.84	606.69
512.20	618.24
512.56	630.26
512.92	642.39
513.28	654.60
513.64	667.08
514.00	679.81
514.37	692.72
514.73	705.74
515.09	718.76
515.45	732.10
515.81	745.67
516.17	759.66
516.53	773.81
516.89	787.93
517.25	802.09
517.61	816.47
517.97	831.04
518.33	845.48
518.69	860.26
519.05	875.37
519.41	890.60
519.77	906.11
520.13	921.57
520.49	937.00
520.85	952.63
521.21	968.44
521.57	984.84
521.93	1000.70
522.29	1017.24
522.65	1033.54
523.01	1049.78
523.37	1065.88
523.73	1082.15
524.09	1098.29
524.45	1114.75
524.81	1131.47
525.17	1148.41
525.53	1165.30
525.89	1182.22
526.25	1199.00
526.61	1215.35
526.97	1232.07
527.33	1248.61
527.68	1265.21
528.04	1281.87
528.40	1298.48
528.76	1315.55
529.12	1332.12
529.48	1348.94
529.84	1364.92
530.20	1381.58
530.56	1398.64
530.91	1416.07
531.27	1432.89
531.63	1449.33
531.99	1465.92
532.35	1481.94
532.71	1497.84
533.07	1514.20
533.42	1530.26
533.78	1546.47
534.14	1562.86
534.50	1578.32
534.86	1594.32
535.21	1609.64
535.57	1625.73
535.93	1641.33
536.29	1656.17
536.65	1671.37
537.00	1686.31
537.36	1701.76
537.72	1716.41
538.08	1730.95
538.44	1744.86
538.79	1758.82
539.15	1772.81
539.51	1786.50
539.87	1800.98
540.22	1814.67
540.58	1828.60
540.94	1841.86
541.29	1855.06
541.65	1867.77
542.01	1881.14
542.37	1893.51
542.72	1906.03
543.08	1917.65
543.44	1930.02
543.79	1941.33
544.15	1952.37
544.51	1964.08
544.87	1975.08
545.22	1985.95
545.58	1996.20
545.94	2006.05
546.29	2015.98
546.65	2025.79
547.01	2035.21
547.36	2043.93
547.72	2052.59
548.07	2060.42
548.43	2068.79
548.79	2076.72
549.14	2084.38
549.50	2091.74
549.86	2099.38
550.21	2106.70
550.57	2113.88
550.92	2120.59
551.28	2127.78
551.64	2134.85
551.99	2141.41
552.35	2147.59
552.70	2153.75
553.06	2159.80
553.41	2166.18
553.77	2172.18
554.13	2178.25
554.48	2184.43
554.84	2189.93
555.19	2195.36
555.55	2200.43
555.90	2204.68
556.26	2209.45
556.61	2214.06
556.97	2218.18
557.32	2222.40
557.68	2226.58
558.03	2230.92
558.39	2234.61
558.74	2239.19
559.10	2243.13
559.45	2246.73
559.81	2251.01
560.16	2254.81
560.52	2257.83
560.87	2261.22
561.23	2263.80
561.58	2266.81
561.94	2269.17
562.29	2271.49
562.64	2274.04
563.00	2276.67
563.35	2280.26
563.71	2283.43
564.06	2286.75
564.42	2289.71
564.77	2292.03
565.12	2294.02
565.48	2295.66
565.83	2297.37
566.19	2298.59
566.54	2299.28
566.89	2300.41
567.25	2300.88
567.60	2302.29
567.96	2303.97
568.31	2304.64
568.66	2305.73
569.02	2306.02
569.37	2306.32
569.72	2307.03
570.08	2306.98
570.43	2307.00
570.78	2306.27
571.14	2304.64
571.49	2303.21
571.84	2302.72
572.20	2301.46
572.55	2300.48
572.90	2299.06
573.26	2297.65
573.61	2295.87
573.96	2294.08
574.31	2290.97
574.67	2287.81
575.02	2283.93
575.37	2280.52
575.72	2276.59
576.08	2273.07
576.43	2269.83
576.78	2266.20
577.13	2263.01
577.49	2260.00
577.84	2256.34
578.19	2252.59
578.54	2248.83
578.90	2244.35
579.25	2238.81
579.60	2233.83
579.95	2228.67
580.30	2223.53
580.66	2218.31
581.01	2213.19
581.36	2208.24
581.71	2203.94
582.06	2199.42
582.42	2194.86
582.77	2189.52
583.12	2184.86
583.47	2180.00
583.82	2174.70
584.17	2169.25
584.53	2163.59
584.88	2157.71
585.23	2151.71
585.58	2146.19
585.93	2140.56
586.28	2135.92
586.63	2130.72
586.98	2125.49
587.34	2120.89
587.69	2115.92
588.04	2110.62
588.39	2104.92
588.74	2098.27
589.09	2092.08
589.44	2085.32
589.79	2079.25
590.14	2073.63
590.49	2067.02
590.84	2060.78
591.19	2054.83
591.54	2048.41
591.89	2040.91
592.25	2034.11
592.60	2026.99
592.95	2019.23
593.30	2011.94
593.65	2004.10
594.00	1997.09
594.35	1989.94
594.70	1981.69
595.05	1974.39
595.40	1967.00
595.75	1959.48
596.10	1953.27
596.45	1946.40
596.80	1940.10
597.15	1933.40
597.50	1926.22
597.85	1919.85
598.19	1912.97
598.54	1905.79
598.89	1899.04
599.24	1893.30
599.59	1886.48
599.94	1880.21
600.29	1873.86
600.64	1867.21
600.99	1859.72
601.34	1852.65
601.69	1845.54
602.04	1838.61
602.39	1831.35
602.74	1824.36
603.08	1817.56
603.43	1810.74
603.78	1803.40
604.13	1796.12
604.48	1788.84
604.83	1781.91
605.18	1774.69
605.53	1766.65
605.87	1758.56
606.22	1751.30
606.57	1743.15
606.92	1735.89
607.27	1728.67
607.62	1721.73
607.96	1714.26
608.31	1707.68
608.66	1700.20
609.01	1692.70
609.36	1685.15
609.70	1677.05
610.05	1668.95
610.40	1661.18
610.75	1652.79
611.10	1645.14
611.44	1636.86
611.79	1628.92
612.14	1620.21
612.49	1611.22
612.83	1602.87
613.18	1594.75
613.53	1586.68
613.88	1578.23
614.22	1570.01
614.57	1561.39
614.92	1553.37
615.27	1545.83
615.61	1537.45
615.96	1529.34
616.31	1521.70
616.65	1514.32
617.00	1506.73
617.35	1499.13
617.70	1490.83
618.04	1482.28
618.39	1474.01
618.74	1466.34
619.08	1457.90
619.43	1450.36
619.78	1443.45
620.12	1436.31
620.47	1428.79
620.82	1420.57
621.16	1413.13
621.51	1405.44
621.85	1397.78
622.20	1389.20
622.55	1380.93
622.89	1373.20
623.24	1365.68
623.59	1358.30
623.93	1350.73
624.28	1343.53
624.62	1336.07
624.97	1328.89
625.32	1322.26
625.66	1315.23
626.01	1307.93
626.35	1300.48
626.70	1292.57
627.04	1284.80
627.39	1277.01
627.73	1269.59
628.08	1262.73
628.43	1255.43
628.77	1248.03
629.12	1240.55
629.46	1233.42
629.81	1226.06
630.15	1218.79
630.50	1211.40
630.84	1203.18
631.19	1195.35
631.53	1187.86
631.88	1180.20
632.22	1172.63
632.57	1165.30
632.91	1157.77
633.26	1150.50
633.60	1143.18
633.95	1136.30
634.29	1129.29
634.64	1122.66
634.98	1115.40
635.32	1108.28
635.67	1101.75
636.01	1095.17
636.36	1088.37
636.70	1081.92
637.05	1075.32
637.39	1068.79
637.73	1062.22
638.08	1056.40
638.42	1050.44
638.77	1044.01
639.11	1037.38
639.45	1031.07
639.80	1024.35
640.14	1018.01
640.49	1011.44
640.83	1005.15
641.17	998.90
641.52	992.62
641.86	986.24
642.20	980.35
642.55	974.11
642.89	967.53
643.23	960.99
643.58	955.19
643.92	948.98
644.26	942.94
644.61	937.00
644.95	930.96
645.29	924.37
645.64	917.53
645.98	911.16
646.32	905.39
646.66	899.29
647.01	893.58
647.35	887.85
647.69	882.13
648.04	876.62
648.38	870.81
648.72	864.76
649.06	858.72
649.41	852.85
649.75	846.79
650.09	840.90
650.43	835.10
650.78	829.03
651.12	823.04
651.46	817.32
651.80	811.48
652.14	806.06
652.49	800.68
652.83	795.57
653.17	789.89
653.51	784.24
653.85	778.91
654.20	773.30
654.54	767.28
654.88	761.51
655.22	755.67
655.56	749.96
655.90	744.55
656.25	739.21
656.59	733.79
656.93	728.66
657.27	723.54
657.61	718.06
657.95	712.93
658.29	707.89
658.64	702.64
658.98	697.35
659.32	691.89
659.66	686.68
660.00	681.33
660.34	676.42
660.68	671.50
661.02	666.43
661.36	661.69
661.70	657.23
662.05	652.84
662.39	648.42
662.73	643.99
663.07	639.58
663.41	635.17
663.75	630.71
664.09	626.18
664.43	621.78
664.77	617.69
665.11	613.41
665.45	609.31
665.79	605.27
666.13	601.17
666.47	597.12
666.81	592.98
667.15	588.88
667.49	585.03
667.83	581.23
668.17	577.29
668.51	573.29
668.85	569.29
669.19	565.50
669.53	561.69
669.87	557.79
670.21	554.08
670.55	550.53
670.89	547.13
671.23	543.71
671.57	540.23
671.91	536.72
672.25	533.28
672.58	529.72
672.92	526.33
673.26	523.23
673.60	520.15
673.94	517.07
674.28	514.19
674.62	511.22
674.96	508.12
675.30	505.25
675.64	502.30
675.97	499.57
676.31	496.70
676.65	493.82
676.99	491.15
677.33	488.36
677.67	485.53
678.01	482.48
678.34	479.53
678.68	476.68
679.02	473.87
679.36	471.12
679.70	468.47
680.04	465.71
680.37	462.82
680.71	460.04
681.05	457.47
681.39	454.79
681.73	452.13
682.06	449.62
682.40	447.08
682.74	444.57
683.08	442.03
683.42	439.44
683.75	436.99
684.09	434.42
684.43	431.97
684.77	429.51
685.10	427.21
685.44	424.95
685.78	422.68
686.12	420.53
686.45	418.25
686.79	415.96
687.13	413.85
687.46	411.69
687.80	409.52
688.14	407.29
688.48	405.23
688.81	403.01
689.15	400.86
689.49	398.73
689.82	396.66
690.16	394.59
690.50	392.61
690.83	390.59
691.17	388.65
691.51	386.74
691.84	384.90
692.18	382.97
692.52	380.99
692.85	379.04
693.19	377.15
693.52	375.36
693.86	373.54
694.20	371.68
694.53	369.88
694.87	368.02
695.21	366.27
695.54	364.49
695.88	362.75
696.21	361.04
696.55	359.35
696.88	357.65
697.22	355.94
697.56	354.35
697.89	352.73
698.23	351.14
698.56	349.53
698.90	347.87
699.23	346.26
699.57	344.68
699.90	343.17
700.24	341.60
700.58	340.05
700.91	338.56
701.25	337.10
701.58	335.74
701.92	334.42
702.25	332.99
702.59	331.57
702.92	330.21
703.26	328.89
703.59	327.62
703.93	326.44
704.26	325.26
704.60	323.95
704.93	322.70
705.26	321.44
705.60	320.23
705.93	319.08
706.27	318.05
706.60	317.04
706.94	315.91
707.27	314.77
707.61	313.70
707.94	312.68
708.27	311.61
708.61	310.48
708.94	309.44
709.28	308.46
709.61	307.48
709.94	306.57
710.28	305.56
710.61	304.58
710.95	303.46
711.28	302.52
711.61	301.58
711.95	300.68
712.28	299.73
712.61	298.78
712.95	297.85
713.28	296.91
713.61	296.00
713.95	295.13
714.28	294.30
714.61	293.45
714.95	292.60
715.28	291.73
715.61	290.95
715.95	290.10
716.28	289.26
716.61	288.44
716.95	287.62
717.28	286.88
717.61	286.09
717.94	285.41
718.28	284.62
718.61	283.90
718.94	283.19
719.27	282.54
719.61	281.96
719.94	281.32
720.27	280.61
720.60	279.97
720.94	279.34
721.27	278.73
721.60	278.16
721.93	277.57
722.27	277.03
722.60	276.46
722.93	275.84
723.26	275.35
723.59	274.81
723.93	274.30
724.26	273.78
724.59	273.24
724.92	272.74
725.25	272.26
725.59	271.76
725.92	271.26
726.25	270.75
726.58	270.20
726.91	269.71
727.24	269.30
727.57	268.82
727.91	268.34
728.24	267.90
728.57	267.40
728.90	266.97
729.23	266.49
729.56	266.07
729.89	265.67
730.22	265.18
730.55	264.76
730.89	264.27
731.22	263.81
731.55	263.40
731.88	262.95
732.21	262.56
732.54	262.10
732.87	261.67
733.20	261.26
733.53	260.89
733.86	260.52
734.19	260.10
734.52	259.74
734.85	259.42
735.18	258.99
735.51	258.66
735.84	258.24
736.17	257.89
736.50	257.49
736.83	257.25
737.16	256.88
737.49	256.50
737.82	256.18
738.15	255.88
738.48	255.55
738.81	255.21
739.14	254.85
739.47	254.55
739.80	254.27
740.13	253.94
740.46	253.61
740.79	253.28
741.12	252.99
741.45	252.67
741.78	252.29
742.11	252.01
742.44	251.64
742.77	251.38
743.10	251.06
743.43	250.73
743.75	250.34
744.08	250.18
744.41	249.90
744.74	249.60
745.07	249.26
745.40	249.02
745.73	248.77
746.06	248.47
746.39	248.19
746.71	247.88
747.04	247.64
747.37	247.37
747.70	247.12
748.03	246.84
748.36	246.58
748.68	246.33
749.01	246.10
749.34	245.89
749.67	245.65
750.00	245.41
750.33	245.26
750.65	245.06
750.98	244.72
751.31	244.51
751.64	244.29
751.97	244.14
752.29	243.96
752.62	243.72
752.95	243.49
753.28	243.30
753.60	243.09
753.93	242.92
754.26	242.75
754.59	242.50
754.91	242.29
755.24	242.12
755.57	241.96
755.90	241.74
756.22	241.58
756.55	241.40
756.88	241.22
757.20	241.01
757.53	240.83
757.86	240.67
758.19	240.53
758.51	240.39
758.84	240.17
759.17	239.97
759.49	239.82
759.82	239.76
760.15	239.61
760.47	239.49
760.80	239.31
761.13	239.18
761.45	239.07
761.78	238.95
762.11	238.85
762.43	238.72
762.76	238.59
763.08	238.47
763.41	238.36
763.74	238.24
764.06	238.09
764.39	237.95
764.71	237.84
765.04	237.69
765.37	237.57
765.69	237.45
766.02	237.34
766.34	237.21
766.67	237.08
767.00	236.98
767.32	236.89
767.65	236.86
767.97	236.74
768.30	236.64
768.62	236.54
768.95	236.39
769.27	236.27
769.60	236.18
769.92	236.07
770.25	235.92
770.57	235.82
770.90	235.76
771.22	235.65
771.55	235.56
771.87	235.48
772.20	235.39
772.52	235.39
772.85	235.37
773.17	235.29
773.50	235.19
773.82	235.09
774.15	234.99
774.47	234.81
774.80	234.70
775.12	234.58
775.45	234.50
775.77	234.40
776.09	234.31
776.42	234.23
776.74	234.16
777.07	234.10
777.39	234.03
777.72	233.94
778.04	233.87
778.36	233.77
778.69	233.66
779.01	233.57
779.33	233.39
779.66	233.21
779.98	233.13
780.31	233.03
780.63	232.98
780.95	232.91
781.28	232.86
781.60	232.79
781.92	232.73
782.25	232.63
782.57	232.58
782.89	232.50
783.22	232.42
783.54	232.28
783.86	232.22
784.19	232.13
784.51	232.05
784.83	231.97
785.16	231.92
785.48	231.89
785.80	231.84
786.12	231.79
786.45	231.77
786.77	231.69
787.09	231.61
787.42	231.53
787.74	231.45
788.06	231.38
788.38	231.31
788.71	231.25
789.03	231.20
789.35	231.15
789.67	231.10
789.99	231.04
790.32	231.03
790.64	231.01
790.96	231.02
791.28	230.96
791.61	230.95
791.93	230.87
792.25	230.84
792.57	230.85
792.89	230.80
793.21	230.77
793.54	230.75
793.86	230.73
794.18	230.70
794.50	230.67
794.82	230.66
795.14	230.66
795.47	230.66
795.79	230.65
796.11	230.64
796.43	230.62
796.75	230.61
797.07	230.57
797.39	230.49
797.71	230.42
798.04	230.40
798.36	230.37
798.68	230.38
799.00	230.39
799.32	230.33
799.64	230.33
799.96	230.31
800.28	230.31
800.60	230.31
800.92	230.29
801.24	230.28
801.56	230.26
801.89	230.29
802.21	230.28
802.53	230.26
802.85	230.23
803.17	230.27
803.49	230.20
803.81	230.18
804.13	230.21
804.45	230.17
804.77	230.14
805.09	230.15
805.41	230.11
805.73	230.06
806.05	230.03
806.37	230.00
806.69	229.97
807.01	229.97
807.33	229.93
807.65	229.90
807.97	229.91
808.28	229.90
808.60	229.83
808.92	229.76
809.24	229.77
809.56	229.75
809.88	229.68
810.20	229.70
810.52	229.70
810.84	229.66
811.16	229.63
811.48	229.61
811.80	229.59
812.12	229.55
812.43	229.55
812.75	229.51
813.07	229.47
813.39	229.41
813.71	229.35
814.03	229.32
814.35	229.29
814.67	229.23
814.98	229.19
815.30	229.14
815.62	229.13
815.94	229.07
816.26	229.10
816.58	229.05
816.89	228.99
817.21	228.97
817.53	228.92
817.85	228.89
818.17	228.87
818.48	228.81
818.80	228.80
819.12	228.72
819.44	228.69
819.76	228.65
820.07	228.66
820.39	228.63
820.71	228.61
821.03	228.58
821.34	228.56
821.66	228.54
821.98	228.55
822.30	228.51
822.61	228.55
822.93	228.42
823.25	228.35
823.57	228.36
823.88	228.33
824.20	228.37
824.52	228.35
824.83	228.31
825.15	228.29
825.47	228.25
825.79	228.26
826.10	228.24
826.42	228.22
826.74	228.16
827.05	228.11
827.37	228.09
827.69	228.02
828.00	227.97
828.32	227.98
828.64	227.93
828.95	227.98
829.27	227.93
829.58	227.95
829.90	227.99
830.22	227.98
830.53	227.95
830.85	227.87
831.17	227.83
831.48	227.84
831.80	227.81
832.11	227.81
832.43	227.77
832.75	227.74
833.06	227.81
833.38	227.83
833.69	227.86
834.01	227.84
834.32	227.85
834.64	227.87
834.96	227.83
835.27	227.84
835.59	227.80
835.90	227.76
836.22	227.74
836.53	227.73
836.85	227.71
837.16	227.80
837.48	227.80
837.79	227.85
838.11	227.84
838.42	227.87
838.74	227.90
839.05	227.89
839.37	227.91
839.68	227.85
840.00	227.84
840.31	227.86
840.63	227.87
840.94	227.87
841.26	227.89
841.57	227.93
841.88	227.95
842.20	227.94
842.51	227.96
842.83	227.98
843.14	228.04
843.46	228.03
843.77	227.96
844.08	228.00
844.40	227.97
844.71	228.00
845.03	227.98
845.34	227.96
845.65	227.99
845.97	228.00
846.28	227.97
846.60	228.01
846.91	228.01
847.22	228.02
847.54	228.09
847.85	228.10
848.16	228.09
848.48	228.07
848.79	228.12
849.10	228.12
849.42	228.14
849.73	228.06
850.04	228.10
850.36	228.08
850.67	228.06
850.98	228.09
851.30	228.10
851.61	228.10
851.92	228.12
852.23	228.15
852.55	228.17
852.86	228.19
853.17	228.16
853.49	228.16
853.80	228.16
854.11	228.15
854.42	228.13
854.74	228.10
855.05	228.07
855.36	228.03
855.67	228.02
855.99	228.02
856.30	228.11
856.61	228.10
856.92	228.11
857.23	228.09
857.55	228.07
857.86	228.02
858.17	228.02
858.48	227.99
858.79	227.94
859.11	227.91
859.42	227.88
859.73	227.85
860.04	227.83
860.35	227.79
860.66	227.73
860.98	227.69
861.29	227.66
861.60	227.66
861.91	227.62
862.22	227.58
862.53	227.53
862.84	227.41
863.16	227.41
863.47	227.38
863.78	227.34
864.09	227.33
864.40	227.32
864.71	227.30
865.02	227.28
865.33	227.28
865.64	227.23
865.95	227.22
866.27	227.29
866.58	227.22
866.89	227.20
867.20	227.18
867.51	227.15
867.82	227.16
868.13	227.13
868.44	227.13
868.75	227.12
869.06	227.14
869.37	227.14
869.68	227.11
869.99	227.11
870.30	227.13
870.61	227.12
870.92	227.10
871.23	227.11
871.54	227.09
871.85	227.07
872.16	227.09
872.47	227.07
872.78	227.03
873.09	227.08
873.40	227.08
873.71	227.09
874.02	227.10
874.33	227.12
874.64	227.14
874.95	227.17
875.26	227.16
875.56	227.17
875.87	227.18
876.18	227.18
876.49	227.26
876.80	227.27
877.11	227.26
877.42	227.28
877.73	227.29
878.04	227.31
878.35	227.31
878.66	227.33
878.96	227.36
879.27	227.34
879.58	227.36
879.89	227.40
880.20	227.48
880.51	227.52
880.82	227.55
881.12	227.57
881.43	227.57
881.74	227.59
882.05	227.59
882.36	227.62
882.67	227.65
882.97	227.56
883.28	227.55
883.59	227.56
883.90	227.58
884.21	227.57
884.51	227.60
884.82	227.61
885.13	227.63
885.44	227.64
885.74	227.69
886.05	227.67
886.36	227.69
886.67	227.61
886.98	227.66
887.28	227.62
887.59	227.61
887.90	227.62
888.20	227.65
888.51	227.66
888.82	227.63
889.13	227.62
889.43	227.70
889.74	227.70
890.05	227.72
890.35	227.70
890.66	227.70
890.97	227.68
891.28	227.66
891.58	227.65
891.89	227.65
892.20	227.61
892.50	227.61
892.81	227.57
893.12	227.61
893.42	227.57
893.73	227.57
894.04	227.57
894.34	227.53
894.65	227.48
894.95	227.46
895.26	227.44
895.57	227.48
895.87	227.39
896.18	227.40
896.48	227.35
896.79	227.34
897.10	227.34
897.40	227.34
897.71	227.34
898.01	227.28
898.32	227.25
898.63	227.21
898.93	227.20
899.24	227.20
899.54	227.11
899.85	227.07
900.15	227.05
900.46	227.03
900.76	227.02
901.07	227.01
901.38	226.97
901.68	226.97
901.99	226.90
902.29	226.89
902.60	226.86
902.90	226.86
903.21	226.80
903.51	226.77
903.82	226.74
904.12	226.74
904.43	226.77
904.73	226.80
905.03	226.81
905.34	226.89
905.64	226.88
905.95	226.89
906.25	226.92
906.56	226.91
906.86	226.91
907.17	226.94
907.47	226.94
907.77	226.94
908.08	226.92
908.38	226.95
908.69	226.94
908.99	226.95
909.30	226.96
909.60	227.01
909.90	227.04
910.21	227.05
910.51	227.06
910.81	227.09
911.12	227.08
911.42	227.10
911.73	227.00
912.03	227.02
912.33	227.06
912.64	227.03
912.94	227.03
913.24	227.01
913.55	227.00
913.85	227.02
914.15	227.04
914.46	227.06
914.76	227.08
915.06	227.13
915.37	227.13
915.67	227.13
915.97	227.13
916.27	227.10
916.58	227.12
916.88	227.13
917.18	227.13
917.49	227.20
917.79	227.18
918.09	227.25
918.39	227.27
918.70	227.26
919.00	227.28
919.30	227.33
919.60	227.37
919.91	227.36
920.21	227.38
920.51	227.37
920.81	227.39
921.12	227.39
921.42	227.34
921.72	227.36
922.02	227.40
922.32	227.42
922.63	227.43
922.93	227.50
923.23	227.52
923.53	227.48
923.83	227.41
924.13	227.42
924.44	227.42
924.74	227.41
925.04	227.49
925.34	227.48
925.64	227.46
925.94	227.45
926.24	227.50
926.55	227.48
926.85	227.51
927.15	227.53
927.45	227.55
927.75	227.58
928.05	227.60
928.35	227.58
928.65	227.61
928.95	227.64
929.26	227.59
929.56	227.59
929.86	227.64
930.16	227.65
930.46	227.65
930.76	227.63
931.06	227.59
931.36	227.53
931.66	227.55
931.96	227.55
932.26	227.56
932.56	227.51
932.86	227.51
933.16	227.49
933.46	227.45
933.76	227.42
934.06	227.42
934.36	227.43
934.66	227.44
934.96	227.40
935.26	227.35
935.56	227.36
935.86	227.32
936.16	227.26
936.46	227.24
936.76	227.21
937.06	227.19
937.36	227.18
937.66	227.16
937.96	227.12
938.26	227.09
938.56	227.07
938.86	227.04
939.16	227.02
939.46	227.03
939.76	227.00
940.06	226.96
940.35	226.92
940.65	226.85
940.95	226.81
941.25	226.75
941.55	226.74
941.85	226.71
942.15	226.74
942.45	226.75
942.75	226.75
943.04	226.74
943.34	226.74
943.64	226.74
943.94	226.74
944.24	226.73
944.54	226.74
944.84	226.71
945.13	226.70
945.43	226.69
945.73	226.67
946.03	226.66
946.33	226.67
946.62	226.67
946.92	226.67
947.22	226.68
947.52	226.71
947.82	226.71
948.11	226.71
948.41	226.68
948.71	226.67
949.01	226.66
949.31	226.66
949.60	226.69
949.90	226.71
950.20	226.71
950.50	226.74
950.79	226.74
951.09	226.77
951.39	226.78
951.69	226.77
951.98	226.82
952.28	226.86
952.58	226.85
952.87	226.88
953.17	226.92
953.47	226.95
953.76	226.94
954.06	226.95
954.36	226.94
954.66	226.98
954.95	227.01
955.25	227.03
955.55	227.07
955.84	227.05
956.14	227.06
956.44	227.06
956.73	227.07
957.03	227.13
957.32	227.13
957.62	227.14
957.92	227.17
958.21	227.18
958.51	227.28
958.81	227.31
959.10	227.29
959.40	227.30
959.69	227.29
959.99	227.36
960.29	227.35
960.58	227.36
960.88	227.40
961.17	227.42
961.47	227.40
961.76	227.38
962.06	227.40
962.36	227.40
962.65	227.42
962.95	227.39
963.24	227.33
963.54	227.34
963.83	227.37
964.13	227.41
964.42	227.38
964.72	227.33
965.01	227.35
965.31	227.34
965.60	227.31
965.90	227.38
966.19	227.31
966.49	227.34
966.78	227.34
967.08	227.30
967.37	227.27
967.67	227.27
967.96	227.32
968.26	227.30
968.55	227.29
968.85	227.29
969.14	227.29
969.43	227.28
969.73	227.28
970.02	227.27
970.32	227.22
970.61	227.21
970.91	227.16
971.20	227.12
971.49	227.13
971.79	227.13
972.08	227.05
972.38	227.10
972.67	227.06
972.96	227.06
973.26	227.03
973.55	227.05
973.85	227.05
974.14	226.98
974.43	226.96
974.73	226.92
975.02	226.89
975.31	226.87
975.61	226.85
975.90	226.83
976.19	226.80
976.49	226.80
976.78	226.77
977.07	226.78
977.37	226.78
977.66	226.80
977.95	226.77
978.24	226.77
978.54	226.75
978.83	226.75
979.12	226.73
979.42	226.75
979.71	226.73
980.00	226.68
980.29	226.71
980.59	226.70
980.88	226.74
981.17	226.75
981.46	226.73
981.76	226.76
982.05	226.75
982.34	226.76
982.63	226.76
982.93	226.79
983.22	226.80
983.51	226.79
983.80	226.80
984.09	226.82
984.39	226.80
984.68	226.77
984.97	226.77
985.26	226.77
985.55	226.76
985.85	226.74
986.14	226.79
986.43	226.79
986.72	226.79
987.01	226.77
987.30	226.76
987.59	226.75
987.89	226.74
988.18	226.73
988.47	226.75
988.76	226.75
989.05	226.72
989.34	226.67
989.63	226.70
989.92	226.68
990.22	226.68
990.51	226.70
990.80	226.70
991.09	226.73
991.38	226.73
991.67	226.74
991.96	226.69
992.25	226.70
992.54	226.68
992.83	226.68
993.12	226.71
993.41	226.73
993.70	226.82
993.99	226.87
994.28	226.87
994.58	226.88
994.87	226.90
995.16	226.93
995.45	226.95
995.74	226.92
996.03	226.96
996.32	226.97
996.61	226.98
996.90	226.97
997.19	226.96
997.48	227.01
997.77	226.99
998.06	227.06
998.34	227.05
998.63	227.05
998.92	227.06
999.21	227.08
999.50	227.10
999.79	227.08
1000.08	227.06
1000.37	227.08
1000.66	227.06
1000.95	227.06
1001.24	227.05
1001.53	227.05
1001.82	227.06
1002.11	227.02
1002.40	227.03
1002.68	227.08
1002.97	227.17
1003.26	227.16
1003.55	227.11
1003.84	227.13
1004.13	227.13
1004.42	227.13
1004.71	227.14
1004.99	227.15
1005.28	227.14
1005.57	227.12
1005.86	227.12
1006.15	227.10
1006.44	227.09
1006.72	227.11
1007.01	227.09
1007.30	227.12
1007.59	227.12
1007.88	227.13
1008.17	227.14
1008.45	227.10
1008.74	227.05
1009.03	227.05
1009.32	227.04
1009.60	227.05
1009.89	227.02
1010.18	226.99
1010.47	226.99
1010.76	227.01
1011.04	226.98
1011.33	227.00
1011.62	226.98
1011.91	226.97
1012.19	227.00
1012.48	227.00
1012.77	226.97
1013.05	227.01
1013.34	226.97
1013.63	227.00
1013.92	226.96
1014.20	226.91
1014.49	226.91
1014.78	226.92
1015.06	226.86
1015.35	226.87
1015.64	226.86
1015.92	226.91
1016.21	226.88
1016.50	226.86
1016.78	226.86
1017.07	226.88
1017.36	226.84
1017.64	226.82
1017.93	226.83
1018.22	226.78
1018.50	226.75
1018.79	226.76
1019.08	226.71
1019.36	226.74
1019.65	226.67
1019.93	226.74
1020.22	226.78
1020.51	226.83
1020.79	226.80
1021.08	226.38
1021.36	225.92
1021.65	227.08
1021.94	226.64
1022.22	227.06
1022.51	226.31
1022.79	227.51
1023.08	227.00
1023.36	227.64
1023.65	226.43
>>>>>End Processed Spectral Data<<<<<
