SpectraSuite Data File
++++++++++++++++++++++++++++++++++++
Date: Fri Feb 01 15:06:14 EST 2013
User: group
Dark Spectrum Present: No
Reference Spectrum Present: No
Number of Sampled Component Spectra: 1
Spectrometers: USB2E7196
Integration Time (usec): 35000 (USB2E7196)
Spectra Averaged: 100 (USB2E7196)
Boxcar Smoothing: 10 (USB2E7196)
Correct for Electrical Dark: No (USB2E7196)
Strobe/Lamp Enabled: No (USB2E7196)
Correct for Detector Non-linearity: No (USB2E7196)
Correct for Stray Light: No (USB2E7196)
Number of Pixels in Processed Spectrum: 2048
>>>>>Begin Processed Spectral Data<<<<<
339.09	0.00
339.48	214.56
339.86	217.14
340.24	217.86
340.63	219.12
341.01	221.70
341.39	221.42
341.78	223.33
342.16	225.04
342.54	225.23
342.93	213.42
343.31	224.21
343.69	224.77
344.07	225.21
344.46	225.66
344.84	226.06
345.22	226.31
345.60	226.57
345.99	226.77
346.37	226.87
346.75	226.98
347.13	227.05
347.52	227.13
347.90	227.19
348.28	227.22
348.66	227.22
349.05	227.23
349.43	227.26
349.81	227.32
350.19	227.36
350.57	227.43
350.96	227.48
351.34	227.54
351.72	227.60
352.10	227.70
352.48	227.75
352.87	227.79
353.25	227.86
353.63	227.95
354.01	228.01
354.39	228.09
354.77	228.15
355.15	228.25
355.54	228.31
355.92	228.34
356.30	228.39
356.68	228.56
357.06	228.63
357.44	228.70
357.82	228.75
358.20	228.83
358.58	228.90
358.97	228.94
359.35	229.01
359.73	229.09
360.11	229.14
360.49	229.20
360.87	229.26
361.25	229.33
361.63	229.37
362.01	229.44
362.39	229.44
362.77	229.46
363.15	229.46
363.53	229.52
363.91	229.55
364.29	229.62
364.67	229.53
365.05	229.53
365.43	229.54
365.81	229.57
366.19	229.60
366.57	229.63
366.95	229.63
367.33	229.62
367.71	229.62
368.09	229.58
368.47	229.57
368.85	229.53
369.23	229.49
369.61	229.45
369.99	229.42
370.37	229.40
370.75	229.43
371.13	229.38
371.51	229.29
371.89	229.28
372.27	229.22
372.65	229.20
373.03	229.14
373.41	229.09
373.78	229.01
374.16	228.91
374.54	228.80
374.92	228.70
375.30	228.64
375.68	228.52
376.06	228.48
376.44	228.38
376.82	228.30
377.19	228.21
377.57	228.13
377.95	228.03
378.33	227.95
378.71	227.79
379.09	227.73
379.47	227.65
379.84	227.55
380.22	227.46
380.60	227.32
380.98	227.26
381.36	227.17
381.73	227.08
382.11	227.02
382.49	226.97
382.87	226.90
383.25	226.82
383.62	226.90
384.00	226.83
384.38	226.82
384.76	226.79
385.13	226.80
385.51	226.75
385.89	226.68
386.27	226.66
386.64	226.64
387.02	226.61
387.40	226.58
387.78	226.53
388.15	226.50
388.53	226.47
388.91	226.42
389.29	226.39
389.66	226.37
390.04	226.35
390.42	226.35
390.79	226.34
391.17	226.32
391.55	226.21
391.92	226.18
392.30	226.19
392.68	226.15
393.05	226.13
393.43	226.15
393.81	226.18
394.18	226.17
394.56	226.19
394.94	226.24
395.31	226.24
395.69	226.31
396.06	226.35
396.44	226.41
396.82	226.42
397.19	226.52
397.57	226.56
397.95	226.62
398.32	226.66
398.70	226.72
399.07	226.80
399.45	226.89
399.82	226.97
400.20	227.02
400.58	227.16
400.95	227.21
401.33	227.33
401.70	227.51
402.08	227.59
402.45	227.72
402.83	227.80
403.20	227.90
403.58	228.02
403.95	228.12
404.33	228.28
404.71	228.44
405.08	228.62
405.46	228.78
405.83	228.92
406.21	229.09
406.58	229.30
406.96	229.50
407.33	229.68
407.70	229.89
408.08	230.16
408.45	230.37
408.83	230.61
409.20	230.85
409.58	231.04
409.95	231.34
410.33	231.58
410.70	231.87
411.08	232.20
411.45	232.51
411.82	232.86
412.20	233.23
412.57	233.68
412.95	233.98
413.32	234.37
413.69	234.79
414.07	235.24
414.44	235.69
414.82	236.15
415.19	236.71
415.56	237.25
415.94	237.80
416.31	238.43
416.68	239.07
417.06	239.76
417.43	240.43
417.81	241.19
418.18	241.97
418.55	242.77
418.93	243.67
419.30	244.56
419.67	245.50
420.04	246.42
420.42	247.43
420.79	248.62
421.16	249.79
421.54	250.98
421.91	252.19
422.28	253.46
422.66	254.79
423.03	256.09
423.40	257.42
423.77	258.84
424.15	260.26
424.52	261.74
424.89	263.36
425.26	264.89
425.64	266.36
426.01	267.98
426.38	269.66
426.75	271.30
427.13	273.05
427.50	274.81
427.87	276.72
428.24	278.56
428.61	280.27
428.99	282.23
429.36	284.32
429.73	286.40
430.10	288.42
430.47	290.51
430.85	292.63
431.22	294.90
431.59	297.26
431.96	299.50
432.33	302.00
432.70	304.38
433.08	307.23
433.45	309.86
433.82	312.45
434.19	315.34
434.56	318.15
434.93	320.78
435.30	323.41
435.68	326.28
436.05	329.12
436.42	331.95
436.79	334.45
437.16	337.17
437.53	339.99
437.90	342.83
438.27	345.59
438.64	348.40
439.01	350.98
439.38	353.24
439.75	355.41
440.13	357.93
440.50	360.26
440.87	362.10
441.24	364.05
441.61	366.23
441.98	367.74
442.35	369.55
442.72	371.43
443.09	373.23
443.46	374.29
443.83	374.86
444.20	375.35
444.57	376.17
444.94	376.49
445.31	376.85
445.68	377.22
446.05	377.26
446.42	376.90
446.79	376.45
447.16	375.98
447.53	375.65
447.90	374.42
448.27	373.28
448.64	371.68
449.01	370.51
449.37	368.51
449.74	366.64
450.11	364.41
450.48	361.92
450.85	359.41
451.22	357.22
451.59	355.18
451.96	353.24
452.33	350.65
452.70	348.27
453.07	345.42
453.43	342.49
453.80	339.74
454.17	337.04
454.54	334.52
454.91	331.82
455.28	329.11
455.65	326.67
456.02	324.19
456.38	322.02
456.75	319.39
457.12	317.16
457.49	314.91
457.86	312.75
458.23	310.88
458.59	308.80
458.96	306.72
459.33	304.87
459.70	302.98
460.07	301.47
460.43	299.69
460.80	298.04
461.17	296.60
461.54	295.06
461.91	293.68
462.27	292.24
462.64	290.98
463.01	289.64
463.38	288.34
463.74	286.95
464.11	285.79
464.48	284.71
464.85	283.60
465.21	282.72
465.58	281.77
465.95	280.70
466.32	279.81
466.68	278.89
467.05	278.00
467.42	277.11
467.78	276.19
468.15	275.32
468.52	274.63
468.88	273.76
469.25	273.00
469.62	272.31
469.98	271.60
470.35	270.92
470.72	270.32
471.08	269.67
471.45	269.12
471.82	268.56
472.18	267.94
472.55	267.48
472.92	266.94
473.28	266.47
473.65	265.98
474.02	265.54
474.38	265.18
474.75	264.84
475.11	264.47
475.48	264.19
475.85	264.00
476.21	263.80
476.58	263.62
476.94	263.49
477.31	263.32
477.67	263.22
478.04	263.13
478.41	263.09
478.77	263.10
479.14	263.04
479.50	263.08
479.87	263.19
480.23	263.24
480.60	263.31
480.96	263.42
481.33	263.63
481.69	263.82
482.06	264.03
482.42	264.25
482.79	264.50
483.15	264.81
483.52	265.15
483.88	265.50
484.25	265.85
484.61	266.24
484.98	266.70
485.34	267.18
485.71	267.77
486.07	268.36
486.44	268.91
486.80	269.63
487.17	270.33
487.53	271.14
487.90	272.00
488.26	272.91
488.62	273.85
488.99	274.81
489.35	275.83
489.72	276.93
490.08	278.12
490.44	279.37
490.81	280.70
491.17	282.08
491.54	283.57
491.90	285.12
492.26	286.76
492.63	288.52
492.99	290.32
493.36	292.20
493.72	294.24
494.08	296.32
494.45	298.62
494.81	300.97
495.17	303.37
495.54	305.95
495.90	308.64
496.26	311.48
496.63	314.43
496.99	317.52
497.35	320.77
497.72	324.15
498.08	327.67
498.44	331.29
498.80	335.14
499.17	339.11
499.53	343.23
499.89	347.58
500.26	352.05
500.62	356.72
500.98	361.66
501.34	366.72
501.71	372.06
502.07	377.43
502.43	383.01
502.79	388.79
503.16	394.82
503.52	401.04
503.88	407.35
504.24	413.97
504.60	420.85
504.97	427.95
505.33	435.23
505.69	442.91
506.05	450.67
506.41	458.55
506.78	466.72
507.14	475.13
507.50	483.78
507.86	492.81
508.22	501.95
508.59	511.09
508.95	520.61
509.31	530.36
509.67	540.45
510.03	550.70
510.39	561.26
510.75	572.10
511.12	583.10
511.48	594.44
511.84	605.84
512.20	617.30
512.56	629.25
512.92	641.48
513.28	653.78
513.64	666.24
514.00	678.96
514.37	691.82
514.73	704.92
515.09	718.06
515.45	731.28
515.81	744.95
516.17	759.07
516.53	773.18
516.89	787.34
517.25	801.47
517.61	815.97
517.97	830.47
518.33	844.93
518.69	859.67
519.05	874.68
519.41	889.92
519.77	905.54
520.13	921.01
520.49	936.35
520.85	951.84
521.21	967.59
521.57	983.91
521.93	999.86
522.29	1016.30
522.65	1032.55
523.01	1048.77
523.37	1064.79
523.73	1080.88
524.09	1097.13
524.45	1113.58
524.81	1130.37
525.17	1147.24
525.53	1164.18
525.89	1181.01
526.25	1197.84
526.61	1214.36
526.97	1231.19
527.33	1247.64
527.68	1264.29
528.04	1280.99
528.40	1297.73
528.76	1314.90
529.12	1331.47
529.48	1348.27
529.84	1364.38
530.20	1381.15
530.56	1398.40
530.91	1415.94
531.27	1432.76
531.63	1449.31
531.99	1466.03
532.35	1481.99
532.71	1497.95
533.07	1514.36
533.42	1530.34
533.78	1546.51
534.14	1562.80
534.50	1578.07
534.86	1594.11
535.21	1609.36
535.57	1625.35
535.93	1640.87
536.29	1655.75
536.65	1670.98
537.00	1686.04
537.36	1701.43
537.72	1716.07
538.08	1730.45
538.44	1744.34
538.79	1758.41
539.15	1772.24
539.51	1786.10
539.87	1800.55
540.22	1814.37
540.58	1828.15
540.94	1841.63
541.29	1854.71
541.65	1867.57
542.01	1881.14
542.37	1893.52
542.72	1906.21
543.08	1917.91
543.44	1930.40
543.79	1941.72
544.15	1952.88
544.51	1964.38
544.87	1975.46
545.22	1986.15
545.58	1996.49
545.94	2006.18
546.29	2016.06
546.65	2025.85
547.01	2034.88
547.36	2043.68
547.72	2052.08
548.07	2059.95
548.43	2068.14
548.79	2076.15
549.14	2083.49
549.50	2090.81
549.86	2098.64
550.21	2105.80
550.57	2113.02
550.92	2119.58
551.28	2126.57
551.64	2133.46
551.99	2139.97
552.35	2146.08
552.70	2152.27
553.06	2158.09
553.41	2164.56
553.77	2170.72
554.13	2176.64
554.48	2182.91
554.84	2188.29
555.19	2193.82
555.55	2198.90
555.90	2203.28
556.26	2208.07
556.61	2212.83
556.97	2216.94
557.32	2220.87
557.68	2225.04
558.03	2229.25
558.39	2233.00
558.74	2237.68
559.10	2241.70
559.45	2245.28
559.81	2249.55
560.16	2253.26
560.52	2256.63
560.87	2260.04
561.23	2262.46
561.58	2265.47
561.94	2267.83
562.29	2270.30
562.64	2272.85
563.00	2275.42
563.35	2279.02
563.71	2282.16
564.06	2285.29
564.42	2288.11
564.77	2290.66
565.12	2292.75
565.48	2294.66
565.83	2296.34
566.19	2297.53
566.54	2298.51
566.89	2299.58
567.25	2300.03
567.60	2301.42
567.96	2302.83
568.31	2303.44
568.66	2304.50
569.02	2304.97
569.37	2305.21
569.72	2305.85
570.08	2305.80
570.43	2305.70
570.78	2304.82
571.14	2303.20
571.49	2301.90
571.84	2301.49
572.20	2300.19
572.55	2299.12
572.90	2297.42
573.26	2295.95
573.61	2294.14
573.96	2291.92
574.31	2288.82
574.67	2285.53
575.02	2281.72
575.37	2278.27
575.72	2274.26
576.08	2270.89
576.43	2267.51
576.78	2263.68
577.13	2260.39
577.49	2257.19
577.84	2253.67
578.19	2249.93
578.54	2246.11
578.90	2241.53
579.25	2235.85
579.60	2230.84
579.95	2225.60
580.30	2220.48
580.66	2215.12
581.01	2210.06
581.36	2205.07
581.71	2200.73
582.06	2196.27
582.42	2191.63
582.77	2186.32
583.12	2181.75
583.47	2176.75
583.82	2171.48
584.17	2166.13
584.53	2160.51
584.88	2154.81
585.23	2148.74
585.58	2143.10
585.93	2137.48
586.28	2132.80
586.63	2127.57
586.98	2122.25
587.34	2117.51
587.69	2112.51
588.04	2107.10
588.39	2101.23
588.74	2094.70
589.09	2088.45
589.44	2081.56
589.79	2075.52
590.14	2069.66
590.49	2062.95
590.84	2056.41
591.19	2050.36
591.54	2043.85
591.89	2036.29
592.25	2029.26
592.60	2022.12
592.95	2014.31
593.30	2006.85
593.65	1999.10
594.00	1992.04
594.35	1984.77
594.70	1976.69
595.05	1969.45
595.40	1962.25
595.75	1954.75
596.10	1948.32
596.45	1941.50
596.80	1935.31
597.15	1928.57
597.50	1921.45
597.85	1915.01
598.19	1908.43
598.54	1901.23
598.89	1894.63
599.24	1888.68
599.59	1881.95
599.94	1875.67
600.29	1869.43
600.64	1862.91
600.99	1855.30
601.34	1848.43
601.69	1841.37
602.04	1834.31
602.39	1826.83
602.74	1819.90
603.08	1813.17
603.43	1806.44
603.78	1799.24
604.13	1792.05
604.48	1784.74
604.83	1777.95
605.18	1770.78
605.53	1762.66
605.87	1754.71
606.22	1747.36
606.57	1739.34
606.92	1732.04
607.27	1724.75
607.62	1717.72
607.96	1710.24
608.31	1703.71
608.66	1696.03
609.01	1688.52
609.36	1681.02
609.70	1672.91
610.05	1664.70
610.40	1657.02
610.75	1648.76
611.10	1641.01
611.44	1632.64
611.79	1624.62
612.14	1615.97
612.49	1606.93
612.83	1598.55
613.18	1590.43
613.53	1582.32
613.88	1573.92
614.22	1565.70
614.57	1557.23
614.92	1549.22
615.27	1541.74
615.61	1533.43
615.96	1525.35
616.31	1517.76
616.65	1510.30
617.00	1502.93
617.35	1495.35
617.70	1486.97
618.04	1478.50
618.39	1470.31
618.74	1462.68
619.08	1454.43
619.43	1446.88
619.78	1440.00
620.12	1432.84
620.47	1425.31
620.82	1417.23
621.16	1409.85
621.51	1402.28
621.85	1394.65
622.20	1386.31
622.55	1378.00
622.89	1370.19
623.24	1362.68
623.59	1355.33
623.93	1347.91
624.28	1340.65
624.62	1333.20
624.97	1326.05
625.32	1319.27
625.66	1312.38
626.01	1305.17
626.35	1297.67
626.70	1289.86
627.04	1282.14
627.39	1274.48
627.73	1267.02
628.08	1260.15
628.43	1252.84
628.77	1245.42
629.12	1237.94
629.46	1230.71
629.81	1223.46
630.15	1216.27
630.50	1208.93
630.84	1200.75
631.19	1192.90
631.53	1185.48
631.88	1177.99
632.22	1170.39
632.57	1163.13
632.91	1155.50
633.26	1148.12
633.60	1140.95
633.95	1133.98
634.29	1127.03
634.64	1120.40
634.98	1113.23
635.32	1106.08
635.67	1099.60
636.01	1092.96
636.36	1086.18
636.70	1079.70
637.05	1073.15
637.39	1066.83
637.73	1060.32
638.08	1054.52
638.42	1048.55
638.77	1042.09
639.11	1035.53
639.45	1029.15
639.80	1022.54
640.14	1016.17
640.49	1009.69
640.83	1003.26
641.17	997.05
641.52	990.79
641.86	984.30
642.20	978.45
642.55	972.24
642.89	965.73
643.23	959.39
643.58	953.57
643.92	947.41
644.26	941.28
644.61	935.21
644.95	929.18
645.29	922.55
645.64	915.84
645.98	909.52
646.32	903.74
646.66	897.76
647.01	891.99
647.35	886.34
647.69	880.50
648.04	875.11
648.38	869.36
648.72	863.32
649.06	857.33
649.41	851.54
649.75	845.55
650.09	839.59
650.43	833.72
650.78	827.63
651.12	821.74
651.46	816.09
651.80	810.29
652.14	804.89
652.49	799.60
652.83	794.48
653.17	788.76
653.51	782.98
653.85	777.64
654.20	772.00
654.54	766.00
654.88	760.36
655.22	754.50
655.56	748.70
655.90	743.31
656.25	738.08
656.59	732.69
656.93	727.56
657.27	722.41
657.61	717.07
657.95	711.96
658.29	706.86
658.64	701.60
658.98	696.34
659.32	690.94
659.66	685.75
660.00	680.43
660.34	675.56
660.68	670.65
661.02	665.63
661.36	660.98
661.70	656.50
662.05	652.13
662.39	647.79
662.73	643.47
663.07	639.11
663.41	634.64
663.75	630.14
664.09	625.65
664.43	621.33
664.77	617.15
665.11	612.95
665.45	608.87
665.79	604.78
666.13	600.65
666.47	596.61
666.81	592.42
667.15	588.29
667.49	584.44
667.83	580.76
668.17	576.90
668.51	572.80
668.85	568.78
669.19	564.99
669.53	561.06
669.87	557.19
670.21	553.52
670.55	549.93
670.89	546.54
671.23	543.16
671.57	539.67
671.91	536.17
672.25	532.70
672.58	529.21
672.92	525.81
673.26	522.65
673.60	519.53
673.94	516.51
674.28	513.66
674.62	510.73
674.96	507.59
675.30	504.64
675.64	501.72
675.97	499.05
676.31	496.15
676.65	493.35
676.99	490.64
677.33	487.82
677.67	485.03
678.01	482.00
678.34	478.96
678.68	476.14
679.02	473.36
679.36	470.64
679.70	467.92
680.04	465.22
680.37	462.41
680.71	459.67
681.05	457.05
681.39	454.36
681.73	451.72
682.06	449.17
682.40	446.63
682.74	444.16
683.08	441.57
683.42	439.01
683.75	436.55
684.09	434.02
684.43	431.56
684.77	429.11
685.10	426.84
685.44	424.60
685.78	422.32
686.12	420.08
686.45	417.81
686.79	415.57
687.13	413.40
687.46	411.22
687.80	409.04
688.14	406.84
688.48	404.76
688.81	402.54
689.15	400.45
689.49	398.33
689.82	396.24
690.16	394.18
690.50	392.23
690.83	390.23
691.17	388.29
691.51	386.40
691.84	384.54
692.18	382.54
692.52	380.55
692.85	378.61
693.19	376.74
693.52	374.91
693.86	373.10
694.20	371.25
694.53	369.50
694.87	367.68
695.21	365.93
695.54	364.15
695.88	362.45
696.21	360.72
696.55	359.06
696.88	357.38
697.22	355.75
697.56	354.13
697.89	352.51
698.23	350.85
698.56	349.19
698.90	347.61
699.23	345.98
699.57	344.45
699.90	342.92
700.24	341.36
700.58	339.82
700.91	338.30
701.25	336.92
701.58	335.52
701.92	334.14
702.25	332.71
702.59	331.31
702.92	329.96
703.26	328.66
703.59	327.38
703.93	326.20
704.26	324.94
704.60	323.69
704.93	322.40
705.26	321.16
705.60	320.02
705.93	318.84
706.27	317.80
706.60	316.74
706.94	315.69
707.27	314.56
707.61	313.49
707.94	312.51
708.27	311.36
708.61	310.32
708.94	309.34
709.28	308.38
709.61	307.48
709.94	306.51
710.28	305.51
710.61	304.53
710.95	303.46
711.28	302.57
711.61	301.57
711.95	300.67
712.28	299.78
712.61	298.84
712.95	297.91
713.28	297.10
713.61	296.23
713.95	295.36
714.28	294.52
714.61	293.69
714.95	292.81
715.28	292.00
715.61	291.14
715.95	290.27
716.28	289.44
716.61	288.59
716.95	287.83
717.28	287.11
717.61	286.38
717.94	285.67
718.28	284.85
718.61	284.19
718.94	283.54
719.27	282.86
719.61	282.20
719.94	281.60
720.27	280.91
720.60	280.24
720.94	279.61
721.27	279.08
721.60	278.47
721.93	277.96
722.27	277.43
722.60	276.88
722.93	276.34
723.26	275.79
723.59	275.23
723.93	274.68
724.26	274.10
724.59	273.51
724.92	272.95
725.25	272.49
725.59	271.97
725.92	271.43
726.25	270.94
726.58	270.47
726.91	269.97
727.24	269.48
727.57	269.02
727.91	268.51
728.24	268.00
728.57	267.56
728.90	267.07
729.23	266.57
729.56	266.12
729.89	265.61
730.22	265.13
730.55	264.68
730.89	264.20
731.22	263.75
731.55	263.33
731.88	262.92
732.21	262.47
732.54	262.01
732.87	261.62
733.20	261.25
733.53	260.86
733.86	260.50
734.19	260.06
734.52	259.68
734.85	259.36
735.18	258.94
735.51	258.55
735.84	258.15
736.17	257.82
736.50	257.44
736.83	257.21
737.16	256.87
737.49	256.54
737.82	256.21
738.15	255.89
738.48	255.56
738.81	255.24
739.14	254.92
739.47	254.62
739.80	254.24
740.13	253.91
740.46	253.57
740.79	253.21
741.12	252.93
741.45	252.61
741.78	252.27
742.11	251.99
742.44	251.70
742.77	251.41
743.10	251.10
743.43	250.82
743.75	250.40
744.08	250.24
744.41	249.93
744.74	249.67
745.07	249.36
745.40	249.13
745.73	248.90
746.06	248.63
746.39	248.38
746.71	248.15
747.04	247.86
747.37	247.62
747.70	247.40
748.03	247.10
748.36	246.87
748.68	246.64
749.01	246.38
749.34	246.15
749.67	245.96
750.00	245.72
750.33	245.54
750.65	245.38
750.98	245.07
751.31	244.87
751.64	244.63
751.97	244.52
752.29	244.27
752.62	243.98
752.95	243.79
753.28	243.56
753.60	243.38
753.93	243.23
754.26	243.03
754.59	242.80
754.91	242.62
755.24	242.42
755.57	242.21
755.90	242.03
756.22	241.87
756.55	241.66
756.88	241.47
757.20	241.24
757.53	241.05
757.86	240.88
758.19	240.72
758.51	240.57
758.84	240.35
759.17	240.21
759.49	240.11
759.82	239.95
760.15	239.81
760.47	239.68
760.80	239.51
761.13	239.40
761.45	239.23
761.78	239.11
762.11	238.98
762.43	238.85
762.76	238.73
763.08	238.57
763.41	238.45
763.74	238.34
764.06	238.19
764.39	238.03
764.71	237.90
765.04	237.74
765.37	237.64
765.69	237.51
766.02	237.39
766.34	237.26
766.67	237.10
767.00	237.03
767.32	236.95
767.65	236.90
767.97	236.76
768.30	236.67
768.62	236.56
768.95	236.47
769.27	236.38
769.60	236.27
769.92	236.13
770.25	236.00
770.57	235.86
770.90	235.75
771.22	235.65
771.55	235.55
771.87	235.47
772.20	235.34
772.52	235.33
772.85	235.35
773.17	235.25
773.50	235.17
773.82	235.06
774.15	234.90
774.47	234.77
774.80	234.67
775.12	234.60
775.45	234.46
775.77	234.34
776.09	234.23
776.42	234.15
776.74	234.13
777.07	234.06
777.39	233.96
777.72	233.89
778.04	233.83
778.36	233.75
778.69	233.67
779.01	233.62
779.33	233.46
779.66	233.27
779.98	233.16
780.31	233.08
780.63	233.03
780.95	232.98
781.28	232.92
781.60	232.85
781.92	232.74
782.25	232.71
782.57	232.64
782.89	232.57
783.22	232.48
783.54	232.38
783.86	232.30
784.19	232.27
784.51	232.24
784.83	232.15
785.16	232.05
785.48	232.01
785.80	231.93
786.12	231.88
786.45	231.80
786.77	231.74
787.09	231.69
787.42	231.60
787.74	231.56
788.06	231.48
788.38	231.41
788.71	231.38
789.03	231.35
789.35	231.32
789.67	231.27
789.99	231.22
790.32	231.18
790.64	231.15
790.96	231.18
791.28	231.12
791.61	231.08
791.93	231.08
792.25	231.03
792.57	231.05
792.89	230.96
793.21	230.96
793.54	230.93
793.86	230.89
794.18	230.84
794.50	230.76
794.82	230.73
795.14	230.69
795.47	230.72
795.79	230.67
796.11	230.61
796.43	230.59
796.75	230.61
797.07	230.59
797.39	230.58
797.71	230.48
798.04	230.47
798.36	230.46
798.68	230.41
799.00	230.39
799.32	230.36
799.64	230.35
799.96	230.31
800.28	230.30
800.60	230.26
800.92	230.23
801.24	230.23
801.56	230.22
801.89	230.19
802.21	230.16
802.53	230.13
802.85	230.14
803.17	230.14
803.49	230.06
803.81	230.02
804.13	230.02
804.45	229.98
804.77	229.95
805.09	229.95
805.41	229.96
805.73	229.92
806.05	229.84
806.37	229.83
806.69	229.83
807.01	229.82
807.33	229.83
807.65	229.81
807.97	229.79
808.28	229.76
808.60	229.76
808.92	229.72
809.24	229.76
809.56	229.75
809.88	229.73
810.20	229.74
810.52	229.76
810.84	229.66
811.16	229.64
811.48	229.62
811.80	229.62
812.12	229.58
812.43	229.58
812.75	229.59
813.07	229.54
813.39	229.52
813.71	229.48
814.03	229.45
814.35	229.41
814.67	229.37
814.98	229.34
815.30	229.28
815.62	229.24
815.94	229.14
816.26	229.13
816.58	229.07
816.89	229.02
817.21	228.94
817.53	228.91
817.85	228.87
818.17	228.83
818.48	228.76
818.80	228.72
819.12	228.68
819.44	228.61
819.76	228.58
820.07	228.54
820.39	228.51
820.71	228.50
821.03	228.47
821.34	228.45
821.66	228.43
821.98	228.47
822.30	228.45
822.61	228.45
822.93	228.36
823.25	228.33
823.57	228.32
823.88	228.35
824.20	228.35
824.52	228.36
824.83	228.35
825.15	228.32
825.47	228.30
825.79	228.27
826.10	228.27
826.42	228.24
826.74	228.23
827.05	228.22
827.37	228.16
827.69	228.16
828.00	228.16
828.32	228.13
828.64	228.09
828.95	228.12
829.27	228.12
829.58	228.14
829.90	228.21
830.22	228.20
830.53	228.16
830.85	228.18
831.17	228.17
831.48	228.17
831.80	228.18
832.11	228.21
832.43	228.19
832.75	228.20
833.06	228.29
833.38	228.26
833.69	228.25
834.01	228.28
834.32	228.27
834.64	228.30
834.96	228.33
835.27	228.35
835.59	228.32
835.90	228.35
836.22	228.34
836.53	228.28
836.85	228.30
837.16	228.40
837.48	228.40
837.79	228.41
838.11	228.42
838.42	228.40
838.74	228.39
839.05	228.40
839.37	228.41
839.68	228.33
840.00	228.35
840.31	228.39
840.63	228.41
840.94	228.39
841.26	228.35
841.57	228.32
841.88	228.33
842.20	228.33
842.51	228.28
842.83	228.26
843.14	228.34
843.46	228.34
843.77	228.27
844.08	228.25
844.40	228.23
844.71	228.22
845.03	228.22
845.34	228.22
845.65	228.21
845.97	228.22
846.28	228.24
846.60	228.24
846.91	228.19
847.22	228.10
847.54	228.15
847.85	228.16
848.16	228.14
848.48	228.12
848.79	228.09
849.10	228.07
849.42	228.09
849.73	228.01
850.04	228.00
850.36	227.96
850.67	227.99
850.98	227.98
851.30	227.96
851.61	227.96
851.92	227.94
852.23	227.96
852.55	227.95
852.86	227.93
853.17	227.90
853.49	227.92
853.80	227.96
854.11	227.92
854.42	227.92
854.74	227.91
855.05	227.87
855.36	227.83
855.67	227.79
855.99	227.79
856.30	227.85
856.61	227.81
856.92	227.79
857.23	227.77
857.55	227.74
857.86	227.73
858.17	227.70
858.48	227.69
858.79	227.67
859.11	227.66
859.42	227.62
859.73	227.63
860.04	227.61
860.35	227.58
860.66	227.54
860.98	227.51
861.29	227.48
861.60	227.48
861.91	227.52
862.22	227.52
862.53	227.48
862.84	227.36
863.16	227.38
863.47	227.36
863.78	227.35
864.09	227.36
864.40	227.33
864.71	227.34
865.02	227.31
865.33	227.26
865.64	227.22
865.95	227.21
866.27	227.29
866.58	227.29
866.89	227.31
867.20	227.29
867.51	227.29
867.82	227.30
868.13	227.32
868.44	227.30
868.75	227.36
869.06	227.38
869.37	227.40
869.68	227.34
869.99	227.38
870.30	227.37
870.61	227.38
870.92	227.38
871.23	227.38
871.54	227.39
871.85	227.44
872.16	227.49
872.47	227.53
872.78	227.46
873.09	227.47
873.40	227.47
873.71	227.50
874.02	227.52
874.33	227.54
874.64	227.53
874.95	227.56
875.26	227.55
875.56	227.54
875.87	227.52
876.18	227.56
876.49	227.61
876.80	227.63
877.11	227.62
877.42	227.68
877.73	227.69
878.04	227.74
878.35	227.74
878.66	227.73
878.96	227.73
879.27	227.74
879.58	227.73
879.89	227.72
880.20	227.76
880.51	227.76
880.82	227.78
881.12	227.78
881.43	227.72
881.74	227.68
882.05	227.71
882.36	227.75
882.67	227.77
882.97	227.70
883.28	227.67
883.59	227.68
883.90	227.65
884.21	227.67
884.51	227.64
884.82	227.61
885.13	227.62
885.44	227.59
885.74	227.58
886.05	227.58
886.36	227.59
886.67	227.54
886.98	227.57
887.28	227.56
887.59	227.57
887.90	227.59
888.20	227.62
888.51	227.65
888.82	227.62
889.13	227.60
889.43	227.68
889.74	227.69
890.05	227.68
890.35	227.67
890.66	227.64
890.97	227.61
891.28	227.59
891.58	227.57
891.89	227.60
892.20	227.58
892.50	227.55
892.81	227.54
893.12	227.52
893.42	227.44
893.73	227.42
894.04	227.40
894.34	227.39
894.65	227.36
894.95	227.32
895.26	227.34
895.57	227.37
895.87	227.26
896.18	227.24
896.48	227.20
896.79	227.18
897.10	227.18
897.40	227.17
897.71	227.17
898.01	227.17
898.32	227.14
898.63	227.10
898.93	227.11
899.24	227.06
899.54	227.03
899.85	227.06
900.15	227.04
900.46	226.99
900.76	226.98
901.07	226.92
901.38	226.95
901.68	226.94
901.99	226.89
902.29	226.89
902.60	226.88
902.90	226.91
903.21	226.91
903.51	226.89
903.82	226.92
904.12	226.94
904.43	226.92
904.73	226.93
905.03	226.94
905.34	227.03
905.64	227.06
905.95	227.12
906.25	227.10
906.56	227.11
906.86	227.16
907.17	227.15
907.47	227.19
907.77	227.19
908.08	227.16
908.38	227.16
908.69	227.15
908.99	227.15
909.30	227.14
909.60	227.16
909.90	227.19
910.21	227.20
910.51	227.18
910.81	227.21
911.12	227.20
911.42	227.21
911.73	227.13
912.03	227.15
912.33	227.13
912.64	227.13
912.94	227.14
913.24	227.12
913.55	227.14
913.85	227.15
914.15	227.14
914.46	227.18
914.76	227.19
915.06	227.22
915.37	227.22
915.67	227.23
915.97	227.20
916.27	227.16
916.58	227.15
916.88	227.16
917.18	227.16
917.49	227.25
917.79	227.29
918.09	227.29
918.39	227.30
918.70	227.32
919.00	227.36
919.30	227.41
919.60	227.43
919.91	227.41
920.21	227.40
920.51	227.38
920.81	227.38
921.12	227.40
921.42	227.39
921.72	227.40
922.02	227.39
922.32	227.41
922.63	227.44
922.93	227.47
923.23	227.46
923.53	227.46
923.83	227.40
924.13	227.36
924.44	227.39
924.74	227.38
925.04	227.41
925.34	227.41
925.64	227.34
925.94	227.32
926.24	227.40
926.55	227.42
926.85	227.42
927.15	227.41
927.45	227.40
927.75	227.42
928.05	227.45
928.35	227.47
928.65	227.49
928.95	227.53
929.26	227.48
929.56	227.48
929.86	227.46
930.16	227.44
930.46	227.47
930.76	227.45
931.06	227.41
931.36	227.37
931.66	227.39
931.96	227.40
932.26	227.40
932.56	227.35
932.86	227.33
933.16	227.31
933.46	227.29
933.76	227.27
934.06	227.29
934.36	227.30
934.66	227.29
934.96	227.29
935.26	227.24
935.56	227.24
935.86	227.20
936.16	227.22
936.46	227.24
936.76	227.21
937.06	227.22
937.36	227.25
937.66	227.22
937.96	227.22
938.26	227.22
938.56	227.20
938.86	227.18
939.16	227.24
939.46	227.27
939.76	227.27
940.06	227.26
940.35	227.21
940.65	227.16
940.95	227.16
941.25	227.14
941.55	227.14
941.85	227.14
942.15	227.18
942.45	227.19
942.75	227.18
943.04	227.22
943.34	227.23
943.64	227.16
943.94	227.18
944.24	227.16
944.54	227.14
944.84	227.14
945.13	227.13
945.43	227.10
945.73	227.09
946.03	227.07
946.33	227.08
946.62	227.08
946.92	227.08
947.22	227.07
947.52	227.07
947.82	227.06
948.11	227.07
948.41	227.04
948.71	227.04
949.01	227.04
949.31	227.00
949.60	227.00
949.90	227.04
950.20	227.06
950.50	227.04
950.79	227.05
951.09	227.05
951.39	227.03
951.69	227.03
951.98	227.04
952.28	227.08
952.58	227.07
952.87	227.07
953.17	227.10
953.47	227.10
953.76	227.09
954.06	227.08
954.36	227.05
954.66	227.09
954.95	227.10
955.25	227.11
955.55	227.11
955.84	227.06
956.14	227.06
956.44	227.06
956.73	227.05
957.03	227.04
957.32	227.05
957.62	227.08
957.92	227.09
958.21	227.10
958.51	227.19
958.81	227.22
959.10	227.23
959.40	227.21
959.69	227.18
959.99	227.20
960.29	227.18
960.58	227.20
960.88	227.21
961.17	227.18
961.47	227.18
961.76	227.17
962.06	227.22
962.36	227.20
962.65	227.18
962.95	227.19
963.24	227.19
963.54	227.22
963.83	227.20
964.13	227.22
964.42	227.15
964.72	227.10
965.01	227.11
965.31	227.14
965.60	227.14
965.90	227.20
966.19	227.21
966.49	227.25
966.78	227.25
967.08	227.22
967.37	227.23
967.67	227.20
967.96	227.23
968.26	227.23
968.55	227.27
968.85	227.26
969.14	227.29
969.43	227.30
969.73	227.28
970.02	227.28
970.32	227.25
970.61	227.27
970.91	227.21
971.20	227.19
971.49	227.14
971.79	227.12
972.08	227.06
972.38	227.03
972.67	227.01
972.96	227.01
973.26	227.01
973.55	227.01
973.85	227.02
974.14	227.00
974.43	226.94
974.73	226.93
975.02	226.94
975.31	226.92
975.61	226.89
975.90	226.86
976.19	226.87
976.49	226.85
976.78	226.87
977.07	226.84
977.37	226.84
977.66	226.85
977.95	226.85
978.24	226.87
978.54	226.91
978.83	226.92
979.12	226.94
979.42	226.90
979.71	226.89
980.00	226.89
980.29	226.89
980.59	226.93
980.88	226.92
981.17	226.89
981.46	226.90
981.76	226.93
982.05	226.96
982.34	226.96
982.63	226.98
982.93	226.99
983.22	227.01
983.51	227.00
983.80	227.03
984.09	227.06
984.39	227.06
984.68	227.00
984.97	227.01
985.26	227.00
985.55	227.03
985.85	227.03
986.14	227.02
986.43	227.05
986.72	227.03
987.01	226.99
987.30	227.02
987.59	226.99
987.89	226.95
988.18	226.91
988.47	226.92
988.76	226.92
989.05	226.89
989.34	226.86
989.63	226.89
989.92	226.88
990.22	226.86
990.51	226.84
990.80	226.88
991.09	226.88
991.38	226.89
991.67	226.90
991.96	226.88
992.25	226.88
992.54	226.83
992.83	226.84
993.12	226.84
993.41	226.88
993.70	226.93
993.99	227.01
994.28	227.03
994.58	227.04
994.87	226.98
995.16	226.98
995.45	227.02
995.74	226.96
996.03	226.98
996.32	227.00
996.61	227.04
996.90	227.03
997.19	227.02
997.48	227.03
997.77	227.04
998.06	227.04
998.34	227.07
998.63	227.07
998.92	227.07
999.21	227.11
999.50	227.11
999.79	227.06
1000.08	227.06
1000.37	227.09
1000.66	227.08
1000.95	227.14
1001.24	227.18
1001.53	227.22
1001.82	227.26
1002.11	227.22
1002.40	227.24
1002.68	227.25
1002.97	227.35
1003.26	227.36
1003.55	227.33
1003.84	227.32
1004.13	227.40
1004.42	227.39
1004.71	227.43
1004.99	227.42
1005.28	227.44
1005.57	227.41
1005.86	227.43
1006.15	227.40
1006.44	227.35
1006.72	227.36
1007.01	227.34
1007.30	227.32
1007.59	227.29
1007.88	227.23
1008.17	227.26
1008.45	227.22
1008.74	227.19
1009.03	227.11
1009.32	227.09
1009.60	227.10
1009.89	227.10
1010.18	227.03
1010.47	227.00
1010.76	226.98
1011.04	226.98
1011.33	227.01
1011.62	226.99
1011.91	226.96
1012.19	226.98
1012.48	226.98
1012.77	227.01
1013.05	227.05
1013.34	227.02
1013.63	227.02
1013.92	227.09
1014.20	227.06
1014.49	227.08
1014.78	227.05
1015.06	227.04
1015.35	227.04
1015.64	227.02
1015.92	227.05
1016.21	227.05
1016.50	227.05
1016.78	227.07
1017.07	227.08
1017.36	227.01
1017.64	227.01
1017.93	227.04
1018.22	227.03
1018.50	227.01
1018.79	226.97
1019.08	226.89
1019.36	226.92
1019.65	226.89
1019.93	226.90
1020.22	226.92
1020.51	226.95
1020.79	226.95
1021.08	227.40
1021.36	226.30
1021.65	226.70
1021.94	226.29
1022.22	227.05
1022.51	226.62
1022.79	227.54
1023.08	227.26
1023.36	227.87
1023.65	226.59
>>>>>End Processed Spectral Data<<<<<
