SpectraSuite Data File
++++++++++++++++++++++++++++++++++++
Date: Fri Feb 01 15:43:05 EST 2013
User: group
Dark Spectrum Present: No
Reference Spectrum Present: No
Number of Sampled Component Spectra: 1
Spectrometers: USB2E7196
Integration Time (usec): 35000 (USB2E7196)
Spectra Averaged: 100 (USB2E7196)
Boxcar Smoothing: 10 (USB2E7196)
Correct for Electrical Dark: No (USB2E7196)
Strobe/Lamp Enabled: No (USB2E7196)
Correct for Detector Non-linearity: No (USB2E7196)
Correct for Stray Light: No (USB2E7196)
Number of Pixels in Processed Spectrum: 2048
>>>>>Begin Processed Spectral Data<<<<<
339.09	0.00
339.48	215.47
339.86	216.39
340.24	217.78
340.63	218.74
341.01	221.49
341.39	221.99
341.78	223.73
342.16	223.76
342.54	225.46
342.93	213.18
343.31	223.95
343.69	224.44
344.07	224.93
344.46	225.35
344.84	225.76
345.22	226.02
345.60	226.26
345.99	226.43
346.37	226.60
346.75	226.66
347.13	226.74
347.52	226.78
347.90	226.85
348.28	226.88
348.66	226.91
349.05	226.94
349.43	226.98
349.81	227.04
350.19	227.07
350.57	227.14
350.96	227.21
351.34	227.27
351.72	227.36
352.10	227.43
352.48	227.50
352.87	227.57
353.25	227.63
353.63	227.67
354.01	227.74
354.39	227.79
354.77	227.87
355.15	227.99
355.54	228.10
355.92	228.16
356.30	228.23
356.68	228.38
357.06	228.46
357.44	228.53
357.82	228.58
358.20	228.69
358.58	228.78
358.97	228.84
359.35	228.96
359.73	229.08
360.11	229.15
360.49	229.22
360.87	229.25
361.25	229.34
361.63	229.44
362.01	229.51
362.39	229.57
362.77	229.61
363.15	229.60
363.53	229.62
363.91	229.63
364.29	229.64
364.67	229.56
365.05	229.58
365.43	229.61
365.81	229.63
366.19	229.66
366.57	229.68
366.95	229.67
367.33	229.63
367.71	229.62
368.09	229.60
368.47	229.56
368.85	229.56
369.23	229.54
369.61	229.46
369.99	229.41
370.37	229.41
370.75	229.41
371.13	229.36
371.51	229.29
371.89	229.22
372.27	229.22
372.65	229.22
373.03	229.15
373.41	229.06
373.78	229.05
374.16	228.95
374.54	228.87
374.92	228.81
375.30	228.74
375.68	228.65
376.06	228.63
376.44	228.61
376.82	228.52
377.19	228.46
377.57	228.41
377.95	228.31
378.33	228.17
378.71	228.06
379.09	227.99
379.47	227.96
379.84	227.89
380.22	227.80
380.60	227.68
380.98	227.60
381.36	227.57
381.73	227.43
382.11	227.39
382.49	227.31
382.87	227.21
383.25	227.16
383.62	227.19
384.00	227.09
384.38	226.99
384.76	226.95
385.13	226.91
385.51	226.84
385.89	226.82
386.27	226.82
386.64	226.76
387.02	226.73
387.40	226.66
387.78	226.60
388.15	226.56
388.53	226.55
388.91	226.54
389.29	226.50
389.66	226.52
390.04	226.46
390.42	226.45
390.79	226.43
391.17	226.41
391.55	226.30
391.92	226.28
392.30	226.30
392.68	226.25
393.05	226.24
393.43	226.27
393.81	226.25
394.18	226.25
394.56	226.25
394.94	226.28
395.31	226.32
395.69	226.41
396.06	226.46
396.44	226.47
396.82	226.49
397.19	226.58
397.57	226.60
397.95	226.67
398.32	226.71
398.70	226.80
399.07	226.89
399.45	226.95
399.82	227.02
400.20	227.11
400.58	227.17
400.95	227.24
401.33	227.32
401.70	227.50
402.08	227.59
402.45	227.67
402.83	227.80
403.20	227.94
403.58	228.03
403.95	228.17
404.33	228.33
404.71	228.45
405.08	228.65
405.46	228.79
405.83	228.92
406.21	229.07
406.58	229.23
406.96	229.40
407.33	229.56
407.70	229.76
408.08	230.00
408.45	230.24
408.83	230.47
409.20	230.66
409.58	230.85
409.95	231.09
410.33	231.42
410.70	231.68
411.08	232.00
411.45	232.30
411.82	232.59
412.20	232.97
412.57	233.40
412.95	233.67
413.32	234.09
413.69	234.52
414.07	234.96
414.44	235.45
414.82	235.89
415.19	236.45
415.56	237.01
415.94	237.56
416.31	238.21
416.68	238.82
417.06	239.57
417.43	240.24
417.81	241.06
418.18	241.80
418.55	242.61
418.93	243.44
419.30	244.33
419.67	245.26
420.04	246.18
420.42	247.17
420.79	248.37
421.16	249.52
421.54	250.73
421.91	251.96
422.28	253.21
422.66	254.52
423.03	255.82
423.40	257.19
423.77	258.59
424.15	260.02
424.52	261.52
424.89	263.14
425.26	264.69
425.64	266.10
426.01	267.71
426.38	269.37
426.75	271.02
427.13	272.75
427.50	274.54
427.87	276.41
428.24	278.23
428.61	279.93
428.99	281.87
429.36	283.95
429.73	286.00
430.10	288.04
430.47	290.12
430.85	292.26
431.22	294.43
431.59	296.82
431.96	299.08
432.33	301.55
432.70	303.91
433.08	306.74
433.45	309.40
433.82	311.99
434.19	314.93
434.56	317.74
434.93	320.38
435.30	323.01
435.68	325.88
436.05	328.73
436.42	331.54
436.79	334.05
437.16	336.80
437.53	339.64
437.90	342.45
438.27	345.20
438.64	347.98
439.01	350.60
439.38	352.80
439.75	354.97
440.13	357.44
440.50	359.76
440.87	361.56
441.24	363.51
441.61	365.67
441.98	367.09
442.35	368.90
442.72	370.77
443.09	372.55
443.46	373.56
443.83	374.15
444.20	374.65
444.57	375.45
444.94	375.66
445.31	375.98
445.68	376.32
446.05	376.36
446.42	375.99
446.79	375.55
447.16	375.14
447.53	374.83
447.90	373.74
448.27	372.57
448.64	371.02
449.01	369.86
449.37	367.92
449.74	366.08
450.11	363.88
450.48	361.41
450.85	358.89
451.22	356.79
451.59	354.78
451.96	352.85
452.33	350.27
452.70	347.92
453.07	345.08
453.43	342.16
453.80	339.45
454.17	336.80
454.54	334.27
454.91	331.54
455.28	328.85
455.65	326.34
456.02	323.93
456.38	321.76
456.75	319.10
457.12	316.82
457.49	314.56
457.86	312.38
458.23	310.51
458.59	308.47
458.96	306.34
459.33	304.48
459.70	302.64
460.07	301.15
460.43	299.46
460.80	297.83
461.17	296.41
461.54	294.87
461.91	293.46
462.27	292.02
462.64	290.74
463.01	289.38
463.38	288.06
463.74	286.64
464.11	285.48
464.48	284.46
464.85	283.37
465.21	282.49
465.58	281.58
465.95	280.50
466.32	279.59
466.68	278.72
467.05	277.85
467.42	276.94
467.78	275.98
468.15	275.10
468.52	274.45
468.88	273.60
469.25	272.85
469.62	272.22
469.98	271.57
470.35	270.95
470.72	270.32
471.08	269.67
471.45	269.17
471.82	268.63
472.18	268.01
472.55	267.55
472.92	267.01
473.28	266.51
473.65	266.06
474.02	265.62
474.38	265.25
474.75	264.90
475.11	264.54
475.48	264.29
475.85	264.08
476.21	263.82
476.58	263.62
476.94	263.49
477.31	263.31
477.67	263.12
478.04	263.00
478.41	262.96
478.77	262.99
479.14	262.93
479.50	262.92
479.87	263.00
480.23	263.06
480.60	263.13
480.96	263.25
481.33	263.41
481.69	263.62
482.06	263.77
482.42	263.95
482.79	264.21
483.15	264.51
483.52	264.91
483.88	265.27
484.25	265.66
484.61	266.07
484.98	266.52
485.34	267.09
485.71	267.69
486.07	268.31
486.44	268.88
486.80	269.59
487.17	270.32
487.53	271.13
487.90	272.03
488.26	273.01
488.62	273.97
488.99	274.98
489.35	275.97
489.72	277.12
490.08	278.35
490.44	279.61
490.81	280.97
491.17	282.30
491.54	283.79
491.90	285.33
492.26	286.99
492.63	288.73
492.99	290.53
493.36	292.43
493.72	294.47
494.08	296.61
494.45	298.86
494.81	301.24
495.17	303.69
495.54	306.22
495.90	308.83
496.26	311.65
496.63	314.63
496.99	317.77
497.35	321.04
497.72	324.43
498.08	327.97
498.44	331.63
498.80	335.56
499.17	339.58
499.53	343.78
499.89	348.14
500.26	352.61
500.62	357.30
500.98	362.25
501.34	367.33
501.71	372.63
502.07	378.06
502.43	383.70
502.79	389.52
503.16	395.65
503.52	402.02
503.88	408.41
504.24	415.06
504.60	421.95
504.97	429.11
505.33	436.43
505.69	444.14
506.05	451.96
506.41	459.84
506.78	468.03
507.14	476.52
507.50	485.26
507.86	494.35
508.22	503.49
508.59	512.67
508.95	522.25
509.31	532.11
509.67	542.25
510.03	552.50
510.39	563.11
510.75	573.88
511.12	584.76
511.48	596.07
511.84	607.51
512.20	619.04
512.56	630.99
512.92	643.20
513.28	655.48
513.64	667.95
514.00	680.61
514.37	693.48
514.73	706.57
515.09	719.62
515.45	732.90
515.81	746.48
516.17	760.54
516.53	774.65
516.89	788.81
517.25	802.94
517.61	817.36
517.97	831.82
518.33	846.25
518.69	861.07
519.05	876.11
519.41	891.19
519.77	906.76
520.13	922.13
520.49	937.55
520.85	952.96
521.21	968.62
521.57	984.93
521.93	1000.74
522.29	1017.07
522.65	1033.34
523.01	1049.54
523.37	1065.68
523.73	1081.77
524.09	1097.82
524.45	1114.08
524.81	1130.73
525.17	1147.64
525.53	1164.46
525.89	1181.32
526.25	1198.16
526.61	1214.47
526.97	1231.24
527.33	1247.69
527.68	1264.41
528.04	1280.88
528.40	1297.55
528.76	1314.53
529.12	1331.07
529.48	1348.00
529.84	1364.06
530.20	1380.65
530.56	1397.71
530.91	1415.14
531.27	1431.91
531.63	1448.44
531.99	1465.02
532.35	1480.94
532.71	1496.82
533.07	1513.16
533.42	1529.01
533.78	1545.02
534.14	1561.38
534.50	1576.81
534.86	1592.72
535.21	1607.76
535.57	1623.65
535.93	1639.16
536.29	1654.09
536.65	1669.26
537.00	1684.10
537.36	1699.43
537.72	1713.96
538.08	1728.34
538.44	1742.11
538.79	1755.95
539.15	1769.68
539.51	1783.47
539.87	1797.97
540.22	1811.73
540.58	1825.52
540.94	1838.82
541.29	1851.80
541.65	1864.55
542.01	1877.86
542.37	1890.17
542.72	1902.83
543.08	1914.74
543.44	1927.12
543.79	1938.26
544.15	1949.19
544.51	1960.67
544.87	1971.64
545.22	1982.49
545.58	1992.69
545.94	2002.43
546.29	2012.44
546.65	2022.26
547.01	2031.53
547.36	2040.22
547.72	2048.68
548.07	2056.50
548.43	2064.76
548.79	2072.76
549.14	2080.16
549.50	2087.40
549.86	2095.04
550.21	2102.30
550.57	2109.42
550.92	2115.97
551.28	2123.13
551.64	2130.22
551.99	2136.71
552.35	2142.83
552.70	2148.99
553.06	2154.96
553.41	2161.29
553.77	2167.38
554.13	2173.52
554.48	2179.57
554.84	2184.80
555.19	2190.06
555.55	2195.11
555.90	2199.57
556.26	2204.45
556.61	2209.34
556.97	2213.57
557.32	2217.70
557.68	2221.78
558.03	2226.03
558.39	2229.68
558.74	2234.35
559.10	2238.15
559.45	2241.88
559.81	2246.19
560.16	2249.84
560.52	2253.12
560.87	2256.46
561.23	2259.02
561.58	2262.00
561.94	2264.55
562.29	2267.10
562.64	2269.76
563.00	2272.48
563.35	2276.14
563.71	2279.14
564.06	2282.31
564.42	2285.08
564.77	2287.54
565.12	2289.74
565.48	2291.44
565.83	2293.39
566.19	2294.50
566.54	2295.46
566.89	2296.58
567.25	2297.07
567.60	2298.43
567.96	2300.06
568.31	2300.97
568.66	2302.02
569.02	2302.55
569.37	2302.88
569.72	2303.70
570.08	2303.80
570.43	2303.76
570.78	2303.01
571.14	2301.51
571.49	2300.13
571.84	2299.98
572.20	2298.97
572.55	2297.98
572.90	2296.59
573.26	2295.28
573.61	2293.64
573.96	2291.83
574.31	2288.72
574.67	2285.77
575.02	2282.31
575.37	2278.93
575.72	2275.07
576.08	2271.79
576.43	2268.39
576.78	2264.70
577.13	2261.50
577.49	2258.42
577.84	2254.92
578.19	2251.05
578.54	2247.40
578.90	2243.03
579.25	2237.41
579.60	2232.28
579.95	2227.09
580.30	2221.94
580.66	2216.62
581.01	2211.78
581.36	2206.84
581.71	2202.67
582.06	2198.15
582.42	2193.52
582.77	2188.20
583.12	2183.61
583.47	2178.86
583.82	2173.69
584.17	2168.37
584.53	2162.86
584.88	2157.24
585.23	2151.40
585.58	2146.08
585.93	2140.63
586.28	2135.87
586.63	2130.76
586.98	2125.69
587.34	2121.09
587.69	2116.24
588.04	2110.81
588.39	2104.97
588.74	2098.57
589.09	2092.40
589.44	2085.61
589.79	2079.60
590.14	2074.06
590.49	2067.37
590.84	2060.89
591.19	2054.89
591.54	2048.49
591.89	2041.09
592.25	2034.33
592.60	2026.95
592.95	2019.20
593.30	2011.75
593.65	2004.05
594.00	1996.92
594.35	1989.73
594.70	1981.62
595.05	1974.34
595.40	1967.18
595.75	1959.67
596.10	1953.31
596.45	1946.59
596.80	1940.39
597.15	1933.61
597.50	1926.49
597.85	1919.98
598.19	1913.46
598.54	1906.31
598.89	1899.58
599.24	1893.63
599.59	1886.89
599.94	1880.84
600.29	1874.51
600.64	1867.97
600.99	1860.55
601.34	1853.76
601.69	1846.83
602.04	1839.98
602.39	1832.64
602.74	1825.80
603.08	1819.02
603.43	1812.24
603.78	1804.95
604.13	1797.73
604.48	1790.43
604.83	1783.56
605.18	1776.65
605.53	1768.54
605.87	1760.57
606.22	1753.36
606.57	1745.41
606.92	1738.04
607.27	1730.79
607.62	1723.92
607.96	1716.60
608.31	1710.03
608.66	1702.49
609.01	1694.83
609.36	1687.22
609.70	1679.17
610.05	1671.00
610.40	1663.27
610.75	1655.08
611.10	1647.32
611.44	1638.92
611.79	1631.01
612.14	1622.29
612.49	1613.11
612.83	1604.71
613.18	1596.54
613.53	1588.34
613.88	1579.80
614.22	1571.39
614.57	1562.77
614.92	1554.71
615.27	1547.09
615.61	1538.72
615.96	1530.67
616.31	1523.12
616.65	1515.80
617.00	1508.21
617.35	1500.69
617.70	1492.40
618.04	1483.94
618.39	1475.84
618.74	1468.30
619.08	1459.98
619.43	1452.46
619.78	1445.68
620.12	1438.51
620.47	1431.05
620.82	1423.06
621.16	1415.67
621.51	1408.12
621.85	1400.59
622.20	1392.06
622.55	1383.72
622.89	1375.92
623.24	1368.26
623.59	1360.91
623.93	1353.31
624.28	1346.16
624.62	1338.63
624.97	1331.48
625.32	1324.61
625.66	1317.52
626.01	1310.39
626.35	1302.92
626.70	1295.13
627.04	1287.30
627.39	1279.57
627.73	1272.25
628.08	1265.28
628.43	1257.94
628.77	1250.63
629.12	1243.01
629.46	1235.89
629.81	1228.57
630.15	1221.26
630.50	1213.82
630.84	1205.46
631.19	1197.60
631.53	1190.08
631.88	1182.47
632.22	1174.88
632.57	1167.57
632.91	1160.07
633.26	1152.46
633.60	1145.17
633.95	1138.03
634.29	1131.00
634.64	1124.30
634.98	1116.86
635.32	1109.72
635.67	1103.17
636.01	1096.53
636.36	1089.78
636.70	1083.29
637.05	1076.69
637.39	1070.27
637.73	1063.73
638.08	1057.94
638.42	1051.92
638.77	1045.48
639.11	1038.85
639.45	1032.44
639.80	1025.82
640.14	1019.39
640.49	1012.95
640.83	1006.63
641.17	1000.40
641.52	994.09
641.86	987.71
642.20	981.79
642.55	975.51
642.89	969.02
643.23	962.53
643.58	956.73
643.92	950.53
644.26	944.38
644.61	938.45
644.95	932.43
645.29	925.84
645.64	919.13
645.98	912.85
646.32	907.06
646.66	901.08
647.01	895.24
647.35	889.43
647.69	883.51
648.04	877.94
648.38	872.19
648.72	866.12
649.06	859.97
649.41	854.19
649.75	848.21
650.09	842.31
650.43	836.41
650.78	830.27
651.12	824.30
651.46	818.57
651.80	812.68
652.14	807.28
652.49	801.91
652.83	796.76
653.17	791.04
653.51	785.30
653.85	779.88
654.20	774.27
654.54	768.35
654.88	762.68
655.22	756.82
655.56	751.07
655.90	745.76
656.25	740.56
656.59	735.17
656.93	730.07
657.27	724.87
657.61	719.47
657.95	714.35
658.29	709.28
658.64	704.05
658.98	698.90
659.32	693.47
659.66	688.27
660.00	682.95
660.34	678.02
660.68	673.16
661.02	668.13
661.36	663.37
661.70	658.88
662.05	654.56
662.39	650.18
662.73	645.80
663.07	641.34
663.41	636.81
663.75	632.39
664.09	627.85
664.43	623.47
664.77	619.34
665.11	615.08
665.45	611.01
665.79	606.96
666.13	602.75
666.47	598.67
666.81	594.48
667.15	590.34
667.49	586.46
667.83	582.62
668.17	578.65
668.51	574.57
668.85	570.54
669.19	566.71
669.53	562.88
669.87	559.01
670.21	555.30
670.55	551.68
670.89	548.19
671.23	544.76
671.57	541.26
671.91	537.73
672.25	534.24
672.58	530.66
672.92	527.25
673.26	524.10
673.60	520.95
673.94	517.88
674.28	514.97
674.62	511.98
674.96	508.95
675.30	506.01
675.64	503.12
675.97	500.32
676.31	497.39
676.65	494.51
676.99	491.71
677.33	488.85
677.67	486.08
678.01	483.00
678.34	480.00
678.68	477.11
679.02	474.32
679.36	471.54
679.70	468.85
680.04	466.10
680.37	463.17
680.71	460.35
681.05	457.69
681.39	455.01
681.73	452.36
682.06	449.80
682.40	447.26
682.74	444.70
683.08	442.11
683.42	439.50
683.75	436.98
684.09	434.48
684.43	432.04
684.77	429.52
685.10	427.17
685.44	424.84
685.78	422.53
686.12	420.23
686.45	417.93
686.79	415.58
687.13	413.45
687.46	411.36
687.80	409.17
688.14	406.97
688.48	404.88
688.81	402.59
689.15	400.41
689.49	398.29
689.82	396.27
690.16	394.26
690.50	392.33
690.83	390.39
691.17	388.43
691.51	386.50
691.84	384.69
692.18	382.81
692.52	380.82
692.85	378.93
693.19	377.06
693.52	375.30
693.86	373.52
694.20	371.67
694.53	369.83
694.87	368.07
695.21	366.32
695.54	364.51
695.88	362.85
696.21	361.14
696.55	359.48
696.88	357.78
697.22	356.11
697.56	354.51
697.89	352.83
698.23	351.18
698.56	349.52
698.90	347.94
699.23	346.27
699.57	344.78
699.90	343.24
700.24	341.74
700.58	340.18
700.91	338.65
701.25	337.24
701.58	335.93
701.92	334.55
702.25	333.12
702.59	331.74
702.92	330.39
703.26	329.07
703.59	327.78
703.93	326.62
704.26	325.39
704.60	324.10
704.93	322.87
705.26	321.67
705.60	320.55
705.93	319.38
706.27	318.37
706.60	317.30
706.94	316.21
707.27	315.02
707.61	313.94
707.94	312.97
708.27	311.91
708.61	310.81
708.94	309.81
709.28	308.84
709.61	307.88
709.94	306.95
710.28	305.99
710.61	305.06
710.95	303.99
711.28	303.05
711.61	302.09
711.95	301.16
712.28	300.19
712.61	299.23
712.95	298.34
713.28	297.41
713.61	296.53
713.95	295.59
714.28	294.78
714.61	293.93
714.95	293.06
715.28	292.15
715.61	291.29
715.95	290.43
716.28	289.63
716.61	288.81
716.95	287.99
717.28	287.24
717.61	286.44
717.94	285.70
718.28	284.91
718.61	284.17
718.94	283.50
719.27	282.87
719.61	282.25
719.94	281.56
720.27	280.87
720.60	280.20
720.94	279.63
721.27	279.04
721.60	278.46
721.93	277.86
722.27	277.28
722.60	276.71
722.93	276.12
723.26	275.56
723.59	274.99
723.93	274.44
724.26	273.85
724.59	273.27
724.92	272.69
725.25	272.16
725.59	271.67
725.92	271.13
726.25	270.61
726.58	270.08
726.91	269.61
727.24	269.12
727.57	268.66
727.91	268.12
728.24	267.63
728.57	267.15
728.90	266.72
729.23	266.26
729.56	265.82
729.89	265.36
730.22	264.87
730.55	264.41
730.89	263.92
731.22	263.46
731.55	263.04
731.88	262.63
732.21	262.23
732.54	261.77
732.87	261.34
733.20	260.94
733.53	260.57
733.86	260.14
734.19	259.74
734.52	259.34
734.85	259.03
735.18	258.66
735.51	258.29
735.84	257.90
736.17	257.54
736.50	257.14
736.83	256.89
737.16	256.55
737.49	256.19
737.82	255.87
738.15	255.53
738.48	255.18
738.81	254.88
739.14	254.59
739.47	254.28
739.80	253.96
740.13	253.65
740.46	253.33
740.79	253.03
741.12	252.71
741.45	252.41
741.78	252.08
742.11	251.77
742.44	251.45
742.77	251.17
743.10	250.88
743.43	250.60
743.75	250.24
744.08	250.14
744.41	249.88
744.74	249.65
745.07	249.39
745.40	249.16
745.73	248.88
746.06	248.56
746.39	248.32
746.71	248.07
747.04	247.79
747.37	247.54
747.70	247.31
748.03	247.10
748.36	246.88
748.68	246.64
749.01	246.40
749.34	246.16
749.67	245.90
750.00	245.72
750.33	245.57
750.65	245.38
750.98	244.99
751.31	244.77
751.64	244.56
751.97	244.46
752.29	244.24
752.62	244.00
752.95	243.84
753.28	243.60
753.60	243.41
753.93	243.25
754.26	243.05
754.59	242.79
754.91	242.54
755.24	242.34
755.57	242.17
755.90	241.95
756.22	241.79
756.55	241.63
756.88	241.39
757.20	241.17
757.53	240.96
757.86	240.81
758.19	240.69
758.51	240.53
758.84	240.27
759.17	240.08
759.49	239.95
759.82	239.82
760.15	239.69
760.47	239.53
760.80	239.34
761.13	239.21
761.45	239.09
761.78	238.96
762.11	238.83
762.43	238.66
762.76	238.54
763.08	238.39
763.41	238.24
763.74	238.13
764.06	237.96
764.39	237.84
764.71	237.71
765.04	237.53
765.37	237.38
765.69	237.27
766.02	237.18
766.34	237.03
766.67	236.89
767.00	236.78
767.32	236.70
767.65	236.65
767.97	236.53
768.30	236.40
768.62	236.31
768.95	236.16
769.27	236.03
769.60	235.95
769.92	235.84
770.25	235.74
770.57	235.61
770.90	235.49
771.22	235.39
771.55	235.31
771.87	235.22
772.20	235.16
772.52	235.10
772.85	235.11
773.17	235.02
773.50	234.89
773.82	234.77
774.15	234.62
774.47	234.49
774.80	234.39
775.12	234.31
775.45	234.26
775.77	234.19
776.09	234.15
776.42	234.06
776.74	234.00
777.07	233.90
777.39	233.83
777.72	233.76
778.04	233.68
778.36	233.59
778.69	233.51
779.01	233.42
779.33	233.25
779.66	233.04
779.98	232.96
780.31	232.93
780.63	232.93
780.95	232.86
781.28	232.77
781.60	232.66
781.92	232.62
782.25	232.51
782.57	232.43
782.89	232.37
783.22	232.28
783.54	232.21
783.86	232.18
784.19	232.13
784.51	232.10
784.83	232.06
785.16	232.02
785.48	231.97
785.80	231.92
786.12	231.90
786.45	231.85
786.77	231.82
787.09	231.78
787.42	231.68
787.74	231.67
788.06	231.63
788.38	231.61
788.71	231.54
789.03	231.50
789.35	231.53
789.67	231.46
789.99	231.43
790.32	231.38
790.64	231.33
790.96	231.37
791.28	231.29
791.61	231.25
791.93	231.20
792.25	231.16
792.57	231.17
792.89	231.13
793.21	231.12
793.54	231.08
793.86	230.99
794.18	230.96
794.50	230.90
794.82	230.90
795.14	230.88
795.47	230.88
795.79	230.86
796.11	230.76
796.43	230.75
796.75	230.72
797.07	230.70
797.39	230.69
797.71	230.59
798.04	230.60
798.36	230.55
798.68	230.48
799.00	230.46
799.32	230.39
799.64	230.38
799.96	230.36
800.28	230.35
800.60	230.31
800.92	230.31
801.24	230.30
801.56	230.27
801.89	230.24
802.21	230.22
802.53	230.17
802.85	230.18
803.17	230.18
803.49	230.13
803.81	230.09
804.13	230.02
804.45	229.97
804.77	229.94
805.09	229.93
805.41	229.93
805.73	229.86
806.05	229.84
806.37	229.79
806.69	229.77
807.01	229.75
807.33	229.75
807.65	229.67
807.97	229.66
808.28	229.60
808.60	229.56
808.92	229.51
809.24	229.52
809.56	229.48
809.88	229.40
810.20	229.39
810.52	229.37
810.84	229.34
811.16	229.28
811.48	229.26
811.80	229.25
812.12	229.22
812.43	229.22
812.75	229.15
813.07	229.12
813.39	229.07
813.71	229.03
814.03	228.96
814.35	228.97
814.67	228.89
814.98	228.85
815.30	228.85
815.62	228.83
815.94	228.79
816.26	228.83
816.58	228.79
816.89	228.78
817.21	228.73
817.53	228.75
817.85	228.77
818.17	228.71
818.48	228.61
818.80	228.61
819.12	228.61
819.44	228.57
819.76	228.54
820.07	228.50
820.39	228.46
820.71	228.49
821.03	228.44
821.34	228.45
821.66	228.46
821.98	228.44
822.30	228.40
822.61	228.41
822.93	228.33
823.25	228.36
823.57	228.35
823.88	228.34
824.20	228.34
824.52	228.31
824.83	228.32
825.15	228.35
825.47	228.33
825.79	228.31
826.10	228.27
826.42	228.27
826.74	228.28
827.05	228.29
827.37	228.28
827.69	228.27
828.00	228.25
828.32	228.25
828.64	228.23
828.95	228.27
829.27	228.24
829.58	228.25
829.90	228.25
830.22	228.25
830.53	228.24
830.85	228.18
831.17	228.17
831.48	228.18
831.80	228.19
832.11	228.19
832.43	228.15
832.75	228.19
833.06	228.22
833.38	228.21
833.69	228.20
834.01	228.18
834.32	228.17
834.64	228.14
834.96	228.15
835.27	228.13
835.59	228.09
835.90	228.08
836.22	228.05
836.53	228.02
836.85	227.98
837.16	228.08
837.48	228.08
837.79	228.10
838.11	228.07
838.42	228.06
838.74	228.04
839.05	228.06
839.37	228.07
839.68	228.02
840.00	228.00
840.31	227.99
840.63	227.99
840.94	227.96
841.26	227.94
841.57	227.91
841.88	227.90
842.20	227.90
842.51	227.85
842.83	227.86
843.14	227.94
843.46	227.95
843.77	227.88
844.08	227.86
844.40	227.82
844.71	227.80
845.03	227.78
845.34	227.73
845.65	227.70
845.97	227.67
846.28	227.68
846.60	227.66
846.91	227.63
847.22	227.63
847.54	227.63
847.85	227.63
848.16	227.62
848.48	227.60
848.79	227.62
849.10	227.64
849.42	227.60
849.73	227.50
850.04	227.49
850.36	227.43
850.67	227.44
850.98	227.44
851.30	227.42
851.61	227.43
851.92	227.44
852.23	227.46
852.55	227.46
852.86	227.44
853.17	227.44
853.49	227.48
853.80	227.46
854.11	227.52
854.42	227.55
854.74	227.55
855.05	227.55
855.36	227.49
855.67	227.48
855.99	227.49
856.30	227.60
856.61	227.56
856.92	227.61
857.23	227.58
857.55	227.59
857.86	227.57
858.17	227.54
858.48	227.54
858.79	227.54
859.11	227.54
859.42	227.53
859.73	227.54
860.04	227.54
860.35	227.56
860.66	227.49
860.98	227.46
861.29	227.47
861.60	227.46
861.91	227.50
862.22	227.51
862.53	227.51
862.84	227.38
863.16	227.44
863.47	227.41
863.78	227.41
864.09	227.41
864.40	227.47
864.71	227.50
865.02	227.53
865.33	227.48
865.64	227.52
865.95	227.53
866.27	227.57
866.58	227.55
866.89	227.53
867.20	227.53
867.51	227.55
867.82	227.58
868.13	227.64
868.44	227.60
868.75	227.60
869.06	227.60
869.37	227.62
869.68	227.58
869.99	227.62
870.30	227.63
870.61	227.62
870.92	227.57
871.23	227.54
871.54	227.55
871.85	227.62
872.16	227.60
872.47	227.58
872.78	227.56
873.09	227.58
873.40	227.55
873.71	227.52
874.02	227.53
874.33	227.49
874.64	227.44
874.95	227.48
875.26	227.45
875.56	227.47
875.87	227.45
876.18	227.43
876.49	227.47
876.80	227.45
877.11	227.46
877.42	227.48
877.73	227.49
878.04	227.46
878.35	227.46
878.66	227.46
878.96	227.48
879.27	227.42
879.58	227.41
879.89	227.43
880.20	227.47
880.51	227.44
880.82	227.44
881.12	227.46
881.43	227.45
881.74	227.43
882.05	227.40
882.36	227.40
882.67	227.43
882.97	227.36
883.28	227.36
883.59	227.35
883.90	227.37
884.21	227.38
884.51	227.36
884.82	227.36
885.13	227.32
885.44	227.28
885.74	227.32
886.05	227.30
886.36	227.30
886.67	227.26
886.98	227.30
887.28	227.27
887.59	227.25
887.90	227.23
888.20	227.22
888.51	227.22
888.82	227.20
889.13	227.20
889.43	227.26
889.74	227.26
890.05	227.25
890.35	227.23
890.66	227.20
890.97	227.21
891.28	227.16
891.58	227.19
891.89	227.21
892.20	227.18
892.50	227.21
892.81	227.18
893.12	227.21
893.42	227.17
893.73	227.20
894.04	227.19
894.34	227.22
894.65	227.24
894.95	227.24
895.26	227.23
895.57	227.27
895.87	227.17
896.18	227.16
896.48	227.17
896.79	227.17
897.10	227.17
897.40	227.16
897.71	227.18
898.01	227.14
898.32	227.16
898.63	227.12
898.93	227.10
899.24	227.11
899.54	227.10
899.85	227.13
900.15	227.12
900.46	227.13
900.76	227.10
901.07	227.07
901.38	227.08
901.68	227.11
901.99	227.06
902.29	227.07
902.60	227.08
902.90	227.09
903.21	227.09
903.51	227.11
903.82	227.13
904.12	227.14
904.43	227.18
904.73	227.16
905.03	227.18
905.34	227.30
905.64	227.28
905.95	227.28
906.25	227.28
906.56	227.26
906.86	227.25
907.17	227.25
907.47	227.26
907.77	227.29
908.08	227.26
908.38	227.27
908.69	227.30
908.99	227.32
909.30	227.31
909.60	227.32
909.90	227.34
910.21	227.33
910.51	227.27
910.81	227.26
911.12	227.27
911.42	227.30
911.73	227.21
912.03	227.22
912.33	227.21
912.64	227.19
912.94	227.17
913.24	227.16
913.55	227.15
913.85	227.17
914.15	227.17
914.46	227.20
914.76	227.19
915.06	227.17
915.37	227.13
915.67	227.13
915.97	227.11
916.27	227.06
916.58	227.06
916.88	227.10
917.18	227.08
917.49	227.14
917.79	227.10
918.09	227.06
918.39	227.09
918.70	227.07
919.00	227.06
919.30	227.10
919.60	227.06
919.91	227.06
920.21	227.04
920.51	227.01
920.81	227.00
921.12	227.01
921.42	227.00
921.72	227.04
922.02	227.04
922.32	227.03
922.63	227.02
922.93	227.02
923.23	227.04
923.53	227.03
923.83	226.97
924.13	226.99
924.44	227.03
924.74	227.04
925.04	227.10
925.34	227.13
925.64	227.10
925.94	227.11
926.24	227.16
926.55	227.13
926.85	227.17
927.15	227.18
927.45	227.17
927.75	227.14
928.05	227.09
928.35	227.06
928.65	227.08
928.95	227.11
929.26	227.11
929.56	227.10
929.86	227.11
930.16	227.11
930.46	227.10
930.76	227.08
931.06	227.02
931.36	226.98
931.66	227.02
931.96	227.03
932.26	227.05
932.56	226.99
932.86	227.03
933.16	227.00
933.46	226.95
933.76	226.96
934.06	227.00
934.36	227.06
934.66	227.05
934.96	227.05
935.26	227.06
935.56	227.08
935.86	227.06
936.16	227.04
936.46	227.03
936.76	227.04
937.06	227.01
937.36	227.03
937.66	227.00
937.96	226.99
938.26	227.00
938.56	227.01
938.86	227.04
939.16	227.06
939.46	227.07
939.76	227.12
940.06	227.10
940.35	227.08
940.65	227.07
940.95	227.09
941.25	227.06
941.55	227.02
941.85	226.99
942.15	227.02
942.45	227.05
942.75	227.03
943.04	227.05
943.34	227.11
943.64	227.12
943.94	227.15
944.24	227.13
944.54	227.11
944.84	227.10
945.13	227.09
945.43	227.10
945.73	227.10
946.03	227.07
946.33	227.08
946.62	227.05
946.92	227.03
947.22	227.03
947.52	227.03
947.82	227.04
948.11	227.05
948.41	227.04
948.71	227.00
949.01	227.00
949.31	227.00
949.60	226.95
949.90	226.92
950.20	226.91
950.50	226.87
950.79	226.87
951.09	226.86
951.39	226.86
951.69	226.82
951.98	226.85
952.28	226.87
952.58	226.86
952.87	226.89
953.17	226.88
953.47	226.87
953.76	226.85
954.06	226.87
954.36	226.83
954.66	226.82
954.95	226.83
955.25	226.83
955.55	226.82
955.84	226.79
956.14	226.82
956.44	226.84
956.73	226.82
957.03	226.81
957.32	226.81
957.62	226.80
957.92	226.80
958.21	226.78
958.51	226.86
958.81	226.84
959.10	226.84
959.40	226.86
959.69	226.87
959.99	226.91
960.29	226.90
960.58	226.94
960.88	227.00
961.17	227.00
961.47	227.00
961.76	226.97
962.06	226.99
962.36	226.97
962.65	226.95
962.95	226.97
963.24	226.94
963.54	226.95
963.83	226.94
964.13	226.90
964.42	226.89
964.72	226.83
965.01	226.85
965.31	226.85
965.60	226.82
965.90	226.89
966.19	226.85
966.49	226.86
966.78	226.86
967.08	226.83
967.37	226.83
967.67	226.82
967.96	226.84
968.26	226.83
968.55	226.84
968.85	226.81
969.14	226.81
969.43	226.82
969.73	226.82
970.02	226.81
970.32	226.83
970.61	226.82
970.91	226.78
971.20	226.78
971.49	226.79
971.79	226.80
972.08	226.72
972.38	226.75
972.67	226.74
972.96	226.74
973.26	226.72
973.55	226.72
973.85	226.74
974.14	226.72
974.43	226.72
974.73	226.72
975.02	226.75
975.31	226.78
975.61	226.80
975.90	226.80
976.19	226.81
976.49	226.82
976.78	226.83
977.07	226.88
977.37	226.91
977.66	226.89
977.95	226.86
978.24	226.90
978.54	226.91
978.83	226.92
979.12	226.90
979.42	226.90
979.71	226.92
980.00	226.91
980.29	226.94
980.59	226.93
980.88	226.95
981.17	226.97
981.46	226.96
981.76	226.94
982.05	226.94
982.34	226.98
982.63	226.99
982.93	226.98
983.22	226.96
983.51	226.96
983.80	226.95
984.09	226.96
984.39	226.93
984.68	226.93
984.97	226.90
985.26	226.88
985.55	226.89
985.85	226.89
986.14	226.92
986.43	226.96
986.72	227.02
987.01	227.00
987.30	226.98
987.59	226.98
987.89	227.01
988.18	227.01
988.47	227.00
988.76	226.98
989.05	226.96
989.34	226.97
989.63	226.99
989.92	227.01
990.22	227.02
990.51	227.01
990.80	227.01
991.09	227.04
991.38	227.09
991.67	227.11
991.96	227.11
992.25	227.09
992.54	227.05
992.83	227.04
993.12	227.01
993.41	227.01
993.70	227.06
993.99	227.08
994.28	227.10
994.58	227.14
994.87	227.16
995.16	227.18
995.45	227.17
995.74	227.12
996.03	227.15
996.32	227.15
996.61	227.16
996.90	227.14
997.19	227.11
997.48	227.12
997.77	227.07
998.06	227.05
998.34	227.02
998.63	226.99
998.92	226.97
999.21	226.97
999.50	226.98
999.79	226.92
1000.08	226.88
1000.37	226.84
1000.66	226.79
1000.95	226.79
1001.24	226.78
1001.53	226.79
1001.82	226.81
1002.11	226.75
1002.40	226.73
1002.68	226.77
1002.97	226.85
1003.26	226.86
1003.55	226.80
1003.84	226.82
1004.13	226.87
1004.42	226.88
1004.71	226.90
1004.99	226.89
1005.28	226.93
1005.57	226.88
1005.86	226.87
1006.15	226.86
1006.44	226.85
1006.72	226.86
1007.01	226.85
1007.30	226.84
1007.59	226.80
1007.88	226.79
1008.17	226.81
1008.45	226.84
1008.74	226.79
1009.03	226.69
1009.32	226.68
1009.60	226.70
1009.89	226.71
1010.18	226.66
1010.47	226.64
1010.76	226.64
1011.04	226.62
1011.33	226.61
1011.62	226.64
1011.91	226.67
1012.19	226.67
1012.48	226.69
1012.77	226.68
1013.05	226.70
1013.34	226.72
1013.63	226.74
1013.92	226.78
1014.20	226.77
1014.49	226.77
1014.78	226.77
1015.06	226.76
1015.35	226.77
1015.64	226.75
1015.92	226.73
1016.21	226.76
1016.50	226.75
1016.78	226.77
1017.07	226.83
1017.36	226.87
1017.64	226.87
1017.93	226.87
1018.22	226.88
1018.50	226.89
1018.79	226.86
1019.08	226.84
1019.36	226.86
1019.65	226.86
1019.93	226.86
1020.22	226.89
1020.51	226.92
1020.79	226.93
1021.08	226.98
1021.36	226.61
1021.65	226.48
1021.94	226.92
1022.22	227.15
1022.51	227.03
1022.79	227.49
1023.08	227.19
1023.36	227.64
1023.65	226.89
>>>>>End Processed Spectral Data<<<<<
