SpectraSuite Data File
++++++++++++++++++++++++++++++++++++
Date: Fri Feb 01 14:56:43 EST 2013
User: group
Dark Spectrum Present: No
Reference Spectrum Present: No
Number of Sampled Component Spectra: 1
Spectrometers: USB2E7196
Integration Time (usec): 35000 (USB2E7196)
Spectra Averaged: 100 (USB2E7196)
Boxcar Smoothing: 10 (USB2E7196)
Correct for Electrical Dark: No (USB2E7196)
Strobe/Lamp Enabled: No (USB2E7196)
Correct for Detector Non-linearity: No (USB2E7196)
Correct for Stray Light: No (USB2E7196)
Number of Pixels in Processed Spectrum: 2048
>>>>>Begin Processed Spectral Data<<<<<
339.09	0.00
339.48	216.05
339.86	216.79
340.24	218.30
340.63	219.98
341.01	222.10
341.39	222.61
341.78	223.31
342.16	224.67
342.54	225.44
342.93	213.70
343.31	224.49
343.69	224.97
344.07	225.43
344.46	225.85
344.84	226.20
345.22	226.45
345.60	226.70
345.99	226.88
346.37	227.02
346.75	227.11
347.13	227.20
347.52	227.26
347.90	227.34
348.28	227.37
348.66	227.41
349.05	227.37
349.43	227.38
349.81	227.41
350.19	227.43
350.57	227.50
350.96	227.55
351.34	227.66
351.72	227.76
352.10	227.85
352.48	227.92
352.87	227.98
353.25	228.04
353.63	228.08
354.01	228.17
354.39	228.26
354.77	228.34
355.15	228.44
355.54	228.52
355.92	228.55
356.30	228.60
356.68	228.73
357.06	228.82
357.44	228.88
357.82	228.92
358.20	229.00
358.58	229.04
358.97	229.10
359.35	229.14
359.73	229.20
360.11	229.25
360.49	229.29
360.87	229.29
361.25	229.33
361.63	229.39
362.01	229.43
362.39	229.42
362.77	229.41
363.15	229.42
363.53	229.43
363.91	229.44
364.29	229.46
364.67	229.35
365.05	229.36
365.43	229.39
365.81	229.41
366.19	229.46
366.57	229.46
366.95	229.42
367.33	229.38
367.71	229.38
368.09	229.39
368.47	229.36
368.85	229.37
369.23	229.36
369.61	229.28
369.99	229.27
370.37	229.25
370.75	229.27
371.13	229.17
371.51	229.13
371.89	229.11
372.27	229.06
372.65	229.04
373.03	228.98
373.41	228.92
373.78	228.83
374.16	228.71
374.54	228.60
374.92	228.53
375.30	228.47
375.68	228.37
376.06	228.31
376.44	228.22
376.82	228.16
377.19	228.07
377.57	227.99
377.95	227.88
378.33	227.77
378.71	227.63
379.09	227.60
379.47	227.51
379.84	227.41
380.22	227.32
380.60	227.20
380.98	227.14
381.36	227.05
381.73	226.98
382.11	226.91
382.49	226.88
382.87	226.83
383.25	226.75
383.62	226.81
384.00	226.72
384.38	226.69
384.76	226.66
385.13	226.63
385.51	226.55
385.89	226.50
386.27	226.47
386.64	226.42
387.02	226.35
387.40	226.29
387.78	226.28
388.15	226.28
388.53	226.25
388.91	226.25
389.29	226.23
389.66	226.24
390.04	226.24
390.42	226.27
390.79	226.28
391.17	226.28
391.55	226.15
391.92	226.18
392.30	226.17
392.68	226.14
393.05	226.16
393.43	226.25
393.81	226.24
394.18	226.27
394.56	226.33
394.94	226.42
395.31	226.46
395.69	226.50
396.06	226.54
396.44	226.62
396.82	226.66
397.19	226.76
397.57	226.79
397.95	226.87
398.32	226.91
398.70	227.00
399.07	227.12
399.45	227.23
399.82	227.27
400.20	227.35
400.58	227.44
400.95	227.47
401.33	227.54
401.70	227.75
402.08	227.85
402.45	227.94
402.83	228.08
403.20	228.18
403.58	228.32
403.95	228.45
404.33	228.60
404.71	228.70
405.08	228.91
405.46	229.08
405.83	229.23
406.21	229.36
406.58	229.53
406.96	229.67
407.33	229.85
407.70	230.05
408.08	230.31
408.45	230.56
408.83	230.86
409.20	231.04
409.58	231.22
409.95	231.47
410.33	231.76
410.70	231.99
411.08	232.29
411.45	232.59
411.82	232.89
412.20	233.22
412.57	233.67
412.95	233.97
413.32	234.36
413.69	234.74
414.07	235.19
414.44	235.64
414.82	236.14
415.19	236.68
415.56	237.25
415.94	237.80
416.31	238.42
416.68	239.03
417.06	239.79
417.43	240.42
417.81	241.20
418.18	242.00
418.55	242.82
418.93	243.69
419.30	244.56
419.67	245.51
420.04	246.50
420.42	247.46
420.79	248.63
421.16	249.74
421.54	250.95
421.91	252.13
422.28	253.38
422.66	254.71
423.03	255.99
423.40	257.28
423.77	258.71
424.15	260.10
424.52	261.58
424.89	263.18
425.26	264.74
425.64	266.16
426.01	267.73
426.38	269.39
426.75	271.08
427.13	272.86
427.50	274.68
427.87	276.51
428.24	278.33
428.61	280.10
428.99	282.06
429.36	284.16
429.73	286.23
430.10	288.26
430.47	290.30
430.85	292.43
431.22	294.69
431.59	297.06
431.96	299.32
432.33	301.80
432.70	304.21
433.08	307.09
433.45	309.76
433.82	312.36
434.19	315.24
434.56	318.05
434.93	320.68
435.30	323.35
435.68	326.27
436.05	329.14
436.42	331.94
436.79	334.43
437.16	337.15
437.53	340.01
437.90	342.82
438.27	345.57
438.64	348.40
439.01	351.02
439.38	353.28
439.75	355.47
440.13	357.94
440.50	360.25
440.87	362.04
441.24	364.00
441.61	366.23
441.98	367.69
442.35	369.49
442.72	371.40
443.09	373.15
443.46	374.16
443.83	374.77
444.20	375.23
444.57	376.14
444.94	376.42
445.31	376.77
445.68	377.09
446.05	377.19
446.42	376.82
446.79	376.40
447.16	375.90
447.53	375.58
447.90	374.48
448.27	373.31
448.64	371.72
449.01	370.56
449.37	368.52
449.74	366.64
450.11	364.34
450.48	361.79
450.85	359.29
451.22	357.12
451.59	355.11
451.96	353.22
452.33	350.57
452.70	348.20
453.07	345.36
453.43	342.49
453.80	339.72
454.17	337.05
454.54	334.49
454.91	331.80
455.28	329.15
455.65	326.65
456.02	324.19
456.38	322.04
456.75	319.39
457.12	317.16
457.49	314.94
457.86	312.82
458.23	310.98
458.59	308.92
458.96	306.83
459.33	304.94
459.70	303.05
460.07	301.57
460.43	299.83
460.80	298.22
461.17	296.78
461.54	295.26
461.91	293.81
462.27	292.36
462.64	291.06
463.01	289.68
463.38	288.36
463.74	286.96
464.11	285.81
464.48	284.77
464.85	283.65
465.21	282.78
465.58	281.85
465.95	280.74
466.32	279.83
466.68	278.90
467.05	277.98
467.42	277.05
467.78	276.08
468.15	275.21
468.52	274.49
468.88	273.62
469.25	272.83
469.62	272.18
469.98	271.50
470.35	270.88
470.72	270.26
471.08	269.62
471.45	269.09
471.82	268.51
472.18	267.93
472.55	267.47
472.92	266.95
473.28	266.43
473.65	266.00
474.02	265.50
474.38	265.11
474.75	264.79
475.11	264.44
475.48	264.17
475.85	263.94
476.21	263.69
476.58	263.49
476.94	263.32
477.31	263.16
477.67	263.00
478.04	262.82
478.41	262.78
478.77	262.79
479.14	262.73
479.50	262.72
479.87	262.75
480.23	262.83
480.60	262.90
480.96	262.97
481.33	263.18
481.69	263.39
482.06	263.57
482.42	263.77
482.79	263.99
483.15	264.28
483.52	264.61
483.88	264.96
484.25	265.36
484.61	265.81
484.98	266.25
485.34	266.79
485.71	267.41
486.07	268.01
486.44	268.57
486.80	269.27
487.17	269.99
487.53	270.83
487.90	271.69
488.26	272.62
488.62	273.65
488.99	274.60
489.35	275.66
489.72	276.81
490.08	278.02
490.44	279.28
490.81	280.62
491.17	281.99
491.54	283.51
491.90	285.07
492.26	286.72
492.63	288.45
492.99	290.24
493.36	292.15
493.72	294.13
494.08	296.22
494.45	298.47
494.81	300.82
495.17	303.22
495.54	305.74
495.90	308.40
496.26	311.19
496.63	314.12
496.99	317.21
497.35	320.44
497.72	323.83
498.08	327.34
498.44	331.00
498.80	334.91
499.17	338.88
499.53	343.01
499.89	347.34
500.26	351.82
500.62	356.45
500.98	361.35
501.34	366.40
501.71	371.73
502.07	377.12
502.43	382.71
502.79	388.49
503.16	394.52
503.52	400.76
503.88	407.12
504.24	413.73
504.60	420.60
504.97	427.72
505.33	434.99
505.69	442.63
506.05	450.38
506.41	458.29
506.78	466.46
507.14	474.86
507.50	483.49
507.86	492.51
508.22	501.71
508.59	510.95
508.95	520.53
509.31	530.31
509.67	540.32
510.03	550.57
510.39	561.10
510.75	571.91
511.12	582.83
511.48	594.11
511.84	605.48
512.20	616.96
512.56	628.88
512.92	641.06
513.28	653.38
513.64	665.86
514.00	678.53
514.37	691.47
514.73	704.56
515.09	717.63
515.45	730.89
515.81	744.48
516.17	758.39
516.53	772.49
516.89	786.68
517.25	800.88
517.61	815.36
517.97	829.87
518.33	844.34
518.69	859.13
519.05	874.16
519.41	889.44
519.77	904.99
520.13	920.42
520.49	935.79
520.85	951.23
521.21	967.00
521.57	983.24
521.93	999.05
522.29	1015.46
522.65	1031.81
523.01	1048.13
523.37	1064.22
523.73	1080.50
524.09	1096.70
524.45	1113.17
524.81	1129.83
525.17	1146.75
525.53	1163.69
525.89	1180.62
526.25	1197.50
526.61	1213.93
526.97	1230.74
527.33	1247.32
527.68	1264.08
528.04	1280.74
528.40	1297.48
528.76	1314.64
529.12	1331.35
529.48	1348.17
529.84	1364.30
530.20	1381.08
530.56	1398.21
530.91	1415.71
531.27	1432.50
531.63	1449.07
531.99	1465.67
532.35	1481.88
532.71	1497.81
533.07	1514.18
533.42	1530.25
533.78	1546.35
534.14	1562.70
534.50	1578.12
534.86	1594.07
535.21	1609.26
535.57	1625.28
535.93	1640.89
536.29	1655.69
536.65	1670.90
537.00	1685.96
537.36	1701.27
537.72	1715.87
538.08	1730.35
538.44	1744.25
538.79	1758.29
539.15	1772.18
539.51	1786.02
539.87	1800.42
540.22	1814.24
540.58	1828.17
540.94	1841.57
541.29	1854.64
541.65	1867.49
542.01	1880.82
542.37	1893.26
542.72	1905.79
543.08	1917.71
543.44	1930.17
543.79	1941.47
544.15	1952.41
544.51	1964.05
544.87	1975.20
545.22	1985.86
545.58	1996.08
545.94	2005.87
546.29	2015.72
546.65	2025.45
547.01	2034.68
547.36	2043.41
547.72	2051.87
548.07	2059.59
548.43	2067.65
548.79	2075.64
549.14	2083.18
549.50	2090.50
549.86	2098.24
550.21	2105.62
550.57	2112.76
550.92	2119.30
551.28	2126.50
551.64	2133.60
551.99	2140.08
552.35	2146.11
552.70	2152.27
553.06	2158.18
553.41	2164.61
553.77	2170.70
554.13	2176.72
554.48	2182.78
554.84	2188.09
555.19	2193.40
555.55	2198.67
555.90	2203.26
556.26	2208.04
556.61	2212.81
556.97	2216.97
557.32	2220.93
557.68	2224.95
558.03	2229.20
558.39	2233.02
558.74	2237.48
559.10	2241.25
559.45	2244.75
559.81	2249.16
560.16	2252.93
560.52	2256.08
560.87	2259.37
561.23	2261.86
561.58	2264.71
561.94	2267.21
562.29	2269.62
562.64	2272.30
563.00	2274.80
563.35	2278.14
563.71	2281.24
564.06	2284.19
564.42	2287.04
564.77	2289.54
565.12	2291.77
565.48	2293.44
565.83	2295.10
566.19	2296.14
566.54	2297.06
566.89	2298.08
567.25	2298.43
567.60	2299.70
567.96	2301.25
568.31	2301.87
568.66	2302.86
569.02	2303.36
569.37	2303.47
569.72	2304.18
570.08	2304.03
570.43	2303.76
570.78	2302.87
571.14	2301.14
571.49	2299.71
571.84	2299.17
572.20	2297.72
572.55	2296.42
572.90	2294.67
573.26	2293.01
573.61	2291.26
573.96	2289.10
574.31	2285.97
574.67	2282.76
575.02	2279.01
575.37	2275.53
575.72	2271.45
576.08	2267.89
576.43	2264.34
576.78	2260.49
577.13	2257.28
577.49	2254.04
577.84	2250.46
578.19	2246.68
578.54	2242.95
578.90	2238.47
579.25	2232.80
579.60	2227.79
579.95	2222.66
580.30	2217.42
580.66	2212.03
581.01	2207.03
581.36	2202.03
581.71	2197.58
582.06	2192.96
582.42	2188.21
582.77	2182.77
583.12	2178.15
583.47	2173.34
583.82	2168.16
584.17	2162.83
584.53	2157.07
584.88	2151.23
585.23	2145.33
585.58	2139.70
585.93	2134.01
586.28	2129.22
586.63	2124.01
586.98	2118.73
587.34	2113.92
587.69	2108.94
588.04	2103.57
588.39	2097.59
588.74	2091.02
589.09	2084.83
589.44	2077.90
589.79	2071.80
590.14	2066.07
590.49	2059.49
590.84	2052.96
591.19	2046.95
591.54	2040.40
591.89	2032.85
592.25	2025.96
592.60	2018.65
592.95	2010.90
593.30	2003.51
593.65	1995.71
594.00	1988.58
594.35	1981.21
594.70	1973.14
595.05	1965.89
595.40	1958.62
595.75	1951.16
596.10	1944.87
596.45	1938.03
596.80	1931.85
597.15	1925.02
597.50	1917.72
597.85	1911.21
598.19	1904.52
598.54	1897.26
598.89	1890.58
599.24	1884.71
599.59	1877.95
599.94	1871.72
600.29	1865.41
600.64	1858.81
600.99	1851.26
601.34	1844.35
601.69	1837.38
602.04	1830.35
602.39	1822.99
602.74	1816.07
603.08	1809.15
603.43	1802.32
603.78	1795.03
604.13	1787.76
604.48	1780.54
604.83	1773.89
605.18	1766.75
605.53	1758.68
605.87	1750.67
606.22	1743.36
606.57	1735.42
606.92	1728.21
607.27	1721.00
607.62	1713.98
607.96	1706.58
608.31	1699.93
608.66	1692.17
609.01	1684.60
609.36	1677.16
609.70	1669.18
610.05	1661.13
610.40	1653.57
610.75	1645.34
611.10	1637.71
611.44	1629.39
611.79	1621.46
612.14	1612.74
612.49	1603.65
612.83	1595.39
613.18	1587.34
613.53	1579.46
613.88	1570.89
614.22	1562.51
614.57	1554.04
614.92	1546.07
615.27	1538.60
615.61	1530.38
615.96	1522.50
616.31	1514.95
616.65	1507.51
617.00	1499.97
617.35	1492.35
617.70	1484.00
618.04	1475.42
618.39	1467.24
618.74	1459.63
619.08	1451.37
619.43	1443.79
619.78	1436.96
620.12	1429.79
620.47	1422.22
620.82	1413.97
621.16	1406.65
621.51	1399.16
621.85	1391.54
622.20	1383.03
622.55	1374.84
622.89	1367.18
623.24	1359.70
623.59	1352.41
623.93	1344.97
624.28	1337.77
624.62	1330.31
624.97	1323.33
625.32	1316.69
625.66	1309.82
626.01	1302.62
626.35	1295.17
626.70	1287.51
627.04	1279.77
627.39	1272.10
627.73	1264.75
628.08	1257.86
628.43	1250.51
628.77	1243.07
629.12	1235.40
629.46	1228.18
629.81	1220.75
630.15	1213.49
630.50	1206.10
630.84	1198.02
631.19	1190.13
631.53	1182.70
631.88	1175.14
632.22	1167.49
632.57	1160.23
632.91	1152.63
633.26	1145.37
633.60	1138.18
633.95	1131.18
634.29	1124.26
634.64	1117.52
634.98	1110.32
635.32	1103.24
635.67	1096.70
636.01	1090.16
636.36	1083.59
636.70	1077.32
637.05	1070.73
637.39	1064.34
637.73	1057.90
638.08	1052.07
638.42	1046.19
638.77	1039.77
639.11	1033.28
639.45	1026.97
639.80	1020.31
640.14	1014.00
640.49	1007.42
640.83	1001.12
641.17	994.80
641.52	988.53
641.86	982.25
642.20	976.45
642.55	970.21
642.89	963.84
643.23	957.44
643.58	951.61
643.92	945.42
644.26	939.44
644.61	933.49
644.95	927.37
645.29	920.70
645.64	913.82
645.98	907.54
646.32	901.78
646.66	895.83
647.01	890.11
647.35	884.37
647.69	878.62
648.04	873.05
648.38	867.32
648.72	861.33
649.06	855.29
649.41	849.44
649.75	843.40
650.09	837.43
650.43	831.63
650.78	825.57
651.12	819.64
651.46	813.88
651.80	808.08
652.14	802.85
652.49	797.52
652.83	792.52
653.17	786.88
653.51	781.08
653.85	775.65
654.20	770.05
654.54	764.13
654.88	758.47
655.22	752.73
655.56	747.13
655.90	741.72
656.25	736.46
656.59	731.11
656.93	726.10
657.27	721.01
657.61	715.57
657.95	710.44
658.29	705.42
658.64	700.28
658.98	695.02
659.32	689.57
659.66	684.33
660.00	679.01
660.34	674.15
660.68	669.33
661.02	664.39
661.36	659.71
661.70	655.18
662.05	650.85
662.39	646.45
662.73	641.98
663.07	637.64
663.41	633.23
663.75	628.71
664.09	624.15
664.43	619.87
664.77	615.81
665.11	611.60
665.45	607.50
665.79	603.41
666.13	599.32
666.47	595.24
666.81	591.12
667.15	587.10
667.49	583.22
667.83	579.45
668.17	575.47
668.51	571.47
668.85	567.48
669.19	563.67
669.53	559.88
669.87	556.02
670.21	552.37
670.55	548.77
670.89	545.39
671.23	542.03
671.57	538.46
671.91	534.99
672.25	531.56
672.58	528.11
672.92	524.79
673.26	521.69
673.60	518.62
673.94	515.62
674.28	512.72
674.62	509.79
674.96	506.72
675.30	503.90
675.64	501.02
675.97	498.33
676.31	495.48
676.65	492.58
676.99	489.99
677.33	487.13
677.67	484.29
678.01	481.24
678.34	478.26
678.68	475.51
679.02	472.69
679.36	469.99
679.70	467.23
680.04	464.46
680.37	461.59
680.71	458.77
681.05	456.21
681.39	453.48
681.73	450.86
682.06	448.34
682.40	445.76
682.74	443.25
683.08	440.68
683.42	438.10
683.75	435.69
684.09	433.09
684.43	430.66
684.77	428.26
685.10	426.04
685.44	423.77
685.78	421.45
686.12	419.27
686.45	416.97
686.79	414.77
687.13	412.61
687.46	410.49
687.80	408.41
688.14	406.16
688.48	404.15
688.81	401.86
689.15	399.75
689.49	397.64
689.82	395.64
690.16	393.58
690.50	391.61
690.83	389.65
691.17	387.75
691.51	385.86
691.84	384.07
692.18	382.10
692.52	380.16
692.85	378.30
693.19	376.40
693.52	374.62
693.86	372.83
694.20	371.07
694.53	369.30
694.87	367.47
695.21	365.74
695.54	363.92
695.88	362.26
696.21	360.56
696.55	358.88
696.88	357.10
697.22	355.45
697.56	353.86
697.89	352.20
698.23	350.55
698.56	348.94
698.90	347.32
699.23	345.71
699.57	344.15
699.90	342.60
700.24	341.08
700.58	339.54
700.91	338.02
701.25	336.60
701.58	335.19
701.92	333.82
702.25	332.37
702.59	331.03
702.92	329.67
703.26	328.33
703.59	327.07
703.93	325.94
704.26	324.72
704.60	323.45
704.93	322.16
705.26	320.91
705.60	319.76
705.93	318.60
706.27	317.56
706.60	316.51
706.94	315.38
707.27	314.28
707.61	313.26
707.94	312.26
708.27	311.14
708.61	310.12
708.94	309.13
709.28	308.22
709.61	307.27
709.94	306.36
710.28	305.35
710.61	304.41
710.95	303.36
711.28	302.42
711.61	301.47
711.95	300.60
712.28	299.68
712.61	298.69
712.95	297.82
713.28	296.97
713.61	296.10
713.95	295.27
714.28	294.42
714.61	293.55
714.95	292.68
715.28	291.88
715.61	290.98
715.95	290.14
716.28	289.29
716.61	288.48
716.95	287.68
717.28	286.94
717.61	286.20
717.94	285.48
718.28	284.76
718.61	284.07
718.94	283.41
719.27	282.80
719.61	282.18
719.94	281.50
720.27	280.79
720.60	280.16
720.94	279.54
721.27	278.98
721.60	278.41
721.93	277.84
722.27	277.29
722.60	276.78
722.93	276.23
723.26	275.72
723.59	275.17
723.93	274.64
724.26	274.10
724.59	273.50
724.92	272.99
725.25	272.51
725.59	271.99
725.92	271.47
726.25	270.94
726.58	270.48
726.91	270.00
727.24	269.59
727.57	269.09
727.91	268.58
728.24	268.10
728.57	267.60
728.90	267.16
729.23	266.68
729.56	266.27
729.89	265.80
730.22	265.28
730.55	264.79
730.89	264.35
731.22	263.93
731.55	263.53
731.88	263.11
732.21	262.65
732.54	262.22
732.87	261.82
733.20	261.45
733.53	261.05
733.86	260.66
734.19	260.22
734.52	259.86
734.85	259.55
735.18	259.15
735.51	258.78
735.84	258.38
736.17	258.02
736.50	257.57
736.83	257.31
737.16	256.97
737.49	256.63
737.82	256.26
738.15	255.89
738.48	255.51
738.81	255.14
739.14	254.79
739.47	254.44
739.80	254.10
740.13	253.76
740.46	253.39
740.79	253.04
741.12	252.71
741.45	252.37
741.78	252.02
742.11	251.75
742.44	251.41
742.77	251.14
743.10	250.82
743.43	250.51
743.75	250.09
744.08	249.92
744.41	249.64
744.74	249.36
745.07	249.06
745.40	248.82
745.73	248.56
746.06	248.28
746.39	248.02
746.71	247.73
747.04	247.44
747.37	247.16
747.70	246.94
748.03	246.71
748.36	246.47
748.68	246.20
749.01	245.93
749.34	245.69
749.67	245.44
750.00	245.23
750.33	245.08
750.65	244.90
750.98	244.56
751.31	244.35
751.64	244.19
751.97	244.03
752.29	243.82
752.62	243.62
752.95	243.44
753.28	243.25
753.60	243.05
753.93	242.89
754.26	242.75
754.59	242.53
754.91	242.32
755.24	242.13
755.57	242.00
755.90	241.86
756.22	241.68
756.55	241.51
756.88	241.36
757.20	241.14
757.53	240.99
757.86	240.85
758.19	240.69
758.51	240.50
758.84	240.32
759.17	240.17
759.49	240.02
759.82	239.92
760.15	239.81
760.47	239.71
760.80	239.57
761.13	239.46
761.45	239.34
761.78	239.23
762.11	239.10
762.43	238.93
762.76	238.78
763.08	238.66
763.41	238.53
763.74	238.39
764.06	238.28
764.39	238.16
764.71	238.05
765.04	237.93
765.37	237.84
765.69	237.76
766.02	237.65
766.34	237.57
766.67	237.42
767.00	237.32
767.32	237.21
767.65	237.15
767.97	237.04
768.30	236.94
768.62	236.81
768.95	236.74
769.27	236.66
769.60	236.58
769.92	236.49
770.25	236.38
770.57	236.26
770.90	236.16
771.22	236.05
771.55	235.95
771.87	235.88
772.20	235.73
772.52	235.69
772.85	235.73
773.17	235.61
773.50	235.50
773.82	235.38
774.15	235.27
774.47	235.10
774.80	234.97
775.12	234.86
775.45	234.77
775.77	234.65
776.09	234.55
776.42	234.44
776.74	234.41
777.07	234.30
777.39	234.19
777.72	234.11
778.04	234.08
778.36	233.98
778.69	233.89
779.01	233.83
779.33	233.67
779.66	233.46
779.98	233.35
780.31	233.28
780.63	233.24
780.95	233.17
781.28	233.09
781.60	233.00
781.92	232.95
782.25	232.89
782.57	232.77
782.89	232.67
783.22	232.58
783.54	232.45
783.86	232.40
784.19	232.34
784.51	232.27
784.83	232.15
785.16	232.08
785.48	232.03
785.80	231.97
786.12	231.92
786.45	231.83
786.77	231.79
787.09	231.74
787.42	231.62
787.74	231.55
788.06	231.51
788.38	231.47
788.71	231.36
789.03	231.31
789.35	231.27
789.67	231.20
789.99	231.18
790.32	231.11
790.64	231.09
790.96	231.14
791.28	231.07
791.61	231.02
791.93	230.97
792.25	230.91
792.57	230.92
792.89	230.86
793.21	230.84
793.54	230.78
793.86	230.69
794.18	230.70
794.50	230.66
794.82	230.66
795.14	230.64
795.47	230.65
795.79	230.62
796.11	230.61
796.43	230.60
796.75	230.56
797.07	230.57
797.39	230.51
797.71	230.39
798.04	230.37
798.36	230.36
798.68	230.33
799.00	230.34
799.32	230.26
799.64	230.24
799.96	230.21
800.28	230.22
800.60	230.24
800.92	230.22
801.24	230.20
801.56	230.16
801.89	230.13
802.21	230.10
802.53	230.06
802.85	230.05
803.17	230.09
803.49	230.07
803.81	230.03
804.13	230.06
804.45	230.03
804.77	230.06
805.09	230.02
805.41	230.05
805.73	229.97
806.05	229.95
806.37	229.95
806.69	229.94
807.01	229.92
807.33	229.90
807.65	229.86
807.97	229.88
808.28	229.86
808.60	229.81
808.92	229.83
809.24	229.89
809.56	229.88
809.88	229.82
810.20	229.80
810.52	229.80
810.84	229.75
811.16	229.73
811.48	229.68
811.80	229.70
812.12	229.66
812.43	229.68
812.75	229.66
813.07	229.64
813.39	229.66
813.71	229.66
814.03	229.66
814.35	229.63
814.67	229.60
814.98	229.60
815.30	229.60
815.62	229.53
815.94	229.44
816.26	229.46
816.58	229.45
816.89	229.40
817.21	229.33
817.53	229.31
817.85	229.29
818.17	229.28
818.48	229.21
818.80	229.23
819.12	229.20
819.44	229.16
819.76	229.13
820.07	229.07
820.39	229.02
820.71	228.96
821.03	228.93
821.34	228.86
821.66	228.82
821.98	228.81
822.30	228.82
822.61	228.83
822.93	228.77
823.25	228.71
823.57	228.70
823.88	228.73
824.20	228.69
824.52	228.69
824.83	228.66
825.15	228.62
825.47	228.58
825.79	228.55
826.10	228.49
826.42	228.48
826.74	228.47
827.05	228.46
827.37	228.45
827.69	228.41
828.00	228.42
828.32	228.41
828.64	228.36
828.95	228.36
829.27	228.32
829.58	228.28
829.90	228.31
830.22	228.32
830.53	228.25
830.85	228.24
831.17	228.20
831.48	228.19
831.80	228.17
832.11	228.12
832.43	228.10
832.75	228.12
833.06	228.15
833.38	228.11
833.69	228.10
834.01	228.10
834.32	228.10
834.64	228.08
834.96	228.08
835.27	228.09
835.59	228.07
835.90	228.03
836.22	228.01
836.53	227.99
836.85	227.95
837.16	228.08
837.48	228.09
837.79	228.11
838.11	228.13
838.42	228.14
838.74	228.15
839.05	228.15
839.37	228.14
839.68	228.08
840.00	228.08
840.31	228.07
840.63	228.09
840.94	228.09
841.26	228.07
841.57	228.09
841.88	228.07
842.20	228.07
842.51	228.05
842.83	228.07
843.14	228.15
843.46	228.16
843.77	228.11
844.08	228.12
844.40	228.11
844.71	228.10
845.03	228.12
845.34	228.10
845.65	228.09
845.97	228.12
846.28	228.13
846.60	228.13
846.91	228.13
847.22	228.09
847.54	228.11
847.85	228.14
848.16	228.11
848.48	228.11
848.79	228.15
849.10	228.21
849.42	228.18
849.73	228.12
850.04	228.11
850.36	228.07
850.67	228.05
850.98	228.03
851.30	228.04
851.61	228.00
851.92	228.01
852.23	228.04
852.55	228.07
852.86	228.05
853.17	228.06
853.49	228.06
853.80	228.12
854.11	228.11
854.42	228.10
854.74	228.08
855.05	228.09
855.36	228.01
855.67	227.97
855.99	228.00
856.30	228.10
856.61	228.09
856.92	228.07
857.23	228.07
857.55	228.11
857.86	228.08
858.17	228.11
858.48	228.10
858.79	228.06
859.11	228.02
859.42	228.02
859.73	228.01
860.04	227.98
860.35	227.89
860.66	227.83
860.98	227.83
861.29	227.85
861.60	227.83
861.91	227.86
862.22	227.85
862.53	227.83
862.84	227.74
863.16	227.76
863.47	227.74
863.78	227.71
864.09	227.66
864.40	227.66
864.71	227.63
865.02	227.62
865.33	227.61
865.64	227.55
865.95	227.55
866.27	227.59
866.58	227.60
866.89	227.62
867.20	227.60
867.51	227.53
867.82	227.50
868.13	227.52
868.44	227.45
868.75	227.44
869.06	227.41
869.37	227.37
869.68	227.31
869.99	227.33
870.30	227.31
870.61	227.32
870.92	227.30
871.23	227.31
871.54	227.30
871.85	227.35
872.16	227.38
872.47	227.34
872.78	227.29
873.09	227.27
873.40	227.28
873.71	227.31
874.02	227.36
874.33	227.32
874.64	227.29
874.95	227.32
875.26	227.29
875.56	227.29
875.87	227.28
876.18	227.28
876.49	227.36
876.80	227.36
877.11	227.33
877.42	227.31
877.73	227.27
878.04	227.28
878.35	227.27
878.66	227.27
878.96	227.28
879.27	227.29
879.58	227.28
879.89	227.27
880.20	227.30
880.51	227.29
880.82	227.31
881.12	227.33
881.43	227.31
881.74	227.31
882.05	227.29
882.36	227.33
882.67	227.39
882.97	227.31
883.28	227.31
883.59	227.32
883.90	227.37
884.21	227.42
884.51	227.38
884.82	227.36
885.13	227.39
885.44	227.39
885.74	227.39
886.05	227.42
886.36	227.42
886.67	227.39
886.98	227.48
887.28	227.52
887.59	227.53
887.90	227.55
888.20	227.58
888.51	227.63
888.82	227.64
889.13	227.62
889.43	227.73
889.74	227.72
890.05	227.72
890.35	227.71
890.66	227.71
890.97	227.73
891.28	227.72
891.58	227.70
891.89	227.72
892.20	227.71
892.50	227.72
892.81	227.70
893.12	227.67
893.42	227.60
893.73	227.60
894.04	227.59
894.34	227.60
894.65	227.61
894.95	227.57
895.26	227.54
895.57	227.56
895.87	227.45
896.18	227.51
896.48	227.51
896.79	227.50
897.10	227.52
897.40	227.53
897.71	227.54
898.01	227.53
898.32	227.52
898.63	227.49
898.93	227.46
899.24	227.49
899.54	227.48
899.85	227.47
900.15	227.45
900.46	227.41
900.76	227.41
901.07	227.36
901.38	227.37
901.68	227.38
901.99	227.32
902.29	227.28
902.60	227.25
902.90	227.24
903.21	227.24
903.51	227.22
903.82	227.26
904.12	227.26
904.43	227.25
904.73	227.24
905.03	227.26
905.34	227.37
905.64	227.34
905.95	227.34
906.25	227.30
906.56	227.29
906.86	227.29
907.17	227.28
907.47	227.29
907.77	227.27
908.08	227.23
908.38	227.25
908.69	227.28
908.99	227.28
909.30	227.28
909.60	227.27
909.90	227.27
910.21	227.20
910.51	227.16
910.81	227.15
911.12	227.14
911.42	227.11
911.73	227.00
912.03	227.02
912.33	227.03
912.64	227.05
912.94	227.05
913.24	227.06
913.55	227.06
913.85	227.05
914.15	227.08
914.46	227.12
914.76	227.09
915.06	227.05
915.37	227.01
915.67	227.03
915.97	227.04
916.27	227.03
916.58	227.03
916.88	227.03
917.18	227.05
917.49	227.14
917.79	227.17
918.09	227.19
918.39	227.21
918.70	227.23
919.00	227.23
919.30	227.28
919.60	227.29
919.91	227.30
920.21	227.32
920.51	227.28
920.81	227.27
921.12	227.29
921.42	227.33
921.72	227.37
922.02	227.36
922.32	227.34
922.63	227.35
922.93	227.42
923.23	227.44
923.53	227.44
923.83	227.35
924.13	227.34
924.44	227.34
924.74	227.34
925.04	227.31
925.34	227.34
925.64	227.28
925.94	227.25
926.24	227.28
926.55	227.27
926.85	227.31
927.15	227.31
927.45	227.29
927.75	227.29
928.05	227.28
928.35	227.28
928.65	227.29
928.95	227.33
929.26	227.29
929.56	227.32
929.86	227.33
930.16	227.34
930.46	227.32
930.76	227.35
931.06	227.36
931.36	227.37
931.66	227.39
931.96	227.44
932.26	227.45
932.56	227.42
932.86	227.42
933.16	227.39
933.46	227.39
933.76	227.44
934.06	227.44
934.36	227.45
934.66	227.42
934.96	227.42
935.26	227.39
935.56	227.40
935.86	227.37
936.16	227.33
936.46	227.30
936.76	227.33
937.06	227.31
937.36	227.31
937.66	227.31
937.96	227.30
938.26	227.26
938.56	227.27
938.86	227.27
939.16	227.30
939.46	227.32
939.76	227.35
940.06	227.32
940.35	227.30
940.65	227.26
940.95	227.28
941.25	227.24
941.55	227.20
941.85	227.16
942.15	227.14
942.45	227.21
942.75	227.21
943.04	227.19
943.34	227.18
943.64	227.14
943.94	227.12
944.24	227.10
944.54	227.12
944.84	227.12
945.13	227.10
945.43	227.09
945.73	227.09
946.03	227.06
946.33	227.03
946.62	227.01
946.92	227.01
947.22	227.03
947.52	227.04
947.82	227.08
948.11	227.10
948.41	227.10
948.71	227.06
949.01	227.09
949.31	227.06
949.60	227.07
949.90	227.08
950.20	227.08
950.50	227.05
950.79	227.03
951.09	227.04
951.39	227.03
951.69	227.00
951.98	227.02
952.28	227.04
952.58	227.05
952.87	227.09
953.17	227.11
953.47	227.10
953.76	227.08
954.06	227.05
954.36	227.06
954.66	227.08
954.95	227.11
955.25	227.09
955.55	227.15
955.84	227.16
956.14	227.17
956.44	227.17
956.73	227.21
957.03	227.20
957.32	227.21
957.62	227.23
957.92	227.25
958.21	227.27
958.51	227.34
958.81	227.38
959.10	227.35
959.40	227.35
959.69	227.38
959.99	227.41
960.29	227.43
960.58	227.42
960.88	227.47
961.17	227.45
961.47	227.49
961.76	227.50
962.06	227.45
962.36	227.47
962.65	227.48
962.95	227.46
963.24	227.46
963.54	227.48
963.83	227.51
964.13	227.48
964.42	227.43
964.72	227.39
965.01	227.34
965.31	227.35
965.60	227.38
965.90	227.42
966.19	227.42
966.49	227.43
966.78	227.42
967.08	227.38
967.37	227.38
967.67	227.34
967.96	227.34
968.26	227.34
968.55	227.33
968.85	227.33
969.14	227.33
969.43	227.34
969.73	227.30
970.02	227.25
970.32	227.26
970.61	227.30
970.91	227.24
971.20	227.24
971.49	227.23
971.79	227.20
972.08	227.12
972.38	227.09
972.67	227.06
972.96	227.07
973.26	227.05
973.55	227.09
973.85	227.06
974.14	227.04
974.43	227.08
974.73	227.07
975.02	227.05
975.31	227.06
975.61	227.06
975.90	227.07
976.19	227.08
976.49	227.07
976.78	227.05
977.07	227.05
977.37	227.08
977.66	227.09
977.95	227.07
978.24	227.08
978.54	227.10
978.83	227.09
979.12	227.07
979.42	227.06
979.71	227.01
980.00	227.00
980.29	227.01
980.59	226.99
980.88	227.00
981.17	227.01
981.46	227.00
981.76	226.99
982.05	226.99
982.34	227.00
982.63	227.03
982.93	227.01
983.22	227.04
983.51	227.03
983.80	227.03
984.09	227.06
984.39	227.05
984.68	227.02
984.97	227.04
985.26	227.05
985.55	227.08
985.85	227.08
986.14	227.13
986.43	227.13
986.72	227.13
987.01	227.11
987.30	227.08
987.59	227.04
987.89	227.06
988.18	227.06
988.47	227.04
988.76	227.04
989.05	227.05
989.34	227.01
989.63	227.04
989.92	227.00
990.22	226.97
990.51	226.95
990.80	226.96
991.09	226.97
991.38	227.00
991.67	227.00
991.96	227.00
992.25	226.98
992.54	226.98
992.83	226.98
993.12	226.98
993.41	227.01
993.70	227.07
993.99	227.10
994.28	227.08
994.58	227.09
994.87	227.08
995.16	227.09
995.45	227.12
995.74	227.07
996.03	227.11
996.32	227.16
996.61	227.24
996.90	227.24
997.19	227.21
997.48	227.18
997.77	227.17
998.06	227.16
998.34	227.16
998.63	227.16
998.92	227.18
999.21	227.24
999.50	227.22
999.79	227.18
1000.08	227.16
1000.37	227.17
1000.66	227.16
1000.95	227.19
1001.24	227.16
1001.53	227.14
1001.82	227.17
1002.11	227.13
1002.40	227.11
1002.68	227.11
1002.97	227.22
1003.26	227.21
1003.55	227.22
1003.84	227.26
1004.13	227.28
1004.42	227.26
1004.71	227.26
1004.99	227.22
1005.28	227.19
1005.57	227.20
1005.86	227.19
1006.15	227.17
1006.44	227.16
1006.72	227.20
1007.01	227.17
1007.30	227.19
1007.59	227.19
1007.88	227.18
1008.17	227.24
1008.45	227.24
1008.74	227.20
1009.03	227.09
1009.32	227.08
1009.60	227.08
1009.89	227.07
1010.18	227.05
1010.47	227.08
1010.76	227.07
1011.04	227.08
1011.33	227.09
1011.62	227.08
1011.91	227.09
1012.19	227.10
1012.48	227.09
1012.77	227.04
1013.05	227.07
1013.34	227.07
1013.63	227.05
1013.92	227.06
1014.20	227.03
1014.49	226.98
1014.78	226.98
1015.06	226.98
1015.35	226.98
1015.64	226.96
1015.92	226.96
1016.21	226.95
1016.50	226.92
1016.78	226.92
1017.07	226.89
1017.36	226.85
1017.64	226.83
1017.93	226.85
1018.22	226.84
1018.50	226.84
1018.79	226.87
1019.08	226.84
1019.36	226.87
1019.65	226.83
1019.93	226.84
1020.22	226.86
1020.51	226.94
1020.79	226.90
1021.08	226.73
1021.36	226.95
1021.65	227.19
1021.94	227.10
1022.22	227.42
1022.51	226.29
1022.79	227.30
1023.08	227.29
1023.36	228.19
1023.65	226.29
>>>>>End Processed Spectral Data<<<<<
