SpectraSuite Data File
++++++++++++++++++++++++++++++++++++
Date: Fri Feb 01 15:03:05 EST 2013
User: group
Dark Spectrum Present: No
Reference Spectrum Present: No
Number of Sampled Component Spectra: 1
Spectrometers: USB2E7196
Integration Time (usec): 35000 (USB2E7196)
Spectra Averaged: 100 (USB2E7196)
Boxcar Smoothing: 10 (USB2E7196)
Correct for Electrical Dark: No (USB2E7196)
Strobe/Lamp Enabled: No (USB2E7196)
Correct for Detector Non-linearity: No (USB2E7196)
Correct for Stray Light: No (USB2E7196)
Number of Pixels in Processed Spectrum: 2048
>>>>>Begin Processed Spectral Data<<<<<
339.09	0.00
339.48	214.70
339.86	217.04
340.24	218.10
340.63	219.45
341.01	222.18
341.39	221.97
341.78	223.99
342.16	224.60
342.54	224.82
342.93	213.59
343.31	224.40
343.69	224.98
344.07	225.41
344.46	225.84
344.84	226.22
345.22	226.46
345.60	226.70
345.99	226.87
346.37	227.02
346.75	227.14
347.13	227.23
347.52	227.32
347.90	227.37
348.28	227.38
348.66	227.41
349.05	227.40
349.43	227.46
349.81	227.51
350.19	227.54
350.57	227.57
350.96	227.61
351.34	227.65
351.72	227.70
352.10	227.81
352.48	227.92
352.87	227.95
353.25	228.05
353.63	228.13
354.01	228.22
354.39	228.26
354.77	228.31
355.15	228.42
355.54	228.45
355.92	228.48
356.30	228.56
356.68	228.70
357.06	228.80
357.44	228.81
357.82	228.87
358.20	228.93
358.58	229.03
358.97	229.09
359.35	229.22
359.73	229.33
360.11	229.36
360.49	229.39
360.87	229.44
361.25	229.47
361.63	229.52
362.01	229.54
362.39	229.59
362.77	229.65
363.15	229.65
363.53	229.68
363.91	229.69
364.29	229.71
364.67	229.62
365.05	229.61
365.43	229.64
365.81	229.62
366.19	229.66
366.57	229.67
366.95	229.63
367.33	229.56
367.71	229.52
368.09	229.52
368.47	229.49
368.85	229.47
369.23	229.44
369.61	229.36
369.99	229.35
370.37	229.30
370.75	229.28
371.13	229.21
371.51	229.13
371.89	229.07
372.27	229.01
372.65	228.95
373.03	228.89
373.41	228.82
373.78	228.78
374.16	228.67
374.54	228.57
374.92	228.49
375.30	228.46
375.68	228.36
376.06	228.32
376.44	228.22
376.82	228.14
377.19	228.08
377.57	228.01
377.95	227.89
378.33	227.79
378.71	227.66
379.09	227.58
379.47	227.55
379.84	227.45
380.22	227.36
380.60	227.28
380.98	227.20
381.36	227.13
381.73	227.05
382.11	226.97
382.49	226.87
382.87	226.82
383.25	226.70
383.62	226.75
384.00	226.64
384.38	226.58
384.76	226.54
385.13	226.50
385.51	226.42
385.89	226.36
386.27	226.34
386.64	226.34
387.02	226.30
387.40	226.21
387.78	226.23
388.15	226.20
388.53	226.18
388.91	226.16
389.29	226.12
389.66	226.08
390.04	226.06
390.42	226.10
390.79	226.08
391.17	226.09
391.55	225.94
391.92	225.93
392.30	225.95
392.68	225.93
393.05	225.92
393.43	225.97
393.81	226.02
394.18	226.01
394.56	226.01
394.94	226.06
395.31	226.09
395.69	226.14
396.06	226.20
396.44	226.27
396.82	226.32
397.19	226.43
397.57	226.51
397.95	226.63
398.32	226.66
398.70	226.72
399.07	226.82
399.45	226.92
399.82	227.03
400.20	227.14
400.58	227.24
400.95	227.30
401.33	227.42
401.70	227.57
402.08	227.73
402.45	227.84
402.83	227.94
403.20	228.10
403.58	228.21
403.95	228.32
404.33	228.43
404.71	228.59
405.08	228.79
405.46	228.93
405.83	229.07
406.21	229.21
406.58	229.42
406.96	229.57
407.33	229.79
407.70	229.97
408.08	230.23
408.45	230.47
408.83	230.72
409.20	230.94
409.58	231.12
409.95	231.35
410.33	231.64
410.70	231.89
411.08	232.17
411.45	232.49
411.82	232.85
412.20	233.21
412.57	233.60
412.95	233.90
413.32	234.29
413.69	234.70
414.07	235.14
414.44	235.60
414.82	236.10
415.19	236.61
415.56	237.15
415.94	237.68
416.31	238.31
416.68	238.93
417.06	239.64
417.43	240.33
417.81	241.09
418.18	241.86
418.55	242.72
418.93	243.57
419.30	244.45
419.67	245.38
420.04	246.32
420.42	247.31
420.79	248.47
421.16	249.61
421.54	250.82
421.91	252.05
422.28	253.32
422.66	254.63
423.03	255.94
423.40	257.28
423.77	258.71
424.15	260.09
424.52	261.57
424.89	263.18
425.26	264.70
425.64	266.15
426.01	267.76
426.38	269.43
426.75	271.10
427.13	272.81
427.50	274.61
427.87	276.49
428.24	278.32
428.61	280.09
428.99	282.04
429.36	284.15
429.73	286.21
430.10	288.24
430.47	290.30
430.85	292.40
431.22	294.66
431.59	297.02
431.96	299.31
432.33	301.80
432.70	304.17
433.08	307.00
433.45	309.65
433.82	312.23
434.19	315.14
434.56	318.00
434.93	320.69
435.30	323.37
435.68	326.31
436.05	329.20
436.42	331.96
436.79	334.47
437.16	337.15
437.53	340.01
437.90	342.83
438.27	345.60
438.64	348.43
439.01	351.01
439.38	353.26
439.75	355.39
440.13	357.91
440.50	360.29
440.87	362.14
441.24	364.11
441.61	366.30
441.98	367.73
442.35	369.53
442.72	371.41
443.09	373.13
443.46	374.11
443.83	374.67
444.20	375.23
444.57	376.07
444.94	376.32
445.31	376.68
445.68	377.00
446.05	377.08
446.42	376.71
446.79	376.33
447.16	375.89
447.53	375.56
447.90	374.37
448.27	373.18
448.64	371.59
449.01	370.43
449.37	368.47
449.74	366.63
450.11	364.37
450.48	361.85
450.85	359.37
451.22	357.22
451.59	355.22
451.96	353.30
452.33	350.72
452.70	348.40
453.07	345.51
453.43	342.58
453.80	339.82
454.17	337.14
454.54	334.57
454.91	331.83
455.28	329.19
455.65	326.71
456.02	324.26
456.38	322.14
456.75	319.45
457.12	317.15
457.49	314.93
457.86	312.73
458.23	310.89
458.59	308.82
458.96	306.73
459.33	304.88
459.70	302.97
460.07	301.45
460.43	299.75
460.80	298.13
461.17	296.72
461.54	295.22
461.91	293.77
462.27	292.30
462.64	291.06
463.01	289.69
463.38	288.42
463.74	287.05
464.11	285.85
464.48	284.81
464.85	283.74
465.21	282.83
465.58	281.89
465.95	280.77
466.32	279.84
466.68	278.89
467.05	277.98
467.42	277.09
467.78	276.16
468.15	275.25
468.52	274.61
468.88	273.74
469.25	272.93
469.62	272.32
469.98	271.66
470.35	271.00
470.72	270.44
471.08	269.75
471.45	269.18
471.82	268.65
472.18	268.05
472.55	267.57
472.92	267.05
473.28	266.58
473.65	266.12
474.02	265.71
474.38	265.33
474.75	264.97
475.11	264.62
475.48	264.36
475.85	264.10
476.21	263.83
476.58	263.65
476.94	263.53
477.31	263.33
477.67	263.18
478.04	263.08
478.41	262.98
478.77	263.04
479.14	262.98
479.50	262.96
479.87	263.03
480.23	263.12
480.60	263.15
480.96	263.24
481.33	263.47
481.69	263.65
482.06	263.79
482.42	263.99
482.79	264.21
483.15	264.53
483.52	264.90
483.88	265.24
484.25	265.60
484.61	266.01
484.98	266.44
485.34	267.00
485.71	267.54
486.07	268.15
486.44	268.67
486.80	269.39
487.17	270.14
487.53	270.92
487.90	271.78
488.26	272.73
488.62	273.69
488.99	274.60
489.35	275.61
489.72	276.72
490.08	277.93
490.44	279.16
490.81	280.47
491.17	281.80
491.54	283.27
491.90	284.80
492.26	286.44
492.63	288.15
492.99	289.90
493.36	291.79
493.72	293.82
494.08	295.93
494.45	298.12
494.81	300.46
495.17	302.89
495.54	305.45
495.90	308.11
496.26	310.93
496.63	313.92
496.99	317.04
497.35	320.31
497.72	323.71
498.08	327.20
498.44	330.84
498.80	334.77
499.17	338.79
499.53	342.98
499.89	347.33
500.26	351.84
500.62	356.49
500.98	361.45
501.34	366.49
501.71	371.75
502.07	377.25
502.43	382.84
502.79	388.65
503.16	394.71
503.52	400.94
503.88	407.30
504.24	413.89
504.60	420.81
504.97	427.90
505.33	435.16
505.69	442.93
506.05	450.68
506.41	458.51
506.78	466.68
507.14	475.11
507.50	483.74
507.86	492.79
508.22	501.96
508.59	511.14
508.95	520.72
509.31	530.52
509.67	540.59
510.03	550.87
510.39	561.44
510.75	572.20
511.12	583.21
511.48	594.57
511.84	605.98
512.20	617.48
512.56	629.42
512.92	641.61
513.28	653.86
513.64	666.30
514.00	679.08
514.37	691.98
514.73	705.03
515.09	718.12
515.45	731.40
515.81	745.06
516.17	759.00
516.53	773.09
516.89	787.30
517.25	801.43
517.61	815.87
517.97	830.32
518.33	844.83
518.69	859.57
519.05	874.51
519.41	889.79
519.77	905.34
520.13	920.83
520.49	936.25
520.85	951.65
521.21	967.48
521.57	983.66
521.93	999.53
522.29	1016.04
522.65	1032.34
523.01	1048.62
523.37	1064.61
523.73	1080.93
524.09	1097.15
524.45	1113.49
524.81	1130.21
525.17	1147.12
525.53	1164.06
525.89	1180.93
526.25	1197.75
526.61	1214.31
526.97	1231.14
527.33	1247.64
527.68	1264.27
528.04	1280.81
528.40	1297.54
528.76	1314.60
529.12	1331.34
529.48	1348.28
529.84	1364.32
530.20	1381.16
530.56	1398.29
530.91	1415.78
531.27	1432.58
531.63	1449.07
531.99	1465.73
532.35	1481.83
532.71	1497.78
533.07	1514.06
533.42	1530.05
533.78	1546.30
534.14	1562.53
534.50	1577.87
534.86	1593.94
535.21	1609.37
535.57	1625.39
535.93	1641.00
536.29	1655.86
536.65	1670.98
537.00	1685.96
537.36	1701.35
537.72	1715.94
538.08	1730.35
538.44	1744.23
538.79	1758.29
539.15	1772.13
539.51	1786.09
539.87	1800.42
540.22	1814.30
540.58	1828.11
540.94	1841.60
541.29	1854.56
541.65	1867.37
542.01	1880.72
542.37	1893.06
542.72	1905.47
543.08	1917.31
543.44	1929.69
543.79	1941.11
544.15	1952.12
544.51	1963.56
544.87	1974.60
545.22	1985.40
545.58	1995.72
545.94	2005.50
546.29	2015.38
546.65	2025.22
547.01	2034.38
547.36	2043.14
547.72	2051.64
548.07	2059.61
548.43	2067.79
548.79	2075.98
549.14	2083.44
549.50	2090.74
549.86	2098.46
550.21	2105.76
550.57	2112.95
550.92	2119.61
551.28	2126.64
551.64	2133.73
551.99	2140.34
552.35	2146.48
552.70	2152.51
553.06	2158.37
553.41	2164.80
553.77	2170.73
554.13	2176.73
554.48	2182.83
554.84	2188.21
555.19	2193.54
555.55	2198.55
555.90	2202.95
556.26	2207.58
556.61	2212.36
556.97	2216.59
557.32	2220.58
557.68	2224.71
558.03	2229.05
558.39	2232.66
558.74	2237.23
559.10	2240.98
559.45	2244.57
559.81	2248.80
560.16	2252.68
560.52	2255.90
560.87	2259.28
561.23	2261.89
561.58	2264.87
561.94	2267.39
562.29	2269.95
562.64	2272.51
563.00	2275.15
563.35	2278.58
563.71	2281.62
564.06	2284.78
564.42	2287.63
564.77	2290.15
565.12	2292.28
565.48	2294.01
565.83	2295.89
566.19	2297.08
566.54	2298.11
566.89	2299.03
567.25	2299.46
567.60	2300.60
567.96	2302.07
568.31	2302.83
568.66	2303.71
569.02	2304.22
569.37	2304.41
569.72	2304.98
570.08	2304.85
570.43	2304.78
570.78	2303.89
571.14	2302.31
571.49	2300.87
571.84	2300.35
572.20	2298.94
572.55	2297.87
572.90	2296.26
573.26	2294.65
573.61	2292.78
573.96	2290.70
574.31	2287.60
574.67	2284.57
575.02	2280.83
575.37	2277.41
575.72	2273.38
576.08	2270.09
576.43	2266.61
576.78	2262.83
577.13	2259.57
577.49	2256.41
577.84	2252.86
578.19	2249.28
578.54	2245.32
578.90	2240.82
579.25	2235.20
579.60	2230.18
579.95	2224.81
580.30	2219.64
580.66	2214.49
581.01	2209.55
581.36	2204.53
581.71	2200.28
582.06	2195.62
582.42	2191.03
582.77	2185.62
583.12	2180.85
583.47	2175.93
583.82	2170.60
584.17	2165.24
584.53	2159.57
584.88	2153.83
585.23	2147.79
585.58	2142.24
585.93	2136.85
586.28	2132.06
586.63	2126.79
586.98	2121.50
587.34	2116.99
587.69	2111.93
588.04	2106.56
588.39	2100.71
588.74	2094.24
589.09	2087.91
589.44	2081.06
589.79	2074.83
590.14	2069.14
590.49	2062.55
590.84	2055.98
591.19	2049.79
591.54	2043.10
591.89	2035.44
592.25	2028.48
592.60	2021.31
592.95	2013.39
593.30	2005.92
593.65	1998.29
594.00	1991.21
594.35	1984.08
594.70	1975.86
595.05	1968.53
595.40	1960.99
595.75	1953.31
596.10	1946.77
596.45	1939.90
596.80	1933.61
597.15	1926.97
597.50	1919.70
597.85	1913.10
598.19	1906.36
598.54	1899.42
598.89	1892.91
599.24	1887.04
599.59	1880.30
599.94	1874.01
600.29	1867.72
600.64	1861.05
600.99	1853.50
601.34	1846.60
601.69	1839.62
602.04	1832.56
602.39	1825.17
602.74	1818.38
603.08	1811.68
603.43	1804.95
603.78	1797.70
604.13	1790.41
604.48	1782.96
604.83	1776.18
605.18	1769.20
605.53	1761.23
605.87	1753.15
606.22	1745.85
606.57	1738.04
606.92	1730.68
607.27	1723.38
607.62	1716.42
607.96	1709.24
608.31	1702.56
608.66	1694.86
609.01	1687.21
609.36	1679.63
609.70	1671.67
610.05	1663.52
610.40	1655.84
610.75	1647.65
611.10	1640.10
611.44	1631.81
611.79	1624.00
612.14	1615.30
612.49	1606.30
612.83	1598.06
613.18	1589.89
613.53	1581.81
613.88	1573.14
614.22	1564.95
614.57	1556.45
614.92	1548.43
615.27	1540.76
615.61	1532.51
615.96	1524.57
616.31	1516.95
616.65	1509.64
617.00	1502.14
617.35	1494.63
617.70	1486.26
618.04	1477.80
618.39	1469.60
618.74	1462.02
619.08	1453.82
619.43	1446.28
619.78	1439.42
620.12	1432.17
620.47	1424.76
620.82	1416.58
621.16	1409.29
621.51	1401.74
621.85	1394.13
622.20	1385.57
622.55	1377.45
622.89	1369.68
623.24	1362.13
623.59	1354.74
623.93	1347.26
624.28	1339.98
624.62	1332.40
624.97	1325.28
625.32	1318.52
625.66	1311.46
626.01	1304.23
626.35	1296.78
626.70	1289.07
627.04	1281.29
627.39	1273.60
627.73	1266.26
628.08	1259.40
628.43	1251.94
628.77	1244.53
629.12	1237.06
629.46	1230.04
629.81	1222.55
630.15	1215.25
630.50	1207.86
630.84	1199.71
631.19	1191.93
631.53	1184.54
631.88	1177.02
632.22	1169.42
632.57	1162.19
632.91	1154.70
633.26	1147.37
633.60	1140.14
633.95	1133.21
634.29	1126.20
634.64	1119.58
634.98	1112.25
635.32	1105.10
635.67	1098.82
636.01	1092.30
636.36	1085.48
636.70	1078.95
637.05	1072.42
637.39	1066.14
637.73	1059.69
638.08	1053.92
638.42	1047.95
638.77	1041.49
639.11	1034.96
639.45	1028.74
639.80	1022.08
640.14	1015.69
640.49	1009.15
640.83	1002.90
641.17	996.58
641.52	990.30
641.86	983.95
642.20	978.11
642.55	971.89
642.89	965.29
643.23	958.82
643.58	953.10
643.92	946.88
644.26	940.93
644.61	934.91
644.95	928.90
645.29	922.34
645.64	915.59
645.98	909.36
646.32	903.54
646.66	897.43
647.01	891.68
647.35	886.02
647.69	880.28
648.04	874.70
648.38	868.96
648.72	862.97
649.06	856.93
649.41	851.14
649.75	845.07
650.09	839.24
650.43	833.41
650.78	827.21
651.12	821.39
651.46	815.55
651.80	809.72
652.14	804.36
652.49	799.00
652.83	793.82
653.17	788.00
653.51	782.30
653.85	777.00
654.20	771.34
654.54	765.36
654.88	759.66
655.22	753.81
655.56	748.11
655.90	742.68
656.25	737.45
656.59	732.08
656.93	727.15
657.27	721.93
657.61	716.54
657.95	711.53
658.29	706.44
658.64	701.29
658.98	696.08
659.32	690.66
659.66	685.45
660.00	680.16
660.34	675.29
660.68	670.43
661.02	665.38
661.36	660.74
661.70	656.32
662.05	651.94
662.39	647.59
662.73	643.21
663.07	638.86
663.41	634.41
663.75	629.96
664.09	625.42
664.43	621.06
664.77	616.96
665.11	612.76
665.45	608.68
665.79	604.65
666.13	600.53
666.47	596.46
666.81	592.30
667.15	588.18
667.49	584.39
667.83	580.64
668.17	576.76
668.51	572.77
668.85	568.74
669.19	564.91
669.53	561.13
669.87	557.19
670.21	553.47
670.55	549.87
670.89	546.43
671.23	543.03
671.57	539.57
671.91	536.06
672.25	532.60
672.58	529.09
672.92	525.60
673.26	522.48
673.60	519.35
673.94	516.28
674.28	513.39
674.62	510.41
674.96	507.25
675.30	504.36
675.64	501.39
675.97	498.62
676.31	495.77
676.65	492.87
676.99	490.24
677.33	487.44
677.67	484.64
678.01	481.57
678.34	478.54
678.68	475.70
679.02	472.87
679.36	470.09
679.70	467.42
680.04	464.76
680.37	461.86
680.71	459.10
681.05	456.49
681.39	453.79
681.73	451.14
682.06	448.65
682.40	446.07
682.74	443.59
683.08	441.05
683.42	438.45
683.75	435.91
684.09	433.40
684.43	430.95
684.77	428.48
685.10	426.23
685.44	423.95
685.78	421.69
686.12	419.51
686.45	417.24
686.79	414.92
687.13	412.73
687.46	410.61
687.80	408.43
688.14	406.24
688.48	404.23
688.81	402.01
689.15	399.87
689.49	397.73
689.82	395.67
690.16	393.61
690.50	391.69
690.83	389.79
691.17	387.85
691.51	385.95
691.84	384.12
692.18	382.17
692.52	380.22
692.85	378.28
693.19	376.36
693.52	374.56
693.86	372.76
694.20	370.98
694.53	369.17
694.87	367.37
695.21	365.62
695.54	363.83
695.88	362.14
696.21	360.44
696.55	358.80
696.88	357.09
697.22	355.44
697.56	353.81
697.89	352.17
698.23	350.53
698.56	348.94
698.90	347.36
699.23	345.73
699.57	344.22
699.90	342.72
700.24	341.25
700.58	339.73
700.91	338.30
701.25	336.87
701.58	335.48
701.92	334.14
702.25	332.77
702.59	331.42
702.92	330.10
703.26	328.80
703.59	327.54
703.93	326.38
704.26	325.17
704.60	323.89
704.93	322.62
705.26	321.38
705.60	320.21
705.93	319.05
706.27	318.02
706.60	316.96
706.94	315.89
707.27	314.74
707.61	313.66
707.94	312.61
708.27	311.54
708.61	310.52
708.94	309.51
709.28	308.53
709.61	307.57
709.94	306.66
710.28	305.67
710.61	304.69
710.95	303.64
711.28	302.71
711.61	301.78
711.95	300.89
712.28	299.95
712.61	298.95
712.95	298.02
713.28	297.17
713.61	296.24
713.95	295.35
714.28	294.50
714.61	293.65
714.95	292.80
715.28	291.94
715.61	291.04
715.95	290.16
716.28	289.30
716.61	288.47
716.95	287.64
717.28	286.92
717.61	286.15
717.94	285.38
718.28	284.57
718.61	283.85
718.94	283.16
719.27	282.51
719.61	281.86
719.94	281.22
720.27	280.48
720.60	279.85
720.94	279.23
721.27	278.62
721.60	278.04
721.93	277.44
722.27	276.90
722.60	276.38
722.93	275.81
723.26	275.27
723.59	274.70
723.93	274.12
724.26	273.53
724.59	272.98
724.92	272.50
725.25	272.03
725.59	271.54
725.92	271.01
726.25	270.50
726.58	270.04
726.91	269.57
727.24	269.08
727.57	268.62
727.91	268.09
728.24	267.63
728.57	267.14
728.90	266.69
729.23	266.20
729.56	265.76
729.89	265.29
730.22	264.80
730.55	264.38
730.89	263.96
731.22	263.54
731.55	263.11
731.88	262.65
732.21	262.19
732.54	261.74
732.87	261.33
733.20	260.92
733.53	260.55
733.86	260.16
734.19	259.76
734.52	259.39
734.85	259.12
735.18	258.73
735.51	258.36
735.84	258.01
736.17	257.66
736.50	257.29
736.83	257.05
737.16	256.72
737.49	256.38
737.82	256.00
738.15	255.66
738.48	255.33
738.81	255.03
739.14	254.77
739.47	254.45
739.80	254.14
740.13	253.83
740.46	253.48
740.79	253.15
741.12	252.82
741.45	252.50
741.78	252.14
742.11	251.84
742.44	251.55
742.77	251.25
743.10	250.95
743.43	250.61
743.75	250.23
744.08	250.13
744.41	249.85
744.74	249.60
745.07	249.33
745.40	249.08
745.73	248.83
746.06	248.52
746.39	248.27
746.71	247.98
747.04	247.74
747.37	247.49
747.70	247.25
748.03	247.04
748.36	246.86
748.68	246.61
749.01	246.39
749.34	246.17
749.67	245.92
750.00	245.72
750.33	245.57
750.65	245.37
750.98	245.03
751.31	244.79
751.64	244.60
751.97	244.45
752.29	244.20
752.62	243.94
752.95	243.74
753.28	243.54
753.60	243.35
753.93	243.14
754.26	242.94
754.59	242.73
754.91	242.53
755.24	242.30
755.57	242.11
755.90	241.91
756.22	241.71
756.55	241.52
756.88	241.31
757.20	241.09
757.53	240.91
757.86	240.73
758.19	240.54
758.51	240.37
758.84	240.16
759.17	240.01
759.49	239.88
759.82	239.78
760.15	239.61
760.47	239.43
760.80	239.24
761.13	239.14
761.45	238.95
761.78	238.80
762.11	238.63
762.43	238.51
762.76	238.37
763.08	238.22
763.41	238.11
763.74	237.98
764.06	237.84
764.39	237.68
764.71	237.54
765.04	237.42
765.37	237.25
765.69	237.09
766.02	236.94
766.34	236.79
766.67	236.63
767.00	236.52
767.32	236.48
767.65	236.43
767.97	236.30
768.30	236.22
768.62	236.11
768.95	235.97
769.27	235.82
769.60	235.73
769.92	235.61
770.25	235.50
770.57	235.39
770.90	235.28
771.22	235.16
771.55	235.07
771.87	234.97
772.20	234.91
772.52	234.93
772.85	234.96
773.17	234.89
773.50	234.78
773.82	234.71
774.15	234.56
774.47	234.41
774.80	234.32
775.12	234.23
775.45	234.17
775.77	234.15
776.09	234.11
776.42	234.05
776.74	234.00
777.07	233.90
777.39	233.82
777.72	233.74
778.04	233.73
778.36	233.63
778.69	233.58
779.01	233.50
779.33	233.35
779.66	233.18
779.98	233.13
780.31	233.07
780.63	233.02
780.95	232.98
781.28	232.94
781.60	232.87
781.92	232.81
782.25	232.76
782.57	232.67
782.89	232.59
783.22	232.51
783.54	232.46
783.86	232.38
784.19	232.32
784.51	232.29
784.83	232.18
785.16	232.15
785.48	232.13
785.80	232.09
786.12	232.05
786.45	232.04
786.77	232.00
787.09	231.99
787.42	231.90
787.74	231.89
788.06	231.85
788.38	231.81
788.71	231.76
789.03	231.74
789.35	231.76
789.67	231.73
789.99	231.69
790.32	231.66
790.64	231.65
790.96	231.69
791.28	231.65
791.61	231.64
791.93	231.62
792.25	231.55
792.57	231.58
792.89	231.51
793.21	231.43
793.54	231.36
793.86	231.30
794.18	231.27
794.50	231.22
794.82	231.20
795.14	231.16
795.47	231.14
795.79	231.09
796.11	231.00
796.43	230.97
796.75	230.94
797.07	230.90
797.39	230.86
797.71	230.75
798.04	230.71
798.36	230.68
798.68	230.62
799.00	230.59
799.32	230.53
799.64	230.51
799.96	230.47
800.28	230.46
800.60	230.40
800.92	230.40
801.24	230.35
801.56	230.31
801.89	230.28
802.21	230.24
802.53	230.21
802.85	230.22
803.17	230.19
803.49	230.14
803.81	230.10
804.13	230.07
804.45	230.03
804.77	230.00
805.09	229.96
805.41	229.95
805.73	229.90
806.05	229.83
806.37	229.82
806.69	229.80
807.01	229.77
807.33	229.75
807.65	229.69
807.97	229.75
808.28	229.69
808.60	229.66
808.92	229.63
809.24	229.63
809.56	229.57
809.88	229.56
810.20	229.55
810.52	229.56
810.84	229.53
811.16	229.54
811.48	229.47
811.80	229.49
812.12	229.43
812.43	229.44
812.75	229.45
813.07	229.43
813.39	229.42
813.71	229.37
814.03	229.37
814.35	229.34
814.67	229.23
814.98	229.21
815.30	229.16
815.62	229.12
815.94	229.05
816.26	229.08
816.58	229.04
816.89	229.01
817.21	228.94
817.53	228.92
817.85	228.88
818.17	228.92
818.48	228.84
818.80	228.85
819.12	228.81
819.44	228.77
819.76	228.74
820.07	228.70
820.39	228.68
820.71	228.64
821.03	228.63
821.34	228.64
821.66	228.67
821.98	228.67
822.30	228.64
822.61	228.66
822.93	228.60
823.25	228.56
823.57	228.52
823.88	228.54
824.20	228.52
824.52	228.53
824.83	228.50
825.15	228.46
825.47	228.42
825.79	228.43
826.10	228.41
826.42	228.41
826.74	228.42
827.05	228.43
827.37	228.48
827.69	228.47
828.00	228.44
828.32	228.42
828.64	228.42
828.95	228.49
829.27	228.45
829.58	228.47
829.90	228.49
830.22	228.54
830.53	228.49
830.85	228.50
831.17	228.45
831.48	228.42
831.80	228.47
832.11	228.49
832.43	228.47
832.75	228.48
833.06	228.53
833.38	228.50
833.69	228.48
834.01	228.47
834.32	228.47
834.64	228.46
834.96	228.47
835.27	228.47
835.59	228.46
835.90	228.46
836.22	228.45
836.53	228.44
836.85	228.40
837.16	228.51
837.48	228.51
837.79	228.54
838.11	228.56
838.42	228.55
838.74	228.54
839.05	228.50
839.37	228.47
839.68	228.39
840.00	228.39
840.31	228.43
840.63	228.40
840.94	228.38
841.26	228.39
841.57	228.34
841.88	228.34
842.20	228.32
842.51	228.29
842.83	228.28
843.14	228.35
843.46	228.33
843.77	228.27
844.08	228.22
844.40	228.19
844.71	228.17
845.03	228.15
845.34	228.13
845.65	228.15
845.97	228.16
846.28	228.15
846.60	228.14
846.91	228.09
847.22	228.07
847.54	228.05
847.85	228.03
848.16	228.01
848.48	227.97
848.79	227.94
849.10	227.96
849.42	227.97
849.73	227.86
850.04	227.86
850.36	227.82
850.67	227.85
850.98	227.83
851.30	227.83
851.61	227.81
851.92	227.82
852.23	227.84
852.55	227.83
852.86	227.81
853.17	227.81
853.49	227.84
853.80	227.85
854.11	227.85
854.42	227.84
854.74	227.84
855.05	227.85
855.36	227.81
855.67	227.79
855.99	227.79
856.30	227.89
856.61	227.85
856.92	227.81
857.23	227.82
857.55	227.82
857.86	227.82
858.17	227.83
858.48	227.81
858.79	227.76
859.11	227.78
859.42	227.78
859.73	227.76
860.04	227.72
860.35	227.69
860.66	227.66
860.98	227.67
861.29	227.70
861.60	227.68
861.91	227.70
862.22	227.70
862.53	227.64
862.84	227.53
863.16	227.55
863.47	227.57
863.78	227.55
864.09	227.57
864.40	227.58
864.71	227.59
865.02	227.61
865.33	227.58
865.64	227.53
865.95	227.53
866.27	227.61
866.58	227.60
866.89	227.61
867.20	227.60
867.51	227.56
867.82	227.55
868.13	227.59
868.44	227.58
868.75	227.58
869.06	227.62
869.37	227.66
869.68	227.66
869.99	227.67
870.30	227.68
870.61	227.66
870.92	227.64
871.23	227.64
871.54	227.64
871.85	227.72
872.16	227.73
872.47	227.73
872.78	227.67
873.09	227.73
873.40	227.68
873.71	227.68
874.02	227.69
874.33	227.69
874.64	227.67
874.95	227.67
875.26	227.64
875.56	227.59
875.87	227.57
876.18	227.55
876.49	227.64
876.80	227.61
877.11	227.60
877.42	227.58
877.73	227.56
878.04	227.57
878.35	227.54
878.66	227.53
878.96	227.54
879.27	227.57
879.58	227.54
879.89	227.57
880.20	227.64
880.51	227.62
880.82	227.64
881.12	227.64
881.43	227.63
881.74	227.61
882.05	227.63
882.36	227.62
882.67	227.64
882.97	227.50
883.28	227.49
883.59	227.49
883.90	227.50
884.21	227.51
884.51	227.46
884.82	227.44
885.13	227.46
885.44	227.43
885.74	227.37
886.05	227.32
886.36	227.33
886.67	227.26
886.98	227.32
887.28	227.28
887.59	227.28
887.90	227.27
888.20	227.27
888.51	227.29
888.82	227.29
889.13	227.31
889.43	227.40
889.74	227.40
890.05	227.41
890.35	227.36
890.66	227.33
890.97	227.33
891.28	227.29
891.58	227.29
891.89	227.28
892.20	227.25
892.50	227.24
892.81	227.23
893.12	227.24
893.42	227.19
893.73	227.19
894.04	227.18
894.34	227.22
894.65	227.21
894.95	227.17
895.26	227.18
895.57	227.21
895.87	227.13
896.18	227.14
896.48	227.13
896.79	227.17
897.10	227.17
897.40	227.18
897.71	227.20
898.01	227.21
898.32	227.21
898.63	227.26
898.93	227.30
899.24	227.28
899.54	227.26
899.85	227.24
900.15	227.24
900.46	227.26
900.76	227.23
901.07	227.26
901.38	227.29
901.68	227.29
901.99	227.23
902.29	227.28
902.60	227.31
902.90	227.29
903.21	227.30
903.51	227.29
903.82	227.32
904.12	227.33
904.43	227.33
904.73	227.35
905.03	227.34
905.34	227.39
905.64	227.43
905.95	227.47
906.25	227.46
906.56	227.47
906.86	227.46
907.17	227.47
907.47	227.44
907.77	227.43
908.08	227.42
908.38	227.43
908.69	227.40
908.99	227.38
909.30	227.41
909.60	227.39
909.90	227.42
910.21	227.38
910.51	227.37
910.81	227.37
911.12	227.40
911.42	227.40
911.73	227.32
912.03	227.31
912.33	227.33
912.64	227.34
912.94	227.34
913.24	227.32
913.55	227.31
913.85	227.31
914.15	227.31
914.46	227.30
914.76	227.29
915.06	227.28
915.37	227.28
915.67	227.25
915.97	227.25
916.27	227.24
916.58	227.27
916.88	227.28
917.18	227.26
917.49	227.29
917.79	227.29
918.09	227.30
918.39	227.33
918.70	227.31
919.00	227.32
919.30	227.36
919.60	227.34
919.91	227.33
920.21	227.36
920.51	227.35
920.81	227.35
921.12	227.38
921.42	227.35
921.72	227.35
922.02	227.35
922.32	227.39
922.63	227.37
922.93	227.40
923.23	227.39
923.53	227.41
923.83	227.33
924.13	227.32
924.44	227.33
924.74	227.35
925.04	227.37
925.34	227.34
925.64	227.34
925.94	227.34
926.24	227.40
926.55	227.38
926.85	227.40
927.15	227.39
927.45	227.36
927.75	227.37
928.05	227.37
928.35	227.35
928.65	227.35
928.95	227.37
929.26	227.35
929.56	227.38
929.86	227.35
930.16	227.34
930.46	227.37
930.76	227.36
931.06	227.29
931.36	227.24
931.66	227.29
931.96	227.28
932.26	227.31
932.56	227.26
932.86	227.24
933.16	227.24
933.46	227.24
933.76	227.26
934.06	227.31
934.36	227.34
934.66	227.35
934.96	227.30
935.26	227.32
935.56	227.32
935.86	227.29
936.16	227.29
936.46	227.32
936.76	227.31
937.06	227.30
937.36	227.31
937.66	227.35
937.96	227.31
938.26	227.30
938.56	227.30
938.86	227.31
939.16	227.34
939.46	227.37
939.76	227.38
940.06	227.38
940.35	227.35
940.65	227.33
940.95	227.34
941.25	227.34
941.55	227.31
941.85	227.29
942.15	227.35
942.45	227.35
942.75	227.34
943.04	227.35
943.34	227.36
943.64	227.34
943.94	227.30
944.24	227.31
944.54	227.29
944.84	227.27
945.13	227.26
945.43	227.27
945.73	227.23
946.03	227.24
946.33	227.17
946.62	227.13
946.92	227.12
947.22	227.13
947.52	227.10
947.82	227.12
948.11	227.10
948.41	227.05
948.71	227.04
949.01	227.04
949.31	227.02
949.60	227.03
949.90	227.06
950.20	227.07
950.50	227.05
950.79	227.08
951.09	227.11
951.39	227.09
951.69	227.04
951.98	227.08
952.28	227.09
952.58	227.13
952.87	227.15
953.17	227.17
953.47	227.17
953.76	227.18
954.06	227.17
954.36	227.18
954.66	227.15
954.95	227.17
955.25	227.16
955.55	227.16
955.84	227.10
956.14	227.12
956.44	227.11
956.73	227.07
957.03	227.06
957.32	227.06
957.62	227.06
957.92	227.10
958.21	227.06
958.51	227.14
958.81	227.14
959.10	227.16
959.40	227.16
959.69	227.15
959.99	227.17
960.29	227.17
960.58	227.19
960.88	227.24
961.17	227.25
961.47	227.24
961.76	227.25
962.06	227.29
962.36	227.24
962.65	227.26
962.95	227.27
963.24	227.23
963.54	227.19
963.83	227.22
964.13	227.16
964.42	227.16
964.72	227.07
965.01	227.09
965.31	227.08
965.60	227.04
965.90	227.11
966.19	227.11
966.49	227.12
966.78	227.09
967.08	227.09
967.37	227.07
967.67	227.07
967.96	227.07
968.26	227.08
968.55	227.12
968.85	227.14
969.14	227.16
969.43	227.18
969.73	227.19
970.02	227.18
970.32	227.19
970.61	227.21
970.91	227.18
971.20	227.17
971.49	227.16
971.79	227.19
972.08	227.10
972.38	227.08
972.67	227.08
972.96	227.10
973.26	227.05
973.55	227.10
973.85	227.08
974.14	227.09
974.43	227.12
974.73	227.10
975.02	227.07
975.31	227.08
975.61	227.06
975.90	227.05
976.19	227.02
976.49	227.05
976.78	227.02
977.07	227.02
977.37	227.01
977.66	227.02
977.95	226.99
978.24	227.04
978.54	227.08
978.83	227.07
979.12	227.08
979.42	227.07
979.71	227.05
980.00	227.05
980.29	227.06
980.59	227.03
980.88	227.04
981.17	227.04
981.46	227.02
981.76	227.08
982.05	227.12
982.34	227.16
982.63	227.16
982.93	227.13
983.22	227.17
983.51	227.16
983.80	227.17
984.09	227.21
984.39	227.18
984.68	227.15
984.97	227.15
985.26	227.11
985.55	227.12
985.85	227.12
986.14	227.14
986.43	227.14
986.72	227.12
987.01	227.10
987.30	227.08
987.59	227.08
987.89	227.02
988.18	227.00
988.47	226.96
988.76	226.96
989.05	226.98
989.34	226.97
989.63	227.00
989.92	227.00
990.22	226.98
990.51	226.98
990.80	226.97
991.09	226.95
991.38	226.96
991.67	226.97
991.96	226.94
992.25	226.93
992.54	226.92
992.83	226.92
993.12	226.92
993.41	226.94
993.70	226.96
993.99	227.01
994.28	227.01
994.58	227.04
994.87	227.02
995.16	227.02
995.45	227.02
995.74	226.98
996.03	227.00
996.32	226.98
996.61	226.98
996.90	227.00
997.19	226.99
997.48	226.99
997.77	226.95
998.06	226.94
998.34	226.93
998.63	226.93
998.92	226.91
999.21	226.90
999.50	226.91
999.79	226.88
1000.08	226.87
1000.37	226.88
1000.66	226.84
1000.95	226.87
1001.24	226.89
1001.53	226.89
1001.82	226.87
1002.11	226.82
1002.40	226.86
1002.68	226.93
1002.97	227.00
1003.26	226.99
1003.55	227.00
1003.84	227.03
1004.13	227.09
1004.42	227.07
1004.71	227.08
1004.99	227.11
1005.28	227.13
1005.57	227.12
1005.86	227.15
1006.15	227.12
1006.44	227.10
1006.72	227.14
1007.01	227.12
1007.30	227.11
1007.59	227.12
1007.88	227.16
1008.17	227.21
1008.45	227.21
1008.74	227.16
1009.03	227.12
1009.32	227.13
1009.60	227.15
1009.89	227.13
1010.18	227.09
1010.47	227.12
1010.76	227.12
1011.04	227.13
1011.33	227.16
1011.62	227.17
1011.91	227.17
1012.19	227.18
1012.48	227.18
1012.77	227.17
1013.05	227.23
1013.34	227.23
1013.63	227.20
1013.92	227.22
1014.20	227.18
1014.49	227.17
1014.78	227.18
1015.06	227.15
1015.35	227.15
1015.64	227.14
1015.92	227.16
1016.21	227.18
1016.50	227.19
1016.78	227.18
1017.07	227.17
1017.36	227.14
1017.64	227.17
1017.93	227.18
1018.22	227.16
1018.50	227.17
1018.79	227.19
1019.08	227.15
1019.36	227.14
1019.65	227.13
1019.93	227.16
1020.22	227.16
1020.51	227.20
1020.79	227.18
1021.08	226.75
1021.36	226.64
1021.65	227.38
1021.94	227.35
1022.22	226.98
1022.51	226.45
1022.79	228.07
1023.08	226.80
1023.36	228.55
1023.65	226.87
>>>>>End Processed Spectral Data<<<<<
