SpectraSuite Data File
++++++++++++++++++++++++++++++++++++
Date: Fri Feb 01 15:38:32 EST 2013
User: group
Dark Spectrum Present: No
Reference Spectrum Present: No
Number of Sampled Component Spectra: 1
Spectrometers: USB2E7196
Integration Time (usec): 35000 (USB2E7196)
Spectra Averaged: 100 (USB2E7196)
Boxcar Smoothing: 10 (USB2E7196)
Correct for Electrical Dark: No (USB2E7196)
Strobe/Lamp Enabled: No (USB2E7196)
Correct for Detector Non-linearity: No (USB2E7196)
Correct for Stray Light: No (USB2E7196)
Number of Pixels in Processed Spectrum: 2048
>>>>>Begin Processed Spectral Data<<<<<
339.09	0.00
339.48	214.96
339.86	216.93
340.24	217.94
340.63	219.20
341.01	222.89
341.39	221.80
341.78	223.38
342.16	224.18
342.54	224.68
342.93	213.29
343.31	224.08
343.69	224.63
344.07	225.07
344.46	225.48
344.84	225.86
345.22	226.06
345.60	226.30
345.99	226.47
346.37	226.63
346.75	226.72
347.13	226.80
347.52	226.87
347.90	226.94
348.28	226.97
348.66	227.04
349.05	227.04
349.43	227.08
349.81	227.11
350.19	227.16
350.57	227.24
350.96	227.32
351.34	227.40
351.72	227.46
352.10	227.54
352.48	227.60
352.87	227.63
353.25	227.68
353.63	227.75
354.01	227.81
354.39	227.88
354.77	227.98
355.15	228.07
355.54	228.13
355.92	228.17
356.30	228.25
356.68	228.36
357.06	228.39
357.44	228.42
357.82	228.48
358.20	228.53
358.58	228.58
358.97	228.63
359.35	228.71
359.73	228.78
360.11	228.84
360.49	228.93
360.87	228.96
361.25	229.02
361.63	229.09
362.01	229.13
362.39	229.14
362.77	229.16
363.15	229.18
363.53	229.19
363.91	229.18
364.29	229.18
364.67	229.09
365.05	229.12
365.43	229.16
365.81	229.16
366.19	229.19
366.57	229.23
366.95	229.23
367.33	229.15
367.71	229.14
368.09	229.16
368.47	229.14
368.85	229.11
369.23	229.11
369.61	229.06
369.99	229.12
370.37	229.11
370.75	229.15
371.13	229.09
371.51	229.05
371.89	229.03
372.27	228.98
372.65	228.94
373.03	228.90
373.41	228.84
373.78	228.77
374.16	228.68
374.54	228.58
374.92	228.51
375.30	228.46
375.68	228.38
376.06	228.30
376.44	228.20
376.82	228.16
377.19	228.08
377.57	227.98
377.95	227.85
378.33	227.75
378.71	227.60
379.09	227.57
379.47	227.52
379.84	227.46
380.22	227.37
380.60	227.30
380.98	227.26
381.36	227.19
381.73	227.12
382.11	227.07
382.49	227.04
382.87	226.95
383.25	226.88
383.62	226.95
384.00	226.86
384.38	226.83
384.76	226.80
385.13	226.78
385.51	226.72
385.89	226.63
386.27	226.60
386.64	226.58
387.02	226.50
387.40	226.45
387.78	226.39
388.15	226.37
388.53	226.34
388.91	226.32
389.29	226.27
389.66	226.29
390.04	226.27
390.42	226.26
390.79	226.27
391.17	226.30
391.55	226.16
391.92	226.17
392.30	226.17
392.68	226.16
393.05	226.17
393.43	226.23
393.81	226.26
394.18	226.26
394.56	226.29
394.94	226.34
395.31	226.37
395.69	226.46
396.06	226.55
396.44	226.57
396.82	226.60
397.19	226.70
397.57	226.74
397.95	226.79
398.32	226.80
398.70	226.90
399.07	226.96
399.45	227.04
399.82	227.10
400.20	227.18
400.58	227.29
400.95	227.32
401.33	227.40
401.70	227.55
402.08	227.66
402.45	227.75
402.83	227.88
403.20	228.00
403.58	228.11
403.95	228.19
404.33	228.36
404.71	228.47
405.08	228.68
405.46	228.79
405.83	228.95
406.21	229.13
406.58	229.29
406.96	229.46
407.33	229.67
407.70	229.88
408.08	230.12
408.45	230.34
408.83	230.58
409.20	230.82
409.58	230.97
409.95	231.24
410.33	231.52
410.70	231.74
411.08	232.03
411.45	232.32
411.82	232.63
412.20	232.96
412.57	233.36
412.95	233.63
413.32	234.04
413.69	234.46
414.07	234.88
414.44	235.35
414.82	235.84
415.19	236.35
415.56	236.86
415.94	237.38
416.31	238.02
416.68	238.65
417.06	239.35
417.43	240.05
417.81	240.80
418.18	241.56
418.55	242.41
418.93	243.30
419.30	244.21
419.67	245.15
420.04	246.11
420.42	247.09
420.79	248.24
421.16	249.43
421.54	250.62
421.91	251.79
422.28	253.03
422.66	254.30
423.03	255.61
423.40	256.94
423.77	258.34
424.15	259.72
424.52	261.23
424.89	262.84
425.26	264.35
425.64	265.76
426.01	267.37
426.38	269.02
426.75	270.68
427.13	272.36
427.50	274.15
427.87	276.01
428.24	277.87
428.61	279.64
428.99	281.57
429.36	283.64
429.73	285.72
430.10	287.78
430.47	289.86
430.85	291.98
431.22	294.20
431.59	296.65
431.96	298.90
432.33	301.35
432.70	303.76
433.08	306.63
433.45	309.25
433.82	311.84
434.19	314.76
434.56	317.57
434.93	320.22
435.30	322.84
435.68	325.75
436.05	328.57
436.42	331.35
436.79	333.86
437.16	336.56
437.53	339.42
437.90	342.18
438.27	344.93
438.64	347.75
439.01	350.38
439.38	352.57
439.75	354.79
440.13	357.32
440.50	359.63
440.87	361.45
441.24	363.48
441.61	365.60
441.98	367.10
442.35	368.94
442.72	370.83
443.09	372.63
443.46	373.62
443.83	374.21
444.20	374.74
444.57	375.55
444.94	375.85
445.31	376.15
445.68	376.53
446.05	376.61
446.42	376.25
446.79	375.88
447.16	375.43
447.53	375.09
447.90	373.94
448.27	372.80
448.64	371.22
449.01	370.06
449.37	368.12
449.74	366.18
450.11	363.88
450.48	361.39
450.85	358.89
451.22	356.75
451.59	354.72
451.96	352.76
452.33	350.16
452.70	347.78
453.07	344.98
453.43	342.08
453.80	339.31
454.17	336.61
454.54	334.01
454.91	331.28
455.28	328.57
455.65	326.04
456.02	323.57
456.38	321.42
456.75	318.75
457.12	316.50
457.49	314.29
457.86	312.14
458.23	310.29
458.59	308.23
458.96	306.13
459.33	304.29
459.70	302.43
460.07	300.94
460.43	299.24
460.80	297.61
461.17	296.16
461.54	294.63
461.91	293.24
462.27	291.78
462.64	290.54
463.01	289.18
463.38	287.89
463.74	286.50
464.11	285.34
464.48	284.30
464.85	283.21
465.21	282.32
465.58	281.38
465.95	280.29
466.32	279.36
466.68	278.43
467.05	277.54
467.42	276.63
467.78	275.65
468.15	274.75
468.52	274.10
468.88	273.24
469.25	272.47
469.62	271.82
469.98	271.17
470.35	270.52
470.72	269.89
471.08	269.22
471.45	268.65
471.82	268.09
472.18	267.48
472.55	267.01
472.92	266.52
473.28	266.03
473.65	265.59
474.02	265.15
474.38	264.80
474.75	264.47
475.11	264.13
475.48	263.92
475.85	263.71
476.21	263.45
476.58	263.27
476.94	263.19
477.31	263.04
477.67	262.89
478.04	262.79
478.41	262.76
478.77	262.85
479.14	262.81
479.50	262.82
479.87	262.94
480.23	263.04
480.60	263.08
480.96	263.20
481.33	263.39
481.69	263.60
482.06	263.79
482.42	264.01
482.79	264.25
483.15	264.56
483.52	264.95
483.88	265.32
484.25	265.72
484.61	266.14
484.98	266.57
485.34	267.14
485.71	267.77
486.07	268.41
486.44	268.96
486.80	269.71
487.17	270.46
487.53	271.29
487.90	272.13
488.26	273.09
488.62	274.07
488.99	275.05
489.35	276.07
489.72	277.22
490.08	278.37
490.44	279.65
490.81	281.00
491.17	282.35
491.54	283.85
491.90	285.36
492.26	286.98
492.63	288.72
492.99	290.50
493.36	292.37
493.72	294.40
494.08	296.50
494.45	298.77
494.81	301.11
495.17	303.50
495.54	306.02
495.90	308.70
496.26	311.47
496.63	314.45
496.99	317.56
497.35	320.80
497.72	324.27
498.08	327.78
498.44	331.44
498.80	335.32
499.17	339.30
499.53	343.50
499.89	347.88
500.26	352.37
500.62	357.02
500.98	361.98
501.34	367.01
501.71	372.33
502.07	377.77
502.43	383.41
502.79	389.22
503.16	395.37
503.52	401.64
503.88	408.06
504.24	414.73
504.60	421.67
504.97	428.84
505.33	436.14
505.69	443.80
506.05	451.57
506.41	459.51
506.78	467.67
507.14	476.16
507.50	484.89
507.86	493.88
508.22	503.07
508.59	512.25
508.95	521.83
509.31	531.61
509.67	541.62
510.03	551.96
510.39	562.50
510.75	573.22
511.12	584.20
511.48	595.49
511.84	606.90
512.20	618.34
512.56	630.26
512.92	642.45
513.28	654.85
513.64	667.37
514.00	679.98
514.37	692.96
514.73	705.94
515.09	719.03
515.45	732.37
515.81	746.04
516.17	760.03
516.53	774.12
516.89	788.34
517.25	802.57
517.61	816.96
517.97	831.41
518.33	845.93
518.69	860.66
519.05	875.63
519.41	890.73
519.77	906.35
520.13	921.83
520.49	937.23
520.85	952.66
521.21	968.43
521.57	984.75
521.93	1000.48
522.29	1016.92
522.65	1032.92
523.01	1049.20
523.37	1065.15
523.73	1081.35
524.09	1097.54
524.45	1113.91
524.81	1130.58
525.17	1147.46
525.53	1164.44
525.89	1181.38
526.25	1198.23
526.61	1214.73
526.97	1231.53
527.33	1248.06
527.68	1264.71
528.04	1281.15
528.40	1297.74
528.76	1314.73
529.12	1331.39
529.48	1348.40
529.84	1364.51
530.20	1381.35
530.56	1398.43
530.91	1415.87
531.27	1432.67
531.63	1449.14
531.99	1465.80
532.35	1481.68
532.71	1497.45
533.07	1513.78
533.42	1529.66
533.78	1545.70
534.14	1561.95
534.50	1577.44
534.86	1593.29
535.21	1608.41
535.57	1624.51
535.93	1640.00
536.29	1654.89
536.65	1669.93
537.00	1684.72
537.36	1699.94
537.72	1714.57
538.08	1728.97
538.44	1742.73
538.79	1756.67
539.15	1770.40
539.51	1784.09
539.87	1798.58
540.22	1812.48
540.58	1826.19
540.94	1839.67
541.29	1852.75
541.65	1865.49
542.01	1878.73
542.37	1891.11
542.72	1903.65
543.08	1915.34
543.44	1927.79
543.79	1939.02
544.15	1949.98
544.51	1961.58
544.87	1972.63
545.22	1983.33
545.58	1993.66
545.94	2003.45
546.29	2013.34
546.65	2023.18
547.01	2032.39
547.36	2041.07
547.72	2049.52
548.07	2057.40
548.43	2065.44
548.79	2073.50
549.14	2081.08
549.50	2088.27
549.86	2096.05
550.21	2103.35
550.57	2110.63
550.92	2117.19
551.28	2124.18
551.64	2131.31
551.99	2137.90
552.35	2143.97
552.70	2150.17
553.06	2156.01
553.41	2162.47
553.77	2168.49
554.13	2174.62
554.48	2180.89
554.84	2186.44
555.19	2191.59
555.55	2196.71
555.90	2201.07
556.26	2205.65
556.61	2210.34
556.97	2214.54
557.32	2218.50
557.68	2222.53
558.03	2226.72
558.39	2230.34
558.74	2234.96
559.10	2238.89
559.45	2242.35
559.81	2246.75
560.16	2250.57
560.52	2253.87
560.87	2257.17
561.23	2259.80
561.58	2262.57
561.94	2265.00
562.29	2267.31
562.64	2270.06
563.00	2272.70
563.35	2276.25
563.71	2279.47
564.06	2282.67
564.42	2285.61
564.77	2288.19
565.12	2290.34
565.48	2292.17
565.83	2294.10
566.19	2295.33
566.54	2296.14
566.89	2297.30
567.25	2297.80
567.60	2299.11
567.96	2300.61
568.31	2301.53
568.66	2302.60
569.02	2303.31
569.37	2303.67
569.72	2304.44
570.08	2304.53
570.43	2304.61
570.78	2304.00
571.14	2302.46
571.49	2301.05
571.84	2300.81
572.20	2299.57
572.55	2298.60
572.90	2297.16
573.26	2295.76
573.61	2294.18
573.96	2292.27
574.31	2289.22
574.67	2286.19
575.02	2282.40
575.37	2279.02
575.72	2275.11
576.08	2271.83
576.43	2268.48
576.78	2264.66
577.13	2261.49
577.49	2258.42
577.84	2254.80
578.19	2251.05
578.54	2247.41
578.90	2243.06
579.25	2237.27
579.60	2232.35
579.95	2227.34
580.30	2222.19
580.66	2216.93
581.01	2211.92
581.36	2207.02
581.71	2202.91
582.06	2198.37
582.42	2193.98
582.77	2188.76
583.12	2184.20
583.47	2179.13
583.82	2173.96
584.17	2168.70
584.53	2163.13
584.88	2157.38
585.23	2151.50
585.58	2146.04
585.93	2140.53
586.28	2135.80
586.63	2130.76
586.98	2125.64
587.34	2120.89
587.69	2115.99
588.04	2110.76
588.39	2105.04
588.74	2098.57
589.09	2092.26
589.44	2085.52
589.79	2079.57
590.14	2074.04
590.49	2067.58
590.84	2061.38
591.19	2055.49
591.54	2048.95
591.89	2041.57
592.25	2034.91
592.60	2027.66
592.95	2019.90
593.30	2012.48
593.65	2004.86
594.00	1997.94
594.35	1990.60
594.70	1982.55
595.05	1975.20
595.40	1967.93
595.75	1960.43
596.10	1954.23
596.45	1947.54
596.80	1941.42
597.15	1934.67
597.50	1927.46
597.85	1920.86
598.19	1914.15
598.54	1906.80
598.89	1900.16
599.24	1894.28
599.59	1887.39
599.94	1881.25
600.29	1875.01
600.64	1868.49
600.99	1860.98
601.34	1854.04
601.69	1847.16
602.04	1840.19
602.39	1832.91
602.74	1826.05
603.08	1819.34
603.43	1812.58
603.78	1805.29
604.13	1797.99
604.48	1790.69
604.83	1783.71
605.18	1776.61
605.53	1768.64
605.87	1760.66
606.22	1753.43
606.57	1745.44
606.92	1738.16
607.27	1730.89
607.62	1724.04
607.96	1716.63
608.31	1710.02
608.66	1702.38
609.01	1694.76
609.36	1687.36
609.70	1679.31
610.05	1671.16
610.40	1663.33
610.75	1654.89
611.10	1647.25
611.44	1638.76
611.79	1630.67
612.14	1622.10
612.49	1613.11
612.83	1604.70
613.18	1596.57
613.53	1588.43
613.88	1579.74
614.22	1571.40
614.57	1562.83
614.92	1554.78
615.27	1547.22
615.61	1538.92
615.96	1530.99
616.31	1523.31
616.65	1515.87
617.00	1508.25
617.35	1500.63
617.70	1492.37
618.04	1483.99
618.39	1475.69
618.74	1468.19
619.08	1459.93
619.43	1452.25
619.78	1445.29
620.12	1438.10
620.47	1430.70
620.82	1422.58
621.16	1415.41
621.51	1407.82
621.85	1400.22
622.20	1391.59
622.55	1383.34
622.89	1375.54
623.24	1367.82
623.59	1360.46
623.93	1352.89
624.28	1345.71
624.62	1338.16
624.97	1331.01
625.32	1324.21
625.66	1317.20
626.01	1309.97
626.35	1302.49
626.70	1294.79
627.04	1287.00
627.39	1279.29
627.73	1271.88
628.08	1264.94
628.43	1257.45
628.77	1250.12
629.12	1242.61
629.46	1235.45
629.81	1227.94
630.15	1220.63
630.50	1213.22
630.84	1205.02
631.19	1197.14
631.53	1189.68
631.88	1182.09
632.22	1174.39
632.57	1167.09
632.91	1159.59
633.26	1152.14
633.60	1144.78
633.95	1137.76
634.29	1130.74
634.64	1123.94
634.98	1116.52
635.32	1109.39
635.67	1102.94
636.01	1096.24
636.36	1089.46
636.70	1083.03
637.05	1076.43
637.39	1069.99
637.73	1063.44
638.08	1057.49
638.42	1051.46
638.77	1045.00
639.11	1038.44
639.45	1032.03
639.80	1025.42
640.14	1018.85
640.49	1012.39
640.83	1006.03
641.17	999.62
641.52	993.27
641.86	986.89
642.20	981.02
642.55	974.69
642.89	968.12
643.23	961.65
643.58	955.73
643.92	949.44
644.26	943.44
644.61	937.46
644.95	931.47
645.29	924.89
645.64	918.15
645.98	911.77
646.32	906.00
646.66	900.06
647.01	894.15
647.35	888.48
647.69	882.58
648.04	877.17
648.38	871.38
648.72	865.35
649.06	859.25
649.41	853.34
649.75	847.37
650.09	841.40
650.43	835.60
650.78	829.49
651.12	823.56
651.46	817.85
651.80	812.07
652.14	806.69
652.49	801.40
652.83	796.29
653.17	790.53
653.51	784.72
653.85	779.34
654.20	773.76
654.54	767.84
654.88	762.15
655.22	756.18
655.56	750.54
655.90	745.19
656.25	739.95
656.59	734.63
656.93	729.58
657.27	724.48
657.61	719.07
657.95	713.99
658.29	708.95
658.64	703.72
658.98	698.49
659.32	693.06
659.66	687.82
660.00	682.43
660.34	677.60
660.68	672.69
661.02	667.59
661.36	662.88
661.70	658.41
662.05	654.07
662.39	649.79
662.73	645.36
663.07	640.99
663.41	636.58
663.75	632.05
664.09	627.48
664.43	623.13
664.77	619.01
665.11	614.80
665.45	610.64
665.79	606.48
666.13	602.33
666.47	598.26
666.81	594.05
667.15	590.00
667.49	586.14
667.83	582.40
668.17	578.51
668.51	574.49
668.85	570.42
669.19	566.57
669.53	562.71
669.87	558.88
670.21	555.21
670.55	551.55
670.89	548.18
671.23	544.83
671.57	541.30
671.91	537.79
672.25	534.27
672.58	530.76
672.92	527.41
673.26	524.28
673.60	521.08
673.94	517.97
674.28	515.06
674.62	512.12
674.96	508.95
675.30	506.00
675.64	503.06
675.97	500.33
676.31	497.45
676.65	494.53
676.99	491.76
677.33	488.86
677.67	486.02
678.01	483.03
678.34	479.97
678.68	477.07
679.02	474.23
679.36	471.41
679.70	468.70
680.04	465.93
680.37	462.98
680.71	460.19
681.05	457.63
681.39	454.91
681.73	452.18
682.06	449.65
682.40	447.12
682.74	444.56
683.08	441.93
683.42	439.33
683.75	436.86
684.09	434.36
684.43	431.86
684.77	429.38
685.10	427.01
685.44	424.68
685.78	422.37
686.12	420.12
686.45	417.87
686.79	415.53
687.13	413.34
687.46	411.21
687.80	409.09
688.14	406.86
688.48	404.79
688.81	402.57
689.15	400.45
689.49	398.30
689.82	396.24
690.16	394.17
690.50	392.24
690.83	390.31
691.17	388.31
691.51	386.45
691.84	384.67
692.18	382.68
692.52	380.71
692.85	378.78
693.19	376.90
693.52	375.09
693.86	373.32
694.20	371.54
694.53	369.74
694.87	367.92
695.21	366.13
695.54	364.30
695.88	362.53
696.21	360.84
696.55	359.18
696.88	357.48
697.22	355.85
697.56	354.22
697.89	352.57
698.23	351.01
698.56	349.39
698.90	347.77
699.23	346.19
699.57	344.65
699.90	343.13
700.24	341.59
700.58	340.03
700.91	338.49
701.25	337.08
701.58	335.73
701.92	334.34
702.25	332.99
702.59	331.63
702.92	330.35
703.26	329.03
703.59	327.74
703.93	326.55
704.26	325.29
704.60	323.99
704.93	322.71
705.26	321.45
705.60	320.27
705.93	319.15
706.27	318.12
706.60	317.05
706.94	315.98
707.27	314.84
707.61	313.83
707.94	312.86
708.27	311.78
708.61	310.70
708.94	309.70
709.28	308.70
709.61	307.75
709.94	306.81
710.28	305.82
710.61	304.83
710.95	303.78
711.28	302.94
711.61	302.04
711.95	301.14
712.28	300.18
712.61	299.22
712.95	298.33
713.28	297.44
713.61	296.57
713.95	295.68
714.28	294.85
714.61	293.99
714.95	293.11
715.28	292.26
715.61	291.36
715.95	290.48
716.28	289.66
716.61	288.84
716.95	287.97
717.28	287.23
717.61	286.48
717.94	285.72
718.28	284.89
718.61	284.15
718.94	283.41
719.27	282.76
719.61	282.08
719.94	281.38
720.27	280.66
720.60	279.99
720.94	279.36
721.27	278.75
721.60	278.14
721.93	277.58
722.27	277.03
722.60	276.47
722.93	275.94
723.26	275.39
723.59	274.79
723.93	274.28
724.26	273.73
724.59	273.14
724.92	272.64
725.25	272.11
725.59	271.60
725.92	271.09
726.25	270.58
726.58	270.07
726.91	269.57
727.24	269.09
727.57	268.65
727.91	268.14
728.24	267.69
728.57	267.19
728.90	266.73
729.23	266.20
729.56	265.77
729.89	265.26
730.22	264.78
730.55	264.36
730.89	263.89
731.22	263.40
731.55	262.98
731.88	262.55
732.21	262.14
732.54	261.69
732.87	261.29
733.20	260.87
733.53	260.49
733.86	260.09
734.19	259.67
734.52	259.26
734.85	258.96
735.18	258.55
735.51	258.19
735.84	257.79
736.17	257.43
736.50	257.03
736.83	256.81
737.16	256.46
737.49	256.12
737.82	255.75
738.15	255.44
738.48	255.10
738.81	254.78
739.14	254.42
739.47	254.10
739.80	253.79
740.13	253.49
740.46	253.15
740.79	252.83
741.12	252.57
741.45	252.24
741.78	251.87
742.11	251.58
742.44	251.31
742.77	251.04
743.10	250.73
743.43	250.46
743.75	250.08
744.08	249.95
744.41	249.65
744.74	249.41
745.07	249.15
745.40	248.88
745.73	248.64
746.06	248.39
746.39	248.10
746.71	247.84
747.04	247.58
747.37	247.34
747.70	247.13
748.03	246.86
748.36	246.68
748.68	246.45
749.01	246.19
749.34	245.96
749.67	245.77
750.00	245.58
750.33	245.42
750.65	245.19
750.98	244.84
751.31	244.62
751.64	244.44
751.97	244.22
752.29	244.01
752.62	243.76
752.95	243.55
753.28	243.37
753.60	243.16
753.93	242.99
754.26	242.81
754.59	242.56
754.91	242.37
755.24	242.17
755.57	241.99
755.90	241.83
756.22	241.62
756.55	241.37
756.88	241.17
757.20	240.94
757.53	240.78
757.86	240.62
758.19	240.46
758.51	240.28
758.84	240.08
759.17	239.93
759.49	239.80
759.82	239.70
760.15	239.58
760.47	239.45
760.80	239.26
761.13	239.11
761.45	238.96
761.78	238.81
762.11	238.66
762.43	238.50
762.76	238.33
763.08	238.19
763.41	238.11
763.74	237.98
764.06	237.85
764.39	237.68
764.71	237.53
765.04	237.41
765.37	237.25
765.69	237.11
766.02	236.96
766.34	236.82
766.67	236.64
767.00	236.52
767.32	236.44
767.65	236.37
767.97	236.24
768.30	236.13
768.62	236.03
768.95	235.89
769.27	235.77
769.60	235.67
769.92	235.57
770.25	235.40
770.57	235.25
770.90	235.14
771.22	235.05
771.55	234.96
771.87	234.84
772.20	234.75
772.52	234.79
772.85	234.81
773.17	234.72
773.50	234.61
773.82	234.46
774.15	234.29
774.47	234.16
774.80	234.06
775.12	233.98
775.45	233.88
775.77	233.79
776.09	233.74
776.42	233.66
776.74	233.64
777.07	233.56
777.39	233.51
777.72	233.41
778.04	233.33
778.36	233.25
778.69	233.22
779.01	233.15
779.33	232.98
779.66	232.81
779.98	232.71
780.31	232.67
780.63	232.66
780.95	232.62
781.28	232.55
781.60	232.50
781.92	232.44
782.25	232.40
782.57	232.33
782.89	232.24
783.22	232.14
783.54	232.05
783.86	232.01
784.19	231.94
784.51	231.91
784.83	231.88
785.16	231.83
785.48	231.78
785.80	231.76
786.12	231.68
786.45	231.65
786.77	231.63
787.09	231.58
787.42	231.49
787.74	231.43
788.06	231.39
788.38	231.35
788.71	231.28
789.03	231.23
789.35	231.22
789.67	231.18
789.99	231.15
790.32	231.07
790.64	231.06
790.96	231.13
791.28	231.08
791.61	231.03
791.93	230.98
792.25	230.94
792.57	230.98
792.89	230.93
793.21	230.88
793.54	230.82
793.86	230.76
794.18	230.75
794.50	230.71
794.82	230.70
795.14	230.68
795.47	230.66
795.79	230.60
796.11	230.53
796.43	230.50
796.75	230.48
797.07	230.48
797.39	230.43
797.71	230.33
798.04	230.32
798.36	230.28
798.68	230.25
799.00	230.21
799.32	230.11
799.64	230.08
799.96	230.04
800.28	230.03
800.60	230.03
800.92	230.00
801.24	229.97
801.56	229.94
801.89	229.91
802.21	229.91
802.53	229.84
802.85	229.83
803.17	229.85
803.49	229.80
803.81	229.75
804.13	229.71
804.45	229.64
804.77	229.60
805.09	229.59
805.41	229.54
805.73	229.48
806.05	229.41
806.37	229.39
806.69	229.39
807.01	229.37
807.33	229.34
807.65	229.31
807.97	229.31
808.28	229.27
808.60	229.23
808.92	229.17
809.24	229.22
809.56	229.20
809.88	229.16
810.20	229.14
810.52	229.14
810.84	229.10
811.16	229.05
811.48	229.02
811.80	229.04
812.12	229.02
812.43	229.06
812.75	229.05
813.07	229.02
813.39	228.97
813.71	228.92
814.03	228.86
814.35	228.83
814.67	228.79
814.98	228.75
815.30	228.72
815.62	228.68
815.94	228.62
816.26	228.61
816.58	228.56
816.89	228.54
817.21	228.49
817.53	228.47
817.85	228.49
818.17	228.50
818.48	228.40
818.80	228.39
819.12	228.33
819.44	228.34
819.76	228.29
820.07	228.30
820.39	228.29
820.71	228.29
821.03	228.27
821.34	228.24
821.66	228.24
821.98	228.25
822.30	228.27
822.61	228.33
822.93	228.29
823.25	228.29
823.57	228.27
823.88	228.28
824.20	228.28
824.52	228.27
824.83	228.24
825.15	228.24
825.47	228.23
825.79	228.26
826.10	228.20
826.42	228.21
826.74	228.19
827.05	228.17
827.37	228.15
827.69	228.14
828.00	228.17
828.32	228.17
828.64	228.15
828.95	228.17
829.27	228.13
829.58	228.15
829.90	228.16
830.22	228.18
830.53	228.16
830.85	228.15
831.17	228.14
831.48	228.13
831.80	228.16
832.11	228.15
832.43	228.12
832.75	228.14
833.06	228.20
833.38	228.15
833.69	228.15
834.01	228.15
834.32	228.17
834.64	228.14
834.96	228.12
835.27	228.11
835.59	228.07
835.90	228.04
836.22	228.03
836.53	228.00
836.85	227.97
837.16	228.05
837.48	228.03
837.79	228.01
838.11	228.04
838.42	228.04
838.74	228.03
839.05	228.00
839.37	227.97
839.68	227.87
840.00	227.88
840.31	227.89
840.63	227.87
840.94	227.83
841.26	227.78
841.57	227.78
841.88	227.75
842.20	227.73
842.51	227.71
842.83	227.68
843.14	227.77
843.46	227.75
843.77	227.67
844.08	227.64
844.40	227.61
844.71	227.56
845.03	227.51
845.34	227.53
845.65	227.53
845.97	227.52
846.28	227.55
846.60	227.56
846.91	227.52
847.22	227.55
847.54	227.59
847.85	227.62
848.16	227.61
848.48	227.59
848.79	227.63
849.10	227.65
849.42	227.63
849.73	227.53
850.04	227.51
850.36	227.49
850.67	227.53
850.98	227.51
851.30	227.52
851.61	227.50
851.92	227.45
852.23	227.47
852.55	227.47
852.86	227.47
853.17	227.47
853.49	227.50
853.80	227.47
854.11	227.47
854.42	227.45
854.74	227.43
855.05	227.45
855.36	227.40
855.67	227.36
855.99	227.39
856.30	227.50
856.61	227.51
856.92	227.52
857.23	227.49
857.55	227.49
857.86	227.50
858.17	227.55
858.48	227.54
858.79	227.56
859.11	227.55
859.42	227.54
859.73	227.52
860.04	227.52
860.35	227.48
860.66	227.45
860.98	227.43
861.29	227.45
861.60	227.44
861.91	227.47
862.22	227.46
862.53	227.43
862.84	227.32
863.16	227.31
863.47	227.31
863.78	227.29
864.09	227.28
864.40	227.26
864.71	227.23
865.02	227.24
865.33	227.21
865.64	227.21
865.95	227.21
866.27	227.29
866.58	227.28
866.89	227.31
867.20	227.32
867.51	227.33
867.82	227.32
868.13	227.28
868.44	227.26
868.75	227.30
869.06	227.30
869.37	227.31
869.68	227.29
869.99	227.30
870.30	227.33
870.61	227.33
870.92	227.34
871.23	227.30
871.54	227.32
871.85	227.32
872.16	227.33
872.47	227.34
872.78	227.26
873.09	227.23
873.40	227.23
873.71	227.21
874.02	227.20
874.33	227.21
874.64	227.26
874.95	227.27
875.26	227.23
875.56	227.21
875.87	227.19
876.18	227.20
876.49	227.29
876.80	227.29
877.11	227.31
877.42	227.30
877.73	227.36
878.04	227.35
878.35	227.35
878.66	227.33
878.96	227.33
879.27	227.35
879.58	227.38
879.89	227.39
880.20	227.40
880.51	227.39
880.82	227.35
881.12	227.32
881.43	227.32
881.74	227.33
882.05	227.36
882.36	227.40
882.67	227.40
882.97	227.28
883.28	227.27
883.59	227.26
883.90	227.28
884.21	227.27
884.51	227.25
884.82	227.25
885.13	227.28
885.44	227.29
885.74	227.28
886.05	227.26
886.36	227.25
886.67	227.26
886.98	227.33
887.28	227.38
887.59	227.38
887.90	227.37
888.20	227.36
888.51	227.38
888.82	227.34
889.13	227.34
889.43	227.43
889.74	227.39
890.05	227.38
890.35	227.38
890.66	227.37
890.97	227.34
891.28	227.32
891.58	227.30
891.89	227.28
892.20	227.23
892.50	227.21
892.81	227.22
893.12	227.19
893.42	227.15
893.73	227.13
894.04	227.12
894.34	227.10
894.65	227.08
894.95	227.03
895.26	227.02
895.57	227.07
895.87	226.98
896.18	227.02
896.48	227.02
896.79	227.01
897.10	226.99
897.40	227.03
897.71	227.03
898.01	227.02
898.32	227.01
898.63	227.03
898.93	227.05
899.24	227.05
899.54	227.04
899.85	227.03
900.15	227.03
900.46	227.01
900.76	227.01
901.07	227.03
901.38	227.05
901.68	227.06
901.99	227.01
902.29	227.01
902.60	227.00
902.90	227.01
903.21	227.00
903.51	227.02
903.82	226.99
904.12	226.97
904.43	226.97
904.73	227.02
905.03	227.03
905.34	227.10
905.64	227.10
905.95	227.08
906.25	227.09
906.56	227.07
906.86	227.09
907.17	227.11
907.47	227.10
907.77	227.08
908.08	227.06
908.38	227.05
908.69	227.03
908.99	227.04
909.30	227.02
909.60	227.00
909.90	226.99
910.21	227.02
910.51	227.01
910.81	226.99
911.12	226.94
911.42	226.92
911.73	226.85
912.03	226.86
912.33	226.88
912.64	226.85
912.94	226.85
913.24	226.85
913.55	226.84
913.85	226.80
914.15	226.83
914.46	226.84
914.76	226.83
915.06	226.83
915.37	226.84
915.67	226.85
915.97	226.85
916.27	226.85
916.58	226.82
916.88	226.84
917.18	226.85
917.49	226.91
917.79	226.89
918.09	226.88
918.39	226.88
918.70	226.90
919.00	226.90
919.30	226.97
919.60	226.95
919.91	226.93
920.21	226.96
920.51	226.95
920.81	226.95
921.12	226.99
921.42	227.00
921.72	226.95
922.02	226.97
922.32	226.97
922.63	226.95
922.93	226.98
923.23	226.97
923.53	226.96
923.83	226.91
924.13	226.96
924.44	226.97
924.74	227.00
925.04	227.01
925.34	227.02
925.64	226.95
925.94	226.97
926.24	227.03
926.55	227.02
926.85	227.03
927.15	227.03
927.45	227.03
927.75	227.04
928.05	227.05
928.35	227.07
928.65	227.08
928.95	227.07
929.26	227.05
929.56	227.07
929.86	227.07
930.16	227.08
930.46	227.05
930.76	227.07
931.06	227.00
931.36	226.93
931.66	226.96
931.96	227.00
932.26	226.98
932.56	226.94
932.86	226.94
933.16	226.93
933.46	226.89
933.76	226.85
934.06	226.87
934.36	226.95
934.66	226.89
934.96	226.91
935.26	226.93
935.56	226.94
935.86	226.91
936.16	226.93
936.46	226.94
936.76	226.94
937.06	226.91
937.36	226.94
937.66	226.97
937.96	226.91
938.26	226.82
938.56	226.83
938.86	226.79
939.16	226.81
939.46	226.81
939.76	226.84
940.06	226.85
940.35	226.80
940.65	226.72
940.95	226.74
941.25	226.75
941.55	226.72
941.85	226.71
942.15	226.72
942.45	226.71
942.75	226.72
943.04	226.74
943.34	226.75
943.64	226.73
943.94	226.70
944.24	226.75
944.54	226.80
944.84	226.82
945.13	226.81
945.43	226.79
945.73	226.81
946.03	226.80
946.33	226.79
946.62	226.82
946.92	226.79
947.22	226.79
947.52	226.79
947.82	226.81
948.11	226.79
948.41	226.80
948.71	226.77
949.01	226.74
949.31	226.71
949.60	226.67
949.90	226.71
950.20	226.73
950.50	226.73
950.79	226.72
951.09	226.74
951.39	226.78
951.69	226.77
951.98	226.77
952.28	226.78
952.58	226.77
952.87	226.76
953.17	226.82
953.47	226.80
953.76	226.80
954.06	226.80
954.36	226.79
954.66	226.78
954.95	226.83
955.25	226.86
955.55	226.89
955.84	226.89
956.14	226.86
956.44	226.88
956.73	226.86
957.03	226.88
957.32	226.88
957.62	226.83
957.92	226.86
958.21	226.83
958.51	226.92
958.81	226.95
959.10	226.96
959.40	226.97
959.69	226.97
959.99	226.97
960.29	226.94
960.58	226.95
960.88	226.98
961.17	226.95
961.47	226.96
961.76	226.98
962.06	227.00
962.36	227.01
962.65	227.00
962.95	227.01
963.24	226.99
963.54	226.97
963.83	227.02
964.13	226.99
964.42	226.97
964.72	226.89
965.01	226.88
965.31	226.90
965.60	226.87
965.90	226.91
966.19	226.90
966.49	226.89
966.78	226.89
967.08	226.90
967.37	226.89
967.67	226.82
967.96	226.82
968.26	226.80
968.55	226.80
968.85	226.78
969.14	226.77
969.43	226.78
969.73	226.76
970.02	226.75
970.32	226.74
970.61	226.73
970.91	226.71
971.20	226.69
971.49	226.66
971.79	226.64
972.08	226.59
972.38	226.59
972.67	226.60
972.96	226.60
973.26	226.56
973.55	226.61
973.85	226.61
974.14	226.60
974.43	226.62
974.73	226.59
975.02	226.63
975.31	226.60
975.61	226.57
975.90	226.55
976.19	226.53
976.49	226.57
976.78	226.58
977.07	226.60
977.37	226.61
977.66	226.59
977.95	226.59
978.24	226.63
978.54	226.67
978.83	226.68
979.12	226.70
979.42	226.73
979.71	226.72
980.00	226.74
980.29	226.77
980.59	226.76
980.88	226.79
981.17	226.78
981.46	226.80
981.76	226.78
982.05	226.85
982.34	226.88
982.63	226.86
982.93	226.90
983.22	226.90
983.51	226.93
983.80	226.99
984.09	226.99
984.39	226.95
984.68	226.92
984.97	226.93
985.26	226.94
985.55	226.95
985.85	226.91
986.14	226.92
986.43	226.88
986.72	226.86
987.01	226.83
987.30	226.83
987.59	226.81
987.89	226.82
988.18	226.77
988.47	226.77
988.76	226.78
989.05	226.76
989.34	226.76
989.63	226.78
989.92	226.70
990.22	226.71
990.51	226.73
990.80	226.73
991.09	226.72
991.38	226.70
991.67	226.69
991.96	226.71
992.25	226.71
992.54	226.73
992.83	226.74
993.12	226.76
993.41	226.75
993.70	226.79
993.99	226.81
994.28	226.85
994.58	226.84
994.87	226.83
995.16	226.83
995.45	226.81
995.74	226.75
996.03	226.79
996.32	226.78
996.61	226.79
996.90	226.78
997.19	226.78
997.48	226.78
997.77	226.77
998.06	226.78
998.34	226.77
998.63	226.78
998.92	226.79
999.21	226.78
999.50	226.79
999.79	226.77
1000.08	226.78
1000.37	226.78
1000.66	226.78
1000.95	226.79
1001.24	226.82
1001.53	226.82
1001.82	226.82
1002.11	226.82
1002.40	226.83
1002.68	226.88
1002.97	226.91
1003.26	226.90
1003.55	226.88
1003.84	226.88
1004.13	226.88
1004.42	226.87
1004.71	226.85
1004.99	226.84
1005.28	226.86
1005.57	226.87
1005.86	226.85
1006.15	226.81
1006.44	226.76
1006.72	226.78
1007.01	226.75
1007.30	226.75
1007.59	226.74
1007.88	226.72
1008.17	226.73
1008.45	226.69
1008.74	226.60
1009.03	226.59
1009.32	226.60
1009.60	226.59
1009.89	226.56
1010.18	226.52
1010.47	226.53
1010.76	226.52
1011.04	226.50
1011.33	226.52
1011.62	226.50
1011.91	226.50
1012.19	226.50
1012.48	226.51
1012.77	226.52
1013.05	226.59
1013.34	226.58
1013.63	226.58
1013.92	226.60
1014.20	226.56
1014.49	226.58
1014.78	226.63
1015.06	226.57
1015.35	226.57
1015.64	226.58
1015.92	226.60
1016.21	226.63
1016.50	226.63
1016.78	226.62
1017.07	226.64
1017.36	226.58
1017.64	226.61
1017.93	226.64
1018.22	226.64
1018.50	226.62
1018.79	226.60
1019.08	226.54
1019.36	226.53
1019.65	226.53
1019.93	226.53
1020.22	226.54
1020.51	226.60
1020.79	226.56
1021.08	226.30
1021.36	226.06
1021.65	226.78
1021.94	226.70
1022.22	226.54
1022.51	226.19
1022.79	226.64
1023.08	226.41
1023.36	227.63
1023.65	225.99
>>>>>End Processed Spectral Data<<<<<
