SpectraSuite Data File
++++++++++++++++++++++++++++++++++++
Date: Fri Feb 01 17:10:12 EST 2013
User: group
Dark Spectrum Present: No
Reference Spectrum Present: No
Number of Sampled Component Spectra: 1
Spectrometers: USB2E7196
Integration Time (usec): 35000 (USB2E7196)
Spectra Averaged: 100 (USB2E7196)
Boxcar Smoothing: 10 (USB2E7196)
Correct for Electrical Dark: No (USB2E7196)
Strobe/Lamp Enabled: No (USB2E7196)
Correct for Detector Non-linearity: No (USB2E7196)
Correct for Stray Light: No (USB2E7196)
Number of Pixels in Processed Spectrum: 2048
>>>>>Begin Processed Spectral Data<<<<<
339.09	0.00
339.48	213.62
339.86	214.73
340.24	215.82
340.63	217.27
341.01	220.01
341.39	221.25
341.78	221.70
342.16	222.70
342.54	223.99
342.93	211.90
343.31	222.57
343.69	223.10
344.07	223.60
344.46	224.06
344.84	224.45
345.22	224.71
345.60	224.91
345.99	225.09
346.37	225.23
346.75	225.32
347.13	225.43
347.52	225.49
347.90	225.56
348.28	225.54
348.66	225.57
349.05	225.53
349.43	225.52
349.81	225.56
350.19	225.55
350.57	225.61
350.96	225.65
351.34	225.76
351.72	225.84
352.10	225.91
352.48	225.98
352.87	226.03
353.25	226.11
353.63	226.17
354.01	226.22
354.39	226.28
354.77	226.31
355.15	226.38
355.54	226.42
355.92	226.48
356.30	226.56
356.68	226.70
357.06	226.78
357.44	226.82
357.82	226.88
358.20	226.97
358.58	227.02
358.97	227.09
359.35	227.17
359.73	227.26
360.11	227.29
360.49	227.31
360.87	227.35
361.25	227.38
361.63	227.43
362.01	227.47
362.39	227.50
362.77	227.52
363.15	227.51
363.53	227.55
363.91	227.58
364.29	227.61
364.67	227.51
365.05	227.53
365.43	227.55
365.81	227.60
366.19	227.62
366.57	227.67
366.95	227.65
367.33	227.59
367.71	227.55
368.09	227.57
368.47	227.56
368.85	227.55
369.23	227.51
369.61	227.44
369.99	227.44
370.37	227.42
370.75	227.47
371.13	227.41
371.51	227.36
371.89	227.31
372.27	227.29
372.65	227.26
373.03	227.18
373.41	227.11
373.78	227.03
374.16	226.95
374.54	226.86
374.92	226.77
375.30	226.74
375.68	226.66
376.06	226.61
376.44	226.51
376.82	226.43
377.19	226.41
377.57	226.37
377.95	226.27
378.33	226.20
378.71	226.09
379.09	226.05
379.47	226.03
379.84	225.96
380.22	225.91
380.60	225.82
380.98	225.80
381.36	225.74
381.73	225.68
382.11	225.62
382.49	225.57
382.87	225.54
383.25	225.49
383.62	225.53
384.00	225.44
384.38	225.42
384.76	225.39
385.13	225.37
385.51	225.32
385.89	225.30
386.27	225.29
386.64	225.27
387.02	225.25
387.40	225.19
387.78	225.15
388.15	225.09
388.53	225.11
388.91	225.06
389.29	225.04
389.66	225.03
390.04	225.00
390.42	224.99
390.79	224.96
391.17	224.93
391.55	224.83
391.92	224.86
392.30	224.89
392.68	224.87
393.05	224.89
393.43	224.91
393.81	224.91
394.18	224.88
394.56	224.87
394.94	224.92
395.31	224.92
395.69	225.01
396.06	225.04
396.44	225.06
396.82	225.09
397.19	225.18
397.57	225.21
397.95	225.26
398.32	225.27
398.70	225.36
399.07	225.44
399.45	225.49
399.82	225.53
400.20	225.57
400.58	225.62
400.95	225.63
401.33	225.73
401.70	225.85
402.08	225.94
402.45	226.02
402.83	226.09
403.20	226.21
403.58	226.29
403.95	226.42
404.33	226.56
404.71	226.69
405.08	226.82
405.46	226.95
405.83	227.09
406.21	227.25
406.58	227.36
406.96	227.50
407.33	227.68
407.70	227.87
408.08	228.12
408.45	228.33
408.83	228.58
409.20	228.77
409.58	228.98
409.95	229.28
410.33	229.54
410.70	229.77
411.08	230.07
411.45	230.34
411.82	230.59
412.20	230.92
412.57	231.33
412.95	231.63
413.32	232.00
413.69	232.39
414.07	232.81
414.44	233.29
414.82	233.78
415.19	234.32
415.56	234.86
415.94	235.39
416.31	236.03
416.68	236.61
417.06	237.32
417.43	237.96
417.81	238.67
418.18	239.42
418.55	240.26
418.93	241.11
419.30	242.02
419.67	242.97
420.04	243.93
420.42	244.92
420.79	246.11
421.16	247.26
421.54	248.46
421.91	249.69
422.28	250.94
422.66	252.24
423.03	253.56
423.40	254.90
423.77	256.32
424.15	257.73
424.52	259.25
424.89	260.89
425.26	262.45
425.64	263.91
426.01	265.52
426.38	267.18
426.75	268.86
427.13	270.55
427.50	272.38
427.87	274.27
428.24	276.13
428.61	277.87
428.99	279.83
429.36	281.90
429.73	283.92
430.10	285.95
430.47	288.02
430.85	290.12
431.22	292.34
431.59	294.70
431.96	296.96
432.33	299.44
432.70	301.77
433.08	304.59
433.45	307.23
433.82	309.85
434.19	312.74
434.56	315.50
434.93	318.13
435.30	320.74
435.68	323.58
436.05	326.40
436.42	329.21
436.79	331.73
437.16	334.45
437.53	337.32
437.90	340.14
438.27	342.87
438.64	345.73
439.01	348.36
439.38	350.59
439.75	352.75
440.13	355.23
440.50	357.59
440.87	359.40
441.24	361.36
441.61	363.51
441.98	365.01
442.35	366.86
442.72	368.76
443.09	370.62
443.46	371.64
443.83	372.24
444.20	372.75
444.57	373.59
444.94	373.89
445.31	374.22
445.68	374.59
446.05	374.73
446.42	374.30
446.79	373.86
447.16	373.44
447.53	373.17
447.90	372.04
448.27	370.87
448.64	369.31
449.01	368.15
449.37	366.19
449.74	364.29
450.11	362.08
450.48	359.62
450.85	357.05
451.22	354.88
451.59	352.86
451.96	350.94
452.33	348.35
452.70	345.96
453.07	343.15
453.43	340.22
453.80	337.43
454.17	334.78
454.54	332.26
454.91	329.54
455.28	326.81
455.65	324.30
456.02	321.85
456.38	319.73
456.75	317.09
457.12	314.84
457.49	312.66
457.86	310.47
458.23	308.63
458.59	306.61
458.96	304.57
459.33	302.71
459.70	300.83
460.07	299.33
460.43	297.64
460.80	296.01
461.17	294.60
461.54	293.11
461.91	291.70
462.27	290.26
462.64	289.00
463.01	287.68
463.38	286.40
463.74	285.04
464.11	283.88
464.48	282.86
464.85	281.76
465.21	280.87
465.58	279.94
465.95	278.84
466.32	277.95
466.68	277.06
467.05	276.13
467.42	275.27
467.78	274.32
468.15	273.49
468.52	272.83
468.88	271.98
469.25	271.21
469.62	270.58
469.98	269.90
470.35	269.28
470.72	268.68
471.08	268.00
471.45	267.49
471.82	266.94
472.18	266.38
472.55	265.95
472.92	265.46
473.28	264.98
473.65	264.54
474.02	264.12
474.38	263.76
474.75	263.47
475.11	263.13
475.48	262.90
475.85	262.68
476.21	262.45
476.58	262.27
476.94	262.16
477.31	262.01
477.67	261.87
478.04	261.77
478.41	261.73
478.77	261.82
479.14	261.76
479.50	261.79
479.87	261.86
480.23	261.91
480.60	261.96
480.96	262.09
481.33	262.40
481.69	262.60
482.06	262.79
482.42	263.00
482.79	263.29
483.15	263.59
483.52	263.97
483.88	264.31
484.25	264.70
484.61	265.12
484.98	265.60
485.34	266.20
485.71	266.78
486.07	267.39
486.44	267.94
486.80	268.65
487.17	269.40
487.53	270.22
487.90	271.11
488.26	272.06
488.62	273.02
488.99	273.91
489.35	274.94
489.72	276.07
490.08	277.28
490.44	278.52
490.81	279.85
491.17	281.19
491.54	282.69
491.90	284.22
492.26	285.85
492.63	287.58
492.99	289.34
493.36	291.24
493.72	293.32
494.08	295.43
494.45	297.65
494.81	300.00
495.17	302.42
495.54	304.98
495.90	307.63
496.26	310.47
496.63	313.44
496.99	316.54
497.35	319.77
497.72	323.18
498.08	326.67
498.44	330.34
498.80	334.31
499.17	338.29
499.53	342.44
499.89	346.79
500.26	351.23
500.62	355.89
500.98	360.81
501.34	365.81
501.71	371.06
502.07	376.48
502.43	382.04
502.79	387.81
503.16	393.79
503.52	399.98
503.88	406.30
504.24	412.88
504.60	419.65
504.97	426.72
505.33	433.98
505.69	441.59
506.05	449.28
506.41	457.01
506.78	465.08
507.14	473.49
507.50	482.13
507.86	491.07
508.22	500.18
508.59	509.32
508.95	518.77
509.31	528.56
509.67	538.48
510.03	548.63
510.39	559.05
510.75	569.79
511.12	580.62
511.48	591.75
511.84	603.08
512.20	614.47
512.56	626.22
512.92	638.13
513.28	650.42
513.64	662.66
514.00	675.19
514.37	688.02
514.73	700.81
515.09	713.61
515.45	726.66
515.81	739.99
516.17	753.62
516.53	767.53
516.89	781.46
517.25	795.44
517.61	809.68
517.97	823.86
518.33	837.97
518.69	852.43
519.05	867.21
519.41	882.03
519.77	897.21
520.13	912.32
520.49	927.51
520.85	942.52
521.21	957.86
521.57	973.72
521.93	989.09
522.29	1005.12
522.65	1021.11
523.01	1037.03
523.37	1052.82
523.73	1068.77
524.09	1084.50
524.45	1100.49
524.81	1116.80
525.17	1133.20
525.53	1149.69
525.89	1166.26
526.25	1182.75
526.61	1198.73
526.97	1215.15
527.33	1231.33
527.68	1247.57
528.04	1263.61
528.40	1279.69
528.76	1296.53
529.12	1312.78
529.48	1329.42
529.84	1345.14
530.20	1361.42
530.56	1377.94
530.91	1394.90
531.27	1411.35
531.63	1427.49
531.99	1443.64
532.35	1459.23
532.71	1474.79
533.07	1490.75
533.42	1506.44
533.78	1522.27
534.14	1538.20
534.50	1553.18
534.86	1568.76
535.21	1583.66
535.57	1599.23
535.93	1614.52
536.29	1628.95
536.65	1643.64
537.00	1657.84
537.36	1672.76
537.72	1686.81
538.08	1700.98
538.44	1714.34
538.79	1727.78
539.15	1741.06
539.51	1754.48
539.87	1768.49
540.22	1781.82
540.58	1795.07
540.94	1807.89
541.29	1820.27
541.65	1832.64
542.01	1845.58
542.37	1857.62
542.72	1869.78
543.08	1881.32
543.44	1893.29
543.79	1904.36
544.15	1915.19
544.51	1926.61
544.87	1937.35
545.22	1948.08
545.58	1958.10
545.94	1967.71
546.29	1977.45
546.65	1987.15
547.01	1996.18
547.36	2004.76
547.72	2013.19
548.07	2021.23
548.43	2029.26
548.79	2037.35
549.14	2044.97
549.50	2052.08
549.86	2059.48
550.21	2066.72
550.57	2073.86
550.92	2080.60
551.28	2087.36
551.64	2094.46
551.99	2100.95
552.35	2107.17
552.70	2113.22
553.06	2119.26
553.41	2125.66
553.77	2131.88
554.13	2137.80
554.48	2143.92
554.84	2149.62
555.19	2154.76
555.55	2159.84
555.90	2164.41
556.26	2169.36
556.61	2173.89
556.97	2178.53
557.32	2182.92
557.68	2187.15
558.03	2191.45
558.39	2195.19
558.74	2200.04
559.10	2203.87
559.45	2207.61
559.81	2211.86
560.16	2215.87
560.52	2219.34
560.87	2222.83
561.23	2225.54
561.58	2228.72
561.94	2231.40
562.29	2233.65
562.64	2236.70
563.00	2239.38
563.35	2243.00
563.71	2246.21
564.06	2249.62
564.42	2252.61
564.77	2255.32
565.12	2257.88
565.48	2260.05
565.83	2262.27
566.19	2263.86
566.54	2264.88
566.89	2266.27
567.25	2267.12
567.60	2268.58
567.96	2270.48
568.31	2271.57
568.66	2272.88
569.02	2273.70
569.37	2274.31
569.72	2275.62
570.08	2275.92
570.43	2276.17
570.78	2275.94
571.14	2274.53
571.49	2273.45
571.84	2273.24
572.20	2272.33
572.55	2271.42
572.90	2269.94
573.26	2268.69
573.61	2266.97
573.96	2265.62
574.31	2262.88
574.67	2260.18
575.02	2256.83
575.37	2253.44
575.72	2250.06
576.08	2246.85
576.43	2243.72
576.78	2240.45
577.13	2237.35
577.49	2234.45
577.84	2231.29
578.19	2227.65
578.54	2224.36
578.90	2220.40
579.25	2215.15
579.60	2210.51
579.95	2205.68
580.30	2200.98
580.66	2196.00
581.01	2191.30
581.36	2186.63
581.71	2182.91
582.06	2178.85
582.42	2174.74
582.77	2169.91
583.12	2165.52
583.47	2161.22
583.82	2156.60
584.17	2151.51
584.53	2146.36
584.88	2140.94
585.23	2135.47
585.58	2130.29
585.93	2125.19
586.28	2120.59
586.63	2115.68
586.98	2110.73
587.34	2106.30
587.69	2101.58
588.04	2096.59
588.39	2091.36
588.74	2084.99
589.09	2078.87
589.44	2072.17
589.79	2066.24
590.14	2060.87
590.49	2054.34
590.84	2048.03
591.19	2042.12
591.54	2035.98
591.89	2028.83
592.25	2022.40
592.60	2015.36
592.95	2008.06
593.30	2000.88
593.65	1993.50
594.00	1986.70
594.35	1979.66
594.70	1971.71
595.05	1964.89
595.40	1957.79
595.75	1950.51
596.10	1944.76
596.45	1938.23
596.80	1932.28
597.15	1925.92
597.50	1919.00
597.85	1912.69
598.19	1906.22
598.54	1899.40
598.89	1892.80
599.24	1886.90
599.59	1880.41
599.94	1874.37
600.29	1868.13
600.64	1861.58
600.99	1854.35
601.34	1847.52
601.69	1840.57
602.04	1833.99
602.39	1826.71
602.74	1820.13
603.08	1813.49
603.43	1806.79
603.78	1799.66
604.13	1792.50
604.48	1785.32
604.83	1778.61
605.18	1772.02
605.53	1764.04
605.87	1756.01
606.22	1748.83
606.57	1741.05
606.92	1733.55
607.27	1726.49
607.62	1719.66
607.96	1712.62
608.31	1706.10
608.66	1698.74
609.01	1691.42
609.36	1683.96
609.70	1676.04
610.05	1667.89
610.40	1660.17
610.75	1651.74
611.10	1644.01
611.44	1635.62
611.79	1627.58
612.14	1618.90
612.49	1609.63
612.83	1601.48
613.18	1593.49
613.53	1585.46
613.88	1577.00
614.22	1568.90
614.57	1560.25
614.92	1552.22
615.27	1544.66
615.61	1536.43
615.96	1528.41
616.31	1520.77
616.65	1513.41
617.00	1505.83
617.35	1498.17
617.70	1489.99
618.04	1481.60
618.39	1473.37
618.74	1465.84
619.08	1457.63
619.43	1449.97
619.78	1443.15
620.12	1435.87
620.47	1428.28
620.82	1420.03
621.16	1412.49
621.51	1404.92
621.85	1397.31
622.20	1388.87
622.55	1380.47
622.89	1372.67
623.24	1364.94
623.59	1357.48
623.93	1350.01
624.28	1342.72
624.62	1335.38
624.97	1328.20
625.32	1321.40
625.66	1314.51
626.01	1307.43
626.35	1300.04
626.70	1292.38
627.04	1284.61
627.39	1276.81
627.73	1269.50
628.08	1262.78
628.43	1255.63
628.77	1248.24
629.12	1240.70
629.46	1233.64
629.81	1226.19
630.15	1218.82
630.50	1211.50
630.84	1203.44
631.19	1195.46
631.53	1188.03
631.88	1180.40
632.22	1172.80
632.57	1165.47
632.91	1157.94
633.26	1150.45
633.60	1143.00
633.95	1135.82
634.29	1128.73
634.64	1122.18
634.98	1114.88
635.32	1107.61
635.67	1100.94
636.01	1094.39
636.36	1087.70
636.70	1081.07
637.05	1074.52
637.39	1068.18
637.73	1061.74
638.08	1055.91
638.42	1049.90
638.77	1043.56
639.11	1036.95
639.45	1030.56
639.80	1023.98
640.14	1017.56
640.49	1011.19
640.83	1004.96
641.17	998.75
641.52	992.46
641.86	985.85
642.20	980.02
642.55	973.71
642.89	967.33
643.23	960.71
643.58	954.93
643.92	948.79
644.26	942.82
644.61	936.67
644.95	930.62
645.29	924.01
645.64	917.33
645.98	910.97
646.32	905.12
646.66	899.06
647.01	893.27
647.35	887.56
647.69	881.62
648.04	876.06
648.38	870.27
648.72	864.35
649.06	858.44
649.41	852.52
649.75	846.64
650.09	840.73
650.43	834.99
650.78	828.80
651.12	822.81
651.46	817.10
651.80	811.50
652.14	806.16
652.49	800.79
652.83	795.59
653.17	789.97
653.51	784.40
653.85	779.07
654.20	773.49
654.54	767.54
654.88	761.82
655.22	755.91
655.56	750.26
655.90	744.79
656.25	739.54
656.59	734.19
656.93	729.09
657.27	723.98
657.61	718.57
657.95	713.54
658.29	708.47
658.64	703.17
658.98	697.83
659.32	692.34
659.66	687.12
660.00	681.93
660.34	676.94
660.68	671.96
661.02	666.92
661.36	662.16
661.70	657.69
662.05	653.34
662.39	649.08
662.73	644.68
663.07	640.33
663.41	635.88
663.75	631.43
664.09	626.86
664.43	622.44
664.77	618.35
665.11	614.14
665.45	609.98
665.79	605.88
666.13	601.77
666.47	597.72
666.81	593.57
667.15	589.32
667.49	585.47
667.83	581.64
668.17	577.70
668.51	573.71
668.85	569.64
669.19	565.81
669.53	561.96
669.87	558.06
670.21	554.35
670.55	550.75
670.89	547.31
671.23	543.92
671.57	540.35
671.91	536.77
672.25	533.22
672.58	529.77
672.92	526.38
673.26	523.20
673.60	520.02
673.94	516.96
674.28	514.05
674.62	511.02
674.96	507.91
675.30	505.06
675.64	502.14
675.97	499.40
676.31	496.49
676.65	493.53
676.99	490.82
677.33	487.97
677.67	485.11
678.01	482.04
678.34	479.02
678.68	476.22
679.02	473.43
679.36	470.65
679.70	467.89
680.04	465.20
680.37	462.35
680.71	459.55
681.05	456.87
681.39	454.22
681.73	451.58
682.06	449.06
682.40	446.47
682.74	443.88
683.08	441.25
683.42	438.70
683.75	436.25
684.09	433.63
684.43	431.15
684.77	428.68
685.10	426.38
685.44	424.12
685.78	421.79
686.12	419.49
686.45	417.19
686.79	414.90
687.13	412.66
687.46	410.48
687.80	408.29
688.14	406.10
688.48	404.02
688.81	401.76
689.15	399.58
689.49	397.40
689.82	395.36
690.16	393.29
690.50	391.34
690.83	389.38
691.17	387.47
691.51	385.57
691.84	383.75
692.18	381.80
692.52	379.82
692.85	377.86
693.19	375.99
693.52	374.18
693.86	372.38
694.20	370.55
694.53	368.76
694.87	366.94
695.21	365.16
695.54	363.32
695.88	361.58
696.21	359.85
696.55	358.20
696.88	356.53
697.22	354.83
697.56	353.17
697.89	351.55
698.23	349.95
698.56	348.34
698.90	346.75
699.23	345.12
699.57	343.62
699.90	342.09
700.24	340.54
700.58	339.01
700.91	337.54
701.25	336.17
701.58	334.77
701.92	333.46
702.25	332.07
702.59	330.73
702.92	329.44
703.26	328.15
703.59	326.90
703.93	325.67
704.26	324.46
704.60	323.15
704.93	321.88
705.26	320.65
705.60	319.47
705.93	318.27
706.27	317.24
706.60	316.17
706.94	315.08
707.27	314.03
707.61	312.97
707.94	311.93
708.27	310.82
708.61	309.78
708.94	308.75
709.28	307.77
709.61	306.82
709.94	305.90
710.28	304.89
710.61	303.86
710.95	302.78
711.28	301.86
711.61	300.92
711.95	299.97
712.28	298.98
712.61	298.00
712.95	297.06
713.28	296.16
713.61	295.22
713.95	294.36
714.28	293.51
714.61	292.64
714.95	291.79
715.28	290.89
715.61	290.00
715.95	289.14
716.28	288.30
716.61	287.43
716.95	286.56
717.28	285.83
717.61	285.08
717.94	284.37
718.28	283.56
718.61	282.84
718.94	282.16
719.27	281.55
719.61	280.87
719.94	280.22
720.27	279.50
720.60	278.80
720.94	278.12
721.27	277.47
721.60	276.89
721.93	276.28
722.27	275.73
722.60	275.14
722.93	274.52
723.26	273.99
723.59	273.40
723.93	272.87
724.26	272.28
724.59	271.67
724.92	271.11
725.25	270.61
725.59	270.06
725.92	269.53
726.25	268.99
726.58	268.53
726.91	268.02
727.24	267.53
727.57	267.06
727.91	266.56
728.24	266.09
728.57	265.61
728.90	265.16
729.23	264.64
729.56	264.19
729.89	263.75
730.22	263.23
730.55	262.82
730.89	262.36
731.22	261.91
731.55	261.47
731.88	261.05
732.21	260.65
732.54	260.21
732.87	259.82
733.20	259.44
733.53	259.01
733.86	258.65
734.19	258.27
734.52	257.92
734.85	257.59
735.18	257.17
735.51	256.79
735.84	256.40
736.17	256.08
736.50	255.70
736.83	255.51
737.16	255.16
737.49	254.81
737.82	254.43
738.15	254.10
738.48	253.81
738.81	253.47
739.14	253.13
739.47	252.86
739.80	252.53
740.13	252.22
740.46	251.88
740.79	251.57
741.12	251.28
741.45	250.96
741.78	250.65
742.11	250.40
742.44	250.09
742.77	249.82
743.10	249.51
743.43	249.22
743.75	248.81
744.08	248.66
744.41	248.41
744.74	248.17
745.07	247.88
745.40	247.62
745.73	247.40
746.06	247.12
746.39	246.85
746.71	246.59
747.04	246.30
747.37	246.05
747.70	245.77
748.03	245.49
748.36	245.29
748.68	245.06
749.01	244.83
749.34	244.63
749.67	244.38
750.00	244.20
750.33	244.04
750.65	243.81
750.98	243.47
751.31	243.23
751.64	243.05
751.97	242.92
752.29	242.69
752.62	242.43
752.95	242.24
753.28	242.02
753.60	241.80
753.93	241.65
754.26	241.47
754.59	241.24
754.91	241.03
755.24	240.84
755.57	240.60
755.90	240.38
756.22	240.16
756.55	239.97
756.88	239.74
757.20	239.50
757.53	239.33
757.86	239.17
758.19	239.03
758.51	238.86
758.84	238.63
759.17	238.47
759.49	238.31
759.82	238.19
760.15	238.06
760.47	237.93
760.80	237.74
761.13	237.61
761.45	237.49
761.78	237.37
762.11	237.20
762.43	237.09
762.76	236.94
763.08	236.82
763.41	236.68
763.74	236.57
764.06	236.43
764.39	236.31
764.71	236.20
765.04	236.04
765.37	235.92
765.69	235.80
766.02	235.68
766.34	235.60
766.67	235.44
767.00	235.29
767.32	235.19
767.65	235.13
767.97	235.01
768.30	234.88
768.62	234.76
768.95	234.65
769.27	234.52
769.60	234.42
769.92	234.30
770.25	234.15
770.57	234.03
770.90	233.93
771.22	233.80
771.55	233.68
771.87	233.56
772.20	233.45
772.52	233.43
772.85	233.43
773.17	233.28
773.50	233.18
773.82	233.10
774.15	232.97
774.47	232.78
774.80	232.70
775.12	232.62
775.45	232.55
775.77	232.46
776.09	232.38
776.42	232.31
776.74	232.22
777.07	232.18
777.39	232.11
777.72	232.03
778.04	231.95
778.36	231.86
778.69	231.79
779.01	231.71
779.33	231.53
779.66	231.39
779.98	231.34
780.31	231.26
780.63	231.23
780.95	231.19
781.28	231.14
781.60	231.06
781.92	231.00
782.25	230.93
782.57	230.86
782.89	230.78
783.22	230.73
783.54	230.69
783.86	230.62
784.19	230.54
784.51	230.51
784.83	230.46
785.16	230.41
785.48	230.37
785.80	230.30
786.12	230.25
786.45	230.16
786.77	230.14
787.09	230.08
787.42	230.00
787.74	229.95
788.06	229.91
788.38	229.87
788.71	229.80
789.03	229.77
789.35	229.74
789.67	229.71
789.99	229.67
790.32	229.58
790.64	229.56
790.96	229.61
791.28	229.56
791.61	229.51
791.93	229.48
792.25	229.44
792.57	229.51
792.89	229.44
793.21	229.43
793.54	229.37
793.86	229.33
794.18	229.30
794.50	229.23
794.82	229.22
795.14	229.14
795.47	229.11
795.79	229.06
796.11	229.03
796.43	228.98
796.75	228.95
797.07	228.95
797.39	228.90
797.71	228.79
798.04	228.74
798.36	228.72
798.68	228.65
799.00	228.64
799.32	228.54
799.64	228.57
799.96	228.54
800.28	228.50
800.60	228.49
800.92	228.46
801.24	228.46
801.56	228.42
801.89	228.43
802.21	228.41
802.53	228.37
802.85	228.31
803.17	228.32
803.49	228.24
803.81	228.19
804.13	228.16
804.45	228.11
804.77	228.09
805.09	228.05
805.41	228.05
805.73	228.02
806.05	227.96
806.37	227.92
806.69	227.90
807.01	227.87
807.33	227.87
807.65	227.78
807.97	227.78
808.28	227.77
808.60	227.74
808.92	227.68
809.24	227.70
809.56	227.68
809.88	227.61
810.20	227.62
810.52	227.61
810.84	227.60
811.16	227.57
811.48	227.52
811.80	227.51
812.12	227.46
812.43	227.43
812.75	227.44
813.07	227.37
813.39	227.33
813.71	227.33
814.03	227.28
814.35	227.28
814.67	227.21
814.98	227.17
815.30	227.13
815.62	227.12
815.94	227.04
816.26	227.03
816.58	227.00
816.89	226.97
817.21	226.90
817.53	226.89
817.85	226.88
818.17	226.88
818.48	226.83
818.80	226.81
819.12	226.77
819.44	226.75
819.76	226.75
820.07	226.74
820.39	226.69
820.71	226.68
821.03	226.63
821.34	226.61
821.66	226.61
821.98	226.62
822.30	226.62
822.61	226.66
822.93	226.62
823.25	226.60
823.57	226.55
823.88	226.61
824.20	226.57
824.52	226.58
824.83	226.54
825.15	226.56
825.47	226.56
825.79	226.56
826.10	226.52
826.42	226.49
826.74	226.47
827.05	226.46
827.37	226.46
827.69	226.46
828.00	226.47
828.32	226.47
828.64	226.46
828.95	226.50
829.27	226.49
829.58	226.52
829.90	226.57
830.22	226.61
830.53	226.54
830.85	226.53
831.17	226.53
831.48	226.51
831.80	226.48
832.11	226.46
832.43	226.47
832.75	226.45
833.06	226.49
833.38	226.49
833.69	226.52
834.01	226.48
834.32	226.52
834.64	226.50
834.96	226.49
835.27	226.48
835.59	226.45
835.90	226.40
836.22	226.36
836.53	226.28
836.85	226.28
837.16	226.41
837.48	226.40
837.79	226.41
838.11	226.44
838.42	226.44
838.74	226.47
839.05	226.46
839.37	226.45
839.68	226.43
840.00	226.41
840.31	226.39
840.63	226.40
840.94	226.35
841.26	226.33
841.57	226.30
841.88	226.28
842.20	226.26
842.51	226.26
842.83	226.27
843.14	226.38
843.46	226.35
843.77	226.28
844.08	226.25
844.40	226.21
844.71	226.20
845.03	226.18
845.34	226.17
845.65	226.18
845.97	226.19
846.28	226.16
846.60	226.15
846.91	226.16
847.22	226.14
847.54	226.17
847.85	226.18
848.16	226.18
848.48	226.17
848.79	226.19
849.10	226.21
849.42	226.17
849.73	226.03
850.04	226.02
850.36	225.96
850.67	225.97
850.98	225.98
851.30	225.94
851.61	225.92
851.92	225.88
852.23	225.87
852.55	225.84
852.86	225.84
853.17	225.83
853.49	225.82
853.80	225.83
854.11	225.82
854.42	225.80
854.74	225.78
855.05	225.76
855.36	225.68
855.67	225.66
855.99	225.66
856.30	225.81
856.61	225.81
856.92	225.82
857.23	225.83
857.55	225.77
857.86	225.81
858.17	225.81
858.48	225.83
858.79	225.82
859.11	225.82
859.42	225.81
859.73	225.80
860.04	225.76
860.35	225.77
860.66	225.73
860.98	225.73
861.29	225.77
861.60	225.76
861.91	225.78
862.22	225.79
862.53	225.78
862.84	225.65
863.16	225.66
863.47	225.65
863.78	225.64
864.09	225.66
864.40	225.64
864.71	225.65
865.02	225.65
865.33	225.62
865.64	225.60
865.95	225.57
866.27	225.64
866.58	225.66
866.89	225.64
867.20	225.63
867.51	225.58
867.82	225.52
868.13	225.57
868.44	225.53
868.75	225.54
869.06	225.53
869.37	225.54
869.68	225.53
869.99	225.53
870.30	225.52
870.61	225.57
870.92	225.56
871.23	225.55
871.54	225.57
871.85	225.60
872.16	225.63
872.47	225.62
872.78	225.55
873.09	225.57
873.40	225.57
873.71	225.59
874.02	225.64
874.33	225.65
874.64	225.63
874.95	225.66
875.26	225.66
875.56	225.67
875.87	225.66
876.18	225.68
876.49	225.78
876.80	225.78
877.11	225.74
877.42	225.75
877.73	225.75
878.04	225.73
878.35	225.74
878.66	225.74
878.96	225.72
879.27	225.72
879.58	225.70
879.89	225.67
880.20	225.71
880.51	225.68
880.82	225.68
881.12	225.69
881.43	225.67
881.74	225.65
882.05	225.64
882.36	225.64
882.67	225.62
882.97	225.52
883.28	225.50
883.59	225.50
883.90	225.49
884.21	225.51
884.51	225.51
884.82	225.49
885.13	225.46
885.44	225.46
885.74	225.48
886.05	225.43
886.36	225.45
886.67	225.39
886.98	225.43
887.28	225.45
887.59	225.45
887.90	225.43
888.20	225.44
888.51	225.46
888.82	225.45
889.13	225.45
889.43	225.52
889.74	225.56
890.05	225.53
890.35	225.51
890.66	225.48
890.97	225.46
891.28	225.45
891.58	225.47
891.89	225.48
892.20	225.47
892.50	225.52
892.81	225.52
893.12	225.53
893.42	225.49
893.73	225.51
894.04	225.51
894.34	225.51
894.65	225.50
894.95	225.47
895.26	225.46
895.57	225.52
895.87	225.41
896.18	225.40
896.48	225.41
896.79	225.42
897.10	225.45
897.40	225.47
897.71	225.48
898.01	225.49
898.32	225.50
898.63	225.51
898.93	225.49
899.24	225.47
899.54	225.48
899.85	225.48
900.15	225.46
900.46	225.43
900.76	225.45
901.07	225.42
901.38	225.41
901.68	225.43
901.99	225.36
902.29	225.36
902.60	225.33
902.90	225.36
903.21	225.36
903.51	225.35
903.82	225.39
904.12	225.39
904.43	225.38
904.73	225.37
905.03	225.34
905.34	225.45
905.64	225.46
905.95	225.42
906.25	225.43
906.56	225.41
906.86	225.41
907.17	225.37
907.47	225.39
907.77	225.41
908.08	225.41
908.38	225.45
908.69	225.45
908.99	225.45
909.30	225.43
909.60	225.44
909.90	225.43
910.21	225.37
910.51	225.36
910.81	225.37
911.12	225.37
911.42	225.37
911.73	225.25
912.03	225.23
912.33	225.28
912.64	225.27
912.94	225.28
913.24	225.24
913.55	225.28
913.85	225.28
914.15	225.28
914.46	225.31
914.76	225.27
915.06	225.29
915.37	225.28
915.67	225.27
915.97	225.26
916.27	225.22
916.58	225.21
916.88	225.22
917.18	225.24
917.49	225.30
917.79	225.31
918.09	225.33
918.39	225.38
918.70	225.35
919.00	225.38
919.30	225.42
919.60	225.45
919.91	225.42
920.21	225.45
920.51	225.43
920.81	225.40
921.12	225.42
921.42	225.44
921.72	225.47
922.02	225.47
922.32	225.47
922.63	225.50
922.93	225.54
923.23	225.57
923.53	225.55
923.83	225.52
924.13	225.53
924.44	225.53
924.74	225.58
925.04	225.64
925.34	225.61
925.64	225.56
925.94	225.61
926.24	225.69
926.55	225.67
926.85	225.72
927.15	225.72
927.45	225.75
927.75	225.76
928.05	225.77
928.35	225.77
928.65	225.79
928.95	225.81
929.26	225.82
929.56	225.81
929.86	225.84
930.16	225.82
930.46	225.80
930.76	225.80
931.06	225.73
931.36	225.68
931.66	225.73
931.96	225.78
932.26	225.73
932.56	225.69
932.86	225.68
933.16	225.67
933.46	225.68
933.76	225.65
934.06	225.66
934.36	225.70
934.66	225.70
934.96	225.70
935.26	225.69
935.56	225.70
935.86	225.67
936.16	225.64
936.46	225.64
936.76	225.66
937.06	225.66
937.36	225.65
937.66	225.66
937.96	225.64
938.26	225.57
938.56	225.57
938.86	225.55
939.16	225.57
939.46	225.57
939.76	225.56
940.06	225.52
940.35	225.49
940.65	225.41
940.95	225.44
941.25	225.40
941.55	225.38
941.85	225.35
942.15	225.38
942.45	225.42
942.75	225.39
943.04	225.35
943.34	225.34
943.64	225.30
943.94	225.29
944.24	225.30
944.54	225.30
944.84	225.30
945.13	225.30
945.43	225.27
945.73	225.26
946.03	225.27
946.33	225.28
946.62	225.25
946.92	225.24
947.22	225.23
947.52	225.20
947.82	225.20
948.11	225.17
948.41	225.12
948.71	225.07
949.01	225.08
949.31	225.11
949.60	225.10
949.90	225.16
950.20	225.16
950.50	225.17
950.79	225.19
951.09	225.20
951.39	225.20
951.69	225.22
951.98	225.21
952.28	225.19
952.58	225.24
952.87	225.24
953.17	225.25
953.47	225.26
953.76	225.31
954.06	225.30
954.36	225.30
954.66	225.31
954.95	225.36
955.25	225.36
955.55	225.34
955.84	225.32
956.14	225.31
956.44	225.31
956.73	225.27
957.03	225.29
957.32	225.29
957.62	225.31
957.92	225.31
958.21	225.30
958.51	225.41
958.81	225.39
959.10	225.43
959.40	225.47
959.69	225.45
959.99	225.45
960.29	225.46
960.58	225.49
960.88	225.54
961.17	225.51
961.47	225.58
961.76	225.61
962.06	225.65
962.36	225.63
962.65	225.65
962.95	225.66
963.24	225.64
963.54	225.65
963.83	225.65
964.13	225.65
964.42	225.64
964.72	225.59
965.01	225.58
965.31	225.57
965.60	225.54
965.90	225.64
966.19	225.59
966.49	225.60
966.78	225.59
967.08	225.59
967.37	225.60
967.67	225.54
967.96	225.54
968.26	225.53
968.55	225.54
968.85	225.51
969.14	225.52
969.43	225.48
969.73	225.46
970.02	225.43
970.32	225.43
970.61	225.42
970.91	225.36
971.20	225.36
971.49	225.32
971.79	225.35
972.08	225.25
972.38	225.26
972.67	225.25
972.96	225.28
973.26	225.25
973.55	225.28
973.85	225.25
974.14	225.24
974.43	225.25
974.73	225.24
975.02	225.24
975.31	225.19
975.61	225.21
975.90	225.21
976.19	225.17
976.49	225.17
976.78	225.17
977.07	225.19
977.37	225.19
977.66	225.20
977.95	225.17
978.24	225.16
978.54	225.18
978.83	225.16
979.12	225.10
979.42	225.08
979.71	225.04
980.00	225.03
980.29	225.04
980.59	224.98
980.88	225.02
981.17	225.01
981.46	225.00
981.76	225.01
982.05	225.04
982.34	225.08
982.63	225.06
982.93	225.06
983.22	225.06
983.51	225.06
983.80	225.09
984.09	225.10
984.39	225.06
984.68	225.06
984.97	225.07
985.26	225.09
985.55	225.08
985.85	225.06
986.14	225.10
986.43	225.11
986.72	225.10
987.01	225.04
987.30	225.03
987.59	225.05
987.89	225.01
988.18	225.01
988.47	224.98
988.76	224.95
989.05	224.94
989.34	224.94
989.63	224.98
989.92	224.93
990.22	224.91
990.51	224.93
990.80	224.92
991.09	224.94
991.38	224.92
991.67	224.94
991.96	224.93
992.25	224.90
992.54	224.91
992.83	224.94
993.12	224.96
993.41	225.00
993.70	225.05
993.99	225.08
994.28	225.06
994.58	225.10
994.87	225.09
995.16	225.09
995.45	225.09
995.74	225.02
996.03	225.07
996.32	225.10
996.61	225.14
996.90	225.13
997.19	225.11
997.48	225.15
997.77	225.15
998.06	225.17
998.34	225.18
998.63	225.15
998.92	225.17
999.21	225.16
999.50	225.15
999.79	225.13
1000.08	225.13
1000.37	225.15
1000.66	225.13
1000.95	225.17
1001.24	225.19
1001.53	225.23
1001.82	225.25
1002.11	225.25
1002.40	225.26
1002.68	225.26
1002.97	225.35
1003.26	225.37
1003.55	225.33
1003.84	225.32
1004.13	225.35
1004.42	225.34
1004.71	225.36
1004.99	225.33
1005.28	225.35
1005.57	225.36
1005.86	225.33
1006.15	225.31
1006.44	225.28
1006.72	225.31
1007.01	225.31
1007.30	225.30
1007.59	225.26
1007.88	225.26
1008.17	225.24
1008.45	225.21
1008.74	225.19
1009.03	225.14
1009.32	225.11
1009.60	225.12
1009.89	225.12
1010.18	225.08
1010.47	225.08
1010.76	225.09
1011.04	225.06
1011.33	225.06
1011.62	225.04
1011.91	225.07
1012.19	225.08
1012.48	225.11
1012.77	225.09
1013.05	225.14
1013.34	225.12
1013.63	225.13
1013.92	225.10
1014.20	225.08
1014.49	225.10
1014.78	225.10
1015.06	225.06
1015.35	225.10
1015.64	225.08
1015.92	225.08
1016.21	225.07
1016.50	225.07
1016.78	225.09
1017.07	225.12
1017.36	225.09
1017.64	225.09
1017.93	225.05
1018.22	225.02
1018.50	225.00
1018.79	225.00
1019.08	224.91
1019.36	224.91
1019.65	224.91
1019.93	224.94
1020.22	224.95
1020.51	224.96
1020.79	224.95
1021.08	224.61
1021.36	224.87
1021.65	225.13
1021.94	224.38
1022.22	224.75
1022.51	224.85
1022.79	225.35
1023.08	224.97
1023.36	225.42
1023.65	224.81
>>>>>End Processed Spectral Data<<<<<
