SpectraSuite Data File
++++++++++++++++++++++++++++++++++++
Date: Fri Feb 01 15:33:38 EST 2013
User: group
Dark Spectrum Present: No
Reference Spectrum Present: No
Number of Sampled Component Spectra: 1
Spectrometers: USB2E7196
Integration Time (usec): 35000 (USB2E7196)
Spectra Averaged: 100 (USB2E7196)
Boxcar Smoothing: 10 (USB2E7196)
Correct for Electrical Dark: No (USB2E7196)
Strobe/Lamp Enabled: No (USB2E7196)
Correct for Detector Non-linearity: No (USB2E7196)
Correct for Stray Light: No (USB2E7196)
Number of Pixels in Processed Spectrum: 2048
>>>>>Begin Processed Spectral Data<<<<<
339.09	0.00
339.48	214.36
339.86	215.64
340.24	217.51
340.63	218.80
341.01	221.43
341.39	222.14
341.78	223.72
342.16	224.22
342.54	224.78
342.93	213.14
343.31	223.91
343.69	224.50
344.07	224.96
344.46	225.39
344.84	225.77
345.22	226.03
345.60	226.25
345.99	226.44
346.37	226.57
346.75	226.65
347.13	226.70
347.52	226.73
347.90	226.80
348.28	226.80
348.66	226.84
349.05	226.88
349.43	226.93
349.81	226.96
350.19	227.03
350.57	227.10
350.96	227.14
351.34	227.26
351.72	227.31
352.10	227.44
352.48	227.52
352.87	227.55
353.25	227.59
353.63	227.67
354.01	227.69
354.39	227.76
354.77	227.83
355.15	227.92
355.54	227.98
355.92	228.00
356.30	228.08
356.68	228.20
357.06	228.25
357.44	228.28
357.82	228.35
358.20	228.42
358.58	228.47
358.97	228.53
359.35	228.57
359.73	228.67
360.11	228.69
360.49	228.75
360.87	228.83
361.25	228.92
361.63	229.00
362.01	229.05
362.39	229.11
362.77	229.18
363.15	229.19
363.53	229.22
363.91	229.28
364.29	229.31
364.67	229.22
365.05	229.23
365.43	229.26
365.81	229.26
366.19	229.30
366.57	229.33
366.95	229.35
367.33	229.30
367.71	229.29
368.09	229.30
368.47	229.24
368.85	229.23
369.23	229.21
369.61	229.16
369.99	229.19
370.37	229.15
370.75	229.15
371.13	229.13
371.51	229.09
371.89	229.04
372.27	228.97
372.65	228.95
373.03	228.91
373.41	228.86
373.78	228.79
374.16	228.69
374.54	228.58
374.92	228.51
375.30	228.47
375.68	228.40
376.06	228.32
376.44	228.26
376.82	228.19
377.19	228.12
377.57	228.00
377.95	227.89
378.33	227.79
378.71	227.67
379.09	227.59
379.47	227.55
379.84	227.51
380.22	227.43
380.60	227.37
380.98	227.28
381.36	227.19
381.73	227.14
382.11	227.11
382.49	227.08
382.87	227.00
383.25	226.94
383.62	226.94
384.00	226.91
384.38	226.85
384.76	226.82
385.13	226.80
385.51	226.79
385.89	226.74
386.27	226.71
386.64	226.68
387.02	226.64
387.40	226.57
387.78	226.50
388.15	226.48
388.53	226.43
388.91	226.42
389.29	226.39
389.66	226.37
390.04	226.35
390.42	226.36
390.79	226.33
391.17	226.32
391.55	226.21
391.92	226.21
392.30	226.22
392.68	226.16
393.05	226.15
393.43	226.17
393.81	226.15
394.18	226.17
394.56	226.20
394.94	226.24
395.31	226.28
395.69	226.35
396.06	226.38
396.44	226.42
396.82	226.44
397.19	226.50
397.57	226.54
397.95	226.57
398.32	226.57
398.70	226.65
399.07	226.74
399.45	226.81
399.82	226.87
400.20	226.93
400.58	227.07
400.95	227.12
401.33	227.17
401.70	227.34
402.08	227.40
402.45	227.47
402.83	227.57
403.20	227.66
403.58	227.74
403.95	227.86
404.33	228.00
404.71	228.16
405.08	228.35
405.46	228.49
405.83	228.65
406.21	228.82
406.58	228.99
406.96	229.13
407.33	229.31
407.70	229.50
408.08	229.76
408.45	229.95
408.83	230.21
409.20	230.43
409.58	230.63
409.95	230.92
410.33	231.20
410.70	231.47
411.08	231.80
411.45	232.11
411.82	232.44
412.20	232.81
412.57	233.20
412.95	233.50
413.32	233.91
413.69	234.32
414.07	234.74
414.44	235.20
414.82	235.68
415.19	236.24
415.56	236.81
415.94	237.37
416.31	238.00
416.68	238.62
417.06	239.34
417.43	240.01
417.81	240.80
418.18	241.57
418.55	242.41
418.93	243.25
419.30	244.15
419.67	245.09
420.04	246.05
420.42	247.05
420.79	248.23
421.16	249.41
421.54	250.59
421.91	251.82
422.28	253.09
422.66	254.44
423.03	255.75
423.40	257.06
423.77	258.48
424.15	259.90
424.52	261.41
424.89	263.03
425.26	264.60
425.64	266.02
426.01	267.64
426.38	269.33
426.75	271.00
427.13	272.74
427.50	274.54
427.87	276.41
428.24	278.27
428.61	280.03
428.99	281.93
429.36	284.03
429.73	286.09
430.10	288.10
430.47	290.14
430.85	292.26
431.22	294.55
431.59	296.94
431.96	299.19
432.33	301.68
432.70	304.05
433.08	306.89
433.45	309.56
433.82	312.16
434.19	314.97
434.56	317.82
434.93	320.48
435.30	323.10
435.68	325.98
436.05	328.82
436.42	331.57
436.79	334.13
437.16	336.88
437.53	339.72
437.90	342.57
438.27	345.33
438.64	348.19
439.01	350.70
439.38	352.93
439.75	355.11
440.13	357.56
440.50	359.91
440.87	361.71
441.24	363.62
441.61	365.82
441.98	367.36
442.35	369.19
442.72	371.05
443.09	372.90
443.46	373.90
443.83	374.45
444.20	374.98
444.57	375.79
444.94	376.03
445.31	376.34
445.68	376.66
446.05	376.70
446.42	376.29
446.79	375.87
447.16	375.42
447.53	375.13
447.90	373.95
448.27	372.77
448.64	371.19
449.01	370.03
449.37	368.02
449.74	366.10
450.11	363.81
450.48	361.30
450.85	358.78
451.22	356.60
451.59	354.62
451.96	352.69
452.33	350.07
452.70	347.72
453.07	344.90
453.43	342.00
453.80	339.23
454.17	336.54
454.54	334.02
454.91	331.29
455.28	328.57
455.65	326.09
456.02	323.61
456.38	321.48
456.75	318.81
457.12	316.56
457.49	314.31
457.86	312.15
458.23	310.33
458.59	308.27
458.96	306.19
459.33	304.29
459.70	302.44
460.07	300.96
460.43	299.29
460.80	297.66
461.17	296.24
461.54	294.78
461.91	293.38
462.27	291.96
462.64	290.69
463.01	289.34
463.38	288.03
463.74	286.68
464.11	285.48
464.48	284.48
464.85	283.33
465.21	282.47
465.58	281.53
465.95	280.40
466.32	279.43
466.68	278.54
467.05	277.68
467.42	276.79
467.78	275.84
468.15	274.94
468.52	274.28
468.88	273.41
469.25	272.65
469.62	272.01
469.98	271.35
470.35	270.72
470.72	270.11
471.08	269.48
471.45	268.94
471.82	268.41
472.18	267.77
472.55	267.34
472.92	266.81
473.28	266.36
473.65	265.90
474.02	265.47
474.38	265.09
474.75	264.75
475.11	264.37
475.48	264.12
475.85	263.84
476.21	263.60
476.58	263.41
476.94	263.25
477.31	263.10
477.67	262.96
478.04	262.82
478.41	262.77
478.77	262.81
479.14	262.75
479.50	262.77
479.87	262.88
480.23	262.95
480.60	263.03
480.96	263.12
481.33	263.34
481.69	263.53
482.06	263.74
482.42	263.95
482.79	264.22
483.15	264.54
483.52	264.94
483.88	265.28
484.25	265.66
484.61	266.10
484.98	266.55
485.34	267.08
485.71	267.65
486.07	268.29
486.44	268.91
486.80	269.62
487.17	270.31
487.53	271.12
487.90	271.98
488.26	272.93
488.62	273.92
488.99	274.91
489.35	275.97
489.72	277.07
490.08	278.27
490.44	279.49
490.81	280.79
491.17	282.14
491.54	283.62
491.90	285.16
492.26	286.81
492.63	288.52
492.99	290.30
493.36	292.24
493.72	294.24
494.08	296.29
494.45	298.53
494.81	300.93
495.17	303.35
495.54	305.91
495.90	308.57
496.26	311.31
496.63	314.27
496.99	317.38
497.35	320.65
497.72	324.05
498.08	327.61
498.44	331.31
498.80	335.24
499.17	339.29
499.53	343.44
499.89	347.78
500.26	352.33
500.62	356.96
500.98	361.89
501.34	366.97
501.71	372.31
502.07	377.73
502.43	383.33
502.79	389.17
503.16	395.22
503.52	401.51
503.88	407.91
504.24	414.60
504.60	421.55
504.97	428.69
505.33	436.03
505.69	443.71
506.05	451.50
506.41	459.41
506.78	467.57
507.14	476.03
507.50	484.79
507.86	493.77
508.22	502.98
508.59	512.21
508.95	521.85
509.31	531.68
509.67	541.79
510.03	552.06
510.39	562.61
510.75	573.45
511.12	584.37
511.48	595.68
511.84	607.16
512.20	618.62
512.56	630.66
512.92	642.82
513.28	655.15
513.64	667.64
514.00	680.39
514.37	693.32
514.73	706.41
515.09	719.42
515.45	732.76
515.81	746.32
516.17	760.30
516.53	774.41
516.89	788.56
517.25	802.79
517.61	817.27
517.97	831.76
518.33	846.25
518.69	861.13
519.05	876.14
519.41	891.22
519.77	906.79
520.13	922.19
520.49	937.67
520.85	953.17
521.21	968.90
521.57	985.21
521.93	1001.04
522.29	1017.41
522.65	1033.68
523.01	1049.98
523.37	1066.12
523.73	1082.32
524.09	1098.38
524.45	1114.79
524.81	1131.43
525.17	1148.33
525.53	1165.34
525.89	1182.26
526.25	1199.09
526.61	1215.51
526.97	1232.31
527.33	1248.85
527.68	1265.57
528.04	1281.95
528.40	1298.56
528.76	1315.66
529.12	1332.10
529.48	1349.04
529.84	1365.17
530.20	1381.96
530.56	1398.99
530.91	1416.49
531.27	1433.29
531.63	1449.79
531.99	1466.48
532.35	1482.61
532.71	1498.54
533.07	1514.70
533.42	1530.57
533.78	1546.67
534.14	1563.04
534.50	1578.44
534.86	1594.41
535.21	1609.53
535.57	1625.54
535.93	1641.13
536.29	1656.09
536.65	1671.24
537.00	1686.02
537.36	1701.31
537.72	1715.78
538.08	1730.10
538.44	1743.81
538.79	1757.64
539.15	1771.42
539.51	1785.02
539.87	1799.23
540.22	1813.00
540.58	1826.83
540.94	1840.30
541.29	1853.23
541.65	1865.93
542.01	1879.32
542.37	1891.67
542.72	1904.08
543.08	1915.95
543.44	1928.36
543.79	1939.44
544.15	1950.52
544.51	1962.06
544.87	1973.16
545.22	1984.00
545.58	1994.39
545.94	2004.23
546.29	2014.22
546.65	2024.05
547.01	2033.42
547.36	2042.24
547.72	2050.66
548.07	2058.57
548.43	2066.79
548.79	2074.73
549.14	2082.20
549.50	2089.41
549.86	2097.11
550.21	2104.52
550.57	2111.79
550.92	2118.27
551.28	2125.36
551.64	2132.49
551.99	2139.16
552.35	2145.33
552.70	2151.54
553.06	2157.56
553.41	2163.90
553.77	2170.06
554.13	2176.21
554.48	2182.27
554.84	2187.58
555.19	2193.03
555.55	2198.13
555.90	2202.50
556.26	2207.43
556.61	2212.38
556.97	2216.72
557.32	2220.81
557.68	2224.99
558.03	2229.15
558.39	2232.98
558.74	2237.55
559.10	2241.39
559.45	2244.96
559.81	2249.15
560.16	2252.94
560.52	2256.09
560.87	2259.62
561.23	2262.25
561.58	2265.19
561.94	2267.72
562.29	2270.28
562.64	2272.82
563.00	2275.46
563.35	2279.04
563.71	2282.23
564.06	2285.36
564.42	2288.08
564.77	2290.49
565.12	2292.74
565.48	2294.62
565.83	2296.32
566.19	2297.66
566.54	2298.57
566.89	2299.73
567.25	2300.29
567.60	2301.62
567.96	2303.15
568.31	2303.89
568.66	2304.89
569.02	2305.40
569.37	2305.74
569.72	2306.50
570.08	2306.61
570.43	2306.64
570.78	2305.83
571.14	2304.23
571.49	2302.87
571.84	2302.48
572.20	2301.39
572.55	2300.15
572.90	2298.64
573.26	2297.42
573.61	2295.78
573.96	2293.86
574.31	2290.85
574.67	2287.92
575.02	2284.31
575.37	2281.06
575.72	2277.16
576.08	2273.91
576.43	2270.60
576.78	2266.80
577.13	2263.59
577.49	2260.50
577.84	2256.98
578.19	2253.31
578.54	2249.64
578.90	2245.33
579.25	2239.72
579.60	2234.59
579.95	2229.55
580.30	2224.47
580.66	2219.09
581.01	2213.97
581.36	2209.15
581.71	2204.89
582.06	2200.19
582.42	2195.45
582.77	2189.99
583.12	2185.36
583.47	2180.54
583.82	2175.39
584.17	2170.19
584.53	2164.68
584.88	2158.90
585.23	2153.01
585.58	2147.51
585.93	2141.97
586.28	2137.18
586.63	2132.21
586.98	2127.19
587.34	2122.42
587.69	2117.49
588.04	2112.19
588.39	2106.46
588.74	2099.93
589.09	2093.73
589.44	2087.01
589.79	2080.96
590.14	2075.46
590.49	2068.79
590.84	2062.31
591.19	2056.28
591.54	2049.82
591.89	2042.32
592.25	2035.52
592.60	2028.24
592.95	2020.50
593.30	2013.17
593.65	2005.48
594.00	1998.36
594.35	1991.08
594.70	1983.17
595.05	1975.72
595.40	1968.34
595.75	1960.86
596.10	1954.47
596.45	1947.58
596.80	1941.40
597.15	1934.77
597.50	1927.51
597.85	1921.18
598.19	1914.45
598.54	1907.33
598.89	1900.57
599.24	1894.75
599.59	1887.97
599.94	1881.64
600.29	1875.41
600.64	1868.68
600.99	1861.16
601.34	1854.24
601.69	1847.31
602.04	1840.33
602.39	1833.11
602.74	1826.37
603.08	1819.58
603.43	1812.84
603.78	1805.72
604.13	1798.41
604.48	1791.02
604.83	1784.27
605.18	1777.17
605.53	1769.16
605.87	1761.09
606.22	1753.75
606.57	1745.67
606.92	1738.40
607.27	1731.29
607.62	1724.32
607.96	1717.07
608.31	1710.38
608.66	1702.81
609.01	1695.17
609.36	1687.67
609.70	1679.65
610.05	1671.49
610.40	1663.74
610.75	1655.47
611.10	1647.73
611.44	1639.31
611.79	1631.41
612.14	1622.72
612.49	1613.63
612.83	1605.22
613.18	1597.09
613.53	1589.12
613.88	1580.57
614.22	1572.32
614.57	1563.80
614.92	1555.69
615.27	1548.08
615.61	1539.89
615.96	1531.78
616.31	1524.13
616.65	1516.67
617.00	1509.07
617.35	1501.44
617.70	1493.06
618.04	1484.47
618.39	1476.20
618.74	1468.68
619.08	1460.49
619.43	1452.87
619.78	1446.01
620.12	1438.92
620.47	1431.34
620.82	1423.13
621.16	1415.84
621.51	1408.19
621.85	1400.50
622.20	1392.05
622.55	1383.78
622.89	1375.78
623.24	1368.22
623.59	1360.85
623.93	1353.36
624.28	1346.04
624.62	1338.41
624.97	1331.42
625.32	1324.81
625.66	1317.79
626.01	1310.59
626.35	1303.05
626.70	1295.21
627.04	1287.31
627.39	1279.47
627.73	1272.09
628.08	1265.24
628.43	1257.80
628.77	1250.39
629.12	1242.84
629.46	1235.63
629.81	1228.08
630.15	1220.95
630.50	1213.56
630.84	1205.28
631.19	1197.21
631.53	1189.77
631.88	1182.29
632.22	1174.65
632.57	1167.28
632.91	1159.71
633.26	1152.25
633.60	1144.92
633.95	1137.83
634.29	1130.87
634.64	1124.27
634.98	1116.91
635.32	1109.76
635.67	1103.17
636.01	1096.57
636.36	1089.82
636.70	1083.32
637.05	1076.73
637.39	1070.27
637.73	1063.73
638.08	1057.93
638.42	1052.12
638.77	1045.70
639.11	1039.13
639.45	1032.63
639.80	1025.93
640.14	1019.46
640.49	1012.94
640.83	1006.62
641.17	1000.26
641.52	993.87
641.86	987.40
642.20	981.59
642.55	975.33
642.89	968.82
643.23	962.30
643.58	956.43
643.92	950.14
644.26	944.17
644.61	938.08
644.95	932.00
645.29	925.41
645.64	918.56
645.98	912.20
646.32	906.37
646.66	900.30
647.01	894.46
647.35	888.76
647.69	882.95
648.04	877.36
648.38	871.71
648.72	865.69
649.06	859.65
649.41	853.74
649.75	847.64
650.09	841.75
650.43	835.84
650.78	829.74
651.12	823.85
651.46	818.13
651.80	812.36
652.14	807.02
652.49	801.60
652.83	796.42
653.17	790.76
653.51	784.95
653.85	779.62
654.20	774.02
654.54	768.04
654.88	762.28
655.22	756.42
655.56	750.73
655.90	745.28
656.25	739.95
656.59	734.50
656.93	729.49
657.27	724.34
657.61	718.94
657.95	713.80
658.29	708.70
658.64	703.46
658.98	698.18
659.32	692.66
659.66	687.51
660.00	682.20
660.34	677.23
660.68	672.32
661.02	667.27
661.36	662.53
661.70	658.03
662.05	653.65
662.39	649.32
662.73	644.89
663.07	640.53
663.41	636.10
663.75	631.60
664.09	626.98
664.43	622.59
664.77	618.49
665.11	614.22
665.45	610.11
665.79	605.99
666.13	601.89
666.47	597.87
666.81	593.71
667.15	589.57
667.49	585.71
667.83	582.00
668.17	578.10
668.51	574.02
668.85	570.06
669.19	566.22
669.53	562.35
669.87	558.42
670.21	554.71
670.55	551.08
670.89	547.70
671.23	544.31
671.57	540.77
671.91	537.25
672.25	533.79
672.58	530.29
672.92	526.96
673.26	523.83
673.60	520.62
673.94	517.50
674.28	514.65
674.62	511.70
674.96	508.54
675.30	505.58
675.64	502.70
675.97	499.88
676.31	497.00
676.65	494.10
676.99	491.39
677.33	488.54
677.67	485.75
678.01	482.68
678.34	479.67
678.68	476.82
679.02	474.00
679.36	471.24
679.70	468.56
680.04	465.77
680.37	462.80
680.71	460.08
681.05	457.48
681.39	454.79
681.73	452.13
682.06	449.66
682.40	447.12
682.74	444.56
683.08	442.01
683.42	439.45
683.75	436.96
684.09	434.45
684.43	431.98
684.77	429.51
685.10	427.22
685.44	424.94
685.78	422.67
686.12	420.45
686.45	418.17
686.79	415.78
687.13	413.62
687.46	411.48
687.80	409.33
688.14	407.09
688.48	404.98
688.81	402.71
689.15	400.55
689.49	398.41
689.82	396.34
690.16	394.31
690.50	392.37
690.83	390.47
691.17	388.42
691.51	386.51
691.84	384.66
692.18	382.71
692.52	380.69
692.85	378.73
693.19	376.83
693.52	375.01
693.86	373.21
694.20	371.37
694.53	369.61
694.87	367.73
695.21	365.92
695.54	364.14
695.88	362.42
696.21	360.71
696.55	359.03
696.88	357.36
697.22	355.63
697.56	353.97
697.89	352.26
698.23	350.66
698.56	349.03
698.90	347.45
699.23	345.81
699.57	344.25
699.90	342.73
700.24	341.15
700.58	339.58
700.91	338.13
701.25	336.65
701.58	335.30
701.92	333.95
702.25	332.62
702.59	331.25
702.92	329.91
703.26	328.61
703.59	327.34
703.93	326.16
704.26	324.94
704.60	323.69
704.93	322.46
705.26	321.31
705.60	320.16
705.93	318.99
706.27	317.99
706.60	316.97
706.94	315.91
707.27	314.82
707.61	313.79
707.94	312.77
708.27	311.75
708.61	310.64
708.94	309.65
709.28	308.65
709.61	307.69
709.94	306.71
710.28	305.69
710.61	304.76
710.95	303.69
711.28	302.82
711.61	301.86
711.95	300.93
712.28	299.94
712.61	298.95
712.95	298.06
713.28	297.15
713.61	296.28
713.95	295.39
714.28	294.55
714.61	293.69
714.95	292.86
715.28	292.03
715.61	291.20
715.95	290.38
716.28	289.55
716.61	288.76
716.95	288.00
717.28	287.26
717.61	286.47
717.94	285.75
718.28	284.94
718.61	284.20
718.94	283.53
719.27	282.89
719.61	282.27
719.94	281.57
720.27	280.89
720.60	280.20
720.94	279.59
721.27	279.04
721.60	278.47
721.93	277.85
722.27	277.27
722.60	276.69
722.93	276.13
723.26	275.55
723.59	274.94
723.93	274.41
724.26	273.87
724.59	273.32
724.92	272.78
725.25	272.28
725.59	271.74
725.92	271.23
726.25	270.70
726.58	270.19
726.91	269.72
727.24	269.25
727.57	268.77
727.91	268.23
728.24	267.75
728.57	267.22
728.90	266.78
729.23	266.25
729.56	265.82
729.89	265.31
730.22	264.83
730.55	264.36
730.89	263.88
731.22	263.42
731.55	262.99
731.88	262.56
732.21	262.13
732.54	261.74
732.87	261.28
733.20	260.88
733.53	260.52
733.86	260.15
734.19	259.74
734.52	259.36
734.85	259.06
735.18	258.60
735.51	258.26
735.84	257.88
736.17	257.57
736.50	257.15
736.83	256.93
737.16	256.61
737.49	256.32
737.82	255.98
738.15	255.60
738.48	255.26
738.81	254.93
739.14	254.57
739.47	254.25
739.80	253.95
740.13	253.65
740.46	253.29
740.79	252.92
741.12	252.61
741.45	252.31
741.78	251.97
742.11	251.72
742.44	251.37
742.77	251.09
743.10	250.74
743.43	250.44
743.75	250.04
744.08	249.90
744.41	249.62
744.74	249.33
745.07	249.07
745.40	248.85
745.73	248.59
746.06	248.34
746.39	248.08
746.71	247.79
747.04	247.49
747.37	247.26
747.70	247.07
748.03	246.83
748.36	246.62
748.68	246.40
749.01	246.13
749.34	245.93
749.67	245.71
750.00	245.53
750.33	245.39
750.65	245.21
750.98	244.87
751.31	244.64
751.64	244.46
751.97	244.31
752.29	244.07
752.62	243.87
752.95	243.69
753.28	243.49
753.60	243.32
753.93	243.21
754.26	242.99
754.59	242.73
754.91	242.51
755.24	242.30
755.57	242.13
755.90	241.97
756.22	241.78
756.55	241.60
756.88	241.40
757.20	241.19
757.53	240.96
757.86	240.76
758.19	240.62
758.51	240.46
758.84	240.24
759.17	240.06
759.49	239.89
759.82	239.75
760.15	239.60
760.47	239.44
760.80	239.24
761.13	239.12
761.45	238.97
761.78	238.84
762.11	238.67
762.43	238.51
762.76	238.36
763.08	238.26
763.41	238.11
763.74	237.97
764.06	237.82
764.39	237.71
764.71	237.63
765.04	237.48
765.37	237.35
765.69	237.22
766.02	237.09
766.34	236.96
766.67	236.80
767.00	236.69
767.32	236.63
767.65	236.55
767.97	236.46
768.30	236.35
768.62	236.26
768.95	236.17
769.27	236.04
769.60	235.91
769.92	235.75
770.25	235.61
770.57	235.51
770.90	235.41
771.22	235.28
771.55	235.16
771.87	235.01
772.20	234.91
772.52	234.91
772.85	234.94
773.17	234.84
773.50	234.73
773.82	234.65
774.15	234.49
774.47	234.33
774.80	234.18
775.12	234.09
775.45	233.99
775.77	233.89
776.09	233.82
776.42	233.74
776.74	233.67
777.07	233.61
777.39	233.52
777.72	233.43
778.04	233.36
778.36	233.29
778.69	233.28
779.01	233.19
779.33	232.98
779.66	232.80
779.98	232.72
780.31	232.64
780.63	232.55
780.95	232.51
781.28	232.41
781.60	232.37
781.92	232.31
782.25	232.25
782.57	232.17
782.89	232.12
783.22	232.03
783.54	231.95
783.86	231.92
784.19	231.87
784.51	231.86
784.83	231.80
785.16	231.73
785.48	231.63
785.80	231.57
786.12	231.57
786.45	231.51
786.77	231.47
787.09	231.41
787.42	231.33
787.74	231.28
788.06	231.28
788.38	231.23
788.71	231.18
789.03	231.13
789.35	231.14
789.67	231.05
789.99	231.04
790.32	231.02
790.64	230.96
790.96	231.00
791.28	230.90
791.61	230.85
791.93	230.84
792.25	230.82
792.57	230.89
792.89	230.83
793.21	230.82
793.54	230.76
793.86	230.74
794.18	230.75
794.50	230.73
794.82	230.67
795.14	230.66
795.47	230.65
795.79	230.61
796.11	230.55
796.43	230.53
796.75	230.48
797.07	230.45
797.39	230.42
797.71	230.35
798.04	230.33
798.36	230.33
798.68	230.26
799.00	230.25
799.32	230.14
799.64	230.16
799.96	230.13
800.28	230.11
800.60	230.12
800.92	230.10
801.24	230.08
801.56	230.10
801.89	230.07
802.21	230.08
802.53	230.04
802.85	230.04
803.17	230.05
803.49	230.02
803.81	229.99
804.13	229.99
804.45	229.95
804.77	229.94
805.09	229.92
805.41	229.92
805.73	229.88
806.05	229.85
806.37	229.82
806.69	229.76
807.01	229.74
807.33	229.68
807.65	229.63
807.97	229.61
808.28	229.57
808.60	229.53
808.92	229.49
809.24	229.52
809.56	229.47
809.88	229.41
810.20	229.40
810.52	229.40
810.84	229.32
811.16	229.29
811.48	229.25
811.80	229.26
812.12	229.20
812.43	229.17
812.75	229.14
813.07	229.10
813.39	229.06
813.71	229.03
814.03	229.02
814.35	228.96
814.67	228.91
814.98	228.84
815.30	228.79
815.62	228.73
815.94	228.67
816.26	228.69
816.58	228.66
816.89	228.63
817.21	228.58
817.53	228.58
817.85	228.55
818.17	228.54
818.48	228.45
818.80	228.48
819.12	228.47
819.44	228.43
819.76	228.38
820.07	228.38
820.39	228.39
820.71	228.35
821.03	228.35
821.34	228.33
821.66	228.32
821.98	228.33
822.30	228.30
822.61	228.35
822.93	228.28
823.25	228.27
823.57	228.25
823.88	228.25
824.20	228.24
824.52	228.27
824.83	228.24
825.15	228.24
825.47	228.18
825.79	228.18
826.10	228.17
826.42	228.18
826.74	228.21
827.05	228.18
827.37	228.21
827.69	228.24
828.00	228.24
828.32	228.28
828.64	228.25
828.95	228.29
829.27	228.26
829.58	228.26
829.90	228.26
830.22	228.25
830.53	228.22
830.85	228.19
831.17	228.15
831.48	228.16
831.80	228.16
832.11	228.19
832.43	228.18
832.75	228.20
833.06	228.25
833.38	228.25
833.69	228.25
834.01	228.23
834.32	228.20
834.64	228.17
834.96	228.18
835.27	228.19
835.59	228.18
835.90	228.14
836.22	228.11
836.53	228.09
836.85	228.06
837.16	228.15
837.48	228.13
837.79	228.16
838.11	228.15
838.42	228.13
838.74	228.12
839.05	228.12
839.37	228.10
839.68	228.05
840.00	228.02
840.31	228.05
840.63	228.06
840.94	228.03
841.26	228.05
841.57	228.02
841.88	228.02
842.20	228.02
842.51	227.98
842.83	228.03
843.14	228.09
843.46	228.12
843.77	228.05
844.08	228.08
844.40	228.06
844.71	228.06
845.03	228.05
845.34	228.04
845.65	228.00
845.97	227.99
846.28	227.97
846.60	227.98
846.91	227.96
847.22	227.93
847.54	227.96
847.85	227.94
848.16	227.89
848.48	227.87
848.79	227.86
849.10	227.90
849.42	227.85
849.73	227.75
850.04	227.73
850.36	227.69
850.67	227.68
850.98	227.65
851.30	227.63
851.61	227.59
851.92	227.59
852.23	227.60
852.55	227.58
852.86	227.56
853.17	227.52
853.49	227.47
853.80	227.46
854.11	227.43
854.42	227.42
854.74	227.41
855.05	227.42
855.36	227.38
855.67	227.39
855.99	227.37
856.30	227.48
856.61	227.52
856.92	227.54
857.23	227.51
857.55	227.47
857.86	227.47
858.17	227.51
858.48	227.47
858.79	227.45
859.11	227.46
859.42	227.47
859.73	227.42
860.04	227.44
860.35	227.43
860.66	227.42
860.98	227.43
861.29	227.45
861.60	227.40
861.91	227.40
862.22	227.34
862.53	227.34
862.84	227.21
863.16	227.23
863.47	227.21
863.78	227.20
864.09	227.20
864.40	227.20
864.71	227.20
865.02	227.21
865.33	227.23
865.64	227.22
865.95	227.21
866.27	227.34
866.58	227.32
866.89	227.34
867.20	227.35
867.51	227.33
867.82	227.29
868.13	227.35
868.44	227.34
868.75	227.40
869.06	227.41
869.37	227.46
869.68	227.42
869.99	227.41
870.30	227.42
870.61	227.45
870.92	227.48
871.23	227.45
871.54	227.49
871.85	227.48
872.16	227.49
872.47	227.51
872.78	227.44
873.09	227.46
873.40	227.42
873.71	227.44
874.02	227.44
874.33	227.43
874.64	227.41
874.95	227.42
875.26	227.38
875.56	227.37
875.87	227.36
876.18	227.34
876.49	227.44
876.80	227.45
877.11	227.45
877.42	227.43
877.73	227.42
878.04	227.39
878.35	227.39
878.66	227.40
878.96	227.37
879.27	227.35
879.58	227.34
879.89	227.33
880.20	227.33
880.51	227.34
880.82	227.35
881.12	227.36
881.43	227.33
881.74	227.32
882.05	227.32
882.36	227.34
882.67	227.33
882.97	227.22
883.28	227.19
883.59	227.18
883.90	227.18
884.21	227.21
884.51	227.18
884.82	227.17
885.13	227.16
885.44	227.14
885.74	227.16
886.05	227.14
886.36	227.15
886.67	227.14
886.98	227.18
887.28	227.18
887.59	227.17
887.90	227.19
888.20	227.18
888.51	227.17
888.82	227.10
889.13	227.10
889.43	227.15
889.74	227.18
890.05	227.14
890.35	227.12
890.66	227.09
890.97	227.07
891.28	227.05
891.58	227.02
891.89	227.04
892.20	227.00
892.50	226.97
892.81	226.96
893.12	226.93
893.42	226.86
893.73	226.88
894.04	226.86
894.34	226.84
894.65	226.86
894.95	226.87
895.26	226.87
895.57	226.94
895.87	226.82
896.18	226.84
896.48	226.85
896.79	226.84
897.10	226.88
897.40	226.89
897.71	226.89
898.01	226.90
898.32	226.91
898.63	226.89
898.93	226.90
899.24	226.90
899.54	226.91
899.85	226.92
900.15	226.90
900.46	226.92
900.76	226.94
901.07	226.93
901.38	226.91
901.68	226.94
901.99	226.89
902.29	226.95
902.60	226.93
902.90	226.93
903.21	226.95
903.51	226.92
903.82	226.97
904.12	226.97
904.43	226.98
904.73	226.96
905.03	227.01
905.34	227.14
905.64	227.13
905.95	227.15
906.25	227.15
906.56	227.17
906.86	227.16
907.17	227.15
907.47	227.17
907.77	227.19
908.08	227.16
908.38	227.17
908.69	227.17
908.99	227.20
909.30	227.22
909.60	227.21
909.90	227.21
910.21	227.15
910.51	227.13
910.81	227.12
911.12	227.12
911.42	227.08
911.73	226.94
912.03	226.97
912.33	226.97
912.64	226.95
912.94	226.93
913.24	226.91
913.55	226.87
913.85	226.85
914.15	226.86
914.46	226.88
914.76	226.87
915.06	226.85
915.37	226.83
915.67	226.81
915.97	226.82
916.27	226.83
916.58	226.84
916.88	226.82
917.18	226.82
917.49	226.90
917.79	226.89
918.09	226.93
918.39	226.93
918.70	226.89
919.00	226.90
919.30	226.93
919.60	226.94
919.91	226.95
920.21	226.94
920.51	226.89
920.81	226.88
921.12	226.88
921.42	226.86
921.72	226.85
922.02	226.87
922.32	226.87
922.63	226.84
922.93	226.88
923.23	226.91
923.53	226.88
923.83	226.82
924.13	226.85
924.44	226.82
924.74	226.83
925.04	226.86
925.34	226.89
925.64	226.84
925.94	226.82
926.24	226.85
926.55	226.84
926.85	226.86
927.15	226.85
927.45	226.85
927.75	226.84
928.05	226.85
928.35	226.84
928.65	226.85
928.95	226.86
929.26	226.82
929.56	226.83
929.86	226.86
930.16	226.85
930.46	226.83
930.76	226.85
931.06	226.81
931.36	226.80
931.66	226.76
931.96	226.79
932.26	226.78
932.56	226.79
932.86	226.82
933.16	226.81
933.46	226.83
933.76	226.81
934.06	226.84
934.36	226.87
934.66	226.89
934.96	226.88
935.26	226.90
935.56	226.92
935.86	226.94
936.16	226.92
936.46	226.93
936.76	226.94
937.06	226.95
937.36	226.97
937.66	226.98
937.96	227.00
938.26	226.98
938.56	227.00
938.86	226.97
939.16	226.99
939.46	227.02
939.76	227.02
940.06	227.01
940.35	227.02
940.65	226.97
940.95	226.96
941.25	226.96
941.55	226.95
941.85	226.95
942.15	226.96
942.45	226.96
942.75	226.97
943.04	226.97
943.34	226.96
943.64	226.93
943.94	226.92
944.24	226.93
944.54	226.97
944.84	226.99
945.13	226.99
945.43	226.98
945.73	226.99
946.03	226.99
946.33	227.03
946.62	226.99
946.92	227.01
947.22	227.00
947.52	226.99
947.82	227.01
948.11	226.98
948.41	226.96
948.71	226.96
949.01	226.97
949.31	226.96
949.60	226.98
949.90	226.98
950.20	226.99
950.50	226.95
950.79	226.94
951.09	226.94
951.39	226.97
951.69	226.96
951.98	226.97
952.28	226.94
952.58	226.92
952.87	226.94
953.17	226.94
953.47	226.94
953.76	226.92
954.06	226.88
954.36	226.86
954.66	226.84
954.95	226.84
955.25	226.80
955.55	226.83
955.84	226.79
956.14	226.80
956.44	226.82
956.73	226.82
957.03	226.80
957.32	226.80
957.62	226.74
957.92	226.74
958.21	226.73
958.51	226.85
958.81	226.86
959.10	226.87
959.40	226.90
959.69	226.92
959.99	226.97
960.29	226.97
960.58	226.96
960.88	226.99
961.17	226.99
961.47	227.06
961.76	227.01
962.06	227.01
962.36	227.00
962.65	226.95
962.95	226.96
963.24	226.94
963.54	226.96
963.83	226.98
964.13	226.99
964.42	226.96
964.72	226.87
965.01	226.88
965.31	226.88
965.60	226.85
965.90	226.89
966.19	226.87
966.49	226.88
966.78	226.87
967.08	226.87
967.37	226.86
967.67	226.84
967.96	226.85
968.26	226.88
968.55	226.87
968.85	226.89
969.14	226.88
969.43	226.89
969.73	226.84
970.02	226.84
970.32	226.83
970.61	226.82
970.91	226.81
971.20	226.77
971.49	226.73
971.79	226.76
972.08	226.66
972.38	226.65
972.67	226.63
972.96	226.68
973.26	226.69
973.55	226.74
973.85	226.72
974.14	226.74
974.43	226.72
974.73	226.74
975.02	226.75
975.31	226.74
975.61	226.74
975.90	226.77
976.19	226.79
976.49	226.80
976.78	226.78
977.07	226.75
977.37	226.77
977.66	226.78
977.95	226.74
978.24	226.73
978.54	226.78
978.83	226.78
979.12	226.73
979.42	226.71
979.71	226.70
980.00	226.69
980.29	226.71
980.59	226.69
980.88	226.71
981.17	226.69
981.46	226.72
981.76	226.72
982.05	226.71
982.34	226.71
982.63	226.70
982.93	226.74
983.22	226.80
983.51	226.79
983.80	226.82
984.09	226.84
984.39	226.84
984.68	226.80
984.97	226.79
985.26	226.81
985.55	226.82
985.85	226.77
986.14	226.80
986.43	226.78
986.72	226.77
987.01	226.70
987.30	226.69
987.59	226.68
987.89	226.66
988.18	226.67
988.47	226.67
988.76	226.64
989.05	226.62
989.34	226.61
989.63	226.63
989.92	226.61
990.22	226.59
990.51	226.61
990.80	226.62
991.09	226.65
991.38	226.65
991.67	226.66
991.96	226.67
992.25	226.63
992.54	226.61
992.83	226.63
993.12	226.66
993.41	226.68
993.70	226.70
993.99	226.74
994.28	226.73
994.58	226.72
994.87	226.73
995.16	226.72
995.45	226.70
995.74	226.63
996.03	226.64
996.32	226.63
996.61	226.64
996.90	226.62
997.19	226.60
997.48	226.60
997.77	226.56
998.06	226.56
998.34	226.57
998.63	226.58
998.92	226.58
999.21	226.57
999.50	226.56
999.79	226.52
1000.08	226.47
1000.37	226.46
1000.66	226.42
1000.95	226.44
1001.24	226.48
1001.53	226.48
1001.82	226.51
1002.11	226.48
1002.40	226.51
1002.68	226.53
1002.97	226.60
1003.26	226.60
1003.55	226.57
1003.84	226.58
1004.13	226.60
1004.42	226.62
1004.71	226.61
1004.99	226.60
1005.28	226.62
1005.57	226.60
1005.86	226.60
1006.15	226.62
1006.44	226.62
1006.72	226.67
1007.01	226.65
1007.30	226.63
1007.59	226.63
1007.88	226.61
1008.17	226.62
1008.45	226.62
1008.74	226.61
1009.03	226.58
1009.32	226.57
1009.60	226.60
1009.89	226.57
1010.18	226.55
1010.47	226.54
1010.76	226.56
1011.04	226.57
1011.33	226.58
1011.62	226.61
1011.91	226.63
1012.19	226.61
1012.48	226.61
1012.77	226.63
1013.05	226.68
1013.34	226.68
1013.63	226.64
1013.92	226.69
1014.20	226.72
1014.49	226.71
1014.78	226.71
1015.06	226.67
1015.35	226.67
1015.64	226.69
1015.92	226.75
1016.21	226.76
1016.50	226.76
1016.78	226.76
1017.07	226.76
1017.36	226.75
1017.64	226.74
1017.93	226.76
1018.22	226.81
1018.50	226.82
1018.79	226.79
1019.08	226.78
1019.36	226.79
1019.65	226.80
1019.93	226.82
1020.22	226.81
1020.51	226.84
1020.79	226.82
1021.08	227.24
1021.36	226.77
1021.65	226.73
1021.94	227.12
1022.22	226.71
1022.51	226.29
1022.79	227.46
1023.08	226.69
1023.36	227.67
1023.65	226.28
>>>>>End Processed Spectral Data<<<<<
