SpectraSuite Data File
++++++++++++++++++++++++++++++++++++
Date: Fri Feb 01 14:59:42 EST 2013
User: group
Dark Spectrum Present: No
Reference Spectrum Present: No
Number of Sampled Component Spectra: 1
Spectrometers: USB2E7196
Integration Time (usec): 35000 (USB2E7196)
Spectra Averaged: 100 (USB2E7196)
Boxcar Smoothing: 10 (USB2E7196)
Correct for Electrical Dark: No (USB2E7196)
Strobe/Lamp Enabled: No (USB2E7196)
Correct for Detector Non-linearity: No (USB2E7196)
Correct for Stray Light: No (USB2E7196)
Number of Pixels in Processed Spectrum: 2048
>>>>>Begin Processed Spectral Data<<<<<
339.09	0.00
339.48	215.08
339.86	217.13
340.24	218.25
340.63	220.36
341.01	221.93
341.39	222.35
341.78	223.39
342.16	224.84
342.54	225.14
342.93	213.71
343.31	224.49
343.69	225.04
344.07	225.50
344.46	225.93
344.84	226.29
345.22	226.54
345.60	226.81
345.99	227.00
346.37	227.15
346.75	227.26
347.13	227.34
347.52	227.38
347.90	227.45
348.28	227.46
348.66	227.52
349.05	227.50
349.43	227.51
349.81	227.55
350.19	227.63
350.57	227.65
350.96	227.70
351.34	227.78
351.72	227.90
352.10	227.97
352.48	228.03
352.87	228.07
353.25	228.12
353.63	228.16
354.01	228.23
354.39	228.25
354.77	228.33
355.15	228.41
355.54	228.46
355.92	228.48
356.30	228.52
356.68	228.65
357.06	228.72
357.44	228.76
357.82	228.82
358.20	228.88
358.58	228.95
358.97	229.02
359.35	229.11
359.73	229.14
360.11	229.19
360.49	229.24
360.87	229.27
361.25	229.34
361.63	229.39
362.01	229.45
362.39	229.49
362.77	229.52
363.15	229.55
363.53	229.60
363.91	229.66
364.29	229.69
364.67	229.58
365.05	229.60
365.43	229.60
365.81	229.61
366.19	229.64
366.57	229.69
366.95	229.70
367.33	229.65
367.71	229.60
368.09	229.57
368.47	229.55
368.85	229.52
369.23	229.49
369.61	229.41
369.99	229.38
370.37	229.35
370.75	229.34
371.13	229.28
371.51	229.20
371.89	229.11
372.27	229.09
372.65	229.06
373.03	228.99
373.41	228.92
373.78	228.84
374.16	228.72
374.54	228.59
374.92	228.49
375.30	228.42
375.68	228.35
376.06	228.30
376.44	228.22
376.82	228.17
377.19	228.09
377.57	228.02
377.95	227.95
378.33	227.87
378.71	227.77
379.09	227.72
379.47	227.67
379.84	227.58
380.22	227.48
380.60	227.41
380.98	227.37
381.36	227.32
381.73	227.25
382.11	227.22
382.49	227.15
382.87	227.08
383.25	227.00
383.62	227.05
384.00	226.95
384.38	226.89
384.76	226.85
385.13	226.86
385.51	226.80
385.89	226.72
386.27	226.64
386.64	226.58
387.02	226.51
387.40	226.45
387.78	226.44
388.15	226.39
388.53	226.34
388.91	226.29
389.29	226.26
389.66	226.27
390.04	226.23
390.42	226.23
390.79	226.22
391.17	226.22
391.55	226.12
391.92	226.12
392.30	226.13
392.68	226.09
393.05	226.05
393.43	226.08
393.81	226.10
394.18	226.12
394.56	226.12
394.94	226.17
395.31	226.21
395.69	226.27
396.06	226.33
396.44	226.35
396.82	226.39
397.19	226.46
397.57	226.50
397.95	226.59
398.32	226.66
398.70	226.74
399.07	226.86
399.45	226.94
399.82	227.04
400.20	227.11
400.58	227.22
400.95	227.27
401.33	227.37
401.70	227.54
402.08	227.67
402.45	227.79
402.83	227.92
403.20	228.02
403.58	228.15
403.95	228.29
404.33	228.47
404.71	228.61
405.08	228.80
405.46	228.96
405.83	229.09
406.21	229.24
406.58	229.42
406.96	229.57
407.33	229.75
407.70	229.98
408.08	230.26
408.45	230.50
408.83	230.74
409.20	230.97
409.58	231.15
409.95	231.42
410.33	231.67
410.70	231.94
411.08	232.25
411.45	232.55
411.82	232.88
412.20	233.25
412.57	233.71
412.95	234.01
413.32	234.39
413.69	234.81
414.07	235.22
414.44	235.69
414.82	236.17
415.19	236.69
415.56	237.24
415.94	237.77
416.31	238.39
416.68	239.06
417.06	239.75
417.43	240.47
417.81	241.22
418.18	242.04
418.55	242.87
418.93	243.74
419.30	244.64
419.67	245.55
420.04	246.47
420.42	247.43
420.79	248.58
421.16	249.73
421.54	250.92
421.91	252.14
422.28	253.38
422.66	254.71
423.03	256.04
423.40	257.32
423.77	258.75
424.15	260.17
424.52	261.64
424.89	263.27
425.26	264.82
425.64	266.31
426.01	267.89
426.38	269.56
426.75	271.23
427.13	272.93
427.50	274.77
427.87	276.69
428.24	278.52
428.61	280.27
428.99	282.19
429.36	284.29
429.73	286.34
430.10	288.36
430.47	290.40
430.85	292.48
431.22	294.74
431.59	297.11
431.96	299.33
432.33	301.78
432.70	304.14
433.08	306.94
433.45	309.54
433.82	312.18
434.19	315.09
434.56	317.93
434.93	320.64
435.30	323.23
435.68	326.10
436.05	328.95
436.42	331.79
436.79	334.36
437.16	337.04
437.53	339.91
437.90	342.75
438.27	345.50
438.64	348.35
439.01	350.97
439.38	353.23
439.75	355.46
440.13	358.00
440.50	360.37
440.87	362.19
441.24	364.18
441.61	366.27
441.98	367.73
442.35	369.54
442.72	371.33
443.09	373.20
443.46	374.17
443.83	374.78
444.20	375.28
444.57	376.15
444.94	376.47
445.31	376.80
445.68	377.16
446.05	377.30
446.42	376.95
446.79	376.51
447.16	376.04
447.53	375.68
447.90	374.52
448.27	373.35
448.64	371.79
449.01	370.62
449.37	368.69
449.74	366.77
450.11	364.49
450.48	362.04
450.85	359.44
451.22	357.33
451.59	355.30
451.96	353.37
452.33	350.73
452.70	348.31
453.07	345.52
453.43	342.60
453.80	339.81
454.17	337.09
454.54	334.56
454.91	331.84
455.28	329.23
455.65	326.75
456.02	324.30
456.38	322.16
456.75	319.49
457.12	317.23
457.49	315.04
457.86	312.89
458.23	311.02
458.59	308.99
458.96	306.87
459.33	305.00
459.70	303.11
460.07	301.60
460.43	299.93
460.80	298.26
461.17	296.83
461.54	295.29
461.91	293.87
462.27	292.45
462.64	291.18
463.01	289.78
463.38	288.47
463.74	287.08
464.11	285.93
464.48	284.91
464.85	283.82
465.21	282.97
465.58	282.00
465.95	280.91
466.32	280.04
466.68	279.13
467.05	278.25
467.42	277.35
467.78	276.40
468.15	275.53
468.52	274.88
468.88	274.00
469.25	273.25
469.62	272.64
469.98	271.95
470.35	271.29
470.72	270.68
471.08	269.98
471.45	269.46
471.82	268.86
472.18	268.21
472.55	267.74
472.92	267.16
473.28	266.71
473.65	266.24
474.02	265.74
474.38	265.34
474.75	265.00
475.11	264.63
475.48	264.36
475.85	264.12
476.21	263.83
476.58	263.65
476.94	263.46
477.31	263.26
477.67	263.09
478.04	262.99
478.41	262.91
478.77	262.93
479.14	262.84
479.50	262.87
479.87	262.95
480.23	263.00
480.60	263.04
480.96	263.09
481.33	263.30
481.69	263.53
482.06	263.72
482.42	263.90
482.79	264.15
483.15	264.44
483.52	264.81
483.88	265.16
484.25	265.56
484.61	265.98
484.98	266.39
485.34	266.91
485.71	267.50
486.07	268.13
486.44	268.70
486.80	269.36
487.17	270.05
487.53	270.81
487.90	271.67
488.26	272.62
488.62	273.64
488.99	274.58
489.35	275.58
489.72	276.71
490.08	277.92
490.44	279.19
490.81	280.55
491.17	281.88
491.54	283.35
491.90	284.87
492.26	286.52
492.63	288.26
492.99	290.07
493.36	291.96
493.72	294.00
494.08	296.11
494.45	298.39
494.81	300.74
495.17	303.20
495.54	305.78
495.90	308.47
496.26	311.23
496.63	314.19
496.99	317.28
497.35	320.52
497.72	323.91
498.08	327.38
498.44	331.03
498.80	334.92
499.17	338.96
499.53	343.07
499.89	347.46
500.26	351.96
500.62	356.57
500.98	361.54
501.34	366.57
501.71	371.87
502.07	377.31
502.43	382.92
502.79	388.70
503.16	394.67
503.52	400.92
503.88	407.31
504.24	413.91
504.60	420.73
504.97	427.90
505.33	435.17
505.69	442.86
506.05	450.58
506.41	458.45
506.78	466.59
507.14	475.05
507.50	483.67
507.86	492.65
508.22	501.85
508.59	511.01
508.95	520.56
509.31	530.33
509.67	540.37
510.03	550.67
510.39	561.25
510.75	572.15
511.12	583.01
511.48	594.32
511.84	605.80
512.20	617.33
512.56	629.26
512.92	641.44
513.28	653.75
513.64	666.34
514.00	679.11
514.37	692.02
514.73	705.08
515.09	718.14
515.45	731.45
515.81	745.00
516.17	759.03
516.53	773.13
516.89	787.35
517.25	801.55
517.61	815.95
517.97	830.31
518.33	844.73
518.69	859.62
519.05	874.68
519.41	889.98
519.77	905.62
520.13	921.04
520.49	936.52
520.85	951.95
521.21	967.66
521.57	983.93
521.93	999.70
522.29	1016.17
522.65	1032.53
523.01	1048.96
523.37	1065.06
523.73	1081.31
524.09	1097.51
524.45	1113.86
524.81	1130.62
525.17	1147.59
525.53	1164.64
525.89	1181.51
526.25	1198.40
526.61	1214.78
526.97	1231.47
527.33	1247.97
527.68	1264.70
528.04	1281.20
528.40	1298.03
528.76	1315.13
529.12	1331.75
529.48	1348.87
529.84	1365.00
530.20	1381.77
530.56	1398.78
530.91	1416.32
531.27	1433.15
531.63	1449.66
531.99	1466.38
532.35	1482.28
532.71	1498.17
533.07	1514.51
533.42	1530.53
533.78	1546.59
534.14	1562.93
534.50	1578.29
534.86	1594.23
535.21	1609.45
535.57	1625.57
535.93	1641.09
536.29	1655.93
536.65	1671.00
537.00	1685.90
537.36	1701.21
537.72	1715.72
538.08	1730.17
538.44	1744.04
538.79	1758.06
539.15	1771.95
539.51	1785.83
539.87	1800.37
540.22	1814.25
540.58	1828.28
540.94	1841.76
541.29	1854.80
541.65	1867.66
542.01	1881.01
542.37	1893.40
542.72	1905.90
543.08	1917.66
543.44	1930.13
543.79	1941.53
544.15	1952.58
544.51	1964.02
544.87	1975.03
545.22	1985.88
545.58	1996.09
545.94	2005.95
546.29	2015.76
546.65	2025.57
547.01	2034.80
547.36	2043.44
547.72	2051.82
548.07	2059.57
548.43	2067.81
548.79	2075.87
549.14	2083.37
549.50	2090.79
549.86	2098.49
550.21	2105.86
550.57	2113.17
550.92	2119.80
551.28	2126.94
551.64	2134.14
551.99	2140.89
552.35	2147.04
552.70	2153.10
553.06	2158.95
553.41	2165.24
553.77	2171.26
554.13	2177.27
554.48	2183.34
554.84	2188.81
555.19	2194.12
555.55	2199.08
555.90	2203.51
556.26	2208.29
556.61	2212.91
556.97	2217.03
557.32	2221.24
557.68	2225.36
558.03	2229.49
558.39	2233.08
558.74	2237.57
559.10	2241.23
559.45	2244.54
559.81	2248.87
560.16	2252.65
560.52	2256.00
560.87	2259.40
561.23	2261.96
561.58	2264.91
561.94	2267.42
562.29	2269.83
562.64	2272.38
563.00	2275.07
563.35	2278.51
563.71	2281.52
564.06	2284.74
564.42	2287.56
564.77	2289.82
565.12	2291.86
565.48	2293.57
565.83	2295.37
566.19	2296.41
566.54	2297.49
566.89	2298.64
567.25	2299.06
567.60	2300.39
567.96	2301.88
568.31	2302.44
568.66	2303.35
569.02	2303.86
569.37	2303.98
569.72	2304.62
570.08	2304.68
570.43	2304.42
570.78	2303.42
571.14	2301.75
571.49	2300.26
571.84	2299.88
572.20	2298.58
572.55	2297.36
572.90	2295.66
573.26	2293.91
573.61	2292.10
573.96	2289.97
574.31	2286.82
574.67	2283.62
575.02	2279.73
575.37	2276.16
575.72	2272.23
576.08	2268.86
576.43	2265.38
576.78	2261.60
577.13	2258.48
577.49	2255.30
577.84	2251.81
578.19	2248.08
578.54	2244.25
578.90	2239.88
579.25	2233.97
579.60	2228.87
579.95	2223.85
580.30	2218.75
580.66	2213.54
581.01	2208.49
581.36	2203.48
581.71	2199.11
582.06	2194.52
582.42	2189.97
582.77	2184.67
583.12	2179.92
583.47	2175.04
583.82	2169.84
584.17	2164.62
584.53	2158.81
584.88	2153.07
585.23	2147.08
585.58	2141.49
585.93	2135.95
586.28	2131.12
586.63	2126.03
586.98	2120.85
587.34	2115.97
587.69	2110.87
588.04	2105.63
588.39	2099.81
588.74	2093.19
589.09	2087.01
589.44	2080.08
589.79	2073.99
590.14	2068.20
590.49	2061.51
590.84	2054.92
591.19	2048.71
591.54	2041.87
591.89	2034.35
592.25	2027.33
592.60	2020.02
592.95	2012.31
593.30	2004.88
593.65	1997.08
594.00	1990.00
594.35	1982.59
594.70	1974.58
595.05	1967.34
595.40	1959.93
595.75	1952.43
596.10	1946.04
596.45	1939.05
596.80	1932.72
597.15	1925.93
597.50	1918.77
597.85	1912.33
598.19	1905.68
598.54	1898.51
598.89	1891.98
599.24	1886.00
599.59	1879.28
599.94	1873.02
600.29	1866.65
600.64	1860.04
600.99	1852.44
601.34	1845.50
601.69	1838.58
602.04	1831.53
602.39	1824.12
602.74	1817.24
603.08	1810.46
603.43	1803.79
603.78	1796.58
604.13	1789.36
604.48	1782.03
604.83	1775.16
605.18	1768.13
605.53	1759.98
605.87	1751.93
606.22	1744.63
606.57	1736.74
606.92	1729.48
607.27	1722.27
607.62	1715.37
607.96	1707.98
608.31	1701.41
608.66	1693.86
609.01	1686.38
609.36	1678.84
609.70	1670.82
610.05	1662.71
610.40	1655.00
610.75	1646.71
611.10	1639.10
611.44	1630.96
611.79	1623.10
612.14	1614.45
612.49	1605.34
612.83	1597.20
613.18	1589.21
613.53	1581.10
613.88	1572.59
614.22	1564.25
614.57	1555.78
614.92	1547.81
615.27	1540.26
615.61	1532.03
615.96	1524.02
616.31	1516.35
616.65	1508.98
617.00	1501.53
617.35	1493.92
617.70	1485.67
618.04	1477.17
618.39	1468.89
618.74	1461.22
619.08	1452.89
619.43	1445.40
619.78	1438.52
620.12	1431.23
620.47	1423.77
620.82	1415.65
621.16	1408.35
621.51	1400.86
621.85	1393.23
622.20	1384.75
622.55	1376.52
622.89	1368.73
623.24	1361.08
623.59	1353.80
623.93	1346.37
624.28	1339.27
624.62	1331.84
624.97	1324.64
625.32	1318.03
625.66	1311.03
626.01	1303.69
626.35	1296.15
626.70	1288.36
627.04	1280.59
627.39	1272.93
627.73	1265.43
628.08	1258.54
628.43	1251.11
628.77	1243.70
629.12	1236.14
629.46	1228.95
629.81	1221.67
630.15	1214.44
630.50	1207.21
630.84	1198.96
631.19	1191.07
631.53	1183.52
631.88	1175.94
632.22	1168.38
632.57	1161.08
632.91	1153.68
633.26	1146.43
633.60	1139.13
633.95	1132.19
634.29	1125.34
634.64	1118.77
634.98	1111.50
635.32	1104.44
635.67	1097.87
636.01	1091.23
636.36	1084.45
636.70	1077.99
637.05	1071.39
637.39	1064.99
637.73	1058.45
638.08	1052.68
638.42	1046.69
638.77	1040.23
639.11	1033.60
639.45	1027.26
639.80	1020.55
640.14	1014.12
640.49	1007.66
640.83	1001.50
641.17	995.22
641.52	988.86
641.86	982.50
642.20	976.79
642.55	970.56
642.89	964.19
643.23	957.77
643.58	952.05
643.92	945.88
644.26	939.81
644.61	933.83
644.95	927.77
645.29	921.16
645.64	914.49
645.98	908.27
646.32	902.57
646.66	896.56
647.01	890.85
647.35	885.22
647.69	879.50
648.04	874.04
648.38	868.38
648.72	862.43
649.06	856.32
649.41	850.44
649.75	844.35
650.09	838.41
650.43	832.61
650.78	826.50
651.12	820.56
651.46	814.97
651.80	809.21
652.14	803.97
652.49	798.68
652.83	793.50
653.17	787.75
653.51	781.98
653.85	776.66
654.20	771.02
654.54	765.03
654.88	759.23
655.22	753.38
655.56	747.70
655.90	742.30
656.25	737.11
656.59	731.81
656.93	726.79
657.27	721.71
657.61	716.36
657.95	711.29
658.29	706.20
658.64	700.99
658.98	695.74
659.32	690.23
659.66	685.07
660.00	679.78
660.34	674.89
660.68	670.07
661.02	665.01
661.36	660.32
661.70	655.83
662.05	651.51
662.39	647.14
662.73	642.66
663.07	638.29
663.41	633.84
663.75	629.32
664.09	624.79
664.43	620.42
664.77	616.27
665.11	612.07
665.45	608.01
665.79	603.93
666.13	599.88
666.47	595.77
666.81	591.58
667.15	587.52
667.49	583.67
667.83	579.96
668.17	576.07
668.51	572.07
668.85	568.08
669.19	564.30
669.53	560.46
669.87	556.61
670.21	552.95
670.55	549.37
670.89	545.97
671.23	542.59
671.57	539.14
671.91	535.64
672.25	532.21
672.58	528.74
672.92	525.36
673.26	522.19
673.60	519.08
673.94	516.06
674.28	513.21
674.62	510.31
674.96	507.16
675.30	504.21
675.64	501.29
675.97	498.60
676.31	495.71
676.65	492.83
676.99	490.15
677.33	487.28
677.67	484.44
678.01	481.40
678.34	478.50
678.68	475.60
679.02	472.84
679.36	470.04
679.70	467.31
680.04	464.54
680.37	461.71
680.71	458.97
681.05	456.37
681.39	453.66
681.73	450.99
682.06	448.45
682.40	445.99
682.74	443.45
683.08	440.93
683.42	438.34
683.75	435.92
684.09	433.41
684.43	430.99
684.77	428.59
685.10	426.29
685.44	423.98
685.78	421.76
686.12	419.54
686.45	417.32
686.79	415.06
687.13	412.91
687.46	410.76
687.80	408.60
688.14	406.44
688.48	404.42
688.81	402.20
689.15	400.12
689.49	397.95
689.82	395.90
690.16	393.80
690.50	391.86
690.83	389.91
691.17	387.92
691.51	386.09
691.84	384.25
692.18	382.33
692.52	380.29
692.85	378.37
693.19	376.47
693.52	374.64
693.86	372.89
694.20	371.13
694.53	369.32
694.87	367.53
695.21	365.74
695.54	363.90
695.88	362.19
696.21	360.52
696.55	358.89
696.88	357.26
697.22	355.65
697.56	354.08
697.89	352.45
698.23	350.85
698.56	349.20
698.90	347.63
699.23	345.98
699.57	344.50
699.90	342.98
700.24	341.47
700.58	339.94
700.91	338.39
701.25	336.97
701.58	335.62
701.92	334.25
702.25	332.88
702.59	331.52
702.92	330.21
703.26	328.85
703.59	327.53
703.93	326.30
704.26	325.04
704.60	323.74
704.93	322.46
705.26	321.23
705.60	320.05
705.93	318.87
706.27	317.86
706.60	316.82
706.94	315.72
707.27	314.60
707.61	313.52
707.94	312.51
708.27	311.40
708.61	310.35
708.94	309.33
709.28	308.32
709.61	307.34
709.94	306.39
710.28	305.37
710.61	304.44
710.95	303.38
711.28	302.49
711.61	301.53
711.95	300.63
712.28	299.69
712.61	298.71
712.95	297.78
713.28	296.90
713.61	295.98
713.95	295.14
714.28	294.30
714.61	293.45
714.95	292.59
715.28	291.75
715.61	290.87
715.95	290.04
716.28	289.23
716.61	288.44
716.95	287.63
717.28	286.94
717.61	286.13
717.94	285.41
718.28	284.60
718.61	283.92
718.94	283.21
719.27	282.57
719.61	281.97
719.94	281.31
720.27	280.59
720.60	279.95
720.94	279.25
721.27	278.67
721.60	278.12
721.93	277.56
722.27	277.03
722.60	276.48
722.93	275.93
723.26	275.36
723.59	274.80
723.93	274.24
724.26	273.64
724.59	273.12
724.92	272.63
725.25	272.14
725.59	271.61
725.92	271.13
726.25	270.62
726.58	270.15
726.91	269.67
727.24	269.24
727.57	268.81
727.91	268.35
728.24	267.87
728.57	267.35
728.90	266.92
729.23	266.44
729.56	266.02
729.89	265.58
730.22	265.12
730.55	264.63
730.89	264.19
731.22	263.78
731.55	263.38
731.88	262.97
732.21	262.54
732.54	262.09
732.87	261.69
733.20	261.28
733.53	260.87
733.86	260.51
734.19	260.11
734.52	259.73
734.85	259.46
735.18	259.07
735.51	258.73
735.84	258.36
736.17	258.01
736.50	257.61
736.83	257.36
737.16	257.03
737.49	256.72
737.82	256.40
738.15	256.09
738.48	255.77
738.81	255.37
739.14	255.05
739.47	254.75
739.80	254.43
740.13	254.13
740.46	253.80
740.79	253.45
741.12	253.12
741.45	252.81
741.78	252.40
742.11	252.14
742.44	251.83
742.77	251.56
743.10	251.24
743.43	250.94
743.75	250.53
744.08	250.38
744.41	250.12
744.74	249.84
745.07	249.54
745.40	249.30
745.73	249.12
746.06	248.87
746.39	248.61
746.71	248.34
747.04	248.06
747.37	247.80
747.70	247.57
748.03	247.32
748.36	247.09
748.68	246.87
749.01	246.59
749.34	246.37
749.67	246.07
750.00	245.87
750.33	245.69
750.65	245.50
750.98	245.14
751.31	244.91
751.64	244.72
751.97	244.52
752.29	244.28
752.62	244.00
752.95	243.76
753.28	243.53
753.60	243.32
753.93	243.12
754.26	242.91
754.59	242.68
754.91	242.47
755.24	242.26
755.57	242.05
755.90	241.88
756.22	241.66
756.55	241.49
756.88	241.29
757.20	241.06
757.53	240.86
757.86	240.72
758.19	240.59
758.51	240.40
758.84	240.22
759.17	240.06
759.49	239.93
759.82	239.84
760.15	239.69
760.47	239.52
760.80	239.41
761.13	239.27
761.45	239.12
761.78	238.99
762.11	238.83
762.43	238.73
762.76	238.59
763.08	238.47
763.41	238.35
763.74	238.25
764.06	238.14
764.39	238.00
764.71	237.86
765.04	237.72
765.37	237.60
765.69	237.46
766.02	237.33
766.34	237.22
766.67	237.05
767.00	236.98
767.32	236.92
767.65	236.85
767.97	236.76
768.30	236.65
768.62	236.56
768.95	236.47
769.27	236.33
769.60	236.22
769.92	236.14
770.25	236.02
770.57	235.86
770.90	235.76
771.22	235.65
771.55	235.58
771.87	235.45
772.20	235.35
772.52	235.37
772.85	235.39
773.17	235.29
773.50	235.19
773.82	235.07
774.15	234.96
774.47	234.83
774.80	234.70
775.12	234.65
775.45	234.53
775.77	234.48
776.09	234.42
776.42	234.32
776.74	234.25
777.07	234.16
777.39	234.11
777.72	234.02
778.04	233.97
778.36	233.85
778.69	233.85
779.01	233.79
779.33	233.63
779.66	233.40
779.98	233.32
780.31	233.27
780.63	233.27
780.95	233.21
781.28	233.11
781.60	233.05
781.92	232.95
782.25	232.87
782.57	232.76
782.89	232.69
783.22	232.63
783.54	232.55
783.86	232.52
784.19	232.47
784.51	232.46
784.83	232.39
785.16	232.34
785.48	232.27
785.80	232.21
786.12	232.15
786.45	232.13
786.77	232.08
787.09	232.03
787.42	231.92
787.74	231.89
788.06	231.85
788.38	231.81
788.71	231.76
789.03	231.74
789.35	231.73
789.67	231.66
789.99	231.62
790.32	231.57
790.64	231.52
790.96	231.53
791.28	231.43
791.61	231.38
791.93	231.35
792.25	231.25
792.57	231.27
792.89	231.20
793.21	231.16
793.54	231.09
793.86	231.04
794.18	230.98
794.50	230.89
794.82	230.88
795.14	230.85
795.47	230.85
795.79	230.81
796.11	230.75
796.43	230.73
796.75	230.67
797.07	230.65
797.39	230.61
797.71	230.52
798.04	230.49
798.36	230.48
798.68	230.43
799.00	230.41
799.32	230.32
799.64	230.30
799.96	230.26
800.28	230.27
800.60	230.22
800.92	230.20
801.24	230.17
801.56	230.12
801.89	230.07
802.21	230.05
802.53	230.01
802.85	229.99
803.17	229.99
803.49	229.99
803.81	229.95
804.13	229.91
804.45	229.89
804.77	229.89
805.09	229.85
805.41	229.85
805.73	229.81
806.05	229.77
806.37	229.79
806.69	229.78
807.01	229.77
807.33	229.75
807.65	229.71
807.97	229.71
808.28	229.70
808.60	229.65
808.92	229.60
809.24	229.65
809.56	229.64
809.88	229.61
810.20	229.57
810.52	229.58
810.84	229.57
811.16	229.53
811.48	229.50
811.80	229.56
812.12	229.52
812.43	229.51
812.75	229.51
813.07	229.45
813.39	229.41
813.71	229.37
814.03	229.36
814.35	229.32
814.67	229.32
814.98	229.32
815.30	229.33
815.62	229.33
815.94	229.22
816.26	229.22
816.58	229.16
816.89	229.15
817.21	229.09
817.53	229.12
817.85	229.07
818.17	229.04
818.48	228.95
818.80	228.96
819.12	228.95
819.44	228.91
819.76	228.91
820.07	228.90
820.39	228.90
820.71	228.88
821.03	228.90
821.34	228.85
821.66	228.83
821.98	228.83
822.30	228.76
822.61	228.86
822.93	228.80
823.25	228.77
823.57	228.76
823.88	228.78
824.20	228.75
824.52	228.79
824.83	228.80
825.15	228.80
825.47	228.78
825.79	228.78
826.10	228.77
826.42	228.77
826.74	228.75
827.05	228.73
827.37	228.70
827.69	228.66
828.00	228.67
828.32	228.65
828.64	228.64
828.95	228.71
829.27	228.62
829.58	228.62
829.90	228.61
830.22	228.61
830.53	228.56
830.85	228.49
831.17	228.44
831.48	228.42
831.80	228.38
832.11	228.36
832.43	228.33
832.75	228.29
833.06	228.31
833.38	228.27
833.69	228.25
834.01	228.24
834.32	228.25
834.64	228.22
834.96	228.18
835.27	228.17
835.59	228.12
835.90	228.11
836.22	228.07
836.53	228.05
836.85	228.02
837.16	228.12
837.48	228.14
837.79	228.18
838.11	228.15
838.42	228.11
838.74	228.12
839.05	228.10
839.37	228.12
839.68	228.05
840.00	228.01
840.31	228.03
840.63	228.01
840.94	228.00
841.26	228.01
841.57	227.98
841.88	228.00
842.20	227.97
842.51	227.94
842.83	227.96
843.14	228.03
843.46	228.04
843.77	227.96
844.08	227.93
844.40	227.88
844.71	227.86
845.03	227.86
845.34	227.85
845.65	227.81
845.97	227.79
846.28	227.78
846.60	227.78
846.91	227.78
847.22	227.80
847.54	227.82
847.85	227.79
848.16	227.80
848.48	227.74
848.79	227.78
849.10	227.80
849.42	227.80
849.73	227.73
850.04	227.72
850.36	227.71
850.67	227.73
850.98	227.71
851.30	227.70
851.61	227.68
851.92	227.65
852.23	227.71
852.55	227.71
852.86	227.75
853.17	227.78
853.49	227.80
853.80	227.77
854.11	227.75
854.42	227.76
854.74	227.78
855.05	227.80
855.36	227.75
855.67	227.76
855.99	227.77
856.30	227.90
856.61	227.88
856.92	227.87
857.23	227.88
857.55	227.87
857.86	227.90
858.17	227.93
858.48	227.96
858.79	227.91
859.11	227.93
859.42	227.91
859.73	227.92
860.04	227.91
860.35	227.92
860.66	227.90
860.98	227.92
861.29	227.91
861.60	227.91
861.91	227.94
862.22	227.94
862.53	227.90
862.84	227.79
863.16	227.80
863.47	227.79
863.78	227.78
864.09	227.82
864.40	227.81
864.71	227.82
865.02	227.85
865.33	227.89
865.64	227.88
865.95	227.90
866.27	227.94
866.58	227.94
866.89	227.95
867.20	227.95
867.51	227.95
867.82	227.94
868.13	227.97
868.44	227.95
868.75	227.95
869.06	227.97
869.37	227.98
869.68	227.98
869.99	228.00
870.30	228.02
870.61	228.03
870.92	228.00
871.23	228.04
871.54	228.01
871.85	228.02
872.16	228.06
872.47	228.03
872.78	227.98
873.09	227.99
873.40	228.00
873.71	228.00
874.02	227.99
874.33	227.98
874.64	227.95
874.95	227.96
875.26	227.92
875.56	227.92
875.87	227.91
876.18	227.88
876.49	227.95
876.80	227.92
877.11	227.90
877.42	227.90
877.73	227.85
878.04	227.82
878.35	227.77
878.66	227.75
878.96	227.75
879.27	227.75
879.58	227.71
879.89	227.66
880.20	227.68
880.51	227.68
880.82	227.65
881.12	227.62
881.43	227.61
881.74	227.59
882.05	227.57
882.36	227.54
882.67	227.54
882.97	227.45
883.28	227.43
883.59	227.39
883.90	227.39
884.21	227.38
884.51	227.37
884.82	227.40
885.13	227.38
885.44	227.37
885.74	227.36
886.05	227.36
886.36	227.36
886.67	227.33
886.98	227.32
887.28	227.36
887.59	227.40
887.90	227.34
888.20	227.33
888.51	227.35
888.82	227.37
889.13	227.36
889.43	227.41
889.74	227.41
890.05	227.39
890.35	227.38
890.66	227.41
890.97	227.42
891.28	227.39
891.58	227.40
891.89	227.36
892.20	227.37
892.50	227.34
892.81	227.34
893.12	227.34
893.42	227.31
893.73	227.29
894.04	227.25
894.34	227.32
894.65	227.34
894.95	227.31
895.26	227.30
895.57	227.35
895.87	227.27
896.18	227.31
896.48	227.35
896.79	227.35
897.10	227.30
897.40	227.32
897.71	227.29
898.01	227.26
898.32	227.33
898.63	227.30
898.93	227.34
899.24	227.34
899.54	227.34
899.85	227.36
900.15	227.36
900.46	227.39
900.76	227.39
901.07	227.38
901.38	227.41
901.68	227.43
901.99	227.40
902.29	227.41
902.60	227.40
902.90	227.39
903.21	227.41
903.51	227.46
903.82	227.48
904.12	227.52
904.43	227.56
904.73	227.50
905.03	227.55
905.34	227.62
905.64	227.64
905.95	227.66
906.25	227.64
906.56	227.65
906.86	227.63
907.17	227.64
907.47	227.68
907.77	227.67
908.08	227.64
908.38	227.63
908.69	227.63
908.99	227.65
909.30	227.65
909.60	227.63
909.90	227.62
910.21	227.61
910.51	227.60
910.81	227.61
911.12	227.64
911.42	227.59
911.73	227.49
912.03	227.50
912.33	227.49
912.64	227.49
912.94	227.49
913.24	227.48
913.55	227.48
913.85	227.46
914.15	227.49
914.46	227.51
914.76	227.53
915.06	227.53
915.37	227.50
915.67	227.49
915.97	227.51
916.27	227.47
916.58	227.46
916.88	227.45
917.18	227.41
917.49	227.47
917.79	227.49
918.09	227.52
918.39	227.51
918.70	227.52
919.00	227.51
919.30	227.53
919.60	227.51
919.91	227.48
920.21	227.43
920.51	227.38
920.81	227.34
921.12	227.31
921.42	227.28
921.72	227.29
922.02	227.27
922.32	227.24
922.63	227.24
922.93	227.29
923.23	227.29
923.53	227.28
923.83	227.20
924.13	227.19
924.44	227.16
924.74	227.17
925.04	227.15
925.34	227.15
925.64	227.12
925.94	227.11
926.24	227.17
926.55	227.18
926.85	227.20
927.15	227.22
927.45	227.19
927.75	227.22
928.05	227.21
928.35	227.23
928.65	227.24
928.95	227.23
929.26	227.21
929.56	227.22
929.86	227.20
930.16	227.21
930.46	227.18
930.76	227.19
931.06	227.15
931.36	227.16
931.66	227.19
931.96	227.17
932.26	227.17
932.56	227.10
932.86	227.10
933.16	227.08
933.46	227.05
933.76	227.07
934.06	227.07
934.36	227.12
934.66	227.09
934.96	227.07
935.26	227.09
935.56	227.06
935.86	226.99
936.16	227.01
936.46	226.96
936.76	226.97
937.06	226.97
937.36	226.98
937.66	226.98
937.96	226.98
938.26	227.00
938.56	226.98
938.86	227.01
939.16	227.03
939.46	227.07
939.76	227.10
940.06	227.09
940.35	227.10
940.65	227.04
940.95	227.08
941.25	227.07
941.55	227.04
941.85	227.07
942.15	227.17
942.45	227.21
942.75	227.24
943.04	227.27
943.34	227.31
943.64	227.31
943.94	227.30
944.24	227.30
944.54	227.30
944.84	227.34
945.13	227.34
945.43	227.32
945.73	227.32
946.03	227.33
946.33	227.35
946.62	227.32
946.92	227.32
947.22	227.33
947.52	227.38
947.82	227.44
948.11	227.43
948.41	227.37
948.71	227.33
949.01	227.31
949.31	227.31
949.60	227.29
949.90	227.29
950.20	227.28
950.50	227.27
950.79	227.24
951.09	227.24
951.39	227.24
951.69	227.25
951.98	227.25
952.28	227.22
952.58	227.18
952.87	227.20
953.17	227.20
953.47	227.17
953.76	227.15
954.06	227.10
954.36	227.10
954.66	227.09
954.95	227.09
955.25	227.10
955.55	227.10
955.84	227.06
956.14	227.07
956.44	227.08
956.73	227.04
957.03	227.05
957.32	227.05
957.62	227.04
957.92	227.01
958.21	227.01
958.51	227.10
958.81	227.10
959.10	227.10
959.40	227.12
959.69	227.10
959.99	227.10
960.29	227.09
960.58	227.06
960.88	227.08
961.17	227.08
961.47	227.09
961.76	227.04
962.06	227.05
962.36	227.02
962.65	227.02
962.95	227.02
963.24	227.02
963.54	227.01
963.83	226.98
964.13	226.98
964.42	226.94
964.72	226.87
965.01	226.90
965.31	226.90
965.60	226.88
965.90	226.96
966.19	226.92
966.49	226.95
966.78	226.94
967.08	226.91
967.37	226.91
967.67	226.88
967.96	226.90
968.26	226.90
968.55	226.91
968.85	226.90
969.14	226.94
969.43	226.91
969.73	226.91
970.02	226.94
970.32	226.94
970.61	226.94
970.91	226.93
971.20	226.90
971.49	226.91
971.79	226.94
972.08	226.89
972.38	226.92
972.67	226.90
972.96	226.91
973.26	226.96
973.55	227.02
973.85	227.01
974.14	227.05
974.43	227.05
974.73	227.04
975.02	227.02
975.31	227.03
975.61	227.07
975.90	227.07
976.19	227.06
976.49	227.08
976.78	227.10
977.07	227.11
977.37	227.14
977.66	227.15
977.95	227.14
978.24	227.13
978.54	227.17
978.83	227.17
979.12	227.20
979.42	227.18
979.71	227.17
980.00	227.19
980.29	227.22
980.59	227.22
980.88	227.26
981.17	227.30
981.46	227.29
981.76	227.28
982.05	227.31
982.34	227.30
982.63	227.29
982.93	227.31
983.22	227.33
983.51	227.34
983.80	227.34
984.09	227.32
984.39	227.29
984.68	227.28
984.97	227.26
985.26	227.28
985.55	227.27
985.85	227.22
986.14	227.26
986.43	227.23
986.72	227.23
987.01	227.20
987.30	227.17
987.59	227.15
987.89	227.15
988.18	227.12
988.47	227.15
988.76	227.16
989.05	227.15
989.34	227.11
989.63	227.10
989.92	227.10
990.22	227.10
990.51	227.10
990.80	227.07
991.09	227.10
991.38	227.07
991.67	227.08
991.96	227.09
992.25	227.09
992.54	227.06
992.83	227.02
993.12	227.01
993.41	227.05
993.70	227.10
993.99	227.11
994.28	227.10
994.58	227.09
994.87	227.06
995.16	227.05
995.45	227.06
995.74	227.03
996.03	226.99
996.32	226.97
996.61	227.01
996.90	227.01
997.19	226.96
997.48	226.95
997.77	226.93
998.06	226.92
998.34	226.90
998.63	226.93
998.92	226.96
999.21	226.97
999.50	226.95
999.79	226.92
1000.08	226.90
1000.37	226.94
1000.66	226.93
1000.95	226.97
1001.24	226.97
1001.53	227.01
1001.82	227.03
1002.11	227.02
1002.40	227.06
1002.68	227.06
1002.97	227.15
1003.26	227.17
1003.55	227.15
1003.84	227.16
1004.13	227.19
1004.42	227.16
1004.71	227.12
1004.99	227.10
1005.28	227.12
1005.57	227.13
1005.86	227.12
1006.15	227.18
1006.44	227.15
1006.72	227.19
1007.01	227.16
1007.30	227.18
1007.59	227.17
1007.88	227.18
1008.17	227.22
1008.45	227.21
1008.74	227.17
1009.03	227.15
1009.32	227.13
1009.60	227.15
1009.89	227.13
1010.18	227.16
1010.47	227.15
1010.76	227.18
1011.04	227.20
1011.33	227.20
1011.62	227.19
1011.91	227.21
1012.19	227.18
1012.48	227.21
1012.77	227.18
1013.05	227.25
1013.34	227.26
1013.63	227.26
1013.92	227.27
1014.20	227.27
1014.49	227.29
1014.78	227.34
1015.06	227.32
1015.35	227.36
1015.64	227.37
1015.92	227.43
1016.21	227.42
1016.50	227.43
1016.78	227.45
1017.07	227.44
1017.36	227.43
1017.64	227.47
1017.93	227.47
1018.22	227.47
1018.50	227.48
1018.79	227.46
1019.08	227.41
1019.36	227.42
1019.65	227.41
1019.93	227.42
1020.22	227.43
1020.51	227.45
1020.79	227.43
1021.08	227.22
1021.36	227.50
1021.65	226.82
1021.94	227.45
1022.22	227.60
1022.51	227.25
1022.79	227.59
1023.08	227.27
1023.36	228.15
1023.65	227.16
>>>>>End Processed Spectral Data<<<<<
